[{"start_time":1552312784647,"click_time":1552312791902,"finger_time":1552312787501,"fix_duration":601.865041694492,"trial":0,"RT":2854,"MT":4401,"sideResp":2,"stimulus":[],"xmouse":[764,764,764,764,764,764,764,764,764,764,764,764,764,764,764,764,764,764,764,764,764,764,764,764,764,764,764,764,764,764,764,764,764,764,764,764,764,764,764,764,764,764,764,764,764,764,764,764,764,764,764,764,764,764,764,764,764,764,764,764,764,764,764,764,764,764,764,764,764,764,764,764,764,764,764,764,764,764,764,764,764,764,764,764,764,764,764,764,764,764,764,764,764,764,764,764,764,764,764,764,764,764,764,764,764,764,764,764,764,764,764,764,764,764,764,764,764,764,764,764,764,764,764,764,764,764,764,764,764,764,764,764,764,764,764,765,776,811,821,826,828,831,845,855,860,864,866,868,868,871,872,873,877,877,878,878,878,878,878,878,878,878,878,878,878,878,878,878,878,878,878,878,878,878,878,878,878,885,886,887,887,887,887,887,887,888,889,889,889,889,889,889,889,889,889,889,889,889,889,889,889,889,889,889,889,889,889,888,888,888,888,888,888,888,888,888,888,888,888,881,873,864,856,853,851,848,847,846,845,842,840,837,828,826,825,825,824,824,824,824,824,824,824,824,822,819,818,818,818,818,818,818,818,818,818,818,818,818,818,818,818,818,818,818,818,818,818,818,818,818,818,818,818,818,818,818,818,818,818,818,818,818,818,818,818,818,818,818,818,818,818,818,818,818,818,818,818,818,818,818,818,818,818,818,823,832,871,931,953,971,985,995,1000,1000,1000,1000,1000,999,998,997,997,997,996,994,994,994,994,992,990,990,990,989,986,986,985,985,985,985,985,985,986,986,986,987,990,993,999,1010,1015,1020,1028,1036,1049,1058,1071,1079,1086,1099,1104,1108,1111,1111,1112],"ymouse":[531,531,531,531,531,531,531,531,531,531,531,531,531,531,531,531,531,531,531,531,531,531,531,531,531,531,531,531,531,531,531,531,531,531,531,531,531,531,531,531,531,531,531,531,531,531,531,531,531,531,531,531,531,531,531,531,531,531,531,531,531,531,531,531,531,531,531,531,531,531,531,531,531,531,531,531,531,531,531,531,531,531,531,531,531,531,531,531,531,531,531,531,531,531,531,531,531,531,531,531,531,531,531,531,531,531,531,531,531,531,531,531,531,531,531,531,531,531,531,531,531,531,531,531,531,531,531,531,531,531,531,531,531,531,531,531,530,525,523,522,522,521,506,495,488,483,481,478,478,472,469,467,460,457,451,446,442,440,440,440,440,440,440,440,440,440,440,440,440,440,440,440,440,440,440,438,436,425,421,420,420,420,420,420,420,418,417,417,417,417,417,417,417,417,416,416,416,416,416,416,416,416,416,416,416,416,415,415,415,415,415,415,415,415,415,415,415,415,415,415,421,424,429,431,433,436,436,437,438,441,446,459,485,491,498,507,513,517,517,517,518,519,526,531,536,541,544,546,547,547,547,547,547,547,547,547,547,547,547,547,547,547,547,547,547,547,547,547,547,547,547,547,547,547,547,547,547,547,547,547,547,547,547,547,547,547,547,547,547,547,547,547,547,547,547,547,547,547,547,547,547,547,547,547,548,546,540,533,530,527,523,518,518,518,518,518,518,518,518,518,518,518,518,518,518,518,518,518,518,518,518,518,518,518,518,518,518,512,506,496,488,478,454,435,423,417,407,394,389,379,366,352,325,309,284,266,249,220,205,186,163,138,95],"timestamp_mouse":[14,37,54,74,94,114,134,154,175,193,213,234,254,273,295,313,334,354,373,393,414,434,453,473,493,514,535,554,573,595,614,633,653,675,695,714,734,754,773,795,814,834,854,873,895,914,934,954,973,993,1014,1034,1055,1074,1095,1115,1134,1153,1173,1194,1215,1235,1254,1274,1294,1313,1334,1353,1374,1395,1413,1433,1453,1474,1493,1514,1534,1553,1574,1594,1613,1635,1655,1675,1695,1714,1734,1755,1774,1794,1814,1834,1855,1875,1893,1914,1935,1954,1973,1994,2015,2034,2054,2075,2093,2115,2133,2153,2174,2193,2215,2233,2255,2274,2294,2313,2334,2354,2375,2394,2415,2435,2453,2473,2495,2514,2533,2555,2573,2593,2615,2633,2654,2675,2693,2714,2734,2754,2773,2794,2814,2835,2854,2875,2894,2914,2934,2953,2974,2995,3014,3034,3053,3074,3093,3115,3135,3155,3174,3195,3214,3234,3254,3274,3293,3313,3334,3354,3374,3393,3415,3433,3454,3474,3493,3514,3534,3554,3574,3595,3615,3634,3653,3673,3694,3713,3734,3754,3774,3793,3814,3834,3853,3873,3894,3915,3934,3953,3974,3993,4014,4034,4053,4074,4094,4114,4135,4153,4174,4194,4215,4234,4254,4274,4293,4315,4334,4354,4373,4394,4414,4434,4454,4474,4494,4515,4535,4554,4573,4594,4615,4634,4654,4674,4693,4715,4734,4753,4773,4794,4814,4834,4854,4874,4893,4915,4934,4955,4974,4994,5013,5033,5055,5075,5094,5113,5135,5155,5174,5194,5214,5233,5255,5273,5293,5315,5333,5355,5373,5394,5414,5434,5454,5474,5494,5514,5534,5553,5573,5594,5615,5634,5653,5675,5694,5714,5733,5754,5774,5795,5815,5834,5853,5874,5895,5915,5934,5954,5974,5994,6013,6033,6055,6074,6093,6115,6134,6154,6174,6194,6213,6234,6253,6275,6295,6313,6333,6354,6374,6393,6413,6435,6454,6474,6494,6515,6534,6554,6574,6594,6614,6635,6654,6674,6693,6714,6734,6754,6774,6794,6814,6835,6854,6874,6894,6913,6934,6954,6974,6995,7014,7035,7054,7073,7093,7114,7133,7154,7174,7194,7214,7235,7254],"xSR":741.5,"ySR":501.8,"xT1":424.9,"yT1":0,"xT2":1058.1,"yT2":0,"toosoon":0,"cond_shown":"Congruent","ratio_trial":100,"L_num":8,"L_den":16,"R_num":2,"R_den":5,"correct_side":1,"subjID":"sarapereira24","gender":"1","age":"9","school":"4","test":{"fix_dur":[250,1500],"timestim":1000,"targets_dim":[100,100],"targets_relative_coord":[0.3,0.7],"size_stim":[880,420],"start_dim":[100,100],"size_start":[300,300],"size_fix":60,"samplingrate":20,"img_types":["Congruent","Incongruent"],"ratios":[100,200,300],"rep_conds":19,"nTrials":120,"trials_to_rest":500,"Trials_order":[60,12,24,20,30,6,103,15,91,97,67,50,62,21,26,7,31,69,13,23,106,85,63,89,116,71,11,101,25,29,93,59,78,112,88,55,64,113,3,98,109,35,75,115,102,82,32,99,28,49,114,84,53,54,119,80,74,16,57,81,83,43,18,76,94,0,47,104,105,48,90,42,65,73,108,27,56,37,77,61,9,34,111,70,92,58,96,14,39,10,51,72,100,5,44,8,45,52,19,117,38,40,1,33,87,107,17,36,68,86,4,41,22,79,46,95,66,118,110,2],"cond_shown":["Congruent","Congruent","Congruent","Congruent","Congruent","Congruent","Incongruent","Incongruent","Incongruent","Incongruent","Incongruent","Congruent","Congruent","Incongruent","Congruent","Incongruent","Incongruent","Incongruent","Incongruent","Incongruent","Congruent","Incongruent","Incongruent","Incongruent","Congruent","Incongruent","Incongruent","Incongruent","Incongruent","Incongruent","Incongruent","Incongruent","Congruent","Congruent","Congruent","Incongruent","Congruent","Incongruent","Incongruent","Congruent","Incongruent","Incongruent","Incongruent","Incongruent","Congruent","Congruent","Congruent","Incongruent","Congruent","Incongruent","Congruent","Congruent","Incongruent","Congruent","Incongruent","Congruent","Congruent","Congruent","Incongruent","Incongruent","Incongruent","Incongruent","Congruent","Congruent","Congruent","Congruent","Incongruent","Congruent","Incongruent","Congruent","Congruent","Congruent","Incongruent","Incongruent","Congruent","Incongruent","Congruent","Incongruent","Incongruent","Incongruent","Incongruent","Congruent","Incongruent","Congruent","Congruent","Congruent","Congruent","Congruent","Incongruent","Congruent","Incongruent","Congruent","Congruent","Incongruent","Congruent","Congruent","Incongruent","Congruent","Incongruent","Incongruent","Congruent","Congruent","Incongruent","Incongruent","Incongruent","Incongruent","Incongruent","Congruent","Congruent","Congruent","Congruent","Incongruent","Congruent","Incongruent","Congruent","Incongruent","Congruent","Congruent","Congruent","Congruent"],"ratio_trial":[100,100,100,200,100,100,100,200,100,100,100,200,200,200,200,100,100,200,100,300,300,100,200,300,200,300,300,300,100,300,200,300,100,300,300,100,300,300,200,200,100,300,200,100,100,300,200,200,300,100,100,100,300,100,300,200,200,300,200,200,300,100,100,300,300,100,300,200,200,100,100,100,300,100,100,200,200,100,300,100,200,300,200,300,200,300,100,200,200,300,200,100,300,300,200,200,200,300,100,200,200,300,100,200,200,300,300,100,200,200,300,300,300,100,300,300,100,300,200,200],"left_num":[8,3,7,3,12,3,8,3,3,8,2,21,15,4,3,8,13,14,6,13,24,13,7,8,8,8,8,4,6,4,7,13,15,5,7,8,20,13,3,8,13,13,11,17,7,24,15,7,5,6,1,9,13,9,4,21,6,1,1,14,8,12,12,18,1,2,4,12,4,4,1,4,3,8,6,7,20,8,4,17,7,18,14,5,1,7,9,3,14,4,4,2,20,1,4,13,6,5,10,7,20,4,3,4,14,4,1,9,3,9,5,13,1,1,1,4,15,5,13,4],"right_num":[2,4,15,14,13,2,1,11,4,6,6,2,4,14,11,6,6,6,3,12,8,12,12,9,2,9,14,2,7,2,14,12,13,6,20,6,9,12,1,7,6,12,3,10,9,8,4,14,6,7,3,8,12,8,6,2,7,3,3,12,14,2,13,9,19,11,2,6,1,15,18,15,4,1,5,14,9,6,8,10,12,9,12,6,21,20,8,14,6,2,14,11,8,3,3,14,3,7,9,12,9,2,4,14,12,2,2,8,14,13,6,12,3,8,8,2,13,6,14,3],"left_den":[16,20,14,10,30,6,20,4,6,16,4,30,25,6,10,16,26,30,12,26,30,26,10,10,15,10,10,20,10,20,10,26,25,25,14,16,25,26,10,15,26,26,20,30,14,30,25,10,25,10,2,15,26,15,5,30,12,5,2,30,10,30,30,20,3,5,20,15,30,10,2,10,6,20,20,10,25,16,5,30,10,20,30,25,2,14,15,6,30,5,6,5,25,2,10,26,20,25,25,10,25,5,6,6,30,20,2,15,6,30,25,26,5,2,30,20,25,25,26,8],"right_den":[5,16,25,28,26,5,2,20,10,10,15,4,10,30,22,10,10,9,5,15,16,20,24,18,6,18,28,4,14,4,28,15,26,12,25,10,18,15,2,21,10,15,4,15,15,16,10,28,12,14,5,16,15,16,12,4,10,6,10,18,28,4,26,15,30,22,4,10,3,30,30,30,20,2,25,28,15,10,16,15,24,15,18,12,30,25,16,20,9,4,30,22,16,15,15,20,6,14,18,24,15,4,10,30,18,4,10,16,20,26,12,15,6,20,24,4,26,12,20,10],"correct_side":[1,2,2,2,2,1,2,1,1,2,1,1,1,1,2,2,2,2,2,2,1,2,1,1,1,1,1,2,1,2,1,2,1,2,2,2,1,2,2,1,2,2,2,2,2,1,1,1,2,1,2,1,2,1,1,1,2,2,1,2,1,2,2,1,2,2,2,1,2,2,2,2,1,2,1,1,1,2,1,2,1,1,2,2,2,2,1,2,2,1,1,2,1,1,1,2,2,2,2,1,1,1,1,1,2,2,1,1,2,2,2,2,2,1,2,2,1,2,2,1],"img_shown":["img2/100/Congruent/L/C_Dist_100_LN_8_LD_16_RN_2_RD_5_0.png","img2/100/Congruent/R/C_Dist_100_LN_3_LD_20_RN_4_RD_16_1.png","img2/100/Congruent/R/C_Dist_100_LN_7_LD_14_RN_15_RD_25_1.png","img2/200/Congruent/R/C_Dist_200_LN_3_LD_10_RN_14_RD_28_1.png","img2/100/Congruent/R/C_Dist_100_LN_12_LD_30_RN_13_RD_26_1.png","img2/100/Congruent/L/C_Dist_100_LN_3_LD_6_RN_2_RD_5_0.png","img2/100/Incongruent/R/I_Dist_100_LN_8_LD_20_RN_1_RD_2_1.png","img2/200/Incongruent/L/I_Dist_200_LN_3_LD_4_RN_11_RD_20_0.png","img2/100/Incongruent/L/I_Dist_100_LN_3_LD_6_RN_4_RD_10_0.png","img2/100/Incongruent/R/I_Dist_100_LN_8_LD_16_RN_6_RD_10_1.png","img2/100/Incongruent/L/I_Dist_100_LN_2_LD_4_RN_6_RD_15_0.png","img2/200/Congruent/L/C_Dist_200_LN_21_LD_30_RN_2_RD_4_0.png","img2/200/Congruent/L/C_Dist_200_LN_15_LD_25_RN_4_RD_10_0.png","img2/200/Incongruent/L/I_Dist_200_LN_4_LD_6_RN_14_RD_30_0.png","img2/200/Congruent/R/C_Dist_200_LN_3_LD_10_RN_11_RD_22_1.png","img2/100/Incongruent/R/I_Dist_100_LN_8_LD_16_RN_6_RD_10_1.png","img2/100/Incongruent/R/I_Dist_100_LN_13_LD_26_RN_6_RD_10_1.png","img2/200/Incongruent/R/I_Dist_200_LN_14_LD_30_RN_6_RD_9_1.png","img2/100/Incongruent/R/I_Dist_100_LN_6_LD_12_RN_3_RD_5_1.png","img2/300/Incongruent/R/I_Dist_300_LN_13_LD_26_RN_12_RD_15_1.png","img2/300/Congruent/L/C_Dist_300_LN_24_LD_30_RN_8_RD_16_0.png","img2/100/Incongruent/R/I_Dist_100_LN_13_LD_26_RN_12_RD_20_1.png","img2/200/Incongruent/L/I_Dist_200_LN_7_LD_10_RN_12_RD_24_0.png","img2/300/Incongruent/L/I_Dist_300_LN_8_LD_10_RN_9_RD_18_0.png","img2/200/Congruent/L/C_Dist_200_LN_8_LD_15_RN_2_RD_6_0.png","img2/300/Incongruent/L/I_Dist_300_LN_8_LD_10_RN_9_RD_18_0.png","img2/300/Incongruent/L/I_Dist_300_LN_8_LD_10_RN_14_RD_28_0.png","img2/300/Incongruent/R/I_Dist_300_LN_4_LD_20_RN_2_RD_4_1.png","img2/100/Incongruent/L/I_Dist_100_LN_6_LD_10_RN_7_RD_14_0.png","img2/300/Incongruent/R/I_Dist_300_LN_4_LD_20_RN_2_RD_4_1.png","img2/200/Incongruent/L/I_Dist_200_LN_7_LD_10_RN_14_RD_28_0.png","img2/300/Incongruent/R/I_Dist_300_LN_13_LD_26_RN_12_RD_15_1.png","img2/100/Congruent/L/C_Dist_100_LN_15_LD_25_RN_13_RD_26_0.png","img2/300/Congruent/R/C_Dist_300_LN_5_LD_25_RN_6_RD_12_1.png","img2/300/Congruent/R/C_Dist_300_LN_7_LD_14_RN_20_RD_25_1.png","img2/100/Incongruent/R/I_Dist_100_LN_8_LD_16_RN_6_RD_10_1.png","img2/300/Congruent/L/C_Dist_300_LN_20_LD_25_RN_9_RD_18_0.png","img2/300/Incongruent/R/I_Dist_300_LN_13_LD_26_RN_12_RD_15_1.png","img2/200/Incongruent/R/I_Dist_200_LN_3_LD_10_RN_1_RD_2_1.png","img2/200/Congruent/L/C_Dist_200_LN_8_LD_15_RN_7_RD_21_0.png","img2/100/Incongruent/R/I_Dist_100_LN_13_LD_26_RN_6_RD_10_1.png","img2/300/Incongruent/R/I_Dist_300_LN_13_LD_26_RN_12_RD_15_1.png","img2/200/Incongruent/R/I_Dist_200_LN_11_LD_20_RN_3_RD_4_1.png","img2/100/Incongruent/R/I_Dist_100_LN_17_LD_30_RN_10_RD_15_1.png","img2/100/Congruent/R/C_Dist_100_LN_7_LD_14_RN_9_RD_15_1.png","img2/300/Congruent/L/C_Dist_300_LN_24_LD_30_RN_8_RD_16_0.png","img2/200/Congruent/L/C_Dist_200_LN_15_LD_25_RN_4_RD_10_0.png","img2/200/Incongruent/L/I_Dist_200_LN_7_LD_10_RN_14_RD_28_0.png","img2/300/Congruent/R/C_Dist_300_LN_5_LD_25_RN_6_RD_12_1.png","img2/100/Incongruent/L/I_Dist_100_LN_6_LD_10_RN_7_RD_14_0.png","img2/100/Congruent/R/C_Dist_100_LN_1_LD_2_RN_3_RD_5_1.png","img2/100/Congruent/L/C_Dist_100_LN_9_LD_15_RN_8_RD_16_0.png","img2/300/Incongruent/R/I_Dist_300_LN_13_LD_26_RN_12_RD_15_1.png","img2/100/Congruent/L/C_Dist_100_LN_9_LD_15_RN_8_RD_16_0.png","img2/300/Incongruent/L/I_Dist_300_LN_4_LD_5_RN_6_RD_12_0.png","img2/200/Congruent/L/C_Dist_200_LN_21_LD_30_RN_2_RD_4_0.png","img2/200/Congruent/R/C_Dist_200_LN_6_LD_12_RN_7_RD_10_1.png","img2/300/Congruent/R/C_Dist_300_LN_1_LD_5_RN_3_RD_6_1.png","img2/200/Incongruent/L/I_Dist_200_LN_1_LD_2_RN_3_RD_10_0.png","img2/200/Incongruent/R/I_Dist_200_LN_14_LD_30_RN_12_RD_18_1.png","img2/300/Incongruent/L/I_Dist_300_LN_8_LD_10_RN_14_RD_28_0.png","img2/100/Incongruent/R/I_Dist_100_LN_12_LD_30_RN_2_RD_4_1.png","img2/100/Congruent/R/C_Dist_100_LN_12_LD_30_RN_13_RD_26_1.png","img2/300/Congruent/L/C_Dist_300_LN_18_LD_20_RN_9_RD_15_0.png","img2/300/Congruent/R/C_Dist_300_LN_1_LD_3_RN_19_RD_30_1.png","img2/100/Congruent/R/C_Dist_100_LN_2_LD_5_RN_11_RD_22_1.png","img2/300/Incongruent/R/I_Dist_300_LN_4_LD_20_RN_2_RD_4_1.png","img2/200/Congruent/L/C_Dist_200_LN_12_LD_15_RN_6_RD_10_0.png","img2/200/Incongruent/R/I_Dist_200_LN_4_LD_30_RN_1_RD_3_1.png","img2/100/Congruent/R/C_Dist_100_LN_4_LD_10_RN_15_RD_30_1.png","img2/100/Congruent/R/C_Dist_100_LN_1_LD_2_RN_18_RD_30_1.png","img2/100/Congruent/R/C_Dist_100_LN_4_LD_10_RN_15_RD_30_1.png","img2/300/Incongruent/L/I_Dist_300_LN_3_LD_6_RN_4_RD_20_0.png","img2/100/Incongruent/R/I_Dist_100_LN_8_LD_20_RN_1_RD_2_1.png","img2/100/Congruent/L/C_Dist_100_LN_6_LD_20_RN_5_RD_25_0.png","img2/200/Incongruent/L/I_Dist_200_LN_7_LD_10_RN_14_RD_28_0.png","img2/200/Congruent/L/C_Dist_200_LN_20_LD_25_RN_9_RD_15_0.png","img2/100/Incongruent/R/I_Dist_100_LN_8_LD_16_RN_6_RD_10_1.png","img2/300/Incongruent/L/I_Dist_300_LN_4_LD_5_RN_8_RD_16_0.png","img2/100/Incongruent/R/I_Dist_100_LN_17_LD_30_RN_10_RD_15_1.png","img2/200/Incongruent/L/I_Dist_200_LN_7_LD_10_RN_12_RD_24_0.png","img2/300/Congruent/L/C_Dist_300_LN_18_LD_20_RN_9_RD_15_0.png","img2/200/Incongruent/R/I_Dist_200_LN_14_LD_30_RN_12_RD_18_1.png","img2/300/Congruent/R/C_Dist_300_LN_5_LD_25_RN_6_RD_12_1.png","img2/200/Congruent/R/C_Dist_200_LN_1_LD_2_RN_21_RD_30_1.png","img2/300/Congruent/R/C_Dist_300_LN_7_LD_14_RN_20_RD_25_1.png","img2/100/Congruent/L/C_Dist_100_LN_9_LD_15_RN_8_RD_16_0.png","img2/200/Congruent/R/C_Dist_200_LN_3_LD_6_RN_14_RD_20_1.png","img2/200/Incongruent/R/I_Dist_200_LN_14_LD_30_RN_6_RD_9_1.png","img2/300/Congruent/L/C_Dist_300_LN_4_LD_5_RN_2_RD_4_0.png","img2/200/Incongruent/L/I_Dist_200_LN_4_LD_6_RN_14_RD_30_0.png","img2/100/Congruent/R/C_Dist_100_LN_2_LD_5_RN_11_RD_22_1.png","img2/300/Congruent/L/C_Dist_300_LN_20_LD_25_RN_8_RD_16_0.png","img2/300/Incongruent/L/I_Dist_300_LN_1_LD_2_RN_3_RD_15_0.png","img2/200/Congruent/L/C_Dist_200_LN_4_LD_10_RN_3_RD_15_0.png","img2/200/Congruent/R/C_Dist_200_LN_13_LD_26_RN_14_RD_20_1.png","img2/200/Incongruent/R/I_Dist_200_LN_6_LD_20_RN_3_RD_6_1.png","img2/300/Congruent/R/C_Dist_300_LN_5_LD_25_RN_7_RD_14_1.png","img2/100/Incongruent/R/I_Dist_100_LN_10_LD_25_RN_9_RD_18_1.png","img2/200/Incongruent/L/I_Dist_200_LN_7_LD_10_RN_12_RD_24_0.png","img2/200/Congruent/L/C_Dist_200_LN_20_LD_25_RN_9_RD_15_0.png","img2/300/Congruent/L/C_Dist_300_LN_4_LD_5_RN_2_RD_4_0.png","img2/100/Incongruent/L/I_Dist_100_LN_3_LD_6_RN_4_RD_10_0.png","img2/200/Incongruent/L/I_Dist_200_LN_4_LD_6_RN_14_RD_30_0.png","img2/200/Incongruent/R/I_Dist_200_LN_14_LD_30_RN_12_RD_18_1.png","img2/300/Incongruent/R/I_Dist_300_LN_4_LD_20_RN_2_RD_4_1.png","img2/300/Incongruent/L/I_Dist_300_LN_1_LD_2_RN_2_RD_10_0.png","img2/100/Congruent/L/C_Dist_100_LN_9_LD_15_RN_8_RD_16_0.png","img2/200/Congruent/R/C_Dist_200_LN_3_LD_6_RN_14_RD_20_1.png","img2/200/Congruent/R/C_Dist_200_LN_9_LD_30_RN_13_RD_26_1.png","img2/300/Congruent/R/C_Dist_300_LN_5_LD_25_RN_6_RD_12_1.png","img2/300/Incongruent/R/I_Dist_300_LN_13_LD_26_RN_12_RD_15_1.png","img2/300/Congruent/R/C_Dist_300_LN_1_LD_5_RN_3_RD_6_1.png","img2/100/Incongruent/L/I_Dist_100_LN_1_LD_2_RN_8_RD_20_0.png","img2/300/Congruent/R/C_Dist_300_LN_1_LD_30_RN_8_RD_24_1.png","img2/300/Incongruent/R/I_Dist_300_LN_4_LD_20_RN_2_RD_4_1.png","img2/100/Congruent/L/C_Dist_100_LN_15_LD_25_RN_13_RD_26_0.png","img2/300/Congruent/R/C_Dist_300_LN_5_LD_25_RN_6_RD_12_1.png","img2/200/Congruent/R/C_Dist_200_LN_13_LD_26_RN_14_RD_20_1.png","img2/200/Congruent/L/C_Dist_200_LN_4_LD_8_RN_3_RD_10_0.png"],"dist100_C":[["C_Dist_100_LN_10_LD_25_RN_3_RD_10_0.png","C_Dist_100_LN_11_LD_22_RN_4_RD_10_0.png","C_Dist_100_LN_11_LD_22_RN_6_RD_15_0.png","C_Dist_100_LN_15_LD_25_RN_13_RD_26_0.png","C_Dist_100_LN_3_LD_6_RN_2_RD_5_0.png","C_Dist_100_LN_6_LD_20_RN_5_RD_25_0.png","C_Dist_100_LN_8_LD_16_RN_2_RD_5_0.png","C_Dist_100_LN_9_LD_15_RN_8_RD_16_0.png"],["C_Dist_100_LN_1_LD_2_RN_18_RD_30_1.png","C_Dist_100_LN_1_LD_2_RN_3_RD_5_1.png","C_Dist_100_LN_12_LD_30_RN_13_RD_26_1.png","C_Dist_100_LN_2_LD_5_RN_11_RD_22_1.png","C_Dist_100_LN_2_LD_5_RN_6_RD_12_1.png","C_Dist_100_LN_3_LD_20_RN_4_RD_16_1.png","C_Dist_100_LN_4_LD_10_RN_15_RD_30_1.png","C_Dist_100_LN_4_LD_8_RN_6_RD_10_1.png","C_Dist_100_LN_6_LD_12_RN_15_RD_25_1.png","C_Dist_100_LN_7_LD_14_RN_15_RD_25_1.png","C_Dist_100_LN_7_LD_14_RN_9_RD_15_1.png"]],"dist100_I":[["I_Dist_100_LN_1_LD_2_RN_8_RD_20_0.png","I_Dist_100_LN_2_LD_4_RN_6_RD_15_0.png","I_Dist_100_LN_2_LD_4_RN_8_RD_20_0.png","I_Dist_100_LN_3_LD_5_RN_11_RD_22_0.png","I_Dist_100_LN_3_LD_5_RN_8_RD_16_0.png","I_Dist_100_LN_3_LD_6_RN_4_RD_10_0.png","I_Dist_100_LN_3_LD_9_RN_7_RD_30_0.png","I_Dist_100_LN_4_LD_8_RN_8_RD_20_0.png","I_Dist_100_LN_6_LD_10_RN_11_RD_22_0.png","I_Dist_100_LN_6_LD_10_RN_13_RD_26_0.png","I_Dist_100_LN_6_LD_10_RN_7_RD_14_0.png","I_Dist_100_LN_9_LD_10_RN_20_RD_25_0.png","I_Dist_100_LN_9_LD_15_RN_13_RD_26_0.png","I_Dist_100_LN_9_LD_15_RN_14_RD_28_0.png"],["I_Dist_100_LN_10_LD_25_RN_8_RD_16_1.png","I_Dist_100_LN_10_LD_25_RN_9_RD_18_1.png","I_Dist_100_LN_11_LD_22_RN_9_RD_15_1.png","I_Dist_100_LN_12_LD_24_RN_9_RD_15_1.png","I_Dist_100_LN_12_LD_30_RN_2_RD_4_1.png","I_Dist_100_LN_13_LD_26_RN_12_RD_20_1.png","I_Dist_100_LN_13_LD_26_RN_6_RD_10_1.png","I_Dist_100_LN_17_LD_30_RN_10_RD_15_1.png","I_Dist_100_LN_6_LD_12_RN_3_RD_5_1.png","I_Dist_100_LN_8_LD_16_RN_6_RD_10_1.png","I_Dist_100_LN_8_LD_20_RN_1_RD_2_1.png","I_Dist_100_LN_9_LD_18_RN_6_RD_10_1.png"]],"dist100_S":[["E_Dist_100_LN_2_LD_12_RN_2_RD_30_0.png","E_Dist_100_LN_6_LD_10_RN_6_RD_12_0.png"],["E_Dist_100_LN_6_LD_12_RN_6_RD_10_1.png"]],"dist200_C":[["C_Dist_200_LN_11_LD_22_RN_3_RD_10_0.png","C_Dist_200_LN_12_LD_15_RN_6_RD_10_0.png","C_Dist_200_LN_12_LD_20_RN_6_RD_15_0.png","C_Dist_200_LN_14_LD_28_RN_6_RD_20_0.png","C_Dist_200_LN_15_LD_25_RN_4_RD_10_0.png","C_Dist_200_LN_16_LD_20_RN_12_RD_20_0.png","C_Dist_200_LN_16_LD_30_RN_9_RD_27_0.png","C_Dist_200_LN_20_LD_25_RN_9_RD_15_0.png","C_Dist_200_LN_21_LD_30_RN_2_RD_4_0.png","C_Dist_200_LN_4_LD_10_RN_3_RD_15_0.png","C_Dist_200_LN_4_LD_8_RN_3_RD_10_0.png","C_Dist_200_LN_6_LD_15_RN_3_RD_15_0.png","C_Dist_200_LN_7_LD_21_RN_2_RD_15_0.png","C_Dist_200_LN_8_LD_15_RN_2_RD_6_0.png","C_Dist_200_LN_8_LD_15_RN_3_RD_9_0.png","C_Dist_200_LN_8_LD_15_RN_7_RD_21_0.png","C_Dist_200_LN_9_LD_20_RN_4_RD_16_0.png"],["C_Dist_200_LN_1_LD_2_RN_21_RD_30_1.png","C_Dist_200_LN_13_LD_26_RN_14_RD_20_1.png","C_Dist_200_LN_3_LD_10_RN_11_RD_22_1.png","C_Dist_200_LN_3_LD_10_RN_14_RD_28_1.png","C_Dist_200_LN_3_LD_10_RN_7_RD_14_1.png","C_Dist_200_LN_3_LD_12_RN_9_RD_20_1.png","C_Dist_200_LN_3_LD_6_RN_14_RD_20_1.png","C_Dist_200_LN_5_LD_10_RN_14_RD_20_1.png","C_Dist_200_LN_6_LD_12_RN_7_RD_10_1.png","C_Dist_200_LN_6_LD_20_RN_11_RD_22_1.png","C_Dist_200_LN_7_LD_15_RN_18_RD_27_1.png","C_Dist_200_LN_9_LD_30_RN_13_RD_26_1.png"]],"dist200_I":[["I_Dist_200_LN_1_LD_2_RN_3_RD_10_0.png","I_Dist_200_LN_1_LD_3_RN_2_RD_15_0.png","I_Dist_200_LN_3_LD_4_RN_11_RD_20_0.png","I_Dist_200_LN_4_LD_5_RN_6_RD_10_0.png","I_Dist_200_LN_4_LD_6_RN_14_RD_30_0.png","I_Dist_200_LN_7_LD_10_RN_12_RD_24_0.png","I_Dist_200_LN_7_LD_10_RN_14_RD_28_0.png","I_Dist_200_LN_7_LD_10_RN_8_RD_16_0.png"],["I_Dist_200_LN_11_LD_20_RN_3_RD_4_1.png","I_Dist_200_LN_14_LD_30_RN_12_RD_18_1.png","I_Dist_200_LN_14_LD_30_RN_6_RD_9_1.png","I_Dist_200_LN_3_LD_10_RN_1_RD_2_1.png","I_Dist_200_LN_4_LD_30_RN_1_RD_3_1.png","I_Dist_200_LN_6_LD_20_RN_3_RD_6_1.png","I_Dist_200_LN_7_LD_15_RN_4_RD_6_1.png","I_Dist_200_LN_7_LD_15_RN_6_RD_9_1.png","I_Dist_200_LN_9_LD_15_RN_8_RD_10_1.png"]],"dist200_S":[["E_Dist_200_LN_3_LD_6_RN_3_RD_10_0.png"],["E_Dist_200_LN_3_LD_10_RN_3_RD_6_1.png"]],"dist300_C":[["C_Dist_300_LN_11_LD_22_RN_1_RD_5_0.png","C_Dist_300_LN_11_LD_22_RN_2_RD_10_0.png","C_Dist_300_LN_11_LD_22_RN_4_RD_20_0.png","C_Dist_300_LN_12_LD_24_RN_2_RD_10_0.png","C_Dist_300_LN_18_LD_20_RN_9_RD_15_0.png","C_Dist_300_LN_20_LD_25_RN_13_RD_26_0.png","C_Dist_300_LN_20_LD_25_RN_14_RD_28_0.png","C_Dist_300_LN_20_LD_25_RN_5_RD_10_0.png","C_Dist_300_LN_20_LD_25_RN_8_RD_16_0.png","C_Dist_300_LN_20_LD_25_RN_9_RD_18_0.png","C_Dist_300_LN_24_LD_30_RN_2_RD_4_0.png","C_Dist_300_LN_24_LD_30_RN_8_RD_16_0.png","C_Dist_300_LN_3_LD_6_RN_2_RD_10_0.png","C_Dist_300_LN_4_LD_10_RN_1_RD_10_0.png","C_Dist_300_LN_4_LD_5_RN_2_RD_4_0.png","C_Dist_300_LN_8_LD_16_RN_1_RD_5_0.png","C_Dist_300_LN_9_LD_10_RN_3_RD_5_0.png"],["C_Dist_300_LN_1_LD_20_RN_7_RD_20_1.png","C_Dist_300_LN_1_LD_3_RN_19_RD_30_1.png","C_Dist_300_LN_1_LD_30_RN_8_RD_24_1.png","C_Dist_300_LN_1_LD_5_RN_11_RD_22_1.png","C_Dist_300_LN_1_LD_5_RN_3_RD_6_1.png","C_Dist_300_LN_1_LD_5_RN_6_RD_12_1.png","C_Dist_300_LN_2_LD_10_RN_12_RD_24_1.png","C_Dist_300_LN_2_LD_20_RN_10_RD_25_1.png","C_Dist_300_LN_3_LD_12_RN_11_RD_20_1.png","C_Dist_300_LN_3_LD_6_RN_4_RD_5_1.png","C_Dist_300_LN_4_LD_20_RN_13_RD_26_1.png","C_Dist_300_LN_5_LD_25_RN_6_RD_12_1.png","C_Dist_300_LN_5_LD_25_RN_7_RD_14_1.png","C_Dist_300_LN_7_LD_14_RN_20_RD_25_1.png","C_Dist_300_LN_8_LD_15_RN_10_RD_12_1.png"]],"dist300_I":[["I_Dist_300_LN_1_LD_2_RN_2_RD_10_0.png","I_Dist_300_LN_1_LD_2_RN_3_RD_15_0.png","I_Dist_300_LN_2_LD_4_RN_6_RD_30_0.png","I_Dist_300_LN_3_LD_6_RN_4_RD_20_0.png","I_Dist_300_LN_4_LD_5_RN_6_RD_12_0.png","I_Dist_300_LN_4_LD_5_RN_8_RD_16_0.png","I_Dist_300_LN_7_LD_10_RN_8_RD_20_0.png","I_Dist_300_LN_8_LD_10_RN_14_RD_28_0.png","I_Dist_300_LN_8_LD_10_RN_9_RD_18_0.png"],["I_Dist_300_LN_13_LD_26_RN_12_RD_15_1.png","I_Dist_300_LN_4_LD_20_RN_2_RD_4_1.png"]],"dist300_S":[["E_Dist_300_LN_9_LD_12_RN_9_RD_20_0.png"],["E_Dist_300_LN_18_LD_30_RN_18_RD_20_1.png","E_Dist_300_LN_3_LD_10_RN_3_RD_5_1.png","E_Dist_300_LN_9_LD_20_RN_9_RD_12_1.png"]],"dist500_C":[["C_Dist_500_LN_10_LD_13_RN_7_RD_26_0.png","C_Dist_500_LN_10_LD_15_RN_4_RD_24_0.png","C_Dist_500_LN_12_LD_16_RN_3_RD_12_0.png","C_Dist_500_LN_12_LD_18_RN_4_RD_24_0.png","C_Dist_500_LN_15_LD_18_RN_5_RD_15_0.png","C_Dist_500_LN_15_LD_20_RN_1_RD_4_0.png","C_Dist_500_LN_18_LD_27_RN_1_RD_6_0.png","C_Dist_500_LN_20_LD_24_RN_1_RD_3_0.png","C_Dist_500_LN_20_LD_24_RN_3_RD_9_0.png","C_Dist_500_LN_20_LD_24_RN_7_RD_21_0.png","C_Dist_500_LN_20_LD_28_RN_3_RD_14_0.png","C_Dist_500_LN_21_LD_28_RN_6_RD_24_0.png","C_Dist_500_LN_22_LD_28_RN_2_RD_7_0.png","C_Dist_500_LN_25_LD_30_RN_9_RD_27_0.png","C_Dist_500_LN_4_LD_6_RN_1_RD_6_0.png","C_Dist_500_LN_5_LD_6_RN_2_RD_6_0.png","C_Dist_500_LN_6_LD_9_RN_1_RD_6_0.png","C_Dist_500_LN_7_LD_10_RN_1_RD_5_0.png","C_Dist_500_LN_8_LD_12_RN_1_RD_6_0.png","C_Dist_500_LN_8_LD_12_RN_4_RD_24_0.png"],["C_Dist_500_LN_1_LD_4_RN_12_RD_16_1.png","C_Dist_500_LN_1_LD_4_RN_9_RD_12_1.png","C_Dist_500_LN_1_LD_9_RN_11_RD_18_1.png","C_Dist_500_LN_10_LD_24_RN_22_RD_24_1.png","C_Dist_500_LN_2_LD_12_RN_10_RD_15_1.png","C_Dist_500_LN_2_LD_12_RN_12_RD_18_1.png","C_Dist_500_LN_2_LD_12_RN_4_RD_6_1.png","C_Dist_500_LN_2_LD_24_RN_7_RD_12_1.png","C_Dist_500_LN_2_LD_5_RN_18_RD_20_1.png","C_Dist_500_LN_2_LD_5_RN_9_RD_10_1.png","C_Dist_500_LN_2_LD_8_RN_12_RD_16_1.png","C_Dist_500_LN_2_LD_8_RN_21_RD_28_1.png","C_Dist_500_LN_3_LD_10_RN_4_RD_5_1.png","C_Dist_500_LN_3_LD_12_RN_15_RD_20_1.png","C_Dist_500_LN_3_LD_30_RN_6_RD_10_1.png","C_Dist_500_LN_3_LD_8_RN_14_RD_16_1.png","C_Dist_500_LN_4_LD_16_RN_15_RD_20_1.png","C_Dist_500_LN_4_LD_24_RN_12_RD_18_1.png","C_Dist_500_LN_5_LD_14_RN_6_RD_7_1.png","C_Dist_500_LN_7_LD_21_RN_20_RD_24_1.png","C_Dist_500_LN_7_LD_28_RN_12_RD_16_1.png","C_Dist_500_LN_7_LD_28_RN_9_RD_12_1.png","C_Dist_500_LN_9_LD_27_RN_20_RD_24_1.png"]],"dist500_I":[["I_Dist_500_LN_2_LD_3_RN_4_RD_24_0.png","I_Dist_500_LN_5_LD_6_RN_6_RD_18_0.png","I_Dist_500_LN_7_LD_8_RN_9_RD_24_0.png"],["I_Dist_500_LN_7_LD_21_RN_5_RD_6_1.png"]],"dist500_S":[["E_Dist_500_LN_6_LD_8_RN_6_RD_24_0.png"],["E_Dist_500_LN_2_LD_12_RN_2_RD_3_1.png","E_Dist_500_LN_6_LD_24_RN_6_RD_8_1.png"]]}},{"start_time":1552312796826,"click_time":1552312799501,"finger_time":1552312799341,"fix_duration":1304.0430544946614,"trial":1,"RT":2515,"MT":160,"sideResp":2,"stimulus":[],"xmouse":[799,799,799,799,799,799,799,799,798,795,792,790,790,789,789,788,787,785,784,784,783,781,780,778,772,765,756,752,751,751,751,751,751,751,751,751,751,751,751,751,751,751,751,751,751,751,751,751,751,751,751,751,751,751,751,751,751,751,751,751,751,751,751,751,751,751,751,751,751,751,751,751,751,751,751,751,751,751,751,751,751,751,751,751,751,751,751,751,751,751,751,751,751,751,751,751,751,751,751,751,751,751,751,751,751,751,751,751,751,751,751,751,751,751,751,751,751,751,751,751,768,784,789,797,827,843,862,885,911,963,992,1034,1065,1097],"ymouse":[535,535,535,535,535,535,535,534,534,531,529,526,525,525,525,524,524,523,523,523,522,522,521,521,519,519,520,520,519,519,519,519,519,519,519,519,519,519,519,519,519,519,519,519,519,519,519,519,519,519,519,519,519,519,519,519,519,519,519,519,519,519,519,519,519,519,519,519,519,519,519,519,519,519,519,519,519,519,519,519,519,519,519,519,519,519,519,519,519,519,519,519,519,519,519,519,519,519,519,519,519,519,519,519,519,519,519,519,519,519,519,519,519,519,519,519,519,518,518,518,514,510,509,506,493,481,464,438,404,316,261,184,136,89],"timestamp_mouse":[15,39,55,76,94,115,136,155,175,194,214,235,255,275,295,315,334,356,375,396,414,435,456,475,496,515,536,554,574,595,615,635,654,675,694,714,736,756,776,795,814,836,855,875,895,916,934,955,975,995,1015,1034,1055,1075,1095,1115,1135,1154,1175,1196,1214,1236,1254,1274,1294,1316,1336,1354,1375,1396,1414,1436,1454,1474,1496,1515,1534,1556,1575,1595,1615,1636,1655,1675,1695,1714,1736,1756,1774,1795,1815,1836,1856,1875,1896,1916,1935,1955,1975,1994,2014,2036,2055,2074,2095,2115,2136,2154,2175,2196,2216,2235,2255,2275,2294,2314,2335,2355,2375,2394,2414,2434,2455,2475,2495,2515,2535,2554,2576,2594,2615,2635,2655,2675],"xSR":741.5,"ySR":469.95,"xT1":424.9,"yT1":0,"xT2":1058.1,"yT2":0,"toosoon":0,"cond_shown":"Congruent","ratio_trial":100,"L_num":3,"L_den":20,"R_num":4,"R_den":16,"correct_side":2,"subjID":"sarapereira24","gender":"1","school":"4","age":"9"},{"start_time":1552312801931,"click_time":1552312808441,"finger_time":1552312804422,"fix_duration":668.6679583135602,"trial":2,"RT":2491,"MT":4019,"sideResp":2,"stimulus":[],"xmouse":[774,774,774,774,774,774,774,774,774,774,774,774,774,774,774,774,774,775,776,776,778,779,779,779,778,777,777,777,777,777,777,777,777,777,777,777,777,777,777,776,776,776,776,776,776,776,776,776,776,776,776,776,776,776,776,776,776,776,776,776,776,776,776,776,773,769,769,769,769,769,769,769,769,769,769,769,769,769,769,769,769,769,769,769,769,769,769,767,766,765,763,762,761,761,761,761,763,765,765,765,765,765,765,765,765,765,765,765,765,765,765,766,766,766,766,766,766,766,766,766,766,766,766,766,765,762,760,756,751,748,745,744,744,744,744,744,744,744,744,744,742,740,739,738,737,736,736,735,735,735,735,735,735,735,735,739,739,737,735,732,728,727,727,727,727,727,727,727,727,727,727,726,723,723,719,717,717,716,712,711,709,709,708,697,684,667,663,663,663,663,663,663,663,663,663,665,670,675,681,688,706,721,743,777,799,818,822,829,830,830,830,830,831,830,829,827,827,827,827,827,827,827,827,827,827,827,827,827,827,827,833,836,837,837,837,837,837,837,837,837,837,837,837,837,837,837,837,836,831,824,815,807,804,796,793,789,787,784,782,780,780,780,780,780,780,780,780,780,780,780,780,780,780,780,780,780,780,780,780,780,780,780,780,780,780,780,780,780,780,780,780,780,780,780,780,780,780,780,780,780,780,780,780,781,789,835,858,888,924,959,985,997,1000,1007,1011,1018,1021,1021,1022,1022,1022,1022,1024,1033,1049,1086],"ymouse":[548,548,548,548,548,548,548,548,548,548,548,548,548,548,548,548,548,546,545,542,534,528,520,508,492,489,489,489,489,489,489,489,489,489,489,489,489,487,485,485,485,485,485,485,485,485,485,485,485,485,485,485,485,485,485,484,483,483,483,483,483,482,481,479,477,470,470,470,470,470,470,470,470,470,470,470,470,470,470,470,470,470,470,470,470,471,471,472,472,472,473,473,475,475,475,475,475,474,474,474,474,474,474,474,474,474,474,474,474,474,474,473,472,472,472,472,472,472,472,471,471,471,471,471,464,459,453,445,437,431,425,422,419,414,410,397,394,391,387,372,364,354,348,342,334,330,328,328,328,328,328,328,328,327,326,316,309,298,283,269,246,238,232,227,226,224,224,224,224,224,224,222,218,218,216,216,216,216,216,218,218,218,218,208,196,183,179,179,179,179,179,179,179,179,179,186,195,202,210,220,239,251,263,281,290,298,298,300,300,300,300,300,301,310,316,323,323,323,323,323,323,323,323,323,323,323,323,323,323,324,338,342,345,346,346,346,346,346,346,346,346,346,346,346,346,346,346,349,359,371,391,405,411,424,430,439,443,446,448,449,449,449,449,449,449,449,449,448,446,446,446,446,446,446,446,446,446,446,446,446,446,446,446,446,446,446,446,446,446,446,446,446,446,446,446,446,446,446,446,446,446,446,446,438,413,303,265,228,194,164,117,99,97,93,92,92,92,92,92,92,92,92,92,92,86,72],"timestamp_mouse":[13,41,49,70,89,110,131,150,170,190,211,230,250,271,290,309,330,350,370,389,410,430,451,471,490,509,530,551,570,590,610,630,649,670,690,710,729,750,769,791,811,830,850,871,890,910,930,950,971,990,1009,1030,1049,1069,1089,1110,1131,1150,1170,1189,1209,1231,1250,1270,1290,1310,1330,1350,1371,1389,1410,1430,1451,1471,1489,1511,1531,1550,1570,1589,1609,1631,1650,1670,1690,1711,1730,1750,1770,1790,1810,1829,1850,1870,1889,1910,1930,1950,1969,1989,2009,2030,2050,2070,2090,2110,2130,2151,2169,2191,2209,2231,2250,2270,2289,2311,2330,2351,2370,2391,2410,2430,2451,2470,2490,2510,2529,2550,2570,2590,2609,2629,2649,2671,2690,2710,2729,2749,2769,2791,2809,2829,2850,2869,2891,2909,2930,2949,2970,2990,3010,3029,3049,3071,3090,3110,3129,3149,3170,3189,3209,3230,3250,3270,3290,3310,3330,3351,3370,3389,3410,3429,3450,3469,3490,3509,3530,3549,3569,3590,3610,3630,3650,3670,3690,3710,3729,3750,3771,3790,3809,3830,3851,3870,3889,3909,3930,3950,3969,3990,4010,4029,4049,4069,4091,4109,4130,4149,4170,4191,4209,4231,4250,4270,4289,4309,4329,4350,4370,4390,4410,4431,4450,4469,4490,4510,4529,4550,4570,4590,4610,4629,4649,4669,4689,4709,4729,4750,4770,4791,4809,4829,4850,4870,4890,4909,4930,4950,4969,4989,5009,5030,5050,5070,5090,5109,5129,5150,5170,5190,5210,5230,5251,5270,5290,5311,5330,5350,5369,5390,5409,5429,5450,5471,5490,5510,5530,5551,5570,5589,5610,5629,5650,5670,5689,5714,5729,5750,5770,5791,5809,5830,5850,5870,5890,5909,5930,5950,5971,5990,6010,6030,6049,6070,6090,6109,6130,6149,6169,6191,6209,6229,6250,6269,6290,6309,6329,6350,6370,6390,6411,6431,6450,6469,6490,6509],"xSR":741.5,"ySR":469.95,"xT1":424.9,"yT1":0,"xT2":1058.1,"yT2":0,"toosoon":0,"cond_shown":"Congruent","ratio_trial":100,"L_num":7,"L_den":14,"R_num":15,"R_den":25,"correct_side":2,"subjID":"sarapereira24","gender":"1","school":"4","age":"9"},{"start_time":1552312811142,"click_time":1552312813601,"finger_time":1552312813141,"fix_duration":1360.2766278542858,"trial":3,"RT":1999,"MT":460,"sideResp":1,"stimulus":[],"xmouse":[796,796,796,796,796,796,796,796,796,796,796,796,796,796,796,796,796,796,796,796,796,796,796,796,796,796,796,796,796,796,796,796,796,796,796,796,796,796,796,796,796,796,796,796,796,796,796,796,796,796,796,796,796,796,796,796,796,796,796,796,796,796,796,796,796,796,796,796,796,796,796,796,796,796,796,796,796,796,796,796,796,796,796,796,796,796,796,796,796,796,796,796,796,796,796,796,793,791,779,772,734,728,724,720,714,697,681,669,660,650,648,647,647,647,646,643,632,620,595,563,549,535,521],"ymouse":[538,538,538,538,538,538,538,538,538,538,538,538,538,538,538,538,538,538,538,538,538,538,538,538,538,538,538,538,538,538,538,538,538,538,538,538,538,538,538,538,538,538,538,538,538,538,538,538,538,538,538,538,538,538,538,538,538,538,538,538,538,538,538,538,538,538,538,538,538,538,538,538,538,538,538,538,538,538,538,538,538,538,538,538,538,538,538,538,538,538,538,538,538,538,538,538,526,517,474,452,354,339,329,323,311,275,244,217,196,165,160,158,158,158,156,152,141,126,108,97,96,96,96],"timestamp_mouse":[19,38,58,80,99,119,139,158,179,198,218,239,260,280,299,319,339,359,379,399,418,440,458,479,499,519,540,559,579,600,620,638,659,678,699,719,740,759,780,800,818,838,860,879,899,918,939,960,979,999,1020,1039,1059,1078,1100,1119,1138,1158,1179,1199,1220,1239,1259,1278,1300,1319,1339,1360,1380,1399,1419,1440,1459,1480,1499,1519,1539,1559,1580,1599,1618,1639,1659,1678,1698,1718,1740,1759,1780,1799,1819,1840,1859,1880,1900,1918,1938,1959,1980,1999,2019,2039,2058,2079,2098,2119,2139,2159,2179,2200,2218,2239,2259,2279,2300,2319,2339,2359,2380,2401,2418,2438,2458],"xSR":741.5,"ySR":469.95,"xT1":424.9,"yT1":0,"xT2":1058.1,"yT2":0,"toosoon":0,"cond_shown":"Congruent","ratio_trial":200,"L_num":3,"L_den":10,"R_num":14,"R_den":28,"correct_side":2,"subjID":"sarapereira24","gender":"1","school":"4","age":"9"},{"start_time":1552312819530,"click_time":1552312821820,"finger_time":1552312821402,"fix_duration":547.421126702193,"trial":4,"RT":1872,"MT":418,"sideResp":2,"stimulus":[],"xmouse":[778,778,778,778,778,778,778,778,778,778,778,778,778,778,778,778,778,778,778,778,778,778,778,778,778,778,778,778,778,778,778,778,778,778,778,778,778,778,778,778,778,778,778,778,778,778,778,778,777,776,775,775,775,775,775,775,775,775,775,775,775,775,775,775,775,775,775,775,775,775,775,775,775,775,775,775,775,777,780,785,789,792,794,794,794,794,794,794,794,794,797,800,829,847,871,895,906,921,926,932,939,947,970,981,991,997,1001,1003,1008,1013,1021,1028,1048,1056,1063],"ymouse":[520,520,520,520,520,520,520,520,520,520,520,520,520,520,520,520,520,520,520,520,520,520,520,520,520,520,520,520,520,520,520,520,520,520,520,520,520,520,520,520,520,520,520,520,520,520,520,520,520,520,521,521,521,521,521,521,521,521,521,521,521,521,521,521,521,521,521,521,521,521,521,521,521,521,521,521,521,520,518,515,512,509,502,498,495,493,493,493,492,491,488,487,474,465,452,433,420,372,353,336,321,312,296,289,283,276,267,249,236,222,206,187,139,114,92],"timestamp_mouse":[10,44,51,70,92,111,130,151,170,191,211,231,251,270,292,311,331,351,371,391,412,432,451,470,491,511,531,551,572,592,611,631,651,671,691,712,731,750,771,790,812,830,850,871,892,911,931,950,971,992,1011,1031,1051,1072,1090,1111,1132,1151,1171,1191,1210,1231,1252,1270,1290,1312,1330,1350,1370,1392,1411,1432,1451,1472,1492,1511,1532,1552,1570,1591,1611,1630,1651,1671,1691,1711,1732,1750,1771,1792,1811,1831,1850,1872,1891,1911,1930,1950,1971,1991,2012,2032,2051,2071,2091,2111,2131,2150,2171,2191,2211,2231,2250,2271,2290],"xSR":741.5,"ySR":469.95,"xT1":424.9,"yT1":0,"xT2":1058.1,"yT2":0,"toosoon":0,"cond_shown":"Congruent","ratio_trial":100,"L_num":12,"L_den":30,"R_num":13,"R_den":26,"correct_side":2,"subjID":"sarapereira24","gender":"1","school":"4","age":"9"},{"start_time":1552312827367,"click_time":1552312828961,"finger_time":1552312828381,"fix_duration":1143.6628221210979,"trial":5,"RT":1014,"MT":580,"sideResp":2,"stimulus":[],"xmouse":[803,803,804,804,804,804,804,804,804,804,804,804,804,804,804,804,804,806,806,806,806,806,806,806,806,806,806,806,806,806,806,806,806,806,806,806,806,806,806,806,807,811,812,815,818,825,828,831,831,832,834,856,877,899,921,966,985,1004,1021,1035,1048,1082,1104,1142,1163,1194,1205,1211,1211,1211,1211,1211,1211,1211,1211,1211,1211,1211,1211,1086],"ymouse":[493,493,493,493,493,493,493,493,493,493,493,493,493,493,493,493,493,493,492,492,492,492,492,492,492,492,492,492,492,492,492,492,492,492,492,492,492,492,492,492,492,492,491,490,489,485,481,479,478,478,468,445,434,423,413,387,370,353,335,315,295,254,229,188,153,76,40,4,4,4,4,4,4,4,4,4,4,4,4,3],"timestamp_mouse":[13,34,54,73,93,114,134,155,174,194,214,234,255,274,295,313,335,355,375,394,414,434,455,473,494,514,535,554,574,594,614,634,655,674,694,713,735,755,774,794,814,835,854,874,893,914,934,955,973,995,1014,1035,1054,1074,1094,1115,1134,1153,1175,1195,1215,1234,1254,1275,1294,1315,1334,1355,1374,1395,1414,1434,1455,1475,1494,1515,1534,1554,1574,1594],"xSR":741.5,"ySR":469.95,"xT1":424.9,"yT1":0,"xT2":1058.1,"yT2":0,"toosoon":0,"cond_shown":"Congruent","ratio_trial":100,"L_num":3,"L_den":6,"R_num":2,"R_den":5,"correct_side":1,"subjID":"sarapereira24","gender":"1","school":"4","age":"9"},{"start_time":1552312834975,"click_time":1552312839141,"finger_time":1552312836561,"fix_duration":250,"trial":6,"RT":1586,"MT":2580,"sideResp":2,"stimulus":[],"xmouse":[806,807,807,807,807,807,807,807,807,807,807,807,807,807,807,807,807,807,807,807,807,807,807,807,807,807,807,807,807,807,807,807,807,807,807,807,807,807,807,807,807,807,807,807,807,807,807,807,807,807,807,807,807,807,807,807,807,807,807,807,807,807,807,807,807,807,807,807,807,807,807,807,807,807,807,807,807,807,807,803,798,791,789,787,787,786,786,786,786,786,786,786,786,785,782,780,771,754,741,726,713,705,701,701,701,701,701,701,701,701,701,701,701,701,701,701,701,701,701,701,701,701,701,699,697,693,686,682,680,678,673,666,649,642,636,631,627,621,620,620,620,620,619,619,619,619,619,619,619,618,617,614,607,602,598,594,589,588,588,588,588,588,587,599,622,652,709,770,791,804,811,831,849,865,883,899,932,948,961,974,983,995,1000,1007,1016,1026,1045,1048,1051,1052,1054,1057,1057,1058,1061,1065,1078,1082,1086,1088,1090,1093,1095,1096,1098,1099,1102,1105,1105],"ymouse":[489,489,489,489,489,489,489,489,489,489,489,489,489,489,489,489,489,489,489,489,489,489,489,489,489,489,489,489,489,489,489,489,489,489,489,489,489,489,489,489,489,489,489,489,489,489,489,489,489,489,489,489,489,489,489,489,489,489,489,489,489,489,489,489,489,489,489,489,489,489,489,489,489,489,489,489,486,480,475,467,459,444,441,439,438,438,438,438,438,438,438,438,437,437,436,436,433,429,425,421,417,414,412,412,412,412,412,412,412,412,412,412,412,412,412,412,412,412,412,412,412,412,412,412,410,409,406,404,403,401,399,396,391,389,387,386,384,383,383,383,383,383,383,383,383,383,383,383,383,382,382,380,377,375,372,369,366,365,365,365,365,365,364,364,364,364,371,379,382,382,382,371,357,340,319,301,269,258,250,245,243,242,241,239,238,235,228,226,224,223,220,209,203,195,185,173,150,143,139,137,133,128,126,124,121,117,111,102,99],"timestamp_mouse":[9,43,46,67,87,107,125,145,165,186,207,226,247,266,286,307,326,347,367,386,407,425,445,466,486,507,526,546,567,586,606,626,647,667,687,706,726,745,765,787,807,826,847,865,885,907,926,947,965,986,1006,1026,1047,1067,1086,1107,1125,1146,1165,1187,1207,1226,1246,1267,1286,1306,1327,1346,1366,1387,1407,1427,1447,1466,1486,1507,1526,1547,1566,1586,1606,1627,1646,1666,1687,1707,1727,1745,1767,1786,1806,1827,1845,1865,1886,1907,1927,1946,1966,1986,2006,2025,2045,2066,2087,2106,2126,2146,2167,2187,2206,2226,2246,2265,2287,2307,2326,2346,2365,2385,2406,2427,2446,2466,2486,2507,2526,2545,2566,2587,2606,2626,2646,2666,2686,2706,2727,2745,2767,2787,2806,2827,2846,2866,2887,2906,2927,2946,2966,2986,3006,3026,3046,3066,3086,3105,3127,3145,3166,3186,3207,3227,3246,3266,3287,3306,3326,3346,3366,3386,3405,3426,3446,3465,3487,3506,3527,3546,3566,3586,3606,3628,3646,3666,3686,3706,3727,3745,3766,3787,3807,3827,3846,3866,3886,3907,3928,3946,3966,3985,4006,4027,4046,4066,4086,4106,4126,4146,4166],"xSR":741.5,"ySR":469.95,"xT1":424.9,"yT1":0,"xT2":1058.1,"yT2":0,"toosoon":0,"cond_shown":"Incongruent","ratio_trial":100,"L_num":8,"L_den":20,"R_num":1,"R_den":2,"correct_side":2,"subjID":"sarapereira24","gender":"1","school":"4","age":"9"},{"start_time":1552312843063,"click_time":1552312846682,"finger_time":1552312845521,"fix_duration":421.5773543854573,"trial":7,"RT":2458,"MT":1161,"sideResp":1,"stimulus":[],"xmouse":[763,763,763,763,763,763,763,763,763,763,763,763,763,763,763,763,763,764,765,765,765,766,766,766,766,766,766,766,766,766,766,766,766,766,766,766,766,766,766,766,766,766,767,767,768,768,768,770,772,774,775,777,778,778,778,778,778,778,778,778,778,778,778,778,778,778,778,778,778,778,778,778,778,778,778,778,778,778,778,778,778,778,777,776,775,773,773,772,772,775,780,788,796,797,797,797,797,797,797,797,797,797,797,799,804,810,816,829,830,830,830,830,830,830,830,830,830,830,830,830,832,832,833,833,833,834,837,839,839,840,840,841,843,843,843,843,841,832,819,807,796,785,772,769,768,768,768,768,768,768,768,768,767,762,750,727,695,660,595,577,564,556,554,554,554,554,554,553,553,554,554,554,554,554,554,554,554,549,542,531,521],"ymouse":[487,487,487,487,487,487,487,487,487,487,487,487,487,487,487,487,487,487,486,486,486,485,485,485,485,485,485,485,485,485,485,485,485,485,485,485,485,485,485,485,485,485,484,484,484,484,484,482,481,479,477,476,476,476,476,476,475,475,475,475,475,475,475,475,475,475,475,475,475,475,475,475,475,475,475,475,475,475,475,475,475,474,474,475,477,478,479,480,489,498,501,504,508,508,508,508,508,508,508,508,508,508,508,508,508,506,503,497,497,497,497,497,497,497,497,497,497,497,495,491,484,479,467,460,454,443,429,400,385,379,374,368,352,344,335,327,317,283,246,217,190,170,151,148,147,147,147,147,147,147,147,147,146,143,136,123,109,96,89,89,89,91,91,91,91,91,92,96,98,100,100,100,100,100,100,100,100,95,89,82,76],"timestamp_mouse":[19,45,57,78,98,119,139,159,179,198,217,237,257,277,299,319,339,357,379,399,419,438,457,478,499,518,537,559,578,597,618,639,658,678,699,719,738,758,777,798,819,838,858,877,898,918,939,958,978,998,1019,1037,1059,1078,1099,1118,1137,1158,1179,1198,1219,1238,1258,1279,1299,1318,1339,1358,1379,1398,1418,1439,1458,1479,1499,1519,1537,1558,1578,1598,1619,1638,1658,1678,1699,1718,1738,1758,1777,1798,1819,1838,1858,1879,1898,1917,1939,1958,1977,1998,2018,2037,2058,2078,2099,2118,2139,2158,2178,2197,2219,2239,2258,2279,2299,2319,2338,2358,2378,2397,2418,2438,2458,2478,2498,2519,2538,2558,2578,2598,2619,2638,2658,2678,2698,2719,2738,2759,2777,2799,2818,2838,2859,2877,2898,2919,2939,2959,2979,2998,3019,3039,3059,3077,3098,3117,3138,3158,3179,3198,3219,3239,3259,3278,3299,3319,3339,3359,3379,3399,3418,3438,3459,3479,3498,3517,3539,3559,3578,3598,3619],"xSR":741.5,"ySR":469.95,"xT1":424.9,"yT1":0,"xT2":1058.1,"yT2":0,"toosoon":0,"cond_shown":"Incongruent","ratio_trial":200,"L_num":3,"L_den":4,"R_num":11,"R_den":20,"correct_side":1,"subjID":"sarapereira24","gender":"1","school":"4","age":"9"},{"start_time":1552312853766,"click_time":1552312859041,"finger_time":1552312858381,"fix_duration":722.8288325112652,"trial":8,"RT":4615,"MT":660,"sideResp":2,"stimulus":[],"xmouse":[817,817,817,817,816,816,816,815,815,815,815,815,815,815,815,815,815,815,815,815,815,815,815,815,815,815,815,815,815,815,815,815,815,815,815,815,815,815,815,815,815,815,815,815,815,815,815,815,815,814,812,810,807,806,805,805,805,805,804,804,804,804,804,804,803,802,802,802,802,802,802,802,802,802,802,802,802,802,802,802,802,802,802,802,802,802,802,802,802,802,802,802,802,802,802,802,802,802,802,802,802,802,802,802,802,798,796,794,794,794,794,794,794,794,794,794,794,794,794,794,794,794,794,794,794,794,794,794,794,794,794,794,794,794,794,794,794,794,794,794,794,794,794,794,794,794,794,794,794,794,794,794,794,794,794,794,794,794,794,794,794,794,794,794,794,794,794,794,794,794,794,794,794,794,794,794,794,794,794,794,794,794,794,794,794,794,794,794,794,794,794,794,794,794,794,794,794,794,794,794,794,794,794,794,794,794,794,794,794,794,794,794,794,794,794,794,794,794,794,794,794,794,794,794,794,794,794,794,789,758,733,677,629,587,530,522,521,521,521,521,521,521,521,521,521,523,667,811,888,888,888,888,888,888,888,888,888,888,888,888,888,888,1119,1119],"ymouse":[545,545,545,545,545,545,544,544,544,544,544,544,544,544,544,544,544,544,544,544,544,544,544,544,544,544,544,544,544,544,544,544,544,544,544,544,544,544,544,544,544,544,544,544,544,544,544,544,544,543,541,540,539,538,537,537,537,537,537,537,537,537,537,537,537,537,537,537,537,537,537,537,537,537,537,537,537,537,537,537,537,537,537,537,537,537,537,537,537,537,537,537,537,537,537,537,537,537,537,537,537,537,537,537,537,533,528,522,522,522,522,522,522,522,522,522,522,522,522,522,522,522,522,522,522,522,522,522,522,522,522,522,522,522,522,522,522,522,522,522,522,522,522,522,522,522,522,522,522,522,522,522,522,522,522,522,522,522,522,522,522,522,522,522,522,522,522,522,522,522,522,522,522,522,522,522,522,522,522,522,522,522,522,522,522,522,522,522,522,522,522,522,522,522,522,522,522,522,522,522,522,522,522,522,522,522,522,522,522,522,522,522,522,522,522,522,522,522,522,522,522,522,522,522,522,522,522,522,516,483,459,403,351,303,225,212,210,210,210,210,210,210,210,210,210,206,124,52,19,19,19,19,19,19,19,19,19,19,19,19,19,19,0,2],"timestamp_mouse":[14,44,54,75,95,116,134,156,176,194,215,235,256,275,295,314,336,355,375,394,416,436,456,475,495,515,534,555,575,596,615,636,656,675,696,715,735,756,775,795,816,835,855,875,895,915,934,956,976,996,1015,1035,1055,1074,1095,1115,1135,1155,1174,1196,1216,1236,1255,1275,1296,1316,1336,1355,1375,1395,1414,1436,1455,1476,1495,1516,1536,1556,1576,1595,1616,1635,1655,1675,1695,1716,1736,1755,1775,1794,1816,1836,1856,1875,1895,1916,1936,1955,1975,1996,2015,2036,2055,2075,2096,2115,2135,2155,2176,2196,2215,2236,2256,2276,2295,2316,2336,2355,2374,2396,2415,2435,2454,2476,2495,2515,2534,2556,2575,2595,2616,2635,2655,2676,2696,2715,2736,2755,2776,2795,2816,2836,2856,2875,2895,2915,2936,2956,2975,2996,3014,3034,3056,3076,3094,3115,3134,3154,3174,3196,3216,3236,3256,3275,3295,3315,3336,3355,3375,3396,3415,3436,3456,3474,3495,3516,3535,3556,3576,3595,3615,3634,3654,3676,3696,3716,3735,3754,3776,3795,3816,3836,3855,3874,3896,3916,3936,3955,3976,3996,4016,4034,4056,4075,4095,4114,4135,4154,4174,4196,4216,4236,4256,4275,4295,4315,4336,4355,4376,4396,4415,4436,4456,4476,4496,4516,4536,4555,4576,4596,4615,4635,4656,4676,4695,4715,4735,4755,4776,4796,4816,4835,4856,4876,4896,4915,4934,4954,4974,4995,5015,5034,5055,5075,5095,5116,5135,5155,5176,5195,5215,5235,5255,5275],"xSR":741.5,"ySR":469.95,"xT1":424.9,"yT1":0,"xT2":1058.1,"yT2":0,"toosoon":0,"cond_shown":"Incongruent","ratio_trial":100,"L_num":3,"L_den":6,"R_num":4,"R_den":10,"correct_side":1,"subjID":"sarapereira24","gender":"1","school":"4","age":"9"},{"start_time":1552312861867,"click_time":1552312863442,"finger_time":1552312862601,"fix_duration":1023.2807801423801,"trial":9,"RT":734,"MT":841,"sideResp":1,"stimulus":[],"xmouse":[797,797,797,797,797,797,797,797,797,797,797,797,797,797,797,797,797,797,797,797,797,797,796,796,796,796,796,796,796,796,796,796,796,796,795,793,790,788,787,786,786,786,786,785,784,783,782,781,781,779,779,779,779,779,779,775,765,751,721,669,477,393,317,195,195,195,195,195,195,195,195,195,195,195,195,195,195,195,472],"ymouse":[498,498,498,498,498,498,498,498,498,498,498,498,498,498,498,498,498,498,498,498,498,498,498,497,493,490,490,490,490,490,490,490,490,490,485,478,469,462,460,457,456,456,455,454,450,448,444,442,441,439,439,439,439,439,438,434,424,413,392,355,227,171,120,20,20,20,20,20,20,20,20,20,20,20,20,20,20,20,3],"timestamp_mouse":[15,39,55,75,95,114,135,153,175,195,215,233,254,274,294,314,335,354,373,393,415,434,455,474,494,515,534,555,574,593,614,634,654,675,694,714,734,754,775,795,814,834,854,874,896,913,933,954,975,995,1014,1033,1054,1074,1094,1114,1134,1155,1175,1194,1215,1234,1255,1275,1294,1314,1334,1354,1374,1394,1414,1434,1454,1474,1495,1514,1533,1553,1574],"xSR":741.5,"ySR":469.95,"xT1":424.9,"yT1":0,"xT2":1058.1,"yT2":0,"toosoon":0,"cond_shown":"Incongruent","ratio_trial":100,"L_num":8,"L_den":16,"R_num":6,"R_den":10,"correct_side":2,"subjID":"sarapereira24","gender":"1","school":"4","age":"9"},{"start_time":1552312869243,"click_time":1552312870042,"finger_time":1552312869321,"fix_duration":561.8689494866516,"trial":10,"RT":78,"MT":721,"sideResp":2,"stimulus":[],"xmouse":[809,812,812,819,822,825,826,826,826,826,827,831,833,837,842,850,868,878,881,891,897,904,916,923,927,931,934,936,942,950,962,991,1006,1020,1036,1048,1069,1077,1079,1081],"ymouse":[488,474,474,456,446,440,427,423,420,419,416,406,397,385,372,354,310,273,261,226,204,182,144,129,122,119,119,119,123,127,135,148,152,154,155,155,147,130,115,99],"timestamp_mouse":[18,55,58,78,98,118,138,159,178,198,218,238,258,278,298,318,337,358,378,397,419,438,458,478,498,518,539,558,578,599,618,639,658,678,698,718,739,760,778,799],"xSR":741.5,"ySR":469.95,"xT1":424.9,"yT1":0,"xT2":1058.1,"yT2":0,"toosoon":0,"cond_shown":"Incongruent","ratio_trial":100,"L_num":2,"L_den":4,"R_num":6,"R_den":15,"correct_side":1,"subjID":"sarapereira24","gender":"1","school":"4","age":"9"},{"start_time":1552312872413,"click_time":1552312873383,"finger_time":1552312872802,"fix_duration":310.710185833995,"trial":11,"RT":389,"MT":581,"sideResp":1,"stimulus":[],"xmouse":[787,787,787,787,787,787,787,787,787,787,787,787,787,787,787,788,788,790,790,779,756,710,671,630,622,619,619,619,616,615,615,615,615,617,620,623,628,636,652,656,657,660,662,657,638,612,578,545,508],"ymouse":[547,547,547,547,547,547,547,547,547,547,547,547,547,547,547,546,544,523,514,435,376,308,262,212,199,194,193,193,194,203,207,211,213,218,220,223,229,238,253,255,255,255,250,205,157,107,65,35,7],"timestamp_mouse":[14,29,48,68,87,108,129,147,169,189,208,228,249,268,287,308,329,349,369,389,408,428,447,469,487,509,528,549,568,588,608,628,648,669,688,708,728,749,769,787,807,827,848,869,888,908,928,947,969],"xSR":741.5,"ySR":469.95,"xT1":424.9,"yT1":0,"xT2":1058.1,"yT2":0,"toosoon":0,"cond_shown":"Congruent","ratio_trial":200,"L_num":21,"L_den":30,"R_num":2,"R_den":4,"correct_side":1,"subjID":"sarapereira24","gender":"1","school":"4","age":"9"},{"start_time":1552312878544,"click_time":1552312879921,"finger_time":1552312878601,"fix_duration":861.1768026911456,"trial":12,"RT":57,"MT":1320,"sideResp":2,"stimulus":[],"xmouse":[840,841,842,844,845,845,846,850,851,851,846,834,810,802,801,801,801,801,800,801,801,802,802,802,802,802,802,803,805,807,809,810,816,820,824,829,833,847,857,865,876,888,910,920,927,930,932,937,942,947,953,963,992,1005,1019,1027,1030,1034,1039,1045,1056,1068,1090,1094,1096,1098,1101,1116,1138],"ymouse":[505,505,504,503,502,501,499,492,491,491,490,490,492,494,494,494,494,494,494,491,489,488,485,485,485,485,485,484,482,481,480,479,478,477,476,475,473,469,464,459,452,443,428,422,418,414,412,405,395,380,360,327,252,226,205,190,184,180,177,174,166,155,136,132,130,128,125,104,63],"timestamp_mouse":[17,36,57,76,96,117,138,157,177,197,216,236,257,277,298,317,337,356,378,397,417,438,456,478,497,517,537,557,577,597,616,638,657,677,697,718,738,757,776,797,817,837,858,877,896,917,938,957,976,997,1017,1037,1057,1077,1097,1118,1138,1158,1176,1197,1217,1238,1257,1277,1297,1317,1337,1358,1377],"xSR":741.5,"ySR":469.95,"xT1":424.9,"yT1":0,"xT2":1058.1,"yT2":0,"toosoon":0,"cond_shown":"Congruent","ratio_trial":200,"L_num":15,"L_den":25,"R_num":4,"R_den":10,"correct_side":1,"subjID":"sarapereira24","gender":"1","school":"4","age":"9"},{"start_time":1552312883934,"click_time":1552312886201,"finger_time":1552312885421,"fix_duration":311.75916417014605,"trial":13,"RT":1487,"MT":780,"sideResp":1,"stimulus":[],"xmouse":[788,786,786,786,785,785,785,785,785,785,785,785,785,785,785,785,785,785,785,785,785,785,785,785,785,785,785,785,785,785,785,785,785,785,785,785,785,785,785,785,785,785,785,785,785,785,785,785,785,785,785,785,785,785,785,785,785,785,785,785,785,785,785,785,785,785,785,785,785,785,785,785,785,785,797,802,802,785,772,772,772,772,772,772,772,772,772,772,772,397,380,376,376,376,376,376,376,376,376,376,376,378,386,397,415,416,416,416,416,416,416,417,419,427],"ymouse":[527,527,527,525,521,521,521,521,521,521,521,521,521,521,521,521,521,521,521,521,521,521,521,521,521,521,521,521,521,521,521,521,521,521,521,521,521,521,521,521,521,521,521,521,521,521,521,521,521,521,521,521,521,521,521,521,521,521,521,521,521,521,521,521,521,521,521,521,521,521,521,521,519,517,469,400,305,116,51,51,51,51,51,51,51,51,51,51,51,19,36,40,40,40,40,40,40,40,40,40,40,42,43,44,45,45,45,45,45,45,45,45,45,43],"timestamp_mouse":[14,38,47,67,87,106,126,148,167,188,207,227,248,266,286,308,328,348,367,386,407,428,448,466,487,508,527,548,566,588,607,628,647,668,687,707,728,747,767,788,806,827,848,867,887,907,927,947,966,986,1008,1026,1047,1068,1088,1108,1128,1148,1168,1188,1208,1227,1247,1268,1286,1307,1327,1348,1367,1387,1408,1428,1447,1467,1487,1507,1528,1548,1568,1588,1608,1628,1647,1668,1688,1708,1727,1747,1767,1787,1807,1827,1847,1867,1887,1908,1927,1948,1968,1987,2006,2028,2047,2067,2086,2108,2127,2147,2168,2187,2208,2226,2247,2267],"xSR":741.5,"ySR":469.95,"xT1":424.9,"yT1":0,"xT2":1058.1,"yT2":0,"toosoon":0,"cond_shown":"Incongruent","ratio_trial":200,"L_num":4,"L_den":6,"R_num":14,"R_den":30,"correct_side":1,"subjID":"sarapereira24","gender":"1","school":"4","age":"9"},{"start_time":1552312887978,"click_time":1552312889281,"finger_time":1552312889202,"fix_duration":455.4146403897027,"trial":14,"RT":1224,"MT":79,"sideResp":2,"stimulus":[],"xmouse":[779,779,779,779,779,779,779,779,779,779,779,779,779,779,779,779,779,779,779,779,779,779,779,779,780,783,787,791,791,791,791,791,791,791,791,791,791,791,791,791,791,791,791,791,791,791,789,788,785,785,784,784,784,784,784,784,784,784,784,792,802,837,1002,1034,1110,1141],"ymouse":[504,504,504,504,504,504,504,504,504,504,504,504,504,504,504,504,504,504,504,504,504,504,504,504,503,499,492,486,486,486,486,486,486,486,486,486,486,486,486,486,486,486,486,486,486,491,497,500,506,508,509,509,509,509,509,509,509,509,509,503,494,453,263,227,135,93],"timestamp_mouse":[9,23,45,62,83,104,123,143,164,183,204,223,243,264,283,304,324,343,364,383,404,423,443,464,483,503,524,543,564,582,602,624,643,664,683,704,722,742,763,783,802,823,842,864,883,903,923,943,963,984,1003,1024,1043,1064,1084,1104,1123,1143,1164,1183,1202,1224,1244,1262,1283,1303],"xSR":741.5,"ySR":469.95,"xT1":424.9,"yT1":0,"xT2":1058.1,"yT2":0,"toosoon":0,"cond_shown":"Congruent","ratio_trial":200,"L_num":3,"L_den":10,"R_num":11,"R_den":22,"correct_side":2,"subjID":"sarapereira24","gender":"1","school":"4","age":"9"},{"start_time":1552312891112,"click_time":1552312892662,"finger_time":1552312892540,"fix_duration":250,"trial":15,"RT":1428,"MT":122,"sideResp":1,"stimulus":[],"xmouse":[805,805,805,805,805,805,805,805,805,805,805,805,805,805,805,805,805,805,805,805,805,805,805,805,805,805,805,805,805,805,805,805,805,805,805,805,805,805,805,805,805,805,805,805,805,805,805,805,805,805,805,805,805,805,805,805,805,805,805,805,805,805,805,805,805,805,805,805,805,802,797,765,740,710,678,625,551,522],"ymouse":[541,541,541,541,541,541,541,541,541,541,541,541,541,541,541,541,541,541,541,541,541,541,541,541,541,541,541,541,541,541,541,541,541,541,541,541,541,541,541,541,541,541,541,541,541,541,541,541,541,541,541,541,541,541,541,541,541,541,541,541,541,541,541,541,541,541,541,541,532,513,491,427,380,329,271,178,55,11],"timestamp_mouse":[13,41,48,69,102,109,129,153,170,190,209,229,249,270,289,309,330,348,368,390,410,429,450,468,489,510,528,548,569,589,610,628,648,670,689,708,728,750,770,789,809,830,849,868,889,910,929,949,970,988,1010,1029,1049,1070,1090,1108,1129,1149,1170,1189,1208,1229,1248,1270,1289,1310,1330,1349,1370,1389,1409,1428,1448,1469,1489,1509,1529,1550],"xSR":741.5,"ySR":469.95,"xT1":424.9,"yT1":0,"xT2":1058.1,"yT2":0,"toosoon":0,"cond_shown":"Incongruent","ratio_trial":100,"L_num":8,"L_den":16,"R_num":6,"R_den":10,"correct_side":2,"subjID":"sarapereira24","gender":"1","school":"4","age":"9"},{"start_time":1552312898780,"click_time":1552312899861,"finger_time":1552312899441,"fix_duration":675.8239200602314,"trial":16,"RT":661,"MT":420,"sideResp":1,"stimulus":[],"xmouse":[794,794,794,794,794,794,794,794,794,794,794,794,794,794,794,794,794,794,794,794,794,794,794,794,794,794,794,794,794,794,794,794,794,778,755,717,678,678,678,678,678,678,678,678,678,678,678,678,678,678,678,678,532,528,513],"ymouse":[520,520,520,520,520,520,520,520,520,520,520,520,520,520,520,520,520,520,520,520,520,520,520,520,520,520,520,520,520,520,520,520,517,440,346,217,50,50,50,50,50,50,50,50,50,50,50,50,50,50,50,50,7,19,60],"timestamp_mouse":[10,21,45,61,82,100,121,142,161,181,202,221,241,261,281,300,321,341,362,381,401,421,442,462,480,502,521,542,560,581,602,622,641,661,681,701,722,741,762,781,800,820,841,860,881,901,922,940,961,981,1001,1022,1042,1061,1081],"xSR":741.5,"ySR":469.95,"xT1":424.9,"yT1":0,"xT2":1058.1,"yT2":0,"toosoon":0,"cond_shown":"Incongruent","ratio_trial":100,"L_num":13,"L_den":26,"R_num":6,"R_den":10,"correct_side":2,"subjID":"sarapereira24","gender":"1","school":"4","age":"9"},{"start_time":1552312902939,"click_time":1552312906201,"finger_time":1552312904701,"fix_duration":1235.1300368270624,"trial":17,"RT":1762,"MT":1500,"sideResp":2,"stimulus":[],"xmouse":[824,824,824,824,824,824,824,824,824,824,824,824,824,824,824,824,824,824,824,824,824,824,824,824,824,824,824,824,824,824,824,824,824,824,824,824,824,824,824,824,824,824,824,824,824,824,824,824,824,824,824,824,824,824,824,824,824,824,824,824,824,824,824,824,824,824,824,824,824,824,824,824,824,824,824,824,824,824,824,824,824,824,824,824,824,824,824,832,842,854,867,897,909,916,924,935,964,999,1022,1046,1065,1080,1093,1094,1094,1094,1094,1094,1094,1094,1094,1094,1094,1094,1094,1092,1090,1090,1090,1090,1090,1090,1090,1091,1091,1091,1091,1091,1091,1091,1091,1091,1091,1091,1091,1091,1091,1092,1093,1093,1093,1093,1093,1093,1093,1093,1093,1093,1093,1093,1093,1093,1093,1093,1093,1093,1093,1093,1093,1093,1092,1092,1091,1091],"ymouse":[522,522,522,522,522,522,522,522,522,522,522,522,522,522,522,522,522,522,522,522,522,522,522,522,522,522,522,522,522,522,522,522,522,522,522,522,522,522,522,522,522,522,522,522,522,522,522,522,522,522,522,522,522,522,522,522,522,522,522,522,522,522,522,522,522,522,522,522,522,522,522,522,522,522,522,522,522,522,522,522,522,522,522,522,522,522,521,509,493,468,438,366,340,320,305,289,255,230,213,195,182,169,155,154,154,154,154,154,154,154,154,154,154,152,149,146,144,143,143,143,143,140,136,133,132,131,131,131,131,131,131,131,131,131,131,131,131,127,125,124,124,120,119,117,115,114,111,111,111,111,111,110,108,108,108,108,108,108,108,107,104,101,100,98],"timestamp_mouse":[12,34,42,63,83,103,121,142,161,183,203,223,242,263,283,302,323,343,363,382,401,421,443,463,482,502,521,542,563,583,602,623,643,663,683,703,723,741,763,782,802,823,842,861,882,902,922,942,962,981,1001,1022,1041,1063,1083,1103,1121,1142,1163,1181,1201,1221,1243,1261,1282,1303,1322,1343,1363,1382,1402,1423,1443,1462,1482,1503,1523,1542,1562,1581,1603,1623,1643,1662,1683,1702,1722,1743,1762,1783,1802,1822,1841,1862,1883,1902,1922,1941,1962,1982,2002,2022,2041,2062,2083,2102,2122,2143,2163,2181,2202,2221,2241,2262,2282,2302,2322,2343,2363,2381,2401,2422,2441,2462,2482,2502,2522,2542,2563,2581,2602,2622,2643,2662,2683,2702,2723,2743,2762,2782,2803,2823,2842,2861,2882,2903,2923,2942,2963,2982,3002,3023,3042,3061,3083,3102,3122,3142,3162,3182,3203,3223,3241,3262],"xSR":741.5,"ySR":469.95,"xT1":424.9,"yT1":0,"xT2":1058.1,"yT2":0,"toosoon":0,"cond_shown":"Incongruent","ratio_trial":200,"L_num":14,"L_den":30,"R_num":6,"R_den":9,"correct_side":2,"subjID":"sarapereira24","gender":"1","school":"4","age":"9"},{"start_time":1552312909265,"click_time":1552312911280,"finger_time":1552312910842,"fix_duration":1102.0441648989959,"trial":18,"RT":1577,"MT":438,"sideResp":1,"stimulus":[],"xmouse":[779,779,779,779,779,779,779,779,779,779,779,779,779,779,779,779,779,779,779,779,779,779,779,779,779,779,779,779,779,779,779,779,779,779,780,785,785,786,786,786,786,786,786,786,786,786,786,786,786,786,786,786,786,786,786,786,786,786,786,786,786,786,786,786,786,786,786,786,786,786,786,786,786,786,786,786,786,787,787,787,750,734,734,734,734,734,734,734,734,734,734,734,734,734,734,734,734,734,734,734,463],"ymouse":[546,546,546,546,546,546,546,546,546,546,546,546,546,546,546,546,546,546,546,546,546,546,546,546,546,546,546,546,546,546,546,546,540,533,525,517,516,514,514,514,514,514,514,514,514,514,514,514,514,514,514,514,514,514,514,514,514,514,514,514,514,514,514,514,514,514,514,514,514,514,514,514,514,514,514,514,512,504,429,332,93,39,39,39,39,39,39,39,39,39,39,39,39,39,39,39,39,39,39,39,14],"timestamp_mouse":[16,37,56,77,96,116,137,156,175,196,216,236,257,275,295,317,336,355,375,397,416,437,456,477,496,516,537,557,576,596,617,636,656,676,696,716,736,757,776,797,816,836,855,876,896,916,937,956,977,997,1016,1036,1056,1077,1095,1117,1137,1156,1176,1197,1216,1237,1257,1277,1297,1316,1337,1356,1377,1395,1415,1437,1457,1477,1497,1516,1537,1555,1577,1596,1616,1637,1656,1675,1696,1716,1737,1756,1776,1796,1817,1836,1856,1877,1897,1917,1937,1956,1976,1996,2015],"xSR":741.5,"ySR":469.95,"xT1":424.9,"yT1":0,"xT2":1058.1,"yT2":0,"toosoon":0,"cond_shown":"Incongruent","ratio_trial":100,"L_num":6,"L_den":12,"R_num":3,"R_den":5,"correct_side":2,"subjID":"sarapereira24","gender":"1","school":"4","age":"9"},{"start_time":1552312913973,"click_time":1552312916101,"finger_time":1552312916002,"fix_duration":1369.2695916535858,"trial":19,"RT":2029,"MT":99,"sideResp":2,"stimulus":[],"xmouse":[785,785,785,785,785,785,785,785,785,785,785,785,785,785,785,785,785,785,785,785,785,785,785,785,785,785,785,785,785,785,785,785,785,785,785,785,785,785,785,785,785,785,785,785,785,785,785,785,785,785,785,785,785,785,785,785,785,785,785,785,785,785,785,785,785,785,785,785,785,785,785,785,785,785,785,785,785,785,785,785,785,785,785,785,785,785,785,785,785,785,785,785,785,785,785,785,785,786,786,788,812,871,939,1009,1058,1088,1120],"ymouse":[530,530,530,530,530,530,530,530,530,530,530,530,530,530,530,530,530,530,530,530,530,530,530,530,530,530,530,530,530,530,530,530,530,530,530,530,530,530,530,530,530,530,530,530,530,530,530,530,530,530,530,530,530,530,530,530,530,530,530,530,530,530,530,530,530,530,530,530,530,530,530,530,530,530,530,530,530,530,530,530,530,530,530,530,530,530,530,530,530,530,530,530,530,530,530,530,530,527,523,515,493,424,334,231,161,119,66],"timestamp_mouse":[13,40,47,67,87,108,129,149,167,189,209,228,249,269,288,308,327,349,369,389,408,429,449,467,488,508,528,549,569,587,608,628,649,668,688,708,729,748,769,788,808,827,847,869,888,908,927,947,969,989,1008,1028,1048,1069,1088,1108,1128,1148,1168,1189,1208,1229,1248,1268,1289,1308,1327,1348,1368,1389,1407,1429,1448,1467,1488,1509,1528,1548,1569,1589,1607,1629,1649,1669,1689,1708,1729,1749,1769,1787,1808,1827,1847,1868,1889,1907,1928,1949,1969,1989,2008,2029,2047,2069,2087,2107,2128],"xSR":741.5,"ySR":469.95,"xT1":424.9,"yT1":0,"xT2":1058.1,"yT2":0,"toosoon":0,"cond_shown":"Incongruent","ratio_trial":300,"L_num":13,"L_den":26,"R_num":12,"R_den":15,"correct_side":2,"subjID":"sarapereira24","gender":"1","school":"4","age":"9"},{"start_time":1552312930491,"click_time":1552312931901,"finger_time":1552312931400,"fix_duration":869.9688805697075,"trial":20,"RT":909,"MT":501,"sideResp":1,"stimulus":[],"xmouse":[778,778,778,778,778,778,778,778,778,778,778,778,778,778,778,778,778,778,778,778,778,778,778,778,778,778,778,778,778,778,778,778,778,778,778,778,778,778,778,778,778,778,774,770,765,758,731,694,672,654,639,619,614,610,608,605,590,574,567,564,562,561,561,561,561,561,561,561,559,546,512],"ymouse":[506,505,505,505,505,505,505,505,505,505,505,505,505,505,505,505,505,505,505,505,505,505,505,505,505,505,505,505,505,505,505,505,505,505,505,505,505,505,505,505,504,497,490,484,473,460,417,367,334,311,290,263,254,246,239,233,209,187,180,175,173,172,172,172,172,172,172,166,151,117,65],"timestamp_mouse":[11,30,51,70,89,109,130,150,171,190,210,231,250,269,289,310,331,349,371,391,410,429,449,469,491,510,530,550,570,591,610,630,650,670,689,711,730,749,771,790,810,829,849,870,889,909,930,949,970,990,1010,1030,1050,1070,1089,1109,1131,1150,1170,1190,1210,1230,1250,1271,1290,1310,1331,1351,1370,1390,1410],"xSR":741.5,"ySR":469.95,"xT1":424.9,"yT1":0,"xT2":1058.1,"yT2":0,"toosoon":0,"cond_shown":"Congruent","ratio_trial":300,"L_num":24,"L_den":30,"R_num":8,"R_den":16,"correct_side":1,"subjID":"sarapereira24","gender":"1","school":"4","age":"9"},{"start_time":1552312935375,"click_time":1552312937762,"finger_time":1552312936900,"fix_duration":250,"trial":21,"RT":1525,"MT":862,"sideResp":2,"stimulus":[],"xmouse":[799,799,799,799,799,799,799,799,799,799,799,799,799,799,799,799,799,799,799,799,799,799,799,799,799,799,799,799,799,799,799,799,799,799,799,799,799,802,805,807,808,809,809,809,809,809,809,809,809,809,809,809,809,809,809,809,809,809,809,809,809,809,809,809,809,809,809,809,809,809,809,809,809,809,810,823,847,880,969,1008,1014,1021,1023,1027,1029,1032,1032,1032,1032,1027,1026,1018,1008,1008,1008,1008,1008,1008,1008,1008,1008,1008,1008,1012,1020,1026,1031,1035,1039,1039,1039,1039,1039,1039,1039,1040,1041,1048,1070,1079],"ymouse":[482,482,482,482,482,482,482,482,482,482,482,482,482,482,482,482,482,482,482,482,482,482,482,482,482,482,482,482,482,482,482,482,482,482,482,482,482,482,482,482,481,480,480,480,480,480,480,480,480,480,480,480,480,480,480,480,480,480,480,480,480,480,480,480,480,480,480,480,480,480,480,480,480,480,479,475,469,462,441,429,427,414,408,405,403,388,362,320,222,163,149,93,25,25,25,25,25,25,25,25,25,25,25,49,65,81,91,100,109,109,109,109,109,109,109,110,110,108,102,97],"timestamp_mouse":[20,28,46,67,86,106,126,147,165,185,205,226,246,266,287,305,325,346,366,385,406,425,445,467,486,507,526,546,565,587,607,626,646,665,685,707,726,746,766,787,805,827,846,866,886,905,927,947,965,985,1006,1026,1046,1066,1086,1106,1126,1145,1166,1187,1205,1227,1247,1267,1286,1307,1326,1347,1366,1386,1407,1427,1445,1467,1485,1505,1525,1546,1565,1585,1605,1625,1646,1665,1685,1705,1726,1745,1765,1785,1806,1825,1845,1865,1886,1906,1926,1947,1966,1987,2006,2026,2047,2066,2085,2105,2125,2146,2165,2186,2206,2226,2247,2266,2286,2307,2325,2347,2366,2386],"xSR":741.5,"ySR":469.95,"xT1":424.9,"yT1":0,"xT2":1058.1,"yT2":0,"toosoon":0,"cond_shown":"Incongruent","ratio_trial":100,"L_num":13,"L_den":26,"R_num":12,"R_den":20,"correct_side":2,"subjID":"sarapereira24","gender":"1","school":"4","age":"9"},{"start_time":1552312938892,"click_time":1552312941161,"finger_time":1552312939521,"fix_duration":289.85376043421206,"trial":22,"RT":629,"MT":1640,"sideResp":2,"stimulus":[],"xmouse":[799,799,799,800,800,800,800,800,800,800,800,800,800,800,800,800,800,800,800,800,800,800,800,800,802,805,806,807,803,792,784,777,777,777,777,777,777,777,777,777,777,777,777,777,777,777,777,777,777,777,777,777,777,777,780,783,788,791,791,791,793,803,823,914,960,993,1029,1065,1097,1099,1100,1100,1100,1100,1100,1100,1100,1100,1100,1100,1099,1094,1081,1070,1061,1050,1038,1016,1009,1004,1001,998,993,993,993,993,993,1003,1016,1029,1040,1046,1049,1052,1056,1060,1062,1062,1062,1063,1063,1066,1083,1089],"ymouse":[543,543,543,542,541,541,541,541,541,541,541,541,541,541,541,541,541,541,541,541,541,541,541,541,539,535,530,520,491,476,470,468,468,468,468,468,468,468,468,468,468,468,468,468,468,468,468,468,468,468,468,468,468,478,488,498,508,513,513,513,513,506,488,403,364,325,259,205,169,168,167,167,167,167,167,167,167,167,167,167,167,167,171,178,183,190,197,205,207,209,209,209,210,210,210,210,210,189,168,144,127,118,117,117,117,117,117,117,117,116,116,115,100,92],"timestamp_mouse":[10,39,49,70,89,109,129,149,168,188,210,230,249,270,290,309,329,348,369,389,408,429,448,469,489,509,530,548,568,590,609,629,650,669,690,709,728,749,770,789,810,830,849,869,890,910,930,948,970,988,1010,1030,1050,1070,1089,1110,1129,1148,1169,1188,1210,1229,1249,1269,1289,1309,1329,1349,1368,1389,1409,1428,1450,1469,1488,1509,1529,1549,1569,1588,1608,1629,1650,1669,1689,1708,1728,1749,1769,1789,1808,1828,1850,1868,1890,1910,1928,1950,1969,1988,2009,2029,2049,2069,2089,2109,2128,2149,2168,2188,2208,2229,2250,2268],"xSR":741.5,"ySR":469.95,"xT1":424.9,"yT1":0,"xT2":1058.1,"yT2":0,"toosoon":0,"cond_shown":"Incongruent","ratio_trial":200,"L_num":7,"L_den":10,"R_num":12,"R_den":24,"correct_side":1,"subjID":"sarapereira24","gender":"1","school":"4","age":"9"},{"start_time":1552312948488,"click_time":1552312951681,"finger_time":1552312950361,"fix_duration":1026.2041991283156,"trial":23,"RT":1873,"MT":1320,"sideResp":2,"stimulus":[],"xmouse":[806,806,806,806,806,806,806,806,806,806,806,806,806,806,806,806,806,806,806,806,806,806,806,806,806,806,806,806,806,806,806,806,806,806,806,806,806,806,806,806,806,806,806,806,806,806,806,806,806,806,806,806,806,806,806,806,806,806,806,806,806,806,806,806,806,806,806,806,806,806,806,806,806,806,806,806,806,806,806,806,806,806,806,806,806,806,806,806,806,806,806,806,807,842,860,868,869,869,869,867,874,878,879,879,879,879,879,879,879,879,879,879,879,879,879,887,937,1070,1115,1319,1372,1393,1403,1407,1408,1408,1408,1408,1408,1408,1408,1408,1409,1414,1442,1461,1503,1555,1555,1555,1555,1555,1555,1555,1555,1256,1158,1122,1115,1115,1115,1115,1115,1115,1116,1117,1117,1117,1125,1131],"ymouse":[506,506,506,506,506,506,506,506,506,506,506,506,506,506,506,506,506,506,506,506,506,506,506,506,506,506,506,506,506,506,506,506,506,506,506,506,506,506,506,506,506,506,506,506,506,506,506,506,506,506,506,506,506,506,506,506,506,506,506,506,506,506,506,506,506,506,506,506,506,506,506,506,506,506,506,506,506,506,506,506,506,506,506,506,506,506,506,506,506,506,506,506,506,478,457,453,453,453,446,428,416,412,412,412,412,412,412,412,412,412,412,412,412,412,412,407,387,329,307,201,178,171,168,168,167,167,167,167,171,174,175,176,179,179,178,168,129,48,48,48,48,48,48,48,48,53,107,134,156,158,159,159,159,159,153,146,138,127,107,92],"timestamp_mouse":[13,37,54,73,93,113,133,154,173,193,212,234,254,273,293,313,333,353,372,393,414,432,453,472,492,514,532,552,572,593,612,633,654,673,693,712,734,753,773,793,814,834,853,873,892,914,934,953,973,992,1012,1034,1053,1072,1093,1114,1134,1153,1172,1193,1212,1234,1253,1272,1292,1314,1332,1353,1373,1392,1414,1432,1453,1473,1494,1512,1534,1554,1573,1593,1613,1634,1653,1672,1693,1713,1732,1753,1773,1794,1812,1832,1852,1873,1892,1913,1932,1954,1974,1992,2013,2033,2053,2074,2093,2112,2132,2154,2173,2194,2213,2233,2252,2274,2293,2312,2333,2352,2372,2393,2412,2434,2452,2474,2492,2512,2533,2552,2574,2593,2613,2633,2654,2673,2692,2713,2733,2752,2772,2792,2814,2833,2852,2872,2892,2912,2933,2953,2974,2992,3014,3033,3052,3073,3094,3112,3132,3152,3174,3193],"xSR":741.5,"ySR":469.95,"xT1":424.9,"yT1":0,"xT2":1058.1,"yT2":0,"toosoon":0,"cond_shown":"Incongruent","ratio_trial":300,"L_num":8,"L_den":10,"R_num":9,"R_den":18,"correct_side":1,"subjID":"sarapereira24","gender":"1","school":"4","age":"9"},{"start_time":1552312959305,"click_time":1552312961801,"finger_time":1552312960861,"fix_duration":1382.332812103917,"trial":24,"RT":1556,"MT":940,"sideResp":1,"stimulus":[],"xmouse":[804,804,804,804,804,804,804,804,804,804,804,804,804,804,804,804,804,804,804,804,804,804,804,804,804,804,804,804,804,804,804,804,804,804,804,804,804,804,804,804,804,804,804,804,804,804,804,804,804,804,804,804,804,804,804,804,804,804,804,804,804,804,804,804,804,804,804,804,804,804,804,804,804,804,804,808,829,857,898,938,938,938,938,938,938,938,938,938,938,938,938,938,938,938,938,938,742,734,730,716,706,686,679,663,645,637,626,614,606,590,583,578,571,568,565,563,559,556,551,542,536,534,528,525,518],"ymouse":[546,546,546,546,546,546,546,546,546,546,546,546,546,546,546,546,546,546,546,546,546,546,546,546,546,546,546,546,546,546,546,546,546,546,546,546,546,546,546,546,546,546,546,546,546,546,546,546,546,546,546,546,546,546,546,546,546,546,546,546,546,546,546,546,546,546,546,546,546,546,546,546,546,546,546,545,531,503,426,118,29,29,29,29,29,29,29,29,29,29,29,29,29,29,29,29,2,3,3,7,8,11,12,14,18,20,24,29,34,43,48,51,55,56,56,57,58,58,59,59,59,59,59,59,60],"timestamp_mouse":[16,42,56,76,95,117,136,156,175,195,216,235,255,275,296,316,336,356,376,396,415,435,456,476,495,515,535,555,576,596,617,636,655,675,695,717,737,757,776,795,817,837,855,876,896,916,937,955,975,996,1017,1035,1057,1076,1096,1116,1136,1156,1175,1196,1215,1236,1257,1275,1295,1317,1336,1356,1376,1396,1417,1437,1456,1475,1495,1515,1536,1556,1576,1595,1615,1635,1655,1675,1696,1716,1736,1756,1777,1795,1816,1835,1856,1875,1896,1915,1935,1955,1975,1995,2015,2035,2055,2075,2095,2115,2136,2156,2176,2196,2215,2236,2256,2275,2295,2316,2336,2355,2375,2396,2415,2435,2455,2476,2496],"xSR":741.5,"ySR":469.95,"xT1":424.9,"yT1":0,"xT2":1058.1,"yT2":0,"toosoon":0,"cond_shown":"Congruent","ratio_trial":200,"L_num":8,"L_den":15,"R_num":2,"R_den":6,"correct_side":1,"subjID":"sarapereira24","gender":"1","school":"4","age":"9"},{"start_time":1552312964572,"click_time":1552312967061,"finger_time":1552312965321,"fix_duration":1449.3402873911573,"trial":25,"RT":749,"MT":1740,"sideResp":1,"stimulus":[],"xmouse":[786,786,786,786,786,786,786,786,786,786,786,786,786,786,786,786,786,786,786,786,786,786,786,786,786,786,786,786,786,786,786,786,786,786,786,786,796,803,809,818,823,829,830,830,831,832,833,835,837,840,843,865,877,890,906,924,948,961,969,977,986,993,993,993,994,995,1000,1006,1008,1010,1010,1010,1010,1010,1009,1008,1002,998,993,984,968,949,903,875,847,810,755,711,701,695,693,693,691,686,674,659,648,636,632,628,625,614,607,599,592,584,557,543,525,503,482,462,462,462,462,462,462,462,462,462,463,467,471,472,474],"ymouse":[493,493,493,493,493,492,492,492,492,492,492,492,492,492,492,492,492,492,492,492,492,492,492,492,492,492,492,492,492,492,492,492,492,492,492,492,482,449,407,357,326,283,274,271,269,268,267,265,264,263,261,255,251,247,243,238,229,222,215,208,199,191,190,189,187,186,181,178,177,177,177,177,177,177,177,177,177,179,180,182,183,183,183,183,183,183,179,172,171,169,168,168,168,168,167,165,164,162,162,162,162,162,162,162,162,162,154,151,145,139,133,126,126,126,126,126,126,126,126,123,123,116,112,108,99],"timestamp_mouse":[13,42,49,68,89,110,128,148,168,189,210,228,248,270,288,309,330,348,368,389,410,430,448,469,490,508,530,549,568,588,610,628,649,670,689,708,728,749,768,788,809,829,848,868,888,910,929,949,968,989,1008,1029,1048,1068,1088,1108,1129,1148,1168,1189,1209,1229,1248,1268,1289,1308,1329,1348,1368,1390,1409,1429,1449,1469,1488,1509,1529,1548,1569,1590,1610,1629,1648,1669,1689,1709,1729,1749,1768,1788,1808,1828,1848,1869,1888,1910,1928,1948,1968,1989,2008,2029,2048,2070,2088,2109,2130,2150,2168,2190,2208,2228,2249,2268,2288,2310,2329,2349,2368,2390,2409,2430,2448,2468,2489],"xSR":741.5,"ySR":469.95,"xT1":424.9,"yT1":0,"xT2":1058.1,"yT2":0,"toosoon":0,"cond_shown":"Incongruent","ratio_trial":300,"L_num":8,"L_den":10,"R_num":9,"R_den":18,"correct_side":1,"subjID":"sarapereira24","gender":"1","school":"4","age":"9"},{"start_time":1552312973032,"click_time":1552312974721,"finger_time":1552312974620,"fix_duration":250,"trial":26,"RT":1588,"MT":101,"sideResp":1,"stimulus":[],"xmouse":[796,796,796,796,796,797,797,797,797,797,797,797,797,797,797,797,797,797,797,797,797,797,797,797,797,797,797,797,797,797,797,797,797,797,797,797,797,797,797,797,797,797,797,797,797,797,797,797,797,797,797,797,797,797,797,797,797,797,797,797,797,797,797,799,802,801,801,801,801,801,801,801,801,801,801,801,801,801,799,783,717,654,596,549,501],"ymouse":[537,537,537,537,537,537,537,537,537,537,537,537,537,537,537,537,537,537,537,537,537,537,537,537,537,537,537,537,537,537,537,537,537,537,537,537,537,537,537,537,537,537,537,537,537,537,537,537,537,537,537,537,537,537,537,537,537,537,537,537,534,526,516,503,477,476,476,476,476,476,476,476,476,476,476,476,476,476,473,453,362,280,208,154,97],"timestamp_mouse":[14,41,48,68,89,109,128,149,169,190,208,229,248,268,290,309,329,349,368,388,409,428,448,469,490,510,528,548,568,590,610,628,649,668,690,710,730,749,769,789,808,830,850,870,889,909,929,948,969,988,1009,1029,1049,1070,1090,1110,1129,1148,1169,1188,1209,1228,1248,1268,1289,1309,1330,1349,1370,1388,1409,1429,1450,1469,1488,1510,1528,1550,1569,1588,1608,1629,1650,1669,1689],"xSR":741.5,"ySR":469.95,"xT1":424.9,"yT1":0,"xT2":1058.1,"yT2":0,"toosoon":0,"cond_shown":"Incongruent","ratio_trial":300,"L_num":8,"L_den":10,"R_num":14,"R_den":28,"correct_side":1,"subjID":"sarapereira24","gender":"1","school":"4","age":"9"},{"start_time":1552312991618,"click_time":1552312993761,"finger_time":1552312993300,"fix_duration":1174.3608883470465,"trial":27,"RT":1682,"MT":461,"sideResp":1,"stimulus":[],"xmouse":[778,778,778,778,778,778,778,778,778,778,778,778,778,778,778,778,778,778,778,778,778,778,778,778,778,778,778,778,778,778,778,778,778,778,778,778,778,778,778,778,778,778,778,778,778,778,778,778,778,778,778,778,778,778,778,778,778,778,778,778,778,778,778,778,778,778,778,778,778,778,778,778,778,778,778,778,778,778,778,778,778,778,778,778,778,778,773,759,716,682,644,607,573,573,573,573,573,573,573,573,573,573,573,573,573,573,573,500],"ymouse":[519,519,519,519,519,519,519,519,519,519,519,519,519,519,519,519,519,519,519,519,519,519,519,519,519,519,519,519,519,519,519,519,519,519,519,519,519,519,519,519,519,519,519,519,519,519,519,519,519,519,519,519,519,519,519,519,519,519,519,519,519,519,519,519,519,519,519,519,519,519,519,519,519,519,519,519,519,519,519,519,519,519,519,498,455,392,328,279,196,151,104,52,5,5,5,5,5,5,5,5,5,5,5,5,5,5,5,3],"timestamp_mouse":[13,22,42,63,83,104,122,144,163,183,204,222,242,263,282,303,324,343,363,383,402,424,443,463,482,502,522,542,562,583,604,623,644,663,682,702,723,742,762,783,802,824,842,863,882,902,924,943,962,982,1002,1023,1042,1062,1082,1104,1123,1142,1164,1184,1203,1223,1242,1263,1282,1303,1323,1342,1363,1382,1402,1422,1442,1463,1484,1503,1524,1542,1563,1583,1604,1622,1642,1662,1682,1702,1722,1742,1762,1782,1803,1824,1843,1862,1882,1904,1924,1943,1963,1983,2002,2022,2043,2063,2083,2104,2122,2143],"xSR":741.5,"ySR":469.95,"xT1":424.9,"yT1":0,"xT2":1058.1,"yT2":0,"toosoon":0,"cond_shown":"Incongruent","ratio_trial":300,"L_num":4,"L_den":20,"R_num":2,"R_den":4,"correct_side":2,"subjID":"sarapereira24","gender":"1","school":"4","age":"9"},{"start_time":1552312998720,"click_time":1552313000620,"finger_time":1552312999921,"fix_duration":1118.7254288412907,"trial":28,"RT":1201,"MT":699,"sideResp":2,"stimulus":[],"xmouse":[792,792,792,792,792,792,792,792,792,792,792,792,792,792,792,792,792,792,792,792,792,792,792,792,792,792,792,792,792,792,792,792,792,792,792,792,792,792,792,792,792,792,792,792,792,792,792,792,792,792,792,792,792,792,792,792,792,792,794,818,893,1019,1188,1463,1497,1498,1498,1498,1498,1498,1492,1479,1460,1415,1386,1378,1378,1378,1378,1378,1378,1378,1378,1378,1378,1378,1378,1378,1378,1378,1378,1378,1378,1378,1378,1145],"ymouse":[512,512,512,512,512,512,512,512,512,512,512,512,512,512,512,512,512,512,512,512,512,512,512,512,512,512,512,512,512,512,512,512,512,512,512,512,512,512,512,512,512,512,512,512,512,512,512,512,512,512,512,512,512,512,512,512,512,512,503,473,428,395,384,393,399,399,399,399,399,398,380,344,282,132,37,9,9,9,9,9,9,9,9,9,9,9,9,9,9,9,9,9,9,9,9,30],"timestamp_mouse":[10,21,45,60,82,101,120,141,161,180,202,221,241,262,281,302,320,341,361,381,401,421,441,460,482,500,520,542,560,581,602,622,641,661,680,701,722,740,761,780,800,820,840,860,880,902,921,940,960,982,1000,1020,1041,1062,1081,1101,1120,1141,1161,1180,1201,1220,1240,1261,1280,1301,1321,1340,1361,1380,1400,1420,1441,1461,1480,1501,1521,1541,1560,1580,1600,1620,1641,1661,1680,1700,1721,1740,1760,1780,1801,1822,1841,1861,1881,1900],"xSR":741.5,"ySR":469.95,"xT1":424.9,"yT1":0,"xT2":1058.1,"yT2":0,"toosoon":0,"cond_shown":"Incongruent","ratio_trial":100,"L_num":6,"L_den":10,"R_num":7,"R_den":14,"correct_side":1,"subjID":"sarapereira24","gender":"1","school":"4","age":"9"},{"start_time":1552313004596,"click_time":1552313007321,"finger_time":1552313005141,"fix_duration":554.680984939111,"trial":29,"RT":545,"MT":2180,"sideResp":1,"stimulus":[],"xmouse":[803,803,803,803,803,803,803,803,803,803,803,803,803,803,803,803,803,803,803,803,804,804,805,805,805,795,779,758,720,694,678,676,676,676,676,676,676,676,676,676,676,676,676,675,674,660,648,641,637,635,635,635,635,635,636,668,694,732,794,827,857,861,863,864,868,873,874,874,874,874,873,871,865,856,850,844,843,841,841,841,841,841,844,844,844,844,844,844,844,844,844,844,844,844,844,844,844,844,844,844,844,844,844,844,840,808,794,774,764,747,702,675,651,637,631,628,627,626,625,623,617,611,602,592,586,584,584,583,575,575,575,575,575,575,575,446,445],"ymouse":[538,538,538,538,538,538,538,538,538,538,538,538,538,538,538,538,538,538,538,538,536,535,533,532,524,509,490,468,429,399,383,383,383,383,383,383,383,383,383,383,383,383,383,382,377,351,337,328,324,322,322,322,322,322,322,324,329,337,345,349,349,345,338,327,314,295,290,285,282,280,273,267,258,244,229,208,206,203,203,203,203,203,203,203,203,203,203,203,203,203,203,203,203,203,203,203,203,203,203,203,203,203,203,202,198,153,134,114,106,98,78,66,56,48,46,44,43,42,42,41,37,34,29,21,16,14,14,13,5,5,5,5,5,5,5,0,21],"timestamp_mouse":[13,34,44,64,85,104,125,144,164,184,204,225,244,266,286,305,324,344,365,385,404,424,445,465,486,504,526,545,565,584,604,624,646,665,686,704,724,745,765,784,805,824,846,865,885,904,925,944,964,985,1004,1024,1044,1064,1085,1105,1125,1145,1165,1184,1204,1224,1245,1264,1284,1304,1324,1344,1365,1384,1404,1424,1444,1464,1484,1505,1524,1545,1566,1586,1606,1624,1645,1664,1685,1704,1725,1744,1766,1786,1804,1825,1844,1865,1885,1905,1924,1946,1965,1986,2005,2025,2045,2065,2084,2105,2125,2144,2165,2184,2205,2225,2244,2264,2285,2304,2325,2344,2364,2386,2404,2424,2445,2465,2485,2505,2524,2544,2565,2584,2604,2625,2644,2664,2685,2705,2725],"xSR":741.5,"ySR":469.95,"xT1":424.9,"yT1":0,"xT2":1058.1,"yT2":0,"toosoon":0,"cond_shown":"Incongruent","ratio_trial":300,"L_num":4,"L_den":20,"R_num":2,"R_den":4,"correct_side":2,"subjID":"sarapereira24","gender":"1","school":"4","age":"9"},{"start_time":1552313016415,"click_time":1552313017460,"finger_time":1552313017120,"fix_duration":673.1885559821225,"trial":30,"RT":705,"MT":340,"sideResp":2,"stimulus":[],"xmouse":[785,785,785,785,785,785,785,785,785,785,785,785,785,785,785,785,785,785,785,785,785,785,785,785,785,785,785,785,785,785,785,789,797,814,832,872,888,896,902,904,905,907,908,910,912,919,926,934,951,978,1007,1091,1145],"ymouse":[520,520,520,520,520,520,520,520,520,520,520,520,520,520,520,520,520,520,520,520,520,520,520,520,520,520,520,520,520,520,520,520,518,511,500,477,466,458,450,448,446,442,440,438,435,425,412,392,361,316,263,116,23],"timestamp_mouse":[9,41,46,65,87,106,126,146,167,187,206,226,246,267,286,307,326,347,365,386,406,426,445,467,485,506,526,546,565,585,605,626,645,666,685,705,725,745,766,785,806,825,846,865,885,906,925,945,966,985,1005,1025,1045],"xSR":741.5,"ySR":469.95,"xT1":424.9,"yT1":0,"xT2":1058.1,"yT2":0,"toosoon":0,"cond_shown":"Incongruent","ratio_trial":200,"L_num":7,"L_den":10,"R_num":14,"R_den":28,"correct_side":1,"subjID":"sarapereira24","gender":"1","school":"4","age":"9"},{"start_time":1552313027452,"click_time":1552313028660,"finger_time":1552313027682,"fix_duration":250,"trial":31,"RT":230,"MT":978,"sideResp":2,"stimulus":[],"xmouse":[812,812,812,812,812,812,812,812,812,812,819,848,878,899,907,907,907,907,907,907,907,907,907,907,907,907,907,907,907,907,907,907,907,907,907,907,907,907,907,907,907,912,926,943,964,1028,1050,1066,1079,1093,1095,1095,1095,1095,1095,1095,1095,1096,1096,1092,1087],"ymouse":[517,517,517,517,517,517,517,517,517,517,509,475,442,415,402,402,402,402,402,402,402,402,402,402,402,402,402,402,402,402,402,402,402,402,402,402,402,402,402,402,401,395,384,370,351,278,247,231,217,202,199,199,199,199,199,199,199,198,190,139,98],"timestamp_mouse":[13,36,48,69,88,108,129,148,170,188,208,230,248,269,289,310,330,348,368,389,409,428,449,468,489,508,529,548,568,588,609,629,648,669,688,710,730,750,769,789,808,830,849,868,888,909,928,949,969,989,1008,1029,1048,1068,1089,1109,1129,1148,1170,1190,1208],"xSR":741.5,"ySR":469.95,"xT1":424.9,"yT1":0,"xT2":1058.1,"yT2":0,"toosoon":0,"cond_shown":"Incongruent","ratio_trial":300,"L_num":13,"L_den":26,"R_num":12,"R_den":15,"correct_side":2,"subjID":"sarapereira24","gender":"1","school":"4","age":"9"},{"start_time":1552313037294,"click_time":1552313040680,"finger_time":1552313038962,"fix_duration":992.9572386887679,"trial":32,"RT":1668,"MT":1718,"sideResp":1,"stimulus":[],"xmouse":[792,792,792,792,792,792,792,792,792,792,792,792,792,792,792,792,792,793,794,800,802,804,805,806,806,806,806,806,807,807,807,807,807,807,807,807,807,807,807,807,807,807,807,807,807,807,807,807,807,807,807,807,807,807,807,807,807,807,807,807,807,807,807,807,807,807,807,807,807,807,807,807,807,807,807,807,807,807,807,807,807,809,814,824,830,837,841,844,846,846,846,846,846,838,805,786,767,763,755,753,753,753,752,750,746,743,738,733,722,707,696,682,666,651,631,624,621,619,619,619,619,618,615,607,601,597,595,593,587,579,576,574,573,572,562,554,544,543,542,542,542,542,540,537,527,522,513,506,499,491,490,490,490,490,490,490,490,490,490,490,490,490,490,490,490,490,490,490,490,490],"ymouse":[533,533,533,533,533,533,533,533,533,533,533,533,533,533,533,533,533,529,527,520,516,514,511,508,507,507,507,506,505,505,505,505,505,505,505,505,505,505,505,505,505,505,505,505,505,505,505,505,505,505,505,505,505,505,505,505,505,505,505,505,505,505,505,505,505,505,505,505,505,505,505,505,505,505,505,505,505,505,505,505,505,501,491,467,454,442,432,425,423,423,423,421,417,400,332,291,256,250,236,234,234,234,234,234,234,235,236,236,234,211,196,185,175,165,157,155,155,155,155,155,155,155,155,155,155,155,155,155,155,155,155,155,155,155,153,149,143,141,141,141,141,141,140,140,138,136,134,131,130,127,126,126,126,126,126,126,126,125,122,113,110,108,106,105,104,103,103,102,101,98],"timestamp_mouse":[12,37,46,66,88,106,126,146,166,186,207,226,246,266,288,307,328,346,366,387,406,426,446,466,488,507,527,547,567,587,607,627,646,667,686,707,726,748,766,787,806,826,847,867,886,906,926,948,967,986,1007,1027,1046,1066,1087,1107,1128,1147,1167,1186,1208,1227,1247,1266,1286,1307,1326,1346,1368,1387,1407,1427,1446,1467,1486,1507,1526,1546,1567,1587,1606,1626,1646,1668,1686,1706,1726,1747,1767,1786,1806,1827,1847,1866,1886,1906,1926,1947,1968,1986,2007,2027,2047,2067,2086,2106,2126,2146,2167,2187,2206,2227,2247,2267,2286,2306,2326,2347,2366,2386,2406,2426,2447,2468,2487,2507,2527,2548,2567,2586,2606,2627,2646,2667,2686,2706,2726,2747,2766,2787,2807,2827,2846,2866,2887,2906,2926,2946,2966,2987,3006,3026,3046,3066,3087,3106,3128,3146,3166,3186,3206,3227,3246,3267,3286,3306,3327,3347,3367,3386],"xSR":741.5,"ySR":469.95,"xT1":424.9,"yT1":0,"xT2":1058.1,"yT2":0,"toosoon":0,"cond_shown":"Congruent","ratio_trial":100,"L_num":15,"L_den":25,"R_num":13,"R_den":26,"correct_side":1,"subjID":"sarapereira24","gender":"1","school":"4","age":"9"},{"start_time":1552313045963,"click_time":1552313048001,"finger_time":1552313047521,"fix_duration":560.48998633163,"trial":33,"RT":1558,"MT":480,"sideResp":2,"stimulus":[],"xmouse":[801,801,801,801,801,801,801,801,801,801,801,801,801,801,801,801,801,801,801,801,801,801,801,801,801,801,801,801,801,801,801,801,801,801,801,801,801,801,801,801,801,801,801,801,801,801,801,801,801,801,801,801,801,801,801,801,801,801,801,801,801,801,801,801,801,801,801,801,801,801,801,801,801,801,802,817,837,864,898,939,997,1037,1044,1046,1047,1050,1050,1034,1009,978,945,925,921,921,921,921,926,939,973,987,1025,1071],"ymouse":[512,512,512,512,512,512,512,512,512,512,512,512,512,512,512,512,512,512,512,512,512,512,512,512,512,512,512,512,512,512,512,512,512,512,512,512,512,512,512,512,512,512,512,512,512,512,512,512,512,512,512,512,512,512,512,512,512,512,512,512,512,512,512,512,512,512,512,512,512,512,512,512,512,512,511,501,495,483,470,453,427,411,408,407,404,369,341,307,273,231,195,164,158,157,157,157,152,147,131,125,102,68],"timestamp_mouse":[17,39,58,78,97,117,139,159,178,198,217,237,259,279,298,317,338,359,379,398,417,439,458,478,499,517,538,558,579,599,618,639,658,678,698,718,737,757,779,798,817,838,858,878,897,917,938,957,978,998,1018,1037,1059,1078,1097,1118,1138,1157,1178,1197,1218,1237,1258,1278,1299,1318,1338,1357,1377,1399,1419,1439,1458,1478,1497,1519,1537,1558,1577,1598,1617,1637,1657,1677,1698,1718,1737,1758,1778,1798,1817,1837,1857,1878,1897,1918,1937,1957,1977,1998,2017,2038],"xSR":741.5,"ySR":469.95,"xT1":424.9,"yT1":0,"xT2":1058.1,"yT2":0,"toosoon":0,"cond_shown":"Congruent","ratio_trial":300,"L_num":5,"L_den":25,"R_num":6,"R_den":12,"correct_side":2,"subjID":"sarapereira24","gender":"1","school":"4","age":"9"},{"start_time":1552313050539,"click_time":1552313052401,"finger_time":1552313052060,"fix_duration":1236.5484384380936,"trial":34,"RT":1521,"MT":341,"sideResp":2,"stimulus":[],"xmouse":[789,789,789,789,789,789,789,789,789,789,789,789,789,789,789,789,789,789,789,789,789,789,789,789,789,789,789,789,789,789,789,789,789,789,789,789,789,789,789,789,789,789,789,789,789,789,789,789,789,789,789,789,789,789,789,789,789,789,789,789,789,789,789,789,789,789,789,789,789,789,789,789,789,789,807,833,864,883,907,915,922,929,938,954,962,968,979,992,1013,1023,1029,1039,1061,1122],"ymouse":[563,563,563,563,563,563,563,563,563,563,563,563,563,563,563,563,563,563,563,563,563,563,563,563,563,563,563,563,563,563,563,563,563,563,563,563,563,563,563,563,563,563,563,563,563,563,563,563,563,563,563,563,563,563,563,563,563,563,563,563,563,563,563,563,563,563,563,563,563,563,563,563,563,563,547,527,503,485,458,435,416,398,380,363,356,351,343,332,299,266,246,223,185,69],"timestamp_mouse":[9,22,47,61,82,102,121,142,162,182,202,222,243,263,282,302,322,342,361,381,401,421,443,462,481,501,522,542,562,582,603,622,642,662,681,702,723,742,761,782,801,823,841,862,881,902,923,943,961,982,1001,1022,1042,1061,1083,1101,1122,1142,1161,1181,1202,1221,1242,1261,1282,1302,1322,1343,1363,1381,1401,1421,1441,1463,1481,1502,1521,1542,1561,1581,1601,1621,1642,1661,1681,1701,1721,1743,1762,1782,1802,1822,1842,1862],"xSR":741.5,"ySR":469.95,"xT1":424.9,"yT1":0,"xT2":1058.1,"yT2":0,"toosoon":0,"cond_shown":"Congruent","ratio_trial":300,"L_num":7,"L_den":14,"R_num":20,"R_den":25,"correct_side":2,"subjID":"sarapereira24","gender":"1","school":"4","age":"9"},{"start_time":1552313067838,"click_time":1552313069121,"finger_time":1552313068580,"fix_duration":1076.64696531349,"trial":35,"RT":742,"MT":541,"sideResp":1,"stimulus":[],"xmouse":[830,830,830,830,830,830,830,830,830,830,830,830,830,830,830,830,830,830,830,830,830,830,830,830,830,830,830,830,830,830,830,830,830,830,830,829,815,754,677,566,378,321,321,321,321,321,321,321,321,321,321,321,321,321,321,321,321,321,321,316,367,378,393,417,453],"ymouse":[506,506,506,506,506,506,506,506,506,506,506,506,506,506,506,506,506,506,506,506,506,506,506,506,506,506,506,506,506,506,506,506,506,506,506,497,474,398,317,219,53,2,2,2,2,2,2,2,2,2,2,2,2,2,2,2,2,2,2,25,70,72,72,74,75],"timestamp_mouse":[13,37,42,63,82,103,128,143,162,182,203,222,243,263,282,302,323,343,363,382,403,422,443,463,482,502,523,544,563,583,602,624,642,663,682,702,723,742,762,783,803,823,842,862,883,903,923,943,963,982,1004,1022,1042,1063,1083,1102,1123,1142,1163,1183,1202,1222,1242,1263,1283],"xSR":741.5,"ySR":469.95,"xT1":424.9,"yT1":0,"xT2":1058.1,"yT2":0,"toosoon":0,"cond_shown":"Incongruent","ratio_trial":100,"L_num":8,"L_den":16,"R_num":6,"R_den":10,"correct_side":2,"subjID":"sarapereira24","gender":"1","school":"4","age":"9"},{"start_time":1552313076566,"click_time":1552313077961,"finger_time":1552313077320,"fix_duration":1044.6907433919778,"trial":36,"RT":754,"MT":641,"sideResp":1,"stimulus":[],"xmouse":[771,765,765,764,764,766,768,769,769,769,769,769,769,770,774,779,788,793,796,799,799,799,799,800,801,802,803,804,804,804,804,804,804,804,804,796,784,767,745,698,682,664,649,639,633,633,633,633,633,633,633,626,605,573,490,455,452,452,452,452,452,452,448,440,427,428,438,456,470,482],"ymouse":[521,528,528,528,528,527,527,526,526,526,526,526,526,526,526,526,526,526,526,525,525,525,525,525,524,524,523,523,523,523,523,523,522,522,516,499,481,461,435,383,363,343,324,313,307,307,307,307,307,307,307,300,280,252,173,134,131,131,130,129,126,122,116,110,104,101,101,101,101,98],"timestamp_mouse":[21,49,55,74,94,113,133,155,174,194,214,234,255,274,293,314,333,354,374,393,414,435,453,474,494,513,534,554,573,595,614,634,655,675,693,714,733,754,774,795,813,834,854,873,894,914,934,954,974,994,1013,1034,1054,1074,1094,1113,1133,1154,1174,1194,1214,1235,1253,1273,1295,1315,1334,1355,1374,1394],"xSR":741.5,"ySR":469.95,"xT1":424.9,"yT1":0,"xT2":1058.1,"yT2":0,"toosoon":0,"cond_shown":"Congruent","ratio_trial":300,"L_num":20,"L_den":25,"R_num":9,"R_den":18,"correct_side":1,"subjID":"sarapereira24","gender":"1","school":"4","age":"9"},{"start_time":1552313082014,"click_time":1552313083801,"finger_time":1552313083379,"fix_duration":251.4509442377606,"trial":37,"RT":1365,"MT":422,"sideResp":1,"stimulus":[],"xmouse":[787,787,787,798,798,798,798,799,798,797,796,795,794,791,789,788,787,786,784,784,784,784,784,783,783,783,783,782,782,782,782,781,781,781,781,781,781,781,781,781,780,778,777,777,777,777,777,777,777,777,777,777,777,777,777,777,777,777,777,777,777,777,777,777,777,777,777,777,772,758,739,704,682,628,600,576,561,548,535,533,531,531,531,531,531,531,531,531,531,522],"ymouse":[476,476,476,471,471,471,471,474,481,486,491,493,495,496,497,497,497,497,497,497,497,497,497,496,492,488,485,484,483,483,483,483,483,483,483,483,483,483,483,483,483,483,483,483,483,483,483,483,483,483,483,483,483,483,483,481,481,480,480,480,480,480,480,480,480,480,480,478,456,424,381,320,285,212,180,155,137,122,100,91,86,83,83,83,83,83,83,83,83,81],"timestamp_mouse":[12,36,46,67,86,107,125,147,165,186,206,227,246,265,285,305,325,345,365,387,406,426,447,466,485,507,525,546,567,587,605,626,647,665,687,707,727,745,766,787,805,825,847,867,885,905,927,947,966,986,1006,1026,1047,1066,1085,1107,1126,1146,1165,1186,1206,1226,1245,1265,1286,1305,1325,1345,1365,1386,1406,1427,1446,1466,1486,1506,1526,1545,1565,1586,1606,1627,1645,1665,1686,1707,1726,1747,1765,1787],"xSR":741.5,"ySR":469.95,"xT1":424.9,"yT1":0,"xT2":1058.1,"yT2":0,"toosoon":0,"cond_shown":"Incongruent","ratio_trial":300,"L_num":13,"L_den":26,"R_num":12,"R_den":15,"correct_side":2,"subjID":"sarapereira24","gender":"1","school":"4","age":"9"},{"start_time":1552313093225,"click_time":1552313095021,"finger_time":1552313094619,"fix_duration":484.07997789950474,"trial":38,"RT":1394,"MT":402,"sideResp":1,"stimulus":[],"xmouse":[815,815,815,815,815,815,815,815,815,815,815,814,812,810,810,809,809,809,807,807,807,807,807,807,807,807,807,807,807,807,807,807,807,807,807,807,807,807,807,807,807,807,807,807,807,807,807,807,807,807,807,807,807,807,807,807,807,807,807,807,807,807,807,807,807,807,806,801,784,767,735,686,621,493,434,382,371,363,359,359,359,359,359,359,360,374,387,397,418,427],"ymouse":[533,533,533,533,533,533,533,533,533,533,533,534,534,534,534,534,533,533,532,532,532,532,531,531,531,531,531,531,531,531,531,531,531,531,531,531,531,531,531,531,531,531,531,531,531,531,531,531,531,531,531,531,531,531,531,531,531,531,531,531,531,531,531,531,531,531,529,517,477,448,403,349,290,187,137,94,81,71,64,64,64,64,64,64,62,54,50,50,47,45],"timestamp_mouse":[33,35,54,75,94,115,136,155,176,195,216,234,255,275,296,316,334,355,374,395,415,434,454,476,495,515,534,554,575,594,615,636,655,674,694,716,736,755,776,796,815,834,854,876,896,916,934,956,976,995,1015,1035,1056,1074,1096,1115,1136,1154,1176,1196,1215,1235,1254,1276,1295,1314,1334,1355,1375,1394,1415,1435,1454,1475,1494,1515,1535,1555,1575,1595,1615,1635,1655,1674,1694,1715,1735,1755,1775,1796],"xSR":741.5,"ySR":469.95,"xT1":424.9,"yT1":0,"xT2":1058.1,"yT2":0,"toosoon":0,"cond_shown":"Incongruent","ratio_trial":200,"L_num":3,"L_den":10,"R_num":1,"R_den":2,"correct_side":2,"subjID":"sarapereira24","gender":"1","school":"4","age":"9"},{"start_time":1552313099070,"click_time":1552313101040,"finger_time":1552313100539,"fix_duration":1168.891870878386,"trial":39,"RT":1469,"MT":501,"sideResp":1,"stimulus":[],"xmouse":[806,806,807,808,808,808,808,808,808,808,808,808,807,807,807,807,807,807,809,810,810,810,812,812,812,812,811,810,808,807,807,807,807,807,807,807,807,807,807,807,807,807,807,807,807,807,807,807,807,807,807,807,807,807,807,807,807,807,807,807,807,807,807,807,807,807,807,808,809,811,814,816,817,815,803,777,736,621,564,516,459,433,407,399,395,389,383,383,383,383,383,387,408,417,423,424,424,424,427],"ymouse":[511,511,511,511,511,511,511,511,511,511,514,515,516,516,516,516,516,516,516,514,513,510,507,507,507,507,507,507,508,508,508,508,508,508,508,508,508,508,508,508,508,508,508,508,508,508,508,508,508,508,508,508,508,508,508,508,508,508,508,508,508,508,508,508,508,508,508,505,503,501,491,484,472,465,453,435,411,354,327,307,278,264,241,233,224,210,179,162,143,126,99,84,64,59,57,57,57,57,57],"timestamp_mouse":[10,31,61,71,90,110,129,149,171,189,209,230,249,270,289,310,329,349,370,389,409,430,449,471,491,510,529,549,570,590,609,631,650,671,690,709,729,750,771,790,810,831,850,871,890,911,931,950,971,990,1012,1030,1050,1070,1090,1111,1129,1151,1171,1191,1209,1229,1251,1271,1289,1311,1331,1350,1370,1390,1410,1430,1450,1469,1490,1510,1530,1550,1569,1590,1610,1630,1650,1670,1690,1710,1732,1749,1769,1790,1810,1829,1850,1869,1891,1911,1931,1950,1970],"xSR":741.5,"ySR":469.95,"xT1":424.9,"yT1":0,"xT2":1058.1,"yT2":0,"toosoon":0,"cond_shown":"Congruent","ratio_trial":200,"L_num":8,"L_den":15,"R_num":7,"R_den":21,"correct_side":1,"subjID":"sarapereira24","gender":"1","school":"4","age":"9"},{"start_time":1552313112633,"click_time":1552313114341,"finger_time":1552313113979,"fix_duration":591.964769680902,"trial":40,"RT":1346,"MT":362,"sideResp":1,"stimulus":[],"xmouse":[790,790,790,790,790,790,790,790,790,790,790,790,790,790,790,790,790,790,790,790,790,790,790,790,790,790,790,790,790,790,790,790,790,790,790,790,790,790,790,790,790,790,790,790,790,790,790,790,790,790,790,790,790,790,790,790,790,790,790,790,790,790,790,790,790,790,768,728,677,619,529,507,496,494,494,494,494,494,494,494,494,494,494,493,493,493],"ymouse":[514,514,514,514,514,514,514,514,514,514,514,514,514,514,514,514,514,514,514,514,514,514,514,514,514,514,514,514,514,514,514,514,514,514,514,514,514,514,514,514,514,514,514,514,514,514,514,514,514,514,514,514,514,514,514,514,514,514,514,514,514,514,514,514,514,514,489,434,358,279,153,118,104,102,102,102,102,102,102,102,102,102,102,102,100,66],"timestamp_mouse":[12,39,48,68,88,108,128,148,168,188,208,227,246,268,287,308,327,348,367,388,407,427,446,466,487,508,526,546,568,588,606,627,648,668,686,706,728,748,766,787,808,827,847,867,888,907,927,948,966,988,1007,1027,1047,1067,1088,1107,1128,1146,1168,1188,1206,1228,1248,1267,1288,1306,1328,1346,1367,1386,1407,1426,1447,1467,1487,1507,1527,1546,1567,1588,1607,1627,1646,1667,1687,1708],"xSR":741.5,"ySR":469.95,"xT1":424.9,"yT1":0,"xT2":1058.1,"yT2":0,"toosoon":0,"cond_shown":"Incongruent","ratio_trial":100,"L_num":13,"L_den":26,"R_num":6,"R_den":10,"correct_side":2,"subjID":"sarapereira24","gender":"1","school":"4","age":"9"},{"start_time":1552313120240,"click_time":1552313131381,"finger_time":1552313124340,"fix_duration":1280.8176757380197,"trial":41,"RT":4100,"MT":7041,"sideResp":2,"stimulus":[],"xmouse":[772,772,772,772,772,772,772,772,772,772,772,772,772,772,772,772,772,772,774,777,779,780,781,781,782,784,786,786,786,786,786,786,786,786,786,786,786,786,786,784,783,783,783,783,783,783,783,783,783,783,783,783,783,783,783,783,783,783,783,783,783,783,783,783,783,783,783,783,783,783,783,783,783,783,783,783,783,783,783,783,783,783,783,783,783,783,783,783,783,783,783,783,783,783,783,783,783,783,783,783,783,783,783,783,783,783,783,783,783,783,7