[{"start_time":1552054072281,"click_time":1552054116660,"finger_time":1552054072281,"fix_duration":1498.589484414721,"trial":0,"RT":0,"MT":44379,"sideResp":2,"stimulus":[],"xmouse":[1152,1152,1152,1152,1152,1152,1152,1152,1152,1152,1152,1152,1152,1152,1152,1152,1152,1152,1152,1152,1152,1152,1152,1152,1152,1152,1152,1152,1152,1152,1152,1152,1152,1152,1152,1152,1152,1152,1152,1152,1152,1152,1152,1152,1152,1152,1152,1152,1152,1152,1152,1152,1152,1152,1152,1152,1152,1152,1152,1152,1152,1152,1152,1152,1152,1152,1152,1152,1152,1152,1152,1152,1152,1152,1152,1152,1152,1152,1152,1152,1152,1152,1152,1152,1152,1152,1152,1152,1152,1152,1152,1152,1152,1152,1152,1152,1152,1152,1152,1152,1152,1152,1152,1152,1152,1152,1152,1152,1152,1152,1152,1152,1152,1152,1152,1152,1152,1152,1152,1152,1152,1152,1152,1152,1152,1152,1152,1152,1152,1152,1152,1152,1152,1152,1152,1152,1152,1152,1152,1152,1152,1152,1152,1152,1152,1152,1152,1152,1152,1152,1152,1152,1152,1152,1152,1152,1152,1152,1152,1152,1152,1152,1152,1152,1152,1152,1152,1152,1152,1152,1152,1152,1152,1152,1152,1152,1152,1152,1152,1152,1152,1152,1152,1152,1152,1152,1152,1152,1152,1152,1152,1152,1152,1152,1152,1152,1152,1152,1152,1152,1152,1152,1152,1152,1152,1152,1152,1152,1152,1152,1152,1152,1152,1152,1152,1152,1152,1152,1152,1152,1152,1152,1152,1152,1152,1152,1152,1152,1152,1152,1152,1152,1152,1152,1152,1152,1152,1152,1152,1152,1152,1152,1152,1152,1152,1152,1152,1152,1152,1152,1152,1152,1152,1152,1152,1152,1152,1152,1152,1152,1152,1152,1152,1152,1152,1152,1152,1152,1152,1152,1152,1152,1152,1152,1152,1152,1152,1152,1152,1152,1152,1152,1152,1152,1152,1152,1152,1152,1152,1152,1152,1152,1152,1152,1152,1152,1152,1152,1152,1152,1152,1152,1152,1152,1152,1152,1152,1152,1152,1152,1152,1152,1152,1152,1152,1152,1152,1152,1152,1152,1152,1152,1152,1152,1152,1152,1152,1152,1152,1152,1152,1152,1152,1152,1152,1152,1152,1152,1152,1152,1152,1152,1152,1152,1152,1152,1152,1152,1152,1152,1152,1152,1152,1152,1152,1152,1152,1152,1152,1152,1152,1152,1152,1152,1152,1152,1152,1152,1152,1152,1152,1152,1152,1152,1152,1152,1152,1152,1152,1152,1152,1152,1152,1152,1152,1152,1152,1152,1152,1152,1152,1152,1152,1152,1152,1152,1152,1152,1152,1152,1152,1152,1152,1152,1152,1152,1152,1152,1152,1152,1152,1152,1152,1152,1152,1152,1152,1152,1152,1152,1152,1152,1152,1152,1152,1152,1152,1152,1152,1152,1152,1152,1152,1152,1152,1152,1152,1152,1152,1152,1152,1152,1152,1152,1152,1152,1152,1152,1152,1152,1152,1152,1152,1152,1152,1152,1152,1152,1152,1152,1152,1152,1152,1152,1152,1152,1152,1152,1152,1152,1152,1152,1152,1152,1152,1152,1152,1152,1152,1152,1152,1152,1152,1152,1152,1152,1152,1152,1152,1152,1152,1152,1152,1152,1152,1152,1152,1152,1152,1152,1152,1152,1152,1152,1152,1152,1152,1152,1152,1152,1152,1152,1152,1152,1152,1152,1152,1152,1152,1152,1152,1152,1152,1152,1152,1152,1152,1152,1152,1152,1152,1152,1152,1152,1152,1152,1152,1152,1152,1152,1152,1152,1152,1152,1152,1152,1152,1152,1152,1152,1152,1152,1152,1152,1152,1152,1152,1152,1152,1152,1152,1152,1152,1152,1152,1152,1152,1152,1152,1152,1152,1152,1152,1152,1152,1152,1152,1152,1152,1152,1152,1152,1152,1152,1152,1152,1152,1152,1152,1152,1152,1152,1152,1152,1152,1152,1152,1152,1152,1152,1152,1152,1152,1152,1152,1152,1152,1152,1152,1152,1152,1152,1152,1152,1152,1152,1152,1152,1152,1152,1152,1152,1152,1152,1152,1152,1152,1152,1152,1152,1152,1152,1152,1152,1152,1152,1152,1152,1152,1152,1152,1152,1152,1152,1152,1152,1152,1152,1152,1152,1152,1152,1152,1152,1152,1152,1152,1152,1152,1152,1152,1152,1152,1152,1152,1152,1152,1152,1152,1152,1152,1152,1152,1152,1152,1152,1152,1152,1152,1152,1152,1152,1152,1152,1152,1152,1152,1152,1152,1152,1152,1152,1152,1152,1152,1152,1152,1152,1152,1152,1152,1152,1152,1152,1152,1152,1152,1152,1152,1152,1152,1152,1152,1152,1152,1152,1152,1152,1152,1152,1152,1152,1152,1152,1152,1152,1152,1152,1152,1152,1152,1152,1152,1152,1152,1152,1152,1152,1152,1152,1152,1152,1152,1152,1152,1152,1152,1152,1152,1152,1152,1152,1152,1152,1152,1152,1152,1152,1152,1152,1152,1152,1152,1152,1152,1152,1152,1152,1152,1152,1152,1152,1152,1152,1152,1152,1152,1152,1152,1152,1152,1152,1152,1152,1152,1152,1152,1152,1152,1152,1152,1152,1152,1152,1152,1152,1152,1152,1152,1152,1152,1152,1152,1152,1152,1152,1152,1152,1152,1152,1152,1152,1152,1152,1152,1152,1152,1152,1152,1152,1152,1152,1152,1152,1152,1152,1152,1152,1152,1152,1152,1152,1152,1152,1152,1152,1152,1152,1152,1152,1152,1152,1152,1152,1152,1152,1152,1152,1152,1152,1152,1152,1152,1152,1152,1152,1152,1152,1152,1152,1152,1152,1152,1152,1152,1152,1152,1152,1152,1152,1152,1152,1152,1152,1152,1152,1152,1152,1152,1152,1152,1152,1152,1152,1152,1152,1152,1152,1152,1152,1152,1152,1152,1152,1152,1152,1152,1152,1152,1152,1152,1152,1152,1152,1152,1152,1152,1152,1152,1152,1152,1152,1152,1152,1152,1152,1152,1152,1152,1152,1152,1152,1152,1152,1152,1152,1152,1152,1152,1152,1152,1152,1152,1152,1152,1152,1152,1152,1152,1152,1152,1152,1152,1152,1152,1152,1152,1152,1152,1152,1152,1152,1152,1152,1152,1152,1152,1152,1152,1152,1152,1152,1152,1152,1152,1152,1152,1152,1152,1152,1152,1152,1152,1152,1152,1152,1152,1152,1152,1152,1152,1152,1152,1152,1152,1152,1152,1152,1152,1152,1152,1152,1152,1152,1152,1152,1152,1152,1152,1152,1152,1152,1152,1152,1152,1152,1152,1152,1152,1152,1152,1152,1152,1152,1152,1152,1152,1152,1152,1152,1152,1152,1152,1152,1152,1152,1152,1152,1152,1152,1152,1152,1152,1152,1152,1152,1152,1152,1152,1152,1152,1152,1152,1152,1152,1152,1152,1152,1152,1152,1152,1152,1152,1152,1152,1152,1152,1152,1152,1152,1152,1152,1152,1152,1152,1152,1152,1152,1152,1152,1152,1152,1152,1152,1152,1152,1152,1152,1152,1152,1152,1152,1152,1152,1152,1152,1152,1152,1152,1152,1152,1152,1152,1152,1152,1152,1152,1152,1152,1152,1152,1152,1152,1152,1152,1152,1152,1152,1152,1152,1152,1152,1152,1152,1152,1152,1152,1152,1152,1152,1152,1152,1152,1152,1152,1152,1152,1152,1152,1152,1152,1152,1152,1152,1152,1152,1152,1152,1152,1152,1152,1152,1152,1152,1152,1152,1152,1152,1152,1152,1152,1152,1152,1152,1152,1152,1152,1152,1152,1152,1152,1152,1152,1152,1152,1152,1152,1152,1152,1152,1152,1152,1152,1152,1152,1152,1152,1152,1152,1152,1152,1152,1152,1152,1152,1152,1152,1152,1152,1152,1152,1152,1152,1152,1152,1152,1152,1152,1152,1152,1152,1152,1152,1152,1152,1152,1152,1152,1152,1152,1152,1152,1152,1152,1152,1152,1152,1152,1152,1152,1152,1152,1152,1152,1152,1152,1152,1152,1152,1152,1152,1152,1152,1152,1152,1152,1152,1152,1152,1152,1152,1152,1152,1152,1152,1152,1152,1152,1152,1152,1152,1152,1152,1152,1152,1152,1152,1152,1152,1152,1152,1152,1152,1152,1152,1152,1152,1152,1152,1152,1152,1152,1152,1152,1152,1152,1152,1152,1152,1152,1152,1152,1152,1152,1152,1152,1152,1152,1152,1152,1152,1152,1152,1152,1152,1152,1152,1152,1152,1152,1152,1152,1152,1152,1152,1152,1152,1152,1152,1152,1152,1152,1152,1152,1152,1152,1152,1152,1152,1152,1152,1152,1152,1152,1152,1152,1152,1152,1152,1152,1152,1152,1152,1152,1152,1152,1152,1152,1152,1152,1152,1152,1152,1152,1152,1152,1152,1152,1152,1152,1152,1152,1152,1152,1152,1152,1152,1152,1152,1152,1152,1152,1152,1152,1152,1152,1152,1152,1152,1152,1152,1152,1152,1152,1152,1152,1152,1152,1152,1152,1152,1152,1152,1152,1152,1152,1152,1152,1152,1152,1152,1152,1152,1152,1152,1152,1152,1152,1152,1152,1152,1152,1152,1152,1152,1152,1152,1152,1152,1152,1152,1152,1152,1152,1152,1152,1152,1152,1152,1152,1152,1152,1152,1152,1152,1152,1152,1152,1152,1152,1152,1152,1152,1152,1152,1152,1152,1152,1152,1152,1152,1152,1152,1152,1152,1152,1152,1152,1152,1152,1152,1152,1152,1152,1152,1152,1152,1152,1152,1152,1152,1152,1152,1152,1152,1152,1152,1152,1152,1152,1152,1152,1152,1152,1152,1152,1152,1152,1152,1152,1152,1152,1152,1152,1152,1152,1152,1152,1152,1152,1152,1152,1152,1152,1152,1152,1152,1152,1152,1152,1152,1152,1152,1152,1152,1152,1152,1152,1152,1152,1152,1152,1152,1152,1152,1152,1152,1152,1152,1152,1152,1152,1152,1152,1152,1152,1152,1152,1152,1152,1152,1152,1152,1152,1152,1152,1152,1152,1152,1152,1152,1152,1152,1152,1152,1152,1152,1152,1152,1152,1152,1152,1152,1152,1152,1152,1152,1152,1152,1152,1152,1152,1152,1152,1152,1152,1152,1152,1152,1152,1152,1152,1152,1152,1152,1152,1152,1152,1152,1152,1152,1152,1152,1152,1152,1152,1152,1152,1152,1152,1152,1152,1152,1152,1152,1152,1152,1152,1152,1152,1152,1152,1152,1152,1152,1152,1152,1152,1152,1152,1152,1152,1152,1152,1152,1152,1152,1152,1152,1152,1152,1152,1152,1152,1152,1152,1152,1152,1152,1152,1152,1152,1152,1152,1152,1152,1152,1152,1152,1152,1152,1152,1152,1152,1152,1152,1152,1152,1152,1152,1152,1152,1152,1152,1152,1152,1152,1152,1152,1152,1152,1152,1152,1152,1152,1152,1152,1152,1152,1152,1152,1152,1152,1152,1152,1152,1152,1152,1152,1152,1152,1152,1152,1152,1152,1152,1152,1152,1152,1152,1152,1152,1152,1152,1152,1152,1152,1152,1152,1152,1152,1152,1152,1152,1152,1152,1152,1152,1152,1152,1152,1152,1152,1152,1152,1152,1152,1152,1152,1152,1152,1152,1152,1152,1152,1152,1152,1152,1152,1152,1152,1152,1152,1152,1152,1152,1152,1152,1152,1152,1152,1152,1152,1152,1152,1152,1152,1152,1152,1152,1152,1152,1152,1152,1152,1152,1152,1152,1152,1152,1152,1152,1152,1152,1152,1152,1152,1152,1152,1152,1152,1152,1152,1152,1152,1152,1152,1152,1152,1152,1152,1152,1152,1152,1152,1152,1152,1152,1152,1152,1152,1152,1152,1152,1152,1152,1152,1152,1152,1152,1152,1152,1152,1152,1152,1152,1152,1152,1152,1152,1152,1152,1152,1152,1152,1152,1152,1152,1152,1152,1152,1152,1152,1152,1152,1152,1152,1152,1152,1152,1152,1152,1152,1152,1152,1152,1152,1152,1152,1152,1152,1152,1152,1152,1152,1152,1152,1152,1152,1152,1152,1152,1152,1152,1152,1152,1152,1152,1152,1152,1152,1152,1152,1152,1152,1152,1152,1152,1152,1152,1152,1152,1152,1152,1152,1152,1152,1152,1152,1152,1152,1152,1152,1152,1152,1152,1152,1152,1152,1152,1152,1152,1152,1152,1152,1152,1152,1152,1152,1152,1152,1152,1152,1152,1152,1152,1152,1152,1152,1152,1152,1152,1152,1152,1152,1152,1152,1152,1152,1152,1152,1152,1152,1152,1152,1152,1152,1152,1152,1152,1152,1152,1152,1152,1152,1152,1152,1152,1152,1152,1152,1152,1152,1152,1152,1152,1152,1152,1152,1152,1152,1152,1152,1152,1152,1152,1152,1152,1152,1152,1152,1152,1152,1152,1152,1152,1152,1152,1152,1152,1152,1152,1152,1152,1152,1152,1152,1152,1152,1152,1152,1152,1152,1152,1152,1152,1152,1152,1152,1152,1152,1152,1152,1152,1152,1152,1152,1152,1152,1152,1152,1152,1152,1152,1152,1152,1152,1152,1152,1152,1152,1152,1152,1152,1152,1152,1152,1152,1152,1152,1152,1152,1152,1152,1152,1152,1152,1152,1152,1152,1152,1152,1152,1152,1152,1152,1152,1152,1152,1152,1152,1152,1152,1152,1152,1152,1152,1152,1152,1152,1152,1152,1152,1152,1152,1152,1152,1152,1152,1152,1152,1152,1152,1152,1152,1152,1152,1152,1152,1152,1152,1152,1152,1152,1152,1152,1152,1152,1152,1152,1152,1152,1152,1152,1152,1152,1152,1152,1152,1152,1152,1152,1152,1152,1152,1152,1152,1152,1152,1152,1152,1152,1152,1152,1152,1152,1152,1152,1152,1152,1152,1152,1152,1152,1152,1152,1152,1152,1152,1152,1152,1152,1152,1152,1152,1152,1152,1152,1152,1152,1152,1152,1152,1152,1152,1152,1152,1152,1152,1152,1152,1152,1152,1152,1152,1152,1152,1152,1152,1152,1152,1152,1152,1152,1152,1152,1152,1152,1152,1152,1152,1152,1152,1152,1152,1152,1152,1152,1152,1152,1152,1152,1152,1152,1152,1152,1152,1152,1152,1152,1152,1152,1152,1152,1152,1152,1152,1152,1152,1152,1156,1195,1184,1172,1167,1167,1167,1167,1166,1166,1161,1134,1120,1103,1094,1091,1101,1115,1120,1136,1147,1158,1175,1177,1177,1174,1169,1166,1158,1147],"ymouse":[813,813,813,813,813,813,813,813,813,813,813,813,813,813,813,813,813,813,813,813,813,813,813,813,813,813,813,813,813,813,813,813,813,813,813,813,813,813,813,813,813,813,813,813,813,813,813,813,813,813,813,813,813,813,813,813,813,813,813,813,813,813,813,813,813,813,813,813,813,813,813,813,813,813,813,813,813,813,813,813,813,813,813,813,813,813,813,813,813,813,813,813,813,813,813,813,813,813,813,813,813,813,813,813,813,813,813,813,813,813,813,813,813,813,813,813,813,813,813,813,813,813,813,813,813,813,813,813,813,813,813,813,813,813,813,813,813,813,813,813,813,813,813,813,813,813,813,813,813,813,813,813,813,813,813,813,813,813,813,813,813,813,813,813,813,813,813,813,813,813,813,813,813,813,813,813,813,813,813,813,813,813,813,813,813,813,813,813,813,813,813,813,813,813,813,813,813,813,813,813,813,813,813,813,813,813,813,813,813,813,813,813,813,813,813,813,813,813,813,813,813,813,813,813,813,813,813,813,813,813,813,813,813,813,813,813,813,813,813,813,813,813,813,813,813,813,813,813,813,813,813,813,813,813,813,813,813,813,813,813,813,813,813,813,813,813,813,813,813,813,813,813,813,813,813,813,813,813,813,813,813,813,813,813,813,813,813,813,813,813,813,813,813,813,813,813,813,813,813,813,813,813,813,813,813,813,813,813,813,813,813,813,813,813,813,813,813,813,813,813,813,813,813,813,813,813,813,813,813,813,813,813,813,813,813,813,813,813,813,813,813,813,813,813,813,813,813,813,813,813,813,813,813,813,813,813,813,813,813,813,813,813,813,813,813,813,813,813,813,813,813,813,813,813,813,813,813,813,813,813,813,813,813,813,813,813,813,813,813,813,813,813,813,813,813,813,813,813,813,813,813,813,813,813,813,813,813,813,813,813,813,813,813,813,813,813,813,813,813,813,813,813,813,813,813,813,813,813,813,813,813,813,813,813,813,813,813,813,813,813,813,813,813,813,813,813,813,813,813,813,813,813,813,813,813,813,813,813,813,813,813,813,813,813,813,813,813,813,813,813,813,813,813,813,813,813,813,813,813,813,813,813,813,813,813,813,813,813,813,813,813,813,813,813,813,813,813,813,813,813,813,813,813,813,813,813,813,813,813,813,813,813,813,813,813,813,813,813,813,813,813,813,813,813,813,813,813,813,813,813,813,813,813,813,813,813,813,813,813,813,813,813,813,813,813,813,813,813,813,813,813,813,813,813,813,813,813,813,813,813,813,813,813,813,813,813,813,813,813,813,813,813,813,813,813,813,813,813,813,813,813,813,813,813,813,813,813,813,813,813,813,813,813,813,813,813,813,813,813,813,813,813,813,813,813,813,813,813,813,813,813,813,813,813,813,813,813,813,813,813,813,813,813,813,813,813,813,813,813,813,813,813,813,813,813,813,813,813,813,813,813,813,813,813,813,813,813,813,813,813,813,813,813,813,813,813,813,813,813,813,813,813,813,813,813,813,813,813,813,813,813,813,813,813,813,813,813,813,813,813,813,813,813,813,813,813,813,813,813,813,813,813,813,813,813,813,813,813,813,813,813,813,813,813,813,813,813,813,813,813,813,813,813,813,813,813,813,813,813,813,813,813,813,813,813,813,813,813,813,813,813,813,813,813,813,813,813,813,813,813,813,813,813,813,813,813,813,813,813,813,813,813,813,813,813,813,813,813,813,813,813,813,813,813,813,813,813,813,813,813,813,813,813,813,813,813,813,813,813,813,813,813,813,813,813,813,813,813,813,813,813,813,813,813,813,813,813,813,813,813,813,813,813,813,813,813,813,813,813,813,813,813,813,813,813,813,813,813,813,813,813,813,813,813,813,813,813,813,813,813,813,813,813,813,813,813,813,813,813,813,813,813,813,813,813,813,813,813,813,813,813,813,813,813,813,813,813,813,813,813,813,813,813,813,813,813,813,813,813,813,813,813,813,813,813,813,813,813,813,813,813,813,813,813,813,813,813,813,813,813,813,813,813,813,813,813,813,813,813,813,813,813,813,813,813,813,813,813,813,813,813,813,813,813,813,813,813,813,813,813,813,813,813,813,813,813,813,813,813,813,813,813,813,813,813,813,813,813,813,813,813,813,813,813,813,813,813,813,813,813,813,813,813,813,813,813,813,813,813,813,813,813,813,813,813,813,813,813,813,813,813,813,813,813,813,813,813,813,813,813,813,813,813,813,813,813,813,813,813,813,813,813,813,813,813,813,813,813,813,813,813,813,813,813,813,813,813,813,813,813,813,813,813,813,813,813,813,813,813,813,813,813,813,813,813,813,813,813,813,813,813,813,813,813,813,813,813,813,813,813,813,813,813,813,813,813,813,813,813,813,813,813,813,813,813,813,813,813,813,813,813,813,813,813,813,813,813,813,813,813,813,813,813,813,813,813,813,813,813,813,813,813,813,813,813,813,813,813,813,813,813,813,813,813,813,813,813,813,813,813,813,813,813,813,813,813,813,813,813,813,813,813,813,813,813,813,813,813,813,813,813,813,813,813,813,813,813,813,813,813,813,813,813,813,813,813,813,813,813,813,813,813,813,813,813,813,813,813,813,813,813,813,813,813,813,813,813,813,813,813,813,813,813,813,813,813,813,813,813,813,813,813,813,813,813,813,813,813,813,813,813,813,813,813,813,813,813,813,813,813,813,813,813,813,813,813,813,813,813,813,813,813,813,813,813,813,813,813,813,813,813,813,813,813,813,813,813,813,813,813,813,813,813,813,813,813,813,813,813,813,813,813,813,813,813,813,813,813,813,813,813,813,813,813,813,813,813,813,813,813,813,813,813,813,813,813,813,813,813,813,813,813,813,813,813,813,813,813,813,813,813,813,813,813,813,813,813,813,813,813,813,813,813,813,813,813,813,813,813,813,813,813,813,813,813,813,813,813,813,813,813,813,813,813,813,813,813,813,813,813,813,813,813,813,813,813,813,813,813,813,813,813,813,813,813,813,813,813,813,813,813,813,813,813,813,813,813,813,813,813,813,813,813,813,813,813,813,813,813,813,813,813,813,813,813,813,813,813,813,813,813,813,813,813,813,813,813,813,813,813,813,813,813,813,813,813,813,813,813,813,813,813,813,813,813,813,813,813,813,813,813,813,813,813,813,813,813,813,813,813,813,813,813,813,813,813,813,813,813,813,813,813,813,813,813,813,813,813,813,813,813,813,813,813,813,813,813,813,813,813,813,813,813,813,813,813,813,813,813,813,813,813,813,813,813,813,813,813,813,813,813,813,813,813,813,813,813,813,813,813,813,813,813,813,813,813,813,813,813,813,813,813,813,813,813,813,813,813,813,813,813,813,813,813,813,813,813,813,813,813,813,813,813,813,813,813,813,813,813,813,813,813,813,813,813,813,813,813,813,813,813,813,813,813,813,813,813,813,813,813,813,813,813,813,813,813,813,813,813,813,813,813,813,813,813,813,813,813,813,813,813,813,813,813,813,813,813,813,813,813,813,813,813,813,813,813,813,813,813,813,813,813,813,813,813,813,813,813,813,813,813,813,813,813,813,813,813,813,813,813,813,813,813,813,813,813,813,813,813,813,813,813,813,813,813,813,813,813,813,813,813,813,813,813,813,813,813,813,813,813,813,813,813,813,813,813,813,813,813,813,813,813,813,813,813,813,813,813,813,813,813,813,813,813,813,813,813,813,813,813,813,813,813,813,813,813,813,813,813,813,813,813,813,813,813,813,813,813,813,813,813,813,813,813,813,813,813,813,813,813,813,813,813,813,813,813,813,813,813,813,813,813,813,813,813,813,813,813,813,813,813,813,813,813,813,813,813,813,813,813,813,813,813,813,813,813,813,813,813,813,813,813,813,813,813,813,813,813,813,813,813,813,813,813,813,813,813,813,813,813,813,813,813,813,813,813,813,813,813,813,813,813,813,813,813,813,813,813,813,813,813,813,813,813,813,813,813,813,813,813,813,813,813,813,813,813,813,813,813,813,813,813,813,813,813,813,813,813,813,813,813,813,813,813,813,813,813,813,813,813,813,813,813,813,813,813,813,813,813,813,813,813,813,813,813,813,813,813,813,813,813,813,813,813,813,813,813,813,813,813,813,813,813,813,813,813,813,813,813,813,813,813,813,813,813,813,813,813,813,813,813,813,813,813,813,813,813,813,813,813,813,813,813,813,813,813,813,813,813,813,813,813,813,813,813,813,813,813,813,813,813,813,813,813,813,813,813,813,813,813,813,813,813,813,813,813,813,813,813,813,813,813,813,813,813,813,813,813,813,813,813,813,813,813,813,813,813,813,813,813,813,813,813,813,813,813,813,813,813,813,813,813,813,813,813,813,813,813,813,813,813,813,813,813,813,813,813,813,813,813,813,813,813,813,813,813,813,813,813,813,813,813,813,813,813,813,813,813,813,813,813,813,813,813,813,813,813,813,813,813,813,813,813,813,813,813,813,813,813,813,813,813,813,813,813,813,813,813,813,813,813,813,813,813,813,813,813,813,813,813,813,813,813,813,813,813,813,813,813,813,813,813,813,813,813,813,813,813,813,813,813,813,813,813,813,813,813,813,813,813,813,813,813,813,813,813,813,813,813,813,813,813,813,813,813,813,813,813,813,813,813,813,813,813,813,813,813,813,813,813,813,813,813,813,813,813,813,813,813,813,813,813,813,813,813,813,813,813,813,813,813,813,813,813,813,813,813,813,813,813,813,813,813,813,813,813,813,813,813,813,813,813,813,813,813,813,813,813,813,813,813,813,813,813,813,813,813,813,813,813,813,813,813,813,813,813,813,813,813,813,813,813,813,813,813,813,813,813,813,813,813,813,813,813,813,813,813,813,813,813,813,813,813,813,813,813,813,813,813,813,813,813,813,813,813,813,813,813,813,813,813,813,813,813,813,813,813,813,813,813,813,813,813,813,813,813,813,813,813,813,808,713,704,703,703,703,703,703,702,691,659,566,526,483,441,399,333,295,287,262,243,223,178,159,143,130,122,114,103,92],"timestamp_mouse":[0,18,39,58,78,98,119,139,158,179,200,219,238,259,278,299,318,338,358,378,400,418,439,458,480,499,520,539,558,578,598,618,638,659,679,699,720,738,758,778,798,819,839,859,878,899,919,939,958,978,999,1019,1038,1059,1079,1098,1118,1139,1159,1179,1199,1219,1239,1259,1278,1299,1319,1338,1358,1380,1399,1419,1438,1458,1480,1499,1520,1539,1558,1578,1598,1619,1640,1659,1679,1698,1718,1738,1760,1779,1799,1820,1839,1858,1879,1899,1919,1939,1958,1979,1998,2018,2038,2058,2079,2099,2120,2140,2158,2178,2198,2218,2239,2259,2279,2298,2318,2339,2358,2378,2399,2418,2439,2458,2480,2499,2520,2538,2558,2579,2599,2618,2638,2659,2680,2699,2719,2739,2759,2778,2798,2819,2839,2859,2879,2899,2919,2940,2958,2979,2998,3018,3038,3058,3079,3099,3119,3139,3159,3179,3199,3219,3239,3259,3279,3298,3318,3339,3360,3379,3398,3418,3439,3458,3479,3499,3518,3538,3558,3578,3599,3620,3639,3659,3679,3698,3719,3738,3758,3778,3799,3819,3839,3859,3878,3899,3918,3939,3959,3978,4000,4018,4039,4058,4079,4099,4118,4139,4159,4180,4198,4219,4239,4260,4278,4298,4319,4339,4359,4379,4400,4419,4439,4459,4479,4498,4519,4539,4558,4579,4598,4618,4639,4659,4678,4699,4719,4739,4759,4778,4799,4819,4838,4858,4880,4898,4920,4938,4960,4978,4998,5019,5039,5059,5079,5099,5119,5138,5159,5179,5199,5219,5238,5258,5278,5299,5320,5338,5358,5378,5398,5420,5438,5459,5478,5500,5518,5538,5559,5578,5599,5618,5638,5660,5679,5699,5718,5738,5758,5778,5800,5819,5839,5858,5879,5898,5918,5940,5959,5978,5998,6019,6039,6058,6078,6098,6118,6139,6159,6180,6199,6220,6240,6258,6280,6300,6320,6340,6358,6379,6398,6418,6439,6458,6479,6498,6520,6539,6558,6578,6599,6619,6639,6659,6678,6698,6719,6738,6758,6778,6798,6820,6840,6858,6880,6898,6918,6938,6958,6978,6998,7019,7039,7058,7079,7099,7118,7140,7160,7178,7200,7220,7238,7258,7280,7298,7319,7339,7358,7378,7398,7419,7439,7459,7478,7499,7520,7539,7559,7579,7598,7618,7639,7659,7679,7698,7720,7739,7758,7779,7798,7820,7838,7859,7878,7899,7920,7939,7958,7979,7998,8018,8039,8058,8079,8100,8119,8139,8158,8179,8199,8219,8239,8259,8278,8298,8318,8339,8358,8379,8399,8419,8438,8459,8479,8498,8519,8539,8560,8579,8598,8618,8639,8659,8679,8699,8719,8739,8758,8778,8799,8818,8839,8859,8879,8899,8919,8938,8958,8978,8999,9018,9038,9059,9078,9098,9119,9139,9160,9179,9200,9218,9240,9259,9278,9299,9318,9339,9358,9379,9400,9420,9438,9458,9478,9499,9518,9539,9558,9580,9598,9620,9639,9659,9679,9698,9719,9738,9758,9780,9799,9820,9839,9859,9880,9899,9919,9938,9959,9979,10000,10020,10039,10059,10078,10098,10120,10140,10158,10179,10199,10219,10240,10260,10278,10300,10320,10339,10359,10378,10398,10418,10439,10458,10479,10499,10518,10538,10558,10578,10598,10620,10639,10660,10679,10700,10719,10738,10758,10778,10799,10820,10840,10859,10878,10899,10919,10940,10959,10979,10999,11019,11039,11059,11078,11098,11120,11139,11159,11178,11198,11219,11240,11259,11279,11298,11319,11339,11358,11379,11398,11419,11439,11458,11479,11498,11518,11539,11558,11578,11598,11618,11639,11659,11679,11698,11718,11738,11759,11780,11798,11820,11839,11858,11878,11898,11919,11939,11959,11979,11998,12019,12040,12059,12078,12098,12119,12139,12159,12180,12198,12219,12239,12258,12279,12300,12319,12338,12358,12379,12398,12419,12439,12459,12479,12500,12519,12540,12559,12580,12598,12620,12639,12659,12679,12698,12719,12740,12758,12779,12798,12819,12840,12859,12879,12898,12919,12939,12958,12980,12999,13019,13039,13058,13078,13099,13119,13139,13159,13179,13198,13219,13240,13258,13279,13299,13319,13338,13358,13379,13399,13419,13438,13459,13479,13498,13519,13538,13558,13578,13599,13620,13639,13659,13678,13698,13718,13739,13758,13780,13798,13819,13839,13859,13878,13899,13919,13939,13959,13979,13998,14018,14039,14058,14080,14098,14119,14139,14160,14179,14198,14218,14239,14258,14279,14300,14318,14340,14360,14379,14398,14419,14439,14458,14479,14499,14519,14539,14558,14578,14598,14619,14639,14658,14679,14699,14719,14739,14759,14780,14799,14819,14839,14858,14878,14898,14918,14940,14959,14980,14999,15019,15038,15059,15080,15099,15118,15138,15158,15179,15199,15218,15238,15258,15279,15298,15320,15339,15358,15378,15398,15420,15440,15459,15478,15499,15518,15538,15558,15579,15600,15619,15639,15659,15679,15699,15718,15740,15759,15778,15799,15818,15839,15859,15878,15900,15920,15938,15958,15979,15999,16019,16038,16058,16080,16099,16119,16139,16159,16180,16198,16218,16240,16258,16278,16300,16319,16338,16358,16379,16399,16420,16440,16459,16479,16499,16518,16538,16558,16580,16599,16620,16639,16660,16679,16698,16719,16738,16760,16779,16799,16818,16839,16858,16880,16899,16919,16939,16958,16979,16999,17020,17039,17058,17079,17098,17120,17139,17159,17180,17198,17219,17239,17259,17280,17299,17319,17338,17358,17378,17398,17419,17438,17460,17479,17499,17519,17539,17559,17580,17600,17619,17640,17659,17679,17698,17719,17739,17758,17778,17798,17820,17839,17860,17879,17898,17918,17938,17959,17979,17998,18019,18038,18061,18080,18099,18119,18138,18158,18179,18199,18218,18238,18259,18279,18299,18319,18340,18359,18378,18398,18420,18438,18458,18478,18498,18519,18539,18558,18578,18598,18619,18639,18658,18679,18699,18719,18738,18758,18778,18800,18819,18839,18858,18878,18898,18919,18939,18959,18980,18998,19019,19039,19059,19079,19098,19118,19140,19160,19178,19199,19219,19240,19258,19278,19299,19320,19339,19358,19378,19398,19418,19438,19458,19478,19498,19519,19538,19558,19578,19598,19620,19640,19659,19679,19698,19719,19738,19758,19778,19799,19820,19838,19859,19878,19898,19918,19939,19958,19978,19998,20019,20038,20058,20080,20099,20118,20139,20159,20180,20200,20218,20239,20259,20279,20299,20319,20338,20358,20379,20399,20420,20438,20458,20480,20500,20519,20539,20559,20580,20599,20618,20638,20658,20679,20699,20718,20739,20760,20779,20799,20820,20838,20858,20879,20898,20919,20939,20958,20979,20998,21018,21038,21059,21079,21099,21119,21139,21159,21178,21199,21219,21239,21258,21278,21298,21319,21338,21358,21378,21399,21418,21439,21460,21479,21498,21519,21539,21560,21578,21599,21619,21639,21658,21678,21699,21719,21739,21758,21779,21799,21819,21838,21858,21878,21898,21918,21938,21958,21979,21999,22018,22038,22060,22079,22098,22119,22139,22158,22179,22199,22218,22238,22258,22279,22299,22319,22338,22358,22378,22399,22419,22439,22458,22478,22498,22518,22538,22558,22580,22600,22619,22638,22659,22679,22699,22719,22738,22758,22778,22799,22820,22839,22858,22880,22899,22919,22939,22959,22979,23000,23018,23038,23058,23079,23099,23119,23139,23158,23180,23200,23219,23239,23258,23278,23299,23319,23338,23358,23379,23399,23419,23438,23458,23479,23499,23519,23539,23558,23578,23598,23618,23639,23659,23679,23699,23718,23739,23759,23778,23798,23818,23838,23859,23878,23898,23918,23939,23959,23978,23998,24019,24039,24059,24078,24099,24119,24140,24159,24179,24200,24218,24238,24258,24280,24299,24319,24339,24358,24379,24399,24419,24439,24460,24478,24498,24520,24540,24558,24578,24598,24618,24638,24659,24679,24699,24719,24739,24760,24778,24798,24818,24840,24860,24880,24898,24918,24938,24958,24979,24999,25019,25038,25060,25078,25098,25119,25140,25159,25180,25199,25220,25239,25258,25279,25299,25318,25338,25358,25378,25398,25418,25438,25459,25478,25499,25519,25539,25560,25578,25598,25618,25639,25658,25679,25699,25718,25739,25759,25779,25799,25820,25838,25858,25879,25898,25920,25939,25958,25979,25998,26018,26038,26059,26079,26098,26118,26138,26160,26179,26199,26219,26239,26260,26279,26299,26319,26338,26359,26378,26400,26420,26438,26458,26480,26499,26519,26539,26558,26579,26599,26619,26639,26659,26679,26700,26720,26739,26758,26779,26799,26820,26838,26860,26879,26900,26918,26939,26959,26980,27000,27018,27039,27058,27078,27098,27118,27138,27159,27179,27199,27218,27239,27258,27278,27299,27319,27339,27358,27380,27398,27420,27438,27458,27478,27500,27519,27539,27558,27578,27598,27620,27639,27659,27679,27699,27719,27738,27759,27780,27799,27819,27838,27858,27879,27899,27920,27938,27958,27978,27998,28020,28039,28059,28079,28099,28120,28138,28158,28179,28199,28219,28238,28260,28278,28298,28319,28339,28360,28379,28399,28418,28438,28458,28478,28498,28519,28539,28560,28580,28598,28618,28639,28658,28679,28698,28718,28738,28759,28780,28799,28818,28838,28859,28879,28898,28920,28939,28958,28979,28998,29019,29039,29059,29080,29098,29119,29140,29158,29179,29199,29218,29238,29259,29279,29300,29319,29338,29358,29379,29400,29418,29439,29459,29480,29500,29519,29538,29559,29579,29598,29619,29638,29658,29679,29698,29720,29739,29758,29779,29799,29819,29840,29860,29878,29898,29919,29938,29959,29979,29998,30019,30038,30058,30079,30098,30120,30139,30159,30180,30199,30219,30239,30259,30280,30298,30319,30339,30358,30378,30399,30418,30439,30458,30478,30499,30518,30539,30558,30579,30598,30620,30639,30658,30679,30698,30719,30738,30759,30778,30798,30819,30839,30859,30879,30899,30920,30939,30958,30978,30998,31019,31039,31058,31079,31099,31120,31139,31158,31178,31199,31218,31239,31258,31278,31299,31320,31338,31359,31378,31399,31418,31439,31459,31479,31499,31519,31538,31559,31579,31599,31620,31640,31658,31678,31698,31718,31738,31758,31778,31800,31820,31838,31858,31878,31899,31918,31938,31958,31978,31998,32020,32039,32059,32079,32099,32120,32138,32158,32179,32199,32220,32239,32258,32279,32298,32320,32339,32359,32378,32398,32420,32438,32458,32479,32499,32518,32538,32558,32579,32599,32618,32639,32658,32680,32699,32720,32738,32758,32779,32798,32820,32839,32859,32879,32898,32919,32939,32960,32980,32999,33020,33038,33059,33078,33100,33119,33139,33158,33180,33200,33219,33238,33259,33280,33300,33319,33339,33359,33378,33399,33419,33439,33458,33480,33499,33518,33538,33558,33578,33598,33619,33640,33658,33678,33700,33719,33739,33759,33779,33798,33819,33839,33858,33878,33898,33918,33938,33960,33978,33998,34019,34039,34058,34078,34099,34118,34138,34160,34178,34198,34220,34240,34259,34279,34299,34318,34339,34359,34379,34399,34419,34439,34459,34478,34498,34519,34539,34560,34578,34598,34619,34639,34659,34679,34700,34718,34738,34758,34778,34798,34819,34838,34858,34879,34898,34918,34938,34958,34979,34999,35020,35039,35058,35078,35098,35119,35140,35159,35179,35199,35219,35239,35260,35279,35298,35319,35340,35358,35379,35399,35418,35438,35458,35479,35499,35519,35539,35558,35578,35598,35619,35638,35660,35679,35699,35719,35738,35758,35779,35800,35820,35838,35859,35879,35898,35919,35939,35959,35978,35998,36019,36039,36058,36079,36098,36118,36138,36159,36180,36200,36218,36238,36258,36278,36299,36318,36339,36359,36379,36398,36418,36438,36459,36478,36499,36520,36538,36559,36580,36600,36619,36638,36659,36679,36699,36720,36738,36759,36779,36799,36820,36839,36858,36879,36898,36918,36939,36959,36980,36998,37019,37038,37058,37079,37100,37119,37138,37158,37179,37198,37219,37239,37259,37279,37299,37320,37340,37359,37378,37400,37420,37438,37458,37478,37500,37520,37539,37560,37578,37598,37618,37638,37659,37680,37699,37720,37738,37758,37778,37799,37818,37839,37859,37878,37899,37920,37939,37960,37979,37998,38019,38038,38059,38078,38100,38119,38139,38158,38179,38199,38220,38239,38258,38280,38298,38319,38339,38360,38379,38398,38419,38438,38458,38479,38499,38518,38538,38560,38579,38598,38619,38638,38658,38679,38699,38718,38739,38758,38778,38799,38820,38838,38860,38879,38898,38919,38939,38959,38979,38999,39020,39039,39060,39078,39098,39118,39140,39159,39180,39198,39219,39238,39258,39279,39300,39320,39338,39359,39380,39399,39420,39439,39459,39480,39499,39518,39538,39560,39579,39599,39619,39638,39658,39679,39700,39720,39739,39758,39778,39798,39818,39838,39859,39879,39898,39918,39938,39959,39978,39999,40019,40038,40058,40078,40100,40119,40139,40158,40179,40198,40219,40239,40260,40278,40299,40318,40338,40358,40378,40398,40418,40438,40458,40479,40498,40519,40539,40558,40578,40598,40620,40639,40659,40679,40699,40718,40738,40758,40779,40800,40818,40838,40860,40878,40899,40920,40938,40958,40978,40998,41019,41039,41058,41079,41098,41119,41140,41159,41178,41199,41220,41239,41258,41280,41298,41318,41338,41358,41378,41398,41418,41438,41458,41478,41499,41519,41540,41560,41578,41599,41619,41639,41659,41678,41699,41720,41738,41758,41778,41799,41819,41838,41860,41879,41899,41918,41939,41959,41979,41999,42018,42038,42058,42080,42098,42118,42138,42158,42179,42198,42219,42239,42260,42279,42299,42319,42340,42359,42379,42398,42419,42439,42458,42479,42499,42520,42540,42559,42579,42599,42620,42638,42658,42679,42700,42720,42739,42759,42780,42799,42820,42838,42859,42879,42899,42919,42939,42958,42979,42999,43019,43038,43058,43078,43100,43119,43139,43159,43178,43199,43219,43238,43258,43278,43298,43319,43338,43360,43379,43399,43419,43438,43458,43479,43499,43518,43538,43558,43578,43598,43620,43640,43658,43678,43699,43719,43739,43759,43779,43800,43818,43838,43859,43878,43898,43918,43939,43958,43979,43999,44018,44038,44059,44079,44098,44118,44138,44158,44178,44199,44218,44238,44259,44279,44298,44319,44338,44359,44379],"xSR":741.5,"ySR":501.8,"xT1":424.9,"yT1":0,"xT2":1058.1,"yT2":0,"toosoon":0,"cond_shown":"Congruent","ratio_trial":200,"L_num":3,"L_den":10,"R_num":11,"R_den":22,"correct_side":2,"subjID":"ZharifSujeyRinconMaza","gender":"1","age":"9","school":"4","test":{"fix_dur":[250,1500],"timestim":1000,"targets_dim":[100,100],"targets_relative_coord":[0.3,0.7],"size_stim":[880,420],"start_dim":[100,100],"size_start":[300,300],"size_fix":60,"samplingrate":20,"img_types":["Congruent","Incongruent"],"ratios":[100,200,300],"rep_conds":19,"nTrials":120,"trials_to_rest":500,"Trials_order":[38,57,23,79,42,67,48,24,1,113,59,93,20,39,63,81,8,3,19,56,36,92,94,46,61,74,106,58,25,116,18,88,44,64,77,49,72,34,99,7,102,4,6,28,87,47,73,43,83,33,45,2,9,66,22,71,68,105,104,21,101,51,12,96,17,119,107,76,85,16,115,54,90,27,82,11,50,103,15,110,69,98,100,89,26,41,62,78,29,60,37,86,32,31,112,52,13,5,75,0,70,114,14,35,91,108,111,53,65,30,109,80,84,97,118,95,117,40,55,10],"cond_shown":["Congruent","Incongruent","Incongruent","Incongruent","Congruent","Incongruent","Congruent","Congruent","Incongruent","Incongruent","Incongruent","Incongruent","Congruent","Incongruent","Incongruent","Incongruent","Congruent","Incongruent","Incongruent","Congruent","Congruent","Congruent","Congruent","Congruent","Incongruent","Congruent","Congruent","Congruent","Incongruent","Congruent","Congruent","Congruent","Congruent","Congruent","Incongruent","Incongruent","Congruent","Congruent","Incongruent","Incongruent","Congruent","Congruent","Congruent","Congruent","Incongruent","Incongruent","Incongruent","Incongruent","Incongruent","Incongruent","Incongruent","Congruent","Incongruent","Congruent","Congruent","Incongruent","Congruent","Incongruent","Congruent","Incongruent","Incongruent","Incongruent","Congruent","Congruent","Incongruent","Incongruent","Incongruent","Congruent","Incongruent","Congruent","Incongruent","Congruent","Congruent","Incongruent","Congruent","Incongruent","Congruent","Incongruent","Incongruent","Congruent","Incongruent","Congruent","Congruent","Incongruent","Congruent","Incongruent","Congruent","Congruent","Incongruent","Congruent","Incongruent","Congruent","Congruent","Incongruent","Congruent","Congruent","Incongruent","Incongruent","Incongruent","Congruent","Congruent","Congruent","Congruent","Incongruent","Incongruent","Congruent","Incongruent","Incongruent","Incongruent","Congruent","Incongruent","Congruent","Congruent","Incongruent","Congruent","Incongruent","Incongruent","Congruent","Incongruent","Congruent"],"ratio_trial":[200,200,300,100,100,100,100,100,100,300,300,200,200,200,200,200,200,200,100,200,100,200,300,300,100,200,300,300,100,200,100,300,200,300,300,100,100,300,200,100,100,300,100,300,200,300,100,100,300,200,200,200,200,100,300,300,200,200,200,200,300,200,100,100,300,300,300,300,100,300,100,100,100,200,300,300,200,100,200,200,200,200,300,300,200,300,200,100,300,100,100,200,200,100,300,300,100,300,200,100,300,100,200,300,100,100,200,300,300,100,100,200,100,100,300,300,200,300,100,300],"left_num":[3,1,4,8,3,3,9,9,3,13,4,7,16,11,7,4,8,1,12,11,11,12,2,20,12,16,1,20,8,16,4,7,3,1,8,8,8,8,7,13,11,18,8,3,1,13,3,9,3,7,3,3,1,1,3,4,6,7,12,7,1,7,9,1,13,13,8,1,8,3,1,6,2,7,20,4,9,6,14,8,3,11,11,8,21,4,9,11,4,2,6,15,6,3,11,1,12,4,4,6,4,8,20,13,9,4,11,13,3,15,8,5,8,12,11,4,1,5,17,1],"right_num":[11,2,8,1,4,4,8,8,7,12,2,14,9,3,6,14,2,2,9,3,6,6,10,13,9,12,3,9,1,12,6,20,9,8,9,6,2,10,4,6,6,9,2,4,3,12,7,13,4,12,1,14,2,3,11,2,11,12,6,8,2,8,8,18,12,12,9,7,6,11,8,15,6,6,8,2,13,11,6,7,1,3,2,9,2,2,4,4,2,11,3,4,7,7,1,11,9,2,1,5,13,2,9,12,14,15,3,12,4,13,6,14,2,2,2,2,3,6,10,19],"left_den":[10,3,5,20,20,6,15,15,9,26,20,10,30,20,15,6,15,3,24,22,22,20,20,25,24,20,5,25,20,20,8,14,12,30,10,16,16,15,15,26,22,20,16,6,2,26,9,15,6,10,10,10,3,2,12,20,20,10,15,10,2,10,15,2,26,26,10,20,16,12,2,12,5,15,25,20,30,10,30,15,10,22,22,10,30,20,20,22,20,5,12,25,12,9,22,5,24,20,30,20,20,16,25,26,15,10,20,26,6,25,16,10,16,30,22,20,2,25,30,3],"right_den":[22,15,16,2,16,10,16,16,30,15,4,28,27,4,9,30,6,15,15,10,15,15,25,26,15,20,6,18,2,20,10,25,20,24,18,10,5,12,6,10,15,15,5,5,10,15,30,26,20,24,2,28,15,5,20,4,22,24,10,16,10,16,16,30,15,15,18,20,10,20,20,25,12,9,16,4,26,22,9,21,2,10,10,18,4,4,16,10,4,22,5,10,10,30,5,22,15,4,3,25,26,5,15,15,28,30,4,15,20,26,10,20,5,4,10,4,10,12,15,30],"correct_side":[2,1,1,2,2,1,1,1,1,2,2,1,1,2,2,1,1,1,2,1,1,1,2,1,2,1,2,1,2,1,2,2,2,2,1,2,1,2,2,2,1,1,1,2,1,2,1,1,1,1,2,2,1,2,2,2,2,1,1,1,1,1,1,2,2,2,1,2,2,2,1,2,2,2,1,2,2,1,2,1,2,1,1,1,1,2,1,1,2,2,2,1,2,1,1,2,2,2,2,1,2,1,1,2,1,2,2,2,1,1,2,2,1,2,1,2,1,2,2,2],"img_shown":["img2/200/Congruent/R/C_Dist_200_LN_3_LD_10_RN_11_RD_22_1.png","img2/200/Incongruent/L/I_Dist_200_LN_1_LD_3_RN_2_RD_15_0.png","img2/300/Incongruent/L/I_Dist_300_LN_4_LD_5_RN_8_RD_16_0.png","img2/100/Incongruent/R/I_Dist_100_LN_8_LD_20_RN_1_RD_2_1.png","img2/100/Congruent/R/C_Dist_100_LN_3_LD_20_RN_4_RD_16_1.png","img2/100/Incongruent/L/I_Dist_100_LN_3_LD_6_RN_4_RD_10_0.png","img2/100/Congruent/L/C_Dist_100_LN_9_LD_15_RN_8_RD_16_0.png","img2/100/Congruent/L/C_Dist_100_LN_9_LD_15_RN_8_RD_16_0.png","img2/100/Incongruent/L/I_Dist_100_LN_3_LD_9_RN_7_RD_30_0.png","img2/300/Incongruent/R/I_Dist_300_LN_13_LD_26_RN_12_RD_15_1.png","img2/300/Incongruent/R/I_Dist_300_LN_4_LD_20_RN_2_RD_4_1.png","img2/200/Incongruent/L/I_Dist_200_LN_7_LD_10_RN_14_RD_28_0.png","img2/200/Congruent/L/C_Dist_200_LN_16_LD_30_RN_9_RD_27_0.png","img2/200/Incongruent/R/I_Dist_200_LN_11_LD_20_RN_3_RD_4_1.png","img2/200/Incongruent/R/I_Dist_200_LN_7_LD_15_RN_6_RD_9_1.png","img2/200/Incongruent/L/I_Dist_200_LN_4_LD_6_RN_14_RD_30_0.png","img2/200/Congruent/L/C_Dist_200_LN_8_LD_15_RN_2_RD_6_0.png","img2/200/Incongruent/L/I_Dist_200_LN_1_LD_3_RN_2_RD_15_0.png","img2/100/Incongruent/R/I_Dist_100_LN_12_LD_24_RN_9_RD_15_1.png","img2/200/Congruent/L/C_Dist_200_LN_11_LD_22_RN_3_RD_10_0.png","img2/100/Congruent/L/C_Dist_100_LN_11_LD_22_RN_6_RD_15_0.png","img2/200/Congruent/L/C_Dist_200_LN_12_LD_20_RN_6_RD_15_0.png","img2/300/Congruent/R/C_Dist_300_LN_2_LD_20_RN_10_RD_25_1.png","img2/300/Congruent/L/C_Dist_300_LN_20_LD_25_RN_13_RD_26_0.png","img2/100/Incongruent/R/I_Dist_100_LN_12_LD_24_RN_9_RD_15_1.png","img2/200/Congruent/L/C_Dist_200_LN_16_LD_20_RN_12_RD_20_0.png","img2/300/Congruent/R/C_Dist_300_LN_1_LD_5_RN_3_RD_6_1.png","img2/300/Congruent/L/C_Dist_300_LN_20_LD_25_RN_9_RD_18_0.png","img2/100/Incongruent/R/I_Dist_100_LN_8_LD_20_RN_1_RD_2_1.png","img2/200/Congruent/L/C_Dist_200_LN_16_LD_20_RN_12_RD_20_0.png","img2/100/Congruent/R/C_Dist_100_LN_4_LD_8_RN_6_RD_10_1.png","img2/300/Congruent/R/C_Dist_300_LN_7_LD_14_RN_20_RD_25_1.png","img2/200/Congruent/R/C_Dist_200_LN_3_LD_12_RN_9_RD_20_1.png","img2/300/Congruent/R/C_Dist_300_LN_1_LD_30_RN_8_RD_24_1.png","img2/300/Incongruent/L/I_Dist_300_LN_8_LD_10_RN_9_RD_18_0.png","img2/100/Incongruent/R/I_Dist_100_LN_8_LD_16_RN_6_RD_10_1.png","img2/100/Congruent/L/C_Dist_100_LN_8_LD_16_RN_2_RD_5_0.png","img2/300/Congruent/R/C_Dist_300_LN_8_LD_15_RN_10_RD_12_1.png","img2/200/Incongruent/R/I_Dist_200_LN_7_LD_15_RN_4_RD_6_1.png","img2/100/Incongruent/R/I_Dist_100_LN_13_LD_26_RN_6_RD_10_1.png","img2/100/Congruent/L/C_Dist_100_LN_11_LD_22_RN_6_RD_15_0.png","img2/300/Congruent/L/C_Dist_300_LN_18_LD_20_RN_9_RD_15_0.png","img2/100/Congruent/L/C_Dist_100_LN_8_LD_16_RN_2_RD_5_0.png","img2/300/Congruent/R/C_Dist_300_LN_3_LD_6_RN_4_RD_5_1.png","img2/200/Incongruent/L/I_Dist_200_LN_1_LD_2_RN_3_RD_10_0.png","img2/300/Incongruent/R/I_Dist_300_LN_13_LD_26_RN_12_RD_15_1.png","img2/100/Incongruent/L/I_Dist_100_LN_3_LD_9_RN_7_RD_30_0.png","img2/100/Incongruent/L/I_Dist_100_LN_9_LD_15_RN_13_RD_26_0.png","img2/300/Incongruent/L/I_Dist_300_LN_3_LD_6_RN_4_RD_20_0.png","img2/200/Incongruent/L/I_Dist_200_LN_7_LD_10_RN_12_RD_24_0.png","img2/200/Incongruent/R/I_Dist_200_LN_3_LD_10_RN_1_RD_2_1.png","img2/200/Congruent/R/C_Dist_200_LN_3_LD_10_RN_14_RD_28_1.png","img2/200/Incongruent/L/I_Dist_200_LN_1_LD_3_RN_2_RD_15_0.png","img2/100/Congruent/R/C_Dist_100_LN_1_LD_2_RN_3_RD_5_1.png","img2/300/Congruent/R/C_Dist_300_LN_3_LD_12_RN_11_RD_20_1.png","img2/300/Incongruent/R/I_Dist_300_LN_4_LD_20_RN_2_RD_4_1.png","img2/200/Congruent/R/C_Dist_200_LN_6_LD_20_RN_11_RD_22_1.png","img2/200/Incongruent/L/I_Dist_200_LN_7_LD_10_RN_12_RD_24_0.png","img2/200/Congruent/L/C_Dist_200_LN_12_LD_15_RN_6_RD_10_0.png","img2/200/Incongruent/L/I_Dist_200_LN_7_LD_10_RN_8_RD_16_0.png","img2/300/Incongruent/L/I_Dist_300_LN_1_LD_2_RN_2_RD_10_0.png","img2/200/Incongruent/L/I_Dist_200_LN_7_LD_10_RN_8_RD_16_0.png","img2/100/Congruent/L/C_Dist_100_LN_9_LD_15_RN_8_RD_16_0.png","img2/100/Congruent/R/C_Dist_100_LN_1_LD_2_RN_18_RD_30_1.png","img2/300/Incongruent/R/I_Dist_300_LN_13_LD_26_RN_12_RD_15_1.png","img2/300/Incongruent/R/I_Dist_300_LN_13_LD_26_RN_12_RD_15_1.png","img2/300/Incongruent/L/I_Dist_300_LN_8_LD_10_RN_9_RD_18_0.png","img2/300/Congruent/R/C_Dist_300_LN_1_LD_20_RN_7_RD_20_1.png","img2/100/Incongruent/R/I_Dist_100_LN_8_LD_16_RN_6_RD_10_1.png","img2/300/Congruent/R/C_Dist_300_LN_3_LD_12_RN_11_RD_20_1.png","img2/100/Incongruent/L/I_Dist_100_LN_1_LD_2_RN_8_RD_20_0.png","img2/100/Congruent/R/C_Dist_100_LN_6_LD_12_RN_15_RD_25_1.png","img2/100/Congruent/R/C_Dist_100_LN_2_LD_5_RN_6_RD_12_1.png","img2/200/Incongruent/R/I_Dist_200_LN_7_LD_15_RN_6_RD_9_1.png","img2/300/Congruent/L/C_Dist_300_LN_20_LD_25_RN_8_RD_16_0.png","img2/300/Incongruent/R/I_Dist_300_LN_4_LD_20_RN_2_RD_4_1.png","img2/200/Congruent/R/C_Dist_200_LN_9_LD_30_RN_13_RD_26_1.png","img2/100/Incongruent/L/I_Dist_100_LN_6_LD_10_RN_11_RD_22_0.png","img2/200/Incongruent/R/I_Dist_200_LN_14_LD_30_RN_6_RD_9_1.png","img2/200/Congruent/L/C_Dist_200_LN_8_LD_15_RN_7_RD_21_0.png","img2/200/Incongruent/R/I_Dist_200_LN_3_LD_10_RN_1_RD_2_1.png","img2/200/Congruent/L/C_Dist_200_LN_11_LD_22_RN_3_RD_10_0.png","img2/300/Congruent/L/C_Dist_300_LN_11_LD_22_RN_2_RD_10_0.png","img2/300/Incongruent/L/I_Dist_300_LN_8_LD_10_RN_9_RD_18_0.png","img2/200/Congruent/L/C_Dist_200_LN_21_LD_30_RN_2_RD_4_0.png","img2/300/Incongruent/R/I_Dist_300_LN_4_LD_20_RN_2_RD_4_1.png","img2/200/Congruent/L/C_Dist_200_LN_9_LD_20_RN_4_RD_16_0.png","img2/100/Congruent/L/C_Dist_100_LN_11_LD_22_RN_4_RD_10_0.png","img2/300/Incongruent/R/I_Dist_300_LN_4_LD_20_RN_2_RD_4_1.png","img2/100/Congruent/R/C_Dist_100_LN_2_LD_5_RN_11_RD_22_1.png","img2/100/Incongruent/R/I_Dist_100_LN_6_LD_12_RN_3_RD_5_1.png","img2/200/Congruent/L/C_Dist_200_LN_15_LD_25_RN_4_RD_10_0.png","img2/200/Congruent/R/C_Dist_200_LN_6_LD_12_RN_7_RD_10_1.png","img2/100/Incongruent/L/I_Dist_100_LN_3_LD_9_RN_7_RD_30_0.png","img2/300/Congruent/L/C_Dist_300_LN_11_LD_22_RN_1_RD_5_0.png","img2/300/Congruent/R/C_Dist_300_LN_1_LD_5_RN_11_RD_22_1.png","img2/100/Incongruent/R/I_Dist_100_LN_12_LD_24_RN_9_RD_15_1.png","img2/300/Incongruent/R/I_Dist_300_LN_4_LD_20_RN_2_RD_4_1.png","img2/200/Incongruent/R/I_Dist_200_LN_4_LD_30_RN_1_RD_3_1.png","img2/100/Congruent/L/C_Dist_100_LN_6_LD_20_RN_5_RD_25_0.png","img2/300/Congruent/R/C_Dist_300_LN_4_LD_20_RN_13_RD_26_1.png","img2/100/Congruent/L/C_Dist_100_LN_8_LD_16_RN_2_RD_5_0.png","img2/200/Congruent/L/C_Dist_200_LN_20_LD_25_RN_9_RD_15_0.png","img2/300/Incongruent/R/I_Dist_300_LN_13_LD_26_RN_12_RD_15_1.png","img2/100/Incongruent/L/I_Dist_100_LN_9_LD_15_RN_14_RD_28_0.png","img2/100/Congruent/R/C_Dist_100_LN_4_LD_10_RN_15_RD_30_1.png","img2/200/Incongruent/R/I_Dist_200_LN_11_LD_20_RN_3_RD_4_1.png","img2/300/Incongruent/R/I_Dist_300_LN_13_LD_26_RN_12_RD_15_1.png","img2/300/Incongruent/L/I_Dist_300_LN_3_LD_6_RN_4_RD_20_0.png","img2/100/Congruent/L/C_Dist_100_LN_15_LD_25_RN_13_RD_26_0.png","img2/100/Incongruent/R/I_Dist_100_LN_8_LD_16_RN_6_RD_10_1.png","img2/200/Congruent/R/C_Dist_200_LN_5_LD_10_RN_14_RD_20_1.png","img2/100/Congruent/L/C_Dist_100_LN_8_LD_16_RN_2_RD_5_0.png","img2/100/Incongruent/R/I_Dist_100_LN_12_LD_30_RN_2_RD_4_1.png","img2/300/Congruent/L/C_Dist_300_LN_11_LD_22_RN_2_RD_10_0.png","img2/300/Incongruent/R/I_Dist_300_LN_4_LD_20_RN_2_RD_4_1.png","img2/200/Incongruent/L/I_Dist_200_LN_1_LD_2_RN_3_RD_10_0.png","img2/300/Congruent/R/C_Dist_300_LN_5_LD_25_RN_6_RD_12_1.png","img2/100/Incongruent/R/I_Dist_100_LN_17_LD_30_RN_10_RD_15_1.png","img2/300/Congruent/R/C_Dist_300_LN_1_LD_3_RN_19_RD_30_1.png"],"dist100_C":[["C_Dist_100_LN_10_LD_25_RN_3_RD_10_0.png","C_Dist_100_LN_11_LD_22_RN_4_RD_10_0.png","C_Dist_100_LN_11_LD_22_RN_6_RD_15_0.png","C_Dist_100_LN_15_LD_25_RN_13_RD_26_0.png","C_Dist_100_LN_3_LD_6_RN_2_RD_5_0.png","C_Dist_100_LN_6_LD_20_RN_5_RD_25_0.png","C_Dist_100_LN_8_LD_16_RN_2_RD_5_0.png","C_Dist_100_LN_9_LD_15_RN_8_RD_16_0.png"],["C_Dist_100_LN_1_LD_2_RN_18_RD_30_1.png","C_Dist_100_LN_1_LD_2_RN_3_RD_5_1.png","C_Dist_100_LN_12_LD_30_RN_13_RD_26_1.png","C_Dist_100_LN_2_LD_5_RN_11_RD_22_1.png","C_Dist_100_LN_2_LD_5_RN_6_RD_12_1.png","C_Dist_100_LN_3_LD_20_RN_4_RD_16_1.png","C_Dist_100_LN_4_LD_10_RN_15_RD_30_1.png","C_Dist_100_LN_4_LD_8_RN_6_RD_10_1.png","C_Dist_100_LN_6_LD_12_RN_15_RD_25_1.png","C_Dist_100_LN_7_LD_14_RN_15_RD_25_1.png","C_Dist_100_LN_7_LD_14_RN_9_RD_15_1.png"]],"dist100_I":[["I_Dist_100_LN_1_LD_2_RN_8_RD_20_0.png","I_Dist_100_LN_2_LD_4_RN_6_RD_15_0.png","I_Dist_100_LN_2_LD_4_RN_8_RD_20_0.png","I_Dist_100_LN_3_LD_5_RN_11_RD_22_0.png","I_Dist_100_LN_3_LD_5_RN_8_RD_16_0.png","I_Dist_100_LN_3_LD_6_RN_4_RD_10_0.png","I_Dist_100_LN_3_LD_9_RN_7_RD_30_0.png","I_Dist_100_LN_4_LD_8_RN_8_RD_20_0.png","I_Dist_100_LN_6_LD_10_RN_11_RD_22_0.png","I_Dist_100_LN_6_LD_10_RN_13_RD_26_0.png","I_Dist_100_LN_6_LD_10_RN_7_RD_14_0.png","I_Dist_100_LN_9_LD_10_RN_20_RD_25_0.png","I_Dist_100_LN_9_LD_15_RN_13_RD_26_0.png","I_Dist_100_LN_9_LD_15_RN_14_RD_28_0.png"],["I_Dist_100_LN_10_LD_25_RN_8_RD_16_1.png","I_Dist_100_LN_10_LD_25_RN_9_RD_18_1.png","I_Dist_100_LN_11_LD_22_RN_9_RD_15_1.png","I_Dist_100_LN_12_LD_24_RN_9_RD_15_1.png","I_Dist_100_LN_12_LD_30_RN_2_RD_4_1.png","I_Dist_100_LN_13_LD_26_RN_12_RD_20_1.png","I_Dist_100_LN_13_LD_26_RN_6_RD_10_1.png","I_Dist_100_LN_17_LD_30_RN_10_RD_15_1.png","I_Dist_100_LN_6_LD_12_RN_3_RD_5_1.png","I_Dist_100_LN_8_LD_16_RN_6_RD_10_1.png","I_Dist_100_LN_8_LD_20_RN_1_RD_2_1.png","I_Dist_100_LN_9_LD_18_RN_6_RD_10_1.png"]],"dist100_S":[["E_Dist_100_LN_2_LD_12_RN_2_RD_30_0.png","E_Dist_100_LN_6_LD_10_RN_6_RD_12_0.png"],["E_Dist_100_LN_6_LD_12_RN_6_RD_10_1.png"]],"dist200_C":[["C_Dist_200_LN_11_LD_22_RN_3_RD_10_0.png","C_Dist_200_LN_12_LD_15_RN_6_RD_10_0.png","C_Dist_200_LN_12_LD_20_RN_6_RD_15_0.png","C_Dist_200_LN_14_LD_28_RN_6_RD_20_0.png","C_Dist_200_LN_15_LD_25_RN_4_RD_10_0.png","C_Dist_200_LN_16_LD_20_RN_12_RD_20_0.png","C_Dist_200_LN_16_LD_30_RN_9_RD_27_0.png","C_Dist_200_LN_20_LD_25_RN_9_RD_15_0.png","C_Dist_200_LN_21_LD_30_RN_2_RD_4_0.png","C_Dist_200_LN_4_LD_10_RN_3_RD_15_0.png","C_Dist_200_LN_4_LD_8_RN_3_RD_10_0.png","C_Dist_200_LN_6_LD_15_RN_3_RD_15_0.png","C_Dist_200_LN_7_LD_21_RN_2_RD_15_0.png","C_Dist_200_LN_8_LD_15_RN_2_RD_6_0.png","C_Dist_200_LN_8_LD_15_RN_3_RD_9_0.png","C_Dist_200_LN_8_LD_15_RN_7_RD_21_0.png","C_Dist_200_LN_9_LD_20_RN_4_RD_16_0.png"],["C_Dist_200_LN_1_LD_2_RN_21_RD_30_1.png","C_Dist_200_LN_13_LD_26_RN_14_RD_20_1.png","C_Dist_200_LN_3_LD_10_RN_11_RD_22_1.png","C_Dist_200_LN_3_LD_10_RN_14_RD_28_1.png","C_Dist_200_LN_3_LD_10_RN_7_RD_14_1.png","C_Dist_200_LN_3_LD_12_RN_9_RD_20_1.png","C_Dist_200_LN_3_LD_6_RN_14_RD_20_1.png","C_Dist_200_LN_5_LD_10_RN_14_RD_20_1.png","C_Dist_200_LN_6_LD_12_RN_7_RD_10_1.png","C_Dist_200_LN_6_LD_20_RN_11_RD_22_1.png","C_Dist_200_LN_7_LD_15_RN_18_RD_27_1.png","C_Dist_200_LN_9_LD_30_RN_13_RD_26_1.png"]],"dist200_I":[["I_Dist_200_LN_1_LD_2_RN_3_RD_10_0.png","I_Dist_200_LN_1_LD_3_RN_2_RD_15_0.png","I_Dist_200_LN_3_LD_4_RN_11_RD_20_0.png","I_Dist_200_LN_4_LD_5_RN_6_RD_10_0.png","I_Dist_200_LN_4_LD_6_RN_14_RD_30_0.png","I_Dist_200_LN_7_LD_10_RN_12_RD_24_0.png","I_Dist_200_LN_7_LD_10_RN_14_RD_28_0.png","I_Dist_200_LN_7_LD_10_RN_8_RD_16_0.png"],["I_Dist_200_LN_11_LD_20_RN_3_RD_4_1.png","I_Dist_200_LN_14_LD_30_RN_12_RD_18_1.png","I_Dist_200_LN_14_LD_30_RN_6_RD_9_1.png","I_Dist_200_LN_3_LD_10_RN_1_RD_2_1.png","I_Dist_200_LN_4_LD_30_RN_1_RD_3_1.png","I_Dist_200_LN_6_LD_20_RN_3_RD_6_1.png","I_Dist_200_LN_7_LD_15_RN_4_RD_6_1.png","I_Dist_200_LN_7_LD_15_RN_6_RD_9_1.png","I_Dist_200_LN_9_LD_15_RN_8_RD_10_1.png"]],"dist200_S":[["E_Dist_200_LN_3_LD_6_RN_3_RD_10_0.png"],["E_Dist_200_LN_3_LD_10_RN_3_RD_6_1.png"]],"dist300_C":[["C_Dist_300_LN_11_LD_22_RN_1_RD_5_0.png","C_Dist_300_LN_11_LD_22_RN_2_RD_10_0.png","C_Dist_300_LN_11_LD_22_RN_4_RD_20_0.png","C_Dist_300_LN_12_LD_24_RN_2_RD_10_0.png","C_Dist_300_LN_18_LD_20_RN_9_RD_15_0.png","C_Dist_300_LN_20_LD_25_RN_13_RD_26_0.png","C_Dist_300_LN_20_LD_25_RN_14_RD_28_0.png","C_Dist_300_LN_20_LD_25_RN_5_RD_10_0.png","C_Dist_300_LN_20_LD_25_RN_8_RD_16_0.png","C_Dist_300_LN_20_LD_25_RN_9_RD_18_0.png","C_Dist_300_LN_24_LD_30_RN_2_RD_4_0.png","C_Dist_300_LN_24_LD_30_RN_8_RD_16_0.png","C_Dist_300_LN_3_LD_6_RN_2_RD_10_0.png","C_Dist_300_LN_4_LD_10_RN_1_RD_10_0.png","C_Dist_300_LN_4_LD_5_RN_2_RD_4_0.png","C_Dist_300_LN_8_LD_16_RN_1_RD_5_0.png","C_Dist_300_LN_9_LD_10_RN_3_RD_5_0.png"],["C_Dist_300_LN_1_LD_20_RN_7_RD_20_1.png","C_Dist_300_LN_1_LD_3_RN_19_RD_30_1.png","C_Dist_300_LN_1_LD_30_RN_8_RD_24_1.png","C_Dist_300_LN_1_LD_5_RN_11_RD_22_1.png","C_Dist_300_LN_1_LD_5_RN_3_RD_6_1.png","C_Dist_300_LN_1_LD_5_RN_6_RD_12_1.png","C_Dist_300_LN_2_LD_10_RN_12_RD_24_1.png","C_Dist_300_LN_2_LD_20_RN_10_RD_25_1.png","C_Dist_300_LN_3_LD_12_RN_11_RD_20_1.png","C_Dist_300_LN_3_LD_6_RN_4_RD_5_1.png","C_Dist_300_LN_4_LD_20_RN_13_RD_26_1.png","C_Dist_300_LN_5_LD_25_RN_6_RD_12_1.png","C_Dist_300_LN_5_LD_25_RN_7_RD_14_1.png","C_Dist_300_LN_7_LD_14_RN_20_RD_25_1.png","C_Dist_300_LN_8_LD_15_RN_10_RD_12_1.png"]],"dist300_I":[["I_Dist_300_LN_1_LD_2_RN_2_RD_10_0.png","I_Dist_300_LN_1_LD_2_RN_3_RD_15_0.png","I_Dist_300_LN_2_LD_4_RN_6_RD_30_0.png","I_Dist_300_LN_3_LD_6_RN_4_RD_20_0.png","I_Dist_300_LN_4_LD_5_RN_6_RD_12_0.png","I_Dist_300_LN_4_LD_5_RN_8_RD_16_0.png","I_Dist_300_LN_7_LD_10_RN_8_RD_20_0.png","I_Dist_300_LN_8_LD_10_RN_14_RD_28_0.png","I_Dist_300_LN_8_LD_10_RN_9_RD_18_0.png"],["I_Dist_300_LN_13_LD_26_RN_12_RD_15_1.png","I_Dist_300_LN_4_LD_20_RN_2_RD_4_1.png"]],"dist300_S":[["E_Dist_300_LN_9_LD_12_RN_9_RD_20_0.png"],["E_Dist_300_LN_18_LD_30_RN_18_RD_20_1.png","E_Dist_300_LN_3_LD_10_RN_3_RD_5_1.png","E_Dist_300_LN_9_LD_20_RN_9_RD_12_1.png"]],"dist500_C":[["C_Dist_500_LN_10_LD_13_RN_7_RD_26_0.png","C_Dist_500_LN_10_LD_15_RN_4_RD_24_0.png","C_Dist_500_LN_12_LD_16_RN_3_RD_12_0.png","C_Dist_500_LN_12_LD_18_RN_4_RD_24_0.png","C_Dist_500_LN_15_LD_18_RN_5_RD_15_0.png","C_Dist_500_LN_15_LD_20_RN_1_RD_4_0.png","C_Dist_500_LN_18_LD_27_RN_1_RD_6_0.png","C_Dist_500_LN_20_LD_24_RN_1_RD_3_0.png","C_Dist_500_LN_20_LD_24_RN_3_RD_9_0.png","C_Dist_500_LN_20_LD_24_RN_7_RD_21_0.png","C_Dist_500_LN_20_LD_28_RN_3_RD_14_0.png","C_Dist_500_LN_21_LD_28_RN_6_RD_24_0.png","C_Dist_500_LN_22_LD_28_RN_2_RD_7_0.png","C_Dist_500_LN_25_LD_30_RN_9_RD_27_0.png","C_Dist_500_LN_4_LD_6_RN_1_RD_6_0.png","C_Dist_500_LN_5_LD_6_RN_2_RD_6_0.png","C_Dist_500_LN_6_LD_9_RN_1_RD_6_0.png","C_Dist_500_LN_7_LD_10_RN_1_RD_5_0.png","C_Dist_500_LN_8_LD_12_RN_1_RD_6_0.png","C_Dist_500_LN_8_LD_12_RN_4_RD_24_0.png"],["C_Dist_500_LN_1_LD_4_RN_12_RD_16_1.png","C_Dist_500_LN_1_LD_4_RN_9_RD_12_1.png","C_Dist_500_LN_1_LD_9_RN_11_RD_18_1.png","C_Dist_500_LN_10_LD_24_RN_22_RD_24_1.png","C_Dist_500_LN_2_LD_12_RN_10_RD_15_1.png","C_Dist_500_LN_2_LD_12_RN_12_RD_18_1.png","C_Dist_500_LN_2_LD_12_RN_4_RD_6_1.png","C_Dist_500_LN_2_LD_24_RN_7_RD_12_1.png","C_Dist_500_LN_2_LD_5_RN_18_RD_20_1.png","C_Dist_500_LN_2_LD_5_RN_9_RD_10_1.png","C_Dist_500_LN_2_LD_8_RN_12_RD_16_1.png","C_Dist_500_LN_2_LD_8_RN_21_RD_28_1.png","C_Dist_500_LN_3_LD_10_RN_4_RD_5_1.png","C_Dist_500_LN_3_LD_12_RN_15_RD_20_1.png","C_Dist_500_LN_3_LD_30_RN_6_RD_10_1.png","C_Dist_500_LN_3_LD_8_RN_14_RD_16_1.png","C_Dist_500_LN_4_LD_16_RN_15_RD_20_1.png","C_Dist_500_LN_4_LD_24_RN_12_RD_18_1.png","C_Dist_500_LN_5_LD_14_RN_6_RD_7_1.png","C_Dist_500_LN_7_LD_21_RN_20_RD_24_1.png","C_Dist_500_LN_7_LD_28_RN_12_RD_16_1.png","C_Dist_500_LN_7_LD_28_RN_9_RD_12_1.png","C_Dist_500_LN_9_LD_27_RN_20_RD_24_1.png"]],"dist500_I":[["I_Dist_500_LN_2_LD_3_RN_4_RD_24_0.png","I_Dist_500_LN_5_LD_6_RN_6_RD_18_0.png","I_Dist_500_LN_7_LD_8_RN_9_RD_24_0.png"],["I_Dist_500_LN_7_LD_21_RN_5_RD_6_1.png"]],"dist500_S":[["E_Dist_500_LN_6_LD_8_RN_6_RD_24_0.png"],["E_Dist_500_LN_2_LD_12_RN_2_RD_3_1.png","E_Dist_500_LN_6_LD_24_RN_6_RD_8_1.png"]]}},{"start_time":1552054119598,"click_time":1552054122281,"finger_time":1552054121141,"fix_duration":1078.669096094636,"trial":1,"RT":1543,"MT":1140,"sideResp":1,"stimulus":[],"xmouse":[798,798,798,798,798,798,798,798,798,798,798,798,798,798,798,798,798,798,798,798,798,798,798,798,798,798,798,798,798,798,798,798,798,798,798,798,798,798,798,798,798,798,798,798,798,798,798,798,798,798,798,798,798,798,798,798,798,798,798,798,798,798,798,798,798,798,798,798,798,798,798,798,798,798,797,797,790,782,751,728,696,690,688,687,687,686,686,683,670,654,627,584,584,584,584,584,556,556,555,555,569,570,570,570,570,570,571,572,574,577,580,581,581,573,549,508,501,495,488,484,478,477,476,475,475,475,476,477,479,482,485,490,491,491,491],"ymouse":[632,632,632,632,632,632,632,632,632,632,632,632,632,632,632,632,632,632,632,632,632,632,632,632,632,632,632,632,632,632,632,632,632,632,632,632,632,632,632,632,632,632,632,632,632,632,632,632,632,632,632,632,632,632,632,632,632,632,632,632,632,632,632,632,632,632,632,632,632,632,632,632,632,632,629,620,588,562,516,486,448,440,437,432,426,419,416,411,395,375,337,246,246,246,246,246,226,226,236,256,286,288,288,288,288,288,286,277,269,260,253,248,247,230,210,182,170,155,146,141,136,134,132,130,129,129,126,124,121,118,113,105,102,100,99],"timestamp_mouse":[5,26,41,61,81,102,121,143,161,182,201,222,241,261,281,301,322,341,362,381,402,423,441,461,481,502,523,543,562,581,601,622,642,661,682,701,722,743,761,781,801,823,843,861,881,902,921,943,962,982,1001,1021,1041,1063,1081,1101,1122,1143,1162,1182,1202,1222,1243,1261,1282,1302,1321,1343,1362,1382,1401,1422,1442,1463,1481,1501,1522,1543,1561,1581,1601,1622,1643,1663,1681,1702,1722,1742,1761,1781,1801,1821,1841,1862,1882,1902,1923,1941,1962,1982,2001,2022,2041,2061,2083,2103,2122,2141,2161,2182,2201,2223,2241,2261,2281,2301,2322,2341,2362,2382,2401,2421,2441,2462,2483,2501,2521,2542,2561,2582,2601,2622,2641,2661,2683],"xSR":741.5,"ySR":573.95,"xT1":424.9,"yT1":0,"xT2":1058.1,"yT2":0,"toosoon":0,"cond_shown":"Incongruent","ratio_trial":200,"L_num":1,"L_den":3,"R_num":2,"R_den":15,"correct_side":1,"subjID":"ZharifSujeyRinconMaza","gender":"1","school":"4","age":"9"},{"start_time":1552054128411,"click_time":1552054131402,"finger_time":1552054130801,"fix_duration":668.7005375161076,"trial":2,"RT":2390,"MT":601,"sideResp":1,"stimulus":[],"xmouse":[794,794,794,794,794,794,794,794,794,794,794,794,794,794,794,794,794,794,794,794,794,794,794,794,794,794,794,794,794,794,794,794,794,794,794,794,794,794,794,794,794,794,794,794,794,794,794,794,794,794,794,794,794,794,794,794,794,794,794,794,794,794,794,794,794,794,794,794,794,794,794,794,794,794,794,794,794,794,794,794,794,794,794,794,794,794,794,794,794,794,794,794,794,794,794,794,794,794,794,794,794,795,797,799,799,799,799,799,797,791,789,789,789,788,787,787,786,785,782,773,768,762,760,760,760,759,758,755,751,740,725,719,700,693,689,689,689,689,686,677,673,667,663,660,655,648,636,612,579,514],"ymouse":[636,636,636,636,636,636,636,636,636,636,636,636,636,636,636,636,636,636,636,636,636,636,636,636,636,636,636,636,636,636,636,636,636,636,636,636,636,636,636,636,636,636,636,636,636,636,636,636,636,636,636,636,636,636,636,636,636,636,636,636,636,636,636,636,636,636,636,636,636,636,636,636,636,636,636,636,636,636,636,636,636,636,636,636,636,636,636,636,636,636,636,636,636,636,636,636,636,636,636,636,636,630,625,614,603,601,599,597,595,587,587,587,587,586,584,582,581,579,575,564,556,543,513,489,439,429,419,410,401,381,366,362,355,354,353,353,353,353,348,331,317,299,281,257,232,216,196,170,134,56],"timestamp_mouse":[12,31,52,70,90,110,131,150,170,190,211,231,251,270,290,310,332,350,371,391,411,431,450,470,491,510,530,552,571,590,610,631,651,671,690,712,731,750,771,791,812,831,852,871,891,910,932,950,971,992,1011,1031,1050,1071,1092,1111,1130,1150,1170,1190,1212,1230,1250,1270,1290,1311,1330,1351,1371,1390,1410,1431,1451,1471,1491,1511,1530,1552,1571,1590,1611,1632,1652,1670,1690,1711,1732,1752,1771,1790,1812,1832,1850,1870,1890,1912,1930,1950,1970,1990,2011,2030,2051,2070,2091,2112,2132,2150,2171,2190,2212,2230,2251,2271,2291,2310,2330,2351,2370,2390,2412,2430,2450,2471,2490,2511,2530,2550,2571,2590,2610,2631,2651,2671,2691,2710,2730,2752,2771,2791,2810,2830,2851,2871,2890,2911,2931,2951,2971,2991],"xSR":741.5,"ySR":573.95,"xT1":424.9,"yT1":0,"xT2":1058.1,"yT2":0,"toosoon":0,"cond_shown":"Incongruent","ratio_trial":300,"L_num":4,"L_den":5,"R_num":8,"R_den":16,"correct_side":1,"subjID":"ZharifSujeyRinconMaza","gender":"1","school":"4","age":"9"},{"start_time":1552054134731,"click_time":1552054138142,"finger_time":1552054136221,"fix_duration":887.9092303541435,"trial":3,"RT":1490,"MT":1921,"sideResp":2,"stimulus":[],"xmouse":[782,782,782,782,782,782,782,782,782,782,782,782,782,782,782,782,783,785,788,790,790,790,790,790,790,790,790,790,790,790,790,790,790,790,790,790,790,790,790,790,790,790,790,790,790,790,790,790,790,790,790,790,790,790,790,790,790,790,790,790,790,790,790,790,790,790,790,790,790,790,790,790,791,787,722,663,601,534,462,320,258,220,198,191,184,184,184,184,184,184,184,184,184,204,245,265,282,294,304,319,322,326,327,327,324,324,324,324,324,324,324,323,323,319,299,291,288,288,288,288,288,288,288,288,293,301,320,346,378,463,524,586,649,705,801,805,805,805,805,805,807,810,817,824,844,867,898,934,985,1099,1155,1204,1249,1296,1314,1327,1339,1348,1352,1354,1354,1354,1354,1354,1354,1353,1340,1310,1260,1169,1146],"ymouse":[632,632,632,632,632,632,632,632,632,632,632,632,632,632,632,632,632,632,633,633,633,633,633,633,633,633,633,633,633,633,633,633,633,633,633,633,633,633,633,633,633,633,633,633,633,633,633,633,633,633,633,633,633,633,633,633,633,633,633,633,633,633,633,633,633,633,633,633,633,633,633,633,633,629,583,548,521,490,452,392,369,352,342,337,331,331,331,331,331,331,331,331,330,318,300,292,283,274,266,243,235,226,219,213,204,204,204,204,204,204,204,204,204,204,210,212,213,213,213,213,213,213,216,216,253,280,317,349,376,424,446,473,503,550,630,632,633,633,633,633,633,633,635,635,623,603,574,539,491,388,333,278,215,145,101,71,41,17,0,0,0,0,0,0,0,0,0,9,28,63,69],"timestamp_mouse":[13,30,52,72,91,111,132,151,171,191,211,232,251,270,291,311,331,352,371,391,411,432,451,470,491,512,531,551,571,590,611,631,650,670,690,711,732,751,771,790,811,830,850,871,890,911,931,952,970,991,1010,1030,1050,1070,1092,1112,1132,1151,1171,1192,1211,1232,1251,1271,1291,1311,1331,1351,1370,1391,1412,1431,1450,1471,1490,1511,1531,1551,1571,1591,1611,1630,1650,1671,1691,1712,1731,1751,1770,1790,1810,1830,1851,1871,1891,1911,1931,1950,1970,1990,2011,2030,2050,2071,2091,2111,2130,2150,2171,2191,2211,2232,2251,2271,2291,2310,2330,2351,2372,2392,2412,2432,2452,2471,2490,2510,2530,2551,2571,2592,2611,2631,2652,2670,2690,2710,2730,2750,2771,2792,2812,2830,2850,2871,2891,2910,2931,2951,2970,2990,3011,3030,3051,3071,3091,3110,3130,3150,3171,3191,3210,3230,3251,3270,3292,3311,3331,3350,3370,3391,3411],"xSR":741.5,"ySR":573.95,"xT1":424.9,"yT1":0,"xT2":1058.1,"yT2":0,"toosoon":0,"cond_shown":"Incongruent","ratio_trial":100,"L_num":8,"L_den":20,"R_num":1,"R_den":2,"correct_side":2,"subjID":"ZharifSujeyRinconMaza","gender":"1","school":"4","age":"9"},{"start_time":1552054139573,"click_time":1552054142101,"finger_time":1552054141061,"fix_duration":250,"trial":4,"RT":1488,"MT":1040,"sideResp":1,"stimulus":[],"xmouse":[817,817,817,817,817,817,817,817,817,817,817,817,817,817,817,817,817,817,817,817,817,817,817,817,817,817,817,817,817,817,817,817,817,817,817,817,817,817,817,817,817,817,817,817,817,817,817,817,817,817,817,817,817,817,817,817,817,817,817,817,817,817,817,817,817,817,817,817,817,817,817,817,817,836,886,914,929,949,954,956,956,956,953,953,953,953,953,953,950,945,940,932,911,907,904,902,900,890,885,878,874,872,872,872,872,872,872,869,855,836,815,793,762,748,727,692,651,572,556,548,543,540,502,474,454,445,439],"ymouse":[653,653,653,653,653,653,653,653,653,653,653,653,653,653,653,653,653,653,653,653,653,653,653,653,653,653,653,653,653,653,653,653,653,653,653,653,653,653,653,653,653,653,653,653,653,653,653,653,653,653,653,653,653,653,653,653,653,653,653,653,653,653,653,653,653,653,653,653,653,653,653,653,653,649,613,591,574,545,532,525,522,519,516,516,516,516,516,516,516,516,516,517,531,533,536,538,539,550,559,568,574,576,576,576,576,576,576,576,566,553,538,522,494,478,451,408,360,283,267,258,251,242,178,143,123,110,96],"timestamp_mouse":[9,29,49,70,89,110,129,149,170,190,209,229,249,268,289,310,328,349,368,389,410,428,448,468,489,509,529,549,570,588,608,628,649,669,688,709,729,749,768,788,808,828,849,869,888,909,929,948,968,989,1008,1029,1050,1069,1088,1108,1128,1150,1170,1188,1208,1228,1249,1269,1290,1308,1328,1348,1368,1390,1410,1430,1448,1469,1488,1509,1529,1549,1568,1589,1609,1629,1648,1668,1689,1709,1730,1749,1769,1790,1808,1828,1848,1868,1888,1908,1929,1949,1969,1988,2008,2029,2049,2068,2088,2109,2130,2149,2169,2188,2208,2229,2248,2268,2288,2309,2328,2349,2369,2388,2408,2429,2450,2469,2490,2509,2528],"xSR":741.5,"ySR":573.95,"xT1":424.9,"yT1":0,"xT2":1058.1,"yT2":0,"toosoon":0,"cond_shown":"Congruent","ratio_trial":100,"L_num":3,"L_den":20,"R_num":4,"R_den":16,"correct_side":2,"subjID":"ZharifSujeyRinconMaza","gender":"1","school":"4","age":"9"},{"start_time":1552054144274,"click_time":1552054146922,"finger_time":1552054146221,"fix_duration":251.83253478238842,"trial":5,"RT":1947,"MT":701,"sideResp":2,"stimulus":[],"xmouse":[796,796,796,796,796,796,796,796,796,796,796,796,796,796,796,796,796,796,796,796,796,796,796,796,796,796,796,796,796,796,796,796,796,796,796,796,796,796,796,796,796,796,796,796,796,796,796,796,796,796,796,796,796,796,796,796,796,796,796,796,796,796,796,796,796,796,796,796,796,796,796,796,796,801,803,803,803,803,803,803,803,803,803,803,803,803,803,803,803,803,803,803,804,808,810,812,814,860,886,899,901,900,916,943,963,975,981,987,994,1003,1014,1027,1039,1039,1039,1039,1039,1039,1039,1039,1039,1039,1039,1039,1039,1039,1039,1039,1039,1039,1039,1042,1064],"ymouse":[646,646,646,646,646,646,646,646,646,646,646,646,646,646,646,646,646,646,646,646,646,646,646,646,646,646,646,646,646,646,646,646,646,646,646,646,646,646,646,646,646,646,646,646,646,646,646,646,646,646,646,646,646,646,646,646,646,646,646,646,646,646,646,646,646,646,646,646,646,646,646,646,646,650,651,651,651,651,651,651,651,651,651,651,651,651,651,651,651,651,651,651,653,655,655,655,653,563,504,440,399,372,251,159,86,54,44,33,25,12,0,0,0,0,0,0,0,0,0,0,0,0,0,0,0,0,0,0,0,0,0,0,6],"timestamp_mouse":[8,27,47,69,87,107,128,148,167,189,208,227,247,267,289,307,327,348,369,388,408,428,448,469,487,508,528,548,569,588,607,628,648,667,689,707,727,748,769,788,808,827,847,869,889,908,927,948,968,989,1008,1028,1047,1068,1089,1109,1128,1147,1167,1189,1209,1229,1247,1268,1289,1307,1327,1348,1367,1388,1409,1427,1448,1468,1488,1508,1528,1549,1569,1587,1608,1628,1649,1668,1687,1708,1729,1749,1768,1789,1808,1828,1847,1869,1888,1908,1927,1947,1967,1987,2007,2029,2048,2068,2088,2108,2128,2149,2167,2188,2207,2228,2247,2267,2287,2307,2327,2348,2367,2387,2407,2427,2447,2468,2488,2507,2529,2549,2567,2587,2608,2628,2648],"xSR":741.5,"ySR":573.95,"xT1":424.9,"yT1":0,"xT2":1058.1,"yT2":0,"toosoon":0,"cond_shown":"Incongruent","ratio_trial":100,"L_num":3,"L_den":6,"R_num":4,"R_den":10,"correct_side":1,"subjID":"ZharifSujeyRinconMaza","gender":"1","school":"4","age":"9"},{"start_time":1552054149657,"click_time":1552054151901,"finger_time":1552054150503,"fix_duration":973.0654976699444,"trial":6,"RT":846,"MT":1398,"sideResp":1,"stimulus":[],"xmouse":[795,793,793,793,793,793,793,793,793,793,793,793,793,793,792,792,792,792,799,801,801,801,801,801,801,801,801,801,801,801,801,801,801,801,801,801,801,801,801,801,802,802,802,802,802,789,777,775,786,789,793,800,803,803,803,803,798,796,796,795,792,789,784,784,784,784,784,784,784,784,784,784,784,784,784,784,784,784,784,784,784,784,784,784,784,784,784,784,775,774,773,773,771,738,696,637,595,574,568,568,568,568,568,568,568,566,563,560,555,549,539,527,511],"ymouse":[586,587,587,587,587,587,587,587,587,587,587,587,587,587,588,588,588,589,587,585,585,585,585,585,585,585,585,585,585,585,585,585,585,585,585,585,585,585,585,585,583,579,569,534,473,358,247,157,54,33,12,0,0,0,0,0,0,0,0,2,9,21,39,39,39,39,39,39,39,39,39,39,39,39,39,39,39,39,39,39,39,39,39,39,39,39,39,39,66,67,68,68,68,68,64,57,50,48,47,47,47,47,47,47,47,47,47,47,47,52,56,62,69],"timestamp_mouse":[5,24,45,64,86,105,124,145,165,184,204,225,246,266,285,304,325,346,366,385,405,426,444,465,485,504,526,544,565,585,606,625,644,665,684,705,725,745,765,785,805,824,846,865,885,905,925,945,964,984,1005,1024,1044,1066,1085,1104,1125,1145,1165,1184,1206,1225,1244,1265,1284,1304,1325,1346,1365,1385,1405,1425,1444,1465,1485,1505,1525,1544,1565,1585,1604,1626,1646,1664,1684,1704,1725,1745,1766,1785,1804,1825,1846,1865,1885,1904,1925,1944,1965,1985,2005,2025,2045,2064,2085,2105,2125,2145,2164,2184,2206,2224,2244],"xSR":741.5,"ySR":573.95,"xT1":424.9,"yT1":0,"xT2":1058.1,"yT2":0,"toosoon":0,"cond_shown":"Congruent","ratio_trial":100,"L_num":9,"L_den":15,"R_num":8,"R_den":16,"correct_side":1,"subjID":"ZharifSujeyRinconMaza","gender":"1","school":"4","age":"9"},{"start_time":1552054156795,"click_time":1552054159903,"finger_time":1552054159223,"fix_duration":833.5710007657955,"trial":7,"RT":2428,"MT":680,"sideResp":2,"stimulus":[],"xmouse":[801,801,801,801,801,801,801,801,801,801,801,801,801,801,801,801,801,801,801,801,801,801,801,801,801,801,801,801,801,801,801,801,801,801,801,801,801,801,801,801,801,801,801,801,801,801,801,801,801,801,801,801,801,801,801,801,801,801,801,801,801,801,801,801,801,801,801,801,801,801,801,801,801,801,801,801,801,801,801,801,801,801,801,801,801,801,801,801,801,801,801,801,801,801,801,801,801,801,801,801,801,801,801,801,801,801,801,801,801,801,801,801,801,801,801,801,801,801,801,802,811,871,907,941,974,1014,1042,1044,1044,1044,1045,1048,1051,1055,1058,1062,1066,1066,1066,1066,1066,1069,1071,1073,1077,1080,1081,1081,1081,1081,1083,1087,1093,1099,1102,1105],"ymouse":[628,628,628,628,628,628,628,628,628,628,628,628,628,628,628,628,628,628,628,628,628,628,628,628,628,628,628,628,628,628,628,628,628,628,628,628,628,628,628,628,628,628,628,628,628,628,628,628,628,628,628,628,628,628,628,628,628,628,628,628,628,628,628,628,628,628,628,628,628,628,628,628,628,628,628,628,628,628,628,628,628,628,628,628,628,628,628,628,628,628,628,628,628,628,628,628,628,628,628,628,628,628,628,628,628,628,628,628,628,628,628,628,628,628,628,628,628,628,628,625,615,565,531,490,455,415,369,358,353,344,305,270,261,249,238,219,210,207,206,205,201,193,184,173,158,148,143,141,140,139,136,125,116,107,101,94],"timestamp_mouse":[8,26,47,68,88,106,127,147,167,188,207,227,247,266,287,307,326,347,368,386,407,427,447,468,488,508,527,546,567,586,608,627,648,667,687,707,726,747,766,787,807,826,846,868,887,906,927,946,967,987,1008,1028,1047,1068,1086,1107,1126,1148,1168,1187,1207,1228,1247,1267,1286,1307,1327,1346,1367,1387,1406,1426,1446,1466,1486,1507,1527,1548,1566,1587,1607,1628,1646,1668,1687,1706,1727,1747,1768,1788,1806,1827,1847,1868,1888,1907,1927,1947,1968,1988,2006,2027,2046,2068,2087,2108,2127,2147,2167,2187,2207,2228,2248,2266,2287,2308,2328,2348,2367,2387,2406,2428,2447,2468,2486,2506,2526,2546,2567,2588,2606,2626,2647,2667,2687,2707,2727,2746,2766,2786,2807,2827,2847,2867,2887,2906,2926,2947,2967,2987,3007,3027,3046,3066,3087,3107],"xSR":741.5,"ySR":573.95,"xT1":424.9,"yT1":0,"xT2":1058.1,"yT2":0,"toosoon":0,"cond_shown":"Congruent","ratio_trial":100,"L_num":9,"L_den":15,"R_num":8,"R_den":16,"correct_side":1,"subjID":"ZharifSujeyRinconMaza","gender":"1","school":"4","age":"9"},{"start_time":1552054169886,"click_time":1552054172181,"finger_time":1552054171441,"fix_duration":1284.320211229006,"trial":8,"RT":1555,"MT":740,"sideResp":1,"stimulus":[],"xmouse":[782,782,782,782,782,782,782,782,782,782,782,782,782,782,782,782,782,782,782,782,782,782,782,782,782,782,782,782,782,782,782,782,782,782,782,781,777,777,777,776,774,773,771,771,771,771,771,771,771,771,771,771,771,771,771,771,771,771,771,771,771,771,771,771,771,771,771,771,771,771,771,771,771,771,771,770,751,739,723,703,671,587,568,548,530,510,520,558,596,621,629,616,609,604,603,602,597,594,592,588,582,568,563,556,553,552,552,552,552,550,547,541,538,532,522],"ymouse":[626,626,626,626,626,626,626,626,626,626,626,626,626,626,626,626,626,626,626,626,626,626,626,626,626,626,626,626,626,626,626,626,626,626,626,626,626,626,626,625,624,623,623,623,623,623,623,623,623,623,623,623,623,623,623,623,623,623,623,623,623,623,623,623,623,623,623,623,623,623,623,623,623,623,623,623,609,599,583,569,549,492,476,454,433,413,339,255,174,105,58,23,17,14,13,13,7,3,1,0,0,0,0,8,15,19,19,19,20,20,21,27,30,36,45],"timestamp_mouse":[15,36,56,75,95,116,135,157,177,196,215,236,256,275,295,315,336,356,375,396,416,437,456,477,495,517,536,557,575,595,616,636,657,676,696,715,736,755,777,797,816,835,855,876,896,915,937,955,975,996,1016,1037,1055,1076,1095,1115,1135,1156,1176,1195,1215,1237,1256,1276,1296,1315,1337,1356,1376,1396,1416,1436,1456,1476,1496,1516,1537,1555,1575,1595,1615,1636,1657,1675,1696,1715,1735,1756,1776,1796,1815,1835,1855,1876,1896,1916,1935,1956,1977,1997,2016,2036,2055,2075,2096,2117,2137,2156,2177,2195,2216,2235,2256,2275,2295],"xSR":741.5,"ySR":573.95,"xT1":424.9,"yT1":0,"xT2":1058.1,"yT2":0,"toosoon":0,"cond_shown":"Incongruent","ratio_trial":100,"L_num":3,"L_den":9,"R_num":7,"R_den":30,"correct_side":1,"subjID":"ZharifSujeyRinconMaza","gender":"1","school":"4","age":"9"},{"start_time":1552054174089,"click_time":1552054175722,"finger_time":1552054175322,"fix_duration":767.5182183421596,"trial":9,"RT":1233,"MT":400,"sideResp":2,"stimulus":[],"xmouse":[777,777,777,777,777,777,777,777,777,777,777,777,777,777,777,777,777,777,777,777,777,777,777,777,777,777,777,777,777,777,777,777,777,777,777,777,777,777,777,777,777,777,777,777,777,777,777,777,777,777,777,777,777,777,777,777,777,777,779,789,824,888,931,992,1042,1137,1181,1192,1194,1194,1194,1193,1193,1193,1193,1193,1186,1177,1157,1129,1095,1060],"ymouse":[613,613,613,613,613,613,613,613,613,613,613,613,613,613,613,613,613,613,613,613,613,613,613,613,613,613,613,613,613,613,613,613,613,613,613,613,613,613,613,613,613,613,613,613,613,613,613,613,613,613,613,613,613,613,613,613,613,613,614,614,604,566,536,487,440,329,250,220,201,186,181,179,179,179,179,178,169,163,151,134,111,88],"timestamp_mouse":[12,33,52,73,93,114,132,152,173,193,212,232,253,272,292,313,332,353,374,394,413,433,453,474,493,514,533,552,573,593,614,634,652,673,693,714,734,752,772,792,813,834,853,873,892,913,934,954,973,992,1013,1033,1053,1073,1093,1112,1133,1152,1172,1193,1213,1233,1252,1273,1293,1313,1332,1353,1372,1392,1413,1433,1452,1473,1493,1514,1532,1552,1573,1592,1613,1633],"xSR":741.5,"ySR":573.95,"xT1":424.9,"yT1":0,"xT2":1058.1,"yT2":0,"toosoon":0,"cond_shown":"Incongruent","ratio_trial":300,"L_num":13,"L_den":26,"R_num":12,"R_den":15,"correct_side":2,"subjID":"ZharifSujeyRinconMaza","gender":"1","school":"4","age":"9"},{"start_time":1552054177791,"click_time":1552054179622,"finger_time":1552054178841,"fix_duration":947.4366850907994,"trial":10,"RT":1050,"MT":781,"sideResp":2,"stimulus":[],"xmouse":[803,803,803,803,803,803,803,803,803,803,803,803,803,803,803,803,803,803,803,803,803,803,803,803,803,803,803,803,803,803,803,803,802,802,802,802,802,802,802,802,802,802,802,802,802,802,802,802,802,802,802,837,885,925,960,996,1003,1007,1010,1012,1012,1012,1012,1012,1012,1011,1011,1011,1011,1011,1015,1022,1024,1025,1026,1029,1029,1029,1029,1030,1030,1036,1039,1041,1041,1041,1041,1041,1041,1043,1060,1080],"ymouse":[639,639,639,639,639,639,639,639,639,639,639,639,639,639,639,639,639,639,639,639,639,639,639,639,639,639,639,639,639,639,639,639,639,639,639,639,639,639,639,639,639,639,639,639,639,639,639,639,639,639,639,620,602,578,530,458,441,426,416,408,404,403,399,394,388,373,362,347,335,317,294,232,208,188,165,125,116,113,110,109,109,107,107,107,106,106,106,106,106,106,105,98],"timestamp_mouse":[11,32,52,70,91,111,130,150,171,192,211,230,251,271,291,311,330,350,371,391,410,431,452,472,490,510,530,552,570,591,611,630,651,670,691,711,732,751,772,791,812,831,850,871,890,912,931,950,971,990,1011,1032,1050,1071,1090,1111,1132,1150,1172,1190,1211,1231,1251,1270,1292,1311,1330,1350,1371,1392,1412,1432,1450,1471,1491,1511,1530,1550,1571,1590,1610,1631,1651,1671,1692,1711,1730,1750,1770,1792,1810,1831],"xSR":741.5,"ySR":573.95,"xT1":424.9,"yT1":0,"xT2":1058.1,"yT2":0,"toosoon":0,"cond_shown":"Incongruent","ratio_trial":300,"L_num":4,"L_den":20,"R_num":2,"R_den":4,"correct_side":2,"subjID":"ZharifSujeyRinconMaza","gender":"1","school":"4","age":"9"},{"start_time":1552054183366,"click_time":1552054190183,"finger_time":1552054183882,"fix_duration":903.9542138531978,"trial":11,"RT":516,"MT":6301,"sideResp":1,"stimulus":[],"xmouse":[799,799,799,799,799,799,799,799,799,799,799,799,799,799,799,799,799,799,799,798,797,795,783,770,765,761,759,759,759,759,759,759,759,759,759,759,759,759,759,759,761,767,776,776,776,776,777,778,778,781,785,789,794,796,796,796,796,796,796,796,796,796,796,796,796,796,796,796,796,796,796,797,797,797,797,797,797,797,797,797,797,797,797,797,797,797,797,797,797,797,797,797,797,797,797,797,796,796,796,796,796,796,796,795,795,793,787,784,783,782,782,782,782,782,782,782,782,782,782,782,782,782,782,782,782,782,782,782,782,782,782,782,782,782,782,782,782,782,782,782,782,782,782,782,782,782,782,782,782,782,782,782,782,782,782,782,782,782,782,782,782,782,782,782,782,782,782,782,782,782,782,782,782,782,782,782,782,782,782,782,782,782,782,782,782,782,782,782,782,782,782,782,782,782,782,782,782,782,782,782,782,782,782,782,782,782,782,782,782,782,782,782,782,782,782,782,782,782,782,782,782,782,782,782,782,782,782,782,782,782,782,782,782,782,782,782,782,782,782,782,782,782,782,782,782,782,782,782,782,782,782,782,782,782,782,782,782,782,782,782,782,782,782,782,782,782,782,782,782,782,782,782,782,782,782,782,782,782,782,781,779,770,760,760,760,760,763,773,778,782,787,792,804,809,812,813,815,817,817,817,817,817,814,812,810,807,798,795,787,779,769,765,754,743,733,725,702,637,601,577,572,569,564,573,584,597,607,598,581,566,551,536,509,502,497,490,488,487,487,486,480],"ymouse":[644,644,644,644,644,644,644,644,644,644,644,644,644,644,644,644,644,644,644,644,644,644,646,656,665,676,685,690,690,690,690,690,690,690,690,690,691,691,691,691,691,687,683,683,683,683,683,683,683,683,683,683,683,683,683,683,683,683,683,683,683,683,683,683,683,683,683,683,683,683,683,683,683,683,683,683,683,683,683,683,683,683,683,683,683,683,683,683,683,683,683,683,683,683,683,683,683,683,683,683,683,683,683,683,671,649,629,607,601,601,601,601,601,601,601,601,601,600,600,600,600,600,600,600,600,600,600,600,600,600,600,600,600,600,600,600,600,600,600,600,600,600,600,600,600,600,600,600,600,600,600,600,600,600,600,600,600,600,600,600,600,600,600,600,600,600,600,600,600,600,600,600,600,600,600,600,600,600,600,600,600,600,600,600,600,600,600,600,600,600,600,600,600,600,600,600,600,600,600,600,600,600,600,600,600,600,600,600,600,600,600,600,600,600,600,600,600,600,600,600,600,600,600,600,600,600,600,600,600,600,600,600,600,600,600,600,600,600,600,600,600,600,600,600,600,600,600,600,600,600,600,600,600,600,600,600,600,600,600,600,600,600,600,600,600,600,600,600,600,600,600,600,600,600,600,600,600,600,600,600,601,617,658,665,666,667,668,668,668,668,667,666,659,655,652,649,646,642,641,639,637,633,628,628,627,626,622,622,621,618,610,606,587,572,561,557,541,493,467,450,444,436,373,341,301,254,134,91,60,41,28,17,0,0,0,0,0,0,0,0,8],"timestamp_mouse":[16,35,56,77,95,115,136,157,176,196,216,237,255,275,296,315,335,355,377,396,416,435,457,475,496,516,535,555,577,596,615,635,656,675,697,716,735,756,775,796,816,835,855,875,895,916,936,955,976,995,1017,1036,1056,1076,1095,1115,1135,1155,1176,1196,1217,1237,1255,1276,1295,1317,1335,1356,1375,1396,1415,1436,1456,1476,1496,1516,1536,1556,1576,1596,1616,1636,1655,1676,1695,1716,1735,1757,1776,1797,1816,1835,1856,1875,1897,1917,1935,1956,1976,1997,2015,2036,2055,2076,2096,2115,2137,2156,2176,2196,2216,2235,2255,2276,2297,2315,2337,2357,2376,2395,2416,2437,2456,2475,2497,2515,2535,2557,2575,2597,2616,2636,2657,2677,2696,2718,2736,2756,2777,2797,2816,2837,2857,2876,2896,2916,2937,2956,2977,2997,3017,3037,3056,3077,3097,3117,3136,3156,3177,3197,3218,3237,3256,3277,3296,3316,3337,3358,3378,3397,3417,3436,3458,3477,3496,3517,3536,3557,3578,3597,3618,3636,3657,3676,3696,3716,3738,3757,3777,3797,3816,3837,3858,3877,3898,3916,3936,3956,3977,3997,4018,4037,4056,4077,4097,4118,4136,4157,4176,4197,4217,4236,4256,4276,4296,4316,4337,4356,4378,4398,4416,4436,4457,4476,4497,4517,4537,4557,4577,4597,4618,4637,4657,4677,4696,4717,4737,4756,4778,4796,4816,4836,4858,4878,4898,4917,4937,4957,4977,4997,5016,5037,5058,5077,5097,5116,5137,5157,5177,5196,5217,5236,5257,5276,5297,5316,5337,5356,5377,5398,5416,5436,5458,5477,5498,5517,5537,5558,5578,5597,5617,5636,5658,5677,5696,5718,5736,5757,5778,5796,5816,5837,5857,5877,5896,5917,5937,5958,5977,5996,6017,6038,6057,6076,6096,6116,6137,6157,6176,6196,6217,6237,6257,6277,6298,6316,6338,6357,6377,6396,6416,6437,6457,6477,6497,6517,6537,6556,6577,6597,6616,6638,6657,6677,6696,6717,6737,6758,6778,6796,6817],"xSR":741.5,"ySR":573.95,"xT1":424.9,"yT1":0,"xT2":1058.1,"yT2":0,"toosoon":0,"cond_shown":"Incongruent","ratio_trial":200,"L_num":7,"L_den":10,"R_num":14,"R_den":28,"correct_side":1,"subjID":"ZharifSujeyRinconMaza","gender":"1","school":"4","age":"9"},{"start_time":1552054193051,"click_time":1552054194143,"finger_time":1552054193643,"fix_duration":707.0593226002638,"trial":12,"RT":592,"MT":500,"sideResp":2,"stimulus":[],"xmouse":[794,794,794,794,794,794,796,798,799,799,799,799,799,799,799,799,799,800,801,801,801,801,801,801,801,801,801,801,804,809,818,830,852,861,867,871,873,875,891,907,937,975,1005,1043,1056,1067,1073,1079,1093,1098,1104,1105,1105,1107,1112],"ymouse":[636,636,636,636,636,636,636,636,643,643,643,643,643,643,643,643,641,632,613,606,604,603,601,600,598,597,594,590,582,573,560,549,530,520,512,504,494,482,430,390,277,134,23,0,0,0,0,0,0,0,0,0,0,0,8],"timestamp_mouse":[11,32,53,72,91,111,132,152,172,191,211,233,253,272,292,313,332,351,372,392,411,432,452,472,492,512,533,552,573,592,612,632,652,673,691,711,731,752,773,792,811,832,852,873,893,913,932,951,972,992,1012,1032,1052,1072,1091],"xSR":741.5,"ySR":573.95,"xT1":424.9,"yT1":0,"xT2":1058.1,"yT2":0,"toosoon":0,"cond_shown":"Congruent","ratio_trial":200,"L_num":16,"L_den":30,"R_num":9,"R_den":27,"correct_side":1,"subjID":"ZharifSujeyRinconMaza","gender":"1","school":"4","age":"9"},{"start_time":1552054197602,"click_time":1552054199183,"finger_time":1552054198423,"fix_duration":359.9017460400076,"trial":13,"RT":821,"MT":760,"sideResp":2,"stimulus":[],"xmouse":[818,818,818,818,818,818,818,818,818,818,818,818,818,818,818,818,818,818,818,818,818,818,818,818,818,818,818,818,818,818,818,818,818,818,818,814,798,788,786,787,801,845,883,912,929,952,1005,1031,1059,1076,1091,1111,1123,1135,1150,1160,1174,1178,1180,1182,1183,1183,1183,1183,1183,1183,1182,1182,1182,1182,1182,1182,1182,1182,1182,1182,1182,1174,1159,1145],"ymouse":[640,640,640,640,640,640,640,640,640,640,640,640,640,640,640,640,640,640,640,640,640,640,640,640,640,640,640,640,640,640,640,640,640,640,640,638,631,629,629,627,611,578,551,527,506,478,414,382,352,330,305,269,233,211,175,152,123,110,95,79,66,49,46,45,44,44,43,43,43,43,43,43,43,43,43,43,43,43,43,45],"timestamp_mouse":[1,22,42,61,82,101,121,140,160,181,200,222,241,262,281,301,321,341,361,382,402,421,442,460,481,501,521,541,561,582,600,621,642,661,681,701,720,742,762,782,801,821,840,861,881,902,921,941,961,981,1000,1021,1040,1062,1080,1100,1121,1140,1160,1181,1201,1222,1241,1260,1280,1300,1320,1341,1361,1381,1401,1421,1440,1460,1481,1500,1521,1542,1561,1581],"xSR":741.5,"ySR":573.95,"xT1":424.9,"yT1":0,"xT2":1058.1,"yT2":0,"toosoon":0,"cond_shown":"Incongruent","ratio_trial":200,"L_num":11,"L_den":20,"R_num":3,"R_den":4,"correct_side":2,"subjID":"ZharifSujeyRinconMaza","gender":"1","school":"4","age":"9"},{"start_time":1552054209051,"click_time":1552054210422,"finger_time":1552054209583,"fix_duration":1386.582608987211,"trial":14,"RT":532,"MT":839,"sideResp":2,"stimulus":[],"xmouse":[803,803,803,803,803,803,803,803,803,803,803,803,803,803,803,803,803,803,803,803,803,803,806,817,828,839,857,880,912,935,959,977,989,1004,1009,1014,1022,1031,1055,1059,1060,1060,1060,1055,1050,1048,1046,1045,1041,1039,1037,1036,1033,1033,1034,1034,1034,1034,1034,1034,1034,1034,1034,1034,1034,1034,1039,1056,1077],"ymouse":[640,640,640,640,640,640,640,640,640,640,640,640,640,640,640,640,640,640,640,640,640,640,626,605,590,577,555,518,468,446,433,424,415,404,401,396,390,382,348,335,320,302,277,206,182,164,149,140,123,116,109,99,83,52,47,46,46,46,46,46,46,46,46,46,46,46,46,46,48],"timestamp_mouse":[11,31,52,71,93,113,132,153,171,192,211,232,251,273,292,313,331,352,371,391,411,432,452,472,491,511,532,552,572,591,612,631,652,671,692,712,732,752,772,791,812,832,852,871,892,913,932,952,971,991,1013,1033,1051,1071,1091,1111,1132,1152,1172,1191,1213,1231,1252,1273,1293,1311,1331,1351,1371],"xSR":741.5,"ySR":573.95,"xT1":424.9,"yT1":0,"xT2":1058.1,"yT2":0,"toosoon":0,"cond_shown":"Incongruent","ratio_trial":200,"L_num":7,"L_den":15,"R_num":6,"R_den":9,"correct_side":2,"subjID":"ZharifSujeyRinconMaza","gender":"1","school":"4","age":"9"},{"start_time":1552054211874,"click_time":1552054213023,"finger_time":1552054212522,"fix_duration":250,"trial":15,"RT":648,"MT":501,"sideResp":2,"stimulus":[],"xmouse":[795,795,795,794,794,794,794,794,794,794,794,794,794,794,794,794,794,794,794,794,794,794,794,794,794,794,794,793,793,793,793,795,801,808,822,845,871,933,956,975,990,1022,1037,1048,1065,1078,1088,1102,1106,1108,1111,1112,1114,1114,1115,1115,1115,1115],"ymouse":[639,639,635,634,632,631,631,631,631,631,631,631,631,631,631,631,631,631,631,631,631,631,631,631,631,631,631,626,622,617,606,579,562,543,520,489,451,371,344,322,297,255,235,219,196,175,161,142,134,128,123,118,111,109,106,104,102,94],"timestamp_mouse":[10,29,49,68,88,109,130,150,168,189,210,229,249,269,288,309,328,350,370,388,409,429,450,468,488,509,528,549,569,590,609,629,648,670,689,709,729,748,768,790,808,829,848,868,890,910,928,949,968,989,1008,1028,1049,1068,1089,1109,1128,1149],"xSR":741.5,"ySR":573.95,"xT1":424.9,"yT1":0,"xT2":1058.1,"yT2":0,"toosoon":0,"cond_shown":"Incongruent","ratio_trial":200,"L_num":4,"L_den":6,"R_num":14,"R_den":30,"correct_side":1,"subjID":"ZharifSujeyRinconMaza","gender":"1","school":"4","age":"9"},{"start_time":1552054214943,"click_time":1552054215983,"finger_time":1552054215362,"fix_duration":618.4232707251037,"trial":16,"RT":419,"MT":621,"sideResp":2,"stimulus":[],"xmouse":[784,784,784,784,784,784,784,784,784,784,784,784,784,784,784,784,784,784,784,784,801,851,927,1031,1247,1351,1390,1410,1415,1413,1410,1406,1405,1403,1403,1403,1403,1403,1398,1367,1349,1331,1308,1272,1212,1198,1186,1179,1175,1174,1171,1165,1154],"ymouse":[643,643,643,643,643,643,643,643,643,643,643,643,643,643,643,643,643,643,643,643,630,595,542,483,313,171,90,55,43,30,22,13,9,6,6,6,6,4,4,5,10,17,27,41,55,57,57,57,57,57,57,56,54],"timestamp_mouse":[2,20,40,60,80,99,120,139,160,181,200,219,240,259,280,301,320,340,359,380,399,419,439,460,480,499,520,540,560,580,601,621,640,659,679,700,720,740,760,779,800,819,840,860,880,900,920,939,960,980,1000,1020,1040],"xSR":741.5,"ySR":573.95,"xT1":424.9,"yT1":0,"xT2":1058.1,"yT2":0,"toosoon":0,"cond_shown":"Congruent","ratio_trial":200,"L_num":8,"L_den":15,"R_num":2,"R_den":6,"correct_side":1,"subjID":"ZharifSujeyRinconMaza","gender":"1","school":"4","age":"9"},{"start_time":1552054218574,"click_time":1552054219544,"finger_time":1552054219023,"fix_duration":950.6792731629203,"trial":17,"RT":449,"MT":521,"sideResp":2,"stimulus":[],"xmouse":[798,798,798,798,798,798,798,798,798,798,798,798,798,798,798,798,798,798,798,798,798,801,861,912,971,1029,1090,1190,1226,1251,1260,1266,1267,1265,1263,1261,1258,1254,1252,1251,1249,1246,1244,1240,1231,1214,1182,1171,1154],"ymouse":[595,595,595,595,595,595,595,595,595,595,595,595,595,595,595,595,595,595,595,595,595,593,568,536,502,460,411,311,264,219,191,163,110,96,86,78,71,61,56,55,53,51,51,51,51,55,64,67,71],"timestamp_mouse":[8,29,49,69,89,109,129,149,170,189,210,228,249,269,288,308,328,349,368,389,410,429,449,469,489,510,529,549,569,590,609,629,648,669,689,709,729,749,769,788,808,828,849,869,889,909,929,948,970],"xSR":741.5,"ySR":573.95,"xT1":424.9,"yT1":0,"xT2":1058.1,"yT2":0,"toosoon":0,"cond_shown":"Incongruent","ratio_trial":200,"L_num":1,"L_den":3,"R_num":2,"R_den":15,"correct_side":1,"subjID":"ZharifSujeyRinconMaza","gender":"1","school":"4","age":"9"},{"start_time":1552054221355,"click_time":1552054222623,"finger_time":1552054221883,"fix_duration":250,"trial":18,"RT":528,"MT":740,"sideResp":2,"stimulus":[],"xmouse":[778,778,795,799,800,800,800,800,800,800,800,800,800,800,800,800,800,800,800,800,800,800,800,801,817,837,864,956,998,1033,1056,1068,1072,1078,1080,1081,1084,1089,1090,1092,1093,1093,1094,1096,1097,1098,1099,1100,1102,1102,1102,1102,1102,1102,1102,1102,1101,1101,1101,1101,1101,1101,1101,1101],"ymouse":[649,649,643,640,638,638,638,638,638,638,638,638,638,638,638,638,638,638,638,638,638,638,638,638,620,596,558,358,295,264,244,228,218,208,203,198,192,173,167,162,158,157,156,148,144,141,138,131,124,120,119,118,117,117,115,111,110,107,103,102,101,100,100,99],"timestamp_mouse":[10,28,48,68,89,108,127,148,167,189,208,227,249,269,287,307,329,349,368,387,409,428,447,467,487,509,528,548,567,587,608,628,647,668,688,709,728,748,767,787,808,829,847,867,887,908,928,948,967,987,1008,1027,1048,1069,1088,1107,1127,1148,1168,1188,1208,1227,1247,1268],"xSR":741.5,"ySR":573.95,"xT1":424.9,"yT1":0,"xT2":1058.1,"yT2":0,"toosoon":0,"cond_shown":"Incongruent","ratio_trial":100,"L_num":12,"L_den":24,"R_num":9,"R_den":15,"correct_side":2,"subjID":"ZharifSujeyRinconMaza","gender":"1","school":"4","age":"9"},{"start_time":1552054224305,"click_time":1552054224923,"finger_time":1552054224682,"fix_duration":322.3595933212062,"trial":19,"RT":377,"MT":241,"sideResp":2,"stimulus":[],"xmouse":[809,809,809,809,809,809,809,809,809,809,809,809,809,809,809,809,811,821,828,837,866,882,897,919,959,1016,1050,1076,1101,1138,1146],"ymouse":[626,626,626,626,626,626,626,626,626,626,626,626,626,626,626,626,616,582,558,532,477,455,428,400,355,301,261,225,187,110,88],"timestamp_mouse":[20,37,57,77,99,118,138,158,178,197,218,238,257,279,297,318,338,358,377,399,418,437,458,479,498,517,537,557,577,598,618],"xSR":741.5,"ySR":573.95,"xT1":424.9,"yT1":0,"xT2":1058.1,"yT2":0,"toosoon":0,"cond_shown":"Congruent","ratio_trial":200,"L_num":11,"L_den":22,"R_num":3,"R_den":10,"correct_side":1,"subjID":"ZharifSujeyRinconMaza","gender":"1","school":"4","age":"9"},{"start_time":1552054228889,"click_time":1552054229703,"finger_time":1552054229223,"fix_duration":1245.371456201607,"trial":20,"RT":334,"MT":480,"sideResp":2,"stimulus":[],"xmouse":[788,788,788,788,788,788,788,788,788,788,788,788,788,788,794,807,852,886,922,961,1002,1074,1097,1113,1120,1128,1136,1140,1143,1144,1144,1144,1144,1144,1144,1144,1144,1144,1136,1124,1108],"ymouse":[631,631,631,631,631,631,631,631,631,631,631,631,631,631,626,614,574,540,497,447,383,257,213,186,174,156,143,134,127,126,125,125,125,125,125,125,125,124,120,109,93],"timestamp_mouse":[14,33,55,74,94,114,134,155,173,193,215,234,253,273,294,314,334,353,374,394,414,434,453,473,494,514,534,554,573,594,614,634,653,673,694,715,734,754,774,793,814],"xSR":741.5,"ySR":573.95,"xT1":424.9,"yT1":0,"xT2":1058.1,"yT2":0,"toosoon":0,"cond_shown":"Congruent","ratio_trial":100,"L_num":11,"L_den":22,"R_num":6,"R_den":15,"correct_side":1,"subjID":"ZharifSujeyRinconMaza","gender":"1","school":"4","age":"9"},{"start_time":1552054231390,"click_time":1552054233104,"finger_time":1552054232303,"fix_duration":565.1488924981554,"trial":21,"RT":913,"MT":801,"sideResp":1,"stimulus":[],"xmouse":[770,770,770,770,770,770,770,770,770,770,770,770,770,770,770,770,770,770,770,770,770,770,770,770,770,770,770,770,770,770,770,770,770,770,770,770,770,770,770,770,770,770,770,766,758,739,697,669,641,624,609,585,580,576,574,572,571,570,570,570,570,570,570,570,570,570,570,570,570,561,552,543,542,542,542,542,542,542,542,542,542,542,542,541,534,474],"ymouse":[609,609,609,609,609,609,609,609,609,609,609,609,609,609,609,609,609,609,609,609,609,609,609,609,609,609,609,609,609,609,609,609,609,609,609,609,609,609,609,609,609,609,609,602,584,547,455,390,326,271,214,47,8,0,0,0,0,0,0,0,0,0,0,0,0,0,0,0,0,14,29,38,38,38,38,38,38,38,38,38,38,38,38,38,38,41],"timestamp_mouse":[17,32,54,72,92,114,134,152,172,193,214,232,254,272,292,312,332,352,372,393,413,433,453,473,493,513,533,552,573,594,612,632,652,673,693,713,732,752,772,792,812,832,852,874,893,913,932,952,974,993,1013,1032,1052,1072,1093,1113,1133,1153,1172,1192,1213,1232,1253,1273,1293,1313,1332,1353,1373,1393,1413,1432,1453,1473,1493,1512,1533,1554,1574,1592,1612,1633,1654,1674,1694,1714],"xSR":741.5,"ySR":573.95,"xT1":424.9,"yT1":0,"xT2":1058.1,"yT2":0,"toosoon":0,"cond_shown":"Congruent","ratio_trial":200,"L_num":12,"L_den":20,"R_num":6,"R_den":15,"correct_side":1,"subjID":"ZharifSujeyRinconMaza","gender":"1","school":"4","age":"9"},{"start_time":1552054235638,"click_time":1552054236183,"finger_time":1552054236023,"fix_duration":1334.98609195134,"trial":22,"RT":385,"MT":160,"sideResp":2,"stimulus":[],"xmouse":[788,788,788,788,788,788,788,788,788,788,788,788,788,788,788,788,788,788,789,812,826,840,855,874,946,995,1053,1101],"ymouse":[611,611,611,611,611,611,611,611,611,611,611,611,611,611,611,611,611,611,611,541,511,477,444,408,278,187,106,37],"timestamp_mouse":[5,24,44,64,86,106,124,144,164,185,205,224,245,264,285,305,324,344,365,385,405,424,444,465,484,505,525,545],"xSR":741.5,"ySR":573.95,"xT1":424.9,"yT1":0,"xT2":1058.1,"yT2":0,"toosoon":0,"cond_shown":"Congruent","ratio_trial":300,"L_num":2,"L_den":20,"R_num":10,"R_den":25,"correct_side":2,"subjID":"ZharifSujeyRinconMaza","gender":"1","school":"4","age":"9"},{"start_time":1552054238260,"click_time":1552054239164,"finger_time":1552054238703,"fix_duration":1035.8662964467178,"trial":23,"RT":443,"MT":461,"sideResp":1,"stimulus":[],"xmouse":[773,773,773,773,773,773,773,773,773,773,773,773,773,773,773,773,773,773,772,772,771,771,770,768,767,763,756,747,693,670,653,637,623,613,612,612,612,612,612,612,612,612,611,585,551,524],"ymouse":[636,636,636,636,636,636,636,636,636,636,636,636,636,636,636,636,636,636,636,623,612,601,567,550,527,497,453,395,245,194,141,87,38,0,0,0,0,0,0,0,0,0,0,0,1,8],"timestamp_mouse":[3,22,44,63,82,103,123,144,163,184,202,223,242,263,284,304,322,343,363,383,404,423,443,462,482,502,522,542,564,583,604,624,644,663,684,703,723,743,763,784,803,823,844,863,884,904],"xSR":741.5,"ySR":573.95,"xT1":424.9,"yT1":0,"xT2":1058.1,"yT2":0,"toosoon":0,"cond_shown":"Congruent","ratio_trial":300,"L_num":20,"L_den":25,"R_num":13,"R_den":26,"correct_side":1,"subjID":"ZharifSujeyRinconMaza","gender":"1","school":"4","age":"9"},{"start_time":1552054241217,"click_time":1552054242224,"finger_time":1552054241362,"fix_duration":774.9176933703774,"trial":24,"RT":145,"MT":862,"sideResp":2,"stimulus":[],"xmouse":[788,788,788,794,806,815,831,851,872,893,958,991,1021,1052,1094,1110,1123,1133,1142,1148,1157,1159,1162,1164,1166,1173,1175,1175,1176,1176,1176,1176,1176,1176,1176,1176,1176,1176,1176,1176,1176,1176,1176,1176,1176,1176,1176,1176,1176,1176,1151],"ymouse":[631,631,631,631,627,621,612,602,592,580,535,509,482,447,388,358,329,302,272,246,198,182,167,151,132,91,77,69,65,63,63,63,63,63,63,63,63,63,63,63,63,63,63,63,63,63,63,63,63,62,62],"timestamp_mouse":[6,25,46,65,86,106,127,145,166,186,206,226,245,267,286,305,326,345,366,386,406,425,447,467,485,505,525,547,566,586,606,625,646,667,686,706,725,745,766,787,806,825,846,865,886,907,926,945,966,986,1007],"xSR":741.5,"ySR":573.95,"xT1":424.9,"yT1":0,"xT2":1058.1,"yT2":0,"toosoon":0,"cond_shown":"Incongruent","ratio_trial":100,"L_num":12,"L_den":24,"R_num":9,"R_den":15,"correct_side":2,"subjID":"ZharifSujeyRinconMaza","gender":"1","school":"4","age":"9"},{"start_time":1552054245005,"click_time":1552054246323,"finger_time":1552054245423,"fix_duration":1100.355784822412,"trial":25,"RT":418,"MT":900,"sideResp":1,"stimulus":[],"xmouse":[779,779,779,779,779,779,779,779,779,779,779,779,779,779,779,779,779,779,779,779,752,731,713,697,684,665,658,649,638,623,581,560,542,532,527,527,527,527,527,527,527,527,527,527,527,530,531,532,532,532,532,532,532,532,532,532,532,532,532,532,532,532,532,532,532,524],"ymouse":[649,649,649,649,649,649,649,649,649,649,649,649,649,649,649,649,649,649,649,644,555,501,456,420,397,362,345,328,307,283,221,190,168,156,147,147,147,147,147,146,134,127,118,107,96,85,85,84,84,84,79,75,71,67,64,61,61,61,61,61,61,61,61,61,57,51],"timestamp_mouse":[20,37,58,77,98,118,137,157,178,198,217,238,259,277,297,318,338,357,378,397,418,438,459,477,498,518,539,559,578,598,619,638,659,679,698,717,737,757,777,798,817,837,858,877,899,918,938,960,978,999,1018,1038,1058,1078,1099,1119,1139,1158,1178,1198,1218,1238,1258,1278,1299,1318],"xSR":741.5,"ySR":573.95,"xT1":424.9,"yT1":0,"xT2":1058.1,"yT2":0,"toosoon":0,"cond_shown":"Congruent","ratio_trial":200,"L_num":16,"L_den":20,"R_num":12,"R_den":20,"correct_side":1,"subjID":"ZharifSujeyRinconMaza","gender":"1","school":"4","age":"9"},{"start_time":1552054248721,"click_time":1552054249303,"finger_time":1552054249103,"fix_duration":1116.6307039792864,"trial":26,"RT":382,"MT":200,"sideResp":2,"stimulus":[],"xmouse":[797,797,797,797,797,797,797,797,797,797,797,797,797,797,797,797,797,801,807,833,894,926,953,978,1018,1039,1049,1059,1066,1072],"ymouse":[635,635,635,635,635,635,635,635,635,635,635,635,635,635,635,635,635,623,605,558,454,398,348,303,218,171,147,125,105,85],"timestamp_mouse":[4,23,42,62,82,103,122,142,163,182,203,224,243,263,282,303,323,343,362,382,403,423,444,462,483,502,523,542,563,582],"xSR":741.5,"ySR":573.95,"xT1":424.9,"yT1":0,"xT2":1058.1,"yT2":0,"toosoon":0,"cond_shown":"Congruent","ratio_trial":300,"L_num":1,"L_den":5,"R_num":3,"R_den":6,"correct_side":2,"subjID":"ZharifSujeyRinconMaza","gender":"1","school":"4","age":"9"},{"start_time":1552054251370,"click_time":1552054252303,"finger_time":1552054251823,"fix_duration":1106.2457665690877,"trial":27,"RT":453,"MT":480,"sideResp":1,"stimulus":[],"xmouse":[778,778,777,776,776,776,776,776,776,776,776,776,776,776,776,776,776,776,776,776,776,776,765,747,723,694,667,622,603,587,571,554,528,523,523,523,523,523,523,523,523,523,523,523,521,517,511],"ymouse":[606,606,610,612,613,613,613,613,613,613,613,613,613,613,613,613,613,613,613,613,612,597,504,452,397,358,328,285,272,258,244,226,196,190,190,190,190,190,190,190,190,190,187,150,124,104,85],"timestamp_mouse":[15,33,54,74,95,113,133,153,175,194,213,234,254,274,293,313,334,353,373,394,413,433,453,473,493,514,533,554,573,594,613,633,653,673,694,713,734,753,774,793,814,834,854,874,893,913,933],"xSR":741.5,"ySR":573.95,"xT1":424.9,"yT1":0,"xT2":1058.1,"yT2":0,"toosoon":0,"cond_shown":"Congruent","ratio_trial":300,"L_num":20,"L_den":25,"R_num":9,"R_den":18,"correct_side":1,"subjID":"ZharifSujeyRinconMaza","gender":"1","school":"4","age":"9"},{"start_time":1552054255667,"click_time":1552054256924,"finger_time":1552054256443,"fix_duration":660.6250983095995,"trial":28,"RT":776,"MT":481,"sideResp":2,"stimulus":[],"xmouse":[789,789,789,789,789,789,789,789,789,789,790,792,792,792,792,792,792,792,792,792,792,792,792,792,792,792,792,792,792,792,792,792,792,792,792,792,792,808,831,848,857,860,862,862,862,862,862,862,866,868,870,875,877,881,889,901,916,975,993,1011,1026,1048,1062],"ymouse":[629,629,629,629,629,629,629,629,629,629,627,621,616,616,616,616,616,616,616,616,616,616,616,616,616,616,616,616,616,616,616,616,616,616,616,616,616,579,542,516,504,498,496,496,496,496,496,494,487,482,478,471,466,461,450,427,399,293,255,214,177,98,51],"timestamp_mouse":[16,36,57,76,97,117,137,156,177,198,216,236,257,277,298,316,337,356,377,397,416,436,456,476,498,517,537,557,577,596,617,636,656,676,696,717,736,758,776,796,816,836,856,876,896,916,937,957,977,996,1016,1037,1056,1077,1098,1116,1137,1157,1176,1196,1216,1237,1257],"xSR":741.5,"ySR":573.95,"xT1":424.9,"yT1":0,"xT2":1058.1,"yT2":0,"toosoon":0,"cond_shown":"Incongruent","ratio_trial":100,"L_num":8,"L_den":20,"R_num":1,"R_den":2,"correct_side":2,"subjID":"ZharifSujeyRinconMaza","gender":"1","school":"4","age":"9"},{"start_time":1552054262453,"click_time":1552054263543,"finger_time":1552054263024,"fix_duration":809.572415732342,"trial":29,"RT":571,"MT":519,"sideResp":1,"stimulus":[],"xmouse":[784,784,784,784,784,784,784,784,784,784,784,784,784,784,784,784,784,784,784,784,784,784,784,784,784,784,781,766,630,565,517,492,485,485,485,485,485,488,489,489,489,489,489,493,498,507,518,529,543,546,547,547,547,536,520],"ymouse":[623,623,623,623,623,623,623,623,623,623,623,623,623,623,623,623,623,623,623,623,623,623,623,623,623,623,615,588,476,434,404,385,377,376,374,367,349,328,285,281,276,272,268,255,237,217,195,176,143,131,121,114,103,52,10],"timestamp_mouse":[11,30,52,72,90,110,131,152,170,191,210,232,250,271,292,310,330,351,371,390,410,430,450,471,490,511,530,551,571,591,610,630,650,671,690,711,731,750,770,790,810,831,851,871,890,910,931,950,970,991,1011,1032,1050,1071,1090],"xSR":741.5,"ySR":573.95,"xT1":424.9,"yT1":0,"xT2":1058.1,"yT2":0,"toosoon":0,"cond_shown":"Congruent","ratio_trial":200,"L_num":16,"L_den":20,"R_num":12,"R_den":20,"correct_side":1,"subjID":"ZharifSujeyRinconMaza","gender":"1","school":"4","age":"9"},{"start_time":1552054266319,"click_time":1552054267604,"finger_time":1552054267164,"fix_duration":1414.8097678195672,"trial":30,"RT":845,"MT":440,"sideResp":2,"stimulus":[],"xmouse":[789,789,789,789,789,790,793,797,799,800,800,800,800,800,800,800,800,800,800,800,800,800,800,800,800,800,800,800,800,800,800,800,800,800,800,800,800,803,805,806,817,828,843,863,905,950,965,978,989,998,1018,1031,1043,1054,1070,1078,1082,1086,1088,1096,1099,1103,1108,1114,1120],"ymouse":[608,608,608,608,608,608,608,608,608,608,608,608,608,608,608,608,608,608,608,608,608,608,608,608,608,608,608,608,608,608,608,608,608,608,608,608,608,608,608,608,606,600,590,575,545,515,508,501,494,488,464,441,414,387,338,311,295,279,260,219,200,181,160,135,87],"timestamp_mouse":[7,24,44,65,85,104,124,145,165,185,205,224,244,264,284,305,324,346,364,384,404,425,444,466,484,504,524,546,565,584,605,624,646,665,685,706,724,745,765,785,804,824,845,864,885,904,924,945,964,984,1004,1024,1044,1065,1085,1104,1125,1145,1165,1185,1204,1225,1245,1265,1285],"xSR":741.5,"ySR":573.95,"xT1":424.9,"yT1":0,"xT2":1058.1,"yT2":0,"toosoon":0,"cond_shown":"Congruent","ratio_trial":100,"L_num":4,"L_den":8,"R_num":6,"R_den":10,"correct_side":2,"subjID":"ZharifSujeyRinconMaza","gender":"1","school":"4","age":"9"},