[{"start_time":1552055016189,"click_time":1552055020820,"finger_time":1552055020260,"fix_duration":527.6198640957522,"trial":0,"RT":4071,"MT":560,"sideResp":1,"stimulus":"img/900/randomdotsizeEA/L/10_Ratio_900_L_20_R_18.png","xmouse":[794,794,794,794,794,794,794,794,794,794,794,794,794,794,794,794,794,794,794,794,794,794,794,794,794,794,794,794,794,794,794,794,794,794,794,794,794,794,794,794,794,794,794,794,794,794,794,794,794,794,794,794,794,794,794,794,794,794,794,794,794,794,794,794,794,794,794,794,794,794,794,794,794,794,794,794,794,794,794,794,794,794,794,794,794,794,794,794,794,794,794,794,794,794,794,794,794,794,794,794,794,794,794,794,794,794,794,794,794,794,794,794,794,794,794,794,794,794,794,794,794,794,794,794,794,794,794,794,794,794,794,794,794,794,794,794,794,794,794,794,794,794,794,794,794,794,794,794,794,794,794,794,794,794,794,794,794,794,794,794,794,794,794,794,794,794,794,794,794,794,794,794,794,794,794,794,794,794,794,794,794,794,794,794,794,794,794,794,794,794,794,794,794,794,794,794,794,794,794,794,794,790,781,758,744,744,744,744,744,744,744,744,733,704,666,652,638,616,585,503,478,464,464,464,464,464,464,464,464,464,464,464],"ymouse":[538,538,538,538,538,538,538,538,538,538,538,538,538,538,538,538,538,538,538,538,538,538,538,538,538,538,538,538,538,538,538,538,538,538,538,538,538,538,538,538,538,538,538,538,538,538,538,538,538,538,538,538,538,538,538,538,538,538,538,538,538,538,538,538,538,538,538,538,538,538,538,538,538,538,538,538,538,538,538,538,538,538,538,538,538,538,538,538,538,538,538,538,538,538,538,538,538,538,538,538,538,538,538,538,538,538,538,538,538,538,538,538,538,538,538,538,538,538,538,538,538,538,538,538,538,538,538,538,538,538,538,538,538,538,538,538,538,538,538,538,538,538,538,538,538,538,538,538,538,538,538,538,538,538,538,538,538,538,538,538,538,538,538,538,538,538,538,538,538,538,538,538,538,538,538,538,538,538,538,538,538,538,538,538,538,538,538,538,538,538,538,538,538,538,538,538,538,538,538,538,538,524,482,388,280,280,280,280,280,280,280,279,269,241,210,204,198,189,182,173,162,157,157,157,157,157,157,150,150,124,107,94],"timestamp_mouse":[17,32,51,72,92,112,132,151,171,191,211,232,252,271,291,312,331,351,372,391,412,431,451,472,492,511,531,552,572,592,612,631,652,672,691,712,732,752,772,791,813,832,851,872,892,912,931,951,972,991,1013,1032,1052,1072,1091,1112,1133,1152,1171,1191,1212,1232,1251,1271,1291,1311,1332,1351,1371,1392,1411,1432,1452,1471,1491,1512,1532,1552,1572,1592,1612,1631,1651,1672,1691,1712,1731,1752,1772,1792,1811,1831,1853,1872,1892,1912,1932,1953,1972,1991,2013,2032,2051,2072,2092,2112,2132,2153,2172,2191,2212,2232,2252,2272,2292,2311,2331,2353,2371,2391,2413,2432,2451,2472,2491,2513,2532,2552,2573,2592,2611,2632,2652,2672,2692,2712,2731,2753,2772,2792,2812,2831,2852,2872,2892,2911,2931,2952,2972,2991,3012,3033,3051,3071,3091,3113,3133,3151,3172,3191,3212,3232,3251,3272,3292,3311,3331,3351,3372,3392,3411,3431,3452,3472,3491,3513,3533,3551,3572,3591,3613,3632,3651,3671,3692,3712,3732,3752,3773,3792,3812,3833,3853,3872,3891,3911,3931,3953,3972,3991,4012,4031,4052,4071,4092,4112,4132,4152,4171,4191,4212,4231,4251,4272,4292,4312,4331,4351,4371,4391,4411,4432,4451,4472,4492,4512,4533,4552,4573,4591,4612,4631],"xSR":741.5,"ySR":501.8,"xT1":424.9,"yT1":0,"xT2":1058.1,"yT2":0,"toosoon":0,"cond_shown":"randomdotsizeEA","ratio_trial":900,"smaller_num":"18","larger_num":"20","correct_side":1,"subjID":"zharifsujeyrinconmaza16","gender":"1","age":"9","school":"4","test":{"fix_dur":[250,1500],"timestim":300,"targets_dim":[100,100],"targets_relative_coord":[0.3,0.7],"size_stim":[880,420],"start_dim":[100,100],"size_start":[300,300],"size_fix":60,"samplingrate":20,"img_types":["equaldotsize","equaldotanddens","randomdotsizeEA"],"ratios":[250,500,750,900],"rep_conds":9,"nTrials":120,"trials_to_rest":500,"Trials_order":[95,14,17,38,22,66,97,12,1,45,101,60,100,72,61,75,59,99,76,106,89,87,73,90,63,70,37,88,46,18,52,29,57,104,26,28,102,55,103,68,16,32,117,3,23,27,7,5,34,74,65,30,19,79,118,116,115,50,84,36,43,80,48,39,69,49,83,56,42,41,92,78,8,6,2,112,77,4,20,86,51,24,111,109,91,33,40,64,54,85,119,53,62,105,94,96,98,11,82,10,44,113,67,107,47,58,9,110,0,114,108,15,71,93,35,31,81,13,21,25],"cond_shown":["randomdotsizeEA","randomdotsizeEA","randomdotsizeEA","randomdotsizeEA","equaldotanddens","equaldotsize","equaldotanddens","equaldotsize","equaldotanddens","equaldotsize","randomdotsizeEA","equaldotsize","equaldotanddens","equaldotsize","equaldotanddens","equaldotsize","randomdotsizeEA","equaldotsize","equaldotanddens","equaldotanddens","randomdotsizeEA","equaldotsize","equaldotanddens","equaldotsize","equaldotsize","equaldotanddens","equaldotanddens","equaldotanddens","equaldotanddens","equaldotsize","equaldotanddens","randomdotsizeEA","equaldotsize","randomdotsizeEA","randomdotsizeEA","equaldotanddens","equaldotsize","equaldotanddens","equaldotanddens","randomdotsizeEA","equaldotanddens","randomdotsizeEA","equaldotsize","equaldotsize","randomdotsizeEA","equaldotsize","equaldotanddens","randomdotsizeEA","equaldotanddens","randomdotsizeEA","randomdotsizeEA","equaldotsize","equaldotanddens","equaldotanddens","equaldotanddens","randomdotsizeEA","equaldotanddens","randomdotsizeEA","equaldotsize","equaldotsize","equaldotanddens","randomdotsizeEA","equaldotsize","equaldotsize","equaldotsize","equaldotanddens","randomdotsizeEA","randomdotsizeEA","equaldotsize","randomdotsizeEA","randomdotsizeEA","equaldotsize","randomdotsizeEA","equaldotsize","randomdotsizeEA","equaldotanddens","randomdotsizeEA","equaldotanddens","randomdotsizeEA","randomdotsizeEA","equaldotsize","equaldotsize","equaldotsize","equaldotanddens","equaldotanddens","equaldotsize","equaldotanddens","equaldotanddens","equaldotsize","equaldotanddens","randomdotsizeEA","randomdotsizeEA","randomdotsizeEA","equaldotsize","equaldotanddens","equaldotsize","randomdotsizeEA","randomdotsizeEA","equaldotanddens","equaldotanddens","randomdotsizeEA","randomdotsizeEA","equaldotanddens","randomdotsizeEA","randomdotsizeEA","equaldotanddens","equaldotsize","randomdotsizeEA","equaldotsize","equaldotsize","equaldotsize","equaldotsize","randomdotsizeEA","equaldotsize","randomdotsizeEA","equaldotanddens","equaldotsize","equaldotanddens","equaldotsize","equaldotanddens"],"ratio_trial":[900,250,500,250,900,750,250,250,250,900,500,250,500,250,250,500,900,500,500,900,500,500,250,750,500,900,250,500,900,750,500,500,900,750,250,500,750,750,750,750,500,750,900,500,900,500,750,500,900,250,500,750,750,750,900,750,750,250,250,250,750,750,250,500,900,250,900,750,750,500,750,750,750,750,250,500,500,500,750,250,500,250,500,250,750,900,500,500,750,250,900,500,250,900,900,250,250,900,900,900,750,500,750,900,900,900,900,250,250,750,250,500,900,900,900,750,900,250,900,250],"smaller_num":["18","3","2","3","18","3","6","6","3","18","9","4","2","2","6","9","18","2","1","18","1","1","3","3","4","18","6","9","18","3","3","9","18","15","5","2","6","6","3","12","2","3","18","6","18","1","6","6","18","4","9","12","15","3","9","6","6","2","5","5","18","9","3","9","18","4","18","3","6","6","18","15","6","3","4","9","5","2","15","3","6","4","2","2","15","9","4","3","18","2","18","6","2","9","18","3","6","18","18","18","6","3","9","18","18","18","18","3","2","3","6","6","18","9","9","9","9","6","18","6"],"larger_num":["20","12","4","12","20","4","24","24","12","20","18","16","4","8","24","18","20","4","2","20","2","2","12","4","8","20","24","18","20","4","6","18","20","20","20","4","8","8","4","16","4","4","20","12","20","2","8","12","20","16","18","16","20","4","10","8","8","8","20","20","24","12","12","18","20","16","20","4","8","12","24","20","8","4","16","18","10","4","20","12","12","16","4","8","20","10","8","6","24","8","20","12","8","10","20","12","24","20","20","20","8","6","12","20","20","20","20","12","8","4","24","12","20","10","10","12","10","24","20","24"],"correct_side":[1,2,1,1,2,1,1,2,2,2,2,1,2,1,2,2,2,1,2,1,2,2,1,2,1,1,1,2,2,1,2,1,1,1,2,2,2,2,2,2,1,2,1,1,2,2,1,1,1,2,2,2,1,1,1,1,1,2,2,2,1,2,1,1,1,2,1,1,1,1,1,2,2,1,1,1,2,1,2,2,1,1,1,1,2,2,1,2,1,1,1,1,1,2,1,1,1,1,2,2,1,2,2,1,2,2,1,2,1,2,2,1,1,1,2,2,1,1,1,2],"img_shown":["img/900/randomdotsizeEA/L/10_Ratio_900_L_20_R_18.png","img/250/randomdotsizeEA/R/11_Ratio_250_L_3_R_12.png","img/500/randomdotsizeEA/L/10_Ratio_500_L_4_R_2.png","img/250/randomdotsizeEA/L/15_Ratio_250_L_12_R_3.png","img/900/equaldotanddens/R/12_Ratio_900_L_18_R_20.png","img/750/equaldotsize/L/9_Ratio_750_L_4_R_3.png","img/250/equaldotanddens/L/5_Ratio_250_L_24_R_6.png","img/250/equaldotsize/R/6_Ratio_250_L_6_R_24.png","img/250/equaldotanddens/R/4_Ratio_250_L_3_R_12.png","img/900/equaldotsize/R/11_Ratio_900_L_18_R_20.png","img/500/randomdotsizeEA/R/1_Ratio_500_L_9_R_18.png","img/250/equaldotsize/L/2_Ratio_250_L_16_R_4.png","img/500/equaldotanddens/R/9_Ratio_500_L_2_R_4.png","img/250/equaldotsize/L/3_Ratio_250_L_8_R_2.png","img/250/equaldotanddens/R/6_Ratio_250_L_6_R_24.png","img/500/equaldotsize/R/1_Ratio_500_L_9_R_18.png","img/900/randomdotsizeEA/R/14_Ratio_900_L_18_R_20.png","img/500/equaldotsize/L/5_Ratio_500_L_4_R_2.png","img/500/equaldotanddens/R/12_Ratio_500_L_1_R_2.png","img/900/equaldotanddens/L/2_Ratio_900_L_20_R_18.png","img/500/randomdotsizeEA/R/12_Ratio_500_L_1_R_2.png","img/500/equaldotsize/R/15_Ratio_500_L_1_R_2.png","img/250/equaldotanddens/L/14_Ratio_250_L_12_R_3.png","img/750/equaldotsize/R/7_Ratio_750_L_3_R_4.png","img/500/equaldotsize/L/8_Ratio_500_L_8_R_4.png","img/900/equaldotanddens/L/8_Ratio_900_L_20_R_18.png","img/250/equaldotanddens/L/5_Ratio_250_L_24_R_6.png","img/500/equaldotanddens/R/1_Ratio_500_L_9_R_18.png","img/900/equaldotanddens/R/12_Ratio_900_L_18_R_20.png","img/750/equaldotsize/L/9_Ratio_750_L_4_R_3.png","img/500/equaldotanddens/R/2_Ratio_500_L_3_R_6.png","img/500/randomdotsizeEA/L/4_Ratio_500_L_18_R_9.png","img/900/equaldotsize/L/4_Ratio_900_L_20_R_18.png","img/750/randomdotsizeEA/L/1_Ratio_750_L_20_R_15.png","img/250/randomdotsizeEA/R/12_Ratio_250_L_5_R_20.png","img/500/equaldotanddens/R/9_Ratio_500_L_2_R_4.png","img/750/equaldotsize/R/2_Ratio_750_L_6_R_8.png","img/750/equaldotanddens/R/2_Ratio_750_L_6_R_8.png","img/750/equaldotanddens/R/7_Ratio_750_L_3_R_4.png","img/750/randomdotsizeEA/R/11_Ratio_750_L_12_R_16.png","img/500/equaldotanddens/L/10_Ratio_500_L_4_R_2.png","img/750/randomdotsizeEA/R/7_Ratio_750_L_3_R_4.png","img/900/equaldotsize/L/4_Ratio_900_L_20_R_18.png","img/500/equaldotsize/L/11_Ratio_500_L_12_R_6.png","img/900/randomdotsizeEA/R/11_Ratio_900_L_18_R_20.png","img/500/equaldotsize/R/12_Ratio_500_L_1_R_2.png","img/750/equaldotanddens/L/13_Ratio_750_L_8_R_6.png","img/500/randomdotsizeEA/L/13_Ratio_500_L_12_R_6.png","img/900/equaldotanddens/L/8_Ratio_900_L_20_R_18.png","img/250/randomdotsizeEA/R/10_Ratio_250_L_4_R_16.png","img/500/randomdotsizeEA/R/6_Ratio_500_L_9_R_18.png","img/750/equaldotsize/R/11_Ratio_750_L_12_R_16.png","img/750/equaldotanddens/L/1_Ratio_750_L_20_R_15.png","img/750/equaldotanddens/L/10_Ratio_750_L_4_R_3.png","img/900/equaldotanddens/L/1_Ratio_900_L_10_R_9.png","img/750/randomdotsizeEA/L/14_Ratio_750_L_8_R_6.png","img/750/equaldotanddens/L/14_Ratio_750_L_8_R_6.png","img/250/randomdotsizeEA/R/13_Ratio_250_L_2_R_8.png","img/250/equaldotsize/R/12_Ratio_250_L_5_R_20.png","img/250/equaldotsize/R/12_Ratio_250_L_5_R_20.png","img/750/equaldotanddens/L/6_Ratio_750_L_24_R_18.png","img/750/randomdotsizeEA/R/15_Ratio_750_L_9_R_12.png","img/250/equaldotsize/L/14_Ratio_250_L_12_R_3.png","img/500/equaldotsize/L/4_Ratio_500_L_18_R_9.png","img/900/equaldotsize/L/10_Ratio_900_L_20_R_18.png","img/250/equaldotanddens/R/10_Ratio_250_L_4_R_16.png","img/900/randomdotsizeEA/L/2_Ratio_900_L_20_R_18.png","img/750/randomdotsizeEA/L/10_Ratio_750_L_4_R_3.png","img/750/equaldotsize/L/13_Ratio_750_L_8_R_6.png","img/500/randomdotsizeEA/L/11_Ratio_500_L_12_R_6.png","img/750/randomdotsizeEA/L/6_Ratio_750_L_24_R_18.png","img/750/equaldotsize/R/5_Ratio_750_L_15_R_20.png","img/750/randomdotsizeEA/R/2_Ratio_750_L_6_R_8.png","img/750/equaldotsize/L/8_Ratio_750_L_4_R_3.png","img/250/randomdotsizeEA/L/2_Ratio_250_L_16_R_4.png","img/500/equaldotanddens/L/4_Ratio_500_L_18_R_9.png","img/500/randomdotsizeEA/R/14_Ratio_500_L_5_R_10.png","img/500/equaldotanddens/L/5_Ratio_500_L_4_R_2.png","img/750/randomdotsizeEA/R/5_Ratio_750_L_15_R_20.png","img/250/randomdotsizeEA/R/4_Ratio_250_L_3_R_12.png","img/500/equaldotsize/L/11_Ratio_500_L_12_R_6.png","img/250/equaldotsize/L/2_Ratio_250_L_16_R_4.png","img/500/equaldotsize/L/5_Ratio_500_L_4_R_2.png","img/250/equaldotanddens/L/3_Ratio_250_L_8_R_2.png","img/750/equaldotanddens/R/4_Ratio_750_L_15_R_20.png","img/900/equaldotsize/R/5_Ratio_900_L_9_R_10.png","img/500/equaldotanddens/L/8_Ratio_500_L_8_R_4.png","img/500/equaldotanddens/R/2_Ratio_500_L_3_R_6.png","img/750/equaldotsize/L/6_Ratio_750_L_24_R_18.png","img/250/equaldotanddens/L/7_Ratio_250_L_8_R_2.png","img/900/randomdotsizeEA/L/4_Ratio_900_L_20_R_18.png","img/500/randomdotsizeEA/L/11_Ratio_500_L_12_R_6.png","img/250/randomdotsizeEA/L/3_Ratio_250_L_8_R_2.png","img/900/equaldotsize/R/3_Ratio_900_L_9_R_10.png","img/900/equaldotanddens/L/2_Ratio_900_L_20_R_18.png","img/250/equaldotsize/L/15_Ratio_250_L_12_R_3.png","img/250/randomdotsizeEA/L/5_Ratio_250_L_24_R_6.png","img/900/randomdotsizeEA/L/2_Ratio_900_L_20_R_18.png","img/900/equaldotanddens/R/12_Ratio_900_L_18_R_20.png","img/900/equaldotanddens/R/12_Ratio_900_L_18_R_20.png","img/750/randomdotsizeEA/L/14_Ratio_750_L_8_R_6.png","img/500/randomdotsizeEA/R/2_Ratio_500_L_3_R_6.png","img/750/equaldotanddens/R/15_Ratio_750_L_9_R_12.png","img/900/randomdotsizeEA/L/10_Ratio_900_L_20_R_18.png","img/900/randomdotsizeEA/R/14_Ratio_900_L_18_R_20.png","img/900/equaldotanddens/R/11_Ratio_900_L_18_R_20.png","img/900/equaldotsize/L/4_Ratio_900_L_20_R_18.png","img/250/randomdotsizeEA/R/9_Ratio_250_L_3_R_12.png","img/250/equaldotsize/L/3_Ratio_250_L_8_R_2.png","img/750/equaldotsize/R/12_Ratio_750_L_3_R_4.png","img/250/equaldotsize/R/6_Ratio_250_L_6_R_24.png","img/500/equaldotsize/L/13_Ratio_500_L_12_R_6.png","img/900/randomdotsizeEA/L/2_Ratio_900_L_20_R_18.png","img/900/equaldotsize/L/1_Ratio_900_L_10_R_9.png","img/900/randomdotsizeEA/R/3_Ratio_900_L_9_R_10.png","img/750/equaldotanddens/R/15_Ratio_750_L_9_R_12.png","img/900/equaldotsize/L/1_Ratio_900_L_10_R_9.png","img/250/equaldotanddens/L/5_Ratio_250_L_24_R_6.png","img/900/equaldotsize/L/4_Ratio_900_L_20_R_18.png","img/250/equaldotanddens/R/6_Ratio_250_L_6_R_24.png"],"Rat0":[["12_Ratio_0_L_9_R_0.png","13_Ratio_0_L_6_R_0.png","5_Ratio_0_L_2_R_0.png","6_Ratio_0_L_4_R_0.png","8_Ratio_0_L_6_R_0.png"],["1_Ratio_0_L_0_R_17.png","10_Ratio_0_L_0_R_22.png","11_Ratio_0_L_0_R_1.png","14_Ratio_0_L_0_R_24.png","15_Ratio_0_L_0_R_4.png","2_Ratio_0_L_0_R_5.png","3_Ratio_0_L_0_R_17.png","4_Ratio_0_L_0_R_7.png","7_Ratio_0_L_0_R_19.png","9_Ratio_0_L_0_R_15.png"]],"Rat250":[["1_Ratio_250_L_8_R_2.png","14_Ratio_250_L_12_R_3.png","15_Ratio_250_L_12_R_3.png","2_Ratio_250_L_16_R_4.png","3_Ratio_250_L_8_R_2.png","5_Ratio_250_L_24_R_6.png","7_Ratio_250_L_8_R_2.png"],["10_Ratio_250_L_4_R_16.png","11_Ratio_250_L_3_R_12.png","12_Ratio_250_L_5_R_20.png","13_Ratio_250_L_2_R_8.png","4_Ratio_250_L_3_R_12.png","6_Ratio_250_L_6_R_24.png","8_Ratio_250_L_1_R_4.png","9_Ratio_250_L_3_R_12.png"]],"Rat500":[["10_Ratio_500_L_4_R_2.png","11_Ratio_500_L_12_R_6.png","13_Ratio_500_L_12_R_6.png","4_Ratio_500_L_18_R_9.png","5_Ratio_500_L_4_R_2.png","7_Ratio_500_L_10_R_5.png","8_Ratio_500_L_8_R_4.png"],["1_Ratio_500_L_9_R_18.png","12_Ratio_500_L_1_R_2.png","14_Ratio_500_L_5_R_10.png","15_Ratio_500_L_1_R_2.png","2_Ratio_500_L_3_R_6.png","3_Ratio_500_L_10_R_20.png","6_Ratio_500_L_9_R_18.png","9_Ratio_500_L_2_R_4.png"]],"Rat750":[["1_Ratio_750_L_20_R_15.png","10_Ratio_750_L_4_R_3.png","13_Ratio_750_L_8_R_6.png","14_Ratio_750_L_8_R_6.png","6_Ratio_750_L_24_R_18.png","8_Ratio_750_L_4_R_3.png","9_Ratio_750_L_4_R_3.png"],["11_Ratio_750_L_12_R_16.png","12_Ratio_750_L_3_R_4.png","15_Ratio_750_L_9_R_12.png","2_Ratio_750_L_6_R_8.png","3_Ratio_750_L_15_R_20.png","4_Ratio_750_L_15_R_20.png","5_Ratio_750_L_15_R_20.png","7_Ratio_750_L_3_R_4.png"]],"Rat900":[["1_Ratio_900_L_10_R_9.png","10_Ratio_900_L_20_R_18.png","2_Ratio_900_L_20_R_18.png","4_Ratio_900_L_20_R_18.png","8_Ratio_900_L_20_R_18.png"],["11_Ratio_900_L_18_R_20.png","12_Ratio_900_L_18_R_20.png","13_Ratio_900_L_18_R_20.png","14_Ratio_900_L_18_R_20.png","15_Ratio_900_L_9_R_10.png","3_Ratio_900_L_9_R_10.png","5_Ratio_900_L_9_R_10.png","6_Ratio_900_L_9_R_10.png","7_Ratio_900_L_9_R_10.png","9_Ratio_900_L_18_R_20.png"]],"Rat1000":[["10_Ratio_1000_L_16_R_16.png","11_Ratio_1000_L_6_R_6.png","12_Ratio_1000_L_14_R_14.png","13_Ratio_1000_L_20_R_20.png","15_Ratio_1000_L_15_R_15.png","2_Ratio_1000_L_17_R_17.png","4_Ratio_1000_L_9_R_9.png","5_Ratio_1000_L_6_R_6.png","6_Ratio_1000_L_19_R_19.png","8_Ratio_1000_L_14_R_14.png","9_Ratio_1000_L_25_R_25.png"],["1_Ratio_1000_L_1_R_1.png","14_Ratio_1000_L_17_R_17.png","3_Ratio_1000_L_17_R_17.png","7_Ratio_1000_L_6_R_6.png"]]}},{"start_time":1552055024171,"click_time":1552055025522,"finger_time":1552055024980,"fix_duration":250,"trial":1,"RT":809,"MT":542,"sideResp":2,"stimulus":"img/250/randomdotsizeEA/R/11_Ratio_250_L_3_R_12.png","xmouse":[786,786,786,786,786,786,786,786,786,786,786,786,786,786,786,786,786,786,786,786,786,786,786,786,786,786,786,786,786,786,786,786,786,786,786,786,786,786,786,788,837,915,966,968,991,997,999,999,999,999,999,999,999,999,999,1005,1008,1008,1011,1013,1013,1013,1016,1023,1032,1049,1057,1061],"ymouse":[490,490,490,490,490,490,490,490,490,490,490,490,490,490,490,490,490,490,490,490,490,490,490,490,490,490,490,490,490,490,490,490,490,490,490,490,490,490,490,490,441,366,305,301,275,244,218,204,201,201,201,201,201,200,196,173,163,163,159,156,156,155,148,132,115,82,70,64],"timestamp_mouse":[12,30,50,71,91,109,130,149,171,190,210,229,250,270,290,310,330,350,371,390,410,430,449,471,490,510,531,550,570,591,610,630,650,669,691,710,731,750,770,790,809,831,850,870,889,910,929,949,970,990,1009,1031,1051,1070,1089,1110,1130,1149,1170,1191,1210,1229,1249,1269,1289,1309,1329,1350],"xSR":741.5,"ySR":469.95,"xT1":424.9,"yT1":0,"xT2":1058.1,"yT2":0,"toosoon":0,"cond_shown":"randomdotsizeEA","ratio_trial":250,"smaller_num":"3","larger_num":"12","correct_side":2,"subjID":"zharifsujeyrinconmaza16","gender":"1","age":"9","school":"4"},{"start_time":1552055026734,"click_time":1552055027721,"finger_time":1552055027360,"fix_duration":250,"trial":2,"RT":626,"MT":361,"sideResp":2,"stimulus":"img/500/randomdotsizeEA/L/10_Ratio_500_L_4_R_2.png","xmouse":[765,765,768,771,771,772,772,772,772,772,772,772,772,772,772,772,772,772,772,772,772,772,772,772,772,772,772,772,772,785,796,837,907,923,940,949,957,966,969,977,983,987,994,995,999,1007,1020,1063,1076,1088],"ymouse":[478,478,483,490,493,494,494,494,494,494,494,494,494,494,494,494,494,494,494,494,494,494,494,494,494,494,494,494,494,485,474,447,389,369,335,308,282,232,224,204,190,175,163,162,161,160,155,120,100,84],"timestamp_mouse":[6,27,47,66,86,108,126,146,168,187,207,226,247,267,287,306,326,347,367,387,406,426,447,467,487,506,527,547,568,586,606,626,646,666,688,706,727,747,766,787,808,828,846,866,886,906,926,947,968,987],"xSR":741.5,"ySR":469.95,"xT1":424.9,"yT1":0,"xT2":1058.1,"yT2":0,"toosoon":0,"cond_shown":"randomdotsizeEA","ratio_trial":500,"smaller_num":"2","larger_num":"4","correct_side":1,"subjID":"zharifsujeyrinconmaza16","gender":"1","age":"9","school":"4"},{"start_time":1552055034204,"click_time":1552055037904,"finger_time":1552055037305,"fix_duration":1398.8653484761626,"trial":3,"RT":3101,"MT":599,"sideResp":1,"stimulus":"img/250/randomdotsizeEA/L/15_Ratio_250_L_12_R_3.png","xmouse":[781,781,781,781,781,781,781,781,781,781,781,781,781,781,781,781,781,781,781,781,781,781,781,781,781,781,781,781,781,781,781,781,781,781,781,781,781,781,781,781,781,781,781,781,781,781,781,781,781,781,781,781,781,781,781,781,781,781,781,781,781,781,781,781,781,781,781,781,781,781,781,781,781,781,781,781,781,781,781,781,781,793,808,806,801,780,769,767,767,767,767,767,767,767,767,767,767,767,767,767,767,767,767,767,767,767,767,767,767,767,767,767,767,767,767,767,767,767,767,767,767,767,767,767,767,767,767,767,767,767,767,767,767,767,767,767,767,767,767,767,767,767,767,767,767,767,767,767,767,767,767,767,767,767,758,724,696,669,650,614,595,586,585,585,579,579,575,571,568,567,565,562,559,555,545,540,536,534,533,526,519,512,509,506,503,500],"ymouse":[539,539,539,539,539,539,539,539,539,539,539,539,539,539,539,539,539,539,539,539,539,539,539,539,539,539,539,539,539,539,539,539,539,539,539,539,539,539,539,539,539,539,539,539,539,539,539,539,539,539,539,539,539,539,539,539,539,539,539,539,539,539,539,539,539,539,539,539,539,539,539,539,539,539,539,539,539,539,539,539,539,539,511,509,509,511,525,531,533,543,543,543,543,543,543,543,543,543,543,543,543,543,543,543,543,543,543,543,543,543,543,543,543,543,543,543,543,543,543,543,543,543,543,543,543,543,543,543,543,543,543,543,543,543,543,543,543,543,543,543,543,543,543,543,543,543,543,543,543,543,543,543,543,543,541,521,502,483,468,439,426,417,417,417,405,405,399,391,384,375,368,349,338,324,297,280,269,259,248,225,205,177,158,144,111,97],"timestamp_mouse":[1,19,40,60,79,99,120,139,159,180,199,219,239,260,280,300,319,339,359,379,399,419,439,459,479,500,519,539,559,579,600,620,639,661,679,699,720,740,760,779,799,819,840,860,879,899,919,940,959,979,1000,1020,1039,1059,1079,1099,1119,1139,1160,1180,1199,1221,1239,1259,1279,1299,1320,1339,1359,1379,1400,1420,1439,1459,1479,1500,1521,1539,1559,1580,1600,1619,1639,1659,1679,1699,1720,1740,1760,1780,1800,1820,1839,1859,1879,1901,1919,1939,1960,1980,1999,2021,2040,2060,2080,2100,2119,2140,2160,2179,2199,2220,2239,2260,2279,2300,2321,2339,2360,2379,2399,2419,2439,2459,2480,2501,2520,2539,2559,2579,2600,2619,2640,2659,2679,2699,2719,2740,2759,2780,2799,2819,2839,2859,2879,2900,2920,2939,2959,2979,3000,3020,3040,3060,3079,3101,3119,3139,3160,3179,3200,3219,3240,3259,3279,3299,3320,3339,3360,3379,3400,3419,3439,3460,3480,3499,3520,3539,3559,3579,3600,3619,3640,3659,3680,3700],"xSR":741.5,"ySR":469.95,"xT1":424.9,"yT1":0,"xT2":1058.1,"yT2":0,"toosoon":0,"cond_shown":"randomdotsizeEA","ratio_trial":250,"smaller_num":"3","larger_num":"12","correct_side":1,"subjID":"zharifsujeyrinconmaza16","gender":"1","age":"9","school":"4"},{"start_time":1552055039527,"click_time":1552055081704,"finger_time":1552055080323,"fix_duration":543.7248226241855,"trial":4,"RT":40796,"MT":1381,"sideResp":1,"stimulus":"img/900/equaldotanddens/R/12_Ratio_900_L_18_R_20.png","xmouse":[773,773,773,773,773,773,773,773,773,773,773,773,773,773,773,773,773,773,773,773,773,773,773,773,773,773,773,773,773,773,773,773,773,773,773,773,773,773,773,773,773,773,773,773,773,773,773,773,773,773,773,773,773,773,773,773,773,773,773,773,773,773,773,773,773,773,773,773,773,773,773,773,773,773,773,773,773,773,773,773,773,773,773,773,773,773,773,773,773,773,773,773,773,773,773,773,773,773,773,773,773,773,773,773,773,773,773,773,773,773,773,773,773,773,773,773,773,773,773,773,773,773,773,773,773,773,773,773,773,773,773,773,773,773,773,773,773,773,773,773,773,773,773,773,773,773,773,773,773,773,773,773,773,773,773,773,773,773,773,773,773,773,773,773,773,773,773,773,773,773,773,773,773,773,773,773,773,773,773,773,773,773,773,773,773,773,773,773,773,773,773,773,773,773,773,773,773,773,773,773,773,773,773,773,773,773,773,773,773,773,773,773,773,773,773,773,773,773,773,773,773,773,773,773,773,773,773,773,773,773,773,773,773,773,773,773,773,773,773,773,773,773,773,773,773,773,773,773,773,773,773,773,773,773,773,773,773,773,773,773,773,773,773,773,773,773,773,773,773,773,773,773,773,773,773,773,773,773,773,773,773,773,773,773,773,773,773,773,773,773,773,773,773,773,773,773,773,773,773,773,773,773,773,773,773,773,773,773,773,773,773,773,773,773,773,773,773,773,773,773,773,773,773,773,773,773,773,773,773,773,773,773,773,773,773,773,773,773,773,773,773,773,773,773,773,773,773,773,773,773,773,773,773,773,773,773,773,773,773,773,773,773,773,773,773,773,773,773,773,773,773,773,773,773,773,773,773,773,773,773,773,773,773,773,773,773,773,773,773,773,773,773,773,773,773,773,773,773,773,773,773,773,773,773,773,773,773,773,773,773,773,773,773,773,773,773,773,773,773,773,773,773,773,773,773,773,773,773,773,773,773,773,773,773,773,773,773,773,773,773,773,773,773,773,773,773,773,773,773,773,773,773,773,773,773,773,773,773,773,773,773,773,773,773,773,773,773,773,773,773,773,773,773,773,773,773,773,773,773,773,773,773,773,773,773,773,773,773,773,773,773,773,773,773,773,773,773,773,773,773,773,773,773,773,773,773,773,773,773,773,773,773,773,773,773,773,773,773,773,773,773,773,773,773,773,773,773,773,773,773,773,773,773,773,773,773,773,773,773,773,773,773,773,773,773,773,773,773,773,773,773,773,773,773,773,773,773,773,773,773,773,773,773,773,773,773,773,773,773,773,773,773,773,773,773,773,773,773,773,773,773,773,773,773,773,773,773,773,773,773,773,773,773,773,773,773,773,773,773,773,773,773,773,773,773,773,773,773,773,773,773,773,773,773,773,773,773,773,773,773,773,773,773,773,773,773,773,773,773,773,773,773,773,773,773,773,773,773,773,773,773,773,773,773,773,773,773,773,773,773,773,773,773,773,773,773,773,773,773,773,773,773,773,773,773,773,773,773,773,773,773,773,773,773,773,773,773,773,773,773,773,773,773,773,773,773,773,773,773,773,773,773,773,773,773,773,773,773,773,773,773,773,773,773,773,773,773,773,773,773,773,773,773,773,773,773,773,773,773,773,773,773,773,773,773,773,773,773,773,773,773,773,773,773,773,773,773,773,773,773,773,773,773,773,773,773,773,773,773,773,773,773,773,773,773,773,773,773,773,773,773,773,773,773,773,773,773,773,773,773,773,773,773,773,773,773,773,773,773,773,773,773,773,773,773,773,773,773,773,773,773,773,773,773,773,773,773,773,773,773,773,773,773,773,773,773,773,773,773,773,773,773,773,773,773,773,773,773,773,773,773,773,773,773,773,773,773,773,773,773,773,773,773,773,773,773,773,773,773,773,773,773,773,773,773,773,773,773,773,773,773,773,773,773,773,773,773,773,773,773,773,773,773,773,773,773,773,773,773,773,773,773,773,773,773,773,773,773,773,773,773,773,773,773,773,773,773,773,773,773,773,773,773,773,773,773,773,773,773,773,773,773,773,773,773,773,773,773,773,773,773,773,773,773,773,773,773,773,773,773,773,773,773,773,773,773,773,773,773,773,773,773,773,773,773,773,773,773,773,773,773,773,773,773,773,773,773,773,773,773,773,773,773,773,773,773,773,773,773,773,773,773,773,773,773,773,773,773,773,773,773,773,773,773,773,773,773,773,773,773,773,773,773,773,773,773,773,773,773,773,773,773,773,773,773,773,773,773,773,773,773,773,773,773,773,773,773,773,773,773,773,773,773,773,773,773,773,773,773,773,773,773,773,773,773,773,773,773,773,773,773,773,773,773,773,773,773,773,773,773,773,773,773,773,773,773,773,773,773,773,773,773,773,773,773,773,773,773,773,773,773,773,773,773,773,773,773,773,773,773,773,773,773,773,773,773,773,773,773,773,773,773,773,773,773,773,773,773,773,773,773,773,773,773,773,773,773,773,773,773,773,773,773,773,773,773,773,773,773,773,773,773,773,773,773,773,773,773,773,773,773,773,773,773,773,773,773,773,773,773,773,773,773,773,773,773,773,773,773,773,773,773,773,773,773,773,773,773,773,773,773,773,773,773,773,773,773,773,773,773,773,773,773,773,773,773,773,773,773,773,773,773,773,773,773,773,773,773,773,773,773,773,773,773,773,773,773,773,773,773,773,773,773,773,773,773,773,773,773,773,773,773,773,773,773,773,773,773,773,773,773,773,773,773,773,773,773,773,773,773,773,773,773,773,773,773,773,773,773,773,773,773,773,773,773,773,773,773,773,773,773,773,773,773,773,773,773,773,773,773,773,773,773,773,773,773,773,773,773,773,773,773,773,773,773,773,773,773,773,773,773,773,773,773,773,773,773,773,773,773,773,773,773,773,773,773,773,773,773,773,773,773,773,773,773,773,773,773,773,773,773,773,773,773,773,773,773,773,773,773,773,773,773,773,773,773,773,773,773,773,773,773,773,773,773,773,773,773,773,773,773,773,773,773,773,773,773,773,773,773,773,773,773,773,773,773,773,773,773,773,773,773,773,773,773,773,773,773,773,773,773,773,773,773,773,773,773,773,773,773,773,773,773,773,773,773,773,773,773,773,773,773,773,773,773,773,773,773,773,773,773,773,773,773,773,773,773,773,773,773,773,773,773,773,773,773,773,773,773,773,773,773,773,773,773,773,773,773,773,773,773,773,773,773,773,773,773,773,773,773,773,773,773,773,773,773,773,773,773,773,773,773,773,773,773,773,773,773,773,773,773,773,773,773,773,773,773,773,773,773,773,773,773,773,773,773,773,773,773,773,773,773,773,773,773,773,773,773,773,773,773,773,773,773,773,773,773,773,773,773,773,773,773,773,773,773,773,773,773,773,773,773,773,773,773,773,773,773,773,773,773,773,773,773,773,773,773,773,773,773,773,773,773,773,773,773,773,773,773,773,773,773,773,773,773,773,773,773,773,773,773,773,773,773,773,773,773,773,773,773,773,773,773,773,773,773,773,773,773,773,773,773,773,773,773,773,773,773,773,773,773,773,773,773,773,773,773,773,773,773,773,773,773,773,773,773,773,773,773,773,773,773,773,773,773,773,773,773,773,773,773,773,773,773,773,773,773,773,773,773,773,773,773,773,773,773,773,773,773,773,773,773,773,773,773,773,773,773,773,773,773,773,773,773,773,773,773,773,773,773,773,773,773,773,773,773,773,773,773,773,773,773,773,773,773,773,773,773,773,773,773,773,773,773,773,773,773,773,773,773,773,773,773,773,773,773,773,773,773,773,773,773,773,773,773,773,773,773,773,773,773,773,773,773,773,773,773,773,773,773,773,773,773,773,773,773,773,773,773,773,773,773,773,773,773,773,773,773,773,773,773,773,773,773,773,773,773,773,773,773,773,773,773,773,773,773,773,773,773,773,773,773,773,773,773,773,773,773,773,773,773,773,773,773,773,773,773,773,773,773,773,773,773,773,773,773,773,773,773,773,773,773,773,773,773,773,773,773,773,773,773,773,773,773,773,773,773,773,773,773,773,773,773,773,773,773,773,773,773,773,773,773,773,773,773,773,773,773,773,773,773,773,773,773,773,773,773,773,773,773,773,773,773,773,773,773,773,773,773,773,773,773,773,773,773,773,773,773,773,773,773,773,773,773,773,773,773,773,773,773,773,773,773,773,773,773,773,773,773,773,773,773,773,773,773,773,773,773,773,773,773,773,773,773,773,773,773,773,773,773,773,773,773,773,773,773,773,773,773,773,773,773,773,773,773,773,773,773,773,773,773,773,773,773,773,773,773,773,773,773,773,773,773,773,773,773,773,773,773,773,773,773,773,773,773,773,773,773,773,773,773,773,773,773,773,773,773,773,773,773,773,773,773,773,773,773,773,773,773,773,773,773,773,773,773,773,773,773,773,773,773,773,773,773,773,773,773,773,773,773,773,773,773,773,773,773,773,773,773,773,773,773,773,773,773,773,773,773,773,773,773,773,773,773,773,773,773,773,773,773,773,773,773,773,773,773,773,773,773,773,773,773,773,773,773,773,773,773,773,780,786,792,792,792,792,792,792,792,792,792,792,792,792,792,792,791,789,788,788,786,783,776,739,668,617,568,527,479,467,462,462,462,462,462,462,462,462,465,465,465,465,467,472,475,480,486,487,487,487,487,487,487,487,486,484,484,484,484,484,484,484,484,484,484,484,484,484,484,484,485,485,485,488,488,490,494,501,521,539,548,550,550,550,550,550,548,544,528,523],"ymouse":[518,518,518,518,518,518,518,518,518,518,518,518,518,518,518,518,518,518,518,518,518,518,518,518,518,518,518,518,518,518,518,518,518,518,518,518,518,518,518,518,518,518,518,518,518,518,518,518,518,518,518,518,518,518,518,518,518,518,518,518,518,518,518,518,518,518,518,518,518,518,518,518,518,518,518,518,518,518,518,518,518,518,518,518,518,518,518,518,518,518,518,518,518,518,518,518,518,518,518,518,518,518,518,518,518,518,518,518,518,518,518,518,518,518,518,518,518,518,518,518,518,518,518,518,518,518,518,518,518,518,518,518,518,518,518,518,518,518,518,518,518,518,518,518,518,518,518,518,518,518,518,518,518,518,518,518,518,518,518,518,518,518,518,518,518,518,518,518,518,518,518,518,518,518,518,518,518,518,518,518,518,518,518,518,518,518,518,518,518,518,518,518,518,518,518,518,518,518,518,518,518,518,518,518,518,518,518,518,518,518,518,518,518,518,518,518,518,518,518,518,518,518,518,518,518,518,518,518,518,518,518,518,518,518,518,518,518,518,518,518,518,518,518,518,518,518,518,518,518,518,518,518,518,518,518,518,518,518,518,518,518,518,518,518,518,518,518,518,518,518,518,518,518,518,518,518,518,518,518,518,518,518,518,518,518,518,518,518,518,518,518,518,518,518,518,518,518,518,518,518,518,518,518,518,518,518,518,518,518,518,518,518,518,518,518,518,518,518,518,518,518,518,518,518,518,518,518,518,518,518,518,518,518,518,518,518,518,518,518,518,518,518,518,518,518,518,518,518,518,518,518,518,518,518,518,518,518,518,518,518,518,518,518,518,518,518,518,518,518,518,518,518,518,518,518,518,518,518,518,518,518,518,518,518,518,518,518,518,518,518,518,518,518,518,518,518,518,518,518,518,518,518,518,518,518,518,518,518,518,518,518,518,518,518,518,518,518,518,518,518,518,518,518,518,518,518,518,518,518,518,518,518,518,518,518,518,518,518,518,518,518,518,518,518,518,518,518,518,518,518,518,518,518,518,518,518,518,518,518,518,518,518,518,518,518,518,518,518,518,518,518,518,518,518,518,518,518,518,518,518,518,518,518,518,518,518,518,518,518,518,518,518,518,518,518,518,518,518,518,518,518,518,518,518,518,518,518,518,518,518,518,518,518,518,518,518,518,518,518,518,518,518,518,518,518,518,518,518,518,518,518,518,518,518,518,518,518,518,518,518,518,518,518,518,518,518,518,518,518,518,518,518,518,518,518,518,518,518,518,518,518,518,518,518,518,518,518,518,518,518,518,518,518,518,518,518,518,518,518,518,518,518,518,518,518,518,518,518,518,518,518,518,518,518,518,518,518,518,518,518,518,518,518,518,518,518,518,518,518,518,518,518,518,518,518,518,518,518,518,518,518,518,518,518,518,518,518,518,518,518,518,518,518,518,518,518,518,518,518,518,518,518,518,518,518,518,518,518,518,518,518,518,518,518,518,518,518,518,518,518,518,518,518,518,518,518,518,518,518,518,518,518,518,518,518,518,518,518,518,518,518,518,518,518,518,518,518,518,518,518,518,518,518,518,518,518,518,518,518,518,518,518,518,518,518,518,518,518,518,518,518,518,518,518,518,518,518,518,518,518,518,518,518,518,518,518,518,518,518,518,518,518,518,518,518,518,518,518,518,518,518,518,518,518,518,518,518,518,518,518,518,518,518,518,518,518,518,518,518,518,518,518,518,518,518,518,518,518,518,518,518,518,518,518,518,518,518,518,518,518,518,518,518,518,518,518,518,518,518,518,518,518,518,518,518,518,518,518,518,518,518,518,518,518,518,518,518,518,518,518,518,518,518,518,518,518,518,518,518,518,518,518,518,518,518,518,518,518,518,518,518,518,518,518,518,518,518,518,518,518,518,518,518,518,518,518,518,518,518,518,518,518,518,518,518,518,518,518,518,518,518,518,518,518,518,518,518,518,518,518,518,518,518,518,518,518,518,518,518,518,518,518,518,518,518,518,518,518,518,518,518,518,518,518,518,518,518,518,518,518,518,518,518,518,518,518,518,518,518,518,518,518,518,518,518,518,518,518,518,518,518,518,518,518,518,518,518,518,518,518,518,518,518,518,518,518,518,518,518,518,518,518,518,518,518,518,518,518,518,518,518,518,518,518,518,518,518,518,518,518,518,518,518,518,518,518,518,518,518,518,518,518,518,518,518,518,518,518,518,518,518,518,518,518,518,518,518,518,518,518,518,518,518,518,518,518,518,518,518,518,518,518,518,518,518,518,518,518,518,518,518,518,518,518,518,518,518,518,518,518,518,518,518,518,518,518,518,518,518,518,518,518,518,518,518,518,518,518,518,518,518,518,518,518,518,518,518,518,518,518,518,518,518,518,518,518,518,518,518,518,518,518,518,518,518,518,518,518,518,518,518,518,518,518,518,518,518,518,518,518,518,518,518,518,518,518,518,518,518,518,518,518,518,518,518,518,518,518,518,518,518,518,518,518,518,518,518,518,518,518,518,518,518,518,518,518,518,518,518,518,518,518,518,518,518,518,518,518,518,518,518,518,518,518,518,518,518,518,518,518,518,518,518,518,518,518,518,518,518,518,518,518,518,518,518,518,518,518,518,518,518,518,518,518,518,518,518,518,518,518,518,518,518,518,518,518,518,518,518,518,518,518,518,518,518,518,518,518,518,518,518,518,518,518,518,518,518,518,518,518,518,518,518,518,518,518,518,518,518,518,518,518,518,518,518,518,518,518,518,518,518,518,518,518,518,518,518,518,518,518,518,518,518,518,518,518,518,518,518,518,518,518,518,518,518,518,518,518,518,518,518,518,518,518,518,518,518,518,518,518,518,518,518,518,518,518,518,518,518,518,518,518,518,518,518,518,518,518,518,518,518,518,518,518,518,518,518,518,518,518,518,518,518,518,518,518,518,518,518,518,518,518,518,518,518,518,518,518,518,518,518,518,518,518,518,518,518,518,518,518,518,518,518,518,518,518,518,518,518,518,518,518,518,518,518,518,518,518,518,518,518,518,518,518,518,518,518,518,518,518,518,518,518,518,518,518,518,518,518,518,518,518,518,518,518,518,518,518,518,518,518,518,518,518,518,518,518,518,518,518,518,518,518,518,518,518,518,518,518,518,518,518,518,518,518,518,518,518,518,518,518,518,518,518,518,518,518,518,518,518,518,518,518,518,518,518,518,518,518,518,518,518,518,518,518,518,518,518,518,518,518,518,518,518,518,518,518,518,518,518,518,518,518,518,518,518,518,518,518,518,518,518,518,518,518,518,518,518,518,518,518,518,518,518,518,518,518,518,518,518,518,518,518,518,518,518,518,518,518,518,518,518,518,518,518,518,518,518,518,518,518,518,518,518,518,518,518,518,518,518,518,518,518,518,518,518,518,518,518,518,518,518,518,518,518,518,518,518,518,518,518,518,518,518,518,518,518,518,518,518,518,518,518,518,518,518,518,518,518,518,518,518,518,518,518,518,518,518,518,518,518,518,518,518,518,518,518,518,518,518,518,518,518,518,518,518,518,518,518,518,518,518,518,518,518,518,518,518,518,518,518,518,518,518,518,518,518,518,518,518,518,518,518,518,518,518,518,518,518,518,518,518,518,518,518,518,518,518,518,518,518,518,518,518,518,518,518,518,518,518,518,518,518,518,518,518,518,518,518,518,518,518,518,518,518,518,518,518,518,518,518,518,518,518,518,518,518,518,518,518,518,518,518,518,518,518,518,518,518,518,518,518,518,518,518,518,518,518,518,518,518,518,518,518,518,518,518,518,518,518,518,518,518,518,518,518,518,518,518,518,518,518,518,518,518,518,518,518,518,518,518,518,518,518,518,518,518,518,518,518,518,518,518,518,518,518,518,518,518,518,518,518,518,518,518,518,518,518,518,518,518,518,518,518,518,518,518,518,518,518,518,518,518,518,518,518,518,518,518,518,518,518,518,518,518,518,518,518,518,518,518,518,518,518,518,518,518,518,518,518,518,518,518,518,518,518,518,518,518,518,518,518,518,518,518,518,518,518,518,518,518,518,518,518,518,518,518,518,518,518,518,518,518,518,518,518,518,518,518,518,518,518,518,518,518,518,518,518,518,518,518,518,518,518,518,518,518,518,518,518,518,518,518,518,518,518,518,518,518,518,518,518,518,518,518,518,518,518,518,518,518,518,518,518,518,518,518,518,518,518,518,518,518,518,518,518,518,518,518,518,518,518,518,518,518,518,518,518,518,518,518,518,518,518,518,518,518,518,518,518,518,518,518,518,518,518,518,518,518,518,518,518,518,518,518,518,518,518,518,518,518,518,518,518,518,518,518,518,518,518,518,518,518,518,518,518,518,518,518,518,518,518,518,518,518,518,518,518,518,518,518,518,518,518,518,518,518,518,518,518,518,518,518,518,518,518,518,518,518,518,518,518,518,518,518,518,518,518,518,518,518,518,518,518,518,518,518,518,518,518,518,518,518,518,518,518,518,518,518,518,518,518,518,518,518,518,518,518,518,518,518,518,518,518,518,518,518,518,518,518,518,518,518,518,518,518,518,518,518,518,513,506,506,506,506,506,506,506,506,506,506,506,506,506,505,500,494,483,473,461,450,438,396,358,338,317,295,281,273,269,269,269,269,269,269,269,264,245,236,226,221,215,204,198,193,188,188,188,188,188,188,187,184,182,177,177,176,175,174,172,171,170,169,167,166,165,163,159,157,154,153,151,146,145,143,140,134,123,116,113,112,112,111,109,106,101,94,76,70],"timestamp_mouse":[16,36,57,76,96,116,137,157,176,196,216,236,257,276,296,316,337,356,376,396,416,437,458,477,497,516,537,557,576,597,618,636,657,676,697,716,737,756,776,796,817,836,856,876,896,916,937,956,978,998,1017,1036,1057,1076,1098,1117,1137,1157,1177,1197,1217,1237,1256,1277,1297,1317,1337,1356,1376,1397,1417,1437,1458,1476,1496,1517,1536,1556,1578,1597,1616,1636,1656,1677,1697,1718,1737,1756,1776,1797,1817,1837,1856,1877,1897,1917,1936,1957,1977,1997,2016,2037,2056,2077,2096,2116,2136,2157,2178,2197,2216,2237,2257,2277,2296,2316,2337,2356,2376,2397,2416,2437,2456,2476,2497,2517,2537,2557,2577,2597,2618,2636,2656,2676,2697,2716,2736,2756,2776,2797,2817,2837,2856,2877,2896,2916,2937,2956,2977,2998,3016,3036,3056,3076,3097,3117,3136,3156,3176,3196,3216,3236,3257,3276,3297,3316,3336,3356,3377,3398,3417,3436,3456,3476,3497,3516,3536,3556,3577,3597,3616,3637,3656,3678,3696,3717,3736,3756,3777,3797,3818,3836,3857,3877,3896,3917,3937,3957,3976,3997,4016,4037,4056,4077,4096,4116,4136,4156,4177,4196,4216,4236,4256,4276,4296,4317,4336,4356,4376,4396,4416,4436,4456,4477,4496,4517,4536,4556,4576,4596,4617,4636,4656,4677,4697,4716,4737,4756,4777,4797,4816,4836,4856,4876,4898,4917,4936,4956,4977,4996,5016,5036,5056,5076,5096,5116,5136,5156,5176,5197,5216,5236,5256,5278,5296,5316,5336,5356,5377,5398,5417,5436,5456,5478,5497,5517,5536,5556,5577,5597,5616,5636,5657,5676,5698,5717,5737,5756,5776,5796,5816,5837,5857,5877,5897,5918,5936,5957,5976,5997,6016,6037,6056,6077,6097,6116,6136,6157,6177,6197,6216,6236,6257,6276,6296,6316,6337,6356,6376,6397,6416,6438,6457,6477,6496,6517,6536,6556,6577,6596,6618,6637,6656,6678,6697,6716,6736,6756,6777,6797,6817,6837,6857,6878,6897,6916,6937,6957,6976,6996,7016,7037,7057,7077,7096,7117,7137,7156,7178,7197,7216,7237,7258,7276,7296,7316,7336,7356,7377,7397,7417,7436,7456,7477,7496,7516,7536,7556,7577,7598,7617,7637,7656,7678,7697,7716,7736,7756,7777,7796,7817,7837,7857,7877,7897,7916,7936,7956,7978,7997,8017,8037,8056,8077,8098,8116,8137,8156,8177,8197,8217,8236,8256,8278,8297,8317,8336,8356,8376,8396,8416,8437,8457,8477,8497,8516,8537,8556,8577,8598,8617,8636,8656,8677,8697,8716,8737,8756,8777,8797,8816,8837,8856,8876,8896,8917,8936,8956,8976,8997,9017,9036,9056,9077,9096,9117,9136,9157,9177,9197,9216,9236,9256,9277,9297,9317,9337,9356,9376,9397,9418,9436,9456,9476,9496,9518,9537,9556,9577,9597,9616,9637,9657,9677,9697,9717,9736,9756,9777,9797,9818,9837,9857,9877,9897,9916,9937,9956,9977,9997,10017,10037,10056,10077,10096,10117,10136,10156,10177,10196,10216,10237,10256,10276,10298,10316,10337,10356,10376,10398,10416,10436,10456,10476,10497,10516,10536,10556,10576,10597,10616,10636,10656,10676,10696,10716,10737,10757,10776,10797,10816,10837,10856,10876,10897,10916,10936,10957,10976,10996,11016,11037,11057,11076,11096,11116,11136,11157,11177,11197,11216,11236,11256,11276,11296,11317,11337,11356,11376,11396,11416,11436,11457,11476,11496,11516,11537,11556,11576,11597,11616,11637,11657,11677,11697,11717,11736,11756,11776,11797,11817,11837,11856,11876,11898,11917,11936,11957,11977,11997,12017,12036,12056,12076,12096,12116,12136,12158,12176,12197,12216,12236,12256,12277,12296,12316,12336,12356,12376,12398,12417,12436,12456,12477,12496,12517,12536,12556,12576,12597,12617,12636,12656,12676,12697,12716,12736,12756,12776,12796,12817,12837,12857,12876,12896,12916,12936,12956,12977,12996,13016,13037,13057,13076,13097,13117,13137,13157,13177,13197,13216,13237,13256,13277,13298,13316,13336,13356,13378,13396,13416,13436,13456,13476,13496,13516,13537,13557,13577,13597,13618,13636,13656,13677,13697,13717,13736,13756,13777,13796,13817,13836,13856,13877,13897,13918,13936,13956,13976,13996,14016,14036,14056,14077,14097,14116,14137,14157,14176,14197,14216,14236,14256,14277,14297,14316,14336,14357,14376,14396,14416,14437,14456,14477,14496,14516,14536,14557,14576,14597,14617,14636,14657,14676,14696,14716,14737,14757,14777,14796,14817,14836,14856,14876,14896,14916,14937,14957,14977,14996,15016,15036,15057,15077,15096,15116,15136,15156,15176,15196,15216,15236,15257,15277,15296,15316,15336,15356,15376,15397,15416,15436,15456,15477,15496,15516,15536,15556,15577,15596,15616,15636,15656,15676,15696,15717,15737,15756,15777,15797,15818,15837,15856,15876,15897,15916,15936,15956,15977,15997,16016,16036,16056,16077,16097,16116,16137,16156,16176,16197,16217,16236,16256,16277,16298,16317,16336,16356,16377,16398,16417,16437,16456,16477,16497,16518,16537,16556,16576,16597,16616,16637,16657,16677,16698,16717,16737,16756,16777,16797,16816,16836,16857,16876,16898,16917,16937,16957,16978,16996,17017,17036,17056,17077,17096,17116,17136,17156,17176,17196,17217,17236,17256,17277,17296,17317,17337,17357,17376,17396,17418,17436,17456,17476,17497,17517,17537,17556,17576,17597,17616,17636,17656,17677,17697,17716,17736,17756,17777,17797,17817,17836,17856,17877,17898,17916,17937,17956,17978,17996,18016,18036,18057,18077,18097,18118,18137,18157,18177,18198,18216,18237,18257,18277,18296,18317,18336,18356,18378,18397,18417,18437,18457,18476,18497,18517,18537,18556,18576,18596,18617,18637,18656,18678,18696,18717,18737,18757,18776,18797,18817,18837,18856,18877,18898,18916,18937,18956,18977,18997,19018,19037,19056,19077,19096,19118,19136,19156,19176,19198,19216,19237,19256,19276,19297,19317,19338,19356,19376,19397,19417,19437,19456,19477,19497,19517,19536,19557,19578,19597,19617,19636,19657,19677,19696,19716,19737,19756,19776,19796,19817,19836,19857,19878,19897,19916,19936,19956,19977,19996,20016,20037,20056,20076,20097,20116,20136,20156,20176,20197,20216,20237,20257,20278,20297,20323,20336,20356,20377,20396,20416,20436,20456,20476,20498,20517,20536,20556,20577,20596,20616,20636,20657,20677,20696,20717,20737,20757,20777,20797,20817,20836,20856,20877,20897,20916,20937,20956,20977,20996,21017,21036,21056,21077,21098,21118,21136,21156,21177,21198,21217,21237,21256,21277,21296,21316,21337,21356,21376,21396,21417,21436,21456,21477,21498,21516,21537,21556,21577,21596,21616,21637,21656,21676,21697,21717,21736,21756,21777,21796,21816,21836,21857,21876,21896,21916,21937,21957,21977,21997,22017,22036,22056,22078,22096,22116,22136,22156,22176,22197,22218,22238,22257,22277,22297,22316,22337,22357,22377,22398,22416,22436,22456,22476,22498,22517,22537,22556,22577,22597,22616,22637,22656,22676,22697,22717,22737,22756,22777,22797,22816,22836,22858,22877,22897,22917,22936,22956,22978,22996,23016,23037,23056,23076,23097,23116,23136,23156,23177,23197,23216,23236,23256,23276,23297,23316,23337,23356,23377,23397,23417,23436,23456,23477,23496,23516,23536,23556,23577,23596,23616,23637,23656,23677,23697,23717,23737,23756,23777,23796,23816,23836,23856,23876,23896,23917,23936,23956,23977,23996,24017,24036,24056,24077,24096,24117,24137,24156,24178,24198,24217,24237,24256,24277,24297,24318,24337,24356,24377,24396,24416,24436,24456,24476,24497,24516,24538,24556,24577,24597,24617,24636,24657,24676,24696,24716,24736,24756,24777,24797,24818,24836,24857,24877,24896,24916,24937,24957,24976,24996,25016,25036,25057,25076,25096,25117,25136,25157,25176,25197,25216,25237,25257,25276,25297,25316,25337,25357,25376,25397,25417,25437,25456,25477,25496,25516,25537,25556,25576,25598,25616,25637,25656,25678,25696,25717,25736,25756,25777,25796,25817,25837,25856,25876,25896,25917,25937,25957,25977,25996,26017,26036,26056,26077,26096,26116,26136,26156,26177,26196,26217,26236,26256,26277,26296,26316,26337,26356,26376,26397,26417,26436,26456,26477,26497,26516,26537,26558,26577,26597,26616,26637,26657,26677,26697,26717,26737,26757,26777,26797,26817,26838,26857,26877,26897,26916,26936,26957,26977,26996,27017,27036,27058,27077,27096,27117,27136,27157,27176,27198,27216,27236,27257,27277,27297,27316,27336,27357,27377,27396,27417,27436,27457,27477,27496,27517,27537,27557,27577,27596,27617,27636,27656,27677,27696,27717,27737,27756,27777,27798,27816,27837,27856,27878,27896,27916,27937,27956,27976,27996,28016,28037,28056,28078,28096,28116,28136,28157,28177,28197,28218,28237,28256,28277,28297,28316,28337,28356,28376,28396,28418,28436,28456,28477,28497,28516,28537,28557,28576,28597,28617,28636,28656,28678,28696,28716,28737,28756,28777,28798,28816,28837,28856,28877,28896,28917,28936,28956,28976,28997,29017,29037,29056,29076,29097,29117,29137,29156,29177,29196,29216,29237,29256,29277,29296,29316,29336,29356,29378,29396,29418,29436,29456,29477,29498,29516,29537,29556,29576,29596,29617,29636,29657,29676,29697,29717,29736,29756,29777,29797,29817,29837,29856,29878,29896,29916,29936,29956,29977,29996,30016,30036,30056,30078,30097,30117,30137,30156,30176,30197,30217,30236,30256,30277,30296,30316,30336,30356,30376,30397,30416,30436,30456,30477,30498,30517,30536,30557,30576,30597,30617,30636,30656,30676,30696,30717,30736,30756,30777,30796,30816,30836,30856,30877,30896,30916,30936,30956,30977,30996,31018,31037,31056,31076,31097,31117,31136,31156,31176,31197,31218,31237,31256,31277,31297,31316,31336,31356,31377,31396,31416,31436,31456,31477,31497,31518,31537,31556,31577,31597,31616,31636,31656,31676,31697,31716,31737,31757,31778,31797,31817,31836,31856,31876,31896,31916,31937,31956,31976,31997,32016,32036,32057,32078,32097,32116,32136,32157,32177,32198,32216,32237,32256,32278,32296,32316,32336,32357,32376,32396,32416,32437,32457,32478,32496,32517,32536,32556,32577,32596,32616,32637,32656,32677,32697,32718,32736,32756,32777,32797,32817,32836,32856,32877,32897,32916,32937,32956,32976,32996,33016,33037,33056,33076,33098,33117,33137,33157,33176,33197,33218,33237,33257,33276,33296,33316,33337,33357,33377,33397,33416,33436,33457,33478,33497,33516,33537,33557,33578,33596,33617,33636,33656,33676,33696,33716,33736,33757,33778,33796,33817,33837,33856,33877,33898,33916,33937,33956,33977,33996,34016,34036,34056,34076,34096,34117,34136,34156,34177,34197,34216,34237,34256,34277,34297,34316,34336,34356,34376,34396,34417,34436,34456,34477,34498,34517,34537,34556,34576,34596,34616,34636,34657,34676,34697,34716,34737,34756,34777,34796,34818,34836,34857,34876,34896,34916,34936,34958,34977,34996,35017,35036,35056,35077,35096,35116,35136,35156,35177,35196,35216,35237,35256,35278,35297,35317,35336,35357,35376,35396,35417,35436,35456,35477,35498,35517,35537,35556,35577,35596,35616,35636,35656,35677,35698,35716,35737,35756,35777,35797,35817,35836,35856,35877,35896,35916,35937,35956,35977,35996,36018,36037,36056,36076,36096,36117,36137,36156,36177,36197,36217,36236,36256,36277,36298,36316,36336,36356,36377,36396,36417,36436,36456,36477,36496,36517,36537,36556,36577,36597,36616,36637,36657,36676,36697,36716,36737,36757,36777,36797,36817,36836,36856,36876,36897,36917,36937,36956,36977,36996,37016,37037,37056,37076,37096,37117,37137,37157,37176,37197,37217,37237,37256,37276,37297,37317,37337,37358,37376,37396,37417,37437,37456,37477,37496,37516,37537,37556,37577,37597,37616,37636,37656,37676,37697,37716,37736,37757,37778,37796,37817,37836,37856,37878,37896,37916,37936,37956,37977,37996,38016,38037,38056,38078,38096,38116,38136,38156,38176,38197,38216,38237,38257,38277,38298,38316,38336,38356,38377,38396,38416,38436,38456,38477,38497,38516,38536,38556,38577,38597,38616,38636,38656,38676,38696,38718,38737,38756,38777,38797,38816,38837,38856,38876,38896,38916,38936,38956,38976,38996,39016,39037,39056,39076,39096,39116,39137,39156,39177,39198,39216,39236,39256,39276,39296,39316,39337,39357,39376,39396,39417,39437,39456,39476,39496,39516,39536,39557,39577,39596,39616,39636,39656,39676,39698,39717,39736,39756,39776,39797,39816,39836,39856,39876,39896,39916,39936,39957,39978,39996,40016,40036,40056,40078,40096,40116,40136,40156,40176,40196,40216,40236,40256,40278,40297,40317,40337,40357,40376,40396,40416,40437,40456,40476,40497,40517,40536,40557,40576,40597,40616,40636,40656,40677,40696,40717,40737,40756,40777,40796,40817,40837,40856,40876,40896,40916,40937,40957,40976,40997,41017,41037,41056,41077,41096,41116,41137,41156,41177,41196,41216,41237,41256,41276,41296,41316,41337,41356,41376,41396,41416,41437,41456,41477,41496,41516,41538,41556,41576,41596,41616,41636,41656,41676,41696,41716,41736,41756,41777,41796,41816,41837,41857,41876,41896,41917,41937,41956,41976,41996,42017,42036,42056,42077,42096,42116,42136,42156,42177],"xSR":741.5,"ySR":469.95,"xT1":424.9,"yT1":0,"xT2":1058.1,"yT2":0,"toosoon":0,"cond_shown":"equaldotanddens","ratio_trial":900,"smaller_num":"18","larger_num":"20","correct_side":2,"subjID":"zharifsujeyrinconmaza16","gender":"1","age":"9","school":"4"},{"start_time":1552055084377,"click_time":1552055085483,"finger_time":1552055085105,"fix_duration":1393.8375187036202,"trial":5,"RT":728,"MT":378,"sideResp":1,"stimulus":"img/750/equaldotsize/L/9_Ratio_750_L_4_R_3.png","xmouse":[794,794,794,794,794,794,794,794,794,794,794,794,794,794,794,794,794,794,794,794,794,794,794,794,794,794,794,794,794,794,794,794,794,794,793,773,737,691,647,612,565,559,559,559,557,552,548,542,534,526,514,513,511,505,501,478],"ymouse":[521,521,521,521,521,521,521,521,521,521,521,521,521,521,521,521,521,521,521,521,521,521,521,521,521,521,521,521,521,521,521,521,521,521,520,515,497,465,425,382,298,255,233,214,202,191,185,178,171,164,158,157,155,146,139,57],"timestamp_mouse":[11,26,46,66,86,106,127,146,166,186,206,227,248,266,286,306,326,346,367,387,406,427,446,467,486,506,526,546,566,586,606,628,646,667,686,706,728,747,768,788,807,826,847,866,887,906,927,946,966,986,1006,1026,1046,1066,1087,1106],"xSR":741.5,"ySR":469.95,"xT1":424.9,"yT1":0,"xT2":1058.1,"yT2":0,"toosoon":0,"cond_shown":"equaldotsize","ratio_trial":750,"smaller_num":"3","larger_num":"4","correct_side":1,"subjID":"zharifsujeyrinconmaza16","gender":"1","age":"9","school":"4"},{"start_time":1552055089562,"click_time":1552055091003,"finger_time":1552055090463,"fix_duration":1258.613556345593,"trial":6,"RT":901,"MT":540,"sideResp":1,"stimulus":"img/250/equaldotanddens/L/5_Ratio_250_L_24_R_6.png","xmouse":[794,794,794,794,794,793,788,786,786,785,785,785,785,785,785,785,785,785,785,785,785,785,785,785,785,785,785,785,785,785,785,785,785,785,785,785,785,785,785,785,785,784,777,767,754,740,722,712,703,690,676,650,632,618,595,595,595,587,584,584,583,582,579,576,574,571,568,566,563,555,541,510,496],"ymouse":[539,539,539,539,539,537,528,526,524,524,523,522,522,522,521,521,521,521,521,521,521,521,521,521,521,521,521,519,518,518,518,518,518,518,518,518,518,518,518,518,518,516,511,505,493,479,458,447,437,420,402,366,345,327,298,297,297,285,282,280,278,273,250,232,220,212,204,199,191,176,155,113,98],"timestamp_mouse":[6,25,42,61,82,101,121,141,161,181,202,221,242,262,281,302,321,341,361,381,401,422,441,461,481,502,521,541,561,581,601,621,641,662,681,701,721,741,762,781,802,821,841,861,882,901,921,941,961,981,1001,1021,1042,1061,1081,1102,1121,1141,1161,1182,1201,1221,1241,1263,1282,1302,1322,1342,1361,1382,1402,1421,1441],"xSR":741.5,"ySR":469.95,"xT1":424.9,"yT1":0,"xT2":1058.1,"yT2":0,"toosoon":0,"cond_shown":"equaldotanddens","ratio_trial":250,"smaller_num":"6","larger_num":"24","correct_side":1,"subjID":"zharifsujeyrinconmaza16","gender":"1","age":"9","school":"4"},{"start_time":1552055093386,"click_time":1552055094245,"finger_time":1552055093784,"fix_duration":1121.6476807266033,"trial":7,"RT":398,"MT":461,"sideResp":2,"stimulus":"img/250/equaldotsize/R/6_Ratio_250_L_6_R_24.png","xmouse":[792,792,792,792,792,792,792,792,792,792,792,792,792,792,792,792,792,796,802,818,824,830,845,857,882,900,916,925,931,938,954,961,972,975,982,983,984,984,984,984,1016,1041,1065],"ymouse":[496,496,496,496,496,496,496,496,496,496,496,496,496,496,496,496,496,493,485,468,460,450,431,411,361,318,283,262,248,233,199,169,124,116,76,67,64,64,64,63,58,56,52],"timestamp_mouse":[18,38,58,80,99,119,138,158,178,199,218,240,258,279,298,318,338,359,379,398,418,439,458,480,498,519,539,560,580,599,618,638,658,680,699,718,738,758,778,798,819,840,859],"xSR":741.5,"ySR":469.95,"xT1":424.9,"yT1":0,"xT2":1058.1,"yT2":0,"toosoon":0,"cond_shown":"equaldotsize","ratio_trial":250,"smaller_num":"6","larger_num":"24","correct_side":2,"subjID":"zharifsujeyrinconmaza16","gender":"1","age":"9","school":"4"},{"start_time":1552055101106,"click_time":1552055101985,"finger_time":1552055101505,"fix_duration":600.3817430510265,"trial":8,"RT":399,"MT":480,"sideResp":2,"stimulus":"img/250/equaldotanddens/R/4_Ratio_250_L_3_R_12.png","xmouse":[765,765,765,765,765,765,765,765,765,765,765,765,765,765,765,765,765,765,767,781,794,805,818,833,844,857,873,889,932,951,967,977,985,993,1008,1023,1037,1050,1065,1067,1069,1071,1075,1085],"ymouse":[481,481,481,481,481,481,481,481,481,481,481,481,481,481,481,481,481,481,482,465,455,449,437,420,407,391,374,354,301,275,256,242,231,219,200,180,162,146,124,118,113,108,101,88],"timestamp_mouse":[19,39,58,79,100,118,140,158,178,198,218,239,259,278,298,318,339,360,378,399,419,439,459,478,499,519,539,559,579,599,618,638,660,679,698,718,740,760,779,800,818,838,860,879],"xSR":741.5,"ySR":469.95,"xT1":424.9,"yT1":0,"xT2":1058.1,"yT2":0,"toosoon":0,"cond_shown":"equaldotanddens","ratio_trial":250,"smaller_num":"3","larger_num":"12","correct_side":2,"subjID":"zharifsujeyrinconmaza16","gender":"1","age":"9","school":"4"},{"start_time":1552055105963,"click_time":1552055107245,"finger_time":1552055106484,"fix_duration":1198.0766890795855,"trial":9,"RT":521,"MT":761,"sideResp":1,"stimulus":"img/900/equaldotsize/R/11_Ratio_900_L_18_R_20.png","xmouse":[771,771,771,771,771,771,771,771,771,771,771,771,770,769,769,769,769,769,769,769,769,769,769,769,769,768,747,732,715,686,641,580,548,522,512,501,479,479,479,479,479,488,495,498,501,503,503,500,500,500,500,500,500,500,500,500,500,500,500,500,500,499,490,471,454],"ymouse":[517,517,517,517,517,517,517,517,517,517,517,517,516,516,516,516,516,516,516,516,516,516,516,516,516,512,418,380,353,318,281,247,234,222,216,207,189,189,189,189,189,186,179,174,166,157,145,138,136,136,136,136,136,136,136,136,136,136,136,136,136,132,121,106,92],"timestamp_mouse":[2,21,41,62,83,101,122,142,162,182,202,222,241,262,282,302,322,342,363,383,402,421,441,462,482,502,521,541,562,582,603,622,643,662,681,703,722,741,761,782,802,821,841,863,883,903,922,943,962,982,1002,1022,1042,1063,1082,1101,1122,1141,1161,1181,1201,1222,1242,1262,1282],"xSR":741.5,"ySR":469.95,"xT1":424.9,"yT1":0,"xT2":1058.1,"yT2":0,"toosoon":0,"cond_shown":"equaldotsize","ratio_trial":900,"smaller_num":"18","larger_num":"20","correct_side":2,"subjID":"zharifsujeyrinconmaza16","gender":"1","age":"9","school":"4"},{"start_time":1552055109512,"click_time":1552055110405,"finger_time":1552055109885,"fix_duration":827.12863879162,"trial":10,"RT":373,"MT":520,"sideResp":2,"stimulus":"img/500/randomdotsizeEA/R/1_Ratio_500_L_9_R_18.png","xmouse":[791,791,791,791,791,791,791,791,791,791,791,791,791,791,791,791,794,800,823,840,846,865,874,886,899,911,919,927,940,948,954,961,973,1001,1013,1016,1018,1019,1021,1022,1022,1024,1034,1056,1082],"ymouse":[521,521,521,521,521,521,521,521,521,521,521,521,521,521,521,521,514,502,461,420,404,355,331,305,285,269,253,239,207,188,170,147,105,40,19,16,14,14,14,14,14,14,14,22,32],"timestamp_mouse":[13,32,53,72,92,113,133,153,173,192,213,232,252,273,294,312,332,353,373,392,414,433,453,473,492,512,533,553,573,593,613,633,653,672,694,714,734,754,773,794,814,834,854,873,893],"xSR":741.5,"ySR":469.95,"xT1":424.9,"yT1":0,"xT2":1058.1,"yT2":0,"toosoon":0,"cond_shown":"randomdotsizeEA","ratio_trial":500,"smaller_num":"9","larger_num":"18","correct_side":2,"subjID":"zharifsujeyrinconmaza16","gender":"1","age":"9","school":"4"},{"start_time":1552055111950,"click_time":1552055113146,"finger_time":1552055112264,"fix_duration":764.2546467829183,"trial":11,"RT":314,"MT":882,"sideResp":1,"stimulus":"img/250/equaldotsize/L/2_Ratio_250_L_16_R_4.png","xmouse":[770,770,770,770,770,770,770,770,770,770,770,772,772,773,775,777,772,758,735,708,698,674,655,655,647,635,628,623,618,613,611,608,608,608,605,593,552,542,539,539,539,544,545,545,545,545,545,545,545,545,545,545,545,545,545,545,541,531,528,518],"ymouse":[509,509,509,509,509,509,509,509,509,509,509,509,509,507,487,463,414,389,355,323,310,279,250,250,238,223,214,213,213,212,212,212,212,212,211,201,160,141,125,107,93,67,52,47,44,44,44,44,44,44,44,44,44,44,44,44,44,44,44,44],"timestamp_mouse":[14,35,56,75,94,116,134,156,176,195,214,234,256,276,295,314,334,355,375,396,416,435,454,475,495,515,535,554,574,596,616,635,654,674,694,714,734,754,775,795,815,835,855,874,895,914,935,955,975,994,1015,1034,1054,1074,1095,1115,1134,1155,1174,1196],"xSR":741.5,"ySR":469.95,"xT1":424.9,"yT1":0,"xT2":1058.1,"yT2":0,"toosoon":0,"cond_shown":"equaldotsize","ratio_trial":250,"smaller_num":"4","larger_num":"16","correct_side":1,"subjID":"zharifsujeyrinconmaza16","gender":"1","age":"9","school":"4"},{"start_time":1552055114759,"click_time":1552055115385,"finger_time":1552055115284,"fix_duration":494.58045176166576,"trial":12,"RT":525,"MT":101,"sideResp":2,"stimulus":"img/500/equaldotanddens/R/9_Ratio_500_L_2_R_4.png","xmouse":[799,799,799,799,799,799,799,799,799,799,799,799,799,799,799,799,799,799,799,799,799,799,799,799,803,809,842,879,927,970,1017,1073],"ymouse":[511,511,511,511,511,511,511,511,511,511,511,511,511,511,511,511,511,511,511,511,511,511,511,512,512,512,462,401,333,256,165,35],"timestamp_mouse":[7,26,46,65,86,106,125,145,165,187,205,225,245,267,285,305,326,347,365,385,406,426,446,467,485,505,525,545,566,586,607,626],"xSR":741.5,"ySR":469.95,"xT1":424.9,"yT1":0,"xT2":1058.1,"yT2":0,"toosoon":0,"cond_shown":"equaldotanddens","ratio_trial":500,"smaller_num":"2","larger_num":"4","correct_side":2,"subjID":"zharifsujeyrinconmaza16","gender":"1","age":"9","school":"4"},{"start_time":1552055117308,"click_time":1552055118224,"finger_time":1552055117784,"fix_duration":583.7026314778976,"trial":13,"RT":476,"MT":440,"sideResp":1,"stimulus":"img/250/equaldotsize/L/3_Ratio_250_L_8_R_2.png","xmouse":[762,762,762,762,762,762,762,762,762,762,762,762,762,762,762,762,762,762,762,761,760,757,754,738,729,718,704,695,680,680,677,670,662,642,626,615,610,610,610,606,597,577,556,521,510,510],"ymouse":[520,520,520,520,520,520,520,520,520,520,520,520,520,520,520,520,520,520,520,520,512,502,495,462,443,424,403,387,366,365,356,343,324,278,252,241,238,237,237,237,237,237,222,168,116,79],"timestamp_mouse":[16,39,58,76,97,117,137,156,177,196,217,237,257,276,296,317,336,356,377,397,417,438,457,476,497,516,536,557,577,596,617,637,656,677,697,716,736,757,777,798,817,836,857,877,898,916],"xSR":741.5,"ySR":469.95,"xT1":424.9,"yT1":0,"xT2":1058.1,"yT2":0,"toosoon":0,"cond_shown":"equaldotsize","ratio_trial":250,"smaller_num":"2","larger_num":"8","correct_side":1,"subjID":"zharifsujeyrinconmaza16","gender":"1","age":"9","school":"4"},{"start_time":1552055121828,"click_time":1552055122785,"finger_time":1552055122184,"fix_duration":383.3568709453781,"trial":14,"RT":356,"MT":601,"sideResp":2,"stimulus":"img/250/equaldotanddens/R/6_Ratio_250_L_6_R_24.png","xmouse":[762,762,762,762,762,762,762,762,762,762,762,762,762,762,763,770,796,868,913,942,965,985,1013,1023,1034,1044,1049,1065,1086,1098,1107,1114,1119,1119,1119,1119,1119,1119,1119,1119,1119,1119,1119,1119,1119,1119,1119,1132],"ymouse":[518,518,518,518,518,518,518,518,518,518,518,518,518,518,518,516,480,374,311,272,243,222,201,195,190,185,185,172,151,135,123,111,104,104,104,104,104,104,104,104,104,104,104,104,104,104,103,66],"timestamp_mouse":[17,38,57,77,97,116,136,157,178,198,216,237,257,276,298,317,338,356,378,396,416,438,457,477,496,517,536,556,576,596,618,637,656,677,697,716,737,758,776,798,817,836,856,876,898,917,938,957],"xSR":741.5,"ySR":469.95,"xT1":424.9,"yT1":0,"xT2":1058.1,"yT2":0,"toosoon":0,"cond_shown":"equaldotanddens","ratio_trial":250,"smaller_num":"6","larger_num":"24","correct_side":2,"subjID":"zharifsujeyrinconmaza16","gender":"1","age":"9","school":"4"},{"start_time":1552055124701,"click_time":1552055125425,"finger_time":1552055124965,"fix_duration":955.7223489822911,"trial":15,"RT":264,"MT":460,"sideResp":1,"stimulus":"img/500/equaldotsize/R/1_Ratio_500_L_9_R_18.png","xmouse":[796,796,796,796,796,796,796,796,796,795,789,777,761,744,708,682,673,651,630,604,595,587,582,578,570,548,537,537,526,512,510,510,512,514,519,519,519],"ymouse":[516,516,516,516,516,516,516,516,516,516,508,492,473,455,427,405,400,384,371,350,343,334,327,319,302,269,256,256,237,199,182,169,156,145,119,106,88],"timestamp_mouse":[4,24,43,65,83,103,123,144,164,183,205,223,245,264,284,304,325,344,363,383,405,424,445,464,483,503,523,544,565,583,604,624,643,663,683,705,724],"xSR":741.5,"ySR":469.95,"xT1":424.9,"yT1":0,"xT2":1058.1,"yT2":0,"toosoon":0,"cond_shown":"equaldotsize","ratio_trial":500,"smaller_num":"9","larger_num":"18","correct_side":2,"subjID":"zharifsujeyrinconmaza16","gender":"1","age":"9","school":"4"},{"start_time":1552055126735,"click_time":1552055127404,"finger_time":1552055127144,"fix_duration":250,"trial":16,"RT":409,"MT":260,"sideResp":2,"stimulus":"img/900/randomdotsizeEA/R/14_Ratio_900_L_18_R_20.png","xmouse":[800,800,800,800,800,800,800,800,800,800,800,800,800,800,800,800,801,811,819,826,833,839,863,887,902,919,936,965,988,1006,1026,1048,1084,1106],"ymouse":[504,504,504,504,504,504,504,504,504,504,504,504,504,504,504,504,504,493,481,470,460,448,415,384,366,345,327,280,250,221,188,156,105,75],"timestamp_mouse":[9,29,49,71,89,110,129,149,170,189,210,231,249,269,290,310,330,351,370,389,409,431,450,469,489,509,530,549,570,589,611,631,650,669],"xSR":741.5,"ySR":469.95,"xT1":424.9,"yT1":0,"xT2":1058.1,"yT2":0,"toosoon":0,"cond_shown":"randomdotsizeEA","ratio_trial":900,"smaller_num":"18","larger_num":"20","correct_side":2,"subjID":"zharifsujeyrinconmaza16","gender":"1","age":"9","school":"4"},{"start_time":1552055131857,"click_time":1552055132785,"finger_time":1552055132264,"fix_duration":1032.8281095888387,"trial":17,"RT":407,"MT":521,"sideResp":1,"stimulus":"img/500/equaldotsize/L/5_Ratio_500_L_4_R_2.png","xmouse":[778,778,778,778,778,778,778,778,778,778,778,778,778,778,778,778,778,778,779,779,779,779,779,778,773,767,749,735,722,705,688,651,633,616,609,594,561,547,528,514,504,496,495,495,495,495,495],"ymouse":[528,528,528,528,528,528,528,528,528,528,528,528,528,528,528,528,528,525,499,475,450,402,374,346,320,295,255,232,218,207,196,180,173,166,163,160,152,149,143,139,135,132,131,127,121,114,95],"timestamp_mouse":[7,27,48,69,87,108,127,148,169,187,208,227,249,267,288,307,329,348,367,388,407,428,449,467,487,507,528,547,567,588,608,628,649,668,689,708,728,748,767,788,809,828,847,867,888,908,928],"xSR":741.5,"ySR":469.95,"xT1":424.9,"yT1":0,"xT2":1058.1,"yT2":0,"toosoon":0,"cond_shown":"equaldotsize","ratio_trial":500,"smaller_num":"2","larger_num":"4","correct_side":1,"subjID":"zharifsujeyrinconmaza16","gender":"1","age":"9","school":"4"},{"start_time":1552055135040,"click_time":1552055135885,"finger_time":1552055135424,"fix_duration":1093.5891589215457,"trial":18,"RT":384,"MT":461,"sideResp":2,"stimulus":"img/500/equaldotanddens/R/12_Ratio_500_L_1_R_2.png","xmouse":[783,783,783,783,783,783,783,783,783,783,783,783,783,783,783,783,783,787,794,803,814,831,861,880,894,903,919,944,968,982,995,1008,1030,1038,1045,1050,1053,1053,1053,1053,1053,1054,1060],"ymouse":[501,501,501,501,501,501,501,501,501,501,501,501,501,501,501,501,501,494,478,463,442,418,377,353,335,321,298,255,224,204,185,168,137,126,114,106,101,99,99,99,99,99,90],"timestamp_mouse":[5,25,46,66,84,105,125,144,165,185,205,225,244,265,286,305,325,346,364,384,405,426,444,466,486,504,524,544,565,585,605,626,645,665,685,704,725,745,765,784,805,825,845],"xSR":741.5,"ySR":469.95,"xT1":424.9,"yT1":0,"xT2":1058.1,"yT2":0,"toosoon":0,"cond_shown":"equaldotanddens","ratio_trial":500,"smaller_num":"1","larger_num":"2","correct_side":2,"subjID":"zharifsujeyrinconmaza16","gender":"1","age":"9","school":"4"},{"start_time":1552055137057,"click_time":1552055137865,"finger_time":1552055137665,"fix_duration":250,"trial":19,"RT":608,"MT":200,"sideResp":1,"stimulus":"img/900/equaldotanddens/L/2_Ratio_900_L_20_R_18.png","xmouse":[807,807,807,807,807,807,807,807,807,807,807,807,807,807,807,807,807,807,807,807,807,807,807,807,807,807,803,791,775,747,701,599,592,558,536,518,489,478,454,448,433],"ymouse":[528,528,528,528,528,528,528,528,528,528,528,528,528,528,528,528,528,528,528,528,528,528,528,528,528,528,524,511,501,481,449,375,367,326,299,271,207,179,129,115,84],"timestamp_mouse":[7,28,48,68,88,108,128,148,168,188,208,227,248,268,289,308,329,348,367,387,407,428,448,469,487,507,528,548,569,589,608,628,649,668,687,708,728,749,768,788,807],"xSR":741.5,"ySR":469.95,"xT1":424.9,"yT1":0,"xT2":1058.1,"yT2":0,"toosoon":0,"cond_shown":"equaldotanddens","ratio_trial":900,"smaller_num":"18","larger_num":"20","correct_side":1,"subjID":"zharifsujeyrinconmaza16","gender":"1","age":"9","school":"4"},{"start_time":1552055140577,"click_time":1552055141725,"finger_time":1552055141184,"fix_duration":1431.1810154563861,"trial":20,"RT":607,"MT":541,"sideResp":2,"stimulus":"img/500/randomdotsizeEA/R/12_Ratio_500_L_1_R_2.png","xmouse":[820,820,820,820,820,820,820,820,820,820,820,820,820,820,820,820,820,820,820,820,820,820,820,820,820,820,817,809,790,761,672,641,609,589,571,543,532,525,520,517,516,516,516,516,520,534,542,548,553,558,571,597,628,685,753,921,1000,1067],"ymouse":[538,538,538,538,538,538,538,538,538,538,538,538,538,538,538,538,538,538,538,538,538,538,538,538,538,536,532,524,511,491,442,419,393,376,357,321,304,288,275,262,249,244,244,244,244,244,244,244,244,243,243,235,227,202,170,89,49,21],"timestamp_mouse":[12,27,48,68,89,108,127,149,168,188,207,229,249,267,287,307,328,349,367,387,407,428,448,468,488,507,528,548,569,588,607,627,647,668,689,707,727,748,768,787,807,828,848,868,887,907,927,947,967,989,1008,1027,1047,1067,1088,1108,1128,1148],"xSR":741.5,"ySR":469.95,"xT1":424.9,"yT1":0,"xT2":1058.1,"yT2":0,"toosoon":0,"cond_shown":"randomdotsizeEA","ratio_trial":500,"smaller_num":"1","larger_num":"2","correct_side":2,"subjID":"zharifsujeyrinconmaza16","gender":"1","age":"9","school":"4"},{"start_time":1552055144695,"click_time":1552055145184,"finger_time":1552055144746,"fix_duration":309.3765277243781,"trial":21,"RT":51,"MT":438,"sideResp":2,"stimulus":"img/500/equaldotsize/R/15_Ratio_500_L_1_R_2.png","xmouse":[805,805,805,805,808,810,814,817,820,830,836,845,855,865,892,915,932,950,970,1008,1027,1046,1059,1070,1075],"ymouse":[483,472,465,454,427,417,405,392,377,346,332,313,296,282,246,219,204,189,174,145,132,118,109,101,97],"timestamp_mouse":[11,29,51,71,90,110,130,151,171,190,211,229,250,270,289,309,330,350,371,389,410,430,449,470,489],"xSR":741.5,"ySR":469.95,"xT1":424.9,"yT1":0,"xT2":1058.1,"yT2":0,"toosoon":0,"cond_shown":"equaldotsize","ratio_trial":500,"smaller_num":"1","larger_num":"2","correct_side":2,"subjID":"zharifsujeyrinconmaza16","gender":"1","age":"9","school":"4"},{"start_time":1552055146979,"click_time":1552055148524,"finger_time":1552055147405,"fix_duration":813.8783382288791,"trial":22,"RT":426,"MT":1119,"sideResp":1,"stimulus":"img/250/equaldotanddens/L/14_Ratio_250_L_12_R_3.png","xmouse":[787,787,787,787,787,787,787,787,787,787,787,787,787,787,787,787,787,787,787,792,817,834,862,901,935,981,996,1007,1015,1022,1033,1039,1045,1052,1059,1068,1072,1074,1074,1074,1074,1074,1074,1074,1074,1074,1074,1073,1070,1067,1058,1051,1046,1037,1023,977,944,924,910,901,853,823,806,783,764,739,732,731,730,718,673,629,603,581,565,546,535,522],"ymouse":[524,524,524,524,524,524,524,524,524,524,524,524,524,524,524,524,524,524,523,517,481,457,427,381,352,307,283,263,248,234,214,201,191,179,167,145,137,131,130,130,130,130,130,130,130,130,128,127,123,120,115,113,112,110,108,102,97,94,92,91,83,78,75,72,69,67,67,67,67,67,67,67,67,67,67,65,64,62],"timestamp_mouse":[7,26,45,65,86,107,127,146,165,186,206,226,245,266,286,306,326,346,365,385,405,426,445,466,486,506,526,546,565,585,606,626,646,666,686,706,726,746,766,785,805,826,846,866,886,905,925,947,965,986,1005,1026,1046,1066,1086,1106,1126,1145,1165,1186,1206,1225,1246,1267,1286,1306,1327,1346,1365,1385,1405,1425,1447,1466,1487,1506,1526,1545],"xSR":741.5,"ySR":469.95,"xT1":424.9,"yT1":0,"xT2":1058.1,"yT2":0,"toosoon":0,"cond_shown":"equaldotanddens","ratio_trial":250,"smaller_num":"3","larger_num":"12","correct_side":1,"subjID":"zharifsujeyrinconmaza16","gender":"1","age":"9","school":"4"},{"start_time":1552055150889,"click_time":1552055151884,"finger_time":1552055151265,"fix_duration":1163.241589913041,"trial":23,"RT":376,"MT":619,"sideResp":2,"stimulus":"img/750/equaldotsize/R/7_Ratio_750_L_3_R_4.png","xmouse":[776,776,776,776,776,776,776,776,776,776,776,776,776,776,773,766,754,748,746,746,747,747,746,740,719,712,712,712,712,723,743,768,798,833,895,936,961,979,992,1004,1011,1020,1032,1044,1064,1077,1083,1090,1094,1104],"ymouse":[498,498,498,498,498,498,498,498,498,498,498,498,498,498,493,487,479,473,469,456,449,440,432,419,398,393,393,392,392,391,389,384,379,370,353,338,328,316,305,277,262,246,230,211,177,153,138,126,111,75],"timestamp_mouse":[15,36,55,76,97,115,136,157,175,196,216,235,255,276,296,315,335,356,376,396,417,435,455,476,496,515,535,555,575,595,616,636,655,676,696,717,737,756,776,795,817,835,856,876,896,916,936,957,976,995],"xSR":741.5,"ySR":469.95,"xT1":424.9,"yT1":0,"xT2":1058.1,"yT2":0,"toosoon":0,"cond_shown":"equaldotsize","ratio_trial":750,"smaller_num":"3","larger_num":"4","correct_side":2,"subjID":"zharifsujeyrinconmaza16","gender":"1","age":"9","school":"4"},{"start_time":1552055155962,"click_time":1552055156666,"finger_time":1552055156367,"fix_duration":1434.125632546582,"trial":24,"RT":405,"MT":299,"sideResp":2,"stimulus":"img/500/equaldotsize/L/8_Ratio_500_L_8_R_4.png","xmouse":[784,784,784,784,784,784,784,784,784,784,784,784,784,784,784,784,784,787,800,821,856,949,1012,1048,1085,1102,1119,1121,1121,1121,1121,1124,1129,1132,1138,1141],"ymouse":[509,509,509,509,509,509,509,509,509,509,509,509,509,509,509,509,509,508,494,475,444,360,282,241,196,173,145,140,139,139,139,134,122,112,103,94],"timestamp_mouse":[4,24,44,65,84,104,124,144,164,184,204,224,244,265,284,304,324,344,365,384,405,424,444,464,485,504,524,544,565,585,604,624,644,665,685,704],"xSR":741.5,"ySR":469.95,"xT1":424.9,"yT1":0,"xT2":1058.1,"yT2":0,"toosoon":0,"cond_shown":"equaldotsize","ratio_trial":500,"smaller_num":"4","larger_num":"8","correct_side":1,"subjID":"zharifsujeyrinconmaza16","gender":"1","age":"9","school":"4"},{"start_time":1552055158389,"click_time":1552055159426,"finger_time":1552055159126,"fix_duration":561.4023166861354,"trial":25,"RT":737,"MT":300,"sideResp":2,"stimulus":"img/900/equaldotanddens/L/8_Ratio_900_L_20_R_18.png","xmouse":[802,802,802,802,802,802,802,802,802,802,802,802,802,802,802,802,802,802,802,802,802,802,802,802,802,802,802,802,802,802,802,802,802,802,802,802,809,816,829,874,886,925,947,958,992,1007,1020,1030,1053,1106,1126,1143],"ymouse":[522,522,522,522,522,522,522,522,522,522,522,522,522,522,522,522,522,522,522,522,522,522,522,522,522,522,522,522,522,522,522,522,522,513,494,481,460,443,425,381,372,345,326,317,283,260,249,237,211,136,108,82],"timestamp_mouse":[17,37,58,78,97,118,137,158,178,197,218,238,257,277,298,317,337,357,377,397,417,437,458,477,497,517,538,558,577,597,617,637,657,677,697,718,737,757,779,797,818,838,857,879,898,917,938,957,977,997,1017,1037],"xSR":741.5,"ySR":469.95,"xT1":424.9,"yT1":0,"xT2":1058.1,"yT2":0,"toosoon":0,"cond_shown":"equaldotanddens","ratio_trial":900,"smaller_num":"18","larger_num":"20","correct_side":1,"subjID":"zharifsujeyrinconmaza16","gender":"1","age":"9","school":"4"},{"start_time":1552055160688,"click_time":1552055161766,"finger_time":1552055161347,"fix_duration":379.00094763461,"trial":26,"RT":659,"MT":419,"sideResp":1,"stimulus":"img/250/equaldotanddens/L/5_Ratio_250_L_24_R_6.png","xmouse":[777,777,777,777,777,777,777,777,777,777,777,777,777,777,777,777,777,777,777,777,777,777,777,777,777,777,777,777,777,777,769,761,741,720,644,605,575,558,550,543,540,540,542,545,547,542,537,534,533,532,531,526,523,512],"ymouse":[524,524,524,524,524,524,524,524,524,524,524,524,524,524,524,524,524,524,524,524,524,524,524,524,524,524,524,524,524,524,514,504,480,461,412,393,379,369,361,342,326,306,281,256,219,205,192,188,187,185,179,160,120,14],"timestamp_mouse":[19,39,59,79,99,119,138,159,178,198,220,238,259,278,298,319,338,359,379,398,418,439,458,478,498,518,538,558,580,598,618,639,659,678,698,719,739,758,778,798,818,839,858,878,898,919,939,958,979,998,1019,1039,1059,1078],"xSR":741.5,"ySR":469.95,"xT1":424.9,"yT1":0,"xT2":1058.1,"yT2":0,"toosoon":0,"cond_shown":"equaldotanddens","ratio_trial":250,"smaller_num":"6","larger_num":"24","correct_side":1,"subjID":"zharifsujeyrinconmaza16","gender":"1","age":"9","school":"4"},{"start_time":1552055164239,"click_time":1552055165286,"finger_time":1552055164726,"fix_duration":1230.215872549431,"trial":27,"RT":487,"MT":560,"sideResp":2,"stimulus":"img/500/equaldotanddens/R/1_Ratio_500_L_9_R_18.png","xmouse":[804,804,804,804,804,804,804,804,804,804,804,804,804,804,804,804,804,804,804,804,803,798,763,745,726,704,686,665,664,664,664,664,678,690,705,719,736,771,803,825,850,879,941,964,977,981,981,989,1001,1014,1031,1056,1123],"ymouse":[546,546,546,546,546,546,546,546,546,546,546,546,546,546,546,546,546,546,546,546,546,546,525,513,497,480,465,450,449,449,449,449,449,449,449,449,449,449,449,449,449,438,362,299,230,161,158,95,68,54,47,42,35],"timestamp_mouse":[8,28,48,68,87,108,127,147,167,187,208,227,248,267,287,308,327,348,368,387,407,427,447,468,487,508,528,547,569,587,608,627,647,667,687,708,727,748,767,787,808,828,847,867,887,908,927,947,968,987,1007,1027,1047],"xSR":741.5,"ySR":469.95,"xT1":424.9,"yT1":0,"xT2":1058.1,"yT2":0,"toosoon":0,"cond_shown":"equaldotanddens","ratio_trial":500,"smaller_num":"9","larger_num":"18","correct_side":2,"subjID":"zharifsujeyrinconmaza16","gender":"1","age":"9","school":"4"},{"start_time":1552055170119,"click_time":1552055171407,"finger_time":1552055171026,"fix_duration":250,"trial":28,"RT":907,"MT":381,"sideResp":1,"stimulus":"img/900/equaldotanddens/R/12_Ratio_900_L_18_R_20.png","xmouse":[797,797,798,798,798,798,798,798,798,798,798,798,798,798,798,798,798,798,798,798,798,798,798,798,798,798,798,798,798,798,798,798,798,798,798,798,798,798,798,798,798,798,798,788,778,766,754,743,721,710,697,684,670,641,619,604,588,573,547,534,524,514,503,479,460],"ymouse":[537,537,537,537,537,537,537,537,537,537,537,537,537,537,537,537,537,537,537,537,537,537,537,537,537,537,537,537,537,537,537,537,537,537,537,537,537,537,537,537,537,532,525,494,472,450,429,409,372,353,335,318,301,269,247,233,219,206,182,170,160,149,135,112,93],"timestamp_mouse":[7,28,47,67,88,107,128,147,167,188,207,228,248,267,287,307,328,347,367,388,407,428,447,467,488,507,527,547,567,587,607,628,647,667,688,707,728,747,768,787,808,827,848,867,888,907,927,948,967,988,1009,1027,1048,1067,1088,1107,1127,1147,1167,1187,1207,1227,1247,1267,1288],"xSR":741.5,"ySR":469.95,"xT1":424.9,"yT1":0,"xT2":1058.1,"yT2":0,"toosoon":0,"cond_shown":"equaldotanddens","ratio_trial":900,"smaller_num":"18","larger_num":"20","correct_side":2,"subjID":"zharifsujeyrinconmaza16","gender":"1","age":"9","school":"4"},{"start_time":1552055173172,"click_time":1552055174286,"finger_time":1552055173847,"fix_duration":884.5627072852982,"trial":29,"RT":675,"MT":439,"sideResp":1,"stimulus":"img/750/equaldotsize/L/9_Ratio_750_L_4_R_3.png","xmouse":[784,784,784,784,784,784,784,784,784,784,784,784,784,784,784,784,784,784,784,784,784,785,789,791,793,797,797,797,797,797,797,791,776,756,731,688,659,626,592,562,520,503,496,489,484,468,461,453,449,446,445,445,445,447,449,452],"ymouse":[513,513,513,513,513,513,513,513,513,513,513,513,513,513,513,513,513,513,513,513,513,510,500,494,487,479,478,478,478,478,477,476,470,462,451,430,415,397,376,349,297,255,231,207,185,150,139,128,121,116,113,110,109,107,103,99],"timestamp_mouse":[16,34,54,75,94,114,134,154,175,195,214,234,255,274,295,314,335,354,374,394,415,436,455,475,494,514,535,555,575,594,615,634,654,675,694,714,734,754,774,795,814,834,854,875,894,914,934,954,974,994,1014,1035,1054,1074,1095,1114],"xSR":741.5,"ySR":469.95,"xT1":424.9,"yT1":0,"xT2":1058.1,"yT2":0,"toosoon":0,"cond_shown":"equaldotsize","ratio_trial":750,"smaller_num":"3","larger_num":"4","correct_side":1,"subjID":"zharifsujeyrinconmaza16","gender":"1","age":"9","school":"4"},{"start_time":1552055176078,"click_time":1552055177086,"finger_time":1552055176586,"fix_duration":791.6184211384837,"trial":30,"RT":508,"MT":500,"sideResp":2,"stimulus":"img/500/equaldotanddens/R/2_Ratio_500_L_3_R_6.png","xmouse":[783,783,783,783,783,783,783,783,783,783,783,783,783,783,783,783,783,783,783,783,783,783,783,783,784,865,914,955,976,994,1026,1042,1061,1080,1094,1119,1129,1135,1140,1142,1145,1145,1145,1145,1145,1145,1145,1145,1145,1145,1145],"ymouse":[491,491,491,491,491,491,491,491,491,491,491,491,491,491,491,491,491,491,491,491,491,491,491,491,491,441,406,377,364,351,320,302,276,248,228,193,174,163,152,144,136,136,136,136,136,136,136,136,135,116,73],"timestamp_mouse":[12,28,49,68,88,108,129,150,169,188,208,228,249,269,289,308,328,349,369,388,408,429,448,469,488,508,528,548,568,588,608,629,649,668,688,708,729,748,769,788,808,829,848,868,889,908,929,950,968,989,1008],"xSR":741.5,"ySR":469.95,"xT1":424.9,"yT1":0,"xT2":1058.1,"yT2":0,"toosoon":0,"cond_shown":"equaldotanddens","ratio_trial":500,"smaller_num":"3","larger_num":"6","correct_side":2,"subjID":"zharifsujeyrinconmaza16","gender":"1","age":"9","school":"4"},{"start_time":1552055179054,"click_time":1552055180566,"finger_time":1552055179447,"fix_duration":707.3912164244434,"trial":31,"RT":393,"MT":1119,"sideResp":1,"stimulus":"img/500/randomdotsizeEA/L/4_Ratio_500_L_18_R_9.png","xmouse":[795,795,795,795,795,795,795,795,795,795,795,795,795,795,795,795,795,796,796,796,795,798,804,819,830,857,928,940,940,940,940,895,841,777,716,672,605,550,510,468,437,402,395,388,384,378,361,351,347,347,347,347,347,347,347,347,347,347,347,347,347,347,347,347,347,409,417,417,417,417,417,417,417,417,423,440],"ymouse":[515,515,515,515,515,515,515,515,515,515,515,515,515,515,515,515,515,511,478,453,442,432,427,423,419,415,403,401,401,401,401,386,363,337,315,295,266,250,242,233,223,204,194,178,159,137,76,38,17,6,6,6,6,6,6,6,6,6,6,6,6,6,6,6,6,1,7,7,7,7,7,7,7,7,7,10],"timestamp_mouse":[13,32,52,72,93,114,133,152,173,193,213,232,252,273,292,312,332,353,373,393,412,432,452,472,492,512,532,552,573,593,613,632,653,672,692,714,732,753,772,792,812,832,853,872,892,914,933,952,972,993,1013,1033,1052,1073,1092,1112,1133,1152,1172,1193,1213,1233,1252,1272,1292,1312,1332,1352,1372,1393,1412,1433,1452,1472,1492,1512],"xSR":741.5,"ySR":469.95,"xT1":424.9,"yT1":0,"xT2":1058.1,"yT2":0,"toosoon":0,"cond_shown":"randomdotsizeEA","ratio_trial":500,"smaller_num":"9","larger_num":"18","correct_side":1,"subjID":"zharifsujeyrinconmaza16","gender":"1","age":"9","school":"4"},{"start_time":1552055182176,"click_time":1552055183646,"finger_time":1552055182747,"fix_duration":628.5825815779883,"trial":32,"RT":571,"MT":899,"sideResp":2,"stimulus":"img/900/equaldotsize/L/4_Ratio_900_L_20_R_18.png","xmouse":[796,796,796,796,796,796,796,796,796,796,796,796,796,796,796,796,796,796,796,796,796,796,796,796,796,796,789,769,742,717,667,640,629,624,624,624,624,624,624,624,615,608,599,592,584,581,581,581,581,581,586,602,627,660,698,768,802,821,836,849,877,894,909,916,935,962,976,985,987,994,1019,1042,1062,1086],"ymouse":[544,544,544,544,544,544,544,544,544,544,544,544,544,544,544,544,544,544,544,544,544,544,544,544,544,544,528,489,441,412,372,352,344,340,340,340,340,340,338,332,276,256,237,224,212,209,209,209,209,209,208,208,208,209,209,209,197,188,177,168,155,147,143,142,138,130,126,124,124,123,115,109,103,96],"timestamp_mouse":[16,30,50,70,90,110,130,150,170,190,211,230,250,271,290,310,331,350,370,390,410,430,450,471,490,511,531,550,571,592,610,631,650,670,692,711,731,750,771,791,810,830,850,871,891,911,931,951,970,990,1010,1030,1051,1070,1092,1110,1130,1151,1171,1191,1210,1231,1250,1270,1291,1310,1331,1351,1370,1391,1410,1430,1451,1470],"xSR":741.5,"ySR":469.95,"xT1":424.9,"yT1":0,"xT2":1058.1,"yT2":0,"toosoon":0,"cond_shown":"equaldotsize","ratio_trial":900,"smaller_num":"18","larger_num":"20","correct_side":1,"subjID":"zharifsujeyrinconmaza16","gender":"1","age":"9","school":"4"},{"start_time":1552055185633,"click_time":1552055186586,"finger_time":1552055186147,"fix_duration":1166.0007534138156,"trial":33,"RT":514,"MT":439,"sideResp":1,"stimulus":"img/750/randomdotsizeEA/L/1_Ratio_750_L_20_R_15.png","xmouse":[756,756,756,756,756,756,756,756,756,756,756,756,756,756,756,756,756,756,756,756,756,756,756,754,748,729,710,667,635,619,611,608,608,608,607,604,594,552,511,480,457,442,433,431,430,429,427,426],"ymouse":[518,518,518,518,518,518,518,518,518,518,518,518,518,518,518,518,518,518,518,518,518,518,518,517,508,486,467,434,410,397,390,387,387,387,383,373,351,297,256,225,203,184,151,133,118,110,102,95],"timestamp_mouse":[15,34,54,73,93,113,133,154,173,193,214,233,253,273,293,314,333,353,374,393,413,433,453,473,493,514,533,553,573,593,613,633,653,674,694,713,734,753,773,793,813,833,853,873,894,913,933,953],"xSR":741.5,"ySR":469.95,"xT1":424.9,"yT1":0,"xT2":1058.1,"yT2":0,"toosoon":0,"cond_shown":"randomdotsizeEA","ratio_trial":750,"smaller_num":"15","larger_num":"20","correct_side":1,"subjID":"zharifsujeyrinconmaza16","gender":"1","age":"9","school":"4"},{"start_time":1552055187997,"click_time":1552055189166,"finger_time":1552055188587,"fix_duration":250,"trial":34,"RT":590,"MT":579,"sideResp":2,"stimulus":"img/250/randomdotsizeEA/R/12_Ratio_250_L_5_R_20.png","xmouse":[789,789,789,789,789,789,789,789,789,789,789,789,789,789,789,789,789,789,789,789,789,789,789,789,789,789,789,792,804,856,919,953,985,1003,1019,1021,1022,1023,1025,1029,1032,1035,1038,1042,1049,1050,1052,1054,1054,1054,1059,1062,1064,1069,1084,1087,1088,1099,1112],"ymouse":[516,516,516,516,516,516,516,516,516,516,516,516,516,516,516,516,516,516,516,516,516,516,516,516,516,516,516,512,478,376,307,278,254,241,229,227,224,219,212,193,186,178,170,163,149,148,143,136,136,135,126,121,119,118,112,111,111,105,96],"timestamp_mouse":[11,29,49,69,89,109,129,149,169,189,209,229,249,269,289,309,329,349,369,389,409,429,449,469,489,509,529,550,569,590,610,629,650,670,690,710,729,749,769,789,809,830,849,869,890,910,929,950,969,990,1009,1029,1049,1069,1090,1110,1129,1149,1169],"xSR":741.5,"ySR":469.95,"xT1":424.9,"yT1":0,"xT2":1058.1,"yT2":0,"toosoon":0,"cond_shown":"randomdotsizeEA","ratio_trial":250,"smaller_num":"5","larger_num":"20","correct_side":2,"subjID":"zharifsujeyrinconmaza16","gender":"1","age":"9","school":"4"},{"start_time":1552055190591,"click_time":1552055191946,"finger_time":1552055191206,"fix_duration":382.9684171784504,"trial":35,"RT":615,"MT":740,"sideResp":1,"stimulus":"img/500/equaldotanddens/R/9_Ratio_500_L_2_R_4.png","xmouse":[819,819,819,819,819,819,819,819,819,819,819,819,819,819,819,819,819,819,819,819,819,819,819,819,819,819,819,816,810,786,775,763,751,738,720,716,713,711,709,700,691,690,682,682,672,661,649,636,621,589,570,543,528,515,505,505,505,505,505,505,505,505,505,505,505,505,504,495],"ymouse":[542,542,542,542,542,542,542,542,542,542,542,542,542,542,542,542,542,542,542,542,542,542,542,542,542,542,542,530,519,483,467,450,434,418,395,391,387,385,381,368,359,355,347,347,330,311,290,269,246,199,182,154,141,127,114,112,112,112,112,111,111,111,111,111,111,111,106,72],"timestamp_mouse":[15,35,56,75,96,115,135,155,175,196,215,236,256,276,295,315,336,356,375,396,416,435,455,476,496,515,536,555,575,595,615,635,655,675,695,715,736,755,777,795,815,836,855,875,895,916,935,955,975,995,1016,1035,1055,1076,1095,1115,1136,1156,1175,1195,1215,1235,1256,1275,1295,1315,1335,1355],"xSR":741.5,"ySR":469.95,"xT1":424.9,"yT1":0,"xT2":1058.1,"yT2":0,"toosoon":0,"cond_shown":"equaldotanddens","ratio_trial":500,"smaller_num":"2","larger_num":"4","correct_side":2,"subjID":"zharifsujeyrinconmaza16","gender":"1","age":"9","school":"4"},{"start_time":1552055196549,"click_time":1552055203186,"finger_time":1552055197807,"fix_duration":1441.7156388592243,"trial":36,"RT":1258,"MT":5379,"sideResp":2,"stimulus":"img/750/equaldotsize/R/2_Ratio_750_L_6_R_8.png","xmouse":[807,807,807,807,807,807,807,807,807,807,807,807,807,807,807,807,807,807,807,807,807,807,807,807,807,807,807,807,807,807,807,807,807,807,807,807,807,807,807,807,807,807,807,807,807,807,807,807,807,807,807,807,807,807,807,807,807,807,807,802,793,757,723,706,704,704,704,704,704,704,704,704,704,704,704,704,704,704,704,704,702,688,668,660,659,659,659,659,659,659,659,659,659,659,659,659,659,659,659,659,659,659,659,659,659,659,659,659,659,659,659,659,659,659,659,659,659,659,659,658,654,653,652,651,651,651,651,651,651,649,646,646,646,646,646,646,646,646,646,646,646,646,646,646,646,646,646,646,646,646,646,646,646,646,646,646,645,645,644,644,644,644,644,644,644,644,644,644,644,644,644,644,644,644,644,644,644,644,644,643,639,624,618,618,618,626,628,628,628,628,628,628,639,649,657,663,678,685,690,694,699,711,718,722,723,727,735,739,745,752,758,772,783,792,802,813,827,828,828,828,828,828,824,808,792,783,783,783,783,783,783,783,783,783,783,783,783,783,783,783,783,783,783,783,783,783,783,783,783,783,783,783,783,783,783,783,783,783,783,783,783,783,783,783,783,783,783,783,783,783,783,783,783,783,783,783,783,783,783,783,783,783,783,783,783,783,783,783,783,783,783,783,783,783,783,783,783,783,783,783,782,796,815,840,861,879,899,899,907,916,922,926,926,929,935,947,980,995,995,1002,1010,1017,1027,1028,1032,1033,1036,1039,1042,1047,1053,1062],"ymouse":[499,499,499,499,499,499,499,499,499,499,499,499,499,499,499,499,499,499,499,499,499,499,499,499,499,499,499,499,499,499,499,499,499,499,499,499,499,499,499,499,499,499,499,499,499,499,499,499,499,499,499,499,499,499,499,499,499,499,499,499,499,499,499,499,499,499,499,499,499,499,499,499,499,499,499,499,499,499,499,499,497,490,483,481,480,480,480,480,480,480,480,480,480,480,480,480,480,480,480,480,480,480,480,480,480,480,480,480,480,480,480,480,480,480,480,480,480,480,480,480,460,452,449,447,447,447,447,447,446,445,442,441,441,441,441,441,441,441,441,441,441,441,441,441,441,441,441,441,441,441,441,441,441,441,441,440,438,438,437,437,437,437,437,437,437,437,437,437,437,437,437,437,437,437,437,437,437,437,437,437,437,437,437,437,437,443,445,445,445,445,445,445,480,500,507,509,513,513,513,513,513,513,513,513,513,513,513,513,513,513,513,513,511,510,509,507,506,506,506,506,506,506,506,506,506,506,506,506,506,506,506,506,506,506,506,506,506,506,506,506,506,506,506,506,506,506,506,506,506,506,506,506,506,506,506,506,506,506,506,506,506,506,506,506,506,506,506,506,506,506,506,506,506,506,506,506,506,506,506,506,506,506,506,506,506,506,506,506,506,506,506,506,506,506,506,506,506,506,506,506,505,460,389,318,262,219,176,175,163,151,145,141,141,139,135,130,115,109,109,105,102,100,100,100,98,96,93,91,86,79,73,67],"timestamp_mouse":[19,37,57,77,98,117,137,157,178,198,217,237,258,277,297,318,337,357,377,397,418,438,457,477,497,518,537,558,577,597,617,637,657,678,697,717,738,758,778,797,817,837,857,879,897,917,937,957,977,997,1017,1037,1057,1078,1097,1118,1137,1158,1178,1197,1218,1237,1258,1279,1297,1318,1337,1359,1377,1397,1417,1437,1458,1477,1497,1517,1538,1558,1577,1599,1617,1637,1658,1677,1697,1717,1737,1757,1778,1797,1817,1837,1857,1877,1898,1917,1937,1958,1977,1997,2018,2037,2058,2078,2097,2117,2137,2157,2178,2197,2217,2237,2258,2278,2297,2318,2337,2357,2377,2398,2417,2437,2457,2477,2497,2517,2537,2557,2577,2597,2617,2637,2657,2678,2698,2717,2737,2757,2777,2797,2817,2837,2857,2877,2897,2917,2937,2958,2977,2997,3017,3037,3057,3077,3097,3118,3137,3157,3177,3197,3218,3237,3257,3277,3297,3317,3337,3357,3377,3397,3418,3437,3457,3477,3498,3519,3537,3557,3577,3597,3619,3637,3657,3677,3697,3719,3739,3758,3777,3798,3817,3837,3857,3877,3897,3919,3937,3957,3978,3997,4019,4037,4057,4078,4098,4117,4137,4157,4178,4197,4218,4238,4257,4277,4297,4318,4337,4357,4377,4397,4418,4437,4458,4477,4497,4517,4537,4558,4577,4597,4617,4637,4657,4677,4697,4718,4737,4758,4778,4797,4818,4837,4858,4877,4897,4917,4937,4958,4977,4997,5017,5037,5057,5077,5097,5117,5137,5158,5177,5197,5217,5237,5257,5277,5297,5317,5337,5357,5378,5397,5417,5438,5457,5477,5497,5518,5538,5558,5577,5597,5617,5637,5658,5677,5697,5717,5737,5758,5778,5798,5817,5837,5857,5877,5897,5917,5937,5958,5978,5997,6017,6037,6057,6077,6097,6118,6137,6158,6178,6197,6218,6237,6257,6278,6297,6317,6337,6357,6378,6397,6418,6437,6457,6477,6497,6517,6537,6557,6578,6597,6618,6637],"xSR":741.5,"ySR":469.95,"xT1":424.9,"yT1":0,"xT2":1058.1,"yT2":0,"toosoon":0,"cond_shown":"equaldotsize","ratio_trial":750,"smaller_num":"6","larger_num":"8","correct_side":2,"subjID":"zharifsujeyrinconmaza16","gender":"1","age":"9","school":"4"},{"start_time":1552055205276,"click_time":1552055206607,"finger_time":1552055205786,"fix_duration":1009.5746828826199,"trial":37,"RT":510,"MT":821,"sideResp":2,"stimulus":"img/750/equaldotanddens/R/2_Ratio_750_L_6_R_8.png","xmouse":[759,759,759,759,759,759,759,759,759,759,759,759,759,759,759,759,759,759,759,759,759,768,782,796,813,843,857,869,883,895,916,922,923,924,926,933,938,943,946,948,949,949,953,960,970,996,1017,1028,1033,1033,1033,1033,1033,1033,1033,1033,1033,1033,1033,1033,1033,1033,1033,1033,1033,1072,1074],"ymouse":[550,550,550,550,550,550,550,550,550,550,550,550,550,550,550,550,550,550,550,550,550,550,550,541,528,501,485,465,441,415,369,348,336,331,321,292,263,236,215,192,153,129,108,88,71,36,15,7,3,3,3,3,3,3,3,3,3,3,3,3,3,3,3,3,3,0,5],"timestamp_mouse":[14,31,50,71,91,111,131,152,171,191,211,230,251,270,291,310,332,351,370,390,410,430,450,470,490,510,531,550,570,590,611,631,650,670,690,711,731,751,770,792,811,830,852,871,892,910,930,951,971,991,1011,1030,1051,1071,1090,1111,1130,1151,1171,1190,1211,1230,1251,1270,1293,1310,1331],"xSR":741.5,"ySR":469.95,"xT1":424.9,"yT1":0,"xT2":1058.1,"yT2":0,"toosoon":0,"cond_shown":"equaldotanddens","ratio_trial":750,"smaller_num":"6","larger_num":"8","correct_side":2,"subjID":"zharifsujeyrinconmaza16","gender":"1","age":"9","school":"4"},{"start_time":1552055208216,"click_time":1552055209486,"finger_time":1552055208806,"fix_duration":429.84546566024596,"trial":38,"RT":590,"MT":680,"sideResp":1,"stimulus":"img/750/equaldotanddens/R/7_Ratio_750_L_3_R_4.png","xmouse":[763,763,763,763,763,763,763,763,763,763,763,763,763,763,763,763,763,763,763,763,763,763,763,763,763,763,763,765,765,754,740,728,714,689,686,682,682,682,680,680,677,672,665,656,649,641,626,602,526,494,474,468,468,468,468,468,468,468,468,468,468,468,468,480],"ymouse":[525,525,525,525,525,525,525,525,525,525,525,525,525,525,525,525,525,525,525,525,525,525,525,525,525,525,525,521,480,444,404,376,349,304,298,285,284,278,261,241,229,219,210,200,195,190,181,167,135,123,114,112,112,112,112,112,112,112,112,112,112,112,110,98],"timestamp_mouse":[10,31,50,71,90,110,130,150,170,190,210,230,250,270,290,310,330,350,370,390,410,430,451,472,491,510,530,551,571,590,610,631,651,671,691,710,731,750,771,791,810,830,850,870,890,910,930,951,970,991,1011,1030,1052,1070,1090,1111,1130,1151,1170,1191,1211,1230,1251,1270],"xSR":741.5,"ySR":469.95,"xT1":424.9,"yT1":0,"xT2":1058.1,"yT2":0,"toosoon":0,"cond_shown":"equaldotanddens","ratio_trial":750,"smaller_num":"3","larger_num":"4","correct_side":2,"subjID":"zharifsujeyrinconmaza16","gender":"1","age":"9","school":"4"},{"start_time":1552055217206,"click_time":1552055218508,"finger_time":1552055217967,"fix_duration":1478.9421480458145,"trial":39,"RT":761,"MT":541,"sideResp":1,"stimulus":"img/750/randomdotsizeEA/R/11_Ratio_750_L_12_R_16.png","xmouse":[787,787,787,787,787,787,787,787,787,787,787,787,787,787,787,787,787,787,787,787,787,787,787,789,796,806,814,821,829,838,839,839,839,839,839,839,839,839,839,832,826,811,800,768,714,689,679,652,631,607,607,607,607,607,606,599,585,570,549,524,510,505,503,503,503,503],"ymouse":[537,537,537,537,537,537,537,537,537,537,537,537,537,537,537,537,537,537,537,537,537,537,537,536,517,503,498,492,486,484,483,483,483,483,483,483,483,476,465,431,420,401,392,367,329,320,316,304,295,286,286,286,286,286,285,270,244,228,211,184,156,139,124,113,102,99],"timestamp_mouse":[4,21,41,62,81,101,121,142,162,182,201,223,242,260,282,301,321,341,361,381,401,421,441,461,481,502,522,541,561,581,601,621,641,661,681,701,721,741,761,782,801,821,842,861,882,902,921,941,961,982,1001,1021,1041,1062,1082,1101,1121,1141,1161,1181,1202,1222,1241,1262,1281,1302],"xSR":741.5,"ySR":469.95,"xT1":424.9,"yT1":0,"xT2":1058.1,"yT2":0,"toosoon":0,"cond_shown":"randomdotsizeEA","ratio_trial":750,"smaller_num":"12","larger_num":"16","correct_side":2,"subjID":"zharifsujeyrinconmaza16","gender":"1","age":"9","school":"4"},{"start_time":1552055232955,"click_time":1552055235947,"finger_time":1552055232968,"fix_duration":286.08081373878105,"trial":40,"RT":13,"MT":2979,"sideResp":1,"stimulus":"img/500/equaldotanddens/L/10_Ratio_500_L_4_R_2.png","xmouse":[784,784,784,784,784,784,784,784,784,784,784,784,784,784,784,784,784,784,784,784,784,784,784,784,784,784,784,784,784,784,784,784,784,784,784,784,784,784,784,784,784,784,784,784,784,782,776,776,776,775,776,758,733,725,725,725,725,725,725,725,725,725,725,725,724,724,724,725,730,733,733,734,735,736,738,741,755,767,778,789,798,802,802,802,802,802,802,802,802,802,802,801,799,796,793,792,791,791,791,791,791,791,791,791,791,791,791,791,791,791,791,791,791,791,791,791,791,790,785,769,744,682,608,565,537,522,516,515,515,515,514,495,482,469,458,448,436,430,428,427,427,427,427,429,432,436,443,448,452,455],"ymouse":[505,505,505,505,505,505,505,505,505,505,505,505,505,505,505,505,505,505,505,505,505,505,505,505,505,505,505,505,505,505,505,505,505,505,505,505,505,505,505,505,505,505,505,505,505,505,505,505,505,505,501,477,466,464,464,464,464,464,464,464,464,464,475,488,500,514,541,552,564,570,572,574,574,575,578,582,604,620,634,649,659,664,664,664,664,664,664,664,664,664,664,663,660,656,652,650,649,649,649,649,649,649,649,649,649,649,649,649,649,649,649,649,649,649,649,649,649,647,642,629,611,564,513,489,467,453,434,425,403,386,377,330,307,285,262,240,203,189,184,180,177,166,163,157,148,140,122,112,105,97],"timestamp_mouse":[13,33,52,72,93,112,133,153,172,193,213,232,252,273,292,313,332,352,373,392,413,432,452,472,492,513,532,553,572,592,612,633,652,673,692,713,733,753,772,792,813,833,852,872,893,912,932,953,973,992,1013,1032,1053,1072,1093,1114,1132,1152,1172,1192,1213,1232,1252,1273,1292,1313,1333,1352,1372,1393,1412,1433,1453,1473,1493,1513,1532,1553,1572,1593,1613,1633,1653,1673,1692,1712,1732,1753,1773,1792,1813,1833,1853,1873,1893,1912,1933,1952,1972,1993,2013,2032,2052,2072,2093,2112,2132,2152,2173,2193,2212,2234,2253,2272,2293,2312,2332,2352,2372,2393,2412,2433,2452,2472,2492,2513,2532,2552,2573,2593,2612,2632,2652,2673,2692,2712,2732,2752,2773,2793,2812,2832,2852,2872,2892,2913,2932,2952,2972,2992],"xSR":741.5,"ySR":469.95,"xT1":424.9,"yT1":0,"xT2":1058.1,"yT2":0,"toosoon":0,"cond_shown":"equaldotanddens","ratio_trial":500,"smaller_num":"2","larger_num":"4","correct_side":1,"subjID":"zharifsujeyrinconmaza16","gender":"1","age":"9","school":"4"},{"start_time":1552055238348,"click_time":1552055239507,"finger_time":1552055238968,"fix_duration":1260.390035695188,"trial":41,"RT":620,"MT":539,"sideResp":2,"stimulus":"img/750/randomdotsizeEA/R/7_Ratio_750_L_3_R_4.png","xmouse":[762,762,762,762,762,762,762,762,762,762,762,762,762,762,762,762,762,762,762,762,762,762,762,762,762,762,762,762,771,783,803,840,884,908,942,952,989,1005,1020,1031,1041,1065,1088,1101,1109,1114,1117,1117,1117,1117,1115,1105,1098,1095,1094,1094,1103,1106],"ymouse":[622,622,622,622,622,622,622,622,622,622,622,622,622,622,622,622,622,622,622,622,622,622,622,622,622,622,622,622,612,591,572,530,482,456,407,395,341,317,297,284,276,259,248,240,235,231,226,224,219,212,205,189,178,162,150,135,102,87],"timestamp_mouse":[19,40,59,79,99,120,139,159,179,200,220,239,260,280,300,319,339,359,379,399,419,439,460,479,500,520,539,559,579,599,620,641,660,679,699,719,739,759,779,799,819,839,859,879,900,919,939,959,980,1000,1019,1039,1060,1080,1100,1120,1140,1159],"xSR":741.5,"ySR":573.95,"xT1":424.9,"yT1":0,"xT2":1058.1,"yT2":0,"toosoon":0,"cond_shown":"randomdotsizeEA","ratio_trial":750,"smaller_num":"3","larger_num":"4","correct_side":2,"subjID":"zharifsujeyrinconmaza16","gender":"1","age":"9","school":"4"},{"start_time":1552055241328,"click_time":1552055242307,"finger_time":1552055241927,"fix_duration":880.22561879631,"trial":42,"RT":599,"MT":380,"sideResp":2,"stimulus":"img/900/equaldotsize/L/4_Ratio_900_L_20_R_18.png","xmouse":[790,790,790,790,790,790,790,790,790,790,790,790,790,790,790,790,790,790,790,790,790,790,790,790,790,790,792,802,805,807,807,808,809,809,811,815,818,832,844,862,885,906,945,954,961,972,987,1055,1098],"ymouse":[625,625,625,625,625,625,625,625,625,625,625,625,625,625,625,625,625,625,625,625,625,625,625,625,625,625,625,594,575,551,524