[{"start_time":1552312904442,"click_time":1552312907588,"finger_time":1552312906068,"fix_duration":910.7954321579293,"trial":0,"RT":1626,"MT":1520,"sideResp":2,"stimulus":[],"xmouse":[784,784,784,784,784,784,784,784,784,784,784,784,784,784,784,784,784,784,784,784,784,784,784,784,784,784,784,784,784,784,784,784,784,784,784,784,784,784,784,784,784,784,784,784,784,784,784,784,784,784,784,784,784,784,784,784,784,784,784,784,784,784,784,784,784,784,784,784,784,784,784,784,784,784,784,784,784,784,784,784,782,775,769,760,749,747,745,744,742,735,731,727,722,720,715,709,704,694,687,686,686,686,689,697,820,950,1127,1351,1443,1500,1500,1500,1500,1500,1501,1501,1496,1492,1486,1466,1449,1414,1382,1341,1302,1299,1298,1298,1297,1294,1288,1280,1274,1270,1264,1261,1256,1247,1240,1232,1231,1229,1224,1217,1217,1212,1205,1193,1185,1172,1171,1171,1168,1164,1161,1161,1160,1157],"ymouse":[500,500,500,500,500,500,500,500,500,500,500,500,500,500,500,500,500,500,500,500,500,500,500,500,500,500,500,500,500,500,500,500,500,500,500,500,500,500,500,500,500,500,500,500,500,500,500,500,500,500,500,500,500,500,500,500,500,500,500,500,500,500,500,500,500,500,500,500,500,500,500,500,500,500,500,500,500,500,500,499,478,454,435,413,383,368,357,348,329,303,291,278,262,253,236,224,214,197,189,187,187,187,189,193,247,289,349,416,443,458,458,458,458,458,456,449,436,425,416,393,376,346,320,282,229,210,197,190,188,184,178,169,156,144,121,111,102,89,79,68,67,67,67,66,66,65,65,65,65,65,65,65,65,65,65,65,65,65],"timestamp_mouse":[9,35,46,66,87,106,127,146,165,185,205,226,246,266,285,307,325,346,366,385,407,426,445,466,485,505,525,545,565,585,606,626,646,666,686,705,725,745,766,785,806,826,845,866,885,905,925,946,966,985,1005,1026,1045,1066,1086,1105,1126,1146,1165,1185,1206,1225,1246,1265,1285,1306,1327,1346,1366,1385,1407,1426,1446,1466,1486,1505,1525,1545,1566,1585,1606,1626,1645,1665,1687,1705,1725,1746,1767,1786,1805,1825,1845,1866,1886,1906,1926,1946,1966,1985,2006,2026,2046,2065,2086,2106,2126,2145,2166,2186,2205,2225,2245,2266,2286,2305,2326,2346,2366,2386,2405,2426,2447,2466,2486,2506,2525,2546,2566,2585,2606,2626,2645,2666,2686,2706,2726,2746,2766,2785,2805,2825,2845,2866,2886,2905,2926,2945,2965,2986,3005,3027,3046,3067,3085,3105,3125,3145],"xSR":741.5,"ySR":469.95,"xT1":424.9,"yT1":0,"xT2":1058.1,"yT2":0,"toosoon":0,"cond_shown":"Congruent","ratio_trial":200,"L_num":15,"L_den":25,"R_num":4,"R_den":10,"correct_side":1,"subjID":"santiagojimenez28","gender":"0","age":"9","school":"4","test":{"fix_dur":[250,1500],"timestim":1000,"targets_dim":[100,100],"targets_relative_coord":[0.3,0.7],"size_stim":[880,420],"start_dim":[100,100],"size_start":[300,300],"size_fix":60,"samplingrate":20,"img_types":["Congruent","Incongruent"],"ratios":[100,200,300],"rep_conds":19,"nTrials":120,"trials_to_rest":500,"Trials_order":[38,96,107,101,93,6,59,14,115,82,40,63,48,25,86,30,5,100,104,1,47,88,92,110,62,119,33,70,56,49,109,44,34,9,36,67,10,90,18,29,32,108,113,78,112,73,87,66,26,89,17,37,105,95,20,39,114,65,54,27,8,74,85,11,3,116,50,52,21,41,45,53,98,106,0,31,58,64,57,91,71,80,55,35,75,81,94,15,7,28,23,118,72,97,2,42,19,43,16,83,4,99,103,46,60,79,13,76,117,61,111,77,51,24,68,102,84,22,12,69],"cond_shown":["Congruent","Congruent","Incongruent","Incongruent","Incongruent","Congruent","Incongruent","Congruent","Incongruent","Congruent","Congruent","Incongruent","Congruent","Incongruent","Congruent","Congruent","Incongruent","Congruent","Congruent","Incongruent","Incongruent","Congruent","Congruent","Congruent","Congruent","Incongruent","Incongruent","Congruent","Congruent","Incongruent","Incongruent","Congruent","Congruent","Incongruent","Congruent","Incongruent","Congruent","Congruent","Congruent","Incongruent","Congruent","Congruent","Incongruent","Congruent","Congruent","Incongruent","Incongruent","Congruent","Congruent","Incongruent","Incongruent","Incongruent","Incongruent","Incongruent","Congruent","Incongruent","Congruent","Incongruent","Congruent","Incongruent","Congruent","Congruent","Incongruent","Incongruent","Incongruent","Congruent","Congruent","Congruent","Incongruent","Incongruent","Incongruent","Incongruent","Congruent","Congruent","Congruent","Incongruent","Congruent","Congruent","Incongruent","Incongruent","Incongruent","Congruent","Incongruent","Incongruent","Incongruent","Incongruent","Congruent","Incongruent","Incongruent","Congruent","Incongruent","Congruent","Congruent","Incongruent","Congruent","Congruent","Incongruent","Incongruent","Congruent","Incongruent","Congruent","Incongruent","Incongruent","Congruent","Congruent","Incongruent","Incongruent","Congruent","Incongruent","Incongruent","Incongruent","Incongruent","Incongruent","Congruent","Congruent","Congruent","Congruent","Congruent","Congruent","Incongruent"],"ratio_trial":[200,100,300,300,200,100,300,200,100,300,300,200,100,100,200,100,300,300,200,100,300,300,200,200,200,300,200,300,200,100,100,200,300,200,100,100,300,100,100,300,200,100,300,100,300,100,200,100,200,300,300,100,200,300,200,200,100,300,100,200,200,200,100,300,200,200,200,300,200,300,200,300,200,300,100,100,300,300,200,100,300,200,100,300,200,200,300,200,100,300,300,300,100,100,200,100,100,100,300,300,300,200,100,300,100,100,100,300,200,100,200,300,200,100,200,100,100,300,100,200],"left_num":[15,9,13,4,11,3,4,21,13,7,2,6,7,12,5,7,4,3,5,8,8,11,1,3,4,4,7,4,3,4,9,13,5,7,6,8,5,3,11,4,3,8,13,1,1,4,7,7,8,1,1,11,7,1,9,14,4,13,8,14,3,16,10,13,4,3,8,20,3,8,7,13,7,5,7,8,1,1,4,1,8,15,3,13,3,7,9,6,9,20,8,8,3,9,13,3,6,13,20,13,8,4,2,5,11,9,12,9,4,6,1,4,1,6,6,6,6,24,8,7],"right_num":[4,8,12,2,3,2,2,2,6,20,12,3,9,2,14,15,6,11,14,6,9,1,21,14,3,8,12,1,7,8,20,14,6,14,5,6,7,2,6,2,11,2,12,3,7,8,6,15,2,2,3,9,6,3,4,6,6,12,2,6,9,12,9,12,6,7,2,8,1,14,12,12,18,6,9,1,7,3,14,8,9,4,11,12,11,6,3,3,13,8,9,10,4,6,14,4,11,12,5,12,10,14,8,7,4,20,2,3,14,7,3,8,2,5,3,15,15,2,2,6],"left_den":[25,15,26,20,20,6,20,30,26,14,10,20,14,30,10,14,5,12,10,16,10,22,2,10,8,5,10,10,10,8,10,26,25,10,20,16,25,6,22,20,10,16,26,2,20,8,15,14,15,2,2,22,15,2,20,30,8,26,16,30,12,20,25,26,5,10,15,25,10,10,10,26,15,25,14,20,20,5,6,2,10,25,5,26,4,15,10,20,15,25,10,15,20,18,26,20,10,26,25,26,15,6,4,25,22,10,30,10,6,10,2,5,3,20,15,12,12,30,16,15],"right_den":[10,16,15,4,4,5,4,4,10,25,24,6,15,4,20,25,12,20,20,10,18,5,30,28,10,16,24,10,14,20,25,20,12,28,25,10,14,5,15,4,22,5,15,5,20,20,9,25,6,10,15,15,9,15,16,9,10,15,5,9,20,20,18,15,10,14,6,16,2,28,24,15,27,12,15,2,20,6,30,20,18,10,22,15,20,9,5,6,26,16,18,12,16,10,20,16,22,20,10,15,12,30,20,14,10,25,4,5,30,14,10,16,15,25,15,25,25,4,5,9],"correct_side":[1,1,2,2,2,1,2,1,2,2,2,2,2,2,2,2,1,2,2,2,1,1,2,2,1,1,1,1,2,1,1,2,2,1,1,2,2,1,1,2,2,1,2,2,2,1,2,2,1,1,1,2,2,1,1,2,2,2,1,2,2,1,2,2,1,2,1,1,2,1,1,2,2,2,2,2,2,2,1,1,1,1,1,2,1,2,1,2,1,1,1,2,2,2,2,2,1,2,1,2,2,1,1,2,1,1,2,1,1,1,1,1,1,1,1,2,2,1,1,2],"img_shown":["img2/200/Congruent/L/C_Dist_200_LN_15_LD_25_RN_4_RD_10_0.png","img2/100/Congruent/L/C_Dist_100_LN_9_LD_15_RN_8_RD_16_0.png","img2/300/Incongruent/R/I_Dist_300_LN_13_LD_26_RN_12_RD_15_1.png","img2/300/Incongruent/R/I_Dist_300_LN_4_LD_20_RN_2_RD_4_1.png","img2/200/Incongruent/R/I_Dist_200_LN_11_LD_20_RN_3_RD_4_1.png","img2/100/Congruent/L/C_Dist_100_LN_3_LD_6_RN_2_RD_5_0.png","img2/300/Incongruent/R/I_Dist_300_LN_4_LD_20_RN_2_RD_4_1.png","img2/200/Congruent/L/C_Dist_200_LN_21_LD_30_RN_2_RD_4_0.png","img2/100/Incongruent/R/I_Dist_100_LN_13_LD_26_RN_6_RD_10_1.png","img2/300/Congruent/R/C_Dist_300_LN_7_LD_14_RN_20_RD_25_1.png","img2/300/Congruent/R/C_Dist_300_LN_2_LD_10_RN_12_RD_24_1.png","img2/200/Incongruent/R/I_Dist_200_LN_6_LD_20_RN_3_RD_6_1.png","img2/100/Congruent/R/C_Dist_100_LN_7_LD_14_RN_9_RD_15_1.png","img2/100/Incongruent/R/I_Dist_100_LN_12_LD_30_RN_2_RD_4_1.png","img2/200/Congruent/R/C_Dist_200_LN_5_LD_10_RN_14_RD_20_1.png","img2/100/Congruent/R/C_Dist_100_LN_7_LD_14_RN_15_RD_25_1.png","img2/300/Incongruent/L/I_Dist_300_LN_4_LD_5_RN_6_RD_12_0.png","img2/300/Congruent/R/C_Dist_300_LN_3_LD_12_RN_11_RD_20_1.png","img2/200/Congruent/R/C_Dist_200_LN_5_LD_10_RN_14_RD_20_1.png","img2/100/Incongruent/R/I_Dist_100_LN_8_LD_16_RN_6_RD_10_1.png","img2/300/Incongruent/L/I_Dist_300_LN_8_LD_10_RN_9_RD_18_0.png","img2/300/Congruent/L/C_Dist_300_LN_11_LD_22_RN_1_RD_5_0.png","img2/200/Congruent/R/C_Dist_200_LN_1_LD_2_RN_21_RD_30_1.png","img2/200/Congruent/R/C_Dist_200_LN_3_LD_10_RN_14_RD_28_1.png","img2/200/Congruent/L/C_Dist_200_LN_4_LD_8_RN_3_RD_10_0.png","img2/300/Incongruent/L/I_Dist_300_LN_4_LD_5_RN_8_RD_16_0.png","img2/200/Incongruent/L/I_Dist_200_LN_7_LD_10_RN_12_RD_24_0.png","img2/300/Congruent/L/C_Dist_300_LN_4_LD_10_RN_1_RD_10_0.png","img2/200/Congruent/R/C_Dist_200_LN_3_LD_10_RN_7_RD_14_1.png","img2/100/Incongruent/L/I_Dist_100_LN_4_LD_8_RN_8_RD_20_0.png","img2/100/Incongruent/L/I_Dist_100_LN_9_LD_10_RN_20_RD_25_0.png","img2/200/Congruent/R/C_Dist_200_LN_13_LD_26_RN_14_RD_20_1.png","img2/300/Congruent/R/C_Dist_300_LN_5_LD_25_RN_6_RD_12_1.png","img2/200/Incongruent/L/I_Dist_200_LN_7_LD_10_RN_14_RD_28_0.png","img2/100/Congruent/L/C_Dist_100_LN_6_LD_20_RN_5_RD_25_0.png","img2/100/Incongruent/R/I_Dist_100_LN_8_LD_16_RN_6_RD_10_1.png","img2/300/Congruent/R/C_Dist_300_LN_5_LD_25_RN_7_RD_14_1.png","img2/100/Congruent/L/C_Dist_100_LN_3_LD_6_RN_2_RD_5_0.png","img2/100/Congruent/L/C_Dist_100_LN_11_LD_22_RN_6_RD_15_0.png","img2/300/Incongruent/R/I_Dist_300_LN_4_LD_20_RN_2_RD_4_1.png","img2/200/Congruent/R/C_Dist_200_LN_3_LD_10_RN_11_RD_22_1.png","img2/100/Congruent/L/C_Dist_100_LN_8_LD_16_RN_2_RD_5_0.png","img2/300/Incongruent/R/I_Dist_300_LN_13_LD_26_RN_12_RD_15_1.png","img2/100/Congruent/R/C_Dist_100_LN_1_LD_2_RN_3_RD_5_1.png","img2/300/Congruent/R/C_Dist_300_LN_1_LD_20_RN_7_RD_20_1.png","img2/100/Incongruent/L/I_Dist_100_LN_4_LD_8_RN_8_RD_20_0.png","img2/200/Incongruent/R/I_Dist_200_LN_7_LD_15_RN_6_RD_9_1.png","img2/100/Congruent/R/C_Dist_100_LN_7_LD_14_RN_15_RD_25_1.png","img2/200/Congruent/L/C_Dist_200_LN_8_LD_15_RN_2_RD_6_0.png","img2/300/Incongruent/L/I_Dist_300_LN_1_LD_2_RN_2_RD_10_0.png","img2/300/Incongruent/L/I_Dist_300_LN_1_LD_2_RN_3_RD_15_0.png","img2/100/Incongruent/R/I_Dist_100_LN_11_LD_22_RN_9_RD_15_1.png","img2/200/Incongruent/R/I_Dist_200_LN_7_LD_15_RN_6_RD_9_1.png","img2/300/Incongruent/L/I_Dist_300_LN_1_LD_2_RN_3_RD_15_0.png","img2/200/Congruent/L/C_Dist_200_LN_9_LD_20_RN_4_RD_16_0.png","img2/200/Incongruent/R/I_Dist_200_LN_14_LD_30_RN_6_RD_9_1.png","img2/100/Congruent/R/C_Dist_100_LN_4_LD_8_RN_6_RD_10_1.png","img2/300/Incongruent/R/I_Dist_300_LN_13_LD_26_RN_12_RD_15_1.png","img2/100/Congruent/L/C_Dist_100_LN_8_LD_16_RN_2_RD_5_0.png","img2/200/Incongruent/R/I_Dist_200_LN_14_LD_30_RN_6_RD_9_1.png","img2/200/Congruent/R/C_Dist_200_LN_3_LD_12_RN_9_RD_20_1.png","img2/200/Congruent/L/C_Dist_200_LN_16_LD_20_RN_12_RD_20_0.png","img2/100/Incongruent/R/I_Dist_100_LN_10_LD_25_RN_9_RD_18_1.png","img2/300/Incongruent/R/I_Dist_300_LN_13_LD_26_RN_12_RD_15_1.png","img2/200/Incongruent/L/I_Dist_200_LN_4_LD_5_RN_6_RD_10_0.png","img2/200/Congruent/R/C_Dist_200_LN_3_LD_10_RN_7_RD_14_1.png","img2/200/Congruent/L/C_Dist_200_LN_8_LD_15_RN_2_RD_6_0.png","img2/300/Congruent/L/C_Dist_300_LN_20_LD_25_RN_8_RD_16_0.png","img2/200/Incongruent/R/I_Dist_200_LN_3_LD_10_RN_1_RD_2_1.png","img2/300/Incongruent/L/I_Dist_300_LN_8_LD_10_RN_14_RD_28_0.png","img2/200/Incongruent/L/I_Dist_200_LN_7_LD_10_RN_12_RD_24_0.png","img2/300/Incongruent/R/I_Dist_300_LN_13_LD_26_RN_12_RD_15_1.png","img2/200/Congruent/R/C_Dist_200_LN_7_LD_15_RN_18_RD_27_1.png","img2/300/Congruent/R/C_Dist_300_LN_5_LD_25_RN_6_RD_12_1.png","img2/100/Congruent/R/C_Dist_100_LN_7_LD_14_RN_9_RD_15_1.png","img2/100/Incongruent/R/I_Dist_100_LN_8_LD_20_RN_1_RD_2_1.png","img2/300/Congruent/R/C_Dist_300_LN_1_LD_20_RN_7_RD_20_1.png","img2/300/Congruent/R/C_Dist_300_LN_1_LD_5_RN_3_RD_6_1.png","img2/200/Incongruent/L/I_Dist_200_LN_4_LD_6_RN_14_RD_30_0.png","img2/100/Incongruent/L/I_Dist_100_LN_1_LD_2_RN_8_RD_20_0.png","img2/300/Incongruent/L/I_Dist_300_LN_8_LD_10_RN_9_RD_18_0.png","img2/200/Congruent/L/C_Dist_200_LN_15_LD_25_RN_4_RD_10_0.png","img2/100/Incongruent/L/I_Dist_100_LN_3_LD_5_RN_11_RD_22_0.png","img2/300/Incongruent/R/I_Dist_300_LN_13_LD_26_RN_12_RD_15_1.png","img2/200/Incongruent/L/I_Dist_200_LN_3_LD_4_RN_11_RD_20_0.png","img2/200/Incongruent/R/I_Dist_200_LN_7_LD_15_RN_6_RD_9_1.png","img2/300/Congruent/L/C_Dist_300_LN_9_LD_10_RN_3_RD_5_0.png","img2/200/Incongruent/R/I_Dist_200_LN_6_LD_20_RN_3_RD_6_1.png","img2/100/Incongruent/L/I_Dist_100_LN_9_LD_15_RN_13_RD_26_0.png","img2/300/Congruent/L/C_Dist_300_LN_20_LD_25_RN_8_RD_16_0.png","img2/300/Incongruent/L/I_Dist_300_LN_8_LD_10_RN_9_RD_18_0.png","img2/300/Congruent/R/C_Dist_300_LN_8_LD_15_RN_10_RD_12_1.png","img2/100/Congruent/R/C_Dist_100_LN_3_LD_20_RN_4_RD_16_1.png","img2/100/Incongruent/R/I_Dist_100_LN_9_LD_18_RN_6_RD_10_1.png","img2/200/Congruent/R/C_Dist_200_LN_13_LD_26_RN_14_RD_20_1.png","img2/100/Congruent/R/C_Dist_100_LN_3_LD_20_RN_4_RD_16_1.png","img2/100/Incongruent/L/I_Dist_100_LN_6_LD_10_RN_11_RD_22_0.png","img2/100/Incongruent/R/I_Dist_100_LN_13_LD_26_RN_12_RD_20_1.png","img2/300/Congruent/L/C_Dist_300_LN_20_LD_25_RN_5_RD_10_0.png","img2/300/Incongruent/R/I_Dist_300_LN_13_LD_26_RN_12_RD_15_1.png","img2/300/Congruent/R/C_Dist_300_LN_8_LD_15_RN_10_RD_12_1.png","img2/200/Incongruent/L/I_Dist_200_LN_4_LD_6_RN_14_RD_30_0.png","img2/100/Incongruent/L/I_Dist_100_LN_2_LD_4_RN_8_RD_20_0.png","img2/300/Congruent/R/C_Dist_300_LN_5_LD_25_RN_7_RD_14_1.png","img2/100/Congruent/L/C_Dist_100_LN_11_LD_22_RN_4_RD_10_0.png","img2/100/Incongruent/L/I_Dist_100_LN_9_LD_10_RN_20_RD_25_0.png","img2/100/Incongruent/R/I_Dist_100_LN_12_LD_30_RN_2_RD_4_1.png","img2/300/Congruent/L/C_Dist_300_LN_9_LD_10_RN_3_RD_5_0.png","img2/200/Incongruent/L/I_Dist_200_LN_4_LD_6_RN_14_RD_30_0.png","img2/100/Incongruent/L/I_Dist_100_LN_6_LD_10_RN_7_RD_14_0.png","img2/200/Incongruent/L/I_Dist_200_LN_1_LD_2_RN_3_RD_10_0.png","img2/300/Incongruent/L/I_Dist_300_LN_4_LD_5_RN_8_RD_16_0.png","img2/200/Incongruent/L/I_Dist_200_LN_1_LD_3_RN_2_RD_15_0.png","img2/100/Congruent/L/C_Dist_100_LN_6_LD_20_RN_5_RD_25_0.png","img2/200/Congruent/L/C_Dist_200_LN_6_LD_15_RN_3_RD_15_0.png","img2/100/Congruent/R/C_Dist_100_LN_6_LD_12_RN_15_RD_25_1.png","img2/100/Congruent/R/C_Dist_100_LN_6_LD_12_RN_15_RD_25_1.png","img2/300/Congruent/L/C_Dist_300_LN_24_LD_30_RN_2_RD_4_0.png","img2/100/Congruent/L/C_Dist_100_LN_8_LD_16_RN_2_RD_5_0.png","img2/200/Incongruent/R/I_Dist_200_LN_7_LD_15_RN_6_RD_9_1.png"],"dist100_C":[["C_Dist_100_LN_10_LD_25_RN_3_RD_10_0.png","C_Dist_100_LN_11_LD_22_RN_4_RD_10_0.png","C_Dist_100_LN_11_LD_22_RN_6_RD_15_0.png","C_Dist_100_LN_15_LD_25_RN_13_RD_26_0.png","C_Dist_100_LN_3_LD_6_RN_2_RD_5_0.png","C_Dist_100_LN_6_LD_20_RN_5_RD_25_0.png","C_Dist_100_LN_8_LD_16_RN_2_RD_5_0.png","C_Dist_100_LN_9_LD_15_RN_8_RD_16_0.png"],["C_Dist_100_LN_1_LD_2_RN_18_RD_30_1.png","C_Dist_100_LN_1_LD_2_RN_3_RD_5_1.png","C_Dist_100_LN_12_LD_30_RN_13_RD_26_1.png","C_Dist_100_LN_2_LD_5_RN_11_RD_22_1.png","C_Dist_100_LN_2_LD_5_RN_6_RD_12_1.png","C_Dist_100_LN_3_LD_20_RN_4_RD_16_1.png","C_Dist_100_LN_4_LD_10_RN_15_RD_30_1.png","C_Dist_100_LN_4_LD_8_RN_6_RD_10_1.png","C_Dist_100_LN_6_LD_12_RN_15_RD_25_1.png","C_Dist_100_LN_7_LD_14_RN_15_RD_25_1.png","C_Dist_100_LN_7_LD_14_RN_9_RD_15_1.png"]],"dist100_I":[["I_Dist_100_LN_1_LD_2_RN_8_RD_20_0.png","I_Dist_100_LN_2_LD_4_RN_6_RD_15_0.png","I_Dist_100_LN_2_LD_4_RN_8_RD_20_0.png","I_Dist_100_LN_3_LD_5_RN_11_RD_22_0.png","I_Dist_100_LN_3_LD_5_RN_8_RD_16_0.png","I_Dist_100_LN_3_LD_6_RN_4_RD_10_0.png","I_Dist_100_LN_3_LD_9_RN_7_RD_30_0.png","I_Dist_100_LN_4_LD_8_RN_8_RD_20_0.png","I_Dist_100_LN_6_LD_10_RN_11_RD_22_0.png","I_Dist_100_LN_6_LD_10_RN_13_RD_26_0.png","I_Dist_100_LN_6_LD_10_RN_7_RD_14_0.png","I_Dist_100_LN_9_LD_10_RN_20_RD_25_0.png","I_Dist_100_LN_9_LD_15_RN_13_RD_26_0.png","I_Dist_100_LN_9_LD_15_RN_14_RD_28_0.png"],["I_Dist_100_LN_10_LD_25_RN_8_RD_16_1.png","I_Dist_100_LN_10_LD_25_RN_9_RD_18_1.png","I_Dist_100_LN_11_LD_22_RN_9_RD_15_1.png","I_Dist_100_LN_12_LD_24_RN_9_RD_15_1.png","I_Dist_100_LN_12_LD_30_RN_2_RD_4_1.png","I_Dist_100_LN_13_LD_26_RN_12_RD_20_1.png","I_Dist_100_LN_13_LD_26_RN_6_RD_10_1.png","I_Dist_100_LN_17_LD_30_RN_10_RD_15_1.png","I_Dist_100_LN_6_LD_12_RN_3_RD_5_1.png","I_Dist_100_LN_8_LD_16_RN_6_RD_10_1.png","I_Dist_100_LN_8_LD_20_RN_1_RD_2_1.png","I_Dist_100_LN_9_LD_18_RN_6_RD_10_1.png"]],"dist100_S":[["E_Dist_100_LN_2_LD_12_RN_2_RD_30_0.png","E_Dist_100_LN_6_LD_10_RN_6_RD_12_0.png"],["E_Dist_100_LN_6_LD_12_RN_6_RD_10_1.png"]],"dist200_C":[["C_Dist_200_LN_11_LD_22_RN_3_RD_10_0.png","C_Dist_200_LN_12_LD_15_RN_6_RD_10_0.png","C_Dist_200_LN_12_LD_20_RN_6_RD_15_0.png","C_Dist_200_LN_14_LD_28_RN_6_RD_20_0.png","C_Dist_200_LN_15_LD_25_RN_4_RD_10_0.png","C_Dist_200_LN_16_LD_20_RN_12_RD_20_0.png","C_Dist_200_LN_16_LD_30_RN_9_RD_27_0.png","C_Dist_200_LN_20_LD_25_RN_9_RD_15_0.png","C_Dist_200_LN_21_LD_30_RN_2_RD_4_0.png","C_Dist_200_LN_4_LD_10_RN_3_RD_15_0.png","C_Dist_200_LN_4_LD_8_RN_3_RD_10_0.png","C_Dist_200_LN_6_LD_15_RN_3_RD_15_0.png","C_Dist_200_LN_7_LD_21_RN_2_RD_15_0.png","C_Dist_200_LN_8_LD_15_RN_2_RD_6_0.png","C_Dist_200_LN_8_LD_15_RN_3_RD_9_0.png","C_Dist_200_LN_8_LD_15_RN_7_RD_21_0.png","C_Dist_200_LN_9_LD_20_RN_4_RD_16_0.png"],["C_Dist_200_LN_1_LD_2_RN_21_RD_30_1.png","C_Dist_200_LN_13_LD_26_RN_14_RD_20_1.png","C_Dist_200_LN_3_LD_10_RN_11_RD_22_1.png","C_Dist_200_LN_3_LD_10_RN_14_RD_28_1.png","C_Dist_200_LN_3_LD_10_RN_7_RD_14_1.png","C_Dist_200_LN_3_LD_12_RN_9_RD_20_1.png","C_Dist_200_LN_3_LD_6_RN_14_RD_20_1.png","C_Dist_200_LN_5_LD_10_RN_14_RD_20_1.png","C_Dist_200_LN_6_LD_12_RN_7_RD_10_1.png","C_Dist_200_LN_6_LD_20_RN_11_RD_22_1.png","C_Dist_200_LN_7_LD_15_RN_18_RD_27_1.png","C_Dist_200_LN_9_LD_30_RN_13_RD_26_1.png"]],"dist200_I":[["I_Dist_200_LN_1_LD_2_RN_3_RD_10_0.png","I_Dist_200_LN_1_LD_3_RN_2_RD_15_0.png","I_Dist_200_LN_3_LD_4_RN_11_RD_20_0.png","I_Dist_200_LN_4_LD_5_RN_6_RD_10_0.png","I_Dist_200_LN_4_LD_6_RN_14_RD_30_0.png","I_Dist_200_LN_7_LD_10_RN_12_RD_24_0.png","I_Dist_200_LN_7_LD_10_RN_14_RD_28_0.png","I_Dist_200_LN_7_LD_10_RN_8_RD_16_0.png"],["I_Dist_200_LN_11_LD_20_RN_3_RD_4_1.png","I_Dist_200_LN_14_LD_30_RN_12_RD_18_1.png","I_Dist_200_LN_14_LD_30_RN_6_RD_9_1.png","I_Dist_200_LN_3_LD_10_RN_1_RD_2_1.png","I_Dist_200_LN_4_LD_30_RN_1_RD_3_1.png","I_Dist_200_LN_6_LD_20_RN_3_RD_6_1.png","I_Dist_200_LN_7_LD_15_RN_4_RD_6_1.png","I_Dist_200_LN_7_LD_15_RN_6_RD_9_1.png","I_Dist_200_LN_9_LD_15_RN_8_RD_10_1.png"]],"dist200_S":[["E_Dist_200_LN_3_LD_6_RN_3_RD_10_0.png"],["E_Dist_200_LN_3_LD_10_RN_3_RD_6_1.png"]],"dist300_C":[["C_Dist_300_LN_11_LD_22_RN_1_RD_5_0.png","C_Dist_300_LN_11_LD_22_RN_2_RD_10_0.png","C_Dist_300_LN_11_LD_22_RN_4_RD_20_0.png","C_Dist_300_LN_12_LD_24_RN_2_RD_10_0.png","C_Dist_300_LN_18_LD_20_RN_9_RD_15_0.png","C_Dist_300_LN_20_LD_25_RN_13_RD_26_0.png","C_Dist_300_LN_20_LD_25_RN_14_RD_28_0.png","C_Dist_300_LN_20_LD_25_RN_5_RD_10_0.png","C_Dist_300_LN_20_LD_25_RN_8_RD_16_0.png","C_Dist_300_LN_20_LD_25_RN_9_RD_18_0.png","C_Dist_300_LN_24_LD_30_RN_2_RD_4_0.png","C_Dist_300_LN_24_LD_30_RN_8_RD_16_0.png","C_Dist_300_LN_3_LD_6_RN_2_RD_10_0.png","C_Dist_300_LN_4_LD_10_RN_1_RD_10_0.png","C_Dist_300_LN_4_LD_5_RN_2_RD_4_0.png","C_Dist_300_LN_8_LD_16_RN_1_RD_5_0.png","C_Dist_300_LN_9_LD_10_RN_3_RD_5_0.png"],["C_Dist_300_LN_1_LD_20_RN_7_RD_20_1.png","C_Dist_300_LN_1_LD_3_RN_19_RD_30_1.png","C_Dist_300_LN_1_LD_30_RN_8_RD_24_1.png","C_Dist_300_LN_1_LD_5_RN_11_RD_22_1.png","C_Dist_300_LN_1_LD_5_RN_3_RD_6_1.png","C_Dist_300_LN_1_LD_5_RN_6_RD_12_1.png","C_Dist_300_LN_2_LD_10_RN_12_RD_24_1.png","C_Dist_300_LN_2_LD_20_RN_10_RD_25_1.png","C_Dist_300_LN_3_LD_12_RN_11_RD_20_1.png","C_Dist_300_LN_3_LD_6_RN_4_RD_5_1.png","C_Dist_300_LN_4_LD_20_RN_13_RD_26_1.png","C_Dist_300_LN_5_LD_25_RN_6_RD_12_1.png","C_Dist_300_LN_5_LD_25_RN_7_RD_14_1.png","C_Dist_300_LN_7_LD_14_RN_20_RD_25_1.png","C_Dist_300_LN_8_LD_15_RN_10_RD_12_1.png"]],"dist300_I":[["I_Dist_300_LN_1_LD_2_RN_2_RD_10_0.png","I_Dist_300_LN_1_LD_2_RN_3_RD_15_0.png","I_Dist_300_LN_2_LD_4_RN_6_RD_30_0.png","I_Dist_300_LN_3_LD_6_RN_4_RD_20_0.png","I_Dist_300_LN_4_LD_5_RN_6_RD_12_0.png","I_Dist_300_LN_4_LD_5_RN_8_RD_16_0.png","I_Dist_300_LN_7_LD_10_RN_8_RD_20_0.png","I_Dist_300_LN_8_LD_10_RN_14_RD_28_0.png","I_Dist_300_LN_8_LD_10_RN_9_RD_18_0.png"],["I_Dist_300_LN_13_LD_26_RN_12_RD_15_1.png","I_Dist_300_LN_4_LD_20_RN_2_RD_4_1.png"]],"dist300_S":[["E_Dist_300_LN_9_LD_12_RN_9_RD_20_0.png"],["E_Dist_300_LN_18_LD_30_RN_18_RD_20_1.png","E_Dist_300_LN_3_LD_10_RN_3_RD_5_1.png","E_Dist_300_LN_9_LD_20_RN_9_RD_12_1.png"]],"dist500_C":[["C_Dist_500_LN_10_LD_13_RN_7_RD_26_0.png","C_Dist_500_LN_10_LD_15_RN_4_RD_24_0.png","C_Dist_500_LN_12_LD_16_RN_3_RD_12_0.png","C_Dist_500_LN_12_LD_18_RN_4_RD_24_0.png","C_Dist_500_LN_15_LD_18_RN_5_RD_15_0.png","C_Dist_500_LN_15_LD_20_RN_1_RD_4_0.png","C_Dist_500_LN_18_LD_27_RN_1_RD_6_0.png","C_Dist_500_LN_20_LD_24_RN_1_RD_3_0.png","C_Dist_500_LN_20_LD_24_RN_3_RD_9_0.png","C_Dist_500_LN_20_LD_24_RN_7_RD_21_0.png","C_Dist_500_LN_20_LD_28_RN_3_RD_14_0.png","C_Dist_500_LN_21_LD_28_RN_6_RD_24_0.png","C_Dist_500_LN_22_LD_28_RN_2_RD_7_0.png","C_Dist_500_LN_25_LD_30_RN_9_RD_27_0.png","C_Dist_500_LN_4_LD_6_RN_1_RD_6_0.png","C_Dist_500_LN_5_LD_6_RN_2_RD_6_0.png","C_Dist_500_LN_6_LD_9_RN_1_RD_6_0.png","C_Dist_500_LN_7_LD_10_RN_1_RD_5_0.png","C_Dist_500_LN_8_LD_12_RN_1_RD_6_0.png","C_Dist_500_LN_8_LD_12_RN_4_RD_24_0.png"],["C_Dist_500_LN_1_LD_4_RN_12_RD_16_1.png","C_Dist_500_LN_1_LD_4_RN_9_RD_12_1.png","C_Dist_500_LN_1_LD_9_RN_11_RD_18_1.png","C_Dist_500_LN_10_LD_24_RN_22_RD_24_1.png","C_Dist_500_LN_2_LD_12_RN_10_RD_15_1.png","C_Dist_500_LN_2_LD_12_RN_12_RD_18_1.png","C_Dist_500_LN_2_LD_12_RN_4_RD_6_1.png","C_Dist_500_LN_2_LD_24_RN_7_RD_12_1.png","C_Dist_500_LN_2_LD_5_RN_18_RD_20_1.png","C_Dist_500_LN_2_LD_5_RN_9_RD_10_1.png","C_Dist_500_LN_2_LD_8_RN_12_RD_16_1.png","C_Dist_500_LN_2_LD_8_RN_21_RD_28_1.png","C_Dist_500_LN_3_LD_10_RN_4_RD_5_1.png","C_Dist_500_LN_3_LD_12_RN_15_RD_20_1.png","C_Dist_500_LN_3_LD_30_RN_6_RD_10_1.png","C_Dist_500_LN_3_LD_8_RN_14_RD_16_1.png","C_Dist_500_LN_4_LD_16_RN_15_RD_20_1.png","C_Dist_500_LN_4_LD_24_RN_12_RD_18_1.png","C_Dist_500_LN_5_LD_14_RN_6_RD_7_1.png","C_Dist_500_LN_7_LD_21_RN_20_RD_24_1.png","C_Dist_500_LN_7_LD_28_RN_12_RD_16_1.png","C_Dist_500_LN_7_LD_28_RN_9_RD_12_1.png","C_Dist_500_LN_9_LD_27_RN_20_RD_24_1.png"]],"dist500_I":[["I_Dist_500_LN_2_LD_3_RN_4_RD_24_0.png","I_Dist_500_LN_5_LD_6_RN_6_RD_18_0.png","I_Dist_500_LN_7_LD_8_RN_9_RD_24_0.png"],["I_Dist_500_LN_7_LD_21_RN_5_RD_6_1.png"]],"dist500_S":[["E_Dist_500_LN_6_LD_8_RN_6_RD_24_0.png"],["E_Dist_500_LN_2_LD_12_RN_2_RD_3_1.png","E_Dist_500_LN_6_LD_24_RN_6_RD_8_1.png"]]}},{"start_time":1552312909684,"click_time":1552312911428,"finger_time":1552312911049,"fix_duration":854.1799841423461,"trial":1,"RT":1365,"MT":379,"sideResp":1,"stimulus":[],"xmouse":[809,809,809,809,809,809,809,809,809,809,809,809,809,809,809,809,809,809,809,809,809,809,809,809,809,809,809,809,809,809,809,809,809,809,809,809,809,809,809,809,809,809,809,809,809,809,809,809,809,809,809,809,809,809,809,809,809,809,809,809,809,809,809,809,809,809,809,820,823,819,810,804,791,785,774,758,734,704,693,678,661,638,588,566,546,542,529,501],"ymouse":[510,510,510,510,510,510,510,510,510,510,510,510,510,510,510,510,510,510,510,510,510,510,510,510,510,510,510,510,510,510,510,510,510,510,510,510,510,510,510,510,510,510,510,510,510,510,510,510,510,510,510,510,510,510,510,510,510,510,510,510,510,510,510,510,510,510,510,472,406,370,344,320,281,267,248,228,198,165,154,144,134,121,91,78,61,57,48,33],"timestamp_mouse":[13,23,43,63,83,103,125,144,165,183,204,224,243,263,285,304,324,344,364,384,403,424,443,464,483,505,523,543,563,584,603,624,644,664,683,704,723,743,763,783,804,823,844,864,884,903,923,943,965,983,1004,1024,1043,1065,1084,1103,1123,1143,1163,1183,1203,1224,1243,1263,1283,1303,1324,1343,1365,1383,1403,1424,1444,1463,1483,1504,1524,1543,1563,1583,1603,1624,1644,1663,1683,1703,1723,1744],"xSR":741.5,"ySR":469.95,"xT1":424.9,"yT1":0,"xT2":1058.1,"yT2":0,"toosoon":0,"cond_shown":"Congruent","ratio_trial":100,"L_num":9,"L_den":15,"R_num":8,"R_den":16,"correct_side":1,"subjID":"santiagojimenez28","gender":"0","school":"4","age":"9"},{"start_time":1552312915939,"click_time":1552312917647,"finger_time":1552312917249,"fix_duration":1109.559187609893,"trial":2,"RT":1310,"MT":398,"sideResp":2,"stimulus":[],"xmouse":[788,788,788,788,788,788,788,788,788,788,788,788,788,788,788,788,788,788,788,788,788,788,788,788,788,788,788,788,788,788,788,788,788,788,788,788,788,788,788,788,788,788,788,788,788,788,788,788,788,788,788,788,788,788,788,788,788,788,788,788,788,788,788,794,810,948,1047,1139,1207,1255,1262,1264,1264,1264,1254,1248,1241,1234,1224,1190,1174,1162,1156,1152,1151,1149],"ymouse":[534,534,534,534,534,534,534,534,534,534,534,534,534,534,534,534,534,534,534,534,534,534,534,534,534,534,534,534,534,534,534,534,534,534,534,534,534,534,534,534,534,534,534,534,534,534,534,534,534,534,534,534,534,534,534,534,534,534,534,534,534,534,534,532,527,510,505,494,482,450,420,396,382,348,298,274,251,226,203,151,130,114,106,102,101,98],"timestamp_mouse":[27,38,49,68,88,108,128,149,170,189,208,229,248,269,288,309,329,349,368,388,408,429,449,470,489,508,529,548,569,589,609,629,648,669,689,709,728,749,769,788,810,828,849,868,888,909,929,949,968,989,1009,1028,1048,1069,1089,1109,1129,1148,1168,1189,1208,1228,1249,1268,1288,1310,1328,1349,1368,1389,1408,1428,1449,1468,1489,1510,1530,1549,1569,1589,1610,1628,1649,1668,1689,1708],"xSR":741.5,"ySR":469.95,"xT1":424.9,"yT1":0,"xT2":1058.1,"yT2":0,"toosoon":0,"cond_shown":"Incongruent","ratio_trial":300,"L_num":13,"L_den":26,"R_num":12,"R_den":15,"correct_side":2,"subjID":"santiagojimenez28","gender":"0","school":"4","age":"9"},{"start_time":1552312920191,"click_time":1552312922067,"finger_time":1552312921528,"fix_duration":1062.9820706834964,"trial":3,"RT":1337,"MT":539,"sideResp":2,"stimulus":[],"xmouse":[804,804,804,804,804,804,804,804,804,804,804,804,804,804,804,804,804,804,804,804,804,804,804,804,804,804,804,804,804,804,804,804,804,804,804,804,804,804,804,804,804,804,804,804,804,804,804,804,804,804,804,804,804,804,804,804,804,804,804,804,804,804,804,804,815,835,916,947,973,977,978,989,1011,1028,1050,1070,1089,1093,1096,1097,1098,1102,1107,1111,1117,1121,1126,1135,1141,1147,1152,1155,1155,1155],"ymouse":[515,515,515,515,515,515,515,515,515,515,515,515,515,515,515,515,515,515,515,515,515,515,515,515,515,515,515,515,515,515,515,515,515,515,515,515,515,515,515,515,515,515,515,515,515,515,515,515,515,515,515,515,515,515,515,515,515,515,515,515,515,515,515,515,507,499,450,427,404,401,401,400,396,389,378,365,344,335,330,325,317,303,293,282,267,252,232,192,171,147,131,112,105,99],"timestamp_mouse":[16,36,56,77,96,116,136,158,176,197,216,237,257,276,297,318,337,356,377,398,417,436,456,476,497,516,536,557,576,597,617,636,656,677,697,716,736,756,777,798,817,836,858,877,898,917,936,957,976,996,1017,1037,1058,1076,1097,1116,1136,1157,1176,1198,1217,1236,1257,1277,1296,1316,1337,1356,1376,1396,1417,1437,1456,1476,1497,1516,1537,1556,1576,1597,1617,1637,1656,1676,1697,1717,1736,1757,1776,1797,1817,1837,1856,1876],"xSR":741.5,"ySR":469.95,"xT1":424.9,"yT1":0,"xT2":1058.1,"yT2":0,"toosoon":0,"cond_shown":"Incongruent","ratio_trial":300,"L_num":4,"L_den":20,"R_num":2,"R_den":4,"correct_side":2,"subjID":"santiagojimenez28","gender":"0","school":"4","age":"9"},{"start_time":1552312928140,"click_time":1552312930828,"finger_time":1552312929667,"fix_duration":250,"trial":4,"RT":1527,"MT":1161,"sideResp":2,"stimulus":[],"xmouse":[820,820,820,820,820,820,820,820,820,820,820,820,820,820,820,820,820,820,820,820,820,820,820,820,820,820,820,820,820,820,820,820,820,820,820,820,820,820,820,820,820,820,820,820,820,820,820,820,820,820,820,820,820,820,820,820,820,820,820,820,820,820,820,820,820,820,820,821,824,825,825,826,827,829,834,839,846,854,859,865,866,868,881,892,929,947,967,985,1001,1031,1046,1062,1084,1101,1123,1128,1130,1131,1131,1132,1132,1132,1132,1132,1132,1132,1132,1132,1132,1132,1132,1132,1132,1135,1142,1144,1147,1151,1155,1165,1175,1178,1181,1182,1179,1174,1171,1168,1166,1164,1164,1164,1164,1162,1158],"ymouse":[488,488,488,488,488,488,488,488,488,488,488,488,488,488,488,488,488,488,488,488,488,488,488,488,488,488,488,488,488,488,488,488,488,488,488,488,488,488,488,488,488,488,488,488,488,488,488,488,488,488,488,488,488,488,488,488,488,488,488,488,488,488,488,488,488,488,488,488,488,488,488,488,487,487,485,484,483,482,481,481,480,479,475,470,454,444,434,424,416,397,387,376,364,354,339,335,332,330,327,323,316,307,302,296,288,286,284,284,284,282,281,279,272,262,238,226,212,199,186,161,143,134,124,114,95,85,77,70,68,64,64,64,64,64,64],"timestamp_mouse":[10,40,48,68,87,109,128,148,168,187,208,228,249,268,287,308,328,347,368,387,407,428,447,468,487,508,529,548,567,587,608,627,648,667,687,708,729,748,767,787,807,828,847,869,887,908,928,947,969,988,1009,1027,1048,1068,1087,1108,1127,1147,1168,1187,1208,1228,1248,1267,1287,1307,1327,1348,1368,1387,1408,1429,1448,1468,1487,1508,1527,1548,1567,1587,1608,1628,1649,1668,1688,1707,1728,1749,1768,1789,1807,1827,1847,1868,1888,1907,1928,1948,1967,1987,2008,2027,2048,2067,2088,2107,2127,2148,2168,2188,2207,2228,2248,2268,2288,2308,2327,2348,2369,2387,2407,2428,2447,2469,2488,2507,2527,2547,2567,2588,2607,2628,2647,2667,2688],"xSR":741.5,"ySR":469.95,"xT1":424.9,"yT1":0,"xT2":1058.1,"yT2":0,"toosoon":0,"cond_shown":"Incongruent","ratio_trial":200,"L_num":11,"L_den":20,"R_num":3,"R_den":4,"correct_side":2,"subjID":"santiagojimenez28","gender":"0","school":"4","age":"9"},{"start_time":1552312938191,"click_time":1552312940351,"finger_time":1552312939671,"fix_duration":980.9393358051447,"trial":5,"RT":1480,"MT":680,"sideResp":1,"stimulus":[],"xmouse":[780,780,780,780,780,780,780,780,780,780,780,780,780,780,780,780,780,780,780,780,780,780,780,780,780,780,780,780,780,780,780,780,780,780,780,780,780,780,780,780,780,780,780,780,780,780,780,780,780,780,780,780,780,780,780,780,780,780,780,780,780,780,780,780,780,780,780,780,780,780,780,780,773,756,731,704,673,667,665,664,662,661,660,659,658,656,650,644,636,629,622,608,605,598,592,585,573,571,571,571,571,571,571,571,571,570,551,511],"ymouse":[495,495,495,495,495,495,495,495,495,495,495,495,495,495,495,495,495,495,495,495,495,495,495,495,495,495,495,495,495,495,495,495,495,495,495,495,495,495,495,495,495,495,495,495,495,495,495,495,495,495,495,495,495,495,495,495,495,495,495,495,495,495,495,495,495,495,495,495,495,495,495,495,481,456,425,395,361,355,351,349,345,339,334,326,316,302,269,250,220,201,184,152,141,128,115,102,84,82,82,82,82,82,82,82,82,82,82,82],"timestamp_mouse":[16,39,56,78,96,116,136,157,176,197,216,236,258,277,297,317,336,357,377,398,417,436,457,476,496,517,536,557,577,597,616,636,656,676,697,716,736,757,777,798,817,836,857,876,896,916,936,958,977,998,1017,1037,1058,1076,1096,1116,1137,1156,1177,1196,1217,1236,1257,1276,1301,1320,1339,1360,1381,1400,1420,1440,1460,1480,1500,1521,1540,1560,1580,1601,1620,1641,1659,1681,1700,1719,1740,1760,1780,1800,1821,1840,1859,1881,1900,1921,1941,1959,1981,2000,2021,2040,2060,2080,2101,2120,2141,2159],"xSR":741.5,"ySR":469.95,"xT1":424.9,"yT1":0,"xT2":1058.1,"yT2":0,"toosoon":0,"cond_shown":"Congruent","ratio_trial":100,"L_num":3,"L_den":6,"R_num":2,"R_den":5,"correct_side":1,"subjID":"santiagojimenez28","gender":"0","school":"4","age":"9"},{"start_time":1552312942899,"click_time":1552312945631,"finger_time":1552312944011,"fix_duration":1066.2774822888314,"trial":6,"RT":1112,"MT":1620,"sideResp":2,"stimulus":[],"xmouse":[780,780,780,780,780,780,780,780,780,780,780,780,780,780,780,780,780,780,780,780,780,780,780,780,780,780,780,780,780,780,780,780,780,780,780,780,780,780,780,780,780,780,780,780,788,802,821,822,823,823,823,823,823,825,828,835,840,840,840,840,840,840,841,845,850,855,870,877,884,891,898,909,918,926,941,948,954,967,975,980,984,987,992,995,999,1004,1017,1022,1030,1037,1046,1065,1073,1081,1089,1091,1096,1097,1098,1099,1100,1101,1102,1102,1102,1102,1103,1104,1104,1104,1104,1104,1104,1104,1104,1104,1104,1104,1104,1104,1104,1104,1104,1104,1104,1104,1104,1104,1104,1104,1104,1104,1104,1104,1104,1104,1105],"ymouse":[503,503,503,503,503,503,503,503,503,503,503,503,503,503,503,503,503,503,503,503,503,503,503,503,503,503,503,503,503,503,503,503,503,503,503,503,503,503,503,503,503,503,503,503,499,489,475,474,474,474,474,474,474,472,470,466,462,462,462,462,462,462,461,458,454,450,437,430,424,418,414,406,401,395,385,380,374,362,353,346,341,335,327,320,315,308,291,281,267,255,240,212,200,190,177,170,157,154,150,144,140,137,130,125,122,117,108,103,101,101,101,101,101,101,101,101,101,101,101,101,101,101,101,101,101,101,101,101,101,101,101,101,101,101,101,100,99],"timestamp_mouse":[12,37,53,73,93,112,132,152,173,192,213,232,253,273,293,311,332,352,373,392,413,432,453,472,492,512,532,552,573,592,613,632,652,672,692,712,732,752,772,792,812,832,853,873,892,913,932,951,971,992,1012,1032,1051,1072,1092,1112,1133,1152,1172,1192,1212,1232,1253,1272,1293,1311,1332,1351,1372,1392,1412,1433,1453,1473,1492,1513,1532,1553,1572,1592,1613,1632,1652,1673,1692,1713,1733,1753,1772,1792,1812,1833,1853,1872,1892,1912,1932,1952,1972,1993,2013,2032,2052,2073,2093,2112,2133,2151,2173,2192,2212,2232,2253,2271,2292,2312,2333,2353,2371,2392,2411,2432,2453,2472,2493,2512,2532,2552,2571,2592,2613,2633,2652,2673,2693,2712,2732],"xSR":741.5,"ySR":469.95,"xT1":424.9,"yT1":0,"xT2":1058.1,"yT2":0,"toosoon":0,"cond_shown":"Incongruent","ratio_trial":300,"L_num":4,"L_den":20,"R_num":2,"R_den":4,"correct_side":2,"subjID":"santiagojimenez28","gender":"0","school":"4","age":"9"},{"start_time":1552312948326,"click_time":1552312950712,"finger_time":1552312949791,"fix_duration":934.8801168040985,"trial":7,"RT":1465,"MT":921,"sideResp":1,"stimulus":[],"xmouse":[784,784,784,784,784,784,784,784,784,784,784,784,784,784,784,784,784,784,784,784,784,784,784,784,784,784,784,784,784,784,784,784,784,784,784,784,784,784,784,784,784,784,784,784,784,784,784,784,784,784,784,784,784,784,784,784,784,784,784,784,784,784,784,784,784,784,784,781,776,772,769,769,768,765,761,739,728,721,718,716,714,711,707,703,689,682,669,665,660,656,649,638,630,624,621,614,607,603,600,598,594,592,590,583,576,562,558,554,554,553,553,553,553,553,553,543,522,505,492,483],"ymouse":[510,510,510,510,510,510,510,510,510,510,510,510,510,510,510,510,510,510,510,510,510,510,510,510,510,510,510,510,510,510,510,510,510,510,510,510,510,510,510,510,510,510,510,510,510,510,510,510,510,510,510,510,510,510,510,510,510,510,510,510,510,510,510,510,510,510,509,502,493,486,481,481,480,467,454,409,389,375,365,358,348,338,328,316,296,287,275,272,271,269,263,256,250,245,242,235,228,222,218,216,207,202,198,184,172,149,144,139,138,138,138,138,138,138,138,133,123,113,100,89],"timestamp_mouse":[5,26,45,65,84,105,125,145,165,185,205,225,244,265,286,305,326,346,365,386,405,424,444,465,486,505,526,545,565,585,605,625,646,666,685,705,725,745,766,785,805,825,846,865,885,905,924,945,966,984,1005,1026,1045,1066,1085,1104,1126,1144,1166,1186,1204,1225,1245,1266,1284,1304,1326,1345,1366,1384,1405,1426,1445,1465,1486,1505,1525,1545,1566,1585,1606,1625,1645,1664,1685,1705,1726,1745,1765,1786,1806,1824,1846,1865,1885,1906,1924,1945,1966,1986,2006,2025,2046,2065,2085,2106,2124,2145,2165,2185,2205,2224,2246,2266,2285,2305,2326,2345,2365,2386],"xSR":741.5,"ySR":469.95,"xT1":424.9,"yT1":0,"xT2":1058.1,"yT2":0,"toosoon":0,"cond_shown":"Congruent","ratio_trial":200,"L_num":21,"L_den":30,"R_num":2,"R_den":4,"correct_side":1,"subjID":"santiagojimenez28","gender":"0","school":"4","age":"9"},{"start_time":1552312953289,"click_time":1552312955431,"finger_time":1552312954730,"fix_duration":756.7515973820836,"trial":8,"RT":1441,"MT":701,"sideResp":2,"stimulus":[],"xmouse":[767,767,767,767,767,767,767,767,767,767,767,767,767,767,767,767,767,767,767,767,767,767,767,767,767,767,767,767,767,767,767,767,767,767,767,767,767,767,767,767,767,767,767,767,767,767,767,767,767,767,767,767,767,767,767,767,767,767,767,767,767,767,767,767,767,767,767,769,771,776,781,792,821,847,872,906,923,944,951,956,964,974,994,999,1007,1019,1024,1033,1036,1037,1038,1040,1042,1043,1044,1046,1048,1057,1060,1066,1070,1076,1089,1096,1104,1111,1117,1123],"ymouse":[503,503,503,503,503,503,503,503,503,503,503,503,503,503,503,503,503,503,503,503,503,503,503,503,503,503,503,503,503,503,503,503,503,503,503,503,503,503,503,503,503,503,503,503,503,503,503,503,503,503,503,503,503,503,503,503,503,503,503,503,503,503,503,503,503,503,503,501,500,496,493,486,468,454,442,426,420,410,406,402,398,392,381,377,370,356,348,335,331,329,327,323,314,311,307,302,296,272,259,241,228,213,179,160,143,126,104,82],"timestamp_mouse":[10,22,42,62,83,101,122,142,162,182,203,222,242,263,282,301,323,342,362,382,403,423,442,463,483,503,522,542,563,583,602,623,642,662,681,702,723,742,762,782,803,823,842,862,883,902,922,941,962,983,1002,1022,1042,1061,1083,1103,1122,1142,1162,1183,1202,1222,1242,1262,1282,1301,1322,1342,1362,1382,1403,1423,1441,1462,1482,1502,1523,1543,1562,1582,1603,1623,1643,1662,1682,1702,1723,1742,1762,1782,1803,1822,1842,1862,1882,1902,1922,1942,1963,1982,2003,2023,2043,2063,2081,2102,2122,2142],"xSR":741.5,"ySR":469.95,"xT1":424.9,"yT1":0,"xT2":1058.1,"yT2":0,"toosoon":0,"cond_shown":"Incongruent","ratio_trial":100,"L_num":13,"L_den":26,"R_num":6,"R_den":10,"correct_side":2,"subjID":"santiagojimenez28","gender":"0","school":"4","age":"9"},{"start_time":1552312958289,"click_time":1552312960492,"finger_time":1552312959371,"fix_duration":1235.5713484291466,"trial":9,"RT":1082,"MT":1121,"sideResp":2,"stimulus":[],"xmouse":[773,773,773,773,773,773,773,773,773,773,773,773,773,773,773,773,773,773,773,773,773,773,773,773,773,773,773,773,773,773,773,773,773,773,773,773,773,773,773,775,777,781,784,784,785,786,788,790,796,798,800,801,802,804,807,810,816,829,835,841,843,845,846,848,850,856,863,884,894,906,918,928,949,964,969,983,991,1011,1024,1034,1046,1055,1070,1075,1078,1081,1081,1081,1081,1081,1081,1081,1081,1081,1081,1081,1081,1081,1081,1081,1081,1081,1081,1081,1081,1081,1081,1081,1082,1083,1085],"ymouse":[513,513,513,513,513,513,513,513,513,513,513,513,513,513,513,513,513,513,513,513,513,513,513,513,513,513,513,513,513,513,513,513,513,513,513,513,513,513,513,512,509,504,500,499,498,496,493,489,482,479,477,476,473,471,468,465,460,448,443,438,436,435,434,434,432,427,422,403,391,376,360,345,310,282,273,250,236,206,189,174,158,145,125,118,113,110,109,108,108,108,108,108,108,108,108,108,108,108,108,108,108,108,108,108,108,108,108,108,106,103,99],"timestamp_mouse":[14,30,44,61,83,102,121,142,162,182,202,222,242,262,283,302,322,342,363,383,402,421,442,463,482,502,521,542,562,582,602,622,642,663,683,702,722,742,761,782,803,823,842,862,883,903,922,942,963,982,1002,1022,1041,1063,1082,1102,1121,1142,1163,1181,1203,1222,1242,1263,1283,1302,1323,1343,1363,1381,1402,1423,1443,1462,1482,1502,1522,1542,1563,1582,1602,1621,1642,1661,1683,1702,1723,1742,1763,1782,1802,1822,1843,1862,1883,1902,1922,1943,1963,1983,2001,2022,2042,2062,2083,2103,2123,2143,2161,2181,2203],"xSR":741.5,"ySR":469.95,"xT1":424.9,"yT1":0,"xT2":1058.1,"yT2":0,"toosoon":0,"cond_shown":"Congruent","ratio_trial":300,"L_num":7,"L_den":14,"R_num":20,"R_den":25,"correct_side":2,"subjID":"santiagojimenez28","gender":"0","school":"4","age":"9"},{"start_time":1552312963846,"click_time":1552312965591,"finger_time":1552312965231,"fix_duration":1391.2935991830984,"trial":10,"RT":1385,"MT":360,"sideResp":2,"stimulus":[],"xmouse":[766,766,766,766,766,766,766,766,766,766,766,766,766,766,766,766,766,766,766,766,766,766,766,766,766,766,766,766,766,766,766,766,766,766,766,766,766,766,766,766,766,766,766,766,766,766,766,766,766,766,766,766,766,766,766,766,766,766,766,766,766,766,766,766,766,767,769,780,790,827,851,875,894,911,940,954,966,978,991,1006,1011,1017,1024,1032,1056,1072,1094,1122],"ymouse":[499,499,499,499,499,499,499,499,499,499,499,499,499,499,499,499,499,499,499,499,499,499,499,499,499,499,499,499,499,499,499,499,499,499,499,499,499,499,499,499,499,499,499,499,499,499,499,499,499,499,499,499,499,499,499,499,499,499,499,499,499,499,499,499,499,499,498,491,485,469,458,448,438,428,405,391,377,359,341,317,304,290,274,252,200,164,127,77],"timestamp_mouse":[13,36,46,65,85,106,126,146,165,185,205,225,245,266,285,306,325,344,366,385,406,425,446,465,486,506,525,546,565,585,604,625,646,665,685,706,725,744,765,785,805,826,845,865,884,906,924,946,965,984,1004,1026,1046,1065,1085,1105,1125,1146,1165,1185,1206,1224,1245,1264,1285,1305,1325,1346,1366,1385,1405,1425,1445,1465,1486,1506,1524,1546,1566,1586,1606,1625,1646,1666,1686,1707,1725,1745],"xSR":741.5,"ySR":469.95,"xT1":424.9,"yT1":0,"xT2":1058.1,"yT2":0,"toosoon":0,"cond_shown":"Congruent","ratio_trial":300,"L_num":2,"L_den":10,"R_num":12,"R_den":24,"correct_side":2,"subjID":"santiagojimenez28","gender":"0","school":"4","age":"9"},{"start_time":1552312969805,"click_time":1552312972191,"finger_time":1552312971311,"fix_duration":1113.16933652346,"trial":11,"RT":1506,"MT":880,"sideResp":2,"stimulus":[],"xmouse":[784,784,784,784,784,784,784,784,784,784,784,784,784,784,784,784,784,784,784,784,784,784,784,784,784,784,784,784,784,784,784,784,784,784,784,784,784,784,784,784,784,784,784,784,784,784,784,784,784,784,784,784,784,784,784,784,784,784,784,784,784,784,784,784,784,784,784,784,784,784,784,787,800,813,831,849,869,901,916,924,938,965,978,985,989,993,994,994,994,995,1000,1010,1016,1022,1029,1036,1049,1059,1064,1069,1077,1093,1101,1104,1108,1109,1110,1110,1110,1110,1110,1110,1110,1110,1110,1110,1110,1110,1110,1109],"ymouse":[544,544,544,544,544,544,544,544,544,544,544,544,544,544,544,544,544,544,544,544,544,544,544,544,544,544,544,544,544,544,544,544,544,544,544,544,544,544,544,544,544,544,544,544,544,544,544,544,544,544,544,544,544,544,544,544,544,544,544,544,544,544,544,544,544,544,544,544,544,544,544,541,530,517,505,492,479,461,452,448,440,423,413,407,403,399,398,398,395,392,385,363,348,334,322,310,285,268,256,246,232,203,186,172,156,145,128,123,119,112,110,106,106,106,106,106,106,105,101,97],"timestamp_mouse":[14,40,46,66,87,106,126,147,167,186,207,226,246,267,287,306,326,346,367,386,407,426,446,467,487,507,526,547,567,586,605,626,646,667,686,707,726,747,767,787,806,827,845,866,887,906,926,947,966,987,1007,1026,1046,1066,1086,1107,1126,1147,1167,1187,1206,1226,1247,1267,1287,1307,1326,1347,1366,1387,1406,1426,1446,1466,1487,1506,1526,1547,1566,1586,1606,1626,1647,1667,1687,1705,1725,1746,1765,1785,1805,1826,1845,1866,1885,1906,1925,1947,1965,1985,2007,2026,2046,2067,2087,2107,2126,2147,2166,2187,2207,2226,2246,2266,2287,2305,2327,2346,2366,2386],"xSR":741.5,"ySR":469.95,"xT1":424.9,"yT1":0,"xT2":1058.1,"yT2":0,"toosoon":0,"cond_shown":"Incongruent","ratio_trial":200,"L_num":6,"L_den":20,"R_num":3,"R_den":6,"correct_side":2,"subjID":"santiagojimenez28","gender":"0","school":"4","age":"9"},{"start_time":1552312974679,"click_time":1552312976911,"finger_time":1552312976212,"fix_duration":905.7405592499188,"trial":12,"RT":1533,"MT":699,"sideResp":2,"stimulus":[],"xmouse":[795,795,795,795,795,795,795,795,795,795,795,795,795,795,795,795,795,795,795,795,795,795,795,795,795,795,795,795,795,795,795,795,795,795,795,795,795,795,795,795,795,795,795,795,795,795,795,795,795,795,795,795,795,795,795,795,795,795,795,795,795,795,795,795,795,795,795,795,795,795,795,797,803,808,820,825,847,860,881,889,895,900,908,914,924,932,937,942,943,946,950,957,967,969,972,974,979,993,1004,1018,1034,1047,1061,1062,1064,1065,1068,1078,1082,1085,1088,1089],"ymouse":[507,507,507,507,507,507,507,507,507,507,507,507,507,507,507,507,507,507,507,507,507,507,507,507,507,507,507,507,507,507,507,507,507,507,507,507,507,507,507,507,507,507,507,507,507,507,507,507,507,507,507,507,507,507,507,507,504,501,498,495,494,494,494,494,494,494,494,494,494,494,494,492,486,483,476,473,461,454,442,435,431,427,415,408,389,376,367,358,355,350,344,334,320,316,312,309,303,282,268,248,225,205,180,176,172,168,160,134,124,113,104,98],"timestamp_mouse":[13,34,52,72,93,113,132,152,172,192,211,232,252,273,292,312,332,351,373,393,413,433,451,473,493,512,533,552,572,593,612,632,652,672,693,713,732,752,772,791,813,833,852,873,892,913,933,951,972,993,1012,1032,1052,1071,1093,1113,1132,1152,1173,1192,1213,1233,1252,1272,1292,1311,1333,1352,1372,1393,1413,1433,1452,1473,1493,1512,1533,1552,1572,1592,1613,1632,1653,1672,1692,1713,1732,1752,1771,1793,1812,1832,1853,1871,1891,1913,1932,1952,1973,1992,2013,2032,2053,2072,2092,2112,2132,2152,2171,2192,2212,2232],"xSR":741.5,"ySR":469.95,"xT1":424.9,"yT1":0,"xT2":1058.1,"yT2":0,"toosoon":0,"cond_shown":"Congruent","ratio_trial":100,"L_num":7,"L_den":14,"R_num":9,"R_den":15,"correct_side":2,"subjID":"santiagojimenez28","gender":"0","school":"4","age":"9"},{"start_time":1552312978443,"click_time":1552312980412,"finger_time":1552312979931,"fix_duration":250,"trial":13,"RT":1488,"MT":481,"sideResp":2,"stimulus":[],"xmouse":[769,770,770,770,770,770,770,773,775,782,783,784,784,784,784,784,784,784,784,784,784,784,784,784,784,784,784,784,784,784,784,784,784,784,784,784,784,784,784,784,784,784,784,784,784,784,784,784,784,784,784,784,784,784,784,784,784,784,784,784,784,784,784,784,784,784,784,784,785,790,808,818,826,836,857,869,890,926,949,979,1001,1016,1031,1043,1068,1083,1088,1095,1098,1100,1101,1101,1102,1103,1105,1109,1110,1111,1113],"ymouse":[530,529,529,529,529,529,529,526,524,520,518,516,515,515,515,515,515,515,515,515,515,515,515,515,515,515,515,515,515,515,515,515,515,515,515,515,515,515,515,515,515,515,515,515,515,515,515,515,515,515,515,515,515,515,515,515,515,515,515,515,515,515,515,515,515,515,515,515,514,509,498,492,487,479,460,448,431,405,387,360,335,315,296,277,234,208,199,180,171,160,156,154,150,145,139,124,118,109,99],"timestamp_mouse":[21,44,48,68,88,108,128,147,168,188,208,229,249,268,288,309,328,348,368,388,408,428,448,469,487,509,528,549,568,588,609,629,648,667,688,709,728,748,768,787,809,829,848,869,888,909,927,947,969,988,1008,1027,1048,1067,1088,1108,1129,1147,1168,1188,1209,1229,1247,1269,1288,1309,1328,1348,1369,1388,1408,1428,1449,1468,1487,1508,1528,1548,1574,1591,1609,1628,1648,1668,1688,1707,1728,1747,1768,1788,1808,1828,1848,1868,1888,1909,1929,1948,1969],"xSR":741.5,"ySR":469.95,"xT1":424.9,"yT1":0,"xT2":1058.1,"yT2":0,"toosoon":0,"cond_shown":"Incongruent","ratio_trial":100,"L_num":12,"L_den":30,"R_num":2,"R_den":4,"correct_side":2,"subjID":"santiagojimenez28","gender":"0","school":"4","age":"9"},{"start_time":1552312982539,"click_time":1552312984431,"finger_time":1552312983811,"fix_duration":706.9941726957376,"trial":14,"RT":1272,"MT":620,"sideResp":2,"stimulus":[],"xmouse":[789,789,789,789,789,789,789,789,789,789,789,789,789,789,789,789,789,789,789,789,789,789,789,789,789,789,789,789,789,789,789,789,789,789,789,789,789,789,789,789,789,789,789,789,789,789,789,789,789,789,789,789,789,789,789,791,795,800,811,815,819,826,832,846,854,864,872,881,897,904,919,926,946,973,984,991,998,1007,1025,1037,1043,1055,1061,1074,1079,1088,1095,1102,1115,1119,1123,1129,1133,1136],"ymouse":[499,499,499,499,499,499,499,499,499,499,499,499,501,502,502,502,502,502,502,502,502,502,502,502,502,502,502,502,502,502,502,502,502,502,502,502,502,502,502,502,502,502,502,502,502,502,502,502,502,502,502,502,502,502,502,503,501,497,489,485,481,474,467,451,441,431,421,409,383,365,336,328,303,277,265,258,251,242,226,214,209,199,192,176,169,161,152,146,131,124,117,108,100,93],"timestamp_mouse":[32,52,73,92,113,133,152,173,192,212,233,252,273,292,312,332,352,371,391,412,433,452,473,492,511,533,553,573,592,613,633,653,672,691,711,732,753,773,792,813,833,853,872,891,912,933,953,972,992,1012,1031,1052,1073,1092,1111,1133,1152,1172,1192,1213,1233,1251,1272,1292,1312,1332,1353,1373,1393,1411,1432,1452,1473,1492,1512,1532,1552,1572,1591,1612,1632,1652,1673,1692,1712,1732,1752,1773,1793,1812,1833,1853,1872,1892],"xSR":741.5,"ySR":469.95,"xT1":424.9,"yT1":0,"xT2":1058.1,"yT2":0,"toosoon":0,"cond_shown":"Congruent","ratio_trial":200,"L_num":5,"L_den":10,"R_num":14,"R_den":20,"correct_side":2,"subjID":"santiagojimenez28","gender":"0","school":"4","age":"9"},{"start_time":1552312985864,"click_time":1552312987712,"finger_time":1552312987231,"fix_duration":250,"trial":15,"RT":1367,"MT":481,"sideResp":2,"stimulus":[],"xmouse":[789,789,789,789,789,789,789,789,789,789,789,789,789,789,789,789,789,789,789,789,789,789,789,789,789,789,789,789,789,789,789,789,789,789,789,789,789,789,789,789,789,789,789,789,789,789,789,789,789,789,789,789,789,789,789,789,789,789,789,789,789,789,789,789,796,799,815,828,849,856,862,868,874,885,891,898,902,905,916,922,930,941,952,967,1003,1023,1037,1050,1073,1083,1095,1104,1111],"ymouse":[514,514,514,514,514,514,514,514,514,514,514,514,514,514,514,514,514,514,514,514,514,514,514,514,514,514,514,514,514,514,514,514,514,514,514,514,514,514,514,514,514,514,514,514,514,514,514,514,514,514,514,514,514,514,514,514,514,514,514,514,514,514,514,514,508,504,489,476,452,442,433,423,415,395,386,376,370,365,351,341,330,318,305,287,253,224,206,187,150,133,116,100,87],"timestamp_mouse":[12,36,47,67,88,108,126,148,167,188,207,227,248,267,288,307,328,347,367,387,407,427,446,467,487,507,528,547,568,588,607,627,648,667,687,708,726,747,767,786,807,827,846,867,887,908,928,946,966,987,1007,1026,1047,1066,1087,1107,1128,1147,1167,1187,1207,1228,1247,1267,1288,1307,1332,1347,1367,1387,1407,1428,1447,1468,1486,1507,1528,1548,1568,1586,1607,1628,1648,1667,1687,1708,1727,1748,1768,1788,1807,1827,1848],"xSR":741.5,"ySR":469.95,"xT1":424.9,"yT1":0,"xT2":1058.1,"yT2":0,"toosoon":0,"cond_shown":"Congruent","ratio_trial":100,"L_num":7,"L_den":14,"R_num":15,"R_den":25,"correct_side":2,"subjID":"santiagojimenez28","gender":"0","school":"4","age":"9"},{"start_time":1552312989581,"click_time":1552312991911,"finger_time":1552312990331,"fix_duration":749.5792563931672,"trial":16,"RT":750,"MT":1580,"sideResp":1,"stimulus":[],"xmouse":[790,790,790,790,790,790,790,790,789,788,788,788,788,788,788,788,788,788,788,788,788,788,788,788,788,788,788,788,788,788,788,788,788,788,788,788,786,781,777,774,772,770,762,757,753,747,739,726,720,717,715,714,711,709,703,694,681,658,647,632,626,621,616,614,611,610,606,599,595,588,587,587,587,587,587,587,587,587,587,584,548,526,502,467,465,465,465,465,465,465,465,465,465,465,470,475,477,483,486,486,486,486,486,486,486,486,486,486,486,486,486,486,486,486,486,486,487],"ymouse":[487,487,487,487,487,488,488,489,491,494,495,495,495,495,495,495,495,495,495,495,495,495,495,495,495,495,495,495,495,495,495,495,495,495,493,489,481,467,461,456,451,447,438,432,427,422,416,406,401,398,396,394,388,383,374,360,343,307,289,258,239,223,192,176,160,148,133,106,92,76,74,74,74,74,74,74,74,74,73,74,85,97,107,118,119,119,119,119,119,119,119,119,119,119,118,115,113,105,100,100,100,100,100,100,100,100,100,100,100,100,100,100,100,100,100,100,99],"timestamp_mouse":[10,40,49,69,91,110,130,151,169,190,210,231,250,271,290,311,331,350,371,390,410,429,450,470,490,511,530,550,570,590,609,631,650,669,690,711,731,750,771,789,811,831,850,870,890,911,931,950,970,990,1011,1030,1050,1070,1090,1111,1130,1150,1169,1190,1211,1230,1250,1271,1290,1310,1329,1350,1370,1389,1410,1430,1450,1471,1491,1511,1531,1550,1571,1590,1610,1630,1650,1671,1691,1711,1731,1750,1770,1791,1811,1830,1850,1870,1891,1910,1931,1950,1969,1990,2010,2030,2050,2071,2090,2110,2130,2150,2170,2191,2210,2230,2250,2270,2291,2310,2330],"xSR":741.5,"ySR":469.95,"xT1":424.9,"yT1":0,"xT2":1058.1,"yT2":0,"toosoon":0,"cond_shown":"Incongruent","ratio_trial":300,"L_num":4,"L_den":5,"R_num":6,"R_den":12,"correct_side":1,"subjID":"santiagojimenez28","gender":"0","school":"4","age":"9"},{"start_time":1552312995519,"click_time":1552312997771,"finger_time":1552312996910,"fix_duration":886.9154892823486,"trial":17,"RT":1391,"MT":861,"sideResp":2,"stimulus":[],"xmouse":[770,770,770,770,770,770,770,770,770,770,770,770,770,770,770,770,770,770,770,770,770,770,770,770,770,770,770,770,770,770,770,770,770,770,770,770,770,770,770,770,770,770,770,770,770,770,770,770,770,770,770,770,770,770,770,770,770,770,770,770,770,770,770,770,775,799,810,825,837,844,853,857,859,864,869,879,885,895,903,911,931,939,947,956,961,963,964,966,968,969,977,983,989,999,1004,1017,1021,1026,1030,1035,1043,1046,1049,1053,1055,1063,1066,1072,1076,1081,1091,1096,1100],"ymouse":[519,519,519,519,519,519,519,519,519,519,519,519,519,519,519,519,519,519,519,519,519,519,519,519,519,519,519,519,519,519,519,519,519,519,519,519,519,519,519,519,519,519,519,519,519,519,519,519,519,519,519,519,519,519,519,519,519,519,519,519,519,519,519,519,517,506,499,491,484,479,473,471,470,467,465,460,456,450,443,436,416,405,394,375,366,353,348,343,337,329,305,291,279,262,254,238,232,226,220,214,205,200,196,188,182,168,161,152,143,131,111,101,90],"timestamp_mouse":[21,42,52,73,93,111,132,152,173,193,211,231,253,273,292,312,333,352,373,393,412,432,452,473,492,512,532,553,572,593,612,633,653,672,692,712,732,753,773,791,812,833,852,872,893,912,932,952,972,992,1012,1032,1053,1073,1092,1112,1132,1152,1173,1193,1212,1232,1253,1273,1293,1312,1332,1352,1373,1391,1413,1431,1452,1472,1492,1512,1531,1552,1573,1592,1613,1632,1652,1672,1691,1712,1732,1752,1773,1792,1812,1833,1853,1872,1892,1913,1931,1952,1973,1992,2011,2032,2051,2071,2091,2112,2133,2153,2172,2193,2212,2231,2251],"xSR":741.5,"ySR":469.95,"xT1":424.9,"yT1":0,"xT2":1058.1,"yT2":0,"toosoon":0,"cond_shown":"Congruent","ratio_trial":300,"L_num":3,"L_den":12,"R_num":11,"R_den":20,"correct_side":2,"subjID":"santiagojimenez28","gender":"0","school":"4","age":"9"},{"start_time":1552313000313,"click_time":1552313002174,"finger_time":1552313001613,"fix_duration":1178.7705544788048,"trial":18,"RT":1300,"MT":561,"sideResp":2,"stimulus":[],"xmouse":[782,782,782,782,782,782,782,782,782,782,782,782,782,782,782,782,782,782,782,782,782,782,782,782,782,782,782,782,782,782,782,782,782,782,782,782,782,782,782,782,782,782,782,782,782,782,782,782,782,782,782,782,782,782,782,782,782,782,782,782,782,785,786,789,797,805,825,833,844,854,861,869,892,907,932,949,975,983,987,992,1000,1020,1032,1041,1049,1056,1064,1068,1071,1074,1078,1086,1090,1093],"ymouse":[505,505,505,505,505,505,505,505,505,505,505,505,505,505,505,505,505,505,505,505,505,505,505,505,505,505,505,505,505,505,505,505,505,505,505,505,505,505,505,505,505,505,505,505,505,505,505,505,505,505,505,505,505,505,505,505,505,505,505,505,502,495,492,486,476,465,443,436,431,426,423,417,398,386,359,336,303,292,287,278,269,240,221,205,191,176,159,152,143,135,128,109,100,94],"timestamp_mouse":[10,38,40,61,80,101,120,140,162,181,201,220,241,260,281,301,320,341,360,381,401,421,441,461,480,501,521,540,561,581,600,620,641,661,681,701,720,741,760,780,801,821,840,861,881,901,921,940,962,981,1001,1021,1042,1061,1081,1101,1120,1140,1160,1181,1202,1220,1240,1260,1281,1300,1321,1340,1361,1381,1401,1421,1440,1461,1481,1502,1521,1540,1560,1581,1600,1621,1641,1661,1681,1700,1720,1740,1760,1780,1801,1821,1840,1861],"xSR":741.5,"ySR":469.95,"xT1":424.9,"yT1":0,"xT2":1058.1,"yT2":0,"toosoon":0,"cond_shown":"Congruent","ratio_trial":200,"L_num":5,"L_den":10,"R_num":14,"R_den":20,"correct_side":2,"subjID":"santiagojimenez28","gender":"0","school":"4","age":"9"},{"start_time":1552313003803,"click_time":1552313005914,"finger_time":1552313005254,"fix_duration":407.6231912817814,"trial":19,"RT":1451,"MT":660,"sideResp":2,"stimulus":[],"xmouse":[788,788,788,788,788,788,788,788,788,788,788,788,788,788,788,788,788,788,788,788,788,788,788,788,788,788,788,788,788,788,788,788,788,788,788,788,788,788,788,788,788,788,788,788,788,788,788,788,788,788,788,788,788,788,788,788,788,788,788,788,788,788,788,788,788,788,788,788,788,788,788,816,854,898,931,947,961,967,968,974,978,990,995,998,1000,1004,1009,1012,1015,1019,1023,1034,1041,1048,1055,1063,1082,1091,1097,1099,1100,1101,1101,1104,1107,1108],"ymouse":[523,523,523,523,523,523,523,523,523,523,523,523,523,523,523,523,523,523,523,523,523,523,523,523,523,523,523,523,523,523,523,523,523,523,523,523,523,523,523,523,523,523,523,523,523,523,523,523,523,523,523,523,523,523,523,523,523,523,523,523,523,523,523,523,523,523,523,523,523,523,523,513,502,490,480,473,464,458,456,450,444,428,420,414,409,401,386,377,366,351,337,306,286,266,241,217,165,146,133,127,125,124,120,113,103,96],"timestamp_mouse":[10,40,51,70,90,110,130,151,171,191,211,230,251,270,290,311,330,350,370,390,410,430,451,475,491,511,531,551,571,590,611,630,651,670,691,710,731,750,770,791,811,830,852,871,891,911,931,951,971,990,1010,1031,1050,1070,1090,1112,1130,1152,1171,1190,1211,1230,1251,1272,1291,1310,1330,1351,1370,1390,1411,1430,1451,1470,1490,1511,1531,1550,1570,1590,1610,1631,1651,1671,1690,1710,1731,1752,1771,1790,1810,1831,1850,1870,1890,1910,1931,1950,1970,1991,2010,2030,2050,2071,2090,2111],"xSR":741.5,"ySR":469.95,"xT1":424.9,"yT1":0,"xT2":1058.1,"yT2":0,"toosoon":0,"cond_shown":"Incongruent","ratio_trial":100,"L_num":8,"L_den":16,"R_num":6,"R_den":10,"correct_side":2,"subjID":"santiagojimenez28","gender":"0","school":"4","age":"9"},{"start_time":1552313008867,"click_time":1552313010894,"finger_time":1552313010173,"fix_duration":1410.9375153946783,"trial":20,"RT":1306,"MT":721,"sideResp":1,"stimulus":[],"xmouse":[787,787,787,787,787,787,787,787,787,787,787,787,787,787,787,787,787,787,787,787,787,787,787,787,787,787,787,787,787,787,787,787,787,787,787,787,787,787,787,787,787,787,787,787,787,787,787,787,787,787,787,787,787,787,787,787,787,787,787,787,787,787,787,762,745,725,718,715,713,712,712,710,708,701,699,694,688,681,666,657,648,640,633,618,603,600,595,590,586,586,584,581,576,571,555,547,539,535,529,525,515,507],"ymouse":[522,522,522,522,522,522,522,522,522,522,522,522,522,522,522,522,522,522,522,522,522,522,522,522,522,522,522,522,522,522,522,522,522,522,522,522,522,522,522,522,522,522,522,522,522,522,522,522,522,522,522,522,522,522,522,522,522,522,522,522,522,522,515,489,471,443,425,411,396,392,386,381,372,353,348,341,335,327,310,298,287,275,265,246,228,224,215,204,197,196,193,188,182,175,150,139,126,120,115,110,103,97],"timestamp_mouse":[12,37,46,67,86,106,128,148,166,187,206,226,246,266,287,306,327,347,366,388,406,427,446,466,486,506,526,546,566,586,606,627,646,666,687,706,726,747,766,786,807,827,846,867,886,906,926,947,966,987,1008,1026,1046,1066,1086,1108,1127,1146,1166,1188,1206,1226,1247,1266,1287,1306,1328,1348,1366,1386,1406,1427,1446,1467,1486,1507,1527,1546,1567,1586,1606,1627,1648,1666,1686,1706,1726,1746,1767,1786,1806,1826,1847,1866,1887,1907,1927,1947,1966,1987,2008,2027],"xSR":741.5,"ySR":469.95,"xT1":424.9,"yT1":0,"xT2":1058.1,"yT2":0,"toosoon":0,"cond_shown":"Incongruent","ratio_trial":300,"L_num":8,"L_den":10,"R_num":9,"R_den":18,"correct_side":1,"subjID":"santiagojimenez28","gender":"0","school":"4","age":"9"},{"start_time":1552313013233,"click_time":1552313015454,"finger_time":1552313014633,"fix_duration":1297.5086701392925,"trial":21,"RT":1400,"MT":821,"sideResp":1,"stimulus":[],"xmouse":[775,775,775,775,775,775,775,775,775,775,775,775,775,775,775,775,775,775,775,775,775,775,775,775,775,775,775,775,775,775,775,775,775,775,775,775,775,775,775,775,775,775,775,775,775,775,775,775,775,775,775,775,775,775,775,775,775,775,775,775,775,775,775,775,775,775,775,775,774,758,720,708,701,695,688,664,646,630,612,607,607,607,605,603,594,586,586,586,585,582,571,565,560,558,556,552,545,543,541,540,540,540,540,540,540,539,537,535,532,529,522,519],"ymouse":[514,514,514,514,514,514,514,514,514,514,514,514,514,514,514,514,514,514,514,514,514,514,514,514,514,514,514,514,514,514,514,514,514,514,514,514,514,514,514,514,514,514,514,514,514,514,514,514,514,514,514,514,514,514,514,514,514,514,514,514,514,514,514,514,514,514,514,514,505,482,426,410,401,394,387,363,346,327,305,298,297,297,295,290,278,271,270,269,267,263,239,226,218,212,209,201,188,182,176,174,174,174,174,174,174,170,165,151,138,127,104,94],"timestamp_mouse":[10,32,41,62,81,100,121,142,161,180,200,221,240,261,280,300,322,341,361,381,400,421,441,460,481,500,520,540,560,580,600,620,640,660,680,700,721,740,760,782,800,820,841,860,882,900,921,940,961,980,1001,1021,1041,1061,1081,1100,1122,1141,1160,1181,1201,1222,1241,1261,1280,1301,1322,1340,1361,1380,1400,1421,1441,1460,1480,1501,1520,1541,1562,1580,1601,1622,1640,1661,1680,1701,1721,1741,1760,1781,1800,1820,1840,1861,1882,1901,1920,1941,1960,1980,2000,2020,2040,2061,2080,2100,2121,2140,2161,2181,2200,2221],"xSR":741.5,"ySR":469.95,"xT1":424.9,"yT1":0,"xT2":1058.1,"yT2":0,"toosoon":0,"cond_shown":"Congruent","ratio_trial":300,"L_num":11,"L_den":22,"R_num":1,"R_den":5,"correct_side":1,"subjID":"santiagojimenez28","gender":"0","school":"4","age":"9"},{"start_time":1552313017490,"click_time":1552313019053,"finger_time":1552313018474,"fix_duration":914.0585145852674,"trial":22,"RT":984,"MT":579,"sideResp":1,"stimulus":[],"xmouse":[790,790,790,790,790,790,790,790,790,790,790,790,790,790,790,790,790,790,790,790,790,790,790,790,790,790,790,790,790,790,790,790,790,790,790,790,790,790,790,790,790,790,790,790,790,790,790,789,783,774,761,752,745,745,745,745,745,737,727,713,699,686,665,652,636,603,582,566,563,562,561,561,561,560,557,549,540,525,513],"ymouse":[504,504,504,504,504,504,504,504,504,504,504,504,504,504,504,504,504,504,504,504,504,504,504,504,504,504,504,504,504,504,504,504,504,504,504,504,504,504,504,504,504,504,504,504,504,504,504,494,478,462,444,430,420,420,420,420,419,409,396,380,363,345,312,294,273,224,190,131,108,94,86,84,83,81,71,52,40,29,27],"timestamp_mouse":[12,24,44,63,84,103,123,143,165,184,204,224,243,263,284,304,325,343,363,385,403,425,443,464,483,504,523,543,563,584,604,623,643,663,683,704,724,743,764,783,804,823,843,863,883,903,924,944,963,984,1004,1024,1043,1064,1085,1104,1123,1144,1163,1183,1203,1223,1244,1263,1285,1305,1325,1344,1363,1383,1403,1424,1444,1463,1483,1503,1523,1544,1563],"xSR":741.5,"ySR":469.95,"xT1":424.9,"yT1":0,"xT2":1058.1,"yT2":0,"toosoon":0,"cond_shown":"Congruent","ratio_trial":200,"L_num":1,"L_den":2,"R_num":21,"R_den":30,"correct_side":2,"subjID":"santiagojimenez28","gender":"0","school":"4","age":"9"},{"start_time":1552313020726,"click_time":1552313022534,"finger_time":1552313022053,"fix_duration":250,"trial":23,"RT":1327,"MT":481,"sideResp":2,"stimulus":[],"xmouse":[782,782,782,782,782,782,782,782,782,782,782,782,782,782,782,782,782,782,782,782,782,782,782,782,782,782,782,782,782,782,782,782,782,782,782,782,782,782,782,782,782,782,782,782,782,782,782,782,782,782,782,782,782,782,782,782,782,786,794,798,804,805,805,809,815,824,843,852,862,875,887,907,914,920,927,940,947,956,966,975,999,1013,1032,1045,1055,1071,1077,1082,1090,1097,1112],"ymouse":[543,543,543,543,543,543,543,543,543,543,543,543,543,543,543,543,543,543,543,543,543,543,543,543,543,543,543,543,543,543,543,543,543,543,543,543,543,543,543,543,543,543,543,543,543,543,543,543,543,543,543,543,543,543,543,543,539,534,524,519,511,511,510,506,500,492,473,461,447,431,417,394,388,384,378,365,359,351,340,327,295,277,248,226,207,176,162,149,132,115,79],"timestamp_mouse":[14,27,47,69,87,107,127,147,167,187,207,227,247,268,287,307,327,347,367,388,407,428,447,467,487,507,528,547,567,588,608,628,648,668,688,707,728,749,767,788,807,828,848,869,888,907,929,948,968,987,1008,1027,1047,1069,1088,1107,1127,1148,1168,1189,1207,1228,1248,1268,1288,1307,1327,1347,1368,1387,1408,1428,1447,1467,1488,1508,1527,1547,1568,1587,1608,1628,1648,1668,1687,1707,1728,1748,1768,1788,1808],"xSR":741.5,"ySR":469.95,"xT1":424.9,"yT1":0,"xT2":1058.1,"yT2":0,"toosoon":0,"cond_shown":"Congruent","ratio_trial":200,"L_num":3,"L_den":10,"R_num":14,"R_den":28,"correct_side":2,"subjID":"santiagojimenez28","gender":"0","school":"4","age":"9"},{"start_time":1552313023626,"click_time":1552313025434,"finger_time":1552313025034,"fix_duration":250,"trial":24,"RT":1408,"MT":400,"sideResp":1,"stimulus":[],"xmouse":[809,809,809,809,809,809,809,809,809,809,809,809,809,809,809,809,809,809,809,809,809,809,809,809,809,809,809,809,809,809,809,809,809,809,809,809,809,809,809,809,809,809,809,809,808,808,807,807,807,807,807,807,807,807,807,807,807,807,807,807,807,807,807,807,807,807,802,794,786,750,682,652,641,629,619,601,587,568,535,519,515,515,515,515,515,515,514,512,510,510,510],"ymouse":[568,568,568,568,568,568,568,568,568,568,568,568,568,568,568,568,568,568,568,568,568,568,568,568,568,568,568,568,568,568,568,568,568,568,568,568,568,568,568,568,568,568,568,563,560,557,556,556,556,556,556,556,556,556,556,556,556,556,556,556,556,556,556,556,556,556,545,530,518,479,403,366,346,328,312,285,270,251,224,211,207,207,207,207,207,207,205,192,162,137,94],"timestamp_mouse":[9,40,48,67,88,107,127,147,167,188,207,227,247,267,289,307,327,347,368,388,407,427,447,468,488,507,527,547,567,587,607,628,647,668,687,707,728,747,767,787,808,828,847,867,888,907,927,948,968,988,1007,1027,1048,1068,1088,1108,1127,1148,1167,1187,1207,1228,1248,1269,1287,1308,1327,1348,1368,1387,1408,1428,1447,1467,1488,1508,1528,1548,1569,1588,1608,1627,1647,1668,1688,1708,1728,1747,1767,1788,1807],"xSR":741.5,"ySR":469.95,"xT1":424.9,"yT1":0,"xT2":1058.1,"yT2":0,"toosoon":0,"cond_shown":"Congruent","ratio_trial":200,"L_num":4,"L_den":8,"R_num":3,"R_den":10,"correct_side":1,"subjID":"santiagojimenez28","gender":"0","school":"4","age":"9"},{"start_time":1552313026685,"click_time":1552313028434,"finger_time":1552313027315,"fix_duration":250,"trial":25,"RT":630,"MT":1119,"sideResp":1,"stimulus":[],"xmouse":[806,806,806,806,806,806,806,806,806,806,806,806,806,806,806,806,806,806,806,806,806,806,806,806,806,806,806,806,806,806,806,805,804,804,804,804,804,804,804,804,804,804,804,804,804,804,804,804,804,804,804,804,804,804,804,804,804,804,803,782,766,750,723,709,697,677,667,659,658,658,657,657,654,652,647,643,634,632,631,628,622,609,595,571,557,543,534,519],"ymouse":[482,482,482,482,482,482,482,482,482,482,482,482,482,482,482,482,482,482,482,482,482,482,482,482,482,481,481,481,481,477,474,467,463,463,463,463,463,463,463,463,463,463,463,463,463,463,463,463,463,463,463,463,463,463,463,463,463,463,461,453,442,429,395,376,360,335,319,301,297,296,294,293,283,275,267,260,251,250,249,245,237,222,206,165,143,111,91,54],"timestamp_mouse":[12,34,49,69,88,108,128,148,169,190,209,228,249,268,289,310,330,348,369,389,410,429,449,468,488,508,530,548,569,589,609,630,649,668,689,708,729,749,769,788,809,830,850,868,888,909,928,949,968,990,1008,1028,1048,1069,1089,1108,1129,1149,1169,1189,1209,1228,1249,1268,1289,1308,1329,1349,1368,1388,1408,1429,1449,1468,1489,1508,1529,1549,1568,1588,1609,1629,1649,1668,1689,1709,1729,1749],"xSR":741.5,"ySR":469.95,"xT1":424.9,"yT1":0,"xT2":1058.1,"yT2":0,"toosoon":0,"cond_shown":"Incongruent","ratio_trial":300,"L_num":4,"L_den":5,"R_num":8,"R_den":16,"correct_side":1,"subjID":"santiagojimenez28","gender":"0","school":"4","age":"9"},{"start_time":1552313030959,"click_time":1552313032595,"finger_time":1552313032233,"fix_duration":1464.5084515962192,"trial":26,"RT":1274,"MT":362,"sideResp":1,"stimulus":[],"xmouse":[783,783,783,783,783,783,783,783,783,783,783,783,783,783,783,783,783,783,783,783,783,783,783,783,783,783,783,783,783,783,783,783,783,783,783,783,783,783,783,783,783,783,783,783,783,783,783,783,783,783,783,783,783,783,783,782,780,778,768,765,763,763,758,730,714,699,687,677,655,636,629,616,594,581,570,568,568,568,568,564,546,512],"ymouse":[524,524,524,524,524,524,524,524,524,524,524,524,524,524,524,524,524,524,524,524,524,524,524,524,524,524,524,524,524,524,524,524,524,524,524,524,524,524,524,524,524,524,524,524,524,524,524,524,524,524,524,524,524,524,522,517,512,508,494,490,489,487,481,442,412,383,360,340,300,266,255,226,178,151,126,123,122,122,122,118,108,89],"timestamp_mouse":[14,38,54,74,95,116,135,155,174,195,215,235,256,275,294,314,335,354,374,395,414,435,455,474,496,515,536,555,574,594,616,635,655,674,694,716,735,755,774,794,815,835,854,874,896,915,935,955,975,994,1015,1035,1055,1075,1094,1114,1135,1155,1175,1195,1214,1234,1254,1274,1294,1314,1335,1355,1375,1394,1414,1434,1454,1475,1494,1515,1535,1554,1575,1595,1614,1635],"xSR":741.5,"ySR":469.95,"xT1":424.9,"yT1":0,"xT2":1058.1,"yT2":0,"toosoon":0,"cond_shown":"Incongruent","ratio_trial":200,"L_num":7,"L_den":10,"R_num":12,"R_den":24,"correct_side":1,"subjID":"santiagojimenez28","gender":"0","school":"4","age":"9"},{"start_time":1552313035171,"click_time":1552313036935,"finger_time":1552313036433,"fix_duration":1435.4208229919968,"trial":27,"RT":1262,"MT":502,"sideResp":1,"stimulus":[],"xmouse":[782,783,783,786,786,786,786,786,786,786,786,786,786,786,786,786,786,786,786,786,786,786,786,786,786,786,786,786,786,786,786,786,786,786,786,786,786,786,786,786,786,786,786,786,786,786,786,786,786,786,786,786,786,786,786,786,786,783,767,765,764,760,758,739,726,710,694,681,666,657,657,656,652,615,593,574,567,565,560,553,538,527,519,512,512,512,512,512,514],"ymouse":[537,535,535,530,530,529,529,529,529,529,529,529,529,529,529,529,529,529,529,529,529,529,529,529,529,529,529,529,529,529,529,529,529,529,529,529,529,529,529,529,529,529,529,529,529,529,529,529,529,529,529,529,529,529,529,529,528,524,509,505,503,497,490,457,433,400,360,323,290,272,272,271,269,246,233,222,217,216,208,198,177,162,145,129,126,125,121,115,97],"timestamp_mouse":[2,35,42,62,84,102,123,143,162,182,202,223,243,262,283,303,323,343,362,383,402,422,443,463,484,503,522,542,562,582,602,624,644,663,683,702,723,742,762,783,804,823,843,862,883,902,924,943,962,982,1002,1022,1043,1062,1082,1102,1123,1142,1162,1183,1202,1223,1242,1262,1282,1303,1322,1342,1363,1383,1403,1423,1443,1463,1483,1503,1522,1543,1563,1583,1603,1623,1643,1662,1683,1702,1722,1742,1764],"xSR":741.5,"ySR":469.95,"xT1":424.9,"yT1":0,"xT2":1058.1,"yT2":0,"toosoon":0,"cond_shown":"Congruent","ratio_trial":300,"L_num":4,"L_den":10,"R_num":1,"R_den":10,"correct_side":1,"subjID":"santiagojimenez28","gender":"0","school":"4","age":"9"},{"start_time":1552313038588,"click_time":1552313040514,"finger_time":1552313040033,"fix_duration":954.2408621499519,"trial":28,"RT":1445,"MT":481,"sideResp":2,"stimulus":[],"xmouse":[782,782,782,782,782,782,782,782,782,782,782,782,782,782,782,782,782,782,782,782,782,782,782,782,782,782,782,782,782,782,782,782,782,782,782,782,782,782,782,782,782,782,782,782,782,782,782,782,782,782,782,782,782,782,782,782,782,782,782,782,782,782,782,782,782,782,782,782,784,789,808,824,838,861,871,882,892,908,954,979,1011,1028,1048,1051,1052,1053,1055,1069,1076,1083,1091,1095,1100,1102,1106,1111,1118],"ymouse":[512,512,512,512,512,512,512,512,512,512,512,512,512,512,512,512,512,512,512,512,512,512,512,512,512,512,512,512,512,512,512,512,512,512,512,512,512,512,512,512,512,512,512,512,512,512,512,512,512,512,512,512,512,512,512,512,512,512,512,512,512,512,512,512,512,512,512,512,508,504,488,472,458,428,416,400,385,367,328,310,286,272,255,250,249,247,244,228,215,201,182,168,143,133,120,107,90],"timestamp_mouse":[5,25,45,65,87,107,126,146,167,185,205,225,245,265,285,305,327,345,365,386,406,426,445,467,485,506,525,545,566,586,605,626,645,665,685,706,727,745,766,787,805,825,845,866,886,905,925,945,966,986,1005,1026,1045,1067,1085,1106,1125,1145,1166,1185,1207,1226,1245,1266,1285,1305,1325,1346,1367,1385,1406,1426,1445,1466,1485,1506,1525,1546,1565,1585,1606,1626,1645,1665,1685,1705,1725,1747,1765,1785,1805,1826,1845,1865,1885,1905,1925],"xSR":741.5,"ySR":469.95,"xT1":424.9,"yT1":0,"xT2":1058.1,"yT2":0,"toosoon":0,"cond_shown":"Congruent","ratio_trial":200,"L_num":3,"L_den":10,"R_num":7,"R_den":14,"correct_side":2,"subjID":"santiagojimenez28","gender":"0","school":"4","age":"9"},{"start_time":1552313042948,"click_time":1552313044634,"finger_time":1552313044333,"fix_duration":1312.0643266969266,"trial":29,"RT":1385,"MT":301,"sideResp":1,"stimulus":[],"xmouse":[806,806,806,806,806,806,806,806,806,806,806,806,806,806,806,806,806,806,806,806,806,806,806,806,806,806,806,806,806,806,806,806,806,806,806,806,806,806,806,806,806,806,806,806,806,806,806,806,806,806,806,806,806,806,806,806,806,806,806,806,806,806,806,806,806,807,808,809,809,809,804,797,788,785,777,768,755,730,702,668,608,576,569,552,519],"ymouse":[498,498,498,498,498,498,498,498,498,498,498,498,498,498,498,498,498,498,498,498,498,498,498,498,498,498,498,498,498,498,498,498,498,498,498,498,498,498,498,498,498,498,498,498,498,498,498,498,498,498,498,498,498,498,498,498,498,498,498,498,498,498,498,498,498,496,490,484,476,447,433,419,407,404,395,384,368,341,308,272,203,167,157,115,1],"timestamp_mouse":[13,34,46,65,85,106,127,146,166,185,206,225,247,265,285,305,325,346,366,385,406,425,445,465,485,507,525,545,565,585,606,626,647,666,685,705,727,746,766,785,806,826,846,866,885,905,925,945,967,985,1005,1025,1046,1065,1086,1105,1126,1146,1167,1185,1206,1225,1245,1265,1285,1305,1326,1346,1366,1385,1406,1425,1446,1466,1485,1506,1525,1546,1567,1586,1606,1626,1646,1665,1685],"xSR":741.5,"ySR":469.95,"xT1":424.9,"yT1":0,"xT2":1058.1,"yT2":0,"toosoon":0,"cond_shown":"Incongruent","ratio_trial":100,"L_num":4,"L_den":8,"R_num":8,"R_den":20,"correct_side":1,"subjID":"santiagojimenez28","gender":"0","school":"4","age":"9"},{"start_time":1552313047099,"click_time":1552313048734,"finger_time":1552313048274,"fix_duration":1264.0349268107836,"trial":30,"RT":1175,"MT":460,"sideResp":1,"stimulus":[],"xmouse":[802,802,802,802,802,802,802,802,802,802,802,802,802,802,802,802,802,802,802,802,802,802,802,802,802,802,802,802,802,802,802,802,802,802,802,802,802,802,802,802,802,802,802,802,802,802,802,802,802,802,802,802,802,802,801,794,765,748,735,721,714,705,695,690,670,655,630,622,612,604,596,580,568,555,531,505,494,492,492,490,489,487],"ymouse":[528,528,528,528,528,528,528,528,528,528,528,528,528,528,528,528,528,528,528,528,528,528,528,528,528,528,528,528,528,528,528,528,528,528,528,528,528,528,528,528,528,528,528,528,528,528,528,528,528,528,528,528,528,528,527,519,497,484,472,462,456,445,433,427,405,386,350,334,319,304,290,263,246,222,180,132,111,109,107,105,100,97],"timestamp_mouse":[15,36,55,75,94,115,134,155,175,195,215,234,255,275,296,314,334,355,374,394,414,434,456,475,494,514,535,554,574,594,615,634,654,675,694,714,734,754,775,795,816,834,855,874,894,914,934,956,975,994,1015,1034,1055,1074,1095,1115,1134,1155,1175,1194,1215,1235,1254,1274,1294,1315,1335,1354,1374,1395,1414,1435,1454,1476,1495,1514,1535,1555,1574,1595,1614,1634],"xSR":741.5,"ySR":469.95,"xT1":424.9,"yT1":0,"xT2":1058.1,"yT2":0,"toosoon":0,"cond_shown":"Incongruent","ratio_trial":100,"L_num":9,"L_den":10,"R_num":20,"R_den":25,"correct_side":1,"subjID":"santiagojimenez28","gender":"0","school":"4","age":"9"},{"start_time":1552313049993,"click_time":1552313052254,"finger_time":1552313051294,"fix_duration":257.1113955104859,"trial":31,"RT":1301,"MT":960,"sideResp":2,"stimulus":[],"xmouse":[800,800,800,800,800,800,800,800,800,800,800,800,800,800,800,800,800,800,800,800,800,800,800,800,800,800,800,800,800,800,800,800,800,800,800,800,800,800,800,800,800,800,800,800,800,800,800,800,800,800,800,800,800,801,801,802,802,802,803,804,805,808,812,825,834,845,858,881,902,909,935,951,970,975,977,979,980,984,989,997,1002,1009,1014,1032,1044,1059,1073,1094,1098,1100,1100,1100,1100,1100,1100,1100,1100,1100,1100,1100,1100,1100,1100,1100,1100,1100,1100,1100,1100,1100,1100,1100,1100,1100],"ymouse":[529,529,529,529,529,529,529,529,529,529,529,529,529,529,529,529,529,529,529,529,529,529,529,529,529,529,529,529,529,529,529,529,529,529,529,529,529,529,529,529,529,529,529,529,529,529,529,529,529,529,529,529,529,529,527,524,524,524,521,519,516,509,504,484,471,456,440,408,383,373,344,326,302,295,291,289,288,282,277,267,261,250,239,209,189,169,149,119,112,110,110,110,110,110,110,110,110,110,110,110,109,109,109,109,109,109,109,109,109,109,107,106,103,94],"timestamp_mouse":[14,30,47,62,82,100,120,140,160,180,200,221,240,261,280,301,320,340,361,380,400,422,440,460,482,500,521,541,560,581,600,621,640,661,681,701,720,740,762,782,801,821,840,861,881,901,922,941,960,981,1001,1021,1040,1060,1081,1100,1122,1141,1160,1182,1200,1220,1240,1260,1280,1301,1320,1341,1360,1381,1401,1422,1440,1460,1480,1501,1520,1541,1560,1581,1601,1620,1640,1661,1681,1701,1720,1741,1760,1781,1801,1822,1841,1860,1880,1902,1920,1941,1960,1981,2001,2022,2041,2060,2081,2101,2121,2140,2160,2181,2201,2220,2240,2261],"xSR":741.5,"ySR":469.95,"xT1":424.9,"yT1":0,"xT2":1058.1,"yT2":0,"toosoon":0,"cond_shown":"Congruent","ratio_trial":200,"L_num":13,"L_den":26,"R_num":14,"R_den":20,"correct_side":2,"subjID":"santiagojimenez28","gender":"0","school":"4","age":"9"},{"start_time":1552313055113,"click_time":1552313057094,"finger_time":1552313056633,"fix_duration":1478.7781836223373,"trial":32,"RT":1520,"MT":461,"sideResp":2,"stimulus":[],"xmouse":[791,791,791,791,791,791,791,791,791,791,791,791,791,791,791,791,791,791,791,791,791,791,791,791,791,791,791,791,791,791,791,791,791,791,791,791,791,791,791,791,791,791,791,791,791,791,791,791,791,791,791,791,791,791,791,791,791,791,791,791,791,791,791,791,791,791,791,791,791,791,791,791,793,800,809,821,852,872,896,927,955,1023,1065,1095,1112,1126,1134,1135,1138,1141,1142,1145,1145,1145,1145,1145,1139,1135,1134,1133],"ymouse":[520,520,520,520,520,520,520,520,520,520,520,520,520,520,520,520,520,520,520,520,520,520,520,520,520,520,520,520,520,520,520,520,520,520,520,520,520,520,520,520,520,520,520,520,520,520,520,520,520,520,520,520,520,520,520,520,520,520,520,520,520,520,520,520,520,520,520,520,520,520,520,520,520,517,512,505,491,483,475,466,458,430,410,390,374,354,335,329,321,312,302,271,242,233,202,182,141,120,100,80],"timestamp_mouse":[10,33,41,60,80,100,120,141,160,181,202,221,242,261,280,301,320,340,360,380,402,421,441,460,480,501,521,540,562,581,600,620,642,661,681,701,720,740,761,782,802,820,841,860,881,901,920,940,961,980,1000,1022,1041,1061,1081,1101,1120,1140,1161,1180,1201,1220,1241,1262,1280,1300,1320,1340,1361,1381,1401,1420,1441,1461,1481,1500,1520,1542,1560,1581,1600,1621,1640,1661,1681,1700,1721,1741,1761,1780,1801,1821,1840,1861,1881,1900,1920,1941,1962,1981],"xSR":741.5,"ySR":469.95,"xT1":424.9,"yT1":0,"xT2":1058.1,"yT2":0,"toosoon":0,"cond_shown":"Congruent","ratio_trial":300,"L_num":5,"L_den":25,"R_num":6,"R_den":12,"correct_side":2,"subjID":"santiagojimenez28","gender":"0","school":"4","age":"9"},{"start_time":1552313065067,"click_time":1552313067556,"finger_time":1552313066415,"fix_duration":1389.6137864283091,"trial":33,"RT":1348,"MT":1141,"sideResp":1,"stimulus":[],"xmouse":[799,799,799,799,799,799,799,799,799,799,799,799,799,799,799,799,799,799,799,799,799,799,799,799,799,799,799,799,799,799,799,799,799,799,799,799,799,799,799,799,799,799,799,799,799,799,799,799,799,799,799,799,799,799,799,799,799,799,799,799,799,799,799,799,799,799,799,783,757,753,749,744,741,728,711,692,668,658,651,649,646,643,636,622,616,610,608,605,602,597,591,586,582,575,572,569,563,559,551,549,546,544,542,540,540,540,540,540,540,540,540,540,540,540,540,540,540,540,540,540,540,540,537,525,522],"ymouse":[478,478,478,478,478,478,478,478,478,478,478,478,478,478,478,478,478,478,478,478,478,478,478,478,478,478,478,478,478,478,478,478,478,478,478,478,478,478,478,478,478,478,478,478,478,478,478,478,478,478,478,478,478,478,478,478,478,478,478,478,478,478,478,478,478,478,474,458,429,421,412,402,393,367,347,325,297,282,265,259,251,241,229,205,196,183,179,175,167,159,150,141,132,115,108,103,94,87,79,75,71,69,67,65,65,65,65,65,65,65,65,65,65,65,65,65,65,65,65,65,65,65,65,71,71],"timestamp_mouse":[13,36,47,68,88,109,127,149,168,188,207,228,249,268,289,309,329,349,368,389,408,429,448,467,488,508,529,547,567,588,608,628,649,668,688,709,727,747,768,789,809,829,848,867,888,909,928,948,967,988,1008,1029,1049,1067,1089,1108,1128,1149,1167,1188,1207,1229,1248,1268,1289,1308,1329,1348,1368,1388,1408,1428,1448,1469,1487,1508,1528,1549,1567,1587,1608,1628,1649,1669,1688,1708,1728,1748,1768,1787,1808,1829,1848,1868,1888,1909,1928,1949,1968,1989,2008,2029,2048,2067,2088,2107,2129,2148,2168,2189,2209,2228,2248,2268,2288,2309,2328,2348,2368,2388,2408,2428,2448,2469,2489],"xSR":741.5,"ySR":469.95,"xT1":424.9,"yT1":0,"xT2":1058.1,"yT2":0,"toosoon":0,"cond_shown":"Incongruent","ratio_trial":200,"L_num":7,"L_den":10,"R_num":14,"R_den":28,"correct_side":1,"subjID":"santiagojimenez28","gender":"0","school":"4","age":"9"},{"start_time":1552313070795,"click_time":1552313073055,"finger_time":1552313072235,"fix_duration":838.9082706604937,"trial":34,"RT":1440,"MT":820,"sideResp":2,"stimulus":[],"xmouse":[781,782,783,784,784,784,784,784,784,784,784,784,784,786,788,790,791,792,792,792,792,792,792,792,792,792,792,792,792,792,792,792,792,792,792,792,792,792,792,792,792,792,792,792,792,792,792,792,792,792,792,792,792,792,792,792,792,792,792,792,792,792,792,792,792,792,792,792,792,793,805,819,859,885,916,942,970,992,1035,1054,1084,1097,1123,1133,1140,1147,1150,1154,1155,1155,1155,1154,1150,1147,1146,1144,1141,1141,1140,1139,1138,1137,1135,1133,1132,1132,1132,1132,1132,1132,1132,1131,1129,1129],"ymouse":[528,527,526,525,525,525,525,525,525,525,525,525,525,523,521,519,518,518,518,518,518,518,518,518,518,518,518,518,518,518,518,518,518,518,518,518,518,518,518,518,518,517,517,517,517,517,517,517,517,517,517,517,517,517,517,517,517,517,517,517,517,517,517,517,517,517,517,517,517,516,514,507,493,483,469,453,435,419,386,372,348,336,312,301,290,280,274,264,261,258,255,252,244,238,233,228,225,218,215,211,204,199,192,181,174,168,161,145,136,128,118,112,103,99],"timestamp_mouse":[2,20,45,59,79,100,120,140,160,180,201,221,240,260,280,301,321,340,360,381,401,420,439,461,480,499,519,540,561,581,600,621,640,661,681,701,719,740,761,779,801,820,840,860,881,901,921,939,960,980,1001,1021,1041,1060,1081,1100,1119,1140,1160,1181,1201,1221,1240,1260,1280,1299,1321,1340,1361,1379,1400,1420,1440,1461,1480,1501,1520,1540,1559,1581,1600,1620,1640,1661,1680,1700,1720,1741,1761,1781,1800,1821,1839,1860,1880,1901,1920,1941,1960,1981,2000,2020,2040,2060,2080,2100,2121,2140,2161,2181,2201,2220,2240,2260],"xSR":741.5,"ySR":469.95,"xT1":424.9,"yT1":0,"xT2":1058.1,"yT2":0,"toosoon":0,"cond_shown":"Congruent","ratio_trial":100,"L_num":6,"L_den":20,"R_num":5,"R_den":25,"correct_side":1,"subjID":"santiagojimenez28","gender":"0","school":"4","age":"9"},{"start_time":1552313074326,"click_time":1552313075995,"finger_time":1552313075475,"fix_duration":250,"trial":35,"RT":1149,"MT":520,"sideResp":2,"stimulus":[],"xmouse":[767,767,767,767,767,767,767,767,767,768,768,768,768,768,768,768,769,770,770,770,770,770,770,770,770,770,770,769,767,766,762,759,758,756,753,752,752,752,752,752,752,752,752,752,752,752,752,752,752,752,752,765,782,802,810,817,833,850,872,908,992,1033,1059,1083,1114,1151,1170,1190,1206,1218,1228,1229,1229,1229,1227,1221,1216,1210,1205,1194,1185,1176,1167,1156],"ymouse":[553,553,553,553,553,553,553,553,553,551,551,550,550,550,550,550,548,545,542,540,538,535,534,532,530,527,524,522,518,514,507,501,499,493,488,485,484,484,484,484,484,484,484,484,484,484,484,484,484,484,484,481,481,480,478,478,474,469,461,445,400,373,353,332,305,265,243,217,194,171,133,118,106,93,86,74,67,60,55,50,50,50,54,58],"timestamp_mouse":[16,35,49,69,89,108,130,149,170,190,210,229,249,270,289,309,328,350,370,389,409,429,450,470,488,509,530,550,569,590,609,630,649,669,689,709,730,748,769,790,809,829,849,868,890,908,930,950,969,989,1009,1029,1050,1069,1089,1109,1130,1149,1169,1188,1209,1228,1248,1269,1290,1310,1329,1349,1368,1389,1410,1430,1448,1469,1490,1509,1529,1548,1569,1589,1609,1628,1649,1668],"xSR":741.5,"ySR":469.95,"xT1":424.9,"yT1":0,"xT2":1058.1,"yT2":0,"toosoon":0,"cond_shown":"Incongruent","ratio_trial":100,"L_num":8,"L_den":16,"R_num":6,"R_den":10,"correct_side":2,"subjID":"santiagojimenez28","gender":"0","school":"4","age":"9"},{"start_time":1552313079649,"click_time":1552313081235,"finger_time":1552313080716,"fix_duration":250,"trial":36,"RT":1067,"MT":519,"sideResp":2,"stimulus":[],"xmouse":[796,796,796,796,796,796,796,796,796,796,796,796,796,796,796,796,796,796,796,796,796,796,796,796,796,796,796,796,796,796,796,796,796,795,795,795,795,795,795,795,795,795,795,795,795,795,795,795,795,802,810,818,825,828,835,841,851,875,895,928,935,940,943,944,946,951,955,961,965,969,970,972,974,977,982,1000,1011,1034,1050,1071],"ymouse":[512,512,512,512,512,512,512,512,512,512,512,512,512,512,512,512,512,512,512,512,512,512,512,512,512,512,512,512,512,512,512,512,512,511,511,511,511,511,511,511,511,511,511,511,511,511,511,511,511,501,493,481,470,463,452,447,437,414,396,354,338,328,322,318,316,307,302,291,282,262,249,236,222,205,186,143,118,72,43,7],"timestamp_mouse":[13,37,45,66,86,106,126,145,167,185,207,227,246,267,286,307,327,347,367,387,407,427,446,465,486,507,526,547,567,587,607,626,647,666,686,707,727,747,766,786,807,826,847,866,886,905,927,946,965,985,1005,1026,1047,1067,1086,1105,1126,1147,1167,1187,1205,1225,1246,1266,1286,1307,1327,1346,1367,1386,1406,1425,1446,1466,1486,1507,1527,1545,1566,1586],"xSR":741.5,"ySR":469.95,"xT1":424.9,"yT1":0,"xT2":1058.1,"yT2":0,"toosoon":0,"cond_shown":"Congruent","ratio_trial":300,"L_num":5,"L_den":25,"R_num":7,"R_den":14,"correct_side":2,"subjID":"santiagojimenez28","gender":"0","school":"4","age":"9"},{"start_time":1552313083555,"click_time":1552313085896,"finger_time":1552313085075,"fix_duration":1158.4419031515856,"trial":37,"RT":1520,"MT":821,"sideResp":1,"stimulus":[],"xmouse":[789,789,789,789,789,789,789,789,789,789,789,789,789,789,789,789,789,789,789,789,789,789,789,789,789,789,789,789,789,789,789,789,789,789,789,789,789,789,789,789,789,789,789,789,789,789,789,789,789,789,789,789,789,789,789,789,789,789,789,789,789,789,789,789,789,789,789,789,789,789,789,789,789,789,785,762,725,680,643,605,602,600,600,600,600,600,596,593,591,589,587,586,582,580,574,574,574,574,574,574,574,574,568,566,562,561,561,560,556,539,534,529,521,516,504,497,489,485],"ymouse":[506,506,506,506,506,506,506,506,506,506,506,506,506,506,506,506,506,506,506,506,506,506,506,506,506,506,506,506,506,506,506,506,506,506,506,506,506,506,506,506,506,506,506,506,506,506,506,506,506,506,506,506,506,506,506,506,506,506,506,506,506,506,506,506,506,506,506,506,506,506,506,506,506,506,503,471,432,395,367,338,334,334,334,334,334,334,326,318,311,294,281,277,263,255,242,241,241,241,241,241,241,240,234,231,226,225,225,224,221,208,200,191,176,165,137,119,103,90],"timestamp_mouse":[9,31,40,61,80,100,120,139,159,180,200,219,240,259,280,300,319,339,361,380,400,421,439,461,480,499,521,540,561,580,600,621,641,661,679,701,721,741,760,780,800,819,841,861,879,900,920,939,961,980,1000,1020,1039,1060,1080,1101,1120,1139,1160,1180,1200,1219,1241,1261,1280,1299,1320,1340,1360,1380,1400,1421,1441,1460,1479,1500,1520,1541,1560,1580,1600,1621,1640,1661,1680,1701,1720,1741,1760,1781,1799,1821,1841,1861,1880,1900,1921,1941,1961,1980,2001,2020,2040,2060,2080,2100,2121,2140,2159,2180,2199,2220,2240,2261,2280,2301,2319,2341],"xSR":741.5,"ySR":469.95,"xT1":424.9,"yT1":0,"xT2":1058.1,"yT2":0,"toosoon":0,"cond_shown":"Congruent","ratio_trial":100,"L_num":3,"L_den":6,"R_num":2,"R_den":5,"correct_side":1,"subjID":"santiagojimenez28","gender":"0","school":"4","age":"9"},{"start_time":1552313087955,"click_time":1552313090376,"finger_time":1552313089435,"fix_duration":898.1152194399942,"trial":38,"RT":1480,"MT":941,"sideResp":2,"stimulus":[],"xmouse":[794,794,794,794,794,794,794,794,794,794,794,794,794,794,794,794,794,794,794,794,794,794,794,794,794,794,794,794,794,794,794,794,794,794,794,794,794,794,794,794,794,794,794,794,794,794,794,794,794,794,794,794,794,794,794,794,794,794,794,794,794,794,794,794,794,794,796,800,814,821,829,834,838,843,846,851,859,864,871,886,889,897,901,912,917,922,929,934,949,955,963,972,982,997,1003,1009,1015,1022,1036,1045,1047,1054,1056,1063,1067,1070,1073,1075,1081,1083,1084,1087,1087,1092,1093,1096,1098,1098,1101,1102,1104],"ymouse":[561,561,561,561,561,561,561,561,561,561,561,561,561,561,561,561,561,561,561,561,561,561,561,561,561,561,561,561,561,561,561,561,561,561,561,561,561,561,561,561,561,561,561,561,561,561,561,561,561,561,561,561,561,561,561,561,561,561,561,561,561,561,561,561,561,561,559,557,550,545,537,534,530,526,523,520,515,510,505,491,485,476,470,457,450,442,434,426,405,396,383,370,350,325,313,303,291,279,255,236,232,216,207,191,185,177,171,165,152,145,144,139,136,129,125,120,116,113,105,101,97],"timestamp_mouse":[21,43,61,81,101,119,141,161,179,200,220,239,259,280,300,321,339,360,380,400,421,441,459,480,501,521,541,561,580,601,620,640,661,680,700,720,741,761,780,800,819,840,861,880,900,919,940,961,980,999,1019,1039,1061,1080,1100,1120,1140,1161,1180,1200,1221,1240,1260,1279,1301,1320,1341,1359,1380,1401,1421,1440,1460,1480,1501,1520,1540,1560,1581,1600,1620,1640,1660,1680,1700,1720,1741,1761,1780,1800,1820,1840,1860,1880,1900,1920,1941,1961,1981,2000,2019,2041,2061,2080,2101,2120,2141,2161,2180,2200,2219,2239,2260,2280,2301,2320,2341,2361,2380,2400,2420],"xSR":741.5,"ySR":469.95,"xT1":424.9,"yT1":0,"xT2":1058.1,"yT2":0,"toosoon":0,"cond_shown":"Congruent","ratio_trial":100,"L_num":11,"L_den":22,"R_num":6,"R_den":15,"correct_side":1,"subjID":"santiagojimenez28","gender":"0","school":"4","age":"9"},{"start_time":1552313093029,"click_time":1552313094455,"finger_time":1552313093896,"fix_duration":1272.7574448378855,"trial":39,"RT":867,"MT":559,"sideResp":2,"stimulus":[],"xmouse":[803,803,803,803,803,803,803,803,803,803,803,803,803,803,803,803,803,803,803,803,803,803,803,803,803,803,803,803,803,803,803,803,803,803,803,803,803,803,803,803,808,817,831,849,865,894,904,912,922,927,931,943,949,955,958,966,970,974,979,985,995,1001,1008,1015,1019,1028,1032,1039,1046,1053,1071,1082],"ymouse":[504,504,504,504,504,504,504,504,504,504,504,504,504,504,504,504,504,504,504,504,504,504,504,504,504,504,504,504,504,504,504,504,504,504,504,504,504,504,504,504,498,490,481,467,452,427,418,409,398,394,388,376,370,364,360,348,340,331,317,304,282,270,257,246,236,217,207,190,176,158,113,91],"timestamp_mouse":[12,35,46,65,87,106,126,147,167,187,205,226,246,265,287,306,327,345,366,387,406,427,446,467,486,506,526,545,565,586,606,626,646,666,687,706,726,746,767,785,806,827,846,867,886,907,926,947,966,987,1006,1027,1045,1066,1086,1107,1126,1146,1166,1186,1206,1226,1246,1266,1285,1306,1325,1346,1367,1386,1405,1425],"xSR":741.5,"ySR":469.95,"xT1":424.9,"yT1":0,"xT2":1058.1,"yT2":0,"toosoon":0,"cond_shown":"Incongruent","ratio_trial":300,"L_num":4,"L_den":20,"R_num":2,"R_den":4,"correct_side":2,"subjID":"santiagojimenez28","gender":"0","school":"4","age":"9"},{"start_time":1552313096013,"click_time":1552313098136,"finger_time":1552313097535,"fix_duration":656.9141487797883,"trial":40,"RT":1522,"MT":601,"sideResp":2,"stimulus":[],"xmouse":[795,795,795,795,795,795,795,795,795,795,795,795,795,795,795,795,795,795,795,795,795,795,795,795,795,795,795,795,795,795,795,795,795,795,795,795,795,795,795,795,795,795,795,795,795,795,795,795,795,795,795,795,795,795,795,795,795,795,795,795,795,795,795,795,795,795,795,795,795,795,795,796,800,806,813,823,842,855,861,875,883,900,905,910,916,918,925,929,930,935,941,958,971,987,1004,1018,1047,1060,1076,1083,1088,1093,1101,1103,1107,1109,1113],"ymouse":[526,526,526,526,526,526,526,526,526,526,526,526,526,526,526,526,526,526,526,526,526,526,526,526,526,526,526,526,526,526,526,526,526,526,526,526,526,526,526,526,526,526,526,526,526,526,526,526,526,526,526,526,526,526,526,526,526,526,526,526,526,526,526,526,526,526,526,526,526,526,526,524,520,515,508,500,484,472,466,455,448,434,429,426,422,419,411,406,404,398,391,372,356,338,320,300,260,240,213,200,186,170,145,135,122,114,97],"timestamp_mouse":[13,22,42,62,85,103,122,142,162,181,203,222,243,263,282,303,322,342,363,382,401,422,442,461,483,503,522,542,562,581,603,622,642,662,682,701,721,742,762,781,803,822,841,863,883,902,921,942,963,983,1001,1022,1041,1061,1082,1102,1122,1142,1161,1183,1202,1221,1243,1263,1281,1302,1322,1343,1362,1382,1401,1421,1442,1462,1482,1503,1522,1541,1563,1582,1601,1622,1643,1662,1683,1702,1722,1742,1763,1782,1802,1822,1843,1863,1882,1902,1922,1942,1962,1982,2001,2021,2041,2061,2081,2102,2122],"xSR":741.5,"ySR":469.95,"xT1":424.9,"yT1":0,"xT2":1058.1,"yT2":0,"toosoon":0,"cond_shown":"Congruent","ratio_trial":200,"L_num":3,"L_den":10,"R_num":11,"R_den":22,"correct_side":2,"subjID":"santiagojimenez28","gender":"0","school":"4","age":"9"},{"start_time":1552313100549,"click_time":1552313102615,"finger_time":1552313101976,"fix_duration":1392.3172238579662,"trial":41,"RT":1427,"MT":639,"sideResp":1,"stimulus":[],"xmouse":[798,798,798,798,798,798,798,798,798,798,798,798,798,798,798,798,798,798,798,798,798,798,798,798,798,798,798,798,798,798,798,798,798,798,798,798,798,798,798,798,798,798,798,798,798,798,798,798,798,798,798,798,798,798,798,798,798,798,798,798,798,798,798,798,798,798,798,798,790,768,759,752,751,748,740,736,731,727,724,716,712,707,692,680,643,623,611,596,584,568,568,568,568,568,568,568,568,568,568,568,568,568,526,524],"ymouse":[525,525,525,525,525,525,525,525,525,525,525,525,525,525,525,525,525,525,525,525,525,525,525,525,525,525,525,525,525,525,525,525,525,525,525,525,525,525,525,525,525,525,525,525,525,525,525,525,525,525,525,525,525,525,525,525,525,525,525,525,525,525,525,525,525,525,525,525,518,494,481,469,467,462,450,442,433,423,413,390,376,357,323,294,207,161,125,88,51,6,6,6,6,6,6,6,6,6,6,6,6,6,22,25],"timestamp_mouse":[13,35,47,67,87,106,126,147,167,186,207,225,247,267,286,306,327,347,367,386,406,426,447,467,486,506,527,545,566,586,607,625,647,667,686,706,726,745,766,785,806,826,847,867,885,905,926,947,967,986,1006,1026,1046,1066,1086,1107,1127,1146,1166,1186,1206,1225,1246,1266,1286,1306,1325,1346,1366,1386,1407,1427,1446,1467,1486,1507,1526,1546,1566,1587,1607,1626,1646,1667,1686,1706,1726,1747,1767,1786,1806,1826,1847,1867,1886,1906,1925,1946,1966,1986,2006,2026,2046,2066],"xSR":741.5,"ySR":469.95,"xT1":424.9,"yT1":0,"xT2":1058.1,"yT2":0,"toosoon":0,"cond_shown":"Congruent","ratio_trial":100,"L_num":8,"L_den":16,"R_num":2,"R_den":5,"correct_side":1,"subjID":"santiagojimenez28","gender":"0","school":"4","age":"9"},{"start_time":1552313105898,"click_time":1552313107336,"finger_time":1552313106795,"fix_duration":1442.8498901464418,"trial":42,"RT":897,"MT":541,"sideResp":2,"stimulus":[],"xmouse":[779,779,779,779,779,779,779,779,779,779,779,779,779,779,779,779,779,779,779,779,779,779,779,779,779,779,779,779,779,779,779,779,779,779,779,779,779,779,787,793,803,822,831,841,859,869,891,901,912,924,937,958,971,975,981,983,984,986,990,994,999,1011,1018,1026,1043,1057,1076,1084,1091,1096,1103,1115],"ymouse":[519,519,519,519,519,519,519,519,519,519,519,519,519,519,519,519,519,519,519,519,519,519,519,519,519,519,519,519,519,519,519,519,519,519,519,519,519,519,516,514,511,506,503,498,489,483,470,461,452,441,431,406,391,387,381,379,377,374,368,360,351,330,315,296,257,225,181,161,143,126,108,73],"timestamp_mouse":[16,38,57,77,97,117,137,157,176,196,217,237,257,277,298,316,336,358,377,398,418,437,458,476,496,516,538,557,578,597,618,637,657,678,698,717,737,758,778,798,818,837,857,877,897,917,938,958,977,998,1017,1037,1057,1077,1096,1117,1136,1157,1177,1197,1217,1237,1256,1278,1298,1317,1337,1357,1377,1397,1418,1437],"xSR":741.5,"ySR":469.95,"xT1":424.9,"yT1":0,"xT2":1058.1,"yT2":0,"toosoon":0,"cond_shown":"Incongruent","ratio_trial":300,"L_num":13,"L_den":26,"R_num":12,"R_den":15,"correct_side":2,"subjID":"santiagojimenez28","gender":"0","school":"4","age":"9"},{"start_time":1552313108718,"click_time":1552313111135,"finger_time":1552313110614,"fix_duration":460.3445528935427,"trial":43,"RT":1896,"MT":521,"sideResp":2,"stimulus":[],"xmouse":[832,832,832,832,832,832,832,832,832,832,832,832,832,832,832,832,832,832,832,832,832,832,832,832,832,832,832,832,832,832,832,832,832,832,832,832,832,832,832,832,832,832,832,832,832,832,832,832,832,832,832,832,832,832,832,832,832,832,832,832,832,832,832,832,832,832,832,832,832,832,832,832,832,832,832,832,832,832,832,832,832,832,832,832,832,832,832,832,832,832,832,832,832,839,844,849,860,864,872,877,892,903,915,932,941,959,968,978,989,1000,1017,1028,1030,1035,1042,1052,1055,1061,1064,1068,1072],"ymouse":[545,545,545,545,545,545,545,545,545,545,545,545,545,545,545,545,545,545,545,545,545,545,545,545,545,545,545,545,545,545,545,545,545,545,545,545,545,545,545,545,545,545,545,545,545,545,545,545,545,545,545,545,545,545,545,545,545,545,545,545,545,545,545,545,545,545,545,545,545,545,545,545,545,545,545,545,545,545,545,545,545,545,545,545,545,545,545,545,545,545,545,543,541,533,527,521,508,500,492,485,466,455,443,428,416,387,370,352,333,313,273,248,237,219,194,163,150,137,124,111,98],"timestamp_mouse":[16,37,56,78,98,117,137,158,176,196,216,238,257,277,298,317,338,358,378,397,417,438,457,478,496,517,537,557,578,598,617,637,658,678,697,717,738,756,778,798,817,838,858,877,896,917,938,957,978,996,1016,1037,1058,1077,1098,1117,1137,1158,1176,1197,1217,1238,1258,1278,1298,1316,1337,1357,1378,1398,1418,1437,1457,1477,1497,1516,1536,1558,1578,1598,1616,1638,1657,1676,1696,1717,1737,1757,1777,1798,1817,1838,1858,1876,1896,1917,1937,1958,1978,1997,2018,2037,2056,2078,2097,2117,2137,2157,2178,2197,2217,2237,2256,2277,2297,2317,2337,2357,2378,2397,2417],"xSR":741.5,"ySR":469.95,"xT1":424.9,"yT1":0,"xT2":1058.1,"yT2":0,"toosoon":0,"cond_shown":"Congruent","ratio_trial":100,"L_num":1,"L_den":2,"R_num":3,"R_den":5,"correct_side":2,"subjID":"santiagojimenez28","gender":"0","school":"4","age":"9"},{"start_time":1552313112601,"click_time":1552313114655,"finger_time":1552313114094,"fix_duration":463.94061449153213,"trial":44,"RT":1493,"MT":561,"sideResp":2,"stimulus":[],"xmouse":[787,787,787,787,787,787,787,787,787,787,787,787,787,787,787,787,787,787,787,787,787,787,787,787,787,787,787,787,787,787,787,787,787,787,787,787,787,787,787,787,787,787,787,787,787,787,787,787,787,787,787,787,787,787,787,787,787,787,787,787,787,787,787,787,787,787,787,787,789,796,804,822,831,841,856,880,935,954,974,993,1002,1010,1011,1011,1014,1018,1030,1036,1041,1046,1049,1053,1054,1056,1057,1059,1061,1062,1062,1064,1064,1066,1069],"ymouse":[530,530,530,530,530,530,530,530,530,530,530,530,530,530,530,530,530,530,530,530,530,530,530,530,530,530,530,530,530,530,530,530,530,530,530,530,530,530,530,530,530,530,530,530,530,530,530,530,530,530,530,530,530,530,530,530,530,530,530,530,530,530,530,530,530,530,530,530,526,521,516,501,491,480,463,434,367,339,311,283,270,257,255,254,251,243,218,202,188,170,161,149,144,139,133,126,116,114,111,109,108,102,97],"timestamp_mouse":[13,42,55,74,94,115,133,155,174,194,215,234,254,274,295,315,335,353,373,394,415,434,455,474,493,515,534,554,574,594,615,634,654,674,695,714,735,754,775,795,813,834,855,874,895,913,933,955,974,994,1014,1034,1054,1074,1093,1115,1134,1154,1173,1195,1215,1234,1255,1274,1295,1314,1334,1354,1374,1394,1415,1434,1454,1474,1493,1514,1535,1555,1575,1593,1615,1635,1655,1674,1693,1714,1733,1754,1774,1794,1813,1833,1855,1874,1894,1914,1935,1955,1974,1994,2014,2034,2054],"xSR":741.5,"ySR":469.95,"xT1":424.9,"yT1":0,"xT2":1058.1,"yT2":0,"toosoon":0,"cond_shown":"Congruent","ratio_trial":300,"L_num":1,"L_den":20,"R_num":7,"R_den":20,"correct_side":2,"subjID":"santiagojimenez28","gender":"0","school":"4","age":"9"},{"start_time":1552313116254,"click_time":1552313118035,"finger_time":1552313117675,"fix_duration":518.8821581195728,"trial":45,"RT":1421,"MT":360,"sideResp":2,"stimulus":[],"xmouse":[808,808,808,808,808,808,808,808,808,808,808,808,808,808,808,808,808,808,808,808,808,808,808,808,808,808,808,808,808,808,808,808,808,808,808,808,808,808,808,808,808,808,808,808,808,808,808,808,808,808,808,808,808,808,808,808,808,808,808,808,808,808,808,808,808,808,809,816,821,833,836,840,842,845,853,858,863,870,887,918,939,963,982,1000,1026,1033,1045,1052,1059,1073],"ymouse":[516,516,516,516,516,516,516,516,516,516,516,516,516,516,516,516,516,516,516,516,516,516,516,516,516,516,516,516,516,516,516,516,516,516,516,516,516,516,516,516,516,516,516,516,516,516,516,516,516,516,516,516,516,516,516,516,516,516,516,516,516,516,516,516,516,516,513,505,496,479,475,469,465,460,451,444,437,428,406,364,339,307,280,252,208,190,165,148,130,98],"timestamp_mouse":[10,33,42,60,81,102,120,140,162,181,202,221,241,262,281,301,321,342,361,381,402,422,442,460,481,502,521,542,561,581,601,621,641,662,680,700,722,742,762,781,801,821,842,861,880,901,921,940,962,981,1000,1020,1042,1061,1081,1100,1122,1142,1162,1180,1202,1222,1241,1260,1281,1301,1322,1341,1361,1381,1402,1421,1441,1461,1481,1502,1521,1542,1561,1580,1602,1621,1641,1662,1681,1702,1722