[{"start_time":1552073250502,"click_time":1552073252673,"finger_time":1552073250512,"fix_duration":705.5084920204794,"trial":0,"RT":10,"MT":2161,"sideResp":1,"stimulus":[],"xmouse":[753,753,753,753,753,753,753,753,753,753,753,753,753,753,753,753,753,753,753,753,753,753,753,753,753,753,753,753,753,753,753,753,753,753,753,756,928,956,838,675,298,225,55,0,0,0,0,0,28,79,103,144,293,483,557,585,590,590,560,552,552,553,569,606,648,675,691,715,730,746,760,767,769,769,769,769,769,770,770,775,784,798,812,837,839,839,839,839,839,838,833,825,825,825,825,825,825,825,825,825,825,775,754,688,662,634,597,558,523],"ymouse":[517,517,517,517,517,517,517,517,517,517,517,517,517,517,517,517,517,517,517,517,517,517,517,517,517,517,517,517,517,517,517,517,517,517,517,514,483,418,288,100,0,0,0,0,0,0,0,0,0,0,0,0,0,0,0,0,0,0,0,0,0,0,0,0,0,0,0,0,0,0,0,0,0,0,0,0,0,0,2,8,16,25,35,51,51,51,51,51,51,53,55,58,58,58,58,58,58,58,58,58,58,63,63,50,46,42,37,30,25],"timestamp_mouse":[10,30,51,70,90,110,130,152,170,191,211,231,250,271,291,311,331,350,370,390,410,430,452,470,490,510,530,550,570,591,611,631,652,671,690,710,731,752,770,790,814,830,855,870,890,910,930,951,971,991,1011,1030,1050,1070,1091,1110,1131,1150,1170,1191,1210,1230,1252,1270,1291,1310,1331,1352,1370,1390,1410,1430,1450,1471,1490,1510,1530,1552,1570,1590,1610,1630,1650,1670,1691,1710,1730,1750,1771,1790,1811,1830,1852,1871,1891,1910,1931,1951,1970,1990,2010,2030,2050,2071,2091,2111,2130,2152,2171],"xSR":741.5,"ySR":469.95,"xT1":424.9,"yT1":0,"xT2":1058.1,"yT2":0,"toosoon":0,"cond_shown":"Incongruent","ratio_trial":200,"L_num":4,"L_den":5,"R_num":6,"R_den":10,"correct_side":1,"subjID":"valentinagutierrezguerrero4","gender":"1","age":"9","school":"4","test":{"fix_dur":[250,1500],"timestim":1000,"targets_dim":[100,100],"targets_relative_coord":[0.3,0.7],"size_stim":[880,420],"start_dim":[100,100],"size_start":[300,300],"size_fix":60,"samplingrate":20,"img_types":["Congruent","Incongruent"],"ratios":[100,200,300],"rep_conds":19,"nTrials":120,"trials_to_rest":500,"Trials_order":[15,61,95,77,96,48,37,90,25,91,39,89,18,82,111,20,70,10,72,109,8,19,32,12,13,23,2,47,87,75,53,6,73,78,3,7,117,114,98,86,29,14,88,57,50,11,119,31,62,54,58,36,97,22,107,113,33,108,83,104,4,60,63,76,28,49,99,34,69,1,102,112,103,24,21,59,116,71,115,26,9,38,65,35,92,43,51,85,27,45,94,84,0,44,67,52,41,40,5,68,16,30,106,74,55,101,17,118,80,100,64,93,105,56,81,46,110,66,42,79],"cond_shown":["Incongruent","Incongruent","Incongruent","Incongruent","Congruent","Congruent","Incongruent","Congruent","Incongruent","Incongruent","Incongruent","Incongruent","Congruent","Congruent","Incongruent","Congruent","Congruent","Congruent","Congruent","Incongruent","Congruent","Incongruent","Congruent","Congruent","Incongruent","Incongruent","Congruent","Incongruent","Incongruent","Incongruent","Incongruent","Congruent","Incongruent","Congruent","Incongruent","Incongruent","Incongruent","Congruent","Congruent","Congruent","Incongruent","Congruent","Congruent","Incongruent","Congruent","Incongruent","Incongruent","Incongruent","Congruent","Congruent","Congruent","Congruent","Incongruent","Congruent","Incongruent","Incongruent","Incongruent","Congruent","Incongruent","Congruent","Congruent","Congruent","Incongruent","Congruent","Congruent","Incongruent","Incongruent","Congruent","Incongruent","Incongruent","Congruent","Congruent","Incongruent","Congruent","Incongruent","Incongruent","Congruent","Incongruent","Incongruent","Congruent","Incongruent","Congruent","Incongruent","Incongruent","Congruent","Incongruent","Incongruent","Incongruent","Incongruent","Incongruent","Congruent","Congruent","Congruent","Congruent","Incongruent","Congruent","Incongruent","Congruent","Incongruent","Congruent","Congruent","Congruent","Congruent","Congruent","Incongruent","Incongruent","Incongruent","Congruent","Congruent","Congruent","Congruent","Incongruent","Incongruent","Congruent","Incongruent","Congruent","Congruent","Congruent","Congruent","Incongruent"],"ratio_trial":[200,100,300,300,100,100,100,100,100,100,200,300,100,300,200,200,300,300,100,100,200,100,200,100,100,300,200,300,200,200,300,100,100,100,200,100,200,100,200,200,300,200,300,200,200,300,300,100,200,100,300,100,100,300,300,300,200,100,300,200,300,100,200,300,300,100,200,300,200,100,100,300,100,100,200,300,200,300,100,200,200,200,300,300,200,100,200,100,200,200,300,100,100,200,100,300,300,300,300,200,300,100,300,200,100,300,300,300,200,300,300,200,200,200,200,300,200,100,100,100],"left_num":[4,10,1,13,6,3,9,10,2,9,7,2,10,1,4,6,20,11,10,6,8,13,8,9,2,7,7,13,14,7,7,3,9,3,7,2,4,11,8,14,13,16,8,4,6,7,8,9,3,11,11,6,3,3,13,4,14,11,4,7,3,7,4,1,7,10,3,4,7,6,7,20,9,1,7,13,6,8,13,1,7,3,4,4,20,10,4,6,4,11,8,4,6,3,13,1,13,4,4,1,1,1,20,13,9,13,4,11,3,4,1,7,7,3,7,11,16,9,11,9],"right_num":[6,8,2,12,5,4,13,3,8,20,4,6,3,8,1,11,14,2,3,3,2,12,7,8,6,8,18,12,6,6,8,4,20,2,14,8,6,4,3,6,12,12,1,6,11,8,9,6,14,4,4,15,8,4,12,2,6,4,2,18,4,9,14,19,20,8,1,1,6,11,9,5,13,3,14,12,7,14,12,21,6,7,6,2,9,8,6,13,1,3,1,6,5,11,12,8,12,13,2,21,19,3,8,14,20,12,2,4,14,2,8,14,4,7,14,4,12,8,6,14],"left_den":[5,25,2,26,20,20,15,25,4,10,15,4,25,30,30,20,25,22,25,12,15,26,15,15,4,10,15,26,30,15,10,20,10,6,10,4,5,22,15,28,26,20,16,5,20,10,10,18,6,22,22,12,5,6,26,20,30,22,20,15,6,14,6,3,14,25,10,10,15,10,14,25,15,2,10,26,12,10,26,2,15,10,5,20,25,25,5,10,30,20,16,8,20,10,26,30,26,20,20,2,3,2,25,26,10,26,20,22,6,5,30,10,15,10,10,22,20,15,22,15],"right_den":[10,16,10,15,25,16,26,10,20,25,6,30,10,24,3,22,28,10,10,5,6,20,21,16,15,20,27,15,9,9,20,16,25,5,28,20,10,10,9,20,15,20,5,10,22,20,18,10,20,10,20,25,16,5,15,4,9,10,4,27,5,15,30,30,25,16,2,10,9,22,15,10,26,5,28,15,10,28,20,30,9,14,12,4,15,16,10,26,3,4,5,10,25,22,20,24,15,26,4,30,30,5,16,20,25,15,4,20,20,4,24,28,6,14,28,20,20,16,15,28],"correct_side":[1,2,1,2,1,2,1,1,1,1,2,1,1,2,2,2,1,1,1,2,1,2,1,1,1,1,2,2,2,2,1,2,1,1,1,1,1,1,1,1,2,1,1,1,2,1,1,2,2,1,1,2,1,2,2,2,2,1,2,2,2,2,1,2,2,2,2,1,2,1,2,1,1,2,1,2,2,1,2,2,2,2,1,2,1,2,1,1,2,2,1,2,1,2,2,2,2,2,2,2,2,2,1,2,1,2,2,1,2,1,2,1,2,2,1,1,1,1,1,1],"img_shown":["img2/200/Incongruent/L/I_Dist_200_LN_4_LD_5_RN_6_RD_10_0.png","img2/100/Incongruent/R/I_Dist_100_LN_10_LD_25_RN_8_RD_16_1.png","img2/300/Incongruent/L/I_Dist_300_LN_1_LD_2_RN_2_RD_10_0.png","img2/300/Incongruent/R/I_Dist_300_LN_13_LD_26_RN_12_RD_15_1.png","img2/100/Congruent/L/C_Dist_100_LN_6_LD_20_RN_5_RD_25_0.png","img2/100/Congruent/R/C_Dist_100_LN_3_LD_20_RN_4_RD_16_1.png","img2/100/Incongruent/L/I_Dist_100_LN_9_LD_15_RN_13_RD_26_0.png","img2/100/Congruent/L/C_Dist_100_LN_10_LD_25_RN_3_RD_10_0.png","img2/100/Incongruent/L/I_Dist_100_LN_2_LD_4_RN_8_RD_20_0.png","img2/100/Incongruent/L/I_Dist_100_LN_9_LD_10_RN_20_RD_25_0.png","img2/200/Incongruent/R/I_Dist_200_LN_7_LD_15_RN_4_RD_6_1.png","img2/300/Incongruent/L/I_Dist_300_LN_2_LD_4_RN_6_RD_30_0.png","img2/100/Congruent/L/C_Dist_100_LN_10_LD_25_RN_3_RD_10_0.png","img2/300/Congruent/R/C_Dist_300_LN_1_LD_30_RN_8_RD_24_1.png","img2/200/Incongruent/R/I_Dist_200_LN_4_LD_30_RN_1_RD_3_1.png","img2/200/Congruent/R/C_Dist_200_LN_6_LD_20_RN_11_RD_22_1.png","img2/300/Congruent/L/C_Dist_300_LN_20_LD_25_RN_14_RD_28_0.png","img2/300/Congruent/L/C_Dist_300_LN_11_LD_22_RN_2_RD_10_0.png","img2/100/Congruent/L/C_Dist_100_LN_10_LD_25_RN_3_RD_10_0.png","img2/100/Incongruent/R/I_Dist_100_LN_6_LD_12_RN_3_RD_5_1.png","img2/200/Congruent/L/C_Dist_200_LN_8_LD_15_RN_2_RD_6_0.png","img2/100/Incongruent/R/I_Dist_100_LN_13_LD_26_RN_12_RD_20_1.png","img2/200/Congruent/L/C_Dist_200_LN_8_LD_15_RN_7_RD_21_0.png","img2/100/Congruent/L/C_Dist_100_LN_9_LD_15_RN_8_RD_16_0.png","img2/100/Incongruent/L/I_Dist_100_LN_2_LD_4_RN_6_RD_15_0.png","img2/300/Incongruent/L/I_Dist_300_LN_7_LD_10_RN_8_RD_20_0.png","img2/200/Congruent/R/C_Dist_200_LN_7_LD_15_RN_18_RD_27_1.png","img2/300/Incongruent/R/I_Dist_300_LN_13_LD_26_RN_12_RD_15_1.png","img2/200/Incongruent/R/I_Dist_200_LN_14_LD_30_RN_6_RD_9_1.png","img2/200/Incongruent/R/I_Dist_200_LN_7_LD_15_RN_6_RD_9_1.png","img2/300/Incongruent/L/I_Dist_300_LN_7_LD_10_RN_8_RD_20_0.png","img2/100/Congruent/R/C_Dist_100_LN_3_LD_20_RN_4_RD_16_1.png","img2/100/Incongruent/L/I_Dist_100_LN_9_LD_10_RN_20_RD_25_0.png","img2/100/Congruent/L/C_Dist_100_LN_3_LD_6_RN_2_RD_5_0.png","img2/200/Incongruent/L/I_Dist_200_LN_7_LD_10_RN_14_RD_28_0.png","img2/100/Incongruent/L/I_Dist_100_LN_2_LD_4_RN_8_RD_20_0.png","img2/200/Incongruent/L/I_Dist_200_LN_4_LD_5_RN_6_RD_10_0.png","img2/100/Congruent/L/C_Dist_100_LN_11_LD_22_RN_4_RD_10_0.png","img2/200/Congruent/L/C_Dist_200_LN_8_LD_15_RN_3_RD_9_0.png","img2/200/Congruent/L/C_Dist_200_LN_14_LD_28_RN_6_RD_20_0.png","img2/300/Incongruent/R/I_Dist_300_LN_13_LD_26_RN_12_RD_15_1.png","img2/200/Congruent/L/C_Dist_200_LN_16_LD_20_RN_12_RD_20_0.png","img2/300/Congruent/L/C_Dist_300_LN_8_LD_16_RN_1_RD_5_0.png","img2/200/Incongruent/L/I_Dist_200_LN_4_LD_5_RN_6_RD_10_0.png","img2/200/Congruent/R/C_Dist_200_LN_6_LD_20_RN_11_RD_22_1.png","img2/300/Incongruent/L/I_Dist_300_LN_7_LD_10_RN_8_RD_20_0.png","img2/300/Incongruent/L/I_Dist_300_LN_8_LD_10_RN_9_RD_18_0.png","img2/100/Incongruent/R/I_Dist_100_LN_9_LD_18_RN_6_RD_10_1.png","img2/200/Congruent/R/C_Dist_200_LN_3_LD_6_RN_14_RD_20_1.png","img2/100/Congruent/L/C_Dist_100_LN_11_LD_22_RN_4_RD_10_0.png","img2/300/Congruent/L/C_Dist_300_LN_11_LD_22_RN_4_RD_20_0.png","img2/100/Congruent/R/C_Dist_100_LN_6_LD_12_RN_15_RD_25_1.png","img2/100/Incongruent/L/I_Dist_100_LN_3_LD_5_RN_8_RD_16_0.png","img2/300/Congruent/R/C_Dist_300_LN_3_LD_6_RN_4_RD_5_1.png","img2/300/Incongruent/R/I_Dist_300_LN_13_LD_26_RN_12_RD_15_1.png","img2/300/Incongruent/R/I_Dist_300_LN_4_LD_20_RN_2_RD_4_1.png","img2/200/Incongruent/R/I_Dist_200_LN_14_LD_30_RN_6_RD_9_1.png","img2/100/Congruent/L/C_Dist_100_LN_11_LD_22_RN_4_RD_10_0.png","img2/300/Incongruent/R/I_Dist_300_LN_4_LD_20_RN_2_RD_4_1.png","img2/200/Congruent/R/C_Dist_200_LN_7_LD_15_RN_18_RD_27_1.png","img2/300/Congruent/R/C_Dist_300_LN_3_LD_6_RN_4_RD_5_1.png","img2/100/Congruent/R/C_Dist_100_LN_7_LD_14_RN_9_RD_15_1.png","img2/200/Incongruent/L/I_Dist_200_LN_4_LD_6_RN_14_RD_30_0.png","img2/300/Congruent/R/C_Dist_300_LN_1_LD_3_RN_19_RD_30_1.png","img2/300/Congruent/R/C_Dist_300_LN_7_LD_14_RN_20_RD_25_1.png","img2/100/Incongruent/R/I_Dist_100_LN_10_LD_25_RN_8_RD_16_1.png","img2/200/Incongruent/R/I_Dist_200_LN_3_LD_10_RN_1_RD_2_1.png","img2/300/Congruent/L/C_Dist_300_LN_4_LD_10_RN_1_RD_10_0.png","img2/200/Incongruent/R/I_Dist_200_LN_7_LD_15_RN_6_RD_9_1.png","img2/100/Incongruent/L/I_Dist_100_LN_6_LD_10_RN_11_RD_22_0.png","img2/100/Congruent/R/C_Dist_100_LN_7_LD_14_RN_9_RD_15_1.png","img2/300/Congruent/L/C_Dist_300_LN_20_LD_25_RN_5_RD_10_0.png","img2/100/Incongruent/L/I_Dist_100_LN_9_LD_15_RN_13_RD_26_0.png","img2/100/Congruent/R/C_Dist_100_LN_1_LD_2_RN_3_RD_5_1.png","img2/200/Incongruent/L/I_Dist_200_LN_7_LD_10_RN_14_RD_28_0.png","img2/300/Incongruent/R/I_Dist_300_LN_13_LD_26_RN_12_RD_15_1.png","img2/200/Congruent/R/C_Dist_200_LN_6_LD_12_RN_7_RD_10_1.png","img2/300/Incongruent/L/I_Dist_300_LN_8_LD_10_RN_14_RD_28_0.png","img2/100/Incongruent/R/I_Dist_100_LN_13_LD_26_RN_12_RD_20_1.png","img2/200/Congruent/R/C_Dist_200_LN_1_LD_2_RN_21_RD_30_1.png","img2/200/Incongruent/R/I_Dist_200_LN_7_LD_15_RN_6_RD_9_1.png","img2/200/Congruent/R/C_Dist_200_LN_3_LD_10_RN_7_RD_14_1.png","img2/300/Incongruent/L/I_Dist_300_LN_4_LD_5_RN_6_RD_12_0.png","img2/300/Incongruent/R/I_Dist_300_LN_4_LD_20_RN_2_RD_4_1.png","img2/200/Congruent/L/C_Dist_200_LN_20_LD_25_RN_9_RD_15_0.png","img2/100/Incongruent/R/I_Dist_100_LN_10_LD_25_RN_8_RD_16_1.png","img2/200/Incongruent/L/I_Dist_200_LN_4_LD_5_RN_6_RD_10_0.png","img2/100/Incongruent/L/I_Dist_100_LN_6_LD_10_RN_13_RD_26_0.png","img2/200/Incongruent/R/I_Dist_200_LN_4_LD_30_RN_1_RD_3_1.png","img2/200/Incongruent/R/I_Dist_200_LN_11_LD_20_RN_3_RD_4_1.png","img2/300/Congruent/L/C_Dist_300_LN_8_LD_16_RN_1_RD_5_0.png","img2/100/Congruent/R/C_Dist_100_LN_4_LD_8_RN_6_RD_10_1.png","img2/100/Congruent/L/C_Dist_100_LN_6_LD_20_RN_5_RD_25_0.png","img2/200/Congruent/R/C_Dist_200_LN_3_LD_10_RN_11_RD_22_1.png","img2/100/Incongruent/R/I_Dist_100_LN_13_LD_26_RN_12_RD_20_1.png","img2/300/Congruent/R/C_Dist_300_LN_1_LD_30_RN_8_RD_24_1.png","img2/300/Incongruent/R/I_Dist_300_LN_13_LD_26_RN_12_RD_15_1.png","img2/300/Congruent/R/C_Dist_300_LN_4_LD_20_RN_13_RD_26_1.png","img2/300/Incongruent/R/I_Dist_300_LN_4_LD_20_RN_2_RD_4_1.png","img2/200/Congruent/R/C_Dist_200_LN_1_LD_2_RN_21_RD_30_1.png","img2/300/Congruent/R/C_Dist_300_LN_1_LD_3_RN_19_RD_30_1.png","img2/100/Congruent/R/C_Dist_100_LN_1_LD_2_RN_3_RD_5_1.png","img2/300/Congruent/L/C_Dist_300_LN_20_LD_25_RN_8_RD_16_0.png","img2/200/Congruent/R/C_Dist_200_LN_13_LD_26_RN_14_RD_20_1.png","img2/100/Incongruent/L/I_Dist_100_LN_9_LD_10_RN_20_RD_25_0.png","img2/300/Incongruent/R/I_Dist_300_LN_13_LD_26_RN_12_RD_15_1.png","img2/300/Incongruent/R/I_Dist_300_LN_4_LD_20_RN_2_RD_4_1.png","img2/300/Congruent/L/C_Dist_300_LN_11_LD_22_RN_4_RD_20_0.png","img2/200/Congruent/R/C_Dist_200_LN_3_LD_6_RN_14_RD_20_1.png","img2/300/Congruent/L/C_Dist_300_LN_4_LD_5_RN_2_RD_4_0.png","img2/300/Congruent/R/C_Dist_300_LN_1_LD_30_RN_8_RD_24_1.png","img2/200/Incongruent/L/I_Dist_200_LN_7_LD_10_RN_14_RD_28_0.png","img2/200/Incongruent/R/I_Dist_200_LN_7_LD_15_RN_4_RD_6_1.png","img2/200/Congruent/R/C_Dist_200_LN_3_LD_10_RN_7_RD_14_1.png","img2/200/Incongruent/L/I_Dist_200_LN_7_LD_10_RN_14_RD_28_0.png","img2/300/Congruent/L/C_Dist_300_LN_11_LD_22_RN_4_RD_20_0.png","img2/200/Congruent/L/C_Dist_200_LN_16_LD_20_RN_12_RD_20_0.png","img2/100/Congruent/L/C_Dist_100_LN_9_LD_15_RN_8_RD_16_0.png","img2/100/Congruent/L/C_Dist_100_LN_11_LD_22_RN_6_RD_15_0.png","img2/100/Incongruent/L/I_Dist_100_LN_9_LD_15_RN_14_RD_28_0.png"],"dist100_C":[["C_Dist_100_LN_10_LD_25_RN_3_RD_10_0.png","C_Dist_100_LN_11_LD_22_RN_4_RD_10_0.png","C_Dist_100_LN_11_LD_22_RN_6_RD_15_0.png","C_Dist_100_LN_15_LD_25_RN_13_RD_26_0.png","C_Dist_100_LN_3_LD_6_RN_2_RD_5_0.png","C_Dist_100_LN_6_LD_20_RN_5_RD_25_0.png","C_Dist_100_LN_8_LD_16_RN_2_RD_5_0.png","C_Dist_100_LN_9_LD_15_RN_8_RD_16_0.png"],["C_Dist_100_LN_1_LD_2_RN_18_RD_30_1.png","C_Dist_100_LN_1_LD_2_RN_3_RD_5_1.png","C_Dist_100_LN_12_LD_30_RN_13_RD_26_1.png","C_Dist_100_LN_2_LD_5_RN_11_RD_22_1.png","C_Dist_100_LN_2_LD_5_RN_6_RD_12_1.png","C_Dist_100_LN_3_LD_20_RN_4_RD_16_1.png","C_Dist_100_LN_4_LD_10_RN_15_RD_30_1.png","C_Dist_100_LN_4_LD_8_RN_6_RD_10_1.png","C_Dist_100_LN_6_LD_12_RN_15_RD_25_1.png","C_Dist_100_LN_7_LD_14_RN_15_RD_25_1.png","C_Dist_100_LN_7_LD_14_RN_9_RD_15_1.png"]],"dist100_I":[["I_Dist_100_LN_1_LD_2_RN_8_RD_20_0.png","I_Dist_100_LN_2_LD_4_RN_6_RD_15_0.png","I_Dist_100_LN_2_LD_4_RN_8_RD_20_0.png","I_Dist_100_LN_3_LD_5_RN_11_RD_22_0.png","I_Dist_100_LN_3_LD_5_RN_8_RD_16_0.png","I_Dist_100_LN_3_LD_6_RN_4_RD_10_0.png","I_Dist_100_LN_3_LD_9_RN_7_RD_30_0.png","I_Dist_100_LN_4_LD_8_RN_8_RD_20_0.png","I_Dist_100_LN_6_LD_10_RN_11_RD_22_0.png","I_Dist_100_LN_6_LD_10_RN_13_RD_26_0.png","I_Dist_100_LN_6_LD_10_RN_7_RD_14_0.png","I_Dist_100_LN_9_LD_10_RN_20_RD_25_0.png","I_Dist_100_LN_9_LD_15_RN_13_RD_26_0.png","I_Dist_100_LN_9_LD_15_RN_14_RD_28_0.png"],["I_Dist_100_LN_10_LD_25_RN_8_RD_16_1.png","I_Dist_100_LN_10_LD_25_RN_9_RD_18_1.png","I_Dist_100_LN_11_LD_22_RN_9_RD_15_1.png","I_Dist_100_LN_12_LD_24_RN_9_RD_15_1.png","I_Dist_100_LN_12_LD_30_RN_2_RD_4_1.png","I_Dist_100_LN_13_LD_26_RN_12_RD_20_1.png","I_Dist_100_LN_13_LD_26_RN_6_RD_10_1.png","I_Dist_100_LN_17_LD_30_RN_10_RD_15_1.png","I_Dist_100_LN_6_LD_12_RN_3_RD_5_1.png","I_Dist_100_LN_8_LD_16_RN_6_RD_10_1.png","I_Dist_100_LN_8_LD_20_RN_1_RD_2_1.png","I_Dist_100_LN_9_LD_18_RN_6_RD_10_1.png"]],"dist100_S":[["E_Dist_100_LN_2_LD_12_RN_2_RD_30_0.png","E_Dist_100_LN_6_LD_10_RN_6_RD_12_0.png"],["E_Dist_100_LN_6_LD_12_RN_6_RD_10_1.png"]],"dist200_C":[["C_Dist_200_LN_11_LD_22_RN_3_RD_10_0.png","C_Dist_200_LN_12_LD_15_RN_6_RD_10_0.png","C_Dist_200_LN_12_LD_20_RN_6_RD_15_0.png","C_Dist_200_LN_14_LD_28_RN_6_RD_20_0.png","C_Dist_200_LN_15_LD_25_RN_4_RD_10_0.png","C_Dist_200_LN_16_LD_20_RN_12_RD_20_0.png","C_Dist_200_LN_16_LD_30_RN_9_RD_27_0.png","C_Dist_200_LN_20_LD_25_RN_9_RD_15_0.png","C_Dist_200_LN_21_LD_30_RN_2_RD_4_0.png","C_Dist_200_LN_4_LD_10_RN_3_RD_15_0.png","C_Dist_200_LN_4_LD_8_RN_3_RD_10_0.png","C_Dist_200_LN_6_LD_15_RN_3_RD_15_0.png","C_Dist_200_LN_7_LD_21_RN_2_RD_15_0.png","C_Dist_200_LN_8_LD_15_RN_2_RD_6_0.png","C_Dist_200_LN_8_LD_15_RN_3_RD_9_0.png","C_Dist_200_LN_8_LD_15_RN_7_RD_21_0.png","C_Dist_200_LN_9_LD_20_RN_4_RD_16_0.png"],["C_Dist_200_LN_1_LD_2_RN_21_RD_30_1.png","C_Dist_200_LN_13_LD_26_RN_14_RD_20_1.png","C_Dist_200_LN_3_LD_10_RN_11_RD_22_1.png","C_Dist_200_LN_3_LD_10_RN_14_RD_28_1.png","C_Dist_200_LN_3_LD_10_RN_7_RD_14_1.png","C_Dist_200_LN_3_LD_12_RN_9_RD_20_1.png","C_Dist_200_LN_3_LD_6_RN_14_RD_20_1.png","C_Dist_200_LN_5_LD_10_RN_14_RD_20_1.png","C_Dist_200_LN_6_LD_12_RN_7_RD_10_1.png","C_Dist_200_LN_6_LD_20_RN_11_RD_22_1.png","C_Dist_200_LN_7_LD_15_RN_18_RD_27_1.png","C_Dist_200_LN_9_LD_30_RN_13_RD_26_1.png"]],"dist200_I":[["I_Dist_200_LN_1_LD_2_RN_3_RD_10_0.png","I_Dist_200_LN_1_LD_3_RN_2_RD_15_0.png","I_Dist_200_LN_3_LD_4_RN_11_RD_20_0.png","I_Dist_200_LN_4_LD_5_RN_6_RD_10_0.png","I_Dist_200_LN_4_LD_6_RN_14_RD_30_0.png","I_Dist_200_LN_7_LD_10_RN_12_RD_24_0.png","I_Dist_200_LN_7_LD_10_RN_14_RD_28_0.png","I_Dist_200_LN_7_LD_10_RN_8_RD_16_0.png"],["I_Dist_200_LN_11_LD_20_RN_3_RD_4_1.png","I_Dist_200_LN_14_LD_30_RN_12_RD_18_1.png","I_Dist_200_LN_14_LD_30_RN_6_RD_9_1.png","I_Dist_200_LN_3_LD_10_RN_1_RD_2_1.png","I_Dist_200_LN_4_LD_30_RN_1_RD_3_1.png","I_Dist_200_LN_6_LD_20_RN_3_RD_6_1.png","I_Dist_200_LN_7_LD_15_RN_4_RD_6_1.png","I_Dist_200_LN_7_LD_15_RN_6_RD_9_1.png","I_Dist_200_LN_9_LD_15_RN_8_RD_10_1.png"]],"dist200_S":[["E_Dist_200_LN_3_LD_6_RN_3_RD_10_0.png"],["E_Dist_200_LN_3_LD_10_RN_3_RD_6_1.png"]],"dist300_C":[["C_Dist_300_LN_11_LD_22_RN_1_RD_5_0.png","C_Dist_300_LN_11_LD_22_RN_2_RD_10_0.png","C_Dist_300_LN_11_LD_22_RN_4_RD_20_0.png","C_Dist_300_LN_12_LD_24_RN_2_RD_10_0.png","C_Dist_300_LN_18_LD_20_RN_9_RD_15_0.png","C_Dist_300_LN_20_LD_25_RN_13_RD_26_0.png","C_Dist_300_LN_20_LD_25_RN_14_RD_28_0.png","C_Dist_300_LN_20_LD_25_RN_5_RD_10_0.png","C_Dist_300_LN_20_LD_25_RN_8_RD_16_0.png","C_Dist_300_LN_20_LD_25_RN_9_RD_18_0.png","C_Dist_300_LN_24_LD_30_RN_2_RD_4_0.png","C_Dist_300_LN_24_LD_30_RN_8_RD_16_0.png","C_Dist_300_LN_3_LD_6_RN_2_RD_10_0.png","C_Dist_300_LN_4_LD_10_RN_1_RD_10_0.png","C_Dist_300_LN_4_LD_5_RN_2_RD_4_0.png","C_Dist_300_LN_8_LD_16_RN_1_RD_5_0.png","C_Dist_300_LN_9_LD_10_RN_3_RD_5_0.png"],["C_Dist_300_LN_1_LD_20_RN_7_RD_20_1.png","C_Dist_300_LN_1_LD_3_RN_19_RD_30_1.png","C_Dist_300_LN_1_LD_30_RN_8_RD_24_1.png","C_Dist_300_LN_1_LD_5_RN_11_RD_22_1.png","C_Dist_300_LN_1_LD_5_RN_3_RD_6_1.png","C_Dist_300_LN_1_LD_5_RN_6_RD_12_1.png","C_Dist_300_LN_2_LD_10_RN_12_RD_24_1.png","C_Dist_300_LN_2_LD_20_RN_10_RD_25_1.png","C_Dist_300_LN_3_LD_12_RN_11_RD_20_1.png","C_Dist_300_LN_3_LD_6_RN_4_RD_5_1.png","C_Dist_300_LN_4_LD_20_RN_13_RD_26_1.png","C_Dist_300_LN_5_LD_25_RN_6_RD_12_1.png","C_Dist_300_LN_5_LD_25_RN_7_RD_14_1.png","C_Dist_300_LN_7_LD_14_RN_20_RD_25_1.png","C_Dist_300_LN_8_LD_15_RN_10_RD_12_1.png"]],"dist300_I":[["I_Dist_300_LN_1_LD_2_RN_2_RD_10_0.png","I_Dist_300_LN_1_LD_2_RN_3_RD_15_0.png","I_Dist_300_LN_2_LD_4_RN_6_RD_30_0.png","I_Dist_300_LN_3_LD_6_RN_4_RD_20_0.png","I_Dist_300_LN_4_LD_5_RN_6_RD_12_0.png","I_Dist_300_LN_4_LD_5_RN_8_RD_16_0.png","I_Dist_300_LN_7_LD_10_RN_8_RD_20_0.png","I_Dist_300_LN_8_LD_10_RN_14_RD_28_0.png","I_Dist_300_LN_8_LD_10_RN_9_RD_18_0.png"],["I_Dist_300_LN_13_LD_26_RN_12_RD_15_1.png","I_Dist_300_LN_4_LD_20_RN_2_RD_4_1.png"]],"dist300_S":[["E_Dist_300_LN_9_LD_12_RN_9_RD_20_0.png"],["E_Dist_300_LN_18_LD_30_RN_18_RD_20_1.png","E_Dist_300_LN_3_LD_10_RN_3_RD_5_1.png","E_Dist_300_LN_9_LD_20_RN_9_RD_12_1.png"]],"dist500_C":[["C_Dist_500_LN_10_LD_13_RN_7_RD_26_0.png","C_Dist_500_LN_10_LD_15_RN_4_RD_24_0.png","C_Dist_500_LN_12_LD_16_RN_3_RD_12_0.png","C_Dist_500_LN_12_LD_18_RN_4_RD_24_0.png","C_Dist_500_LN_15_LD_18_RN_5_RD_15_0.png","C_Dist_500_LN_15_LD_20_RN_1_RD_4_0.png","C_Dist_500_LN_18_LD_27_RN_1_RD_6_0.png","C_Dist_500_LN_20_LD_24_RN_1_RD_3_0.png","C_Dist_500_LN_20_LD_24_RN_3_RD_9_0.png","C_Dist_500_LN_20_LD_24_RN_7_RD_21_0.png","C_Dist_500_LN_20_LD_28_RN_3_RD_14_0.png","C_Dist_500_LN_21_LD_28_RN_6_RD_24_0.png","C_Dist_500_LN_22_LD_28_RN_2_RD_7_0.png","C_Dist_500_LN_25_LD_30_RN_9_RD_27_0.png","C_Dist_500_LN_4_LD_6_RN_1_RD_6_0.png","C_Dist_500_LN_5_LD_6_RN_2_RD_6_0.png","C_Dist_500_LN_6_LD_9_RN_1_RD_6_0.png","C_Dist_500_LN_7_LD_10_RN_1_RD_5_0.png","C_Dist_500_LN_8_LD_12_RN_1_RD_6_0.png","C_Dist_500_LN_8_LD_12_RN_4_RD_24_0.png"],["C_Dist_500_LN_1_LD_4_RN_12_RD_16_1.png","C_Dist_500_LN_1_LD_4_RN_9_RD_12_1.png","C_Dist_500_LN_1_LD_9_RN_11_RD_18_1.png","C_Dist_500_LN_10_LD_24_RN_22_RD_24_1.png","C_Dist_500_LN_2_LD_12_RN_10_RD_15_1.png","C_Dist_500_LN_2_LD_12_RN_12_RD_18_1.png","C_Dist_500_LN_2_LD_12_RN_4_RD_6_1.png","C_Dist_500_LN_2_LD_24_RN_7_RD_12_1.png","C_Dist_500_LN_2_LD_5_RN_18_RD_20_1.png","C_Dist_500_LN_2_LD_5_RN_9_RD_10_1.png","C_Dist_500_LN_2_LD_8_RN_12_RD_16_1.png","C_Dist_500_LN_2_LD_8_RN_21_RD_28_1.png","C_Dist_500_LN_3_LD_10_RN_4_RD_5_1.png","C_Dist_500_LN_3_LD_12_RN_15_RD_20_1.png","C_Dist_500_LN_3_LD_30_RN_6_RD_10_1.png","C_Dist_500_LN_3_LD_8_RN_14_RD_16_1.png","C_Dist_500_LN_4_LD_16_RN_15_RD_20_1.png","C_Dist_500_LN_4_LD_24_RN_12_RD_18_1.png","C_Dist_500_LN_5_LD_14_RN_6_RD_7_1.png","C_Dist_500_LN_7_LD_21_RN_20_RD_24_1.png","C_Dist_500_LN_7_LD_28_RN_12_RD_16_1.png","C_Dist_500_LN_7_LD_28_RN_9_RD_12_1.png","C_Dist_500_LN_9_LD_27_RN_20_RD_24_1.png"]],"dist500_I":[["I_Dist_500_LN_2_LD_3_RN_4_RD_24_0.png","I_Dist_500_LN_5_LD_6_RN_6_RD_18_0.png","I_Dist_500_LN_7_LD_8_RN_9_RD_24_0.png"],["I_Dist_500_LN_7_LD_21_RN_5_RD_6_1.png"]],"dist500_S":[["E_Dist_500_LN_6_LD_8_RN_6_RD_24_0.png"],["E_Dist_500_LN_2_LD_12_RN_2_RD_3_1.png","E_Dist_500_LN_6_LD_24_RN_6_RD_8_1.png"]]}},{"start_time":1552073255246,"click_time":1552073255773,"finger_time":1552073255412,"fix_duration":712.0147419727457,"trial":1,"RT":166,"MT":361,"sideResp":2,"stimulus":[],"xmouse":[804,804,806,806,809,812,815,815,816,816,818,826,834,846,871,893,930,964,995,1020,1041,1056,1059,1060,1069,1084,1115],"ymouse":[583,582,581,581,578,575,574,574,573,571,569,555,542,522,494,469,418,371,331,302,285,266,260,249,210,151,86],"timestamp_mouse":[6,28,59,67,86,106,126,146,166,186,206,226,248,267,288,307,326,347,367,387,408,427,446,467,487,507,526],"xSR":741.5,"ySR":573.95,"xT1":424.9,"yT1":0,"xT2":1058.1,"yT2":0,"toosoon":0,"cond_shown":"Incongruent","ratio_trial":100,"L_num":10,"L_den":25,"R_num":8,"R_den":16,"correct_side":2,"subjID":"valentinagutierrezguerrero4","gender":"1","school":"4","age":"9"},{"start_time":1552073267757,"click_time":1552073268494,"finger_time":1552073267913,"fix_duration":1364.3673237934956,"trial":2,"RT":156,"MT":581,"sideResp":1,"stimulus":[],"xmouse":[810,810,810,810,810,810,806,800,788,769,734,682,448,358,339,339,339,339,339,339,339,339,341,346,354,369,388,423,433,445,455,467,478,485,488,489,489],"ymouse":[598,598,598,598,597,596,585,569,543,477,387,260,0,0,0,0,0,0,0,0,0,2,10,20,40,76,119,160,160,153,144,133,122,112,103,100,98],"timestamp_mouse":[15,36,55,77,95,115,136,156,175,195,216,235,256,275,295,316,337,356,375,395,415,435,455,475,496,517,536,555,575,596,616,637,655,675,696,715,737],"xSR":741.5,"ySR":573.95,"xT1":424.9,"yT1":0,"xT2":1058.1,"yT2":0,"toosoon":0,"cond_shown":"Incongruent","ratio_trial":300,"L_num":1,"L_den":2,"R_num":2,"R_den":10,"correct_side":1,"subjID":"valentinagutierrezguerrero4","gender":"1","school":"4","age":"9"},{"start_time":1552073277451,"click_time":1552073277832,"finger_time":1552073277692,"fix_duration":358.888264054544,"trial":3,"RT":241,"MT":140,"sideResp":2,"stimulus":[],"xmouse":[809,809,809,809,809,809,809,810,811,815,818,819,821,825,843,890,938,992,1101,1143],"ymouse":[647,647,647,647,647,647,647,643,641,628,611,587,560,482,402,310,244,197,120,87],"timestamp_mouse":[4,21,41,61,81,102,123,142,162,182,202,222,241,262,281,301,321,342,362,381],"xSR":741.5,"ySR":573.95,"xT1":424.9,"yT1":0,"xT2":1058.1,"yT2":0,"toosoon":0,"cond_shown":"Incongruent","ratio_trial":300,"L_num":13,"L_den":26,"R_num":12,"R_den":15,"correct_side":2,"subjID":"valentinagutierrezguerrero4","gender":"1","school":"4","age":"9"},{"start_time":1552073279266,"click_time":1552073279532,"finger_time":1552073279432,"fix_duration":250,"trial":4,"RT":166,"MT":100,"sideResp":2,"stimulus":[],"xmouse":[786,787,787,794,796,799,801,802,806,812,822,851,922,1114],"ymouse":[603,603,603,597,594,588,583,579,571,563,544,497,387,47],"timestamp_mouse":[9,32,46,66,86,106,127,146,166,186,206,226,247,266],"xSR":741.5,"ySR":573.95,"xT1":424.9,"yT1":0,"xT2":1058.1,"yT2":0,"toosoon":0,"cond_shown":"Congruent","ratio_trial":100,"L_num":6,"L_den":20,"R_num":5,"R_den":25,"correct_side":1,"subjID":"valentinagutierrezguerrero4","gender":"1","school":"4","age":"9"},{"start_time":1552073293525,"click_time":1552073294233,"finger_time":1552073293853,"fix_duration":250,"trial":5,"RT":328,"MT":380,"sideResp":2,"stimulus":[],"xmouse":[833,833,833,833,833,833,833,833,833,833,833,833,833,833,833,832,844,872,906,941,1021,1119,1131,1145,1147,1148,1152,1154,1154,1154,1154,1155,1155,1138,1109,1070],"ymouse":[638,638,638,638,638,638,638,638,638,638,638,638,638,638,638,636,563,503,435,376,262,157,151,146,146,146,147,147,148,148,148,147,144,133,117,95],"timestamp_mouse":[10,27,48,67,87,107,128,147,167,187,208,227,248,267,287,308,328,347,368,388,407,428,447,467,487,507,527,548,567,587,607,627,647,668,687,708],"xSR":741.5,"ySR":573.95,"xT1":424.9,"yT1":0,"xT2":1058.1,"yT2":0,"toosoon":0,"cond_shown":"Congruent","ratio_trial":100,"L_num":3,"L_den":20,"R_num":4,"R_den":16,"correct_side":2,"subjID":"valentinagutierrezguerrero4","gender":"1","school":"4","age":"9"},{"start_time":1552073296662,"click_time":1552073297113,"finger_time":1552073296793,"fix_duration":489.6163371829022,"trial":6,"RT":131,"MT":320,"sideResp":2,"stimulus":[],"xmouse":[812,812,812,812,813,814,817,824,834,845,878,894,911,928,960,1010,1034,1048,1056,1062,1084,1100,1112],"ymouse":[596,596,596,594,589,579,568,551,530,505,427,382,348,323,290,234,194,168,155,148,126,106,86],"timestamp_mouse":[12,37,51,70,91,110,131,150,171,190,211,230,251,271,291,310,330,350,370,390,411,430,451],"xSR":741.5,"ySR":573.95,"xT1":424.9,"yT1":0,"xT2":1058.1,"yT2":0,"toosoon":0,"cond_shown":"Incongruent","ratio_trial":100,"L_num":9,"L_den":15,"R_num":13,"R_den":26,"correct_side":1,"subjID":"valentinagutierrezguerrero4","gender":"1","school":"4","age":"9"},{"start_time":1552073298604,"click_time":1552073299313,"finger_time":1552073298873,"fix_duration":250,"trial":7,"RT":269,"MT":440,"sideResp":1,"stimulus":[],"xmouse":[792,792,792,792,792,792,792,792,792,792,792,792,789,767,734,698,670,662,627,622,622,622,622,622,622,622,622,622,621,618,612,603,591,571,539,512],"ymouse":[591,591,591,591,591,591,591,591,591,591,591,591,590,552,491,410,307,174,0,0,0,0,0,0,0,0,1,3,13,18,26,36,48,56,62,66],"timestamp_mouse":[8,31,48,68,88,108,129,148,169,188,208,229,248,269,288,309,328,349,368,388,408,429,448,469,488,508,528,549,568,589,608,628,648,668,688,709],"xSR":741.5,"ySR":573.95,"xT1":424.9,"yT1":0,"xT2":1058.1,"yT2":0,"toosoon":0,"cond_shown":"Congruent","ratio_trial":100,"L_num":10,"L_den":25,"R_num":3,"R_den":10,"correct_side":1,"subjID":"valentinagutierrezguerrero4","gender":"1","school":"4","age":"9"},{"start_time":1552073300644,"click_time":1552073301252,"finger_time":1552073300772,"fix_duration":250,"trial":8,"RT":128,"MT":480,"sideResp":2,"stimulus":[],"xmouse":[794,794,799,804,814,823,839,861,864,866,867,871,892,924,977,1055,1133,1211,1213,1211,1210,1210,1210,1210,1210,1210,1204,1197,1184,1169,1157],"ymouse":[638,637,629,620,608,586,543,490,487,485,483,479,467,447,402,306,187,0,0,0,0,0,0,0,0,0,0,2,7,15,25],"timestamp_mouse":[9,28,48,68,88,109,128,148,168,188,209,228,248,268,288,309,328,348,369,388,409,428,448,468,489,508,528,548,568,588,608],"xSR":741.5,"ySR":573.95,"xT1":424.9,"yT1":0,"xT2":1058.1,"yT2":0,"toosoon":0,"cond_shown":"Incongruent","ratio_trial":100,"L_num":2,"L_den":4,"R_num":8,"R_den":20,"correct_side":1,"subjID":"valentinagutierrezguerrero4","gender":"1","school":"4","age":"9"},{"start_time":1552073302524,"click_time":1552073303393,"finger_time":1552073302652,"fix_duration":250,"trial":9,"RT":128,"MT":741,"sideResp":1,"stimulus":[],"xmouse":[783,783,783,778,773,768,763,760,760,760,757,748,741,722,711,699,683,683,691,694,695,694,687,670,666,666,666,662,637,613,586,566,557,552,549,542,536,536,536,536,535,532,526,514],"ymouse":[642,642,640,626,605,583,565,544,542,540,532,518,503,470,440,366,255,57,34,14,6,0,0,0,0,0,0,0,10,18,24,31,33,33,33,33,33,33,33,33,33,33,33,34],"timestamp_mouse":[9,30,49,69,88,109,128,149,168,188,208,229,248,269,289,309,329,349,368,388,408,429,448,468,488,508,528,549,568,588,608,629,649,668,688,708,729,749,768,788,808,828,848,868],"xSR":741.5,"ySR":573.95,"xT1":424.9,"yT1":0,"xT2":1058.1,"yT2":0,"toosoon":0,"cond_shown":"Incongruent","ratio_trial":100,"L_num":9,"L_den":10,"R_num":20,"R_den":25,"correct_side":1,"subjID":"valentinagutierrezguerrero4","gender":"1","school":"4","age":"9"},{"start_time":1552073304716,"click_time":1552073305613,"finger_time":1552073304932,"fix_duration":423.9566245357712,"trial":10,"RT":216,"MT":681,"sideResp":1,"stimulus":[],"xmouse":[770,770,770,770,770,770,771,771,771,764,743,701,655,626,629,634,635,637,633,613,597,586,577,572,570,567,552,547,526,526,526,526,526,526,526,526,525,525,525,525,525,525,525,525,523],"ymouse":[618,618,618,618,618,618,619,619,613,595,544,442,334,118,89,84,83,69,34,0,0,0,0,0,2,8,29,34,52,52,52,52,52,52,52,52,53,53,53,53,53,53,53,53,53],"timestamp_mouse":[16,36,56,77,96,116,137,156,176,197,216,237,256,277,296,316,336,357,376,396,416,437,456,477,496,517,536,557,576,596,617,636,657,677,696,716,736,756,776,796,816,836,856,876,896],"xSR":741.5,"ySR":573.95,"xT1":424.9,"yT1":0,"xT2":1058.1,"yT2":0,"toosoon":0,"cond_shown":"Incongruent","ratio_trial":200,"L_num":7,"L_den":15,"R_num":4,"R_den":6,"correct_side":2,"subjID":"valentinagutierrezguerrero4","gender":"1","school":"4","age":"9"},{"start_time":1552073313434,"click_time":1552073314232,"finger_time":1552073313512,"fix_duration":520.2117241806053,"trial":11,"RT":78,"MT":720,"sideResp":2,"stimulus":[],"xmouse":[816,820,820,834,836,836,836,837,837,837,837,838,839,843,853,861,870,898,1090,1189,1279,1337,1361,1369,1369,1369,1369,1369,1335,1307,1283,1269,1254,1211,1185,1167,1162,1162,1159,1138],"ymouse":[582,576,576,560,558,558,558,557,557,556,555,554,554,548,541,534,528,511,338,218,80,0,0,0,0,0,0,0,0,0,0,0,0,15,29,40,43,43,44,46],"timestamp_mouse":[18,42,59,78,99,118,138,159,178,199,219,239,258,279,298,318,338,359,379,398,418,439,459,478,498,518,538,558,577,598,618,638,658,678,698,718,738,758,779,798],"xSR":741.5,"ySR":573.95,"xT1":424.9,"yT1":0,"xT2":1058.1,"yT2":0,"toosoon":0,"cond_shown":"Incongruent","ratio_trial":300,"L_num":2,"L_den":4,"R_num":6,"R_den":30,"correct_side":1,"subjID":"valentinagutierrezguerrero4","gender":"1","school":"4","age":"9"},{"start_time":1552073316223,"click_time":1552073316913,"finger_time":1552073316512,"fix_duration":250,"trial":12,"RT":289,"MT":401,"sideResp":1,"stimulus":[],"xmouse":[815,814,814,814,814,814,814,814,815,815,815,815,808,797,763,738,721,704,664,630,628,628,630,630,630,630,630,630,628,599,572,551,540,536,516],"ymouse":[658,657,656,655,655,655,653,653,652,649,645,636,616,588,471,345,173,28,0,0,0,0,0,0,0,0,0,0,0,0,0,0,0,0,2],"timestamp_mouse":[12,34,49,70,89,109,130,149,170,189,210,229,250,270,289,309,330,349,370,389,409,429,449,469,490,509,529,549,569,589,609,629,649,669,690],"xSR":741.5,"ySR":573.95,"xT1":424.9,"yT1":0,"xT2":1058.1,"yT2":0,"toosoon":0,"cond_shown":"Congruent","ratio_trial":100,"L_num":10,"L_den":25,"R_num":3,"R_den":10,"correct_side":1,"subjID":"valentinagutierrezguerrero4","gender":"1","school":"4","age":"9"},{"start_time":1552073321144,"click_time":1552073321933,"finger_time":1552073321513,"fix_duration":250,"trial":13,"RT":369,"MT":420,"sideResp":2,"stimulus":[],"xmouse":[793,793,793,793,793,793,793,793,793,793,793,793,793,793,793,795,800,819,908,960,1003,1026,1034,1039,1048,1056,1065,1075,1085,1096,1096,1096,1095,1095,1095,1095,1095,1096,1104,1117],"ymouse":[591,591,591,591,591,591,591,591,591,591,591,591,591,591,591,592,591,583,537,489,429,391,365,346,305,281,256,223,190,145,135,129,126,126,126,126,124,120,108,84],"timestamp_mouse":[18,43,48,69,88,108,128,148,169,188,208,228,248,268,288,308,328,348,369,388,408,428,449,469,489,508,529,549,569,589,608,629,648,669,689,709,729,748,769,788],"xSR":741.5,"ySR":573.95,"xT1":424.9,"yT1":0,"xT2":1058.1,"yT2":0,"toosoon":0,"cond_shown":"Congruent","ratio_trial":300,"L_num":1,"L_den":30,"R_num":8,"R_den":24,"correct_side":2,"subjID":"valentinagutierrezguerrero4","gender":"1","school":"4","age":"9"},{"start_time":1552073323580,"click_time":1552073324632,"finger_time":1552073324032,"fix_duration":625.8194922711625,"trial":14,"RT":452,"MT":600,"sideResp":1,"stimulus":[],"xmouse":[768,768,768,768,768,768,768,768,768,768,769,769,769,770,770,770,771,771,772,772,772,772,741,716,710,700,697,688,686,682,672,665,654,654,654,654,654,646,636,623,608,594,582,579,575,566,560,554,554,554,553,548,519],"ymouse":[632,632,632,632,632,632,632,632,632,631,631,631,631,630,630,630,629,628,627,624,622,614,563,525,511,481,454,264,137,31,0,0,0,0,0,0,0,0,1,4,10,14,20,21,22,25,26,29,29,29,30,31,39],"timestamp_mouse":[12,34,52,73,92,112,132,152,172,192,212,232,252,272,292,312,332,352,372,392,413,433,452,472,493,512,533,552,573,592,613,633,653,672,693,712,733,752,772,793,812,833,852,872,893,912,932,952,972,993,1012,1032,1052],"xSR":741.5,"ySR":573.95,"xT1":424.9,"yT1":0,"xT2":1058.1,"yT2":0,"toosoon":0,"cond_shown":"Incongruent","ratio_trial":200,"L_num":4,"L_den":30,"R_num":1,"R_den":3,"correct_side":2,"subjID":"valentinagutierrezguerrero4","gender":"1","school":"4","age":"9"},{"start_time":1552073326827,"click_time":1552073327732,"finger_time":1552073327272,"fix_duration":1274.404940570805,"trial":15,"RT":445,"MT":460,"sideResp":1,"stimulus":[],"xmouse":[783,783,791,791,794,794,794,794,794,794,794,794,794,794,794,794,794,794,794,794,794,787,750,719,695,683,670,665,663,664,685,687,687,687,687,687,687,680,667,649,616,609,601,586,562,494],"ymouse":[644,644,642,642,640,640,640,640,640,640,640,640,640,640,640,640,640,640,640,640,636,615,562,521,489,466,419,386,360,254,97,87,86,86,86,86,85,85,85,82,73,71,68,62,48,4],"timestamp_mouse":[15,25,54,66,85,105,125,145,165,185,205,225,245,265,286,305,325,346,365,385,406,425,445,465,487,506,525,546,566,586,605,626,645,665,685,705,726,745,766,785,806,826,846,866,886,905],"xSR":741.5,"ySR":573.95,"xT1":424.9,"yT1":0,"xT2":1058.1,"yT2":0,"toosoon":0,"cond_shown":"Congruent","ratio_trial":200,"L_num":6,"L_den":20,"R_num":11,"R_den":22,"correct_side":2,"subjID":"valentinagutierrezguerrero4","gender":"1","school":"4","age":"9"},{"start_time":1552073329285,"click_time":1552073330492,"finger_time":1552073329572,"fix_duration":350.9149311486531,"trial":16,"RT":287,"MT":920,"sideResp":2,"stimulus":[],"xmouse":[814,814,814,814,814,814,814,814,814,814,814,814,814,814,846,909,975,1063,1070,1071,1071,1071,1071,1071,1071,1071,1071,1079,1131,1154,1161,1162,1162,1154,1150,1145,1140,1137,1129,1123,1120,1119,1119,1119,1119,1121,1123,1126,1127,1127,1127,1127,1127,1127,1127,1127,1127,1127,1127,1127,1127],"ymouse":[637,637,637,637,637,637,637,637,637,637,637,637,637,637,604,529,453,339,317,316,316,316,316,316,316,316,315,307,256,235,221,212,199,161,140,125,118,116,114,113,110,109,109,109,106,105,103,100,100,100,100,100,100,100,100,100,100,100,100,100,99],"timestamp_mouse":[9,38,48,67,87,107,128,148,167,189,207,227,247,267,287,307,328,348,367,387,407,428,448,467,487,507,528,548,568,587,607,627,648,668,687,707,727,747,768,787,807,828,847,867,887,907,927,947,968,988,1007,1027,1047,1068,1088,1107,1127,1147,1167,1188,1207],"xSR":741.5,"ySR":573.95,"xT1":424.9,"yT1":0,"xT2":1058.1,"yT2":0,"toosoon":0,"cond_shown":"Congruent","ratio_trial":300,"L_num":20,"L_den":25,"R_num":14,"R_den":28,"correct_side":1,"subjID":"valentinagutierrezguerrero4","gender":"1","school":"4","age":"9"},{"start_time":1552073332443,"click_time":1552073333432,"finger_time":1552073332773,"fix_duration":750.293681326739,"trial":17,"RT":330,"MT":659,"sideResp":1,"stimulus":[],"xmouse":[755,755,755,755,755,755,755,755,755,755,755,755,755,755,755,755,719,670,641,635,641,641,641,641,641,641,641,641,641,641,641,641,641,637,626,605,592,578,577,576,575,572,568,568,568,565,558,533,525,509],"ymouse":[598,598,598,598,598,598,598,598,598,598,598,598,598,598,598,597,508,395,272,176,154,154,154,154,154,154,154,154,154,154,154,151,149,132,107,65,45,28,27,26,26,26,25,25,25,25,25,25,25,24],"timestamp_mouse":[24,35,49,69,89,109,129,149,169,189,210,229,249,270,289,310,330,350,369,389,409,429,450,470,489,509,529,549,569,589,609,629,649,670,689,709,730,749,769,789,810,831,849,869,889,909,930,949,969,989],"xSR":741.5,"ySR":573.95,"xT1":424.9,"yT1":0,"xT2":1058.1,"yT2":0,"toosoon":0,"cond_shown":"Congruent","ratio_trial":300,"L_num":11,"L_den":22,"R_num":2,"R_den":10,"correct_side":1,"subjID":"valentinagutierrezguerrero4","gender":"1","school":"4","age":"9"},{"start_time":1552073343744,"click_time":1552073344474,"finger_time":1552073344092,"fix_duration":288.7115339430635,"trial":18,"RT":348,"MT":382,"sideResp":2,"stimulus":[],"xmouse":[803,786,777,763,754,753,753,753,753,753,753,753,754,756,758,761,769,768,747,728,722,706,697,697,697,697,699,729,762,793,817,858,880,912,970,1022,1122],"ymouse":[590,608,623,653,666,667,667,667,667,667,667,666,665,660,656,648,609,527,447,340,199,0,0,0,0,0,0,0,4,9,12,18,21,26,34,43,55],"timestamp_mouse":[9,28,47,68,88,108,128,148,168,188,209,228,249,268,289,308,328,348,369,388,408,428,448,469,489,509,529,548,568,588,608,628,648,669,689,708,729],"xSR":741.5,"ySR":573.95,"xT1":424.9,"yT1":0,"xT2":1058.1,"yT2":0,"toosoon":0,"cond_shown":"Congruent","ratio_trial":100,"L_num":10,"L_den":25,"R_num":3,"R_den":10,"correct_side":1,"subjID":"valentinagutierrezguerrero4","gender":"1","school":"4","age":"9"},{"start_time":1552073346938,"click_time":1552073347692,"finger_time":1552073347313,"fix_duration":985.7774701215252,"trial":19,"RT":375,"MT":379,"sideResp":1,"stimulus":[],"xmouse":[786,786,786,786,786,786,786,786,786,786,786,787,787,787,788,788,788,782,774,751,711,657,591,584,578,578,576,567,567,567,567,567,567,563,555,540,527,477],"ymouse":[635,635,635,635,635,635,635,635,635,635,635,635,635,634,631,625,605,580,553,499,410,314,205,196,193,193,191,190,190,189,189,189,189,184,169,148,126,62],"timestamp_mouse":[15,36,54,74,94,114,134,154,174,194,214,235,254,276,294,314,335,354,375,395,414,435,454,475,494,515,535,555,574,595,614,634,655,675,695,714,735,754],"xSR":741.5,"ySR":573.95,"xT1":424.9,"yT1":0,"xT2":1058.1,"yT2":0,"toosoon":0,"cond_shown":"Incongruent","ratio_trial":100,"L_num":6,"L_den":12,"R_num":3,"R_den":5,"correct_side":2,"subjID":"valentinagutierrezguerrero4","gender":"1","school":"4","age":"9"},{"start_time":1552073351353,"click_time":1552073352092,"finger_time":1552073351752,"fix_duration":1439.4331142427723,"trial":20,"RT":399,"MT":340,"sideResp":1,"stimulus":[],"xmouse":[790,790,790,790,790,790,790,790,790,790,790,790,790,790,790,790,790,790,790,772,772,717,680,639,624,616,614,614,614,614,614,614,614,614,602,572,470],"ymouse":[586,586,586,586,586,586,586,586,586,586,586,586,586,586,586,586,586,586,586,553,553,445,351,274,239,208,198,198,198,198,198,198,198,197,170,131,42],"timestamp_mouse":[20,39,59,79,99,119,139,159,179,199,219,239,259,279,299,319,339,359,379,399,419,439,460,480,499,520,539,560,579,600,620,639,659,680,699,720,739],"xSR":741.5,"ySR":573.95,"xT1":424.9,"yT1":0,"xT2":1058.1,"yT2":0,"toosoon":0,"cond_shown":"Congruent","ratio_trial":200,"L_num":8,"L_den":15,"R_num":2,"R_den":6,"correct_side":1,"subjID":"valentinagutierrezguerrero4","gender":"1","school":"4","age":"9"},{"start_time":1552073353801,"click_time":1552073354431,"finger_time":1552073354111,"fix_duration":269.1036056329199,"trial":21,"RT":310,"MT":320,"sideResp":2,"stimulus":[],"xmouse":[774,774,774,774,774,774,777,779,781,782,782,782,782,785,811,864,936,1001,1049,1090,1102,1103,1103,1103,1103,1104,1104,1104,1104,1104,1103,1086],"ymouse":[611,611,611,611,611,611,607,605,603,602,602,602,602,598,581,545,469,351,223,0,0,0,0,0,0,0,0,0,0,0,0,4],"timestamp_mouse":[24,37,50,70,90,110,131,151,170,190,210,231,250,271,290,310,330,351,370,391,410,430,450,470,491,510,530,550,569,590,610,630],"xSR":741.5,"ySR":573.95,"xT1":424.9,"yT1":0,"xT2":1058.1,"yT2":0,"toosoon":0,"cond_shown":"Incongruent","ratio_trial":100,"L_num":13,"L_den":26,"R_num":12,"R_den":20,"correct_side":2,"subjID":"valentinagutierrezguerrero4","gender":"1","school":"4","age":"9"},{"start_time":1552073356099,"click_time":1552073356792,"finger_time":1552073356392,"fix_duration":706.4914634753803,"trial":22,"RT":293,"MT":400,"sideResp":2,"stimulus":[],"xmouse":[805,805,805,805,805,805,805,805,805,805,805,805,819,829,888,951,992,1023,1053,1069,1078,1079,1080,1081,1081,1095,1107,1117,1122,1122,1122,1122,1122,1123,1126],"ymouse":[603,603,603,603,603,603,603,603,602,602,602,602,590,583,538,475,412,354,289,230,170,166,163,161,161,141,126,113,106,105,105,105,104,101,92],"timestamp_mouse":[12,38,52,73,93,112,132,152,173,192,212,232,253,272,293,311,332,352,372,392,413,433,452,472,492,513,532,552,573,592,612,631,653,672,693],"xSR":741.5,"ySR":573.95,"xT1":424.9,"yT1":0,"xT2":1058.1,"yT2":0,"toosoon":0,"cond_shown":"Congruent","ratio_trial":200,"L_num":8,"L_den":15,"R_num":7,"R_den":21,"correct_side":1,"subjID":"valentinagutierrezguerrero4","gender":"1","school":"4","age":"9"},{"start_time":1552073370085,"click_time":1552073370791,"finger_time":1552073370431,"fix_duration":1291.8495532276465,"trial":23,"RT":346,"MT":360,"sideResp":2,"stimulus":[],"xmouse":[774,774,774,774,774,774,774,774,774,774,774,774,774,774,774,774,787,832,875,930,1024,1087,1224,1287,1329,1354,1364,1369,1369,1369,1349,1302,1182,1147,1121,1108],"ymouse":[599,599,599,599,599,599,599,599,599,599,599,599,599,599,599,599,583,524,473,430,375,340,242,183,147,126,113,97,89,73,25,0,0,0,0,2],"timestamp_mouse":[12,26,47,65,86,106,126,146,166,186,206,226,246,266,286,306,326,346,366,386,406,426,446,466,486,507,526,546,567,586,606,626,646,666,686,706],"xSR":741.5,"ySR":573.95,"xT1":424.9,"yT1":0,"xT2":1058.1,"yT2":0,"toosoon":0,"cond_shown":"Congruent","ratio_trial":100,"L_num":9,"L_den":15,"R_num":8,"R_den":16,"correct_side":1,"subjID":"valentinagutierrezguerrero4","gender":"1","school":"4","age":"9"},{"start_time":1552073372738,"click_time":1552073373432,"finger_time":1552073373051,"fix_duration":685.9820134463882,"trial":24,"RT":313,"MT":381,"sideResp":1,"stimulus":[],"xmouse":[778,778,778,778,778,778,778,778,778,778,778,778,778,778,778,776,764,741,715,667,642,613,587,574,571,570,570,568,565,535,522,516,514,513,508],"ymouse":[582,582,582,582,582,582,582,582,582,582,582,582,582,582,582,570,498,396,292,149,92,30,0,0,0,0,0,0,0,0,0,0,0,0,2],"timestamp_mouse":[13,39,53,73,93,114,133,153,173,193,213,232,253,273,293,313,333,353,374,394,413,433,453,473,493,513,533,554,573,595,613,633,653,672,694],"xSR":741.5,"ySR":573.95,"xT1":424.9,"yT1":0,"xT2":1058.1,"yT2":0,"toosoon":0,"cond_shown":"Incongruent","ratio_trial":100,"L_num":2,"L_den":4,"R_num":6,"R_den":15,"correct_side":1,"subjID":"valentinagutierrezguerrero4","gender":"1","school":"4","age":"9"},{"start_time":1552073375004,"click_time":1552073376111,"finger_time":1552073375250,"fix_duration":250,"trial":25,"RT":246,"MT":861,"sideResp":2,"stimulus":[],"xmouse":[769,769,769,769,771,772,775,779,780,781,782,782,786,794,808,826,860,965,1008,1040,1089,1115,1139,1141,1142,1142,1143,1168,1185,1211,1216,1224,1201,1159,1111,1067,1053,1050,1049,1049,1058,1071,1083,1084,1084,1084,1084,1084,1084,1089,1101,1112,1133,1139,1143,1145],"ymouse":[581,581,581,581,581,581,581,580,578,577,575,574,563,548,525,494,453,352,316,287,250,230,211,208,206,206,205,187,171,135,122,84,23,0,0,0,0,0,11,34,85,126,164,166,166,166,166,166,167,167,162,153,129,115,102,90],"timestamp_mouse":[8,34,47,67,88,107,127,147,168,187,207,227,246,268,287,307,328,347,366,388,407,427,447,467,487,507,527,546,568,586,607,626,647,667,689,707,727,747,767,787,807,827,846,867,887,907,927,947,967,987,1007,1027,1047,1068,1087,1107],"xSR":741.5,"ySR":573.95,"xT1":424.9,"yT1":0,"xT2":1058.1,"yT2":0,"toosoon":0,"cond_shown":"Incongruent","ratio_trial":300,"L_num":7,"L_den":10,"R_num":8,"R_den":20,"correct_side":1,"subjID":"valentinagutierrezguerrero4","gender":"1","school":"4","age":"9"},{"start_time":1552073388251,"click_time":1552073388791,"finger_time":1552073388292,"fix_duration":377.05654067326975,"trial":26,"RT":41,"MT":499,"sideResp":1,"stimulus":[],"xmouse":[770,774,779,776,773,773,773,773,774,776,776,776,776,776,776,776,776,776,778,782,785,790,787,766,726,669,550,504],"ymouse":[600,590,495,466,444,432,422,420,419,414,412,408,408,408,408,408,408,408,403,395,383,349,318,282,225,173,64,38],"timestamp_mouse":[1,21,41,60,81,100,119,141,160,180,200,220,240,260,281,300,320,340,360,381,400,420,440,460,480,501,520,540],"xSR":741.5,"ySR":573.95,"xT1":424.9,"yT1":0,"xT2":1058.1,"yT2":0,"toosoon":0,"cond_shown":"Congruent","ratio_trial":200,"L_num":7,"L_den":15,"R_num":18,"R_den":27,"correct_side":2,"subjID":"valentinagutierrezguerrero4","gender":"1","school":"4","age":"9"},{"start_time":1552073392381,"click_time":1552073415012,"finger_time":1552073393491,"fix_duration":1188.5643359983314,"trial":27,"RT":1110,"MT":21521,"sideResp":1,"stimulus":[],"xmouse":[796,796,796,796,796,796,796,796,795,795,794,793,793,793,793,793,793,792,791,790,790,789,789,789,789,789,790,790,790,790,790,790,790,790,790,790,789,787,786,784,784,784,784,784,784,784,784,784,784,781,777,769,759,750,743,740,740,740,740,740,740,740,740,740,740,740,740,740,740,740,740,740,740,740,740,740,740,740,740,740,740,740,740,740,740,740,740,740,740,740,740,740,740,740,740,740,740,740,740,740,740,740,740,740,740,740,740,740,740,740,740,740,740,740,740,740,740,740,740,740,740,740,740,740,740,740,740,740,740,740,740,740,740,740,740,740,740,740,740,740,740,740,740,740,740,740,740,740,740,740,740,740,740,740,740,740,740,740,740,741,742,742,743,743,743,744,745,745,745,745,745,745,745,745,745,745,745,745,745,745,745,745,745,745,745,745,745,745,745,745,745,745,745,745,745,745,745,745,745,745,745,745,745,745,745,745,745,745,745,745,745,745,745,745,745,745,745,745,745,745,745,745,745,745,745,745,745,745,745,745,745,745,745,745,745,745,745,745,745,745,745,745,745,745,745,745,745,745,745,745,745,745,745,745,745,745,745,745,745,745,745,745,745,745,745,745,745,745,745,745,745,745,745,745,745,745,745,745,745,745,745,745,745,745,745,745,745,745,745,745,745,745,745,745,745,745,745,745,745,745,745,745,745,745,745,745,745,745,745,745,745,745,745,745,745,745,745,745,745,745,745,745,745,745,745,745,745,745,745,745,745,745,745,745,745,745,745,745,745,745,745,745,745,745,745,745,745,745,745,745,745,745,745,745,745,745,745,745,745,745,745,745,745,745,745,745,745,745,745,745,745,745,745,745,745,745,745,745,745,745,745,745,745,745,745,745,745,745,745,745,745,745,745,745,745,745,745,745,745,745,745,745,745,745,745,745,745,745,745,745,745,745,745,745,745,745,745,745,745,745,745,745,745,745,745,745,745,745,745,745,745,745,745,745,745,745,745,745,745,745,745,745,745,745,745,745,745,745,745,745,745,745,745,745,745,745,745,745,745,745,745,745,745,745,745,745,745,745,745,745,745,745,745,745,745,745,745,745,745,745,745,745,745,745,745,745,745,745,745,745,745,745,745,745,745,745,745,745,745,745,745,745,745,745,745,745,745,745,745,745,745,745,745,745,745,745,745,745,745,745,745,745,745,745,745,745,745,745,745,745,745,745,745,745,745,745,745,745,745,745,745,745,745,745,745,745,745,745,745,745,745,745,745,745,745,745,745,745,745,745,745,745,745,745,745,745,745,745,745,745,745,745,745,745,745,745,745,745,745,745,745,745,745,745,745,745,745,745,745,745,745,745,745,745,745,745,745,745,745,745,745,745,745,745,745,745,745,745,745,745,745,745,745,745,745,745,745,745,745,745,745,745,745,745,745,745,745,745,745,745,745,745,745,745,745,745,745,745,745,745,745,745,745,745,745,745,745,745,745,745,745,745,745,745,745,745,745,745,745,745,745,745,745,745,745,745,745,745,745,745,745,745,745,745,745,745,745,745,745,745,745,745,745,745,745,745,745,745,745,745,745,745,745,745,745,745,745,745,745,745,745,745,745,745,745,745,745,745,745,745,745,745,745,745,745,745,745,745,745,745,745,745,745,745,745,745,745,745,745,745,745,745,745,745,745,745,745,745,745,745,745,745,745,745,745,745,745,745,745,745,745,745,745,745,745,745,745,745,745,745,745,745,745,745,745,745,745,745,745,745,745,745,745,745,745,745,745,745,745,745,745,745,745,745,745,745,745,745,745,745,745,745,745,745,745,745,745,745,745,745,745,745,745,745,745,745,745,745,745,745,745,745,745,745,745,745,745,745,745,745,745,745,745,745,745,745,745,745,745,745,745,745,745,745,745,745,745,745,745,745,745,745,745,745,745,745,745,745,745,745,745,745,745,745,745,745,745,745,745,745,745,745,745,745,745,745,745,745,745,745,745,745,745,745,745,745,745,745,745,745,745,745,745,745,745,745,745,745,745,745,745,745,745,745,745,745,745,745,745,745,745,745,745,745,745,745,745,745,745,745,745,745,745,745,745,745,745,745,745,745,745,745,745,745,745,745,745,745,745,745,745,745,745,745,745,745,745,745,745,745,745,745,745,745,745,745,745,745,745,745,745,745,745,745,745,745,745,745,745,745,745,745,745,745,745,745,745,745,745,745,745,745,745,745,745,745,745,745,745,745,745,745,745,745,745,745,745,745,745,745,745,745,745,745,745,745,745,745,745,745,745,745,745,745,745,745,745,745,745,745,745,745,745,745,745,745,745,745,745,745,745,745,745,745,745,745,745,745,745,745,745,745,745,745,745,745,745,745,745,745,745,745,745,745,745,745,745,745,745,745,745,745,745,745,745,745,745,745,745,745,745,745,745,745,745,745,745,745,745,745,745,745,745,745,745,745,745,745,745,745,745,745,745,745,745,745,745,745,745,745,745,745,745,745,745,745,745,745,745,745,745,745,745,745,745,745,745,745,745,745,745,745,745,746,764,772,772,773,773,773,773,773,762,691,650,649,649,648,650,597,517,439],"ymouse":[639,637,635,633,633,633,633,633,632,632,631,629,629,629,629,629,629,628,628,628,627,627,627,627,626,623,621,619,618,617,617,617,617,616,615,613,613,613,613,613,613,613,613,613,613,613,613,613,613,612,611,607,604,600,596,594,594,594,594,594,594,594,594,594,593,588,585,584,582,581,580,579,578,577,576,575,575,575,575,575,575,575,575,575,575,575,575,575,575,575,575,575,575,575,575,575,575,575,575,575,575,575,575,575,575,575,575,575,575,575,575,575,575,575,575,575,575,575,575,575,575,575,575,575,575,575,575,575,575,575,575,575,575,575,575,575,575,575,575,575,575,575,575,575,575,575,575,575,575,575,575,575,575,575,575,575,575,575,574,574,572,571,570,569,569,569,568,568,568,568,568,568,568,568,568,568,568,568,568,568,568,568,568,568,568,568,568,568,568,568,568,568,568,568,568,568,568,568,568,568,568,568,568,568,568,568,568,568,568,568,568,568,568,568,568,568,568,568,568,568,568,568,568,568,568,568,568,568,568,568,568,568,568,568,568,567,567,567,567,567,567,567,567,567,567,567,567,567,567,567,567,567,567,567,567,567,567,567,567,567,567,567,567,567,567,567,567,567,567,567,567,567,567,567,567,567,567,567,567,567,567,567,567,567,567,567,567,567,567,567,567,567,567,567,567,567,567,567,567,567,567,567,567,567,567,567,567,567,567,567,567,567,567,567,567,567,567,567,567,567,567,567,567,567,567,567,567,567,567,567,567,567,567,567,567,567,567,567,567,567,567,567,567,567,567,567,567,567,567,567,567,567,567,567,567,567,567,567,567,567,567,567,567,567,567,567,567,567,567,567,567,567,567,567,567,567,567,567,567,567,567,567,567,567,567,567,567,567,567,567,567,567,567,567,567,567,567,567,567,567,567,567,567,567,567,567,567,567,567,567,567,567,567,567,567,567,567,567,567,567,567,567,567,567,567,567,567,567,567,567,567,567,567,567,567,567,567,567,567,567,567,567,567,567,567,567,567,567,567,567,567,567,567,567,567,567,567,567,567,567,567,567,567,567,567,567,567,567,567,567,567,567,567,567,567,567,567,567,567,567,567,567,567,567,567,567,567,567,567,567,567,567,567,567,567,567,567,567,567,567,567,567,567,567,567,567,567,567,567,567,567,567,567,567,567,567,567,567,567,567,567,567,567,567,567,567,567,567,567,567,567,567,567,567,567,567,567,567,567,567,567,567,567,567,567,567,567,567,567,567,567,567,567,567,567,567,567,567,567,567,567,567,567,567,567,567,567,567,567,567,567,567,567,567,567,567,567,567,567,567,567,567,567,567,567,567,567,567,567,567,567,567,567,567,567,567,567,567,567,567,567,567,567,567,567,567,567,567,567,567,567,567,567,567,567,567,567,567,567,567,567,567,567,567,567,567,567,567,567,567,567,567,567,567,567,567,567,567,567,567,567,567,567,567,567,567,567,567,567,567,567,567,567,567,567,567,567,567,567,567,567,567,567,567,567,567,567,567,567,567,567,567,567,567,567,567,567,567,567,567,567,567,567,567,567,567,567,567,567,567,567,567,567,567,567,567,567,567,567,567,567,567,567,567,567,567,567,567,567,567,567,567,567,567,567,567,567,567,567,567,567,567,567,567,567,567,567,567,567,567,567,567,567,567,567,567,567,567,567,567,567,567,567,567,567,567,567,567,567,567,567,567,567,567,567,567,567,567,567,567,567,567,567,567,567,567,567,567,567,567,567,567,567,567,567,567,567,567,567,567,567,567,567,567,567,567,567,567,567,567,567,567,567,567,567,567,567,567,567,567,567,567,567,567,567,567,567,567,567,567,567,567,567,567,567,567,567,567,567,567,567,567,567,567,567,567,567,567,567,567,567,567,567,567,567,567,567,567,567,567,567,567,567,567,567,567,567,567,567,567,567,567,567,567,567,567,567,567,567,567,567,567,567,567,567,567,567,567,567,567,567,567,567,567,567,567,567,567,567,567,567,567,567,567,567,567,567,567,567,567,567,567,567,567,567,567,567,567,567,567,567,567,567,567,567,567,567,567,567,567,567,567,567,567,567,567,567,567,567,567,567,567,567,567,567,567,567,567,567,567,567,567,567,567,567,567,567,567,567,567,567,567,567,567,567,567,567,567,567,567,567,567,567,567,567,567,567,567,567,567,567,567,567,567,567,567,567,567,567,567,567,567,567,567,567,567,567,567,567,567,567,567,567,567,567,567,567,567,567,567,567,567,567,567,567,567,567,567,567,567,567,567,567,567,567,567,567,567,567,567,567,567,567,567,567,567,567,567,567,567,567,567,567,567,567,567,567,567,567,567,567,567,567,567,567,567,567,567,567,567,567,567,567,567,567,567,567,567,567,567,567,567,567,567,567,567,567,567,567,567,567,567,567,567,567,567,567,567,567,567,567,567,567,567,567,567,567,567,567,567,567,567,567,567,567,567,567,567,567,567,567,567,567,567,567,567,567,567,567,567,567,567,567,567,567,567,567,567,567,567,567,567,567,566,562,562,562,562,562,562,562,562,556,496,453,451,451,448,407,285,171,87],"timestamp_mouse":[21,39,50,70,90,110,131,150,170,190,210,230,250,270,291,310,330,351,370,390,410,430,450,470,490,510,530,551,570,590,610,630,650,670,690,710,730,750,771,790,811,830,850,870,890,910,930,951,970,990,1009,1030,1051,1070,1091,1110,1130,1150,1170,1190,1210,1230,1250,1270,1290,1310,1330,1350,1370,1390,1410,1430,1451,1470,1491,1511,1530,1551,1570,1590,1610,1630,1650,1670,1691,1709,1730,1751,1770,1790,1810,1830,1850,1871,1891,1910,1931,1950,1970,1990,2011,2030,2050,2070,2090,2110,2130,2150,2170,2190,2210,2230,2250,2270,2290,2310,2330,2350,2370,2390,2410,2430,2450,2470,2490,2510,2530,2551,2571,2590,2611,2630,2650,2671,2690,2710,2730,2750,2770,2790,2810,2830,2850,2871,2891,2910,2930,2950,2970,2990,3010,3030,3051,3070,3090,3111,3131,3150,3170,3190,3210,3231,3250,3271,3290,3309,3330,3350,3370,3390,3410,3430,3450,3470,3490,3510,3530,3550,3570,3590,3610,3630,3650,3670,3690,3710,3730,3750,3770,3790,3810,3830,3850,3871,3891,3911,3931,3951,3970,3990,4010,4030,4050,4070,4090,4110,4131,4150,4170,4190,4211,4230,4250,4270,4290,4310,4330,4350,4370,4390,4410,4429,4450,4470,4491,4510,4531,4550,4570,4590,4610,4630,4650,4670,4690,4710,4730,4750,4770,4790,4810,4830,4851,4870,4891,4911,4930,4951,4970,4990,5010,5030,5050,5070,5091,5111,5131,5151,5170,5190,5211,5230,5250,5270,5291,5310,5330,5350,5370,5390,5411,5429,5450,5471,5491,5510,5531,5551,5570,5590,5611,5631,5650,5670,5690,5711,5731,5750,5770,5791,5810,5831,5850,5870,5890,5911,5930,5951,5970,5991,6011,6031,6050,6069,6091,6111,6131,6150,6170,6190,6211,6231,6250,6270,6290,6311,6331,6350,6370,6390,6411,6430,6450,6470,6490,6511,6531,6551,6570,6590,6610,6630,6650,6670,6690,6711,6730,6751,6770,6790,6811,6830,6851,6870,6890,6911,6930,6950,6971,6989,7010,7030,7050,7070,7091,7111,7130,7150,7171,7191,7210,7231,7250,7270,7290,7311,7329,7350,7370,7390,7411,7430,7450,7471,7490,7511,7530,7550,7570,7590,7610,7630,7650,7671,7690,7710,7730,7751,7770,7791,7810,7830,7850,7870,7890,7910,7930,7950,7970,7990,8011,8030,8050,8070,8090,8110,8130,8150,8170,8190,8210,8230,8251,8270,8290,8310,8330,8351,8370,8390,8411,8430,8450,8470,8491,8510,8530,8551,8570,8590,8611,8631,8650,8670,8690,8710,8731,8750,8770,8790,8811,8831,8850,8871,8890,8909,8930,8951,8970,8990,9010,9031,9050,9070,9090,9110,9131,9150,9170,9190,9210,9231,9251,9270,9290,9311,9330,9350,9370,9390,9410,9430,9450,9470,9490,9510,9530,9550,9570,9590,9610,9631,9650,9670,9690,9711,9730,9750,9770,9790,9810,9830,9850,9870,9891,9910,9931,9950,9971,9990,10010,10031,10050,10070,10090,10110,10130,10151,10170,10191,10210,10230,10250,10270,10291,10310,10330,10351,10371,10391,10410,10430,10450,10469,10490,10510,10530,10550,10570,10590,10610,10630,10650,10671,10690,10710,10730,10750,10770,10790,10810,10831,10850,10870,10890,10910,10930,10951,10970,10990,11010,11030,11050,11070,11090,11110,11130,11150,11170,11190,11211,11230,11251,11270,11289,11310,11330,11351,11371,11390,11410,11431,11450,11470,11490,11510,11530,11549,11570,11590,11610,11630,11650,11670,11690,11710,11729,11750,11771,11790,11810,11830,11851,11871,11890,11911,11930,11951,11971,11990,12010,12030,12050,12070,12091,12110,12130,12150,12170,12190,12210,12230,12250,12270,12289,12310,12330,12351,12369,12390,12410,12430,12450,12470,12490,12511,12531,12550,12571,12590,12610,12630,12650,12670,12690,12710,12731,12750,12770,12790,12810,12830,12850,12870,12890,12910,12931,12951,12971,12990,13010,13030,13050,13070,13090,13109,13130,13150,13170,13190,13210,13230,13251,13271,13290,13310,13330,13350,13370,13390,13411,13430,13450,13470,13490,13511,13530,13549,13570,13590,13611,13630,13650,13670,13691,13710,13730,13750,13770,13790,13810,13830,13850,13871,13890,13910,13930,13950,13971,13991,14011,14030,14051,14070,14091,14110,14130,14151,14170,14191,14210,14230,14250,14270,14290,14310,14331,14350,14371,14390,14410,14431,14450,14469,14490,14510,14530,14550,14570,14591,14611,14630,14651,14670,14691,14710,14731,14750,14770,14790,14810,14830,14851,14870,14891,14910,14930,14950,14970,14991,15009,15031,15050,15070,15090,15110,15131,15150,15171,15191,15210,15230,15250,15270,15290,15311,15330,15350,15370,15390,15410,15430,15450,15470,15490,15511,15531,15550,15571,15589,15610,15631,15651,15670,15690,15710,15731,15749,15770,15790,15810,15830,15850,15870,15890,15910,15931,15951,15970,15990,16010,16030,16051,16070,16090,16110,16130,16151,16171,16190,16210,16231,16250,16270,16290,16310,16331,16350,16371,16391,16410,16430,16451,16471,16491,16510,16530,16551,16570,16590,16610,16630,16650,16670,16690,16710,16731,16750,16771,16790,16810,16830,16850,16871,16891,16910,16931,16949,16970,16990,17010,17030,17050,17070,17090,17111,17131,17150,17171,17190,17211,17230,17251,17269,17290,17311,17331,17350,17370,17390,17411,17430,17450,17470,17490,17509,17531,17550,17571,17590,17610,17630,17650,17670,17691,17710,17730,17750,17771,17790,17811,17830,17850,17870,17890,17910,17930,17950,17971,17991,18010,18030,18050,18070,18091,18110,18130,18150,18171,18190,18210,18230,18251,18270,18290,18310,18330,18350,18370,18390,18410,18430,18450,18470,18490,18510,18530,18550,18571,18590,18610,18630,18650,18670,18691,18710,18730,18750,18770,18790,18810,18831,18850,18870,18890,18910,18931,18950,18970,18990,19011,19030,19051,19070,19090,19110,19130,19151,19169,19190,19210,19230,19250,19270,19290,19311,19330,19351,19371,19389,19411,19431,19449,19470,19490,19510,19531,19550,19570,19590,19610,19630,19650,19670,19690,19710,19730,19750,19770,19790,19810,19830,19850,19870,19890,19910,19930,19951,19970,19991,20010,20031,20050,20071,20090,20109,20130,20150,20170,20191,20210,20230,20250,20270,20290,20310,20330,20350,20370,20390,20410,20431,20450,20471,20490,20511,20530,20551,20570,20590,20610,20629,20650,20669,20691,20710,20730,20750,20771,20790,20810,20830,20850,20870,20891,20911,20930,20950,20970,20990,21011,21030,21051,21070,21090,21110,21129,21150,21171,21190,21210,21230,21250,21270,21290,21310,21331,21350,21370,21390,21410,21430,21451,21472,21490,21510,21530,21550,21571,21591,21610,21630,21650,21671,21691,21711,21731,21751,21771,21790,21811,21831,21850,21870,21890,21911,21931,21951,21971,21990,22011,22030,22051,22071,22090,22110,22130,22151,22170,22191,22211,22231,22251,22271,22291,22311,22331,22350,22371,22390,22410,22431,22450,22470,22490,22510,22530,22550,22570,22591,22611,22630],"xSR":741.5,"ySR":573.95,"xT1":424.9,"yT1":0,"xT2":1058.1,"yT2":0,"toosoon":0,"cond_shown":"Incongruent","ratio_trial":300,"L_num":13,"L_den":26,"R_num":12,"R_den":15,"correct_side":2,"subjID":"valentinagutierrezguerrero4","gender":"1","school":"4","age":"9"},{"start_time":1552073416623,"click_time":1552073417153,"finger_time":1552073416952,"fix_duration":250,"trial":28,"RT":329,"MT":201,"sideResp":2,"stimulus":[],"xmouse":[811,811,812,812,812,812,812,812,812,812,812,812,812,812,812,821,902,972,1039,1115,1134,1151,1151,1151,1151,1151,1150],"ymouse":[630,630,628,628,628,628,628,628,628,628,628,628,628,627,624,603,415,217,0,0,0,0,0,0,0,0,1],"timestamp_mouse":[12,38,49,68,88,108,128,148,168,188,208,229,250,269,289,308,329,350,369,388,409,429,448,468,489,510,529],"xSR":741.5,"ySR":573.95,"xT1":424.9,"yT1":0,"xT2":1058.1,"yT2":0,"toosoon":0,"cond_shown":"Incongruent","ratio_trial":200,"L_num":14,"L_den":30,"R_num":6,"R_den":9,"correct_side":2,"subjID":"valentinagutierrezguerrero4","gender":"1","school":"4","age":"9"},{"start_time":1552073431936,"click_time":1552073432471,"finger_time":1552073432252,"fix_duration":1403.851286927376,"trial":29,"RT":316,"MT":219,"sideResp":2,"stimulus":[],"xmouse":[777,777,777,777,777,777,777,777,777,777,777,777,777,777,784,810,929,1013,1129,1161,1171,1173,1173,1173,1170,1163,1146],"ymouse":[601,601,601,601,601,601,601,601,601,601,601,601,601,599,591,560,374,195,0,0,0,0,0,0,0,2,11],"timestamp_mouse":[16,36,56,76,95,116,135,155,175,195,215,235,255,275,296,316,336,356,376,396,415,436,455,475,495,516,535],"xSR":741.5,"ySR":573.95,"xT1":424.9,"yT1":0,"xT2":1058.1,"yT2":0,"toosoon":0,"cond_shown":"Incongruent","ratio_trial":200,"L_num":7,"L_den":15,"R_num":6,"R_den":9,"correct_side":2,"subjID":"valentinagutierrezguerrero4","gender":"1","school":"4","age":"9"},{"start_time":1552073436356,"click_time":1552073437031,"finger_time":1552073436712,"fix_duration":1023.8033971364273,"trial":30,"RT":356,"MT":319,"sideResp":2,"stimulus":[],"xmouse":[825,825,825,825,825,825,825,825,825,825,825,825,825,825,825,825,829,853,892,947,998,1046,1056,1080,1113,1134,1143,1144,1144,1144,1144,1144,1143,1136],"ymouse":[625,625,625,625,625,625,625,625,625,625,625,625,625,625,625,625,617,556,462,331,200,52,29,0,0,0,0,0,0,0,0,0,0,10],"timestamp_mouse":[16,36,56,75,96,116,135,155,175,196,215,235,256,276,295,315,335,356,376,396,416,435,456,477,495,516,536,555,575,597,616,636,656,675],"xSR":741.5,"ySR":573.95,"xT1":424.9,"yT1":0,"xT2":1058.1,"yT2":0,"toosoon":0,"cond_shown":"Incongruent","ratio_trial":300,"L_num":7,"L_den":10,"R_num":8,"R_den":20,"correct_side":1,"subjID":"valentinagutierrezguerrero4","gender":"1","school":"4","age":"9"},{"start_time":1552073439082,"click_time":1552073439472,"finger_time":1552073439432,"fix_duration":1089.2208980436415,"trial":31,"RT":350,"MT":40,"sideResp":2,"stimulus":[],"xmouse":[815,815,815,815,815,815,815,815,815,815,815,815,815,815,815,815,827,864,1029,1148],"ymouse":[619,619,619,619,619,619,619,619,619,619,619,619,619,619,619,619,604,550,294,80],"timestamp_mouse":[12,39,49,71,89,109,130,150,170,189,209,229,249,270,290,309,329,350,370,389],"xSR":741.5,"ySR":573.95,"xT1":424.9,"yT1":0,"xT2":1058.1,"yT2":0,"toosoon":0,"cond_shown":"Congruent","ratio_trial":100,"L_num":3,"L_den":20,"R_num":4,"R_den":16,"correct_side":2,"subjID":"valentinagutierrezguerrero4","gender":"1","school":"4","age":"9"},{"start_time":1552073441006,"click_time":1552073441952,"finger_time":1552073441291,"fix_duration":413.94823555616466,"trial":32,"RT":285,"MT":661,"sideResp":2,"stimulus":[],"xmouse":[781,781,781,781,781,781,781,781,783,785,785,785,785,786,825,896,1001,1119,1226,1310,1392,1395,1395,1395,1395,1395,1395,1395,1394,1357,1335,1317,1301,1289,1277,1258,1246,1237,1234,1234,1232,1228,1223,1215,1193,1181,1165,1139],"ymouse":[636,636,636,636,636,636,636,636,632,630,628,628,628,628,562,444,298,127,0,0,0,0,0,0,0,0,0,0,0,21,29,35,39,43,47,57,63,66,68,68,68,68,68,68,68,68,68,68],"timestamp_mouse":[9,31,45,66,85,106,126,146,165,185,205,225,245,266,285,305,325,346,365,388,406,425,445,465,486,506,525,545,566,589,605,625,645,665,686,706,726,746,766,786,806,827,845,866,887,905,927,946],"xSR":741.5,"ySR":573.95,"xT1":424.9,"yT1":0,"xT2":1058.1,"yT2":0,"toosoon":0,"cond_shown":"Incongruent","ratio_trial":100,"L_num":9,"L_den":10,"R_num":20,"R_den":25,"correct_side":1,"subjID":"valentinagutierrezguerrero4","gender":"1","school":"4","age":"9"},{"start_time":1552073444066,"click_time":1552073444631,"finger_time":1552073444272,"fix_duration":773.1083906415294,"trial":33,"RT":206,"MT":359,"sideResp":1,"stimulus":[],"xmouse":[798,798,798,798,798,798,797,788,781,773,760,746,717,710,705,702,696,683,670,648,624,606,586,584,582,580,575,535,521],"ymouse":[647,647,647,647,647,646,643,615,598,579,548,494,363,299,235,176,125,85,64,30,0,0,0,0,0,0,0,6,13],"timestamp_mouse":[12,25,45,65,86,105,126,145,165,186,206,225,245,266,287,306,326,345,366,386,406,427,446,466,486,505,526,546,565],"xSR":741.5,"ySR":573.95,"xT1":424.9,"yT1":0,"xT2":1058.1,"yT2":0,"toosoon":0,"cond_shown":"Congruent","ratio_trial":100,"L_num":3,"L_den":6,"R_num":2,"R_den":5,"correct_side":1,"subjID":"valentinagutierrezguerrero4","gender":"1","school":"4","age":"9"},{"start_time":1552073446705,"click_time":1552073446953,"finger_time":1552073446871,"fix_duration":1090.6415279929379,"trial":34,"RT":166,"MT":82,"sideResp":2,"stimulus":[],"xmouse":[772,772,772,772,772,772,772,785,827,886,987,1033,1081],"ymouse":[660,660,660,660,660,660,660,641,565,455,234,126,11],"timestamp_mouse":[12,35,46,67,86,107,127,147,166,186,206,226,248],"xSR":741.5,"ySR":573.95,"xT1":424.9,"yT1":0,"xT2":1058.1,"yT2":0,"toosoon":0,"cond_shown":"Incongruent","ratio_trial":200,"L_num":7,"L_den":10,"R_num":14,"R_den":28,"correct_side":1,"subjID":"valentinagutierrezguerrero4","gender":"1","school":"4","age":"9"},{"start_time":1552073449358,"click_time":1552073450413,"finger_time":1552073449711,"fix_duration":1146.10272247222,"trial":35,"RT":353,"MT":702,"sideResp":2,"stimulus":[],"xmouse":[809,809,809,809,809,809,809,809,809,809,809,809,809,809,809,809,832,871,1064,1203,1273,1312,1332,1341,1341,1341,1341,1341,1341,1341,1339,1334,1318,1304,1289,1273,1251,1229,1160,1134,1112,1098,1072,1060,1044,1030,1020,1017,1017,1017,1021,1036,1091],"ymouse":[629,629,629,629,629,629,629,629,629,629,629,629,629,629,629,629,588,516,114,0,0,0,0,0,0,0,0,0,0,0,0,3,11,21,33,47,65,81,112,118,125,129,135,135,135,135,133,133,133,132,128,113,57],"timestamp_mouse":[14,34,53,73,93,114,133,153,175,194,213,233,253,274,294,314,334,353,373,394,413,434,454,474,493,513,533,554,574,594,613,634,653,673,695,714,733,754,773,793,813,833,855,873,893,914,933,955,973,994,1014,1034,1055],"xSR":741.5,"ySR":573.95,"xT1":424.9,"yT1":0,"xT2":1058.1,"yT2":0,"toosoon":0,"cond_shown":"Incongruent","ratio_trial":100,"L_num":2,"L_den":4,"R_num":8,"R_den":20,"correct_side":1,"subjID":"valentinagutierrezguerrero4","gender":"1","school":"4","age":"9"},{"start_time":1552073451914,"click_time":1552073452831,"finger_time":1552073452251,"fix_duration":341.51338316927183,"trial":36,"RT":337,"MT":580,"sideResp":1,"stimulus":[],"xmouse":[779,779,779,779,779,779,779,779,779,779,779,779,777,775,771,765,763,760,756,749,732,707,662,613,582,548,546,546,546,546,545,544,544,544,550,593,613,617,616,611,607,603,596,580,557,517],"ymouse":[642,642,642,642,642,642,642,642,642,642,642,642,639,631,618,575,551,524,497,457,405,378,350,328,312,289,284,283,281,264,203,172,148,133,115,40,0,0,0,0,0,0,3,12,23,38],"timestamp_mouse":[30,39,58,78,97,117,137,157,178,198,217,238,258,279,298,318,337,358,377,399,418,437,458,479,497,518,538,558,577,598,617,638,658,678,697,718,738,757,777,797,817,837,857,878,898,917],"xSR":741.5,"ySR":573.95,"xT1":424.9,"yT1":0,"xT2":1058.1,"yT2":0,"toosoon":0,"cond_shown":"Incongruent","ratio_trial":200,"L_num":4,"L_den":5,"R_num":6,"R_den":10,"correct_side":1,"subjID":"valentinagutierrezguerrero4","gender":"1","school":"4","age":"9"},{"start_time":1552073455437,"click_time":1552073456232,"finger_time":1552073455831,"fix_duration":904.0493468818552,"trial":37,"RT":394,"MT":401,"sideResp":2,"stimulus":[],"xmouse":[747,747,747,747,747,747,747,747,747,747,747,747,748,756,769,775,784,793,803,829,860,906,994,1057,1150,1170,1183,1189,1195,1212,1218,1220,1220,1220,1220,1217,1204,1185,1162,1121],"ymouse":[622,622,622,622,622,622,622,622,622,622,622,622,621,618,615,612,605,596,587,541,486,403,243,126,0,0,0,0,0,0,0,0,0,0,0,0,4,13,27,52],"timestamp_mouse":[14,41,55,75,94,115,135,154,174,195,215,235,255,275,294,315,335,354,375,394,416,435,455,475,494,514,535,554,574,594,614,634,655,674,695,714,735,754,774,795],"xSR":741.5,"ySR":573.95,"xT1":424.9,"yT1":0,"xT2":1058.1,"yT2":0,"toosoon":0,"cond_shown":"Congruent","ratio_trial":100,"L_num":11,"L_den":22,"R_num":4,"R_den":10,"correct_side":1,"subjID":"valentinagutierrezguerrero4","gender":"1","school":"4","age":"9"},{"start_time":1552073457755,"click_time":1552073458412,"finger_time":1552073458092,"fix_duration":261.50188732688093,"trial":38,"RT":337,"MT":320,"sideResp":1,"stimulus":[],"xmouse":[813,813,813,813,813,813,813,813,813,813,813,813,813,813,813,812,803,784,760,662,618,597,588,586,585,581,573,566,562,562,561,547,516],"ymouse":[600,600,600,600,600,600,600,600,600,600,600,600,600,600,600,593,504,358,196,0,0,0,0,0,0,0,0,0,0,0,0,4,15],"timestamp_mouse":[17,38,56,76,96,116,136,157,176,196,217,236,257,276,296,317,337,357,376,397,416,436,457,476,496,516,536,557,578,596,616,637,656],"xSR":741.5,"ySR":573.95,"xT1":424.9,"yT1":0,"xT2":1058.1,"yT2":0,"toosoon":0,"cond_shown":"Congruent","ratio_trial":200,"L_num":8,"L_den":15,"R_num":3,"R_den":9,"correct_side":1,"subjID":"valentinagutierrezguerrero4","gender":"1","school":"4","age":"9"},{"start_time":1552073460987,"click_time":1552073461611,"finger_time":1552073461272,"fix_duration":1434.442566340786,"trial":39,"RT":285,"MT":339,"sideResp":2,"stimulus":[],"xmouse":[777,777,777,777,777,777,777,777,777,777,777,777,779,823,888,922,994,1079,1223,1232,1233,1233,1233,1233,1233,1234,1233,1230,1206,1182,1171,1153],"ymouse":[611,611,611,611,611,611,611,611,611,611,611,611,611,575,515,480,401,290,46,24,13,4,0,0,0,0,0,0,0,1,7,22],"timestamp_mouse":[9,24,44,64,85,104,124,146,165,184,204,224,245,265,285,304,324,344,365,385,405,424,445,465,485,504,524,544,564,584,605,624],"xSR":741.5,"ySR":573.95,"xT1":424.9,"yT1":0,"xT2":1058.1,"yT2":0,"toosoon":0,"cond_shown":"Congruent","ratio_trial":200,"L_num":14,"L_den":28,"R_num":6,"R_den":20,"correct_side":1,"subjID":"valentinagutierrezguerrero4","gender":"1","school":"4","age":"9"},{"start_time":1552073463331,"click_time":1552073464092,"finger_time":1552073463652,"fix_duration":518.605560709992,"trial":40,"RT":321,"MT":440,"sideResp":1,"stimulus":[],"xmouse":[814,814,814,814,814,814,814,814,814,814,814,814,814,814,812,811,803,795,784,771,756,711,699,687,678,677,677,676,674,658,638,613,612,612,612,604,558,529,509],"ymouse":[597,597,597,597,597,597,598,598,598,598,598,598,598,597,594,585,547,521,483,434,354,109,2,0,0,0,0,0,0,0,0,0,0,0,0,5,36,53,63],"timestamp_mouse":[10,32,41,60,80,100,121,141,160,180,201,221,240,261,280,301,321,341,360,382,401,420,440,461,480,500,521,542,560,580,601,622,640,661,680,700,722,740,760],"xSR":741.5,"ySR":573.95,"xT1":424.9,"yT1":0,"xT2":1058.1,"yT2":0,"toosoon":0,"cond_shown":"Incongruent","ratio_trial":300,"L_num":13,"L_den":26,"R_num":12,"R_den":15,"correct_side":2,"subjID":"valentinagutierrezguerrero4","gender":"1","school":"4","age":"9"},{"start_time":1552073465704,"click_time":1552073466472,"finger_time":1552073466072,"fix_duration":250,"trial":41,"RT":368,"MT":400,"sideResp":2,"stimulus":[],"xmouse":[771,770,769,769,769,769,769,769,769,769,769,769,769,769,769,769,769,773,806,855,909,955,1018,1040,1044,1054,1058,1064,1070,1075,1083,1088,1091,1091,1091,1091,1091,1091,1089],"ymouse":[623,624,626,626,626,626,626,626,626,626,626,626,626,626,626,626,626,614,563,475,364,264,101,27,11,0,0,0,0,0,0,0,0,0,0,0,0,0,1],"timestamp_mouse":[8,27,47,67,87,107,127,147,167,187,207,228,249,267,287,307,327,348,368,388,408,428,448,467,487,507,528,548,567,588,607,627,648,668,687,707,728,747,767],"xSR":741.5,"ySR":573.95,"xT1":424.9,"yT1":0,"xT2":1058.1,"yT2":0,"toosoon":0,"cond_shown":"Congruent","ratio_trial":200,"L_num":16,"L_den":20,"R_num":12,"R_den":20,"correct_side":1,"subjID":"valentinagutierrezguerrero4","gender":"1","school":"4","age":"9"},{"start_time":1552073468521,"click_time":1552073469172,"finger_time":1552073468992,"fix_duration":1187.0742745866498,"trial":42,"RT":471,"MT":180,"sideResp":2,"stimulus":[],"xmouse":[772,772,772,772,772,772,772,772,772,772,772,772,772,772,772,772,772,772,772,772,772,772,807,860,918,966,1029,1050,1070,1092,1111,1128,1135],"ymouse":[636,636,636,636,636,636,636,636,636,636,636,636,636,636,636,636,636,636,636,636,636,637,613,568,512,453,368,328,282,224,159,103,77],"timestamp_mouse":[11,31,50,70,90,110,130,151,170,190,211,230,251,270,290,310,330,351,371,390,410,431,450,471,490,511,531,551,571,591,611,630,650],"xSR":741.5,"ySR":573.95,"xT1":424.9,"yT1":0,"xT2":1058.1,"yT2":0,"toosoon":0,"cond_shown":"Congruent","ratio_trial":300,"L_num":8,"L_den":16,"R_num":1,"R_den":5,"correct_side":1,"subjID":"valentinagutierrezguerrero4","gender":"1","school":"4","age":"9"},{"start_time":1552073470523,"click_time":1552073471052,"finger_time":1552073470912,"fix_duration":250,"trial":43,"RT":389,"MT":140,"sideResp":1,"stimulus":[],"xmouse":[793,793,793,793,793,793,793,793,793,793,793,793,793,793,793,793,793,792,777,751,711,647,568,541,518,504,487],"ymouse":[630,630,630,630,630,630,630,630,630,630,630,630,630,630,630,630,630,626,610,567,495,381,237,187,143,110,72],"timestamp_mouse":[9,28,49,68,88,108,128,148,168,190,209,229,248,268,289,309,328,349,370,389,408,429,448,468,488,508,529],"xSR":741.5,"ySR":573.95,"xT1":424.9,"yT1":0,"xT2":1058.1,"yT2":0,"toosoon":0,"cond_shown":"Incongruent","ratio_trial":200,"L_num":4,"L_den":5,"R_num":6,"R_den":10,"correct_side":1,"subjID":"valentinagutierrezguerrero4","gender":"1","school":"4","age":"9"},{"start_time":1552073475367,"click_time":1552073476651,"finger_time":1552073475772,"fix_duration":913.2551200329816,"trial":44,"RT":405,"MT":879,"sideResp":2,"stimulus":[],"xmouse":[786,786,786,786,786,786,786,786,786,786,786,786,786,786,786,786,786,786,788,806,870,1078,1262,1502,1502,1502,1502,1502,1502,1502,1502,1558,1549,1541,1530,1517,1516,1516,1541,1541,1541,1541,1541,1541,1541,1541,1541,1541,1541,1541,1555,1462,1431,1411,1393,1374,1305,1284,1279,1279,1279,1278,1267,1228,1134],"ymouse":[631,631,631,631,631,631,631,631,631,631,631,631,631,631,631,631,631,631,631,615,510,243,59,0,0,0,0,0,0,0,0,91,94,95,98,110,113,114,101,101,101,101,101,101,101,101,101,101,101,101,38,5,1,1,7,16,46,60,63,63,63,63,63,65,76],"timestamp_mouse":[12,34,45,65,84,104,124,144,164,184,204,224,244,264,284,304,325,345,366,385,405,424,445,465,484,506,525,544,564,584,604,624,645,664,684,705,724,745,765,784,805,824,844,864,884,904,926,945,966,984,1004,1024,1045,1064,1085,1104,1124,1145,1164,1184,1205,1224,1245,1265,1284],"xSR":741.5,"ySR":573.95,"xT1":424.9,"yT1":0,"xT2":1058.1,"yT2":0,"toosoon":0,"cond_shown":"Congruent","ratio_trial":200,"L_num":6,"L_den":20,"R_num":11,"R_den":22,"correct_side":2,"subjID":"valentinagutierrezguerrero4","gender":"1","school":"4","age":"9"},{"start_time":1552073523547,"click_time":1552073524413,"finger_time":1552073523891,"fix_duration":754.1895087793533,"trial":45,"RT":344,"MT":522,"sideResp":2,"stimulus":[],"xmouse":[827,827,827,826,826,824,822,821,821,820,820,820,820,820,820,820,820,820,827,840,859,885,932,963,985,1004,1015,1017,1017,1017,1017,1015,982,975,975,983,1009,1016,1016,1017,1020,1028,1051,1071],"ymouse":[618,618,618,616,615,612,609,608,608,607,607,605,604,601,599,594,584,554,534,507,473,432,361,330,301,272,249,238,237,237,237,235,217,206,197,187,176,171,171,168,161,143,99,51],"timestamp_mouse":[12,24,44,64,85,104,124,145,164,185,204,224,244,264,285,304,325,344,365,385,404,424,444,465,485,505,525,545,566,584,604,624,644,665,684,706,725,744,765,784,804,824,844,865],"xSR":741.5,"ySR":573.95,"xT1":424.9,"yT1":0,"xT2":1058.1,"yT2":0,"toosoon":0,"cond_shown":"Incongruent","ratio_trial":300,"L_num":7,"L_den":10,"R_num":8,"R_den":20,"correct_side":1,"subjID":"valentinagutierrezguerrero4","gender":"1","school":"4","age":"9"},{"start_time":1552073526467,"click_time":1552073527131,"finger_time":1552073526500,"fix_duration":295.76238878241236,"trial":46,"RT":33,"MT":631,"sideResp":1,"stimulus":[],"xmouse":[742,738,722,710,696,677,615,537,494,463,442,417,416,416,416,416,416,417,424,432,439,442,443,443,443,442,442,442,442,441,439,432,432,433],"ymouse":[645,638,619,603,583,556,494,433,406,383,368,341,336,334,334,334,334,328,318,303,290,271,257,239,226,215,211,211,211,206,198,152,113,56],"timestamp_mouse":[4,33,46,64,84,105,125,145,164,185,204,224,244,265,284,304,324,344,364,384,404,425,444,465,484,504,524,545,564,586,605,625,644,664],"xSR":741.5,"ySR":573.95,"xT1":424.9,"yT1":0,"xT2":1058.1,"yT2":0,"toosoon":0,"cond_shown":"Incongruent","ratio_trial":300,"L_num":8,"L_den":10,"R_num":9,"R_den":18,"correct_side":1,"subjID":"valentinagutierrezguerrero4","gender":"1","school":"4","age":"9"},{"start_time":1552073531083,"click_time":1552073531711,"finger_time":1552073531271,"fix_duration":250,"trial":47,"RT":188,"MT":440,"sideResp":2,"stimulus":[],"xmouse":[803,806,806,806,806,806,806,806,807,811,819,844,859,870,882,893,933,976,1019,1055,1081,1115,1123,1125,1127,1127,1129,1136,1144,1145,1136,1076],"ymouse":[582,579,579,579,579,579,579,579,576,570,559,521,502,486,475,467,453,437,419,399,382,354,342,337,328,325,309,292,265,236,181,79],"timestamp_mouse":[8,43,50,68,88,109,128,148,168,188,208,228,249,268,288,309,328,349,368,388,409,428,448,468,488,508,528,548,568,590,609,628],"xSR":741.5,"ySR":573.95,"xT1":424.9,"yT1":0,"xT2":1058.1,"yT2":0,"toosoon":0,"cond_shown":"Incongruent","ratio_trial":100,"L_num":9,"L_den":18,"R_num":6,"R_den":10,"correct_side":2,"subjID":"valentinagutierrezguerrero4","gender":"1","school":"4","age":"9"},{"start_time":1552073564641,"click_time":1552073565911,"finger_time":1552073565071,"fix_duration":469.0062176015889,"trial":48,"RT":430,"MT":840,"sideResp":2,"stimulus":[],"xmouse":[778,778,778,778,778,778,778,778,778,778,778,778,777,777,777,777,777,779,784,794,810,816,852,867,884,899,927,944,959,961,961,996,1063,1099,1119,1130,1131,1131,1131,1131,1131,1129,1106,1091,1082,1080,1080,1080,1080,1080,1080,1080,1091,1095,1097,1097,1097,1097,1097,1096,1092,1086,1084,1081],"ymouse":[622,622,622,622,622,622,622,622,622,622,622,623,624,624,624,624,624,619,612,600,576,567,513,495,479,464,417,386,362,360,360,322,248,214,191,171,161,154,154,153,153,154,159,160,160,160,160,160,160,160,160,160,148,144,144,144,143,138,131,123,113,104,102,95],"timestamp_mouse":[9,45,49,69,89,110,130,149,169,190,209,230,249,270,289,310,329,349,369,390,410,430,449,470,489,510,531,549,569,589,610,630,650,670,690,710,730,750,770,790,810,830,849,870,890,910,929,949,970,990,1009,1030,1050,1070,1090,1110,1131,1149,1171,1190,1210,1231,1249,1270],"xSR":741.5,"ySR":573.95,"xT1":424.9,"yT1":0,"xT2":1058.1,"yT2":0,"toosoon":0,"cond_shown":"Congruent","ratio_trial":200,"L_num":3,"L_den":6,"R_num":14,"R_den":20,"correct_side":2,"subjID":"valentinagutierrezguerrero4","gender":"1","school":"4","age":"9"},{"start_time":1552073567342,"click_time":1552073567771,"finger_time":1552073567671,"fix_duration":250,"trial":49,"RT":329,"MT":100,"sideResp":1,"stimulus":[],"xmouse":[795,785,778,778,778,778,783,790,794,795,796,797,797,797,797,791,767,652,581,512,465,435],"ymouse":[622,628,633,633,633,632,628,620,617,616,614,613,612,612,610,589,540,374,279,186,108,40],"timestamp_mouse":[9,34,49,68,88,109,129,149,169,189,209,229,248,268,289,308,329,349,369,390,409,429],"xSR":741.5,"ySR":573.95,"xT1":424.9,"yT1":0,"xT2":1058.1,"yT2":0,"toosoon":0,"cond_shown":"Congruent","ratio_trial":100,"L_num":11,"L_den":22,"R_num":4,"R_den":10,"correct_side":1,"subjID":"valentinagutierrezguerrero4","gender":"1","school":"4","age":"9"},{"start_time":1552073569762,"click_time":1552073571991,"finger_time":1552073570111,"fix_duration":310.14121632038484,"trial":50,"RT":349,"MT":1880,"sideResp":2,"stimulus":[],"xmouse":[824,824,824,824,824,824,824,824,824,824,824,824,824,824,819,804,761,728,696,668,648,635,633,635,637,641,641,643,646,647,647,647,647,647,643,631,606,595,590,586,583,574,568,561,561,560,559,559,559,559,559,559,559,559,559,559,559,559,559,559,559,559,559,559,559,559,559,558,558,557,556,555,553,551,549,548,548,548,548,548,548,548,548,548,564,592,618,670,688,714,731,744,747,754,764,773,782,811,829,845,861,879,921,938,950,958,974,987,1004,1024,1045,1081],"ymouse":[650,650,650,650,650,650,650,650,650,650,650,650,650,650,645,634,585,526,456,391,333,294,263,241,224,201,143,121,111,108,108,108,108,108,109,116,121,121,121,121,121,121,121,121,121,121,121,121,121,121,121,121,121,121,121,121,121,121,121,121,121,121,121,121,121,121,121,120,118,117,116,116,116,115,115,114,114,114,114,114,114,114,114,114,112,111,111,111,111,111,111,110,109,108,107,104,99,87,78,72,70,69,67,67,67,67,67,67,67,67,67,67],"timestamp_mouse":[10,40,48,70,88,109,129,149,169,189,208,229,249,268,289,309,328,349,368,389,408,429,450,469,488,509,529,549,568,589,608,628,648,668,689,709,728,748,770,790,809,829,850,868,889,909,930,948,968,988,1009,1028,1049,1069,1090,1108,1128,1148,1170,1190,1209,1229,1248,1268,1290,1309,1330,1349,1368,1388,1409,1428,1449,1469,1490,1509,1529,1548,1568,1588,1609,1628,1648,1669,1688,1708,1728,1749,1769,1789,1809,1829,1848,1869,1888,1910,1928,1949,1968,1989,2009,2029,2049,2070,2089,2109,2129,2149,2168,2188,2210,2229],"xSR":741.5,"ySR":573.95,"xT1":424.9,"yT1":0,"xT2":1058.1,"yT2":0,"toosoon":0,"cond_shown":"Congruent","ratio_trial":300,"L_num":11,"L_den":22,"R_num":4,"R_den":20,"correct_side":1,"subjID":"valentinagutierrezguerrero4","gender":"1","school":"4","age":"9"},{"start_time":1552073574548,"click_time":1552073576731,"finger_time":1552073575111,"fix_duration":1096.4154411272193,"trial":51,"RT":563,"MT":1620,"sideResp":1,"stimulus":[],"xmouse":[786,786,786,786,786,786,786,786,786,785,785,785,785,784,784,784,784,784,784,784,784,784,784,782,778,769,769,769,689,655,632,630,633,668,676,680,681,681,679,679,679,679,679,679,672,661,648,632,598,591,585,581,570,546,536,530,525,521,516,515,515,515,515,512,511,507,504,502,492,481,466,453,436,425,423,422,421,420,418,416,412,408,405,400,398,393,392,391,391,391,393,398,400,400,400,400,400,402,404,405,406,406,407,408,408,408,412,420,452,476],"ymouse":[600,600,600,600,600,600,600,600,600,600,600,600,600,600,600,600,600,600,600,600,600,600,600,600,597,589,589,589,422,342,290,265,247,199,189,182,175,168,160,160,160,160,160,160,160,160,160,160,157,152,148,145,137,120,117,117,117,117,118,118,118,118,118,120,121,124,125,127,133,140,148,157,169,174,176,176,176,177,180,184,191,196,199,206,210,215,218,220,220,220,220,218,217,217,217,217,217,216,214,213,212,212,210,205,202,199,186,174,119,79],"timestamp_mouse":[11,23,43,63,84,103,122,143,163,184,202,222,242,263,283,302,322,343,363,382,402,422,443,463,483,503,522,543,563,583,603,623,643,663,683,702,723,743,764,783,802,822,843,863,883,903,923,942,962,984,1002,1022,1042,1062,1083,1104,1123,1144,1162,1183,1203,1222,1242,1262,1283,1303,1322,1342,1362,1383,1403,1422,1442,1462,1483,1503,1523,1543,1562,1584,1602,1622,1642,1662,1682,1702,1723,1743,1763,1783,1803,1822,1843,1863,1883,1903,1922,1942,1962,1982,2002,2023,2043,2062,2082,2102,2122,2143,2162,2183],"xSR":741.5,"ySR":573.95,"xT1":424.9,"yT1":0,"xT2":1058.1,"yT2":0,"toosoon":0,"cond_shown":"Congruent","ratio_trial":100,"L_num":6,"L_den":12,"R_num":15,"R_den":25,"correct_side":2,"subjID":"valentinagutierrezguerrero4","gender":"1","school":"4","age":"9"},{"start_time":1552073578423,"click_time":1552073580330,"finger_time":1552073578911,"fix_duration":250,"trial":52,"RT":488,"MT":1419,"sideResp":2,"stimulus":[],"xmouse":[788,790,790,790,790,790,790,790,790,790,790,790,790,790,790,790,790,790,790,790,790,790,785,775,759,746,696,666,640,616,610,605,600,593,576,569,569,568,568,568,568,568,568,568,568,568,568,568,568,568,568,568,568,568,568,568,568,569,572,607,634,671,711,759,849,911,934,947,953,960,972,993,1020,1049,1075,1075,1075,1075,1075,1075,1075,1075,1075,1075,1075,1075,1075,1075,1075,1075,1075,1075,1075,1075,1075,1075],"ymouse":[639,639,639,639,639,639,639,639,639,639,639,639,639,639,639,639,639,639,639,639,630,615,595,574,546,524,436,378,331,264,242,225,208,189,151,143,142,142,142,142,142,142,142,142,142,142,142,142,142,142,142,142,142,142,142,142,142,140,138,130,122,113,101,91,72,42,29,22,18,12,5,0,0,0,0,0,0,0,0,0,0,0,0,0,0,0,0,0,0,0,0,0,0,0,0,2],"timestamp_mouse":[13,33,49,67,87,108,128,147,168,187,208,227,247,268,287,307,327,348,367,387,407,428,448,468,488,507,528,548,568,588,608,628,647,668,687,707,727,747,768,788,809,827,848,868,888,909,927,948,967,989,1009,1028,1047,1067,1088,1109,1128,1148,1168,1187,1208,1228,1247,1268,1288,1307,1327,1349,1368,1387,1408,1428,1448,1468,1488,1508,1528,1548,1568,1588,1609,1628,1648,1667,1695,1707,1728,1747,1768,1788,1807,1827,1847,1867,1888,1907],"xSR":741.5,"ySR":573.95,"xT1":424.9,"yT1":0,"xT2":1058.1,"yT2":0,"toosoon":0,"cond_shown":"Incongruent","ratio_trial":100,"L_num":3,"L_den":5,"R_num":8,"R_den":16,"correct_side":1,"subjID":"valentinagutierrezguerrero4","gender":"1","school":"4","age":"9"},{"start_time":1552073582122,"click_time":1552073582932,"finger_time":1552073582530,"fix_duration":250,"trial":53,"RT":408,"MT":402,"sideResp":1,"stimulus":[],"xmouse":[815,815,815,815,815,815,815,815,815,815,815,815,815,815,815,815,815,815,814,799,709,671,640,610,568,559,558,558,558,558,557,556,554,553,550,546,536,520,507,487,458],"ymouse":[599,599,599,599,599,599,599,599,599,599,599,599,599,599,599,599,599,599,599,574,422,371,336,293,221,188,171,161,155,154,150,148,145,142,137,133,128,120,112,101,83],"timestamp_mouse":[12,37,49,69,88,108,128,148,168,188,208,228,249,269,288,308,328,349,369,388,408,428,449,468,490,508,529,548,569,589,610,629,648,669,690,708,728,748,768,789,810],"xSR":741.5,"ySR":573.95,"xT1":424.9,"yT1":0,"xT2":1058.1,"yT2":0,"toosoon":0,"cond_shown":"Congruent","ratio_trial":300,"L_num":3,"L_den":6,"R_num":4,"R_den":5,"correct_side":2,"subjID":"valentinagutierrezguerrero4","gender":"1","school":"4","age":"9"},{"start_time":1552073591796,"click_time":1552073592711,"finger_time":1552073592030,"fix_duration":1224.3705233754638,"trial":54,"RT":234,"MT":681,"sideResp":2,"stimulus":[],"xmouse":[795,795,795,795,795,795,794,798,800,805,811,824,864,885,905,922,941,992,1009,1029,1040,1040,1060,1074,1097,1116,1150,1150,1150,1158,1171,1175,1176,1176,1176,1176,1176,1176,1176,1176,1176,1176,1176,1173,1164,1153],"ymouse":[634,634,634,634,634,634,631,621,614,602,586,558,442,371,293,228,163,56,28,0,0,0,0,0,0,0,0,0,0,0,0,0,0,0,0,0,0,0,0,0,0,0,0,1,6,9],"timestamp_mouse":[20,34,56,74,94,114,136,154,175,195,214,234,255,275,295,315,334,354,375,395,415,435,454,475,496,515,535,554,574,594,614,634,655,675,694,714,735,756,775,794,814,834,854,874,894,914],"xSR":741.5,"ySR":573.95,"xT1":424.9,"yT1":0,"xT2":1058.1,"yT2":0,"toosoon":0,"cond_shown":"Incongruent","ratio_trial":300,"L_num":13,"L_den":26,"R_num":12,"R_den":15,"correct_side":2,"subjID":"valentinagutierrezguerrero4","gender":"1","school":"4","age":"9"},{"start_time":1552073596135,"click_time":1552073598171,"finger_time":1552073596810,"fix_duration":883.2899251423145,"trial":55,"RT":675,"MT":1361,"sideResp":1,"stimulus":[],"xmouse":[758,758,758,758,758,758,758,758,758,758,758,758,758,759,760,764,767,771,776,782,789,791,791,791,791,791,791,791,791,791,791,796,803,818,841,890,920,945,971,993,1040,1062,1073,1081,1094,1117,1126,1133,1140,1142,1146,1148,1148,1148,1148,1148,1148,1148,1148,1148,1148,1148,1146,1142,1138,1135,1131,1128,1124,1117,1092,1076,1068,1062,1058,1037,1017,995,970,950,896,870,838,805,774,751,722,717,702,688,678,649,636,620,603,564,553,548,548,548,527,491],"ymouse":[641,641,641,641,641,641,641,641,641,641,641,641,641,641,638,632,626,619,613,604,594,589,589,589,589,589,589,589,589,589,589,582,574,557,533,480,450,426,405,385,336,303,285,270,248,210,194,180,168,163,152,148,146,145,145,145,145,145,145,145,145,145,144,145,145,147,149,150,152,154,158,160,161,162,162,162,162,157,149,145,139,138,136,134,134,134,134,134,132,129,126,114,107,97,87,60,54,51,51,51,36,15],"timestamp_mouse":[16,35,57,75,96,117,136,155,175,195,215,235,256,275,296,315,336,357,376,395,415,436,455,475,495,515,535,556,575,595,615,635,655,675,696,716,735,755,775,795,815,836,855,875,895,916,935,955,976,996,1017,1035,1055,1075,1095,1116,1135,1155,1177,1196,1216,1236,1256,1275,1296,1315,1335,1356,1376,1397,1416,1435,1456,1477,1496,1516,1536,1556,1576,1596,1616,1635,1655,1675,1696,1716,1736,1755,1776,1795,1816,1835,1856,1876,1895,1916,1935,1957,1976,1997,2016,2036],"xSR":741.5,"ySR":573.95,"xT1":424.9,"yT1":0,"xT2":1058.1,"yT2":0,"toosoon":0,"cond_shown":"Incongruent","ratio_trial":300,"L_num":4,"L_den":20,"R_num":2,"R_den":4,"correct_side":2,"subjID":"valentinagutierrezguerrero4","gender":"1","school":"4","age":"9"},{"start_time":1552073600585,"click_time":1552073602130,"finger_time":1552073600732,"fix_duration":533.3143677387307,"trial":56,"RT":147,"MT":1398,"sideResp":2,"stimulus":[],"xmouse":[808,808,808,808,813,819,829,844,865,902,920,934,949,961,985,1000,1017,1033,1036,1042,1043,1045,1048,1056,1059,1064,1064,1067,1068,1069,1069,1069,1071,1073,1086,1094,1098,1104,1104,1088,1079,1071,1064,1059,1055,1053,1052,1052,1052,1052,1052,1052,1052,1052,1052,1052,1052,1052,1052,1052,1052,1052,1052,1052,1052,1052,1052,1052,1052,1052,1052,1052,1052,1052,1052,1054,1056,1061],"ymouse":[644,644,644,644,637,632,622,605,576,525,500,484,469,456,437,425,417,410,409,407,406,404,399,379,365,351,348,336,326,306,296,286,278,269,244,230,219,201,189,153,137,127,117,111,100,98,97,97,97,97,97,97,97,97,97,97,97,97,97,97,97,97,97,97,97,97,97,97,97,97,97,97,97,97,97,97,96,96],"timestamp_mouse":[11,31,45,66,85,105,126,147,166,185,206,226,245,265,285,305,325,346,366,385,406,426,446,467,485,505,526,545,565,585,605,626,646,667,685,706,726,745,766,785,805,826,846,866,886,906,925,947,966,986,1005,1025,1046,1067,1085,1105,1125,1146,1166,1186,1206,1227,1246,1266,1286,1306,1325,1345,1365,1385,1406,1426,1445,1465,1485,1505,1526,1545],"xSR":741.5,"ySR":573.95,"xT1":424.9,"yT1":0,"xT2":1058.1,"yT2":0,"toosoon":0,"cond_shown":"Incongruent","ratio_trial":200,"L_num":14,"L_den":30,"R_num":6,"R_den":9,"correct_side":2,"subjID":"valentinagutierrezguerrero4","gender":"1","school":"4","age":"9"},{"start_time":1552073610852,"click_time":1552073612650,"finger_time":1552073611510,"fix_duration":1359.7833186426913,"trial":57,"RT":658,"MT":1140,"sideResp":1,"stimulus":[],"xmouse":[808,808,808,808,808,808,808,808,808,808,808,808,808,808,808,808,808,808,808,808,808,808,808,808,808,808,808,807,807,807,809,818,836,842,846,844,844,844,844,844,844,844,844,844,844,844,844,844,844,844,844,844,844,844,844,833,805,754,746,745,744,743,734,721,700,682,661,628,628,624,613,612,572,527,476,436,401,368,366,368,375,384,404,412,416,418,419,419,422,423,425],"ymouse":[633,633,633,633,633,633,633,633,633,633,633,633,633,633,633,633,633,633,633,633,633,633,633,633,633,633,633,633,633,633,633,625,601,587,566,535,534,534,534,534,534,534,534,534,534,534,534,534,534,534,534,534,534,534,534,522,500,466,463,462,462,462,459,450,438,425,410,378,377,372,362,361,325,290,247,213,183,138,130,126,119,114,106,101,98,98,98,97,96,96,96],"timestamp_mouse":[2,19,38,59,78,99,119,139,159,179,198,219,238,258,278,299,318,338,358,379,400,418,439,459,478,499,518,538,558,578,599,618,638,658,679,700,719,738,759,779,799,818,839,859,878,899,919,939,959,980,998,1020,1038,1059,1078,1099,1119,1138,1159,1179,1198,1218,1238,1259,1279,1298,1319,1338,1359,1379,1399,1418,1438,1458,1478,1498,1519,1538,1559,1578,1598,1618,1639,1659,1679,1698,1719,1738,1758,1779,1798],"xSR":741.5,"ySR":573.95,"xT1":424.9,"yT1":0,"xT2":1058.1,"yT2":0,"toosoon":0,"cond_shown":"Congruent","ratio_trial":100,"L_num":11,"L_den":22,"R_num":4,"R_den":10,"correct_side":1,"subjID":"valentinagutierrezguerrero4","gender":"1","school":"4","age":"9"},{"start_time":1552073614685,"click_time":1552073616031,"finger_time":1552073615051,"fix_duration":293.16143091991364,"trial":58,"RT":366,"MT":980,"sideResp":2,"stimulus":[],"xmouse":[790,790,790,790,790,790,790,790,790,790,790,790,790,790,791,804,826,833,865,869,894,917,942,945,952,955,955,956,957,958,962,962,962,964,965,959,953,949,951,973,1038,1066,1117,1173,1193,1196,1196,1196,1196,1196,1196,1201,1210,1223,1234,1261,1277,1284,1286,1286,1286,1284,1273,1253,1229,1185,1161,1145],"ymouse":[616,616,616,616,616,616,616,616,616,616,616,616,616,616,616,612,603,598,583,579,556,545,536,534,531,526,520,510,503,499,495,495,495,493,488,465,440,419,418,407,385,370,337,285,255,244,244,244,244,244,244,238,224,201,176,134,114,104,100,100,100,100,98,96,92,86,80,74],"timestamp_mouse":[11,31,46,66,85,105,125,145,166,185,206,225,245,267,287,306,327,345,366,386,406,425,446,465,486,505,525,545,566,586,605,626,647,666,685,705,727,747,766,786,806,825,847,866,886,905,925,946,965,985,1006,1025,1045,1065,1086,1106,1125,1146,1166,1185,1206,1225,1247,1266,1286,1305,1325,1346],"xSR":741.5,"ySR":573.95,"xT1":424.9,"yT1":0,"xT2":1058.1,"yT2":0,"toosoon":0,"cond_shown":"Incongruent","ratio_trial":300,"L_num":4,"L_den":20,"R_num":2,"R_den":4,"correct_side":2,"subjID":"valentinagutierrezguerrero4","gender":"1","school":"4","age":"9"},{"start_time":1552073618063,"click_time":1552073620351,"finger_time":1552073618410,"fix_duration":250,"trial":59,"RT":347,"MT":1941,"sideResp":1,"stimulus":[],"xmouse":[777,777,777,777,777,777,777,777,777,777,777,777,777,777,777,778,771,750,732,706,704,701,699,699,699,699,699,707,707,707,707,707,707,707,707,707,707,709,711,712,714,715,721,724,729,730,736,766,769,780,780,792,797,797,804,821,831,873,888,902,906,912,922,934,942,945,946,944,930,905,871,845,792,764,723,674,638,605,604,595,589,584,580,574,570,568,563,556,553,553,553,553,553,553,553,553,553,553,553,548,548,548,539,539,539,539,539,539,539,537,537,536,533,527,524],"ymouse":[632,632,632,632,632,632,632,632,632,632,632,632,632,632,632,630,595,542,506,444,441,435,425,423,423,423,420,394,392,392,392,392,392,392,392,392,392,388,383,379,371,364,354,350,348,347,347,346,346,346,346,346,346,346,344,336,333,302,287,275,271,268,260,249,241,236,234,233,232,227,213,198,157,135,105,71,46,20,20,10,2,0,0,0,0,0,0,0,0,0,0,0,0,0,0,0,0,0,0,0,0,0,0,0,0,0,0,0,0,1,1,1,4,7,8],"timestamp_mouse":[12,28,47,67,87,108,129,147,169,187,208,228,247,268,288,307,328,347,367,387,407,427,447,467,487,507,528,549,568,589,609,628,647,667,688,708,727,747,767,787,808,828,847,868,887,908,928,948,967,987,1008,1027,1049,1067,1087,1108,1128,1148,1167,1187,1207,1227,1247,1269,1288,1308,1327,1347,1367,1387,1407,1427,1447,1469,1488,1507,1527,1547,1568,1587,1607,1628,1647,1667,1688,1708,1728,1748,1767,1789,1808,1828,1848,1868,1888,1908,1928,1948,1967,1987,2007,2027,2047,2068,2088,2107,2128,2149,2168,2187,2207,2227,2247,2269,2288],"xSR":741.5,"ySR":573.95,"xT1":424.9,"yT1":0,"xT2":1058.1,"yT2":0,"toosoon":0,"cond_shown":"Congruent","ratio_trial":200,"L_num":7,"L_den":15,"R_num":18,"R_den":27,"correct_side":2,"subjID":"valentinagutierrezguerrero4","gender":"1","school":"4","age":"9"},{"start_time":1552073631836,"click_time":1552073632531,"finger_time":1552073632030,"fix_duration":1284.8144514533094,"trial":60,"RT":194,"MT":501,"sideResp":2,"stimulus":[],"xmouse":[778,778,778,778,778,778,783,802,833,968,1087,1128,1158,1172,1188,1203,1231,1262,1285,1299,1297,1289,1272,1258,1218,1198,1189,1187,1185,1183,1174,1169,1166,1164,1155],"ymouse":[607,607,607,607,607,607,607,601,588,518,453,426,401,385,364,347,311,250,184,71,31,4,0,0,0,0,0,0,1,3,15,22,25,27,33],"timestamp_mouse":[14,39,56,75,94,114,134,155,176,194,214,234,254,275,294,314,335,354,375,395,415,435,454,474,496,514,535,554,574,594,614,635,654,675,694],"xSR":741.5,"ySR":573.95,"xT1":424.9,"yT1":0,"xT2":1058.1,"yT2":0,"toosoon":0,"cond_shown":"Congruent","ratio_trial":300,"L_num":3,"L_den":6,"R_num":4,"R_den":5,"correct_side":2,"subjID":"valentinagutierrezguerrero4","gender":"1","school":"4","age":"9"},{"start_time":1552073635560,"click_time":1552073636590,"finger_time":1552073636050,"fix_duration":1307.6762798659079,"trial":61,"RT":490,"MT":540,"sideResp":1,"stimulus":[],"xmouse":[772,772,772,772,772,772,772,771,771,771,771,771,771,771,771,771,771,771,771,770,774,776,777,779,782,782,777,766,755,735,725,713,708,688,648,628,612,605,605,605,601,593,586,582,582,582,582,582,580,558,525,516],"ymouse":[613,613,613,613,613,613,613,613,613,613,613,613,613,613,613,613,613,613,613,610,599,588,584,578,554,539,516,494,475,438,421,396,385,340,246,200,155,130,125,121,105,93,88,87,87,87,87,87,86,78,64,61],"timestamp_mouse":[10,42,50,70,91,111,131,150,170,190,211,232,250,270,290,310,331,350,370,390,410,430,451,471,490,510,530,551,571,590,610,631,651,671,691,710,731,751,771,790,810,831,851,870,890,910,931,951,970,990,1010,1030],"xSR":741.5,"ySR":573.95,"xT1":424.9,"yT1":0,"xT2":1058.1,"yT2":0,"toosoon":0,"cond_shown":"Congruent","ratio_trial":100,"L_num":7,"L_den":14,"R_num":9,"R_den":15,"correct_side":2,"subjID":"valentinagutierrezguerrero4","gender":"1","school":"4","age":"9"},{"start_time":1552073639195,"click_time":1552073640070,"finger_time":1552073639611,"fix_duration":1062.532369914769,"trial":62,"RT":416,"MT":459,"sideResp":2,"stimulus":[],"xmouse":[757,757,757,757,757,757,757,757,757,757,757,757,757,757,757,757,757,757,762,786,817,867,991,1040,1068,1083,1095,1127,1157,1179,1202,1214,1220,1224,1224,1224,1219,1212,1176,1163,1160,1159,1159,1158],"ymouse":[613,613,613,613,613,613,613,613,613,613,613,613,613,613,613,613,613,613,610,586,560,517,399,343,308,291,277,246,215,191,164,147,132,116,108,98,90,84,61,60,59,59,59,59],"timestamp_mouse":[15,41,56,75,96,115,135,155,176,195,215,235,256,276,295,315,336,355,376,395,416,436,455,475,495,515,535,555,575,596,616,636,656,675,695,716,736,755,776,795,815,835,855,875],"xSR":741.5,"ySR":573.95,"xT1":424.9,"yT1":0,"xT2":1058.1,"yT2":0,"toosoon":0,"cond_shown":"Incongruent","ratio_trial":200,"L_num":4,"L_den":6,"R_num":14,"R_den":30,"correct_side":1,"subjID":"valentinagutierrezguerrero4","gender":"1","school":"4","age":"9"},{"start_time":1552073748077,"click_time":1552073749932,"finger_time":1552073748431,"fix_duration":823.7800625242255,"trial":63,"RT":354,"MT":1501,"sideResp":2,"stimulus":[],"xmouse":[772,772,772,772,772,772,772,772,772,772,772,772,772,777,787,793,800,808,827,858,896,951,962,969,981,990,1004,1008,1010,1012,1013,1014,1014,1014,1014,1014,1014,1014,1014,1010,1005,1002,1002,1004,1007,1008,1010,1012,1013,1013,1014,1014,1014,1014,1014,1014,1014,1014,1014,1014,1014,1014,1014,1014,1014,1013,1012,1012,1012,1012,1012,1012,1012,1012,1014,1016,1020,1023,1026,1028,1028,1028,1028,1028,1028,1028,1028,1028,1028,1028,1028,1037,1059],"ymouse":[615,615,615,615,615,615,615,615,615,615,615,615,615,614,610,607,599,573,515,450,402,327,303,279,244,227,209,202,200,198,196,195,195,195,195,195,195,195,192,180,170,150,142,134,129,128,124,121,119,119,118,118,118,118,118,118,118,118,118,118,118,118,118,118,118,118,118,118,118,118,118,118,116,106,89,68,25,8,0,0,0,0,0,0,0,0,2,5,6,6,6,8,13],"timestamp_mouse":[14,38,54,75,94,115,134,154,174,194,214,234,2