[{"start_time":1552074408356,"click_time":1552074410563,"finger_time":1552074410023,"fix_duration":689.0253213840236,"trial":0,"RT":1667,"MT":540,"sideResp":2,"stimulus":"img/900/equaldotsize/R/13_Ratio_900_L_18_R_20.png","xmouse":[788,788,788,788,788,788,788,788,788,788,788,788,788,788,788,788,788,788,788,788,788,788,788,788,788,788,788,788,788,788,788,788,788,788,788,788,788,788,788,788,788,788,788,788,788,788,788,788,788,788,788,788,788,788,788,788,788,788,788,788,788,788,788,788,788,788,788,788,788,788,788,788,788,788,788,788,788,788,788,788,788,788,794,889,968,996,998,998,998,998,998,998,998,998,998,998,998,998,998,998,998,998,998,993,993,994,1001,1011,1042,1060,1070],"ymouse":[510,510,510,510,510,510,510,510,510,510,510,510,510,510,510,510,510,510,510,510,510,510,510,510,510,510,510,510,510,510,510,510,510,510,510,510,510,510,510,510,510,510,510,510,510,510,510,510,510,510,510,510,510,510,510,510,510,510,510,510,510,510,510,510,510,510,510,510,510,510,510,510,510,510,510,510,510,510,510,510,510,510,508,460,437,431,431,431,431,431,431,431,431,431,431,431,431,431,431,431,431,431,418,350,325,305,282,262,188,133,65],"timestamp_mouse":[9,30,49,68,87,107,127,147,167,188,207,227,247,268,287,307,328,348,368,387,407,428,449,468,487,508,528,548,568,588,608,628,647,667,687,707,727,747,767,788,807,827,847,867,887,907,927,947,968,987,1007,1027,1047,1067,1087,1107,1127,1147,1167,1188,1207,1227,1247,1267,1287,1307,1327,1347,1367,1388,1407,1428,1448,1467,1487,1507,1527,1547,1568,1587,1607,1627,1647,1667,1688,1707,1727,1748,1768,1787,1807,1827,1848,1867,1887,1907,1927,1947,1968,1987,2008,2027,2047,2067,2087,2107,2127,2147,2167,2188,2207],"xSR":741.5,"ySR":469.95,"xT1":424.9,"yT1":0,"xT2":1058.1,"yT2":0,"toosoon":0,"cond_shown":"equaldotsize","ratio_trial":900,"smaller_num":"18","larger_num":"20","correct_side":2,"subjID":"valentinagutierrez4","gender":"1","age":"9","school":"4","test":{"fix_dur":[250,1500],"timestim":300,"targets_dim":[100,100],"targets_relative_coord":[0.3,0.7],"size_stim":[880,420],"start_dim":[100,100],"size_start":[300,300],"size_fix":60,"samplingrate":20,"img_types":["equaldotsize","equaldotanddens","randomdotsizeEA"],"ratios":[250,500,750,900],"rep_conds":9,"nTrials":120,"trials_to_rest":500,"Trials_order":[105,38,11,77,30,31,44,18,111,5,36,32,50,27,14,3,43,15,23,61,64,45,107,53,33,8,83,99,13,89,94,80,65,10,39,59,101,51,106,112,2,113,70,54,92,96,21,49,57,12,73,82,95,103,16,22,0,68,48,81,97,87,62,79,119,47,52,117,91,86,78,115,40,41,26,24,67,35,90,28,6,114,102,46,58,85,19,110,69,109,88,104,60,76,75,108,7,1,20,74,17,29,84,66,93,42,9,4,55,63,71,56,34,116,100,37,98,25,72,118],"cond_shown":["equaldotsize","randomdotsizeEA","randomdotsizeEA","randomdotsizeEA","equaldotsize","equaldotanddens","randomdotsizeEA","equaldotsize","equaldotsize","randomdotsizeEA","equaldotsize","randomdotsizeEA","randomdotsizeEA","equaldotsize","randomdotsizeEA","equaldotsize","equaldotanddens","equaldotsize","randomdotsizeEA","equaldotanddens","equaldotanddens","equaldotsize","randomdotsizeEA","randomdotsizeEA","equaldotsize","randomdotsizeEA","randomdotsizeEA","equaldotsize","equaldotanddens","randomdotsizeEA","equaldotanddens","randomdotsizeEA","randomdotsizeEA","equaldotanddens","equaldotsize","randomdotsizeEA","randomdotsizeEA","equaldotsize","equaldotanddens","equaldotanddens","randomdotsizeEA","randomdotsizeEA","equaldotanddens","equaldotsize","randomdotsizeEA","equaldotsize","equaldotsize","equaldotanddens","equaldotsize","equaldotsize","equaldotanddens","equaldotanddens","randomdotsizeEA","equaldotanddens","equaldotanddens","equaldotanddens","equaldotsize","randomdotsizeEA","equaldotsize","equaldotsize","equaldotanddens","equaldotsize","randomdotsizeEA","equaldotanddens","randomdotsizeEA","randomdotsizeEA","equaldotanddens","equaldotsize","equaldotanddens","randomdotsizeEA","equaldotsize","equaldotanddens","equaldotanddens","randomdotsizeEA","randomdotsizeEA","equaldotsize","equaldotanddens","randomdotsizeEA","equaldotsize","equaldotanddens","equaldotsize","equaldotsize","equaldotsize","equaldotanddens","equaldotanddens","equaldotanddens","equaldotanddens","randomdotsizeEA","equaldotsize","equaldotanddens","equaldotanddens","randomdotsizeEA","equaldotsize","equaldotanddens","equaldotsize","equaldotsize","equaldotanddens","equaldotanddens","randomdotsizeEA","randomdotsizeEA","randomdotsizeEA","randomdotsizeEA","equaldotsize","equaldotsize","equaldotsize","equaldotsize","equaldotsize","equaldotanddens","equaldotanddens","equaldotsize","randomdotsizeEA","randomdotsizeEA","equaldotanddens","randomdotsizeEA","equaldotanddens","equaldotanddens","randomdotsizeEA","equaldotanddens","equaldotsize","equaldotanddens"],"ratio_trial":[900,250,900,500,750,750,750,750,500,500,250,750,250,500,250,500,750,500,900,250,500,900,900,500,900,750,900,500,250,500,900,750,500,900,500,900,500,500,900,500,250,500,900,750,750,250,900,250,900,250,250,900,900,750,500,900,250,750,250,900,250,500,250,750,900,900,500,900,750,250,750,750,500,500,250,250,750,900,750,500,750,750,750,900,900,250,750,250,900,250,500,750,250,500,500,250,750,250,750,250,500,500,250,750,900,750,900,500,750,500,900,750,900,750,500,250,250,250,250,900],"smaller_num":["18","4","18","1","6","15","6","18","5","5","4","15","3","9","3","2","18","1","9","6","2","9","9","6","18","18","18","9","2","9","18","3","2","18","9","18","2","4","9","10","3","6","18","3","6","6","18","2","18","3","3","18","18","12","10","9","6","15","2","9","2","4","6","6","18","18","9","9","15","3","15","3","2","2","3","6","15","18","15","9","18","18","3","9","18","2","15","2","18","6","2","6","3","2","4","3","15","2","6","2","2","1","6","12","18","9","18","9","6","6","9","6","18","3","6","4","6","4","2","18"],"larger_num":["20","16","20","2","8","20","8","24","10","10","16","20","12","18","12","4","24","2","10","24","4","10","10","12","20","24","20","18","8","18","20","4","4","20","18","20","4","8","10","20","12","12","20","4","8","24","20","8","20","12","12","20","20","16","20","10","24","20","8","10","8","8","24","8","20","20","18","10","20","12","20","4","4","4","12","24","20","20","20","18","24","24","4","10","20","8","20","8","20","24","4","8","12","4","8","12","20","8","8","8","4","2","24","16","20","12","20","18","8","12","10","8","20","4","12","16","24","16","8","20"],"correct_side":[2,2,1,2,1,2,1,1,1,1,1,2,2,2,1,2,1,2,2,2,2,1,2,1,1,1,1,2,1,2,1,1,1,1,2,1,1,1,2,2,2,1,2,1,1,1,1,2,2,2,1,1,2,2,2,2,1,2,2,1,1,1,1,2,1,1,1,2,2,2,2,1,1,2,1,1,1,2,2,1,1,1,1,2,2,1,2,1,1,2,1,1,1,1,1,1,2,1,2,1,1,2,2,2,2,2,1,1,1,1,2,2,1,2,1,2,2,2,1,2],"img_shown":["img/900/equaldotsize/R/13_Ratio_900_L_18_R_20.png","img/250/randomdotsizeEA/R/10_Ratio_250_L_4_R_16.png","img/900/randomdotsizeEA/L/2_Ratio_900_L_20_R_18.png","img/500/randomdotsizeEA/R/15_Ratio_500_L_1_R_2.png","img/750/equaldotsize/L/13_Ratio_750_L_8_R_6.png","img/750/equaldotanddens/R/4_Ratio_750_L_15_R_20.png","img/750/randomdotsizeEA/L/14_Ratio_750_L_8_R_6.png","img/750/equaldotsize/L/6_Ratio_750_L_24_R_18.png","img/500/equaldotsize/L/7_Ratio_500_L_10_R_5.png","img/500/randomdotsizeEA/L/7_Ratio_500_L_10_R_5.png","img/250/equaldotsize/L/2_Ratio_250_L_16_R_4.png","img/750/randomdotsizeEA/R/5_Ratio_750_L_15_R_20.png","img/250/randomdotsizeEA/R/11_Ratio_250_L_3_R_12.png","img/500/equaldotsize/R/6_Ratio_500_L_9_R_18.png","img/250/randomdotsizeEA/L/15_Ratio_250_L_12_R_3.png","img/500/equaldotsize/R/9_Ratio_500_L_2_R_4.png","img/750/equaldotanddens/L/6_Ratio_750_L_24_R_18.png","img/500/equaldotsize/R/15_Ratio_500_L_1_R_2.png","img/900/randomdotsizeEA/R/7_Ratio_900_L_9_R_10.png","img/250/equaldotanddens/R/6_Ratio_250_L_6_R_24.png","img/500/equaldotanddens/R/9_Ratio_500_L_2_R_4.png","img/900/equaldotsize/L/1_Ratio_900_L_10_R_9.png","img/900/randomdotsizeEA/R/15_Ratio_900_L_9_R_10.png","img/500/randomdotsizeEA/L/11_Ratio_500_L_12_R_6.png","img/900/equaldotsize/L/2_Ratio_900_L_20_R_18.png","img/750/randomdotsizeEA/L/6_Ratio_750_L_24_R_18.png","img/900/randomdotsizeEA/L/4_Ratio_900_L_20_R_18.png","img/500/equaldotsize/R/6_Ratio_500_L_9_R_18.png","img/250/equaldotanddens/L/1_Ratio_250_L_8_R_2.png","img/500/randomdotsizeEA/R/6_Ratio_500_L_9_R_18.png","img/900/equaldotanddens/L/10_Ratio_900_L_20_R_18.png","img/750/randomdotsizeEA/L/8_Ratio_750_L_4_R_3.png","img/500/randomdotsizeEA/L/5_Ratio_500_L_4_R_2.png","img/900/equaldotanddens/L/10_Ratio_900_L_20_R_18.png","img/500/equaldotsize/R/1_Ratio_500_L_9_R_18.png","img/900/randomdotsizeEA/L/4_Ratio_900_L_20_R_18.png","img/500/randomdotsizeEA/L/5_Ratio_500_L_4_R_2.png","img/500/equaldotsize/L/8_Ratio_500_L_8_R_4.png","img/900/equaldotanddens/R/3_Ratio_900_L_9_R_10.png","img/500/equaldotanddens/R/3_Ratio_500_L_10_R_20.png","img/250/randomdotsizeEA/R/9_Ratio_250_L_3_R_12.png","img/500/randomdotsizeEA/L/13_Ratio_500_L_12_R_6.png","img/900/equaldotanddens/R/11_Ratio_900_L_18_R_20.png","img/750/equaldotsize/L/9_Ratio_750_L_4_R_3.png","img/750/randomdotsizeEA/L/13_Ratio_750_L_8_R_6.png","img/250/equaldotsize/L/5_Ratio_250_L_24_R_6.png","img/900/equaldotsize/L/10_Ratio_900_L_20_R_18.png","img/250/equaldotanddens/R/13_Ratio_250_L_2_R_8.png","img/900/equaldotsize/R/13_Ratio_900_L_18_R_20.png","img/250/equaldotsize/R/4_Ratio_250_L_3_R_12.png","img/250/equaldotanddens/L/14_Ratio_250_L_12_R_3.png","img/900/equaldotanddens/L/10_Ratio_900_L_20_R_18.png","img/900/randomdotsizeEA/R/14_Ratio_900_L_18_R_20.png","img/750/equaldotanddens/R/11_Ratio_750_L_12_R_16.png","img/500/equaldotanddens/R/3_Ratio_500_L_10_R_20.png","img/900/equaldotanddens/R/5_Ratio_900_L_9_R_10.png","img/250/equaldotsize/L/5_Ratio_250_L_24_R_6.png","img/750/randomdotsizeEA/R/4_Ratio_750_L_15_R_20.png","img/250/equaldotsize/R/13_Ratio_250_L_2_R_8.png","img/900/equaldotsize/L/1_Ratio_900_L_10_R_9.png","img/250/equaldotanddens/L/7_Ratio_250_L_8_R_2.png","img/500/equaldotsize/L/8_Ratio_500_L_8_R_4.png","img/250/randomdotsizeEA/L/5_Ratio_250_L_24_R_6.png","img/750/equaldotanddens/R/2_Ratio_750_L_6_R_8.png","img/900/randomdotsizeEA/L/10_Ratio_900_L_20_R_18.png","img/900/randomdotsizeEA/L/4_Ratio_900_L_20_R_18.png","img/500/equaldotanddens/L/4_Ratio_500_L_18_R_9.png","img/900/equaldotsize/R/3_Ratio_900_L_9_R_10.png","img/750/equaldotanddens/R/5_Ratio_750_L_15_R_20.png","img/250/randomdotsizeEA/R/9_Ratio_250_L_3_R_12.png","img/750/equaldotsize/R/4_Ratio_750_L_15_R_20.png","img/750/equaldotanddens/L/8_Ratio_750_L_4_R_3.png","img/500/equaldotanddens/L/5_Ratio_500_L_4_R_2.png","img/500/randomdotsizeEA/R/9_Ratio_500_L_2_R_4.png","img/250/randomdotsizeEA/L/14_Ratio_250_L_12_R_3.png","img/250/equaldotsize/L/5_Ratio_250_L_24_R_6.png","img/750/equaldotanddens/L/1_Ratio_750_L_20_R_15.png","img/900/randomdotsizeEA/R/9_Ratio_900_L_18_R_20.png","img/750/equaldotsize/R/5_Ratio_750_L_15_R_20.png","img/500/equaldotanddens/L/4_Ratio_500_L_18_R_9.png","img/750/equaldotsize/L/6_Ratio_750_L_24_R_18.png","img/750/equaldotsize/L/6_Ratio_750_L_24_R_18.png","img/750/equaldotsize/L/8_Ratio_750_L_4_R_3.png","img/900/equaldotanddens/R/7_Ratio_900_L_9_R_10.png","img/900/equaldotanddens/R/11_Ratio_900_L_18_R_20.png","img/250/equaldotanddens/L/7_Ratio_250_L_8_R_2.png","img/750/equaldotanddens/R/5_Ratio_750_L_15_R_20.png","img/250/randomdotsizeEA/L/7_Ratio_250_L_8_R_2.png","img/900/equaldotsize/L/10_Ratio_900_L_20_R_18.png","img/250/equaldotanddens/R/6_Ratio_250_L_6_R_24.png","img/500/equaldotanddens/L/5_Ratio_500_L_4_R_2.png","img/750/randomdotsizeEA/L/13_Ratio_750_L_8_R_6.png","img/250/equaldotsize/L/14_Ratio_250_L_12_R_3.png","img/500/equaldotanddens/L/5_Ratio_500_L_4_R_2.png","img/500/equaldotsize/L/8_Ratio_500_L_8_R_4.png","img/250/equaldotsize/L/14_Ratio_250_L_12_R_3.png","img/750/equaldotanddens/R/3_Ratio_750_L_15_R_20.png","img/250/equaldotanddens/L/3_Ratio_250_L_8_R_2.png","img/750/randomdotsizeEA/R/2_Ratio_750_L_6_R_8.png","img/250/randomdotsizeEA/L/7_Ratio_250_L_8_R_2.png","img/500/randomdotsizeEA/L/5_Ratio_500_L_4_R_2.png","img/500/randomdotsizeEA/R/12_Ratio_500_L_1_R_2.png","img/250/equaldotsize/R/6_Ratio_250_L_6_R_24.png","img/750/equaldotsize/R/11_Ratio_750_L_12_R_16.png","img/900/equaldotsize/R/13_Ratio_900_L_18_R_20.png","img/750/equaldotsize/R/15_Ratio_750_L_9_R_12.png","img/900/equaldotsize/L/4_Ratio_900_L_20_R_18.png","img/500/equaldotanddens/L/4_Ratio_500_L_18_R_9.png","img/750/equaldotanddens/L/14_Ratio_750_L_8_R_6.png","img/500/equaldotsize/L/13_Ratio_500_L_12_R_6.png","img/900/randomdotsizeEA/R/7_Ratio_900_L_9_R_10.png","img/750/randomdotsizeEA/R/2_Ratio_750_L_6_R_8.png","img/900/equaldotanddens/L/4_Ratio_900_L_20_R_18.png","img/750/randomdotsizeEA/R/12_Ratio_750_L_3_R_4.png","img/500/equaldotanddens/L/13_Ratio_500_L_12_R_6.png","img/250/equaldotanddens/R/10_Ratio_250_L_4_R_16.png","img/250/randomdotsizeEA/R/6_Ratio_250_L_6_R_24.png","img/250/equaldotanddens/R/10_Ratio_250_L_4_R_16.png","img/250/equaldotsize/L/1_Ratio_250_L_8_R_2.png","img/900/equaldotanddens/R/14_Ratio_900_L_18_R_20.png"],"Rat0":[["12_Ratio_0_L_9_R_0.png","13_Ratio_0_L_6_R_0.png","5_Ratio_0_L_2_R_0.png","6_Ratio_0_L_4_R_0.png","8_Ratio_0_L_6_R_0.png"],["1_Ratio_0_L_0_R_17.png","10_Ratio_0_L_0_R_22.png","11_Ratio_0_L_0_R_1.png","14_Ratio_0_L_0_R_24.png","15_Ratio_0_L_0_R_4.png","2_Ratio_0_L_0_R_5.png","3_Ratio_0_L_0_R_17.png","4_Ratio_0_L_0_R_7.png","7_Ratio_0_L_0_R_19.png","9_Ratio_0_L_0_R_15.png"]],"Rat250":[["1_Ratio_250_L_8_R_2.png","14_Ratio_250_L_12_R_3.png","15_Ratio_250_L_12_R_3.png","2_Ratio_250_L_16_R_4.png","3_Ratio_250_L_8_R_2.png","5_Ratio_250_L_24_R_6.png","7_Ratio_250_L_8_R_2.png"],["10_Ratio_250_L_4_R_16.png","11_Ratio_250_L_3_R_12.png","12_Ratio_250_L_5_R_20.png","13_Ratio_250_L_2_R_8.png","4_Ratio_250_L_3_R_12.png","6_Ratio_250_L_6_R_24.png","8_Ratio_250_L_1_R_4.png","9_Ratio_250_L_3_R_12.png"]],"Rat500":[["10_Ratio_500_L_4_R_2.png","11_Ratio_500_L_12_R_6.png","13_Ratio_500_L_12_R_6.png","4_Ratio_500_L_18_R_9.png","5_Ratio_500_L_4_R_2.png","7_Ratio_500_L_10_R_5.png","8_Ratio_500_L_8_R_4.png"],["1_Ratio_500_L_9_R_18.png","12_Ratio_500_L_1_R_2.png","14_Ratio_500_L_5_R_10.png","15_Ratio_500_L_1_R_2.png","2_Ratio_500_L_3_R_6.png","3_Ratio_500_L_10_R_20.png","6_Ratio_500_L_9_R_18.png","9_Ratio_500_L_2_R_4.png"]],"Rat750":[["1_Ratio_750_L_20_R_15.png","10_Ratio_750_L_4_R_3.png","13_Ratio_750_L_8_R_6.png","14_Ratio_750_L_8_R_6.png","6_Ratio_750_L_24_R_18.png","8_Ratio_750_L_4_R_3.png","9_Ratio_750_L_4_R_3.png"],["11_Ratio_750_L_12_R_16.png","12_Ratio_750_L_3_R_4.png","15_Ratio_750_L_9_R_12.png","2_Ratio_750_L_6_R_8.png","3_Ratio_750_L_15_R_20.png","4_Ratio_750_L_15_R_20.png","5_Ratio_750_L_15_R_20.png","7_Ratio_750_L_3_R_4.png"]],"Rat900":[["1_Ratio_900_L_10_R_9.png","10_Ratio_900_L_20_R_18.png","2_Ratio_900_L_20_R_18.png","4_Ratio_900_L_20_R_18.png","8_Ratio_900_L_20_R_18.png"],["11_Ratio_900_L_18_R_20.png","12_Ratio_900_L_18_R_20.png","13_Ratio_900_L_18_R_20.png","14_Ratio_900_L_18_R_20.png","15_Ratio_900_L_9_R_10.png","3_Ratio_900_L_9_R_10.png","5_Ratio_900_L_9_R_10.png","6_Ratio_900_L_9_R_10.png","7_Ratio_900_L_9_R_10.png","9_Ratio_900_L_18_R_20.png"]],"Rat1000":[["10_Ratio_1000_L_16_R_16.png","11_Ratio_1000_L_6_R_6.png","12_Ratio_1000_L_14_R_14.png","13_Ratio_1000_L_20_R_20.png","15_Ratio_1000_L_15_R_15.png","2_Ratio_1000_L_17_R_17.png","4_Ratio_1000_L_9_R_9.png","5_Ratio_1000_L_6_R_6.png","6_Ratio_1000_L_19_R_19.png","8_Ratio_1000_L_14_R_14.png","9_Ratio_1000_L_25_R_25.png"],["1_Ratio_1000_L_1_R_1.png","14_Ratio_1000_L_17_R_17.png","3_Ratio_1000_L_17_R_17.png","7_Ratio_1000_L_6_R_6.png"]]}},{"start_time":1552074413303,"click_time":1552074414484,"finger_time":1552074413883,"fix_duration":1279.9456625813448,"trial":1,"RT":580,"MT":601,"sideResp":2,"stimulus":"img/250/randomdotsizeEA/R/10_Ratio_250_L_4_R_16.png","xmouse":[775,775,775,775,775,775,776,777,777,778,778,778,778,778,779,779,779,779,780,780,780,780,780,780,783,785,797,807,826,856,893,947,950,951,954,962,982,989,993,997,1001,1016,1040,1043,1044,1044,1044,1045,1050,1060,1072,1083,1089,1092,1092,1092,1093,1093,1094,1097],"ymouse":[551,551,551,551,551,551,550,549,549,548,548,548,548,548,548,548,548,547,546,546,546,546,546,546,543,543,534,528,515,484,441,334,323,294,279,250,211,202,196,191,186,173,157,154,153,153,153,153,150,143,134,126,119,115,113,113,109,107,105,99],"timestamp_mouse":[11,31,41,60,80,102,120,140,160,180,200,220,241,261,280,301,320,340,360,381,401,420,440,460,481,500,520,540,561,580,600,621,640,660,680,700,721,740,760,780,801,821,840,861,880,901,921,940,960,980,1000,1021,1041,1060,1080,1101,1122,1140,1161,1180],"xSR":741.5,"ySR":501.8,"xT1":424.9,"yT1":0,"xT2":1058.1,"yT2":0,"toosoon":0,"cond_shown":"randomdotsizeEA","ratio_trial":250,"smaller_num":"4","larger_num":"16","correct_side":2,"subjID":"valentinagutierrez4","gender":"1","age":"9","school":"4"},{"start_time":1552074417082,"click_time":1552074418443,"finger_time":1552074417843,"fix_duration":1378.9356830692163,"trial":2,"RT":761,"MT":600,"sideResp":1,"stimulus":"img/900/randomdotsizeEA/L/2_Ratio_900_L_20_R_18.png","xmouse":[817,817,817,817,817,817,817,817,817,817,817,817,817,817,817,817,817,817,817,817,817,817,817,817,817,817,817,817,817,817,817,818,819,820,821,821,821,821,821,820,818,812,806,769,760,751,743,735,708,695,683,674,666,643,630,616,601,585,556,549,546,546,546,547,548,548,539,528,521],"ymouse":[533,533,533,533,533,533,533,533,533,533,533,533,533,533,533,533,533,533,533,533,533,533,533,531,531,528,527,526,522,521,519,516,515,509,507,506,504,503,496,489,485,467,451,354,321,301,289,280,264,259,254,250,248,239,232,221,207,189,152,142,138,137,137,123,109,87,62,42,32],"timestamp_mouse":[25,38,41,61,81,101,121,141,161,181,201,221,241,261,281,301,321,342,361,381,402,421,442,461,481,501,521,541,561,582,602,621,641,661,681,701,721,741,761,781,801,821,843,862,882,902,921,941,961,981,1001,1021,1041,1061,1082,1101,1121,1142,1162,1182,1201,1221,1242,1261,1281,1301,1322,1342,1361],"xSR":741.5,"ySR":501.8,"xT1":424.9,"yT1":0,"xT2":1058.1,"yT2":0,"toosoon":0,"cond_shown":"randomdotsizeEA","ratio_trial":900,"smaller_num":"18","larger_num":"20","correct_side":1,"subjID":"valentinagutierrez4","gender":"1","age":"9","school":"4"},{"start_time":1552074420579,"click_time":1552074422445,"finger_time":1552074421643,"fix_duration":935.3132274901404,"trial":3,"RT":1064,"MT":802,"sideResp":2,"stimulus":"img/500/randomdotsizeEA/R/15_Ratio_500_L_1_R_2.png","xmouse":[810,808,808,808,808,808,808,808,808,808,808,807,807,807,807,807,807,809,811,811,812,813,813,813,814,814,814,815,815,816,816,816,816,816,816,817,817,817,817,817,818,819,819,819,819,821,822,823,825,828,831,833,835,837,838,838,838,838,838,838,838,838,838,838,839,839,839,839,839,839,841,841,841,846,852,867,886,916,924,927,928,929,931,928,919,911,909,911,916,927,929,929,935,1064],"ymouse":[544,544,544,544,544,544,544,544,544,544,544,543,543,541,540,538,537,532,529,528,527,527,526,526,526,526,525,525,524,523,523,523,523,523,523,522,522,522,522,522,521,520,520,520,520,519,518,517,515,513,510,507,504,500,499,498,498,498,498,498,498,498,498,498,497,497,497,496,496,496,496,496,495,493,489,480,463,422,399,389,385,379,364,304,252,197,181,170,149,124,122,121,119,66],"timestamp_mouse":[11,30,46,64,84,104,125,144,165,184,204,226,245,265,285,304,324,344,364,385,404,426,444,464,485,504,524,544,565,585,605,624,644,664,684,704,724,744,764,784,804,824,844,864,884,904,924,945,964,985,1004,1024,1044,1064,1085,1104,1124,1144,1165,1185,1205,1225,1244,1264,1285,1304,1325,1345,1364,1384,1404,1424,1445,1465,1485,1504,1524,1544,1565,1584,1604,1624,1645,1664,1684,1704,1724,1745,1765,1784,1804,1824,1845,1866],"xSR":741.5,"ySR":501.8,"xT1":424.9,"yT1":0,"xT2":1058.1,"yT2":0,"toosoon":0,"cond_shown":"randomdotsizeEA","ratio_trial":500,"smaller_num":"1","larger_num":"2","correct_side":2,"subjID":"valentinagutierrez4","gender":"1","age":"9","school":"4"},{"start_time":1552074424114,"click_time":1552074425244,"finger_time":1552074425064,"fix_duration":250,"trial":4,"RT":950,"MT":180,"sideResp":2,"stimulus":"img/750/equaldotsize/L/13_Ratio_750_L_8_R_6.png","xmouse":[780,780,780,780,780,780,780,780,780,780,780,780,781,782,784,784,784,784,784,784,784,784,787,789,792,795,797,801,804,805,806,806,806,806,806,807,808,810,810,811,811,811,811,811,811,813,813,820,844,860,909,1005,1024,1041,1064,1095,1104],"ymouse":[557,557,557,557,557,557,557,557,557,557,557,557,557,554,553,553,553,553,553,553,553,551,547,543,540,534,530,523,518,517,516,516,516,516,516,514,513,511,511,509,509,509,509,509,509,508,507,500,484,472,420,294,257,219,168,105,85],"timestamp_mouse":[9,34,49,69,89,109,129,149,169,189,209,229,250,270,289,310,329,349,369,389,409,429,449,469,489,509,529,549,569,590,610,629,649,670,689,709,730,750,770,789,810,829,849,869,889,909,929,950,969,989,1009,1031,1049,1069,1089,1117,1129],"xSR":741.5,"ySR":501.8,"xT1":424.9,"yT1":0,"xT2":1058.1,"yT2":0,"toosoon":0,"cond_shown":"equaldotsize","ratio_trial":750,"smaller_num":"6","larger_num":"8","correct_side":1,"subjID":"valentinagutierrez4","gender":"1","age":"9","school":"4"},{"start_time":1552074426696,"click_time":1552074427364,"finger_time":1552074427063,"fix_duration":250,"trial":5,"RT":367,"MT":301,"sideResp":1,"stimulus":"img/750/equaldotanddens/R/4_Ratio_750_L_15_R_20.png","xmouse":[802,802,802,796,792,791,790,790,790,790,790,790,790,790,790,789,779,772,759,752,738,719,695,645,630,614,599,582,559,557,557,555,546,510],"ymouse":[543,542,540,537,535,533,533,532,532,531,530,529,528,528,528,526,523,518,500,482,447,406,364,265,230,201,179,150,113,106,101,92,79,48],"timestamp_mouse":[10,28,47,68,88,108,127,147,167,188,207,227,247,267,287,307,327,347,367,387,408,428,447,467,487,507,528,548,567,588,607,627,647,668],"xSR":741.5,"ySR":501.8,"xT1":424.9,"yT1":0,"xT2":1058.1,"yT2":0,"toosoon":0,"cond_shown":"equaldotanddens","ratio_trial":750,"smaller_num":"15","larger_num":"20","correct_side":2,"subjID":"valentinagutierrez4","gender":"1","age":"9","school":"4"},{"start_time":1552074429133,"click_time":1552074429663,"finger_time":1552074429583,"fix_duration":468.1880336799552,"trial":6,"RT":450,"MT":80,"sideResp":2,"stimulus":"img/750/randomdotsizeEA/L/14_Ratio_750_L_8_R_6.png","xmouse":[811,811,810,810,810,810,810,810,810,810,810,810,810,810,810,810,810,810,811,813,816,837,880,958,1046,1132,1155],"ymouse":[572,572,572,572,572,572,572,572,572,572,572,572,572,572,572,572,571,568,564,561,556,527,478,382,272,140,27],"timestamp_mouse":[11,42,50,70,91,110,130,151,171,190,210,230,251,270,291,311,331,350,370,390,411,430,450,470,490,511,530],"xSR":741.5,"ySR":501.8,"xT1":424.9,"yT1":0,"xT2":1058.1,"yT2":0,"toosoon":0,"cond_shown":"randomdotsizeEA","ratio_trial":750,"smaller_num":"6","larger_num":"8","correct_side":1,"subjID":"valentinagutierrez4","gender":"1","age":"9","school":"4"},{"start_time":1552074432095,"click_time":1552074433423,"finger_time":1552074433223,"fix_duration":1271.0209959885563,"trial":7,"RT":1128,"MT":200,"sideResp":2,"stimulus":"img/750/equaldotsize/L/6_Ratio_750_L_24_R_18.png","xmouse":[809,809,809,809,809,809,809,809,809,809,809,809,809,809,809,809,809,809,809,809,809,809,809,809,809,809,809,809,809,809,809,809,810,811,811,811,812,812,812,812,812,812,812,812,812,812,812,812,812,812,812,812,813,814,818,831,852,899,997,1024,1046,1057,1063,1065,1079,1091,1102],"ymouse":[527,527,527,527,527,527,527,527,527,527,527,527,527,527,527,527,527,527,527,527,527,527,527,527,527,527,527,527,527,527,527,527,527,527,525,525,524,524,522,522,521,521,521,521,521,521,521,521,521,521,521,520,518,517,515,511,507,492,447,412,349,293,252,220,148,114,82],"timestamp_mouse":[18,40,48,68,88,109,129,148,168,188,208,228,248,268,288,309,328,348,369,388,408,428,448,468,488,509,528,548,568,588,608,629,648,669,688,708,728,749,769,788,809,828,849,868,888,909,929,948,968,988,1009,1028,1048,1070,1088,1108,1128,1148,1169,1189,1208,1228,1248,1270,1289,1308,1328],"xSR":741.5,"ySR":501.8,"xT1":424.9,"yT1":0,"xT2":1058.1,"yT2":0,"toosoon":0,"cond_shown":"equaldotsize","ratio_trial":750,"smaller_num":"18","larger_num":"24","correct_side":1,"subjID":"valentinagutierrez4","gender":"1","age":"9","school":"4"},{"start_time":1552074437501,"click_time":1552074439263,"finger_time":1552074437763,"fix_duration":797.2646326915659,"trial":8,"RT":262,"MT":1500,"sideResp":1,"stimulus":"img/500/equaldotsize/L/7_Ratio_500_L_10_R_5.png","xmouse":[796,796,796,796,796,795,795,794,791,785,780,773,767,761,739,730,720,713,704,699,679,666,658,651,649,648,648,645,641,627,621,615,611,611,611,611,611,612,612,612,612,612,601,586,558,553,552,552,552,552,550,547,545,545,545,545,545,545,545,545,545,545,545,545,545,545,545,545,545,545,545,545,545,545,545,545,545,545,545,545,545,545,545,545,545,539,532,525,518],"ymouse":[531,531,531,531,530,529,527,525,521,514,510,506,502,498,482,475,467,461,454,448,427,417,409,401,394,389,383,373,356,306,284,266,248,245,239,234,231,228,226,224,217,203,170,141,87,79,76,75,75,74,73,73,73,73,73,73,73,73,73,73,73,73,73,73,73,73,73,73,73,73,73,73,73,73,73,73,73,73,73,73,73,73,73,73,73,72,71,69,66],"timestamp_mouse":[2,22,45,62,82,102,122,142,162,182,202,222,242,262,282,302,322,342,362,382,403,422,442,462,482,504,522,542,562,582,602,622,642,662,682,703,723,742,762,783,802,822,842,863,882,903,922,942,962,983,1002,1023,1042,1062,1083,1102,1122,1142,1162,1183,1203,1223,1242,1262,1282,1302,1323,1343,1362,1383,1402,1423,1442,1462,1482,1502,1522,1542,1562,1582,1603,1623,1642,1662,1683,1703,1723,1742,1762],"xSR":741.5,"ySR":501.8,"xT1":424.9,"yT1":0,"xT2":1058.1,"yT2":0,"toosoon":0,"cond_shown":"equaldotsize","ratio_trial":500,"smaller_num":"5","larger_num":"10","correct_side":1,"subjID":"valentinagutierrez4","gender":"1","age":"9","school":"4"},{"start_time":1552074446231,"click_time":1552074447804,"finger_time":1552074447203,"fix_duration":367.7502434060741,"trial":9,"RT":972,"MT":601,"sideResp":2,"stimulus":"img/500/randomdotsizeEA/L/7_Ratio_500_L_10_R_5.png","xmouse":[766,766,766,766,766,766,766,766,766,766,766,766,766,766,766,766,766,766,766,767,767,768,768,769,769,769,769,769,769,769,769,769,769,769,769,769,769,769,769,769,769,769,769,769,769,770,773,780,798,819,845,873,892,907,909,910,915,925,951,970,986,998,1004,1027,1051,1051,1051,1051,1051,1051,1051,1051,1051,1051,1051,1051,1051,1113,1110],"ymouse":[567,565,564,564,564,564,564,564,564,564,564,564,564,564,564,563,559,550,540,537,536,534,529,525,525,525,525,525,525,525,525,525,525,525,525,525,525,525,525,525,525,525,525,525,525,523,517,507,471,438,388,336,295,259,255,254,245,233,194,150,101,56,43,17,2,2,2,2,2,2,2,2,2,2,2,2,2,0,6],"timestamp_mouse":[12,32,52,72,93,112,132,152,172,192,213,233,252,272,292,312,333,352,372,392,412,432,453,472,492,512,532,552,572,592,612,632,652,672,692,712,732,753,772,793,812,832,854,872,892,912,933,953,972,992,1012,1032,1053,1072,1092,1112,1133,1153,1172,1192,1212,1232,1253,1273,1293,1312,1332,1352,1373,1392,1412,1432,1452,1472,1493,1512,1532,1552,1573],"xSR":741.5,"ySR":501.8,"xT1":424.9,"yT1":0,"xT2":1058.1,"yT2":0,"toosoon":0,"cond_shown":"randomdotsizeEA","ratio_trial":500,"smaller_num":"5","larger_num":"10","correct_side":1,"subjID":"valentinagutierrez4","gender":"1","age":"9","school":"4"},{"start_time":1552074450915,"click_time":1552074452583,"finger_time":1552074451423,"fix_duration":250,"trial":10,"RT":508,"MT":1160,"sideResp":1,"stimulus":"img/250/equaldotsize/L/2_Ratio_250_L_16_R_4.png","xmouse":[803,803,803,803,803,803,804,804,804,804,804,804,804,804,804,804,804,804,804,804,804,801,795,784,767,736,723,718,718,718,718,718,718,718,718,718,718,718,718,716,707,687,662,632,611,586,586,586,586,586,586,586,585,585,581,561,534,493,457,434,414,411,411,411,411,411,411,411,411,411,411,411,411,411,411,411,411,411,411,411,411,411,411,475],"ymouse":[579,579,579,579,579,579,578,578,578,578,578,578,578,577,577,577,577,577,577,574,569,561,551,534,513,484,472,468,467,467,467,467,467,467,467,467,467,467,467,466,460,445,425,403,389,365,365,365,365,365,365,365,364,363,357,313,269,210,153,109,20,5,5,5,5,5,5,5,5,5,5,5,5,5,5,5,5,5,5,5,5,5,5,5],"timestamp_mouse":[10,40,48,68,88,108,128,148,168,189,208,228,248,268,288,308,329,348,368,389,408,428,449,469,488,508,528,549,568,588,608,629,648,669,688,708,729,749,768,790,808,829,848,868,889,908,929,948,969,990,1009,1028,1048,1069,1088,1108,1128,1148,1168,1188,1208,1229,1250,1269,1288,1309,1328,1348,1369,1388,1409,1429,1448,1468,1488,1509,1528,1549,1568,1588,1609,1628,1648,1668],"xSR":741.5,"ySR":501.8,"xT1":424.9,"yT1":0,"xT2":1058.1,"yT2":0,"toosoon":0,"cond_shown":"equaldotsize","ratio_trial":250,"smaller_num":"4","larger_num":"16","correct_side":1,"subjID":"valentinagutierrez4","gender":"1","age":"9","school":"4"},{"start_time":1552074454522,"click_time":1552074455583,"finger_time":1552074455423,"fix_duration":336.5476793172323,"trial":11,"RT":901,"MT":160,"sideResp":2,"stimulus":"img/750/randomdotsizeEA/R/5_Ratio_750_L_15_R_20.png","xmouse":[771,771,771,771,771,771,771,771,771,771,771,771,771,772,772,772,772,774,776,781,783,784,784,784,784,784,784,784,784,784,784,784,784,784,784,784,784,784,784,784,784,784,784,784,785,808,834,866,899,928,972,1006,1051,1079],"ymouse":[520,520,520,520,520,520,520,520,520,520,520,520,520,520,520,520,520,520,520,518,516,515,515,515,515,515,515,515,515,515,515,515,515,515,515,515,515,515,515,515,515,515,515,515,515,496,477,449,421,390,335,244,140,70],"timestamp_mouse":[9,22,41,61,81,101,121,143,162,182,201,221,243,261,281,302,322,341,361,382,401,421,441,461,481,501,521,541,562,582,601,621,642,662,681,701,722,741,762,781,801,822,841,862,881,901,922,942,962,982,1002,1021,1042,1061],"xSR":741.5,"ySR":501.8,"xT1":424.9,"yT1":0,"xT2":1058.1,"yT2":0,"toosoon":0,"cond_shown":"randomdotsizeEA","ratio_trial":750,"smaller_num":"15","larger_num":"20","correct_side":2,"subjID":"valentinagutierrez4","gender":"1","age":"9","school":"4"},{"start_time":1552074457277,"click_time":1552074458225,"finger_time":1552074458043,"fix_duration":451.0857728384278,"trial":12,"RT":766,"MT":182,"sideResp":2,"stimulus":"img/250/randomdotsizeEA/R/11_Ratio_250_L_3_R_12.png","xmouse":[806,806,806,806,806,806,806,806,806,806,806,806,806,806,806,806,806,806,806,806,806,806,807,807,808,808,808,808,808,808,808,809,810,813,817,821,825,834,861,876,900,927,977,996,1027,1044,1070,1092],"ymouse":[533,533,533,533,533,533,533,533,533,533,533,533,533,533,533,533,533,533,533,533,532,531,529,529,529,529,529,528,528,528,528,526,526,525,524,522,521,520,509,497,472,436,349,285,167,138,102,71],"timestamp_mouse":[9,39,47,66,88,106,126,146,166,186,207,226,246,266,287,307,326,346,366,386,407,427,446,466,486,506,526,547,566,587,607,626,646,667,688,706,726,746,766,786,806,826,848,866,887,908,926,947],"xSR":741.5,"ySR":501.8,"xT1":424.9,"yT1":0,"xT2":1058.1,"yT2":0,"toosoon":0,"cond_shown":"randomdotsizeEA","ratio_trial":250,"smaller_num":"3","larger_num":"12","correct_side":2,"subjID":"valentinagutierrez4","gender":"1","age":"9","school":"4"},{"start_time":1552074459946,"click_time":1552074461684,"finger_time":1552074460123,"fix_duration":801.0134677075743,"trial":13,"RT":177,"MT":1561,"sideResp":2,"stimulus":"img/500/equaldotsize/R/6_Ratio_500_L_9_R_18.png","xmouse":[835,835,836,838,840,840,841,841,842,844,845,845,846,846,850,853,855,857,858,869,882,892,899,903,913,916,920,929,937,959,967,973,979,981,981,981,981,981,981,981,981,981,981,981,981,981,981,981,985,999,1012,1020,1023,1032,1054,1065,1073,1077,1079,1078,1075,1074,1073,1073,1075,1077,1080,1083,1083,1083,1084,1085,1086,1087,1087,1087,1087,1087,1087,1087,1087,1087,1087,1087,1089,1096,1104],"ymouse":[517,517,516,515,513,512,512,511,511,510,509,509,508,508,507,506,505,504,503,496,488,483,478,475,466,461,457,448,438,412,402,389,372,365,361,361,361,361,361,361,361,361,361,361,361,361,361,361,357,344,329,319,310,292,228,202,187,182,179,175,170,168,166,162,152,146,141,136,136,136,133,130,124,122,122,122,122,122,122,122,122,122,122,122,116,107,98],"timestamp_mouse":[19,40,58,78,97,117,137,157,177,197,217,239,258,279,298,318,338,358,377,397,417,437,457,478,497,517,537,558,577,597,617,637,659,677,697,717,737,757,777,797,817,837,857,877,898,917,937,957,979,997,1018,1037,1057,1079,1098,1118,1137,1157,1178,1199,1218,1238,1259,1278,1297,1317,1338,1357,1377,1397,1417,1437,1457,1477,1498,1517,1537,1557,1577,1597,1617,1637,1658,1678,1699,1717,1737],"xSR":741.5,"ySR":501.8,"xT1":424.9,"yT1":0,"xT2":1058.1,"yT2":0,"toosoon":0,"cond_shown":"equaldotsize","ratio_trial":500,"smaller_num":"9","larger_num":"18","correct_side":2,"subjID":"valentinagutierrez4","gender":"1","age":"9","school":"4"},{"start_time":1552074463897,"click_time":1552074466184,"finger_time":1552074464143,"fix_duration":710.6483706742471,"trial":14,"RT":246,"MT":2041,"sideResp":1,"stimulus":"img/250/randomdotsizeEA/L/15_Ratio_250_L_12_R_3.png","xmouse":[825,826,826,828,829,829,831,834,835,837,839,840,843,844,844,844,844,844,844,844,844,845,845,845,846,847,848,848,849,849,850,850,850,850,850,850,850,851,851,851,851,851,851,851,851,851,851,851,851,851,852,853,855,855,856,858,860,873,897,921,945,961,974,977,982,982,1011,1035,1042,1042,1042,1042,1042,1042,1042,1042,1042,1042,1042,1042,1039,1032,1004,983,958,925,887,822,736,646,546,482,433,406,406,409,413,419,424,426,432,436,457,471,483,488,488,488,486,486,486,486,486,483,482],"ymouse":[554,554,554,554,554,554,554,554,554,555,555,555,555,555,555,555,555,555,555,555,555,555,555,555,555,555,555,555,555,555,555,555,555,555,555,555,555,554,554,554,554,554,554,554,554,554,554,554,554,554,553,552,551,551,550,548,545,523,488,446,396,351,277,261,249,249,222,201,192,192,192,192,192,192,192,192,192,192,192,192,197,204,224,240,256,272,289,306,310,310,310,299,284,274,271,267,262,249,234,224,201,189,160,145,131,121,117,112,105,105,105,105,105,101,99],"timestamp_mouse":[9,44,46,66,86,106,127,147,167,186,207,226,246,266,287,307,327,346,366,388,407,428,446,466,487,506,526,547,566,586,607,626,646,666,686,707,728,746,766,786,806,826,846,866,886,906,926,947,966,987,1006,1026,1046,1067,1087,1107,1126,1148,1166,1186,1206,1226,1246,1266,1287,1306,1326,1347,1366,1387,1406,1427,1447,1468,1486,1506,1526,1546,1566,1587,1606,1626,1647,1666,1688,1707,1727,1747,1767,1786,1806,1826,1847,1866,1886,1906,1927,1948,1966,1986,2006,2028,2047,2066,2086,2106,2126,2147,2166,2187,2206,2227,2247,2266,2287],"xSR":741.5,"ySR":501.8,"xT1":424.9,"yT1":0,"xT2":1058.1,"yT2":0,"toosoon":0,"cond_shown":"randomdotsizeEA","ratio_trial":250,"smaller_num":"3","larger_num":"12","correct_side":1,"subjID":"valentinagutierrez4","gender":"1","age":"9","school":"4"},{"start_time":1552074467423,"click_time":1552074468564,"finger_time":1552074468223,"fix_duration":279.0956262266048,"trial":15,"RT":800,"MT":341,"sideResp":2,"stimulus":"img/500/equaldotsize/R/9_Ratio_500_L_2_R_4.png","xmouse":[805,805,806,806,806,806,806,806,806,806,806,806,806,806,806,806,806,806,806,806,807,807,808,808,808,808,809,809,810,810,811,811,817,821,824,827,830,833,835,838,843,848,871,912,936,984,1032,1071,1078,1078,1078,1078,1078,1078,1081,1083,1085,1088],"ymouse":[545,545,543,543,543,542,541,539,538,537,537,537,535,535,535,535,535,535,534,532,531,530,527,527,526,526,524,524,523,522,522,521,518,516,515,513,512,509,508,507,501,493,456,356,321,253,195,147,137,136,136,136,136,132,124,115,103,73],"timestamp_mouse":[1,21,41,60,81,100,120,141,160,180,200,220,240,260,281,300,321,340,360,380,400,421,440,461,481,502,521,541,560,581,600,620,640,661,681,700,720,740,761,782,800,821,841,862,880,900,920,941,960,981,1001,1020,1040,1060,1080,1100,1120,1141],"xSR":741.5,"ySR":501.8,"xT1":424.9,"yT1":0,"xT2":1058.1,"yT2":0,"toosoon":0,"cond_shown":"equaldotsize","ratio_trial":500,"smaller_num":"2","larger_num":"4","correct_side":2,"subjID":"valentinagutierrez4","gender":"1","age":"9","school":"4"},{"start_time":1552074470666,"click_time":1552074472263,"finger_time":1552074470964,"fix_duration":901.2204067467038,"trial":16,"RT":298,"MT":1299,"sideResp":1,"stimulus":"img/750/equaldotanddens/L/6_Ratio_750_L_24_R_18.png","xmouse":[807,807,807,807,808,809,809,809,809,810,811,813,815,816,816,816,816,816,816,816,816,816,816,816,816,816,816,816,816,816,816,816,816,816,816,816,816,816,816,816,816,817,819,820,821,822,822,823,823,823,810,781,750,728,714,714,714,714,714,711,706,691,672,634,529,489,454,430,407,403,400,399,397,397,397,398,400,404,407,432],"ymouse":[530,529,529,525,521,519,518,516,513,507,505,504,502,502,501,501,501,501,501,501,501,501,501,501,501,501,501,501,501,501,501,501,501,501,501,501,501,501,501,501,501,501,499,498,497,496,494,491,485,412,356,301,254,228,209,208,208,208,208,204,201,195,189,175,149,138,129,122,114,110,106,96,81,66,59,53,52,51,51,44],"timestamp_mouse":[21,51,58,77,97,117,137,157,177,197,218,237,257,277,297,318,337,357,377,398,417,437,457,477,497,517,538,557,577,597,617,637,657,678,698,718,737,758,778,797,818,838,857,878,897,919,938,958,978,997,1019,1037,1058,1077,1097,1119,1138,1157,1177,1198,1217,1237,1257,1282,1297,1318,1337,1357,1379,1397,1418,1438,1457,1478,1497,1517,1537,1557,1577,1597],"xSR":741.5,"ySR":501.8,"xT1":424.9,"yT1":0,"xT2":1058.1,"yT2":0,"toosoon":0,"cond_shown":"equaldotanddens","ratio_trial":750,"smaller_num":"18","larger_num":"24","correct_side":1,"subjID":"valentinagutierrez4","gender":"1","age":"9","school":"4"},{"start_time":1552074473835,"click_time":1552074474783,"finger_time":1552074474663,"fix_duration":250,"trial":17,"RT":828,"MT":120,"sideResp":2,"stimulus":"img/500/equaldotsize/R/15_Ratio_500_L_1_R_2.png","xmouse":[795,795,795,795,795,795,795,795,795,795,795,795,795,795,796,797,799,802,805,812,815,821,822,822,822,822,822,822,822,822,822,822,822,822,822,822,822,822,822,824,829,846,904,967,1051,1104,1133,1146],"ymouse":[541,541,541,541,541,541,541,541,541,541,541,541,541,541,541,541,541,541,541,541,541,542,542,542,542,542,542,542,542,542,542,542,542,542,542,542,542,542,542,542,541,531,496,421,333,230,135,51],"timestamp_mouse":[10,41,49,69,88,108,128,148,168,189,208,228,248,268,288,309,329,348,369,389,408,428,448,469,489,508,528,548,568,589,609,628,648,669,688,709,728,748,769,789,808,828,850,868,890,909,929,948],"xSR":741.5,"ySR":501.8,"xT1":424.9,"yT1":0,"xT2":1058.1,"yT2":0,"toosoon":0,"cond_shown":"equaldotsize","ratio_trial":500,"smaller_num":"1","larger_num":"2","correct_side":2,"subjID":"valentinagutierrez4","gender":"1","age":"9","school":"4"},{"start_time":1552074476854,"click_time":1552074478003,"finger_time":1552074477683,"fix_duration":848.331931400744,"trial":18,"RT":829,"MT":320,"sideResp":2,"stimulus":"img/900/randomdotsizeEA/R/7_Ratio_900_L_9_R_10.png","xmouse":[814,814,814,814,814,814,814,814,814,814,814,814,814,814,814,814,814,814,814,814,814,814,814,814,814,814,814,814,814,815,816,817,817,817,817,817,817,821,826,831,841,864,878,889,902,929,1049,1106,1147,1178,1188,1189,1188,1187,1184,1179,1162,1157],"ymouse":[528,528,528,528,528,528,528,528,528,528,528,528,528,528,528,528,528,528,528,528,528,528,528,528,528,528,528,528,527,527,526,526,526,526,525,525,525,523,521,519,513,490,474,458,438,398,245,183,137,95,77,70,67,66,63,57,35,30],"timestamp_mouse":[14,37,50,70,89,110,130,150,169,189,209,230,249,269,291,310,329,349,369,390,409,429,449,469,489,509,529,549,570,589,609,630,650,670,689,709,730,750,769,789,810,829,849,869,889,909,930,949,969,990,1011,1030,1050,1071,1090,1109,1130,1149],"xSR":741.5,"ySR":501.8,"xT1":424.9,"yT1":0,"xT2":1058.1,"yT2":0,"toosoon":0,"cond_shown":"randomdotsizeEA","ratio_trial":900,"smaller_num":"9","larger_num":"10","correct_side":2,"subjID":"valentinagutierrez4","gender":"1","age":"9","school":"4"},{"start_time":1552074479893,"click_time":1552074480684,"finger_time":1552074480543,"fix_duration":807.6596403924136,"trial":19,"RT":650,"MT":141,"sideResp":2,"stimulus":"img/250/equaldotanddens/R/6_Ratio_250_L_6_R_24.png","xmouse":[827,827,827,827,827,827,827,827,827,827,827,827,827,827,827,827,827,827,827,827,827,827,827,827,827,827,827,827,827,827,829,829,846,864,883,890,935,992,1044,1069],"ymouse":[522,523,524,524,524,524,524,524,524,524,524,524,524,524,524,524,524,524,524,524,524,524,524,524,524,524,524,524,524,525,524,524,516,504,483,471,343,182,72,12],"timestamp_mouse":[14,34,50,71,91,111,131,151,170,190,211,230,250,270,292,311,331,350,370,391,410,430,451,470,490,511,530,551,570,592,611,630,650,672,690,710,730,750,770,790],"xSR":741.5,"ySR":501.8,"xT1":424.9,"yT1":0,"xT2":1058.1,"yT2":0,"toosoon":0,"cond_shown":"equaldotanddens","ratio_trial":250,"smaller_num":"6","larger_num":"24","correct_side":2,"subjID":"valentinagutierrez4","gender":"1","age":"9","school":"4"},{"start_time":1552074482421,"click_time":1552074483064,"finger_time":1552074482763,"fix_duration":637.4665725716651,"trial":20,"RT":342,"MT":301,"sideResp":2,"stimulus":"img/500/equaldotanddens/R/9_Ratio_500_L_2_R_4.png","xmouse":[815,815,815,815,815,815,816,817,817,817,818,818,819,823,825,828,833,846,860,897,914,928,935,1008,1037,1054,1060,1062,1062,1062,1062,1064,1074],"ymouse":[543,543,543,543,543,543,544,545,545,545,545,545,545,545,545,545,543,538,530,496,475,449,436,288,218,178,159,147,143,139,135,122,99],"timestamp_mouse":[10,23,43,62,82,102,123,143,163,182,202,222,243,262,282,303,322,342,363,382,402,422,442,462,482,502,523,542,562,584,603,622,643],"xSR":741.5,"ySR":501.8,"xT1":424.9,"yT1":0,"xT2":1058.1,"yT2":0,"toosoon":0,"cond_shown":"equaldotanddens","ratio_trial":500,"smaller_num":"2","larger_num":"4","correct_side":2,"subjID":"valentinagutierrez4","gender":"1","age":"9","school":"4"},{"start_time":1552074485176,"click_time":1552074486425,"finger_time":1552074485884,"fix_duration":250,"trial":21,"RT":708,"MT":541,"sideResp":2,"stimulus":"img/900/equaldotsize/L/1_Ratio_900_L_10_R_9.png","xmouse":[793,793,793,794,794,794,794,794,795,796,796,796,796,796,796,796,796,799,802,805,813,817,820,822,823,824,829,831,834,835,835,835,836,837,841,845,852,859,864,873,883,900,926,968,1047,1047,1047,1047,1047,1047,1047,1047,1047,1047,1047,1047,1047,1047,1047,1047,1047,1047,1115],"ymouse":[534,534,534,534,534,533,533,533,533,533,533,533,533,533,533,533,533,533,533,533,529,527,526,525,524,523,518,516,513,513,513,513,512,511,508,505,499,494,489,483,469,441,353,228,29,29,29,29,29,29,29,29,29,29,29,29,29,29,29,29,29,29,4],"timestamp_mouse":[11,38,47,68,87,107,127,147,167,187,208,228,248,267,287,308,327,347,368,387,408,428,447,467,488,508,528,548,567,587,607,627,647,668,687,708,728,747,768,789,809,828,847,869,888,909,928,948,967,987,1008,1027,1048,1069,1088,1108,1128,1149,1168,1188,1207,1228,1249],"xSR":741.5,"ySR":501.8,"xT1":424.9,"yT1":0,"xT2":1058.1,"yT2":0,"toosoon":0,"cond_shown":"equaldotsize","ratio_trial":900,"smaller_num":"9","larger_num":"10","correct_side":1,"subjID":"valentinagutierrez4","gender":"1","age":"9","school":"4"},{"start_time":1552074490276,"click_time":1552074491324,"finger_time":1552074490703,"fix_duration":250,"trial":22,"RT":427,"MT":621,"sideResp":1,"stimulus":"img/900/randomdotsizeEA/R/15_Ratio_900_L_9_R_10.png","xmouse":[802,802,802,802,802,802,802,802,802,802,802,802,802,802,802,802,800,799,794,791,778,749,732,720,708,699,671,646,637,621,612,607,607,606,604,600,581,570,563,559,558,555,553,548,548,548,548,548,548,548,548,548,523],"ymouse":[549,549,549,549,549,549,549,549,549,549,549,549,549,549,549,549,547,541,530,524,505,469,452,443,435,430,416,404,399,388,377,358,350,340,325,303,184,106,73,47,37,22,17,5,5,5,5,5,5,5,5,5,15],"timestamp_mouse":[11,27,47,67,87,107,128,148,167,188,207,228,248,267,288,307,328,348,367,387,407,427,447,469,487,507,527,547,567,589,608,628,647,667,687,707,728,747,767,788,807,827,847,868,888,907,928,948,969,989,1009,1028,1048],"xSR":741.5,"ySR":501.8,"xT1":424.9,"yT1":0,"xT2":1058.1,"yT2":0,"toosoon":0,"cond_shown":"randomdotsizeEA","ratio_trial":900,"smaller_num":"9","larger_num":"10","correct_side":2,"subjID":"valentinagutierrez4","gender":"1","age":"9","school":"4"},{"start_time":1552074492976,"click_time":1552074493705,"finger_time":1552074493325,"fix_duration":330.96043697649924,"trial":23,"RT":349,"MT":380,"sideResp":2,"stimulus":"img/500/randomdotsizeEA/L/11_Ratio_500_L_12_R_6.png","xmouse":[804,804,804,804,804,804,804,804,804,804,808,809,814,819,821,823,828,833,839,849,865,906,934,949,964,981,1006,1012,1012,1013,1013,1013,1038,1056,1074,1090,1106],"ymouse":[513,513,513,513,513,513,513,513,513,513,513,513,512,510,510,509,505,499,490,478,459,402,338,310,283,254,204,195,194,193,193,193,170,150,126,100,74],"timestamp_mouse":[12,28,48,67,88,107,127,147,167,187,207,228,248,269,287,307,329,349,367,387,408,429,447,468,488,507,528,547,567,587,607,629,647,669,688,708,728],"xSR":741.5,"ySR":501.8,"xT1":424.9,"yT1":0,"xT2":1058.1,"yT2":0,"toosoon":0,"cond_shown":"randomdotsizeEA","ratio_trial":500,"smaller_num":"6","larger_num":"12","correct_side":1,"subjID":"valentinagutierrez4","gender":"1","age":"9","school":"4"},{"start_time":1552074495719,"click_time":1552074496685,"finger_time":1552074496603,"fix_duration":574.5358457637307,"trial":24,"RT":884,"MT":82,"sideResp":2,"stimulus":"img/900/equaldotsize/L/2_Ratio_900_L_20_R_18.png","xmouse":[796,796,796,796,796,796,796,796,796,796,796,796,796,796,796,796,796,796,796,796,796,796,796,797,797,797,797,797,797,797,797,798,798,798,799,799,799,800,801,804,817,827,827,827,843,970,1031,1079,1099],"ymouse":[554,554,554,554,554,554,554,554,554,554,554,554,554,554,554,554,554,554,554,554,554,553,553,551,551,551,551,551,551,551,551,550,550,549,549,549,548,547,547,546,540,534,534,534,519,325,221,126,65],"timestamp_mouse":[9,38,44,64,84,104,125,144,164,185,204,225,245,265,284,306,324,344,364,384,404,425,444,465,486,504,524,544,564,585,604,625,644,664,684,706,724,744,764,785,804,825,845,864,884,904,925,945,966],"xSR":741.5,"ySR":501.8,"xT1":424.9,"yT1":0,"xT2":1058.1,"yT2":0,"toosoon":0,"cond_shown":"equaldotsize","ratio_trial":900,"smaller_num":"18","larger_num":"20","correct_side":1,"subjID":"valentinagutierrez4","gender":"1","age":"9","school":"4"},{"start_time":1552074498715,"click_time":1552074500265,"finger_time":1552074499123,"fix_duration":250,"trial":25,"RT":408,"MT":1142,"sideResp":1,"stimulus":"img/750/randomdotsizeEA/L/6_Ratio_750_L_24_R_18.png","xmouse":[806,806,804,803,801,801,801,801,801,801,801,801,801,799,799,797,794,788,783,777,769,767,766,765,764,764,764,764,764,764,758,758,758,758,758,758,758,757,754,750,733,708,659,539,505,505,505,505,505,505,505,505,505,505,505,505,505,505,505,505,505,505,505,505,505,505,505,505,505,505,505,505,505,505,505,505,505,440],"ymouse":[515,515,515,515,515,515,515,515,515,515,515,515,515,515,515,515,515,512,509,504,498,497,496,495,494,494,494,494,494,493,487,486,486,486,486,486,486,486,481,472,440,386,298,64,0,0,0,0,0,0,0,0,0,0,0,0,0,0,0,0,0,0,0,0,0,0,0,0,0,0,0,0,0,0,0,0,0,3],"timestamp_mouse":[21,29,49,69,88,109,128,148,168,188,209,229,248,268,288,308,329,348,368,388,408,429,449,470,490,509,528,548,568,588,608,628,648,668,688,709,728,748,769,788,808,829,848,868,888,908,928,948,968,989,1008,1028,1049,1069,1088,1109,1129,1148,1169,1188,1209,1228,1248,1268,1288,1308,1328,1348,1368,1388,1408,1428,1448,1468,1489,1509,1530,1550],"xSR":741.5,"ySR":501.8,"xT1":424.9,"yT1":0,"xT2":1058.1,"yT2":0,"toosoon":0,"cond_shown":"randomdotsizeEA","ratio_trial":750,"smaller_num":"18","larger_num":"24","correct_side":1,"subjID":"valentinagutierrez4","gender":"1","age":"9","school":"4"},{"start_time":1552074502485,"click_time":1552074503104,"finger_time":1552074502844,"fix_duration":701.6145610582105,"trial":26,"RT":359,"MT":260,"sideResp":2,"stimulus":"img/900/randomdotsizeEA/L/4_Ratio_900_L_20_R_18.png","xmouse":[782,783,786,788,789,789,789,789,789,789,789,789,789,789,789,789,803,824,860,912,987,1044,1088,1099,1103,1107,1110,1118,1122,1125,1129],"ymouse":[522,521,512,509,509,509,509,509,509,509,509,509,509,509,509,508,503,491,467,430,368,294,218,177,163,150,140,128,121,111,99],"timestamp_mouse":[19,40,60,79,98,119,138,159,179,198,218,238,260,278,298,318,340,359,378,399,418,438,458,478,498,518,538,558,578,598,619],"xSR":741.5,"ySR":501.8,"xT1":424.9,"yT1":0,"xT2":1058.1,"yT2":0,"toosoon":0,"cond_shown":"randomdotsizeEA","ratio_trial":900,"smaller_num":"18","larger_num":"20","correct_side":1,"subjID":"valentinagutierrez4","gender":"1","age":"9","school":"4"},{"start_time":1552074504929,"click_time":1552074505764,"finger_time":1552074505423,"fix_duration":862.9436992329624,"trial":27,"RT":494,"MT":341,"sideResp":2,"stimulus":"img/500/equaldotsize/R/6_Ratio_500_L_9_R_18.png","xmouse":[819,819,819,819,819,819,819,819,819,819,819,819,819,819,819,819,819,819,819,819,819,819,819,830,842,861,864,896,951,1002,1066,1081,1088,1095,1107,1118,1121,1122,1126,1128,1128,1128],"ymouse":[530,530,530,530,530,530,530,530,530,530,530,530,530,530,530,530,530,530,530,530,530,528,525,508,490,445,439,384,313,258,206,195,189,180,167,152,146,141,133,124,104,90],"timestamp_mouse":[14,34,54,74,94,116,134,154,174,194,215,235,254,275,294,315,334,354,374,395,415,434,455,474,494,515,536,554,574,594,614,635,656,674,694,714,734,754,775,796,814,835],"xSR":741.5,"ySR":501.8,"xT1":424.9,"yT1":0,"xT2":1058.1,"yT2":0,"toosoon":0,"cond_shown":"equaldotsize","ratio_trial":500,"smaller_num":"9","larger_num":"18","correct_side":2,"subjID":"valentinagutierrez4","gender":"1","age":"9","school":"4"},{"start_time":1552074507738,"click_time":1552074509963,"finger_time":1552074508283,"fix_duration":1312.874439807434,"trial":28,"RT":545,"MT":1680,"sideResp":1,"stimulus":"img/250/equaldotanddens/L/1_Ratio_250_L_8_R_2.png","xmouse":[802,802,802,802,801,801,801,801,801,801,801,801,801,801,801,801,801,801,799,799,798,798,797,797,795,791,784,775,756,746,738,734,731,731,730,730,730,730,730,730,730,730,730,737,749,803,835,903,953,1002,1056,1100,1119,1133,1137,1137,1137,1137,1135,1134,1133,1132,1129,1126,1115,1077,1061,1051,1048,1045,1034,1028,1024,1022,1018,1010,982,969,948,942,918,882,814,741,705,651,651,651,651,651,651,651,651,651,651,644,629,624,624,624,612,591,575,571,571,569,564,542,502,495,495,498],"ymouse":[543,543,543,543,543,543,543,543,543,543,543,543,543,543,543,543,543,543,543,542,539,538,533,531,526,515,505,495,475,463,444,431,423,419,417,417,417,417,417,417,417,417,415,411,406,376,356,303,264,219,172,129,116,108,107,107,107,107,107,107,107,107,107,110,114,129,136,141,144,147,159,167,173,176,181,185,204,212,224,226,227,218,199,177,167,137,136,136,136,136,136,136,136,136,136,134,131,130,130,130,133,139,141,141,141,141,141,127,109,106,103,98],"timestamp_mouse":[12,36,45,66,86,105,125,145,165,185,205,226,245,265,285,305,327,346,365,386,405,425,446,465,485,505,527,545,566,585,605,625,645,666,686,705,725,745,766,787,806,826,846,865,886,905,925,945,965,987,1006,1027,1046,1066,1085,1106,1125,1146,1165,1186,1207,1225,1246,1265,1285,1306,1325,1346,1366,1385,1406,1425,1447,1467,1486,1506,1526,1545,1565,1585,1606,1625,1646,1665,1685,1707,1725,1745,1765,1785,1805,1825,1846,1866,1885,1906,1925,1946,1965,1985,2005,2026,2046,2065,2085,2105,2125,2145,2165,2185,2207,2225],"xSR":741.5,"ySR":501.8,"xT1":424.9,"yT1":0,"xT2":1058.1,"yT2":0,"toosoon":0,"cond_shown":"equaldotanddens","ratio_trial":250,"smaller_num":"2","larger_num":"8","correct_side":1,"subjID":"valentinagutierrez4","gender":"1","age":"9","school":"4"},{"start_time":1552074512861,"click_time":1552074514062,"finger_time":1552074513462,"fix_duration":576.1216997793675,"trial":29,"RT":601,"MT":600,"sideResp":2,"stimulus":"img/500/randomdotsizeEA/R/6_Ratio_500_L_9_R_18.png","xmouse":[780,779,778,778,778,778,778,778,778,778,778,778,778,778,778,778,778,778,778,778,778,778,778,778,778,778,782,782,782,801,878,915,928,963,995,1027,1029,1031,1031,1032,1039,1042,1044,1048,1050,1053,1053,1053,1053,1053,1053,1053,1053,1053,1053,1053,1053,1053,1053,1057,1077],"ymouse":[532,532,534,534,534,534,534,534,534,534,534,534,534,534,534,534,534,534,534,534,534,534,534,534,534,534,532,532,532,513,425,375,355,296,238,168,154,144,132,113,69,60,56,54,54,54,54,54,54,54,54,54,54,54,54,54,54,54,54,54,54],"timestamp_mouse":[10,31,41,62,81,102,122,141,161,181,201,221,241,262,281,301,321,342,361,381,401,421,442,461,482,501,521,541,561,581,601,621,641,661,681,701,721,741,761,781,801,821,841,861,881,901,921,941,961,981,1001,1021,1041,1062,1081,1102,1121,1141,1161,1181,1201],"xSR":741.5,"ySR":501.8,"xT1":424.9,"yT1":0,"xT2":1058.1,"yT2":0,"toosoon":0,"cond_shown":"randomdotsizeEA","ratio_trial":500,"smaller_num":"9","larger_num":"18","correct_side":2,"subjID":"valentinagutierrez4","gender":"1","age":"9","school":"4"},{"start_time":1552074516384,"click_time":1552074517282,"finger_time":1552074517122,"fix_duration":1340.7601834520958,"trial":30,"RT":738,"MT":160,"sideResp":2,"stimulus":"img/900/equaldotanddens/L/10_Ratio_900_L_20_R_18.png","xmouse":[762,762,765,769,769,769,769,769,769,769,769,769,769,769,769,769,769,769,769,774,779,786,789,791,791,791,791,791,791,791,791,791,792,797,801,815,843,874,907,964,973,981,997,1051,1081],"ymouse":[563,563,558,554,554,554,554,554,554,554,554,554,554,554,554,554,554,554,554,551,548,545,544,543,543,543,543,543,543,543,543,542,541,535,531,515,477,426,368,234,205,179,140,58,18],"timestamp_mouse":[19,42,58,78,98,118,139,158,178,198,219,239,258,278,299,319,338,358,378,399,418,438,458,478,498,518,538,558,578,598,618,638,658,678,698,718,738,758,779,798,819,838,858,878,898],"xSR":741.5,"ySR":501.8,"xT1":424.9,"yT1":0,"xT2":1058.1,"yT2":0,"toosoon":0,"cond_shown":"equaldotanddens","ratio_trial":900,"smaller_num":"18","larger_num":"20","correct_side":1,"subjID":"valentinagutierrez4","gender":"1","age":"9","school":"4"},{"start_time":1552074518454,"click_time":1552074519463,"finger_time":1552074518862,"fix_duration":250,"trial":31,"RT":408,"MT":601,"sideResp":1,"stimulus":"img/750/randomdotsizeEA/L/8_Ratio_750_L_4_R_3.png","xmouse":[801,801,801,801,801,802,806,809,811,812,813,813,813,813,813,813,813,813,810,796,777,760,757,737,720,705,702,701,700,696,679,663,634,593,570,567,567,567,567,567,563,556,554,554,550,546,541,535,533,530,519],"ymouse":[595,595,595,595,591,586,574,567,564,562,561,561,561,561,561,561,561,561,544,515,471,430,427,409,398,384,378,366,349,332,293,275,256,227,209,208,208,208,208,208,203,191,186,176,159,128,112,101,95,89,70],"timestamp_mouse":[9,38,48,69,89,108,128,149,168,188,210,228,248,268,288,309,328,348,368,388,408,428,448,468,488,509,528,548,568,588,610,628,648,669,689,709,728,749,768,788,809,828,848,868,888,910,928,949,969,988,1009],"xSR":741.5,"ySR":501.8,"xT1":424.9,"yT1":0,"xT2":1058.1,"yT2":0,"toosoon":0,"cond_shown":"randomdotsizeEA","ratio_trial":750,"smaller_num":"3","larger_num":"4","correct_side":1,"subjID":"valentinagutierrez4","gender":"1","age":"9","school":"4"},{"start_time":1552074521878,"click_time":1552074524423,"finger_time":1552074522942,"fix_duration":1354.9567074461063,"trial":32,"RT":1064,"MT":1481,"sideResp":2,"stimulus":"img/500/randomdotsizeEA/L/5_Ratio_500_L_4_R_2.png","xmouse":[787,787,787,787,787,787,787,787,787,787,787,787,787,787,787,787,787,787,787,787,787,787,787,787,787,787,787,787,787,787,787,787,787,787,787,787,787,787,787,787,787,787,787,787,787,787,787,787,787,787,787,787,786,782,780,780,780,780,780,780,780,779,779,779,779,784,784,784,784,784,784,784,784,785,787,792,793,793,793,793,793,793,793,793,793,793,793,793,793,793,807,808,808,808,809,816,820,831,849,853,878,917,924,931,936,943,950,950,953,963,995,1008,1016,1016,1016,1016,1016,1016,1016,1016,1016,1016,1016,1016,1016,1016,1016,1108],"ymouse":[532,532,532,532,532,532,532,532,532,532,532,532,532,532,532,532,532,532,532,532,532,532,532,532,532,532,532,532,532,532,532,532,532,532,532,532,532,532,532,532,532,532,532,532,532,532,532,532,532,532,532,517,510,501,498,498,498,498,498,498,497,495,495,495,495,495,495,495,495,495,495,495,495,495,492,485,484,484,484,484,484,484,484,484,484,484,484,484,484,483,474,474,474,474,474,474,473,470,467,467,455,428,415,401,380,357,343,342,330,308,192,100,47,47,47,47,47,47,47,47,47,47,47,47,47,47,47,9],"timestamp_mouse":[13,24,44,64,84,104,124,144,164,184,204,224,244,264,284,304,324,344,365,385,405,424,444,465,484,505,525,544,564,584,605,624,645,664,684,704,724,744,764,784,804,824,844,864,884,904,924,944,964,984,1004,1024,1045,1064,1084,1104,1124,1145,1164,1185,1204,1225,1245,1264,1285,1305,1325,1344,1365,1385,1404,1425,1444,1464,1484,1504,1524,1544,1564,1584,1604,1624,1644,1664,1684,1704,1724,1744,1764,1784,1805,1824,1844,1864,1884,1904,1926,1945,1964,1984,2004,2024,2045,2064,2085,2104,2124,2144,2164,2185,2204,2226,2245,2264,2286,2304,2324,2344,2364,2384,2405,2424,2444,2465,2484,2504,2524,2545],"xSR":741.5,"ySR":501.8,"xT1":424.9,"yT1":0,"xT2":1058.1,"yT2":0,"toosoon":0,"cond_shown":"randomdotsizeEA","ratio_trial":500,"smaller_num":"2","larger_num":"4","correct_side":1,"subjID":"valentinagutierrez4","gender":"1","age":"9","school":"4"},{"start_time":1552074538101,"click_time":1552074538943,"finger_time":1552074538443,"fix_duration":777.5383306881408,"trial":33,"RT":342,"MT":500,"sideResp":2,"stimulus":"img/900/equaldotanddens/L/10_Ratio_900_L_20_R_18.png","xmouse":[790,790,791,793,794,794,794,794,794,794,794,794,794,795,796,797,802,809,820,828,833,841,844,850,860,877,937,1012,1041,1051,1051,1051,1051,1051,1051,1051,1051,1051,1051,1051,1051,1051,1070],"ymouse":[529,528,526,523,522,522,522,522,522,522,522,522,522,522,521,520,508,496,482,468,460,449,443,433,419,399,327,188,65,6,6,6,6,6,6,6,6,6,6,6,6,6,12],"timestamp_mouse":[9,31,41,61,82,102,121,141,161,181,201,221,241,261,282,301,321,342,361,382,401,421,441,461,482,501,521,541,561,581,603,623,642,661,682,701,721,741,761,781,802,822,842],"xSR":741.5,"ySR":501.8,"xT1":424.9,"yT1":0,"xT2":1058.1,"yT2":0,"toosoon":0,"cond_shown":"equaldotanddens","ratio_trial":900,"smaller_num":"18","larger_num":"20","correct_side":1,"subjID":"valentinagutierrez4","gender":"1","age":"9","school":"4"},{"start_time":1552074556832,"click_time":1552074560923,"finger_time":1552074560442,"fix_duration":408.0448100367705,"trial":34,"RT":3610,"MT":481,"sideResp":2,"stimulus":"img/500/equaldotsize/R/1_Ratio_500_L_9_R_18.png","xmouse":[759,759,759,759,759,759,759,759,759,759,759,759,759,759,759,759,759,759,759,759,759,759,759,759,759,759,759,759,759,759,759,759,759,759,759,759,759,759,759,759,759,759,759,759,759,759,759,759,759,759,759,759,759,759,759,759,759,759,759,759,759,759,759,759,759,759,759,759,759,759,759,759,759,759,759,759,759,759,759,759,759,759,759,759,759,759,759,759,759,759,759,759,759,759,759,759,759,759,759,759,759,759,759,765,768,767,754,751,750,749,744,745,749,750,750,750,746,746,746,746,746,750,753,754,754,754,755,756,757,760,760,760,760,760,760,760,760,760,760,760,760,760,760,760,760,760,760,762,763,763,763,764,764,764,764,764,764,764,764,764,764,764,764,764,764,764,764,764,764,764,764,764,764,764,764,764,765,803,836,836,846,942,977,1001,1018,1029,1031,1031,1035,1046,1101,1148,1185,1185,1185,1183,1181,1181,1181,1181,1181,1181,1181,1171,1133],"ymouse":[588,588,588,588,588,588,588,588,588,588,588,588,588,588,588,588,588,588,588,588,588,588,588,588,588,588,588,588,588,588,588,588,588,588,588,588,588,588,588,588,588,588,588,588,588,588,588,588,588,588,588,588,588,588,588,588,588,588,588,588,588,588,588,588,588,588,588,588,588,588,588,588,588,588,588,588,588,588,588,588,588,588,588,588,588,588,588,588,588,588,588,588,588,588,588,588,588,588,588,588,588,588,588,576,557,550,545,544,544,544,550,578,583,584,584,584,578,578,578,578,577,576,575,574,572,569,568,567,566,564,564,564,564,564,564,552,551,551,551,551,551,550,550,550,550,550,550,550,550,550,550,550,550,550,550,550,550,550,550,550,550,550,550,550,550,550,550,550,550,550,550,550,550,550,550,550,550,526,505,505,499,407,346,306,268,243,240,240,238,235,217,185,98,97,97,80,36,35,32,32,32,32,31,36,54],"timestamp_mouse":[10,30,58,70,90,110,131,150,170,190,210,230,250,270,291,311,330,351,371,391,412,430,450,470,490,510,530,550,570,590,610,631,650,670,690,710,731,750,770,791,810,830,850,871,890,911,930,950,970,990,1010,1031,1051,1070,1090,1110,1132,1150,1170,1190,1210,1230,1250,1270,1291,1310,1331,1351,1370,1390,1410,1430,1450,1470,1490,1510,1531,1550,1571,1590,1610,1630,1650,1670,1690,1710,1730,1750,1770,1790,1811,1830,1850,1870,1890,1910,1931,1950,1970,1990,2010,2031,2050,2070,2091,2110,2130,2150,2170,2190,2210,2230,2251,2270,2290,2310,2330,2350,2370,2390,2411,2430,2450,2470,2491,2512,2531,2550,2570,2590,2610,2630,2650,2670,2690,2710,2731,2750,2770,2790,2810,2830,2850,2870,2890,2910,2930,2951,2970,2990,3010,3030,3050,3070,3090,3110,3130,3150,3170,3190,3210,3230,3250,3270,3290,3310,3330,3350,3370,3390,3410,3430,3450,3470,3491,3510,3531,3551,3571,3590,3610,3630,3650,3671,3691,3710,3731,3750,3770,3790,3810,3830,3851,3871,3891,3910,3932,3950,3970,3990,4010,4031,4050,4070,4090],"xSR":741.5,"ySR":501.8,"xT1":424.9,"yT1":0,"xT2":1058.1,"yT2":0,"toosoon":0,"cond_shown":"equaldotsize","ratio_trial":500,"smaller_num":"9","larger_num":"18","correct_side":2,"subjID":"valentinagutierrez4","gender":"1","age":"9","school":"4"},{"start_time":1552074562726,"click_time":1552074563923,"finger_time":1552074563564,"fix_duration":663.3694581964733,"trial":35,"RT":838,"MT":359,"sideResp":1,"stimulus":"img/900/randomdotsizeEA/L/4_Ratio_900_L_20_R_18.png","xmouse":[811,809,809,809,809,809,809,809,809,809,809,809,809,809,809,809,809,809,809,809,809,809,809,809,809,809,809,809,809,809,809,809,809,809,809,809,809,809,808,802,782,699,593,527,489,471,459,436,433,418,408,405,413,419,425,441,457,477,478,475],"ymouse":[537,538,538,538,538,538,538,538,538,538,538,538,538,538,538,538,538,538,538,538,538,538,538,538,538,538,538,538,538,538,538,538,538,538,538,538,538,538,538,536,519,462,375,324,299,286,276,258,256,241,230,223,218,213,209,195,177,131,106,90],"timestamp_mouse":[16,37,57,76,96,116,137,157,177,196,217,236,256,276,296,316,337,356,376,396,416,436,456,477,496,516,536,556,576,596,616,637,656,676,696,716,736,756,776,797,816,838,856,876,896,917,936,956,976,996,1016,1038,1056,1076,1096,1117,1136,1156,1177,1197],"xSR":741.5,"ySR":501.8,"xT1":424.9,"yT1":0,"xT2":1058.1,"yT2":0,"toosoon":0,"cond_shown":"randomdotsizeEA","ratio_trial":900,"smaller_num":"18","larger_num":"20","correct_side":1,"subjID":"valentinagutierrez4","gender":"1","age":"9","school":"4"},{"start_time":1552074565874,"click_time":1552074567902,"finger_time":1552074566542,"fix_duration":1029.4959436795352,"trial":36,"RT":668,"MT":1360,"sideResp":1,"stimulus":"img/500/randomdotsizeEA/L/5_Ratio_500_L_4_R_2.png","xmouse":[809,809,809,809,809,809,809,809,809,809,809,809,809,809,809,809,809,809,809,809,809,809,809,809,809,809,809,809,809,810,818,836,837,882,922,939,947,951,955,964,981,984,986,987,987,987,987,987,987,987,987,987,987,987,987,987,980,952,914,837,631,595,487,285,169,128,135,144,150,151,155,165,183,196,223,231,232,238,254,286,305,311,313,322,323,344,344,344,344,344,344,344,344,348,349,377,393,416,424,424,424,425],"ymouse":[588,588,588,588,588,587,586,586,584,583,581,581,581,581,581,581,581,581,581,581,581,581,581,581,581,581,581,581,581,579,569,554,553,494,427,347,290,265,246,229,204,201,198,198,198,198,198,198,198,198,198,198,198,198,198,198,203,219,232,237,237,237,237,200,147,95,82,76,75,74,74,74,71,68,61,56,56,56,56,56,54,49,47,42,42,40,40,40,40,40,40,40,40,40,40,41,43,48,51,51,51,51],"timestamp_mouse":[24,39,48,69,88,108,128,148,168,189,208,228,248,268,288,309,328,348,369,388,409,429,448,469,489,508,528,549,568,588,608,628,649,668,688,708,729,748,769,789,808,828,848,869,888,908,928,949,968,988,1009,1028,1048,1069,1088,1108,1128,1148,1168,1189,1208,1229,1248,1268,1289,1308,1329,1348,1368,1388,1409,1429,1448,1468,1489,1509,1529,1548,1568,1588,1608,1628,1648,1668,1688,1708,1729,1748,1768,1788,1808,1828,1848,1868,1888,1908,1928,1949,1968,1988,2008,2028],"xSR":741.5,"ySR":501.8,"xT1":424.9,"yT1":0,"xT2":1058.1,"yT2":0,"toosoon":0,"cond_shown":"randomdotsizeEA","ratio_trial":500,"smaller_num":"2","larger_num":"4","correct_side":1,"subjID":"valentinagutierrez4","gender":"1","age":"9","school":"4"},{"start_time":1552074574646,"click_time":1552074576202,"finger_time":1552074575462,"fix_duration":1422.0569591224146,"trial":37,"RT":816,"MT":740,"sideResp":1,"stimulus":"img/500/equaldotsize/L/8_Ratio_500_L_8_R_4.png","xmouse":[811,815,819,819,819,819,821,823,824,824,824,824,824,824,824,824,824,821,818,815,813,813,813,813,812,811,811,811,809,808,808,808,808,808,808,808,808,808,808,812,840,885,964,984,998,1007,1011,1021,1022,1022,1015,996,815,815,815,815,815,815,815,815,815,815,815,155,167,175,182,190,190,190,190,191,191,193,236,322,407,476],"ymouse":[520,531,536,536,536,536,536,536,536,536,536,536,536,536,536,536,536,537,539,540,541,541,541,541,541,541,541,541,538,531,525,522,522,522,519,516,514,514,513,513,477,402,226,180,160,152,147,108,91,88,83,74,0,0,0,0,0,0,0,0,0,0,0,17,38,58,68,75,75,75,75,73,71,70,79,90,94,76],"timestamp_mouse":[15,35,55,76,95,115,135,156,175,195,216,236,256,276,296,316,336,356,376,396,416,435,456,477,496,516,536,555,575,596,616,636,655,676,696,716,736,756,776,797,816,837,855,876,897,915,935,955,975,996,1016,1036,1056,1076,1095,1115,1135,1155,1175,1196,1215,1235,1255,1276,1295,1315,1335,1356,1376,1395,1416,1436,1456,1477,1495,1516,1536,1556],"xSR":741.5,"ySR":501.8,"xT1":424.9,"yT1":0,"xT2":1058.1,"yT2":0,"toosoon":0,"cond_shown":"equaldotsize","ratio_trial":500,"smaller_num":"4","larger_num":"8","correct_side":1,"subjID":"valentinagutierrez4","gender":"1","age":"9","school":"4"},{"start_time":1552074577873,"click_time":1552074579043,"finger_time":1552074578641,"fix_duration":250,"trial":38,"RT":768,"MT":402,"sideResp":2,"stimulus":"img/900/equaldotanddens/R/3_Ratio_900_L_9_R_10.png","xmouse":[808,808,808,808,808,808,808,808,808,808,808,808,808,808,808,808,808,808,808,808,808,808,808,808,808,808,808,808,808,808,808,808,808,808,808,809,822,840,843,862,883,906,954,968,974,977,977,977,978,986,998,1014,1016,1018,1019,1024,1030,1053,1061],"ymouse":[535,535,535,535,535,535,535,535,535,535,535,535,535,535,535,535,535,535,535,535,535,535,535,535,535,535,535,535,535,535,535,535,535,535,535,535,525,508,506,487,457,386,223,172,153,148,147,147,147,133,116,91,86,83,80,73,68,53,49],"timestamp_mouse":[11,33,48,69,89,109,128,149,169,189,209,229,250,268,288,308,328,349,368,389,408,429,450,470,488,508,529,549,569,589,609,629,649,669,690,709,729,749,768,789,809,829,848,868,889,909,929,949,970,989,1009,1029,1048,1069,1090,1109,1129,1148,1169],"xSR":741.5,"ySR":501.8,"xT1":424.9,"yT1":0,"xT2":1058.1,"yT2":0,"toosoon":0,"cond_shown":"equaldotanddens","ratio_trial":900,"smaller_num":"9","larger_num":"10","correct_side":2,"subjID":"valentinagutierrez4","gender":"1","age":"9","school":"4"},{"start_time":1552074586456,"click_time":1552074587182,"finger_time":1552074586922,"fix_duration":793.8478166781915,"trial":39,"RT":466,"MT":260,"sideResp":2,"stimulus":"img/500/equaldotanddens/R/3_Ratio_500_L_10_R_20.png","xmouse":[823,823,823,823,823,823,823,823,823,823,823,823,823,823,823,823,823,823,823,823,824,827,836,864,877,887,905,920,947,995,1008,1013,1017,1020,1038,1053,1072],"ymouse":[569,569,569,569,569,569,569,569,569,569,569,569,569,569,569,569,569,569,569,569,569,563,544,480,448,425,392,366,327,238,206,186,174,167,132,105,90],"timestamp_mouse":[9,35,46,65,85,106,126,145,165,185,206,226,246,265,286,307,327,345,366,386,406,427,445,466,486,506,527,547,566,587,606,625,645,666,686,706,726],"xSR":741.5,"ySR":501.8,"xT1":424.9,"yT1":0,"xT2":1058.1,"yT2":0,"toosoon":0,"cond_shown":"equaldotanddens","ratio_trial":500,"smaller_num":"10","larger_num":"20","correct_side":2,"subjID":"valentinagutierrez4","gender":"1","age":"9","school":"4"},{"start_time":1552074589321,"click_time":1552074590963,"finger_time":1552074589682,"fix_duration":1257.8322204144936,"trial":40,"RT":361,"MT":1281,"sideResp":2,"stimulus":"img/250/randomdotsizeEA/R/9_Ratio_250_L_3_R_12.png","xmouse":[823,823,823,823,823,823,823,823,823,823,823,825,825,825,825,825,826,827,827,827,827,827,827,827,827,827,827,827,827,827,827,827,827,827,827,827,827,827,827,827,827,825,822,814,805,795,786,786,786,785,779,765,762,761,759,756,749,747,746,746,746,746,746,746,746,746,746,746,747,753,765,799,799,806,825,858,958,1010,1044,1062,1082,1107,1144],"ymouse":[536,536,536,536,536,536,536,536,536,536,536,533,531,530,530,526,519,508,495,485,481,480,480,480,480,480,480,480,480,480,480,480,480,480,480,480,479,478,476,474,473,462,448,426,401,382,364,364,364,359,346,326,322,321,320,317,312,312,311,311,311,311,311,311,311,311,311,310,308,304,297,284,284,283,280,275,255,233,208,186,154,114,77],"timestamp_mouse":[10,29,40,61,82,101,121,141,161,182,200,222,242,260,280,302,321,341,361,381,401,421,441,461,481,502,522,541,560,580,602,621,641,661,681,702,721,741,761,781,802,821,841,861,882,900,921,940,961,980,1000,1020,1041,1061,1082,1100,1121,1141,1161,1181,1200,1222,1241,1261,1281,1302,1321,1341,1361,1380,1400,1420,1440,1461,1480,1501,1521,1541,1560,1581,1601,1621,1641],"xSR":741.5,"ySR":501.8,"xT1":424.9,"yT1":0,"xT2":1058.1,"yT2":0,"toosoon":0,"cond_shown":"randomdotsizeEA","ratio_trial":250,"smaller_num":"3","larger_num":"12","correct_side":2,"subjID":"valentinagutierrez4","gender":"1","age":"9","school":"4"},{"start_time":1552074597477,"click_time":1552074598582,"finger_time":1552074597961,"fix_duration":553.5697777719372,"trial":41,"RT":484,"MT":621,"sideResp":2,"stimulus":"img/500/randomdotsizeEA/L/13_Ratio_500_L_12_R_6.png","xmouse":[786,786,786,786,786,786,786,786,786,786,786,786,786,786,786,786,786,786,793,797,802,806,813,823,849,865,882,905,925,968,1030,1071,1115,1156,1193,1195,1196,1196,1196,1196,1196,1191,1189,1183,1167,1164,1162,1161,1160,1160,1160,1160,1160,1160,1160,1157],"ymouse":[568,568,568,568,568,568,568,568,568,568,568,568,568,568,568,568,568,568,559,553,546,540,533,524,489,466,443,416,394,351,293,253,211,134,31,16,9,9,9,9,9,8,8,10,20,24,27,30,30,30,30,30,30,30,31,35],"timestamp_mouse":[9,25,45,66,86,105,125,145,165,185,204,226,245,265,284,304,325,345,366,385,404,425,445,464,484,505,526,546,566,585,604,624,646,666,686,705,724,744,765,785,806,825,845,866,885,906,925,944,966,984,1004,1024,1044,1064,1084,1105],"xSR":741.5,"ySR":501.8,"xT1":424.9,"yT1":0,"xT2":1058.1,"yT2":0,"toosoon":0,"cond_shown":"randomdotsizeEA","ratio_trial":500,"smaller_num":"6","larger_num":"12","correct_side":1,"subjID":"valentinagutierrez4","gender":"1","age":"9","school":"4"},{"start_time":1552074603293,"click_time":1552074604863,"finger_time":1552074604302,"fix_duration":1368.492496557212,"trial":42,"RT":1009,"MT":561,"sideResp":2,"stimulus":"img/900/equaldotanddens/R/11_Ratio_900_L_18_R_20.png","xmouse":[788,788,788,788,788,788,788,788,788,788,788,788,788,788,788,788,788,788,788,788,788,788,788,788,788,788,788,788,788,788,788,789,789,789,789,793,806,815,815,815,815,815,815,815,816,828,832,832,833,837,843,849,852,853,860,883,935,957,973,1013,1016,1012,1003,1003,1003,1003,1005,1005,1005,1005,1005,1005,1005,1005,1005,1005,1005,1005,1112],"ymouse":[583,583,583,583,583,583,583,583,583,583,583,583,583,583,583,583,583,583,583,583,583,583,583,583,583,583,583,583,583,583,583,583,583,583,583,582,573,563,552,552,552,552,552,552,541,514,509,509,509,509,509,509,509,509,509,506,467,404,352,159,34,19,2,2,2,2,1,1,1,1,1,1,1,1,1,1,1,1,4],"timestamp_mouse":[9,33,49,70,89,110,130,150,169,189,209,229,249,269,289,309,329,349,368,388,409,429,449,468,488,509,529,548,569,589,609,629,649,670,689,709,729,749,768,788,809,829,850,870,889,909,929,949,969,990,1009,1028,1048,1069,1089,1110,1128,1148,1169,1190,1210,1230,1249,1269,1290,1309,1329,1349,1370,1389,1409,1429,1449,1469,1488,1509,1528,1548,1569],"xSR":741.5,"ySR":501.8,"xT1":424.9,"yT1":0,"xT2":1058.1,"yT2":0,"toosoon":0,"cond_shown":"equaldotanddens","ratio_trial":900,"smaller_num":"18","larger_num":"20","correct_side":2,"subjID":"valentinagutierrez4","gender":"1","age":"9","school":"4"},{"start_time":1552074608853,"click_time":1552074609941,"finger_time":1552074609422,"fix_duration":250,"trial":43,"RT":569,"MT":519,"sideResp":1,"stimulus":"img/750/equaldotsize/L/9_Ratio_750_L_4_R_3.png","xmouse":[788,789,791,791,791,792,792,792,792,792,792,793,793,793,794,795,799,801,802,802,802,802,803,804,805,805,806,806,806,803,800,797,797,797,797,797,797,797,797,797,797,797,797,797,797,797,797,795,789,776,752,660,605,539,521],"ymouse":[538,538,537,537,537,536,536,536,536,536,535,534,534,534,532,532,523,519,518,518,518,518,517,515,513,510,506,504,499,491,481,470,470,470,470,470,470,470,470,469,469,469,469,469,469,468,460,451,440,423,395,276,184,64,12],"timestamp_mouse":[9,29,50,68,89,109,128,149,169,190,210,229,248,268,289,310,329,348,369,389,409,428,448,468,489,510,529,548,569,590,609,629,649,669,688,709,730,749,769,790,808,829,849,869,890,909,928,948,968,988,1010,1029,1049,1069,1088],"xSR":741.5,"ySR":501.8,"xT1":424.9,"yT1":0,"xT2":1058.1,"yT2":0,"toosoon":0,"cond_shown":"equaldotsize","ratio_trial":750,"smaller_num":"3","larger_num":"4","correct_side":1,"subjID":"valentinagutierrez4","gender":"1","age":"9","school":"4"},{"start_time":1552074613800,"click_time":1552074615261,"finger_time":1552074614802,"fix_duration":1057.0168327791814,"trial":44,"RT":1002,"MT":459,"sideResp":1,"stimulus":"img/750/randomdotsizeEA/L/13_Ratio_750_L_8_R_6.png","xmouse":[835,835,835,835,835,835,835,835,835,835,835,835,835,835,835,835,835,835,834,832,820,818,817,817,817,817,816,815,814,814,814,814,814,814,814,814,814,814,814,814,814,814,814,814,814,814,813,810,803,790,745,710,677,641,591,577,567,564,564,565,567,574,578,579,579,579,579,579,579,579,571,553,536,521],"ymouse":[583,583,583,583,583,583,583,583,583,583,583,583,583,583,583,583,583,583,581,578,563,560,560,559,559,559,557,556,554,554,554,554,554,554,554,554,554,554,554,554,554,554,554,554,554,554,553,550,544,533,486,443,399,345,250,198,169,163,162,157,150,133,111,89,74,74,74,74,74,74,73,71,71,71],"timestamp_mouse":[9,21,44,61,82,103,121,142,162,182,201,222,241,262,281,301,323,342,361,382,403,423,442,462,482,502,521,542,561,581,602,622,641,661,681,702,722,741,762,782,803,821,841,862,883,902,921,942,962,981,1002,1022,1043,1063,1083,1101,1122,1143,1163,1182,1201,1222,1242,1262,1284,1302,1322,1341,1361,1381,1402,1423,1443,1461],"xSR":741.5,"ySR":501.8,"xT1":424.9,"yT1":0,"xT2":1058.1,"yT2":0,"toosoon":0,"cond_shown":"randomdotsizeEA","ratio_trial":750,"smaller_num":"6","larger_num":"8","correct_side":1,"subjID":"valentinagutierrez4","gender":"1","age":"9","school":"4"},{"start_time":1552074616972,"click_time":1552074617982,"finger_time":1552074617802,"fix_duration":709.0973733805539,"trial":45,"RT":830,"MT":180,"sideResp":1,"stimulus":"img/250/equaldotsize/L/5_Ratio_250_L_24_R_6.png","xmouse":[805,805,805,805,805,805,805,805,805,805,805,805,805,805,805,805,805,805,805,805,805,805,805,805,805,805,805,805,805,806,806,806,806,806,806,806,806,806,806,803,791,716,677,657,649,644,629,578,524,491,483],"ymouse":[528,528,528,528,528,528,528,528,528,528,528,528,528,528,528,528,528,528,528,528,528,528,528,528,528,527,527,527,527,526,526,525,525,525,525,525,525,524,522,516,506,452,430,419,414,411,386,312,214,116,61],"timestamp_mouse":[9,31,50,69,89,109,130,149,169,190,209,230,250,269,290,311,329,349,369,389,409,430,449,469,491,511,531,549,569,590,610,630,650,670,690,709,730,751,770,791,810,830,851,871,889,909,930,950,969,990,1010],"xSR":741.5,"ySR":501.8,"xT1":424.9,"yT1":0,"xT2":1058.1,"yT2":0,"toosoon":0,"cond_shown":"equaldotsize","ratio_trial":250,"smaller_num":"6","larger_num":"24","correct_side":1,"subjID":"valentinagutierrez4","gender":"1","age":"9","school":"4"},{"start_time":1552074620913,"click_time":1552074622182,"finger_time":1552074621742,"fix_duration":250,"trial":46,"RT":829,"MT":440,"sideResp":2,"stimulus":"img/900/equaldotsize/L/10_Ratio_900_L_20_R_18.png","xmouse":[841,841,841,841,841,841,839,835,831,825,823,820,817,813,808,808,808,808,808,808,808,808,808,808,808,808,809,811,812,814,814,814,814,814,814,816,817,818,822,834,840,846,853,861,869,886,898,905,914,929,940,947,954,960,967,987,1003,1022,1033,1044,1065,1072,1080,1088],"ymouse":[553,553,553,553,553,553,553,552,551,549,549,549,549,548,547,547,547,547,547,547,547,547,547,547,547,547,546,545,545,543,543,543,543,543,542,541,541,540,539,532,526,520,513,502,492,464,445,435,423,398,385,375,365,356,344,312,290,255,237,214,174,149,122,97],"timestamp_mouse":[9,39,49,69,88,109,128,149,168,189,209,229,249,269,289,309,330,350,370,390,408,429,449,470,489,508,529,549,569,589,609,630,649,669,689,708,729,749,770,789,809,829,850,869,889,909,929,950,969,990,1008,1029,1049,1069,1090,1108,1129,1149,1170,1189,1209,1228,1249,1269],"xSR":741.5,"ySR":501.8,"xT1":424.9,"yT1":0,"xT2":1058.1,"yT2":0,"toosoon":0,"cond_shown":"equaldotsize","ratio_trial":900,"smaller_num":"18","larger_num":"20","correct_side":1,"subjID":"valentinagutierrez4","gender":"1","age":"9","school":"4"},{"start_time":1552074624265,"click_time":1552074625762,"finger_time":1552074625302,"fix_duration":642.5103706688319,"trial":47,"RT":1037,"MT":460,"sideResp":2,"stimulus":"img/250/equaldotanddens/R/13_Ratio_250_L_2_R_8.png","xmouse":[814,814,814,813,813,811,811,811,811,811,810,810,805,799,795,791,782,780,778,777,777,777,777,776,774,769,765,765,765,765,765,764,764,764,764,764,764,764,764,763,763,762,760,760,760,760,760,764,775,788,806,819,848,858,867,878,897,957,977,988,994,1001,1006,1010,1017,1023,1028,1034,1036,1040,1043,1052,1054,1056,1059],"ymouse":[551,551,551,551,552,553,553,553,553,553,553,553,553,553,555,556,565,568,572,573,573,573,573,577,578,582,586,586,586,586,586,586,586,586,586,586,586,586,582,577,572,569,564,562,559,558,556,549,543,532,517,496,432,411,389,370,353,317,305,295,286,267,249,224,196,177,164,148,142,133,122,96,90,87,82],"timestamp_mouse":[17,37,57,77,97,118,137,157,176,197,217,237,258,277,298,317,338,358,376,396,416,438,458,476,498,516,538,556,577,597,616,637,656,676,698,717,738,757,778,797,816,837,857,877,897,916,938,957,976,996,1017,1037,1057,1076,1097,1117,1137,1157,1177,1197,1217,1238,1257,1277,1296,1316,1337,1357,1376,1397,1418,1438,1456,1478,1497],"xSR":741.5,"ySR":501.8,"xT1":424.9,"yT1":0,"xT2":1058.1,"yT2":0,"toosoon":0,"cond_shown":"equaldotanddens","ratio_trial":250,"smaller_num":"2","larger_num":"8","correct_side":2,"subjID":"valentinagutierrez4","gender":"1","age":"9","school":"4"},{"start_time":1552074638879,"click_time":1552074639924,"finger_time":1552074639664,"fix_duration":255.38510628554278,"trial":48,"RT":785,"MT":260,"sideResp":2,"stimulus":"img/900/equaldotsize/R/13_Ratio_900_L_18_R_20.png","xmouse":[810,810,810,810,810,810,810,810,810,810,810,810,810,810,810,810,810,810,810,810,810,810,810,810,810,810,810,810,810,810,810,810,810,810,810,810,811,814,829,850,859,904,942,1003,1014,1021,1022,1024,1027,1029,1041,1058,1076],"ymouse":[557,557,557,557,557,557,557,557,557,557,557,557,557,557,557,557,557,557,557,557,557,557,557,557,557,557,557,557,557,557,557,557,557,557,557,557,552,549,529,498,484,409,328,188,168,155,150,147,144,141,127,112,96],"timestamp_mouse":[11,33,44,64,83,103,123,143,164,183,204,225,243,264,283,303,323,343,363,384,403,423,444,464,483,504,523,543,563,583,604,623,644,663,685,704,723,743,763,785,804,824,843,864,883,904,924,944,964,983,1004,1023,1045],"xSR":741.5,"ySR":501.8,"xT1":424.9,"yT1":0,"xT2":1058.1,"yT2":0,"toosoon":0,"cond_shown":"equaldotsize","ratio_trial":900,"smaller_num":"18","larger_num":"20","correct_side":2,"subjID":"valentinagutierrez4","gender":"1","age":"9","school":"4"},{"start_time":1552074641388,"click_time":1552074641862,"finger_time":1552074641742,"fix_duration":703.3386231516588,"trial":49,"RT":354,"MT":120,"sideResp":2,"stimulus":"img/250/equaldotsize/R/4_Ratio_250_L_3_R_12.png","xmouse":[787,787,787,787,787,787,787,787,787,787,787,787,787,791,796,807,826,849,913,953,1006,1058,1135,1153],"ymouse":[537,537,537,537,537,537,537,537,537,537,537,537,537,536,533,528,518,505,463,427,356,275,112,60],"timestamp_mouse":[15,39,54,74,94,114,134,156,174,194,215,235,254,274,294,314,334,354,375,395,415,435,456,474],"xSR":741.5,"ySR":501.8,"xT1":424.9,"yT1":0,"xT2":1058.1,"yT2":0,"toosoon":0,"cond_shown":"equaldotsize","ratio_trial":250,"smaller_num":"3","larger_num":"12","correct_side":2,"subjID":"valentinagutierrez4","gender":"1","age":"9","school":"4"},{"start_time":1552074644362,"click_time":1552074645383,"finger_time":1552074644843,"fix_duration":879.4632145568961,"trial":50,"RT":481,"MT":540,"sideResp":1,"stimulus":"img/250/equaldotanddens/L/14_Ratio_250_L_12_R_3.png","xmouse":[798,798,798,798,798,798,798,798,798,798,798,798,798,798,798,798,798,798,798,798,798,801,808,826,839,871,883,888,893,895,895,895,893,882,876,824,784,729,669,614,571,561,554,543,531,510,500,497,496,495,499,501],"ymouse":[579,579,579,579,579,579,579,579,579,579,579,579,579,579,579,579,579,579,579,579,575,564,547,509,482,413,386,363,340,322,301,298,295,294,292,291,291,291,291,281,268,261,250,230,209,175,157,142,131,125,106,90],"timestamp_mouse":[9,31,40,61,80,101,121,140,160,180,201,220,241,261,281,300,320,341,360,381,401,420,440,461,481,500,521,540,560,580,600,620,640,660,680,700,721,741,760,782,800,821,841,860,881,901,920,941,960,980,1000,1021],"xSR":741.5,"ySR":501.8,"xT1":424.9,"yT1":0,"xT2":1058.1,"yT2":0,"toosoon":0,"cond_shown":"equaldotanddens","ratio_trial":250,"smaller_num":"3","larger_num":"12","correct_side":1,"subjID":"valentinagutierrez4","gender":"1","age":"9","school":"4"},{"start_time":1552074647573,"click_time":1552074648403,"finger_time":1552074648243,"fix_duration":1109.9346267203528,"trial":51,"RT":670,"MT":160,"sideResp":2,"stimulus":"img/900/equaldotanddens/L/10_Ratio_900_L_20_R_18.png","xmouse":[817,817,817,818,819,819,819,819,819,819,819,819,819,819,819,819,819,819,819,820,823,825,827,827,827,827,827,827,827,827,827,828,835,848,901,939,966,995,1023,1074,1097,1134],"ymouse":[560,560,559,558,557,556,556,556,556,556,555,555,555,555,555,555,555,555,555,555,552,550,549,549,549,549,549,549,549,549,549,549,545,540,514,479,444,387,322,216,169,91],"timestamp_mouse":[11,33,50,69,89,109,130,149,169,189,210,229,249,269,289,309,329,349,369,390,410,429,450,469,491,509,529,549,569,590,610,629,649,670,690,710,729,749,769,791,809,829],"xSR":741.5,"ySR":501.8,"xT1":424.9,"yT1":0,"xT2":1058.1,"yT2":0,"toosoon":0,"cond_shown":"equaldotanddens","ratio_trial":900,"smaller_num":"18","larger_num":"20","correct_side":1,"subjID":"valentinagutierrez4","gender":"1","age":"9","school":"4"},{"start_time":1552074651168,"click_time":1552074652483,"finger_time":1552074652063,"fix_duration":1282.3501725339172,"trial":52,"RT":895,"MT":420,"sideResp":2,"stimulus":"img/900/randomdotsizeEA/R/14_Ratio_900_L_18_R_20.png","xmouse":[789,789,789,789,789,789,789,789,788,787,785,784,784,784,784,784,784,784,784,784,784,784,784,784,784,785,786,786,786,787,788,790,790,790,790,790,791,791,791,792,792,794,796,798,802,806,806,808,810,811,814,817,827,837,852,881,897,914,932,963,1002,1022,1042,1050,1058,1062],"ymouse":[539,539,539,539,539,539,539,539,538,537,534,533,532,532,532,532,532,532,532,532,532,532,532,532,531,530,530,530,530,530,529,529,529,529,529,529,529,529,528,528,528,527,524,518,501,449,427,416,413,410,407,404,398,391,380,363,357,348,340,321,280,241,166,96,33,6],"timestamp_mouse":[14,36,54,74,95,114,134,154,175,196,215,234,255,274,294,314,334,355,374,394,414,434,454,474,494,514,534,554,574,595,615,635,654,674,694,714,734,754,774,794,814,834,855,875,895,915,935,955,974,996,1014,1035,1055,1075,1095,1115,1134,1154,1174,1195,1214,1236,1254,1274,1295,1314],"xSR":741.5,"ySR":501.8,"xT1":424.9,"yT1":0,"xT2":1058.1,"yT2":0,"toosoon":0,"cond_shown":"randomdotsizeEA","ratio_trial":900,"smaller_num":"18","larger_num":"20","correct_side":2,"subjID":"valentinagutierrez4","gender":"1","age":"9","school":"4"},{"start_time":1552074654661,"click_time":1552074655483,"finger_time":1552074655082,"fix_duration":918.6732141484556,"trial":53,"RT":421,"MT":401,"sideResp":2,"stimulus":"img/750/equaldotanddens/R/11_Ratio_750_L_12_R_16.png","xmouse":[818,818,818,818,818,818,818,818,818,818,818,818,818,818,818,818,818,818,818,819,820,832,842,858,863,865,866,867,869,872,880,910,934,960,993,1008,1017,1020,1028,1039,1061,1093],"ymouse":[506,506,506,506,506,506,506,506,506,506,506,506,506,506,506,506,506,506,506,504,503,490,476,449,437,430,426,424,422,420,418,405,391,372,334,307,270,256,237,214,165,93],"timestamp_mouse":[10,32,41,62,82,101,121,141,161,181,201,221,241,263,281,302,322,341,361,382,401,421,441,461,482,502,522,542,561,582,602,621,641,662,681,702,721,742,763,781,801,822],"xSR":741.5,"ySR":501.8,"xT1":424.9,"yT1":0,"xT2":1058.1,"yT2":0,"toosoon":0,"cond_shown":"equaldotanddens","ratio_trial":750,"smaller_num":"12","larger_num":"16","correct_side":2,"subjID":"valentinagutierrez4","gender":"1","age":"9","school":"4"},{"start_time":1552074658680,"click_time":1552074659444,"finger_time":1552074659183,"fix_duration":676.4587052111281,"trial":54,"RT":503,"MT":261,"sideResp":2,"stimulus":"img/500/equaldotanddens/R/3_Ratio_500_L_10_R_20.png","xmouse":[828,828,828,828,828,828,828,828,828,828,828,828,828,828,828,828,828,828,828,828,828,828,828,833,840,845,857,866,875,875,875,886,899,912,930,959,1057,1113,1156],"ymouse":[554,554,554,554,554,554,554,554,554,554,554,554,554,554,554,554,554,554,554,554,554,554,551,535,521,510,482,462,445,444,440,413,393,376,355,325,195,116,53],"timestamp_mouse":[12,34,42,62,84,102,122,143,163,182,202,222,242,262,282,302,322,342,363,382,403,422,443,462,483,503,522,542,562,582,602,622,642,662,684,704,722,743,764],"xSR":741.5,"ySR":501.8,"xT1":424.9,"yT1":0,"xT2":1058.1,"yT2":0,"toosoon":0,"cond_shown":"equaldotanddens","ratio_trial":500,"smaller_num":"10","larger_num":"20","correct_side":2,"subjID":"valentinagutierrez4","gender":"1","age":"9","school":"4"},{"start_time":1552074661336,"click_time":1552074662343,"finger_time":1552074662082,"fix_duration":250,"trial":55,"RT":746,"MT":261,"sideResp":2,"stimulus":"img/900/equaldotanddens/R/5_Ratio_900_L_9_R_10.png","xmouse":[771,771,771,772,772,772,772,773,773,773,774,774,774,775,775,775,775,775,775,775,775,775,775,775,776,777,778,780,784,786,788,789,790,795,798,804,818,837,863,880,898,922,934,974,1026,1079,1122,1138,1148,1149,1156],"ymouse":[580,580,580,580,580,580,579,579,577,577,577,576,576,575,575,575,575,575,575,575,575,575,575,575,574,573,572,568,564,562,560,559,556,548,544,531,514,494,474,456,437,417,409,375,325,263,203,173,143,132,99],"timestamp_mouse":[9,26,46,66,86,106,126,146,167,187,207,227,246,266,286,306,327,346,366,387,406,426,446,466,486,507,526,547,566,586,606,626,647,666,687,706,726,746,767,787,806,826,846,867,887,906,926,947,966,987,1007],"xSR":741.5,"ySR":501.8,"xT1":424.9,"yT1":0,"xT2":1058.1,"yT2":0,"toosoon":0,"cond_shown":"equaldotanddens","ratio_trial":900,"smaller_num":"9","larger_num":"10","correct_side":2,"subjID":"valentinagutierrez4","gender":"1","age":"9","school":"4"},{"start_time":1552074663854,"click_time":1552074664822,"finger_time":1552074664402,"fix_duration":250,"trial":56,"RT":548,"MT":420,"sideResp":1,"stimulus":"img/250/equaldotsize/L/5_Ratio_250_L_24_R_6.png","xmouse":[833,833,833,833,833,833,833,833,833,833,833,833,833,833,833,833,833,833,833,833,833,833,833,833,833,833,836,844,851,854,860,862,862,864,865,866,866,847,835,804,758,709,635,623,613,601,584,543,524],"ymouse":[530,530,530,530,530,530,530,530,530,530,530,530,530,530,530,530,530,530,530,530,530,530,530,530,530,530,525,516,503,495,482,476,476,468,456,442,426,377,359,325,286,244,163,143,127,114,101,75,69],"timestamp_mouse":[18,28,50,69,89,109,128,148,169,189,208,228,248,268,288,309,328,348,369,388,409,428,448,468,488,509,528,548,568,588,608,628,648,669,688,708,728,748,768,788,809,828,849,868,888,909,928,949,968],"xSR":741.5,"ySR":501.8,"xT1":424.9,"yT1":0,"xT2":1058.1,"yT2":0,"toosoon":0,"cond_shown":"equaldotsize","ratio_trial":250,"smaller_num":"6","larger_num":"24","correct_side":1,"subjID":"valentinagutierrez4","gender":"1","age":"9","school":"4"},{"start_time":1552074667424,"click_time":1552074668503,"finger_time":1552074668142,"fix_duration":1380.1365412561006,"trial":57,"RT":718,"MT":361,"sideResp":2,"stimulus":"img/750/randomdotsizeEA/R/4_Ratio_750_L_15_R_20.png","xmouse":[764,764,764,764,764,764,764,764,764,764,764,764,764,764,764,764,764,764,764,764,764,764,764,764,764,766,767,772,775,784,786,787,789,800,806,819,825,853,860,882,905,922,930,939,948,963,979,998,1013,1046,1059,1079,1099,1125],"ymouse":[536,536,536,536,536,536,536,536,536,536,536,536,536,536,536,536,536,536,536,536,536,536,536,536,536,536,536,536,534,530,529,528,527,516,509,494,489,455,447,423,392,367,355,339,327,308,286,263,247,209,191,163,135,95],"timestamp_mouse":[20,38,58,78,98,118,138,158,178,198,218,238,258,279,298,318,338,358,378,398,418,439,458,479,499,518,538,558,578,598,618,638,659,680,698,718,740,758,778,798,818,838,859,880,898,919,939,959,980,999,1018,1038,1059,1079],"xSR":741.5,"ySR":501.8,"xT1":424.9,"yT1":0,"xT2":1058.1,"yT2":0,"toosoon":0,"cond_shown":"randomdotsizeEA","ratio_trial":750,"smaller_num":"15","larger_num":"20","correct_side":2,"subjID":"valentinagutierrez4","gender":"1","age":"9","school":"4"},{"start_time":1552074670942,"click_time":1552074672943,"finger_time":1552074672603,"fix_duration":1058.21717215311,"trial":58,"RT":1661,"MT":340,"sideResp":2,"stimulus":"img/250/equaldotsize/R/13_Ratio_250_L_2_R_8.png","xmouse":[775,775,775,775,775,775,775,775,775,775,775,775,775,775,775,775,775,775,775,775,775,775,775,775,775,775,775,775,775,775,775,775,775,775,775,775,775,775,775,775,775,775,775,775,775,775,775,775,775,775,775,775,775,775,775,775,775,775,775,775,775,775,775,775,775,775,775,775,775,775,775,775,775,775,775,775,775,775,775,776,783,794,813,861,1007,1091,1120,1120,1123,1128,1132,1133,1133,1135,1135,1135,1135,1132,1128,1126,1118],"ymouse":[595,595,595,595,595,595,595,595,595,595,595,595,595,595,595,595,595,595,595,595,595,595,595,595,595,595,595,595,595,595,595,595,595,595,595,595,595,595,595,595,595,595,595,595,595,595,595,595,595,595,595,595,595,595,595,595,595,595,595,595,595,595,595,595,595,595,595,595,595,595,595,595,595,595,595,595,595,595,596,597,595,592,585,561,412,300,245,245,241,232,223,220,219,214,201,189,175,154,133,115,80],"timestamp_mouse":[4,21,40,60,80,100,120,140,160,180,202,220,240,260,280,301,320,340,360,380,401,420,440,460,482,501,520,540,560,580,600,620,640,660,681,700,720,740,761,780,801,820,840,860,882,901,920,940,960,980,1001,1022,1040,1060,1080,1100,1121,1141,1161,1182,1201,1221,1241,1260,1281,1300,1321,1340,1360,1380,1400,1420,1440,1460,1480,1500,1520,1541,1560,1580,1601,1622,1640,1661,1681,1700,1720,1742,1762,1780,1801,1821,1841,1861,1880,1900,1921,1940,1960,1981,2001],"xSR":741.5,"ySR":501.8,"xT1":424.9,"yT1":0,"xT2":1058.1,"yT2":0,"toosoon":0,"cond_shown":"equaldotsize","ratio_trial":250,"smaller_num":"2","larger_num":"8","correct_side":2,"subjID":"valentinagutierrez4","gender":"1","age":"9","school":"4"},{"start_time":1552074675195,"click_time":1552074676382,"finger_time":1552074675983,"fix_duration":1110.171655014304,"trial":59,"RT":788,"MT":399,"sideResp":1,"stimulus":"img/900/equaldotsize/L/1_Ratio_900_L_10_R_9.png","xmouse":[812,812,812,812,812,812,812,812,812,812,812,812,812,810,810,810,810,810,810,810,810,810,810,810,810,810,810,810,810,810,810,810,810,810,810,810,810,808,795,771,749,694,675,666,655,655,655,655,655,655,655,655,655,655,655,655,655,655,655,458],"ymouse":[542,542,542,542,542,542,542,542,542,542,542,542,542,542,542,542,542,542,542,542,542,542,542,542,542,542,542,542,542,542,542,542,542,542,542,542,542,540,523,489,447,308,225,133,41,41,41,41,41,41,41,41,41,41,41,41,41,41,41,35],"timestamp_mouse":[11,28,48,69,88,107,127,147,167,187,207,227,247,267,287,307,327,348,367,387,407,428,447,467,487,508,527,548,567,587,607,627,647,667,687,707,727,748,767,788,807,828,847,867,888,907,929,947,968,988,1007,1028,1048,1067,1088,1107,1129,1148,1168,1187],"xSR":741.5,"ySR":501.8,"xT1":424.9,"yT1":0,"xT2":1058.1,"yT2":0,"toosoon":0,"cond_shown":"equaldotsize","ratio_trial":900,"smaller_num":"9","larger_num":"10","correct_side":1,"subjID":"valentinagutierrez4","gender":"1","age":"9","school":"4"},{"start_time":1552074679108,"click_time":1552074680622,"finger_time":1552074680042,"fix_duration":1245.147025250916,"trial":60,"RT":934,"MT":580,"sideResp":1,"stimulus":"img/250/equaldotanddens/L/7_Ratio_250_L_8_R_2.png","xmouse":[787,787,787,787,787,787,787,787,787,787,787,787,787,787,787,787,787,787,787,787,787,787,787,787,787,787,787,787,787,787,787,787,787,787,787,787,787,787,787,787,787,787,787,787,787,781,729,691,659,624,615,604,600,597,589,576,548,538,533,532,532,543,551,551,549,547,545,544,544,544,544,541,536,531,525,517],"ymouse":[575,575,575,575,575,575,575,575,575,575,575,575,575,575,575,575,575,575,575,575,575,575,575,575,575,575,575,575,575,575,575,575,575,575,575,575,575,575,575,575,575,575,575,561,549,516,440,405,382,361,356,347,343,339,326,308,269,253,240,219,210,171,121,103,87,81,76,75,75,75,75,70,64,59,55,52],"timestamp_mouse":[15,34,54,74,94,115,134,154,175,194,214,236,254,274,294,315,335,355,375,395,414,434,455,474,495,515,534,554,574,594,614,635,654,674,694,714,735,755,774,794,814,836,856,874,894,914,934,955,974,995,1015,1034,1055,1075,1095,1114,1135,1156,1175,1194,1214,1234,1255,1274,1294,1314,1334,1354,1374,1394,1415,1434,1454,1475,1494,1514],"xSR":741.5,"ySR":501.8,"xT1":424.9,"yT1":0,"xT2":1058.1,"yT2":0,"toosoon":0,"cond_shown":"equaldotanddens","ratio_trial":250,"smaller_num":"2","larger_num":"8","correct_side":1,"subjID":"valentinagutierrez4","gender":"1","age":"9","school":"4"},{"start_time":1552074686977,"click_time":1552074688182,"finger_time":1552074687342,"fix_duration":832.0525120772345,"trial":61,"RT":365,"MT":840,"sideResp":1,"stimulus":"img/500/equaldotsize/L/8_Ratio_500_L_8_R_4.png","xmouse":[797,797,797,797,801,802,802,802,802,802,802,802,802,802,804,806,807,807,807,801,797,792,781,777,774,774,774,774,774,774,770,767,763,760,745,739,727,727,727,687,682,680,677,675,660,654,649,644,639,627,620,612,603,596,584,582,579,572,561,528,519],"ymouse":[542,542,542,542,540,537,537,537,537,537,537,537,537,537,535,530,522,512,499,470,457,445,427,421,418,418,418,417,411,392,381,375,369,364,347,343,336,336,336,307,297,285,257,232,175,155,137,119,104,76,70,68,67,66,64,63,63,63,62,64,66],"timestamp_mouse":[12,29,46,65,85,105,125,145,165,186,205,226,245,265,285,305,325,345,365,385,405,425,445,466,486,505,525,545,567,585,605,627,645,665,686,706,725,746,767,785,805,825,845,865,886,905,925,946,966,985,1006,1026,1046,1067,1086,1106,1126,1145,1166,1186,1205],"xSR":741.5,"ySR":501.8,"xT1":424.9,"yT1":0,"xT2":1058.1,"yT2":0,"toosoon":0,"cond_shown":"equaldotsize","ratio_trial":500,"smaller_num":"4","larger_num":"8","correct_side":1,"subjID":"valentinagutierrez4","gender":"1","age":"9","school":"4"},{"start_time":1552074693333,"click_time":1552074694502,"finger_time":1552074693883,"fix_duration":250,"trial":62,"RT":550,"MT":619,"sideResp":2,"stimulus":"img/250/randomdotsizeEA/L/5_Ratio_250_L_24_R_6.png","xmouse":[820,818,817,817,817,817,816,815,813,813,813,813,813,813,813,813,813,813,813,813,813,813,812,812,814,819,828,857,875,890,895,910,964,970,970,975,980,983,983,983,983,1009,1076,1118,1145,1166,1179,1185,1185,1185,1185,1185,1185,1185,1185,1185,1183,1160,1142],"ymouse":[587,587,587,587,587,587,587,587,587,587,587,587,587,587,587,587,587,587,587,587,587,587,581,573,562,550,531,482,452,421,409,378,292,284,281,273,268,266,266,266,266,248,204,180,166,145,125,112,112,112,112,112,112,112,112,111,110,99,91],"timestamp_mouse":[9,31,49,70,89,109,129,150,169,189,209,231,249,270,289,309,329,349,370,390,409,430,449,470,489,511,529,550,570,589,610,629,649,669,690,709,730,749,770,789,809,832,849,869,889,909,931,950,969,989,1010,1030,1049,1069,1089,1109,1129,1149,1169],"xSR":741.5,"ySR":501.8,"xT1":424.9,"yT1":0,"xT2":1058.1,"yT2":0,"toosoon":0,"cond_shown":"randomdotsizeEA","ratio_trial":250,"smaller_num":"6","larger_num":"24","correct_side":1,"subjID":"valentinagutierrez4","gender":"1","age":"9","school":"4"},{"start_time":1552074696379,"click_time":1552074697883,"finger_time":1552074697323,"fix_duration":913.9809659813111,"trial":63,"RT":944,"MT":560,"sideResp":2,"stimulus":"img/750/equaldotanddens/R/2_Ratio_750_L_6_R_8.png","xmouse":[804,804,804,804,804,804,804,804,804,804,804,804,804,804,804,804,804,804,804,804,804,804,804,804,804,804,804,804,804,804,804,804,804,804,804,804,804,804,804,804,804,804,804,804,804,805,818,850,877,974,1098,1132,1152,1163,1171,1183,1188,1191,1194,1194,1193,1191,1188,1185,1179,1174,1170,1166,1163,1162,1159,1159,1159,1159,1159,1158],"ymouse":[572,572,572,572,572,572,572,572,572,572,572,572,572,572,572,572,572,572,572,572,572,572,572,572,572,572,572,572,572,572,572,572,572,572,572,572,572,572,572,572,572,572,572,572,572,571,559,540,521,442,348,325,306,287,265,205,176,153,135,124,102,92,83,77,69,67,66,66,66,66,66,66,66,66,66,66],"timestamp_mouse":[13,24,43,62,82,103,123,142,164,183,203,223,243,263,282,302,323,342,363,383,403,424,443,463,482,503,523,543,562,583,603,623,644,662,683,702,723,743,763,784,803,823,844,863,883,903,922,944,963,982,1003,1023,1043,1064,1083,1103,1123,1144,1163,1184,1202,1223,1242,1262,1282,1303,1323,1343,1362,1382,1403,1423,1444,1463,1483,1504],"xSR":741.5,"ySR":501.8,"xT1":424.9,"yT1":0,"xT2":1058.1,"yT2":0,"toosoon":0,"cond_shown":"equaldotanddens","ratio_trial":750,"smaller_num":"6","larger_num":"8","correct_side":2,"subjID":"valentinagutierrez4","gender":"1","age":"9","school":"4"},{"start_time":1552074701377,"click_time":1552074703082,"finger_time":1552074702082,"fix_duration":1393.3382895860748,"trial":64,"RT":705,"MT":1000,"sideResp":2,"stimulus":"img/900/randomdotsizeEA/L/10_Ratio_900_L_20_R_18.png","xmouse":[813,813,813,813,813,813,813,813,813,813,813,813,813,813,813,813,813,813,813,813,813,813,813,813,813,816,822,823,824,826,828,833,836,839,841,842,842,842,842,844,869,897,933,983,1039,1185,1249,1300,1300,1300,1300,1300,1300,1300,1300,1300,1300,1300,1300,1300,1300,1300,1300,1300,1300,1300,1300,1300,1300,1300,1300,1300,1300,1300,1300,1300,1227,1220,1212,1204,1197,1185,1180,1174,1169,1158],"ymouse":[546,546,546,546,546,546,546,546,546,546,546,546,546,546,546,546,546,546,546,546,546,546,546,546,545,542,536,535,534,533,531,523,519,515,512,510,510,510,509,507,481,455,419,371,311,141,64,7,7,7,7,7,7,7,7,7,7,7,7,7,7,7,7,7,7,7,7,7,7,7,7,7,7,7,7,7,0,3,8,14,20,29,35,40,46,60],"timestamp_mouse":[10,39,45,66,86,105,125,145,165,186,204,225,245,265,285,306,325,345,365,385,405,425,444,465,486,506,525,546,565,586,605,626,646,666,685,705,725,745,765,785,807,825,845,866,885,907,924,945,964,985,1005,1025,1045,1065,1085,1105,1125,1145,1165,1184,1204,1224,1244,1264,1284,1304,1325,1346,1366,1386,1406,1425,1445,1464,1485,1505,1524,1545,1566,1585,1605,1626,1644,1666,1685,1705],"xSR":741.5,"ySR":501.8,"xT1":424.9,"yT1":0,"xT2":1058.1,"yT2":0,"toosoon":0,"cond_shown":"randomdotsizeEA","ratio_trial":900,"smaller_num":"18","larger_num":"20","correct_side":1,"subjID":"valentinagutierrez4","gender":"1","age":"9","school":"4"},{"start_time":1552074705033,"click_time":1552074706102,"finger_time":1552074705861,"fix_duration":590.2592458199059,"trial":65,"RT":828,"MT":241,"sideResp":2,"stimulus":"img/900/randomdotsizeEA/L/4_Ratio_900_L_20_R_18.png","xmouse":[796,796,796,796,796,796,796,796,796,796,796,796,796,796,796,797,800,801,802,802,802,803,805,809,810,810,810,810,810,810,810,810,810,810,810,810,812,813,822,831,841,852,864,896,918,942,964,980,1012,1022,1030,1033,1046,1094],"ymouse":[558,558,558,558,558,558,558,558,558,558,558,558,558,558,558,559,559,558,557,557,557,556,555,551,551,551,551,551,551,551,551,551,551,551,551,551,548,548,543,536,528,519,505,450,399,343,298,262,194,180,167,164,145,86],"timestamp_mouse":[12,32,50,70,89,109,129,149,170,189,209,229,249,269,289,309,330,350,368,389,410,429,448,469,490,509,529,548,569,589,609,629,648,668,689,709,730,749,769,788,808,828,849,869,888,909,930,949,969,989,1009,1029,1049,1069],"xSR":741.5,"ySR":501.8,"xT1":424.9,"yT1":0,"xT2":1058.1,"yT2":0,"toosoon":0,"cond_shown":"randomdotsizeEA","ratio_trial":900,"smaller_num":"18","larger_num":"20","correct_side":1,"subjID":"valentinagutierrez4","gender":"1","age":"9","school":"4"},{"start_time":1552074709263,"click_time":1552074723143,"finger_time":1552074709723,"fix_duration":658.867786197738,"trial":66,"RT":460,"MT":13420,"sideResp":1,"stimulus":"img/500/equaldotanddens/L/4_Ratio_500_L_18_R_9.png","xmouse":[746,746,746,746,746,746,746,746,746,746,746,746,746,746,746,746,746,746,746,746,746,746,744,737,730,724,718,714,705,702,701,699,691,683,674,665,655,632,616,604,591,573,554,516,496,481,469,459,451,450,450,450,449,449,449,449,449,449,449,449,449,449,449,449,449,449,449,449,449,449,449,449,449,449,449,449,449,449,449,449,449,449,449,449,449,449,449,449,449,449,449,449,449,449,449,449,449,449,449