[{"start_time":1552054945064,"click_time":1552054948212,"finger_time":1552054945074,"fix_duration":1405.8333047677947,"trial":0,"RT":10,"MT":3138,"sideResp":2,"stimulus":"img/900/randomdotsizeEA/R/12_Ratio_900_L_18_R_20.png","xmouse":[790,790,790,790,790,790,790,790,790,790,790,790,790,790,790,790,790,790,790,790,790,790,790,790,790,790,790,790,790,790,790,790,790,790,790,790,790,790,790,790,788,786,785,785,784,784,784,783,783,783,783,782,782,781,781,781,781,781,781,781,781,778,778,778,778,778,778,778,778,778,778,778,778,781,782,787,801,813,823,835,839,852,855,856,856,856,853,850,847,847,847,843,836,830,822,812,789,777,771,769,766,766,766,766,770,776,803,820,837,852,866,870,871,871,871,871,871,871,871,871,870,870,870,870,875,885,912,916,926,952,974,994,1042,1068,1097,1118,1141,1147,1152,1161,1167,1173,1173,1174,1175,1175,1175,1175,1175,1174,1171,1167,1161,1154,1146,1134,1129,1128],"ymouse":[536,536,536,536,536,536,536,536,536,536,536,536,536,536,536,536,536,536,536,536,536,536,536,536,536,536,536,536,536,536,536,536,536,536,536,536,536,536,536,537,545,555,559,562,563,565,567,570,572,573,575,579,579,579,579,581,582,585,587,592,597,604,606,607,608,609,609,609,609,609,609,609,609,610,610,610,610,605,600,591,587,566,558,552,546,541,533,530,529,529,529,529,538,546,557,572,605,621,633,639,647,648,648,648,647,644,633,625,618,610,599,583,574,569,566,563,562,562,562,561,560,560,560,559,550,535,488,473,452,419,394,376,345,331,315,301,283,277,273,263,257,249,246,245,243,240,231,228,224,219,212,206,196,174,147,111,100,99],"timestamp_mouse":[10,27,47,67,87,108,128,148,167,187,208,228,247,267,288,307,328,347,367,387,408,428,448,467,487,507,527,548,567,588,607,628,648,668,688,708,727,748,767,788,808,827,848,868,887,907,927,948,968,988,1007,1027,1047,1068,1088,1108,1128,1148,1168,1187,1207,1227,1248,1267,1288,1308,1327,1348,1368,1387,1407,1427,1448,1467,1488,1508,1527,1548,1568,1587,1608,1627,1647,1668,1687,1707,1727,1747,1768,1787,1808,1828,1848,1867,1888,1907,1927,1948,1967,1987,2007,2027,2047,2068,2088,2108,2127,2147,2167,2188,2207,2227,2247,2267,2288,2307,2328,2348,2368,2387,2407,2427,2448,2468,2487,2508,2527,2547,2567,2588,2608,2628,2648,2667,2688,2707,2727,2747,2767,2787,2807,2828,2848,2867,2888,2908,2927,2947,2968,2988,3008,3028,3048,3067,3088,3107,3128,3147],"xSR":741.5,"ySR":501.8,"xT1":424.9,"yT1":0,"xT2":1058.1,"yT2":0,"toosoon":0,"cond_shown":"randomdotsizeEA","ratio_trial":900,"smaller_num":"18","larger_num":"20","correct_side":2,"subjID":"DannaRamos10","gender":"1","age":"9","school":"4","test":{"fix_dur":[250,1500],"timestim":300,"targets_dim":[100,100],"targets_relative_coord":[0.3,0.7],"size_stim":[880,420],"start_dim":[100,100],"size_start":[300,300],"size_fix":60,"samplingrate":20,"img_types":["equaldotsize","equaldotanddens","randomdotsizeEA"],"ratios":[250,500,750,900],"rep_conds":9,"nTrials":120,"trials_to_rest":500,"Trials_order":[59,83,4,111,105,2,49,20,92,33,70,97,82,44,21,46,89,8,77,63,114,60,62,110,100,84,26,11,13,101,117,48,113,115,38,12,15,119,57,1,102,45,5,10,107,109,116,43,14,106,51,80,7,69,40,29,24,112,71,35,73,39,17,31,16,27,72,18,36,74,64,103,108,99,88,41,67,55,19,91,53,85,98,90,65,61,79,6,96,58,95,47,52,93,37,9,78,66,76,81,32,28,86,23,68,30,50,94,104,22,0,54,118,42,56,75,87,3,25,34],"cond_shown":["randomdotsizeEA","randomdotsizeEA","equaldotanddens","equaldotsize","equaldotsize","randomdotsizeEA","equaldotanddens","randomdotsizeEA","randomdotsizeEA","equaldotsize","equaldotanddens","equaldotanddens","equaldotanddens","randomdotsizeEA","equaldotsize","equaldotanddens","randomdotsizeEA","randomdotsizeEA","randomdotsizeEA","equaldotsize","equaldotsize","equaldotsize","randomdotsizeEA","randomdotsizeEA","equaldotanddens","equaldotsize","randomdotsizeEA","randomdotsizeEA","equaldotanddens","randomdotsizeEA","equaldotsize","equaldotsize","randomdotsizeEA","equaldotanddens","randomdotsizeEA","equaldotsize","equaldotsize","randomdotsizeEA","equaldotsize","equaldotanddens","equaldotsize","equaldotsize","randomdotsizeEA","equaldotanddens","randomdotsizeEA","equaldotanddens","randomdotsizeEA","equaldotanddens","randomdotsizeEA","equaldotanddens","equaldotsize","randomdotsizeEA","equaldotanddens","equaldotsize","equaldotanddens","randomdotsizeEA","equaldotsize","equaldotanddens","randomdotsizeEA","randomdotsizeEA","equaldotanddens","equaldotsize","randomdotsizeEA","equaldotanddens","equaldotanddens","equaldotsize","equaldotsize","equaldotsize","equaldotsize","randomdotsizeEA","equaldotanddens","equaldotanddens","equaldotsize","equaldotsize","equaldotanddens","randomdotsizeEA","equaldotanddens","equaldotanddens","equaldotanddens","equaldotanddens","randomdotsizeEA","equaldotanddens","randomdotsizeEA","equaldotsize","randomdotsizeEA","equaldotanddens","equaldotanddens","equaldotsize","equaldotsize","equaldotanddens","randomdotsizeEA","randomdotsizeEA","equaldotanddens","equaldotsize","equaldotanddens","equaldotsize","equaldotsize","equaldotsize","equaldotanddens","equaldotsize","randomdotsizeEA","equaldotanddens","randomdotsizeEA","randomdotsizeEA","randomdotsizeEA","equaldotsize","randomdotsizeEA","equaldotanddens","randomdotsizeEA","equaldotanddens","equaldotsize","equaldotsize","equaldotanddens","equaldotsize","randomdotsizeEA","equaldotsize","equaldotsize","equaldotsize","equaldotanddens","equaldotanddens"],"ratio_trial":[900,900,500,500,900,250,250,750,750,900,900,250,900,750,900,900,500,750,500,500,750,250,250,250,500,250,250,900,250,500,900,250,500,750,250,250,500,900,900,250,750,900,500,900,900,250,750,750,250,900,500,750,750,900,500,500,250,500,900,900,250,500,500,750,500,500,250,750,250,250,500,750,250,500,500,500,750,750,750,750,500,250,250,750,500,250,750,750,250,900,900,900,500,900,250,900,750,750,500,900,750,500,250,900,750,750,250,900,750,900,250,750,900,750,750,500,500,500,250,900],"smaller_num":["18","9","6","1","18","2","2","18","3","18","18","2","9","3","18","9","1","18","9","9","6","4","3","6","9","3","2","18","4","9","18","2","5","6","2","3","1","18","18","2","15","18","6","18","18","2","3","15","3","18","2","6","9","9","2","9","2","1","18","9","6","6","10","6","9","5","2","6","6","4","10","9","3","10","1","2","6","3","18","3","2","5","6","6","6","2","6","12","6","18","18","18","2","18","4","18","15","3","6","18","15","9","2","18","15","3","3","9","15","9","2","12","18","3","15","6","9","1","3","9"],"larger_num":["20","10","12","2","20","8","8","24","4","20","20","8","10","4","20","10","2","24","18","18","8","16","12","24","18","12","8","20","16","18","20","8","10","8","8","12","2","20","20","8","20","20","12","20","20","8","4","20","12","20","4","8","12","10","4","18","8","2","20","10","24","12","20","8","18","10","8","8","24","16","20","12","12","20","2","4","8","4","24","4","4","20","24","8","12","8","8","16","24","20","20","20","4","20","16","20","20","4","12","20","20","18","8","20","20","4","12","10","20","10","8","16","20","4","20","12","18","2","12","10"],"correct_side":[2,2,1,2,1,1,1,1,1,1,2,1,2,1,2,2,2,1,2,2,1,2,1,2,2,2,2,2,1,1,1,1,1,1,1,2,2,1,1,1,2,1,1,1,2,1,1,1,2,1,1,1,2,2,1,2,1,2,2,2,2,1,2,1,2,1,1,1,2,1,2,2,1,2,2,1,1,2,1,1,2,2,2,1,1,2,1,2,2,2,1,1,1,1,2,1,2,2,1,1,2,1,2,1,2,1,2,2,2,2,1,2,1,2,2,1,2,2,2,2],"img_shown":["img/900/randomdotsizeEA/R/12_Ratio_900_L_18_R_20.png","img/900/randomdotsizeEA/R/6_Ratio_900_L_9_R_10.png","img/500/equaldotanddens/L/11_Ratio_500_L_12_R_6.png","img/500/equaldotsize/R/15_Ratio_500_L_1_R_2.png","img/900/equaldotsize/L/10_Ratio_900_L_20_R_18.png","img/250/randomdotsizeEA/L/1_Ratio_250_L_8_R_2.png","img/250/equaldotanddens/L/3_Ratio_250_L_8_R_2.png","img/750/randomdotsizeEA/L/6_Ratio_750_L_24_R_18.png","img/750/randomdotsizeEA/L/9_Ratio_750_L_4_R_3.png","img/900/equaldotsize/L/4_Ratio_900_L_20_R_18.png","img/900/equaldotanddens/R/12_Ratio_900_L_18_R_20.png","img/250/equaldotanddens/L/3_Ratio_250_L_8_R_2.png","img/900/equaldotanddens/R/5_Ratio_900_L_9_R_10.png","img/750/randomdotsizeEA/L/9_Ratio_750_L_4_R_3.png","img/900/equaldotsize/R/12_Ratio_900_L_18_R_20.png","img/900/equaldotanddens/R/3_Ratio_900_L_9_R_10.png","img/500/randomdotsizeEA/R/15_Ratio_500_L_1_R_2.png","img/750/randomdotsizeEA/L/6_Ratio_750_L_24_R_18.png","img/500/randomdotsizeEA/R/1_Ratio_500_L_9_R_18.png","img/500/equaldotsize/R/6_Ratio_500_L_9_R_18.png","img/750/equaldotsize/L/13_Ratio_750_L_8_R_6.png","img/250/equaldotsize/R/10_Ratio_250_L_4_R_16.png","img/250/randomdotsizeEA/L/15_Ratio_250_L_12_R_3.png","img/250/randomdotsizeEA/R/6_Ratio_250_L_6_R_24.png","img/500/equaldotanddens/R/6_Ratio_500_L_9_R_18.png","img/250/equaldotsize/R/4_Ratio_250_L_3_R_12.png","img/250/randomdotsizeEA/R/13_Ratio_250_L_2_R_8.png","img/900/randomdotsizeEA/R/14_Ratio_900_L_18_R_20.png","img/250/equaldotanddens/L/2_Ratio_250_L_16_R_4.png","img/500/randomdotsizeEA/L/4_Ratio_500_L_18_R_9.png","img/900/equaldotsize/L/2_Ratio_900_L_20_R_18.png","img/250/equaldotsize/L/7_Ratio_250_L_8_R_2.png","img/500/randomdotsizeEA/L/7_Ratio_500_L_10_R_5.png","img/750/equaldotanddens/L/14_Ratio_750_L_8_R_6.png","img/250/randomdotsizeEA/L/1_Ratio_250_L_8_R_2.png","img/250/equaldotsize/R/9_Ratio_250_L_3_R_12.png","img/500/equaldotsize/R/12_Ratio_500_L_1_R_2.png","img/900/randomdotsizeEA/L/2_Ratio_900_L_20_R_18.png","img/900/equaldotsize/L/10_Ratio_900_L_20_R_18.png","img/250/equaldotanddens/L/1_Ratio_250_L_8_R_2.png","img/750/equaldotsize/R/3_Ratio_750_L_15_R_20.png","img/900/equaldotsize/L/8_Ratio_900_L_20_R_18.png","img/500/randomdotsizeEA/L/13_Ratio_500_L_12_R_6.png","img/900/equaldotanddens/L/4_Ratio_900_L_20_R_18.png","img/900/randomdotsizeEA/R/11_Ratio_900_L_18_R_20.png","img/250/equaldotanddens/L/7_Ratio_250_L_8_R_2.png","img/750/randomdotsizeEA/L/10_Ratio_750_L_4_R_3.png","img/750/equaldotanddens/L/1_Ratio_750_L_20_R_15.png","img/250/randomdotsizeEA/R/11_Ratio_250_L_3_R_12.png","img/900/equaldotanddens/L/2_Ratio_900_L_20_R_18.png","img/500/equaldotsize/L/5_Ratio_500_L_4_R_2.png","img/750/randomdotsizeEA/L/13_Ratio_750_L_8_R_6.png","img/750/equaldotanddens/R/15_Ratio_750_L_9_R_12.png","img/900/equaldotsize/R/3_Ratio_900_L_9_R_10.png","img/500/equaldotanddens/L/10_Ratio_500_L_4_R_2.png","img/500/randomdotsizeEA/R/1_Ratio_500_L_9_R_18.png","img/250/equaldotsize/L/1_Ratio_250_L_8_R_2.png","img/500/equaldotanddens/R/12_Ratio_500_L_1_R_2.png","img/900/randomdotsizeEA/R/11_Ratio_900_L_18_R_20.png","img/900/randomdotsizeEA/R/3_Ratio_900_L_9_R_10.png","img/250/equaldotanddens/R/6_Ratio_250_L_6_R_24.png","img/500/equaldotsize/L/13_Ratio_500_L_12_R_6.png","img/500/randomdotsizeEA/R/3_Ratio_500_L_10_R_20.png","img/750/equaldotanddens/L/13_Ratio_750_L_8_R_6.png","img/500/equaldotanddens/R/1_Ratio_500_L_9_R_18.png","img/500/equaldotsize/L/7_Ratio_500_L_10_R_5.png","img/250/equaldotsize/L/3_Ratio_250_L_8_R_2.png","img/750/equaldotsize/L/14_Ratio_750_L_8_R_6.png","img/250/equaldotsize/R/6_Ratio_250_L_6_R_24.png","img/250/randomdotsizeEA/L/2_Ratio_250_L_16_R_4.png","img/500/equaldotanddens/R/3_Ratio_500_L_10_R_20.png","img/750/equaldotanddens/R/15_Ratio_750_L_9_R_12.png","img/250/equaldotsize/L/14_Ratio_250_L_12_R_3.png","img/500/equaldotsize/R/3_Ratio_500_L_10_R_20.png","img/500/equaldotanddens/R/12_Ratio_500_L_1_R_2.png","img/500/randomdotsizeEA/L/10_Ratio_500_L_4_R_2.png","img/750/equaldotanddens/L/14_Ratio_750_L_8_R_6.png","img/750/equaldotanddens/R/12_Ratio_750_L_3_R_4.png","img/750/equaldotanddens/L/6_Ratio_750_L_24_R_18.png","img/750/equaldotanddens/L/10_Ratio_750_L_4_R_3.png","img/500/randomdotsizeEA/R/9_Ratio_500_L_2_R_4.png","img/250/equaldotanddens/R/12_Ratio_250_L_5_R_20.png","img/250/randomdotsizeEA/R/6_Ratio_250_L_6_R_24.png","img/750/equaldotsize/L/14_Ratio_750_L_8_R_6.png","img/500/randomdotsizeEA/L/11_Ratio_500_L_12_R_6.png","img/250/equaldotanddens/R/13_Ratio_250_L_2_R_8.png","img/750/equaldotanddens/L/14_Ratio_750_L_8_R_6.png","img/750/equaldotsize/R/11_Ratio_750_L_12_R_16.png","img/250/equaldotsize/R/6_Ratio_250_L_6_R_24.png","img/900/equaldotanddens/R/13_Ratio_900_L_18_R_20.png","img/900/randomdotsizeEA/L/10_Ratio_900_L_20_R_18.png","img/900/randomdotsizeEA/L/10_Ratio_900_L_20_R_18.png","img/500/equaldotanddens/L/10_Ratio_500_L_4_R_2.png","img/900/equaldotsize/L/10_Ratio_900_L_20_R_18.png","img/250/equaldotanddens/R/10_Ratio_250_L_4_R_16.png","img/900/equaldotsize/L/10_Ratio_900_L_20_R_18.png","img/750/equaldotsize/R/4_Ratio_750_L_15_R_20.png","img/750/equaldotsize/R/7_Ratio_750_L_3_R_4.png","img/500/equaldotanddens/L/13_Ratio_500_L_12_R_6.png","img/900/equaldotsize/L/4_Ratio_900_L_20_R_18.png","img/750/randomdotsizeEA/R/3_Ratio_750_L_15_R_20.png","img/500/equaldotanddens/L/4_Ratio_500_L_18_R_9.png","img/250/randomdotsizeEA/R/13_Ratio_250_L_2_R_8.png","img/900/randomdotsizeEA/L/8_Ratio_900_L_20_R_18.png","img/750/randomdotsizeEA/R/3_Ratio_750_L_15_R_20.png","img/750/equaldotsize/L/10_Ratio_750_L_4_R_3.png","img/250/randomdotsizeEA/R/4_Ratio_250_L_3_R_12.png","img/900/equaldotanddens/R/6_Ratio_900_L_9_R_10.png","img/750/randomdotsizeEA/R/3_Ratio_750_L_15_R_20.png","img/900/equaldotanddens/R/6_Ratio_900_L_9_R_10.png","img/250/equaldotsize/L/7_Ratio_250_L_8_R_2.png","img/750/equaldotsize/R/11_Ratio_750_L_12_R_16.png","img/900/equaldotanddens/L/4_Ratio_900_L_20_R_18.png","img/750/equaldotsize/R/12_Ratio_750_L_3_R_4.png","img/750/randomdotsizeEA/R/5_Ratio_750_L_15_R_20.png","img/500/equaldotsize/L/11_Ratio_500_L_12_R_6.png","img/500/equaldotsize/R/1_Ratio_500_L_9_R_18.png","img/500/equaldotsize/R/15_Ratio_500_L_1_R_2.png","img/250/equaldotanddens/R/9_Ratio_250_L_3_R_12.png","img/900/equaldotanddens/R/3_Ratio_900_L_9_R_10.png"],"Rat0":[["12_Ratio_0_L_9_R_0.png","13_Ratio_0_L_6_R_0.png","5_Ratio_0_L_2_R_0.png","6_Ratio_0_L_4_R_0.png","8_Ratio_0_L_6_R_0.png"],["1_Ratio_0_L_0_R_17.png","10_Ratio_0_L_0_R_22.png","11_Ratio_0_L_0_R_1.png","14_Ratio_0_L_0_R_24.png","15_Ratio_0_L_0_R_4.png","2_Ratio_0_L_0_R_5.png","3_Ratio_0_L_0_R_17.png","4_Ratio_0_L_0_R_7.png","7_Ratio_0_L_0_R_19.png","9_Ratio_0_L_0_R_15.png"]],"Rat250":[["1_Ratio_250_L_8_R_2.png","14_Ratio_250_L_12_R_3.png","15_Ratio_250_L_12_R_3.png","2_Ratio_250_L_16_R_4.png","3_Ratio_250_L_8_R_2.png","5_Ratio_250_L_24_R_6.png","7_Ratio_250_L_8_R_2.png"],["10_Ratio_250_L_4_R_16.png","11_Ratio_250_L_3_R_12.png","12_Ratio_250_L_5_R_20.png","13_Ratio_250_L_2_R_8.png","4_Ratio_250_L_3_R_12.png","6_Ratio_250_L_6_R_24.png","8_Ratio_250_L_1_R_4.png","9_Ratio_250_L_3_R_12.png"]],"Rat500":[["10_Ratio_500_L_4_R_2.png","11_Ratio_500_L_12_R_6.png","13_Ratio_500_L_12_R_6.png","4_Ratio_500_L_18_R_9.png","5_Ratio_500_L_4_R_2.png","7_Ratio_500_L_10_R_5.png","8_Ratio_500_L_8_R_4.png"],["1_Ratio_500_L_9_R_18.png","12_Ratio_500_L_1_R_2.png","14_Ratio_500_L_5_R_10.png","15_Ratio_500_L_1_R_2.png","2_Ratio_500_L_3_R_6.png","3_Ratio_500_L_10_R_20.png","6_Ratio_500_L_9_R_18.png","9_Ratio_500_L_2_R_4.png"]],"Rat750":[["1_Ratio_750_L_20_R_15.png","10_Ratio_750_L_4_R_3.png","13_Ratio_750_L_8_R_6.png","14_Ratio_750_L_8_R_6.png","6_Ratio_750_L_24_R_18.png","8_Ratio_750_L_4_R_3.png","9_Ratio_750_L_4_R_3.png"],["11_Ratio_750_L_12_R_16.png","12_Ratio_750_L_3_R_4.png","15_Ratio_750_L_9_R_12.png","2_Ratio_750_L_6_R_8.png","3_Ratio_750_L_15_R_20.png","4_Ratio_750_L_15_R_20.png","5_Ratio_750_L_15_R_20.png","7_Ratio_750_L_3_R_4.png"]],"Rat900":[["1_Ratio_900_L_10_R_9.png","10_Ratio_900_L_20_R_18.png","2_Ratio_900_L_20_R_18.png","4_Ratio_900_L_20_R_18.png","8_Ratio_900_L_20_R_18.png"],["11_Ratio_900_L_18_R_20.png","12_Ratio_900_L_18_R_20.png","13_Ratio_900_L_18_R_20.png","14_Ratio_900_L_18_R_20.png","15_Ratio_900_L_9_R_10.png","3_Ratio_900_L_9_R_10.png","5_Ratio_900_L_9_R_10.png","6_Ratio_900_L_9_R_10.png","7_Ratio_900_L_9_R_10.png","9_Ratio_900_L_18_R_20.png"]],"Rat1000":[["10_Ratio_1000_L_16_R_16.png","11_Ratio_1000_L_6_R_6.png","12_Ratio_1000_L_14_R_14.png","13_Ratio_1000_L_20_R_20.png","15_Ratio_1000_L_15_R_15.png","2_Ratio_1000_L_17_R_17.png","4_Ratio_1000_L_9_R_9.png","5_Ratio_1000_L_6_R_6.png","6_Ratio_1000_L_19_R_19.png","8_Ratio_1000_L_14_R_14.png","9_Ratio_1000_L_25_R_25.png"],["1_Ratio_1000_L_1_R_1.png","14_Ratio_1000_L_17_R_17.png","3_Ratio_1000_L_17_R_17.png","7_Ratio_1000_L_6_R_6.png"]]}},{"start_time":1552054950484,"click_time":1552054953972,"finger_time":1552054951232,"fix_duration":1149.3121935748447,"trial":1,"RT":748,"MT":2740,"sideResp":2,"stimulus":"img/900/randomdotsizeEA/R/6_Ratio_900_L_9_R_10.png","xmouse":[809,809,809,809,809,809,809,809,809,809,809,809,809,809,809,809,809,809,809,809,809,809,809,809,809,809,809,809,809,809,809,809,810,811,813,817,838,852,871,886,897,911,916,918,919,920,921,921,921,921,921,921,921,921,921,922,930,944,958,971,983,1000,1006,1009,1013,1020,1034,1040,1044,1049,1053,1063,1067,1072,1075,1077,1088,1099,1112,1123,1131,1137,1138,1138,1138,1138,1138,1138,1138,1138,1138,1138,1138,1138,1138,1138,1138,1138,1138,1138,1138,1134,1130,1128,1126,1126,1124,1122,1116,1109,1096,1068,1056,1051,1051,1051,1051,1051,1051,1051,1051,1053,1055,1057,1058,1058,1060,1060,1060,1060,1061,1062,1062,1063,1063,1063,1064,1064,1064,1064,1064,1064,1064,1065,1065,1065,1067,1069,1069,1069,1069,1069,1069,1069,1069,1069,1069,1069,1069,1070,1071,1072,1072,1072,1072,1072,1072,1072,1072,1072,1072,1072,1072,1072,1074],"ymouse":[598,598,598,598,598,598,598,598,598,598,598,598,598,598,598,598,598,598,598,598,598,598,598,598,598,598,598,598,598,598,598,598,600,601,601,601,590,578,559,539,518,490,479,474,470,467,465,465,465,465,465,465,465,465,465,462,451,433,421,411,400,383,375,371,362,350,327,318,308,300,290,273,265,257,252,250,236,218,197,172,150,111,104,103,103,103,103,103,103,103,103,103,103,103,103,103,103,103,103,103,104,108,111,114,115,115,115,117,119,122,124,131,132,132,132,132,132,132,132,132,131,130,128,126,125,125,123,123,123,123,122,121,121,119,119,118,117,116,116,115,115,114,113,112,112,111,107,105,105,105,105,105,105,105,105,105,105,105,104,103,102,101,101,101,101,101,101,101,101,101,101,101,100,100,99],"timestamp_mouse":[14,44,47,68,87,107,128,147,167,188,208,227,249,267,287,307,328,347,367,388,408,427,448,467,488,507,528,548,567,588,607,627,647,668,687,708,727,748,767,787,807,828,847,867,888,907,927,947,968,988,1007,1027,1047,1069,1087,1108,1127,1147,1167,1188,1207,1227,1248,1267,1287,1307,1327,1348,1367,1388,1407,1427,1449,1467,1487,1508,1527,1548,1567,1587,1608,1627,1648,1667,1687,1707,1727,1747,1768,1787,1808,1827,1847,1868,1887,1908,1928,1947,1967,1987,2007,2027,2048,2067,2087,2108,2127,2147,2167,2188,2207,2227,2248,2268,2289,2307,2327,2347,2367,2388,2407,2427,2447,2467,2489,2508,2527,2548,2568,2587,2607,2627,2648,2667,2687,2708,2727,2747,2767,2787,2808,2827,2847,2867,2888,2909,2927,2947,2967,2988,3008,3027,3048,3067,3088,3107,3127,3148,3168,3188,3208,3227,3248,3267,3288,3308,3327,3348,3367,3388,3407,3427,3448,3468,3488],"xSR":741.5,"ySR":573.95,"xT1":424.9,"yT1":0,"xT2":1058.1,"yT2":0,"toosoon":0,"cond_shown":"randomdotsizeEA","ratio_trial":900,"smaller_num":"9","larger_num":"10","correct_side":2,"subjID":"DannaRamos10","gender":"1","age":"9","school":"4"},{"start_time":1552054956746,"click_time":1552054958772,"finger_time":1552054957471,"fix_duration":1412.1753313475886,"trial":2,"RT":725,"MT":1301,"sideResp":1,"stimulus":"img/500/equaldotanddens/L/11_Ratio_500_L_12_R_6.png","xmouse":[803,803,803,803,803,803,803,803,803,803,803,803,803,803,803,803,803,803,803,803,803,803,803,803,803,803,803,803,803,803,803,803,803,801,798,795,791,785,772,766,760,755,747,735,726,721,713,708,693,684,674,656,640,625,622,618,616,613,608,597,586,568,563,562,561,559,557,555,553,547,546,546,546,545,542,542,542,542,542,542,542,542,542,542,542,542,540,536,533,530,530,530,530,530,530,530,530,530,529,527,525,524],"ymouse":[591,591,591,591,591,591,591,591,591,591,591,591,591,591,591,591,591,591,591,591,591,591,591,591,591,591,591,591,591,591,591,591,591,586,582,576,570,561,544,537,530,524,516,501,491,483,470,458,422,401,382,324,281,245,234,225,217,208,198,178,165,141,135,133,131,128,124,120,115,108,105,105,105,104,99,98,98,98,98,98,98,98,98,98,98,98,97,95,95,93,93,93,93,93,93,93,93,93,93,92,92,92],"timestamp_mouse":[14,36,46,66,86,106,126,146,165,186,205,226,245,266,285,305,326,345,365,385,406,426,445,466,485,505,526,545,565,586,605,626,645,666,685,705,725,745,765,785,806,825,845,865,885,905,926,946,965,985,1006,1026,1045,1066,1085,1105,1125,1145,1166,1185,1206,1226,1246,1265,1286,1306,1326,1347,1366,1385,1406,1426,1445,1466,1486,1505,1525,1546,1565,1586,1606,1625,1645,1666,1685,1706,1726,1745,1765,1786,1805,1825,1846,1865,1886,1906,1925,1946,1966,1985,2006,2026],"xSR":741.5,"ySR":573.95,"xT1":424.9,"yT1":0,"xT2":1058.1,"yT2":0,"toosoon":0,"cond_shown":"equaldotanddens","ratio_trial":500,"smaller_num":"6","larger_num":"12","correct_side":1,"subjID":"DannaRamos10","gender":"1","age":"9","school":"4"},{"start_time":1552054961047,"click_time":1552054962951,"finger_time":1552054961912,"fix_duration":1434.5313473370759,"trial":3,"RT":865,"MT":1039,"sideResp":2,"stimulus":"img/500/equaldotsize/R/15_Ratio_500_L_1_R_2.png","xmouse":[814,814,814,814,814,814,814,814,814,814,814,814,814,814,814,814,814,814,814,814,814,814,814,814,814,814,814,814,814,814,814,814,814,814,814,814,814,814,814,814,815,823,834,848,889,915,929,944,956,979,996,1018,1034,1045,1072,1073,1073,1073,1073,1073,1073,1072,1069,1065,1059,1059,1059,1059,1059,1056,1054,1051,1051,1051,1051,1051,1051,1051,1051,1051,1051,1051,1051,1051,1051,1051,1051,1051,1051,1051,1051,1051,1051,1053,1058,1062],"ymouse":[621,621,621,621,621,621,621,621,621,621,621,621,621,621,621,621,621,621,621,621,621,621,621,621,621,621,621,621,621,621,621,621,621,621,621,621,621,621,621,620,614,606,593,578,551,531,521,510,500,483,468,428,408,394,353,348,348,347,347,343,337,330,318,305,278,247,222,193,162,107,91,82,81,81,81,81,80,79,79,79,79,79,79,79,79,79,79,79,79,79,79,79,79,80,84,86],"timestamp_mouse":[12,35,44,64,84,105,124,144,164,185,204,225,245,264,285,304,324,345,365,384,405,424,445,465,485,504,524,544,564,584,605,624,644,664,684,705,725,744,765,784,804,824,845,865,884,904,924,945,964,984,1005,1025,1044,1066,1084,1104,1125,1144,1165,1184,1204,1224,1245,1265,1284,1304,1324,1344,1364,1384,1405,1424,1444,1465,1485,1505,1524,1545,1564,1584,1605,1625,1645,1664,1684,1704,1726,1746,1764,1784,1805,1825,1845,1864,1884,1904],"xSR":741.5,"ySR":573.95,"xT1":424.9,"yT1":0,"xT2":1058.1,"yT2":0,"toosoon":0,"cond_shown":"equaldotsize","ratio_trial":500,"smaller_num":"1","larger_num":"2","correct_side":2,"subjID":"DannaRamos10","gender":"1","age":"9","school":"4"},{"start_time":1552054965154,"click_time":1552054966411,"finger_time":1552054965872,"fix_duration":1162.8495033207716,"trial":4,"RT":718,"MT":539,"sideResp":2,"stimulus":"img/900/equaldotsize/L/10_Ratio_900_L_20_R_18.png","xmouse":[783,783,783,783,783,783,783,783,783,783,783,783,783,783,783,783,783,783,783,783,783,783,783,783,783,783,783,783,783,783,783,782,781,780,780,782,798,806,880,927,976,1011,1033,1047,1060,1068,1072,1078,1102,1109,1114,1118,1122,1131,1133,1135,1142,1145,1159,1162,1162,1157,1153],"ymouse":[604,604,604,604,604,604,604,604,604,604,604,604,604,604,604,604,604,604,604,604,604,604,604,604,604,604,604,604,604,604,604,601,598,581,576,570,561,557,517,492,468,449,440,433,424,411,403,386,327,309,296,283,272,246,233,223,205,198,161,142,122,104,97],"timestamp_mouse":[17,39,57,77,97,118,138,158,177,197,218,238,257,278,297,317,337,357,378,398,419,437,458,478,498,518,537,557,577,598,618,637,658,677,698,718,737,757,777,797,817,837,857,877,898,917,938,957,977,997,1017,1038,1059,1077,1097,1117,1137,1157,1177,1197,1217,1238,1257],"xSR":741.5,"ySR":573.95,"xT1":424.9,"yT1":0,"xT2":1058.1,"yT2":0,"toosoon":0,"cond_shown":"equaldotsize","ratio_trial":900,"smaller_num":"18","larger_num":"20","correct_side":1,"subjID":"DannaRamos10","gender":"1","age":"9","school":"4"},{"start_time":1552054971721,"click_time":1552054973711,"finger_time":1552054972571,"fix_duration":1467.764425468371,"trial":5,"RT":850,"MT":1140,"sideResp":1,"stimulus":"img/250/randomdotsizeEA/L/1_Ratio_250_L_8_R_2.png","xmouse":[779,779,779,779,779,779,779,779,779,779,779,779,779,779,779,779,779,779,779,779,779,779,779,779,779,779,779,779,779,779,779,779,779,779,779,779,779,779,779,779,781,817,868,912,934,948,962,962,962,962,962,961,956,947,928,898,809,728,682,629,579,460,404,356,308,259,250,250,250,250,250,254,259,268,278,283,292,293,293,293,293,295,305,319,329,335,343,346,351,357,363,368,379,387,392,398,410,417,424,428],"ymouse":[642,642,642,642,642,642,642,642,642,642,642,642,642,642,642,642,642,642,642,642,642,642,642,642,642,642,642,642,642,642,642,642,642,642,642,642,642,642,642,642,642,635,614,582,554,535,522,522,522,522,522,518,511,498,474,437,333,247,204,149,90,0,0,0,0,0,0,0,0,0,0,5,14,32,44,52,61,62,62,62,62,62,65,67,68,68,67,66,65,63,62,62,62,64,65,66,66,66,66,64],"timestamp_mouse":[13,45,51,70,91,110,131,151,171,190,210,231,250,271,291,310,330,350,371,391,411,430,451,470,490,512,531,550,571,590,610,631,651,671,691,710,731,750,771,791,810,830,850,870,890,910,930,951,970,990,1010,1030,1051,1071,1091,1110,1130,1150,1170,1190,1210,1231,1250,1270,1290,1311,1331,1350,1370,1390,1411,1433,1450,1471,1490,1510,1532,1549,1570,1591,1610,1631,1651,1671,1690,1711,1731,1750,1770,1791,1811,1830,1850,1870,1890,1910,1931,1950,1970,1990],"xSR":741.5,"ySR":573.95,"xT1":424.9,"yT1":0,"xT2":1058.1,"yT2":0,"toosoon":0,"cond_shown":"randomdotsizeEA","ratio_trial":250,"smaller_num":"2","larger_num":"8","correct_side":1,"subjID":"DannaRamos10","gender":"1","age":"9","school":"4"},{"start_time":1552054976209,"click_time":1552054977171,"finger_time":1552054976871,"fix_duration":1254.7891504701406,"trial":6,"RT":662,"MT":300,"sideResp":1,"stimulus":"img/250/equaldotanddens/L/3_Ratio_250_L_8_R_2.png","xmouse":[805,805,805,805,805,805,805,805,805,805,805,805,805,805,805,805,805,805,805,805,805,805,805,805,805,805,805,805,805,805,806,814,825,843,845,847,847,847,840,827,813,793,770,712,674,633,587,549,476],"ymouse":[640,640,640,640,640,640,640,640,640,640,640,640,640,640,640,640,640,640,640,640,640,640,640,640,640,640,640,640,640,640,639,632,624,610,607,601,596,591,575,552,532,509,482,412,362,300,230,161,38],"timestamp_mouse":[12,22,42,63,82,104,123,142,164,182,202,223,242,263,283,302,323,343,362,383,402,423,443,466,482,503,522,542,563,582,603,623,643,662,684,703,722,742,762,783,802,822,843,862,882,902,922,942,962],"xSR":741.5,"ySR":573.95,"xT1":424.9,"yT1":0,"xT2":1058.1,"yT2":0,"toosoon":0,"cond_shown":"equaldotanddens","ratio_trial":250,"smaller_num":"2","larger_num":"8","correct_side":1,"subjID":"DannaRamos10","gender":"1","age":"9","school":"4"},{"start_time":1552054978891,"click_time":1552054980071,"finger_time":1552054979752,"fix_duration":696.9026960393293,"trial":7,"RT":861,"MT":319,"sideResp":1,"stimulus":"img/750/randomdotsizeEA/L/6_Ratio_750_L_24_R_18.png","xmouse":[774,774,774,774,774,774,774,774,774,774,774,774,774,774,774,774,774,774,774,774,774,774,774,774,774,774,774,774,774,774,774,774,776,776,776,776,776,777,779,782,786,799,805,817,827,828,828,828,828,828,826,814,809,785,727,673,617,570,536,502],"ymouse":[597,597,597,597,597,597,597,597,597,597,597,597,597,597,597,597,597,597,597,597,597,597,597,597,597,597,597,597,597,597,597,597,596,596,596,596,596,595,593,590,587,579,575,566,560,559,559,559,558,553,544,516,503,452,353,274,203,151,115,84],"timestamp_mouse":[10,37,41,60,81,100,121,140,160,180,200,220,240,261,280,301,320,340,362,381,400,421,440,461,481,501,521,540,562,581,600,620,640,661,680,700,721,740,761,780,800,821,841,861,880,900,920,941,960,981,1001,1020,1041,1060,1081,1102,1122,1140,1161,1180],"xSR":741.5,"ySR":573.95,"xT1":424.9,"yT1":0,"xT2":1058.1,"yT2":0,"toosoon":0,"cond_shown":"randomdotsizeEA","ratio_trial":750,"smaller_num":"18","larger_num":"24","correct_side":1,"subjID":"DannaRamos10","gender":"1","age":"9","school":"4"},{"start_time":1552054981244,"click_time":1552054982512,"finger_time":1552054982272,"fix_duration":250,"trial":8,"RT":1028,"MT":240,"sideResp":1,"stimulus":"img/750/randomdotsizeEA/L/9_Ratio_750_L_4_R_3.png","xmouse":[788,788,788,788,788,788,788,788,788,788,788,788,788,788,788,788,788,788,788,788,788,788,788,788,788,788,788,788,788,788,788,788,788,788,788,788,788,788,793,797,803,808,811,812,812,812,812,812,812,810,805,784,750,735,705,647,566,535,512,497,489,486,483,481],"ymouse":[636,636,636,636,636,636,636,636,636,636,636,636,636,636,636,636,636,636,636,636,636,636,636,636,636,636,636,636,636,636,636,636,636,636,636,636,636,636,630,625,620,616,613,613,613,613,613,613,606,603,591,550,491,467,409,331,228,184,153,134,121,113,100,86],"timestamp_mouse":[12,27,50,67,88,107,128,148,168,188,208,227,248,267,288,308,328,347,368,388,408,427,448,468,488,508,529,548,568,587,608,628,649,668,688,707,728,747,768,788,807,828,848,867,887,908,928,947,967,988,1008,1028,1047,1067,1087,1108,1128,1147,1167,1188,1208,1228,1247,1268],"xSR":741.5,"ySR":573.95,"xT1":424.9,"yT1":0,"xT2":1058.1,"yT2":0,"toosoon":0,"cond_shown":"randomdotsizeEA","ratio_trial":750,"smaller_num":"3","larger_num":"4","correct_side":1,"subjID":"DannaRamos10","gender":"1","age":"9","school":"4"},{"start_time":1552054984545,"click_time":1552054986511,"finger_time":1552054985472,"fix_duration":1052.1388444795246,"trial":9,"RT":927,"MT":1039,"sideResp":1,"stimulus":"img/900/equaldotsize/L/4_Ratio_900_L_20_R_18.png","xmouse":[790,790,790,790,790,790,790,791,791,791,791,791,791,791,791,791,791,791,791,791,791,791,791,791,791,791,791,791,791,791,791,791,791,791,791,791,791,791,791,791,791,791,791,791,789,783,772,744,732,724,716,709,692,672,650,638,632,630,630,627,622,611,583,569,558,550,541,522,505,495,491,490,490,490,490,490,490,490,490,490,490,490,490,490,490,490,490,490,490,490,490,490,490,490,490,490,490,490,490],"ymouse":[609,609,609,609,609,609,608,607,607,607,607,607,607,607,607,607,607,607,607,607,607,607,607,607,607,607,607,607,607,607,607,607,607,607,607,607,607,607,607,607,607,607,607,606,601,589,569,528,511,496,481,465,426,392,348,327,319,316,314,308,296,278,238,218,203,193,183,161,147,138,132,130,129,129,129,129,129,126,122,116,110,105,100,100,100,100,100,100,100,100,100,100,100,100,100,100,100,100,99],"timestamp_mouse":[13,26,46,67,86,106,126,147,166,187,207,226,246,266,287,306,326,347,366,387,406,427,447,467,486,506,528,547,566,586,607,627,646,667,687,707,727,747,766,787,806,826,847,866,887,907,927,946,966,986,1007,1026,1046,1066,1086,1106,1126,1146,1166,1186,1207,1226,1246,1266,1287,1306,1326,1346,1366,1386,1407,1426,1446,1467,1487,1506,1527,1547,1566,1585,1607,1627,1646,1666,1686,1706,1726,1747,1766,1786,1807,1826,1846,1867,1887,1907,1927,1946,1966],"xSR":741.5,"ySR":573.95,"xT1":424.9,"yT1":0,"xT2":1058.1,"yT2":0,"toosoon":0,"cond_shown":"equaldotsize","ratio_trial":900,"smaller_num":"18","larger_num":"20","correct_side":1,"subjID":"DannaRamos10","gender":"1","age":"9","school":"4"},{"start_time":1552054987905,"click_time":1552054988992,"finger_time":1552054988491,"fix_duration":513.8217982898675,"trial":10,"RT":586,"MT":501,"sideResp":2,"stimulus":"img/900/equaldotanddens/R/12_Ratio_900_L_18_R_20.png","xmouse":[814,814,814,814,814,814,814,814,814,814,814,814,814,814,814,814,814,814,814,814,814,814,814,814,814,814,814,814,815,829,839,847,855,862,883,897,907,917,935,978,995,1006,1012,1015,1017,1027,1035,1043,1055,1064,1066,1067,1067,1071,1079],"ymouse":[627,627,627,627,627,627,627,627,627,627,627,627,627,627,627,627,627,627,627,627,627,627,627,627,627,627,627,627,626,573,547,517,488,462,401,368,345,322,280,197,173,160,153,150,148,137,131,125,115,107,106,104,104,101,98],"timestamp_mouse":[13,36,46,67,86,106,127,146,166,187,207,226,247,266,287,307,327,347,367,386,407,427,447,467,486,507,526,547,567,586,607,626,647,668,686,706,726,746,766,786,806,826,846,866,886,906,926,946,966,986,1007,1027,1046,1066,1086],"xSR":741.5,"ySR":573.95,"xT1":424.9,"yT1":0,"xT2":1058.1,"yT2":0,"toosoon":0,"cond_shown":"equaldotanddens","ratio_trial":900,"smaller_num":"18","larger_num":"20","correct_side":2,"subjID":"DannaRamos10","gender":"1","age":"9","school":"4"},{"start_time":1552054992264,"click_time":1552054993551,"finger_time":1552054992931,"fix_duration":811.2847673368983,"trial":11,"RT":667,"MT":620,"sideResp":1,"stimulus":"img/250/equaldotanddens/L/3_Ratio_250_L_8_R_2.png","xmouse":[782,782,782,782,782,782,782,782,782,782,782,782,782,782,782,782,782,782,782,782,782,782,782,782,782,782,782,782,782,782,782,782,772,767,761,756,751,716,696,670,644,606,585,573,569,566,563,557,552,550,550,550,549,549,544,537,528,521,519,517,516,512,498,486,465],"ymouse":[616,616,616,616,616,616,616,616,616,616,616,616,616,616,616,616,616,616,616,616,616,616,616,616,616,616,616,616,616,616,614,602,579,569,562,558,554,529,516,490,454,405,372,353,349,342,338,328,318,311,305,296,263,245,226,207,191,178,175,169,165,157,130,107,82],"timestamp_mouse":[15,27,47,67,88,108,128,148,168,187,208,228,248,268,288,307,328,347,367,389,407,427,447,467,488,508,527,548,568,588,608,627,647,667,687,707,727,747,768,788,807,828,847,867,887,908,927,947,968,987,1007,1027,1047,1068,1087,1107,1129,1147,1168,1187,1208,1227,1247,1267,1287],"xSR":741.5,"ySR":573.95,"xT1":424.9,"yT1":0,"xT2":1058.1,"yT2":0,"toosoon":0,"cond_shown":"equaldotanddens","ratio_trial":250,"smaller_num":"2","larger_num":"8","correct_side":1,"subjID":"DannaRamos10","gender":"1","age":"9","school":"4"},{"start_time":1552054994544,"click_time":1552054995492,"finger_time":1552054995272,"fix_duration":250,"trial":12,"RT":728,"MT":220,"sideResp":2,"stimulus":"img/900/equaldotanddens/R/5_Ratio_900_L_9_R_10.png","xmouse":[814,814,814,814,814,814,814,814,814,814,814,814,814,814,814,814,814,814,814,814,814,814,814,814,814,814,814,814,814,813,813,812,806,803,803,803,809,818,851,869,893,922,955,1023,1048,1071,1087,1098],"ymouse":[606,606,606,606,606,606,606,606,606,606,606,606,606,606,606,606,606,606,606,606,606,606,606,606,606,606,606,606,606,606,605,601,592,588,585,580,572,564,537,519,489,438,368,227,170,132,110,88],"timestamp_mouse":[16,39,47,67,88,108,128,147,167,188,207,227,247,268,287,308,328,348,368,387,407,427,447,467,488,507,528,547,568,587,608,628,649,667,688,707,728,748,767,788,807,827,848,867,887,907,928,948],"xSR":741.5,"ySR":573.95,"xT1":424.9,"yT1":0,"xT2":1058.1,"yT2":0,"toosoon":0,"cond_shown":"equaldotanddens","ratio_trial":900,"smaller_num":"9","larger_num":"10","correct_side":2,"subjID":"DannaRamos10","gender":"1","age":"9","school":"4"},{"start_time":1552054996743,"click_time":1552054997773,"finger_time":1552054997393,"fix_duration":368.9281243365413,"trial":13,"RT":650,"MT":380,"sideResp":1,"stimulus":"img/750/randomdotsizeEA/L/9_Ratio_750_L_4_R_3.png","xmouse":[815,815,815,815,815,815,815,815,815,815,815,815,815,815,815,815,816,817,818,819,819,819,819,819,819,820,819,819,813,806,800,794,782,762,751,740,730,724,720,718,714,708,692,655,634,611,588,568,538,527,517,511],"ymouse":[600,600,600,600,600,600,600,600,600,600,600,600,600,600,600,600,600,600,600,600,600,600,600,600,600,599,597,596,589,584,580,577,569,557,548,538,531,525,518,514,505,489,453,376,328,271,218,179,129,114,103,97],"timestamp_mouse":[12,37,48,69,89,109,128,149,169,188,208,229,250,268,289,308,328,349,369,389,409,428,448,468,489,508,529,549,568,589,608,629,650,668,689,709,730,750,769,789,809,830,850,869,890,908,930,950,969,990,1009,1029],"xSR":741.5,"ySR":573.95,"xT1":424.9,"yT1":0,"xT2":1058.1,"yT2":0,"toosoon":0,"cond_shown":"randomdotsizeEA","ratio_trial":750,"smaller_num":"3","larger_num":"4","correct_side":1,"subjID":"DannaRamos10","gender":"1","age":"9","school":"4"},{"start_time":1552055001439,"click_time":1552055003732,"finger_time":1552055002212,"fix_duration":1444.799848385895,"trial":14,"RT":773,"MT":1520,"sideResp":2,"stimulus":"img/900/equaldotsize/R/12_Ratio_900_L_18_R_20.png","xmouse":[786,786,786,786,786,786,786,786,786,786,786,786,786,786,786,786,786,786,786,786,786,786,786,786,786,786,786,786,786,786,786,786,786,786,786,789,792,803,811,822,824,825,825,810,803,797,776,756,720,701,688,683,681,680,680,680,680,680,680,680,679,677,672,667,653,646,634,628,626,626,626,626,628,645,668,707,739,788,843,940,964,983,996,1006,1015,1018,1021,1025,1027,1029,1030,1033,1038,1049,1052,1054,1055,1056,1056,1057,1059,1061,1061,1062,1063,1063,1063,1063,1063,1063,1063,1063,1063,1063,1063],"ymouse":[623,623,623,623,623,623,623,623,623,623,623,623,623,623,623,623,623,623,623,623,623,623,623,623,623,623,623,623,623,623,623,623,623,623,623,609,600,576,561,539,533,524,518,498,493,488,477,469,451,439,430,423,420,417,417,417,417,417,417,417,407,393,376,359,331,322,310,305,303,303,303,303,303,310,314,314,314,314,307,289,282,276,269,259,238,230,219,212,202,196,187,179,173,154,147,139,133,131,130,129,123,117,112,110,109,109,109,108,106,104,104,104,104,103,99],"timestamp_mouse":[13,38,53,74,93,114,133,154,173,193,214,234,253,274,292,314,333,353,373,393,413,434,453,474,494,514,534,554,574,593,614,634,653,674,693,713,734,754,773,794,813,833,854,873,893,913,933,953,974,993,1012,1032,1053,1074,1092,1113,1133,1153,1174,1194,1213,1233,1253,1273,1293,1313,1333,1354,1373,1393,1413,1434,1453,1474,1493,1514,1533,1553,1573,1594,1614,1633,1652,1673,1693,1713,1733,1754,1774,1793,1813,1833,1853,1874,1893,1913,1932,1953,1973,1993,2014,2033,2053,2074,2093,2112,2134,2154,2173,2193,2214,2233,2253,2274,2293],"xSR":741.5,"ySR":573.95,"xT1":424.9,"yT1":0,"xT2":1058.1,"yT2":0,"toosoon":0,"cond_shown":"equaldotsize","ratio_trial":900,"smaller_num":"18","larger_num":"20","correct_side":2,"subjID":"DannaRamos10","gender":"1","age":"9","school":"4"},{"start_time":1552055005290,"click_time":1552055006632,"finger_time":1552055005952,"fix_duration":515.9100338079767,"trial":15,"RT":662,"MT":680,"sideResp":2,"stimulus":"img/900/equaldotanddens/R/3_Ratio_900_L_9_R_10.png","xmouse":[780,780,780,780,780,780,780,780,780,780,780,780,780,780,780,781,781,781,781,781,781,781,781,781,781,781,781,781,781,781,781,783,808,829,853,871,889,908,916,926,937,947,968,972,975,978,980,989,997,1005,1015,1025,1035,1036,1036,1037,1037,1042,1046,1050,1056,1059,1059,1059,1060,1066,1074,1086],"ymouse":[611,611,611,611,611,611,611,611,611,611,611,611,611,611,611,609,609,606,606,606,605,605,605,605,605,605,605,605,605,605,605,605,578,552,519,491,462,405,379,357,333,310,260,247,241,237,234,223,215,206,194,183,170,167,165,161,161,149,140,131,125,121,121,121,120,118,112,98],"timestamp_mouse":[12,22,42,63,83,103,122,142,163,182,203,222,242,262,282,302,323,342,362,383,403,423,442,463,482,503,523,543,563,582,602,623,642,662,683,702,723,742,763,782,802,822,842,862,882,901,922,942,963,982,1003,1022,1043,1063,1082,1110,1123,1142,1163,1182,1203,1222,1243,1262,1283,1303,1322,1342],"xSR":741.5,"ySR":573.95,"xT1":424.9,"yT1":0,"xT2":1058.1,"yT2":0,"toosoon":0,"cond_shown":"equaldotanddens","ratio_trial":900,"smaller_num":"9","larger_num":"10","correct_side":2,"subjID":"DannaRamos10","gender":"1","age":"9","school":"4"},{"start_time":1552055008066,"click_time":1552055008974,"finger_time":1552055008812,"fix_duration":492.6835260497637,"trial":16,"RT":746,"MT":162,"sideResp":2,"stimulus":"img/500/randomdotsizeEA/R/15_Ratio_500_L_1_R_2.png","xmouse":[793,793,793,793,793,793,793,793,793,793,793,793,793,793,793,793,793,793,793,793,793,793,793,793,793,793,793,793,793,793,793,793,793,793,793,793,796,814,858,868,871,873,878,896,1035,1133],"ymouse":[592,592,592,592,592,592,592,592,592,592,592,592,592,592,592,592,592,592,592,592,592,592,592,592,592,592,592,592,592,592,592,592,592,592,592,591,583,520,358,328,322,319,311,283,120,19],"timestamp_mouse":[13,35,45,66,87,107,126,147,166,187,207,226,246,266,286,306,325,346,367,387,406,426,446,467,486,505,527,546,567,587,607,626,647,667,687,706,726,746,767,785,806,826,845,867,887,907],"xSR":741.5,"ySR":573.95,"xT1":424.9,"yT1":0,"xT2":1058.1,"yT2":0,"toosoon":0,"cond_shown":"randomdotsizeEA","ratio_trial":500,"smaller_num":"1","larger_num":"2","correct_side":2,"subjID":"DannaRamos10","gender":"1","age":"9","school":"4"},{"start_time":1552055010404,"click_time":1552055011772,"finger_time":1552055011052,"fix_duration":250,"trial":17,"RT":648,"MT":720,"sideResp":1,"stimulus":"img/750/randomdotsizeEA/L/6_Ratio_750_L_24_R_18.png","xmouse":[803,803,803,803,803,803,803,803,803,803,803,803,803,803,803,803,803,803,803,803,803,803,803,803,803,803,803,803,804,809,818,823,829,829,829,829,829,832,838,844,851,857,864,864,861,855,844,804,774,738,703,630,502,468,452,444,433,416,413,410,410,410,410,410,410,410,415,423,434],"ymouse":[625,625,625,625,625,625,625,625,625,625,625,625,625,625,625,625,625,625,625,625,625,625,625,625,625,625,625,625,623,610,590,577,557,554,553,552,548,533,521,508,496,484,437,418,400,385,372,348,336,324,309,262,158,132,120,114,104,88,85,83,83,83,83,83,83,83,80,78,75],"timestamp_mouse":[13,27,48,67,88,108,128,148,169,188,209,229,248,267,289,309,328,348,368,388,409,429,448,469,488,509,528,549,568,588,608,628,648,668,688,708,729,748,769,787,809,829,848,868,888,908,929,949,968,989,1009,1028,1048,1068,1088,1109,1129,1148,1167,1189,1208,1229,1249,1269,1288,1309,1328,1348,1368],"xSR":741.5,"ySR":573.95,"xT1":424.9,"yT1":0,"xT2":1058.1,"yT2":0,"toosoon":0,"cond_shown":"randomdotsizeEA","ratio_trial":750,"smaller_num":"18","larger_num":"24","correct_side":1,"subjID":"DannaRamos10","gender":"1","age":"9","school":"4"},{"start_time":1552055013065,"click_time":1552055014913,"finger_time":1552055013952,"fix_duration":649.8511566533911,"trial":18,"RT":887,"MT":961,"sideResp":2,"stimulus":"img/500/randomdotsizeEA/R/1_Ratio_500_L_9_R_18.png","xmouse":[777,777,777,777,777,777,777,777,777,777,777,777,777,777,777,777,777,777,777,777,777,777,777,777,777,777,777,777,777,777,777,777,777,777,783,789,793,796,798,798,798,798,798,798,798,798,800,802,804,816,826,838,856,879,912,924,931,932,933,934,936,938,941,946,951,955,960,969,979,990,997,1002,1007,1010,1020,1024,1027,1028,1028,1029,1034,1040,1043,1046,1046,1046,1046,1047,1050,1056,1057,1058,1059],"ymouse":[623,623,623,623,623,623,623,623,623,623,623,623,623,623,623,623,623,623,623,623,623,623,623,623,623,623,623,623,623,623,623,623,623,623,622,618,615,612,611,611,611,610,606,596,572,565,561,557,553,541,532,521,499,472,439,429,425,424,424,421,409,390,371,350,315,299,278,252,215,179,164,153,143,136,119,112,108,106,106,104,100,96,93,91,91,91,91,91,90,89,89,88,87],"timestamp_mouse":[12,35,48,67,88,106,128,147,166,188,207,226,246,267,288,307,328,348,368,388,407,427,447,468,487,507,527,548,568,588,606,628,648,668,687,708,727,748,767,786,808,827,848,868,887,908,927,947,968,987,1007,1027,1047,1068,1087,1107,1127,1147,1167,1187,1207,1228,1248,1267,1287,1308,1328,1347,1368,1386,1407,1427,1447,1468,1487,1507,1528,1547,1567,1587,1606,1627,1647,1668,1687,1707,1728,1747,1768,1787,1807,1828,1848],"xSR":741.5,"ySR":573.95,"xT1":424.9,"yT1":0,"xT2":1058.1,"yT2":0,"toosoon":0,"cond_shown":"randomdotsizeEA","ratio_trial":500,"smaller_num":"9","larger_num":"18","correct_side":2,"subjID":"DannaRamos10","gender":"1","age":"9","school":"4"},{"start_time":1552055016065,"click_time":1552055017753,"finger_time":1552055016673,"fix_duration":250,"trial":19,"RT":608,"MT":1080,"sideResp":2,"stimulus":"img/500/equaldotsize/R/6_Ratio_500_L_9_R_18.png","xmouse":[803,804,804,805,806,807,807,808,808,808,808,808,808,808,808,808,808,808,808,808,808,808,808,808,808,808,808,808,811,828,841,853,862,867,869,869,869,869,866,850,835,814,784,748,713,657,625,607,596,588,587,587,587,587,587,587,587,587,592,635,689,758,818,876,969,992,1005,1014,1017,1020,1029,1035,1040,1043,1045,1046,1046,1046,1046,1046,1046,1046,1048,1051,1060],"ymouse":[603,603,603,603,603,602,602,602,602,602,602,602,602,602,602,602,602,602,602,602,602,602,602,602,602,602,602,602,600,581,567,555,545,538,533,533,532,530,523,497,477,449,416,380,351,303,278,266,258,251,250,250,250,250,250,250,250,250,250,265,279,293,293,292,264,246,228,197,173,150,113,101,93,86,85,81,81,81,81,81,81,80,77,74,69],"timestamp_mouse":[13,38,48,68,88,108,128,148,168,187,207,228,248,267,288,308,327,348,368,386,406,427,448,467,487,508,526,547,568,587,608,627,647,667,688,707,727,747,767,788,807,828,848,867,888,907,927,947,968,987,1006,1027,1047,1067,1088,1108,1128,1148,1188,1191,1207,1227,1246,1267,1287,1306,1327,1348,1367,1387,1408,1427,1447,1468,1488,1507,1527,1547,1567,1588,1608,1627,1647,1667,1688],"xSR":741.5,"ySR":573.95,"xT1":424.9,"yT1":0,"xT2":1058.1,"yT2":0,"toosoon":0,"cond_shown":"equaldotsize","ratio_trial":500,"smaller_num":"9","larger_num":"18","correct_side":2,"subjID":"DannaRamos10","gender":"1","age":"9","school":"4"},{"start_time":1552055020465,"click_time":1552055021793,"finger_time":1552055021433,"fix_duration":250,"trial":20,"RT":968,"MT":360,"sideResp":1,"stimulus":"img/750/equaldotsize/L/13_Ratio_750_L_8_R_6.png","xmouse":[788,788,788,788,788,788,788,788,788,788,788,788,788,788,788,788,788,788,788,788,788,788,788,788,788,788,788,788,788,788,788,788,788,788,788,788,788,788,788,788,788,788,788,788,786,780,764,754,744,738,713,694,666,640,620,583,575,567,563,556,539,534,530,528,527,526,524],"ymouse":[658,658,658,658,658,658,658,658,658,658,658,658,658,658,658,658,658,658,658,658,658,658,658,658,658,658,658,658,658,658,658,658,658,658,658,658,658,658,658,658,658,658,658,658,658,639,603,581,559,540,491,453,407,362,325,263,249,235,224,210,169,151,135,125,116,95,86],"timestamp_mouse":[13,37,47,68,87,107,128,146,167,187,206,227,246,267,287,306,327,348,366,388,406,427,447,468,488,507,528,547,567,587,608,628,648,668,687,707,728,748,768,787,808,826,848,867,887,908,927,948,968,988,1007,1028,1047,1067,1088,1107,1127,1147,1166,1188,1207,1227,1247,1268,1288,1307,1327],"xSR":741.5,"ySR":573.95,"xT1":424.9,"yT1":0,"xT2":1058.1,"yT2":0,"toosoon":0,"cond_shown":"equaldotsize","ratio_trial":750,"smaller_num":"6","larger_num":"8","correct_side":1,"subjID":"DannaRamos10","gender":"1","age":"9","school":"4"},{"start_time":1552055023043,"click_time":1552055024112,"finger_time":1552055023732,"fix_duration":250,"trial":21,"RT":689,"MT":380,"sideResp":2,"stimulus":"img/250/equaldotsize/R/10_Ratio_250_L_4_R_16.png","xmouse":[817,817,817,817,817,817,817,817,817,817,817,817,817,817,817,817,817,817,817,817,817,817,817,817,817,817,817,817,817,817,817,817,819,827,842,852,898,905,908,916,923,936,941,942,942,942,942,952,973,1002,1029,1063,1077,1089],"ymouse":[619,619,619,619,619,619,619,619,619,619,619,619,619,619,619,619,619,619,619,619,619,619,619,619,619,619,619,619,619,619,619,619,615,603,575,559,464,433,405,379,356,308,292,290,290,290,289,280,263,239,207,146,113,83],"timestamp_mouse":[19,45,50,70,89,109,129,149,169,188,210,230,249,270,290,309,329,349,370,390,409,429,449,469,490,510,530,549,568,590,610,630,648,670,689,709,729,748,769,788,809,829,849,869,889,910,929,950,969,989,1010,1029,1049,1069],"xSR":741.5,"ySR":573.95,"xT1":424.9,"yT1":0,"xT2":1058.1,"yT2":0,"toosoon":0,"cond_shown":"equaldotsize","ratio_trial":250,"smaller_num":"4","larger_num":"16","correct_side":2,"subjID":"DannaRamos10","gender":"1","age":"9","school":"4"},{"start_time":1552055025793,"click_time":1552055027092,"finger_time":1552055026412,"fix_duration":818.7969740448576,"trial":22,"RT":619,"MT":680,"sideResp":1,"stimulus":"img/250/randomdotsizeEA/L/15_Ratio_250_L_12_R_3.png","xmouse":[796,796,796,796,796,796,796,796,796,796,796,796,796,796,796,796,796,796,796,796,796,796,796,796,796,796,796,796,796,795,784,761,743,732,716,680,665,646,637,631,617,613,608,600,592,572,564,555,544,534,518,515,514,513,513,513,513,513,513,513,513,513,513,512,511,508],"ymouse":[645,645,645,645,645,645,645,645,645,645,645,645,645,645,645,645,645,645,645,645,645,645,645,645,645,645,645,645,645,645,596,537,503,478,443,373,350,323,310,299,278,270,262,248,231,194,181,169,154,140,120,116,116,115,115,115,115,115,115,115,115,113,110,106,101,93],"timestamp_mouse":[1,31,39,59,79,99,119,140,159,180,198,218,240,260,279,299,320,339,359,380,399,419,440,460,480,499,519,539,560,579,598,619,638,660,680,699,719,739,758,779,799,819,839,860,879,899,921,939,959,980,1000,1019,1039,1060,1079,1099,1119,1139,1159,1180,1199,1220,1239,1260,1279,1299],"xSR":741.5,"ySR":573.95,"xT1":424.9,"yT1":0,"xT2":1058.1,"yT2":0,"toosoon":0,"cond_shown":"randomdotsizeEA","ratio_trial":250,"smaller_num":"3","larger_num":"12","correct_side":1,"subjID":"DannaRamos10","gender":"1","age":"9","school":"4"},{"start_time":1552055029207,"click_time":1552055030432,"finger_time":1552055029892,"fix_duration":1032.1466083403734,"trial":23,"RT":685,"MT":540,"sideResp":2,"stimulus":"img/250/randomdotsizeEA/R/6_Ratio_250_L_6_R_24.png","xmouse":[806,806,806,806,806,806,806,806,806,806,806,806,806,806,806,806,806,806,806,806,806,806,806,806,806,806,806,806,806,806,806,811,815,832,856,870,882,901,915,928,931,932,935,940,968,978,985,989,992,993,994,996,1000,1005,1017,1020,1022,1023,1024,1036,1047,1061],"ymouse":[621,621,621,621,621,621,621,621,621,621,621,621,621,621,621,621,621,621,621,621,621,621,621,621,621,621,621,621,621,621,621,618,614,594,542,513,481,449,419,376,356,335,313,290,216,197,183,173,165,161,160,156,151,146,134,131,129,127,124,113,104,88],"timestamp_mouse":[21,37,45,66,85,105,126,146,165,186,206,224,246,266,286,306,325,346,365,386,404,425,446,465,485,506,525,544,566,584,606,626,646,666,685,706,725,745,766,785,806,825,846,865,885,905,925,944,966,985,1005,1025,1046,1065,1085,1106,1125,1146,1165,1185,1205,1225],"xSR":741.5,"ySR":573.95,"xT1":424.9,"yT1":0,"xT2":1058.1,"yT2":0,"toosoon":0,"cond_shown":"randomdotsizeEA","ratio_trial":250,"smaller_num":"6","larger_num":"24","correct_side":2,"subjID":"DannaRamos10","gender":"1","age":"9","school":"4"},{"start_time":1552055031969,"click_time":1552055032893,"finger_time":1552055032592,"fix_duration":435.5568488660593,"trial":24,"RT":623,"MT":301,"sideResp":2,"stimulus":"img/500/equaldotanddens/R/6_Ratio_500_L_9_R_18.png","xmouse":[787,787,787,787,787,787,787,787,787,787,787,787,787,787,787,787,787,787,787,787,787,787,787,787,787,787,789,797,802,812,826,871,898,929,960,1008,1035,1037,1040,1041,1043,1059,1071,1082,1089,1095,1097],"ymouse":[653,653,653,653,653,653,653,653,653,653,653,653,653,653,653,653,653,653,653,653,653,653,653,653,653,653,650,644,638,625,601,519,460,397,348,284,229,217,210,207,201,174,157,141,121,102,98],"timestamp_mouse":[13,36,43,63,83,103,124,143,164,183,203,224,244,263,284,303,323,344,364,383,402,423,444,464,483,503,524,544,564,582,604,623,642,663,683,704,723,743,763,783,803,823,843,864,884,903,924],"xSR":741.5,"ySR":573.95,"xT1":424.9,"yT1":0,"xT2":1058.1,"yT2":0,"toosoon":0,"cond_shown":"equaldotanddens","ratio_trial":500,"smaller_num":"9","larger_num":"18","correct_side":2,"subjID":"DannaRamos10","gender":"1","age":"9","school":"4"},{"start_time":1552055034417,"click_time":1552055035393,"finger_time":1552055035053,"fix_duration":542.7951785864118,"trial":25,"RT":636,"MT":340,"sideResp":2,"stimulus":"img/250/equaldotsize/R/4_Ratio_250_L_3_R_12.png","xmouse":[780,780,780,780,780,780,780,780,780,780,780,780,780,780,780,780,780,780,780,780,780,780,780,780,780,780,780,780,780,780,805,869,907,985,1029,1064,1080,1085,1086,1086,1086,1086,1091,1095,1095,1095,1095,1095,1096],"ymouse":[608,608,608,608,608,608,608,608,608,608,608,608,608,608,608,608,608,608,608,608,608,608,608,608,608,608,608,608,608,607,584,531,498,402,325,264,236,227,223,216,187,176,141,116,113,110,108,104,91],"timestamp_mouse":[27,45,55,75,96,116,135,155,176,195,216,236,255,275,296,314,336,356,374,396,415,436,456,476,495,515,536,555,576,595,614,636,655,676,694,715,736,755,776,796,815,835,855,876,895,915,935,955,976],"xSR":741.5,"ySR":573.95,"xT1":424.9,"yT1":0,"xT2":1058.1,"yT2":0,"toosoon":0,"cond_shown":"equaldotsize","ratio_trial":250,"smaller_num":"3","larger_num":"12","correct_side":2,"subjID":"DannaRamos10","gender":"1","age":"9","school":"4"},{"start_time":1552055036843,"click_time":1552055037772,"finger_time":1552055037394,"fix_duration":369.34557510043817,"trial":26,"RT":551,"MT":378,"sideResp":2,"stimulus":"img/250/randomdotsizeEA/R/13_Ratio_250_L_2_R_8.png","xmouse":[803,803,803,803,803,803,803,803,803,803,803,803,803,803,803,803,803,803,803,803,803,803,803,803,803,802,807,832,872,888,927,954,974,1003,1021,1036,1046,1052,1059,1061,1063,1065,1067,1069,1071,1073,1077],"ymouse":[589,589,589,589,589,589,589,589,589,589,589,589,589,589,589,589,589,589,589,589,589,589,589,589,589,585,576,530,459,427,334,260,187,86,46,11,0,0,0,0,0,0,0,0,0,0,7],"timestamp_mouse":[12,35,50,68,89,110,130,148,169,190,209,230,250,269,289,309,329,350,370,389,409,430,449,470,490,510,530,550,569,590,608,629,649,670,690,709,729,749,768,788,809,829,850,870,889,910,929],"xSR":741.5,"ySR":573.95,"xT1":424.9,"yT1":0,"xT2":1058.1,"yT2":0,"toosoon":0,"cond_shown":"randomdotsizeEA","ratio_trial":250,"smaller_num":"2","larger_num":"8","correct_side":2,"subjID":"DannaRamos10","gender":"1","age":"9","school":"4"},{"start_time":1552055041201,"click_time":1552055043153,"finger_time":1552055041872,"fix_duration":1027.1319835626593,"trial":27,"RT":671,"MT":1281,"sideResp":1,"stimulus":"img/900/randomdotsizeEA/R/14_Ratio_900_L_18_R_20.png","xmouse":[781,781,781,781,781,781,781,781,781,781,781,781,781,781,781,781,781,781,781,781,781,781,781,781,781,781,781,781,781,782,786,799,805,810,813,817,818,819,820,827,843,856,872,890,912,937,940,942,942,945,956,966,975,988,996,1004,1005,1005,1005,1005,1005,1005,1005,1005,1004,987,968,931,896,861,783,757,739,731,724,719,714,714,709,703,692,662,647,634,624,600,585,572,559,558,556,554,553,553,550,536,528,519],"ymouse":[612,612,612,612,612,612,612,612,612,612,612,612,612,612,612,612,612,612,612,612,612,612,612,612,612,612,612,612,612,609,604,585,577,570,564,557,555,552,550,540,518,500,478,451,422,390,386,383,382,371,344,328,312,293,281,264,259,254,250,247,245,244,244,243,243,243,243,243,243,243,241,237,235,234,234,234,233,233,230,226,218,190,175,160,146,115,99,89,80,79,79,79,79,80,80,80,80,80],"timestamp_mouse":[12,45,51,72,92,111,131,151,171,191,211,232,251,271,292,312,331,351,371,391,412,432,451,472,491,512,532,552,571,591,611,632,652,671,691,711,731,751,772,792,811,831,851,871,892,912,931,952,971,991,1012,1031,1052,1070,1091,1112,1131,1152,1171,1190,1212,1230,1251,1272,1292,1312,1331,1351,1371,1391,1412,1431,1451,1471,1491,1512,1531,1551,1571,1592,1612,1632,1651,1671,1691,1712,1731,1751,1771,1791,1811,1832,1850,1872,1891,1912,1931,1951],"xSR":741.5,"ySR":573.95,"xT1":424.9,"yT1":0,"xT2":1058.1,"yT2":0,"toosoon":0,"cond_shown":"randomdotsizeEA","ratio_trial":900,"smaller_num":"18","larger_num":"20","correct_side":2,"subjID":"DannaRamos10","gender":"1","age":"9","school":"4"},{"start_time":1552055046649,"click_time":1552055047832,"finger_time":1552055047232,"fix_duration":553.3420917038261,"trial":28,"RT":583,"MT":600,"sideResp":1,"stimulus":"img/250/equaldotanddens/L/2_Ratio_250_L_16_R_4.png","xmouse":[775,775,775,775,775,775,775,775,775,775,775,775,775,775,775,775,775,775,775,775,775,775,775,775,776,780,783,787,787,783,774,758,734,705,618,582,552,529,513,494,491,491,491,491,488,483,481,480,480,480,480,480,480,480,480,481,483,485,486,491],"ymouse":[626,626,626,626,626,626,626,626,626,626,626,626,626,626,626,626,626,626,626,626,626,626,626,626,623,616,608,597,590,569,555,537,515,489,415,384,357,332,312,278,259,236,214,190,135,120,112,108,107,107,106,106,106,106,105,104,103,103,102,97],"timestamp_mouse":[13,35,42,62,83,104,124,143,163,184,204,223,244,264,284,304,323,344,363,384,404,424,444,464,483,503,524,544,563,583,603,624,643,664,683,704,723,742,764,783,803,823,844,864,883,903,923,944,964,983,1004,1023,1043,1064,1083,1103,1123,1144,1163,1183],"xSR":741.5,"ySR":573.95,"xT1":424.9,"yT1":0,"xT2":1058.1,"yT2":0,"toosoon":0,"cond_shown":"equaldotanddens","ratio_trial":250,"smaller_num":"4","larger_num":"16","correct_side":1,"subjID":"DannaRamos10","gender":"1","age":"9","school":"4"},{"start_time":1552055052358,"click_time":1552055053633,"finger_time":1552055053132,"fix_duration":544.849642686322,"trial":29,"RT":774,"MT":501,"sideResp":1,"stimulus":"img/500/randomdotsizeEA/L/4_Ratio_500_L_18_R_9.png","xmouse":[793,793,793,793,793,793,793,793,793,793,793,793,793,793,793,793,793,793,793,793,793,793,793,793,793,793,793,793,793,793,793,793,793,793,792,787,780,771,739,714,688,659,624,585,530,502,487,469,458,439,431,425,419,414,408,403,399,396,395,395,395,398,412,426],"ymouse":[628,628,628,628,628,628,628,628,628,628,628,628,628,628,628,628,628,628,628,628,628,628,628,628,628,628,628,628,628,628,628,628,628,628,623,614,600,584,540,512,487,463,434,404,353,316,295,274,258,227,207,184,156,119,52,27,5,0,0,0,0,0,6,12],"timestamp_mouse":[15,43,54,74,94,115,134,155,174,193,215,235,255,273,295,314,333,355,374,394,414,435,454,474,493,514,535,554,575,594,614,634,653,675,694,714,735,754,774,794,815,834,855,875,895,914,934,953,973,994,1014,1034,1054,1075,1094,1114,1134,1155,1175,1195,1214,1234,1253,1275],"xSR":741.5,"ySR":573.95,"xT1":424.9,"yT1":0,"xT2":1058.1,"yT2":0,"toosoon":0,"cond_shown":"randomdotsizeEA","ratio_trial":500,"smaller_num":"9","larger_num":"18","correct_side":1,"subjID":"DannaRamos10","gender":"1","age":"9","school":"4"},{"start_time":1552055056317,"click_time":1552055057794,"finger_time":1552055057052,"fix_duration":404.589712600627,"trial":30,"RT":735,"MT":742,"sideResp":1,"stimulus":"img/900/equaldotsize/L/2_Ratio_900_L_20_R_18.png","xmouse":[792,792,790,790,790,790,790,790,790,790,790,790,790,790,790,790,790,790,790,790,790,790,790,790,790,790,790,790,790,790,790,790,790,790,790,790,778,770,759,738,712,664,645,626,609,586,548,536,528,525,524,510,492,457,412,378,353,353,353,353,353,353,355,357,365,383,394,396,397,397,402,413,419,426],"ymouse":[613,613,635,642,644,644,644,644,644,644,644,644,644,644,644,644,644,644,644,644,644,644,644,644,644,644,644,644,644,644,644,644,644,644,621,608,540,511,473,429,386,314,295,282,271,254,235,230,226,225,224,212,187,138,70,16,0,0,0,0,0,0,0,0,0,1,6,7,7,7,9,15,19,22],"timestamp_mouse":[15,37,54,76,96,115,136,155,176,195,216,236,255,276,296,316,335,355,374,396,416,434,455,475,495,515,534,556,575,595,615,636,654,675,696,716,735,756,775,795,816,835,856,875,895,916,935,956,975,996,1015,1036,1055,1075,1097,1118,1136,1156,1176,1196,1218,1237,1257,1276,1297,1317,1336,1356,1376,1396,1417,1437,1457,1477],"xSR":741.5,"ySR":573.95,"xT1":424.9,"yT1":0,"xT2":1058.1,"yT2":0,"toosoon":0,"cond_shown":"equaldotsize","ratio_trial":900,"smaller_num":"18","larger_num":"20","correct_side":1,"subjID":"DannaRamos10","gender":"1","age":"9","school":"4"},{"start_time":1552055059345,"click_time":1552055060693,"finger_time":1552055059935,"fix_duration":250,"trial":31,"RT":590,"MT":758,"sideResp":1,"stimulus":"img/250/equaldotsize/L/7_Ratio_250_L_8_R_2.png","xmouse":[768,768,768,768,768,768,768,768,768,768,768,768,768,768,768,768,768,768,768,768,768,768,768,768,768,768,770,778,786,789,793,788,778,761,742,718,657,629,606,584,552,540,521,505,494,489,485,485,485,485,485,485,485,485,485,485,487,488,488,488,488,488,488,488,488,488,488,488],"ymouse":[618,618,618,618,618,618,618,618,618,618,618,618,618,618,618,618,618,618,618,618,618,618,618,618,618,618,610,595,578,565,536,506,487,467,446,426,383,363,344,326,296,281,248,224,206,198,193,193,193,193,193,192,186,176,166,158,138,131,126,123,116,113,109,107,106,104,100,98],"timestamp_mouse":[13,41,50,68,90,109,128,148,168,190,209,229,249,269,288,309,330,349,369,390,409,429,448,469,488,509,528,549,569,590,609,628,649,668,688,709,728,748,768,788,810,828,848,868,889,910,928,949,968,989,1008,1029,1049,1068,1089,1109,1128,1148,1168,1189,1209,1228,1248,1269,1288,1308,1329,1348],"xSR":741.5,"ySR":573.95,"xT1":424.9,"yT1":0,"xT2":1058.1,"yT2":0,"toosoon":0,"cond_shown":"equaldotsize","ratio_trial":250,"smaller_num":"2","larger_num":"8","correct_side":1,"subjID":"DannaRamos10","gender":"1","age":"9","school":"4"},{"start_time":1552055063484,"click_time":1552055064734,"finger_time":1552055064173,"fix_duration":427.15094661256427,"trial":32,"RT":689,"MT":561,"sideResp":1,"stimulus":"img/500/randomdotsizeEA/L/7_Ratio_500_L_10_R_5.png","xmouse":[778,778,778,778,778,778,778,778,778,778,778,778,778,778,778,778,778,778,778,778,778,778,778,778,778,778,778,778,778,778,778,778,778,773,740,718,688,658,623,582,571,559,550,543,538,538,538,537,536,535,535,533,531,528,526,526,526,526,526,526,524,517,503],"ymouse":[584,584,584,584,584,584,584,584,584,584,584,584,584,584,584,584,584,584,584,584,584,584,584,584,584,584,584,584,584,584,584,584,581,576,548,532,511,487,459,415,396,375,358,343,334,333,333,331,327,317,313,305,293,281,268,260,254,252,247,226,203,155,83],"timestamp_mouse":[20,44,50,69,90,110,129,150,169,190,209,231,250,270,291,309,329,350,369,389,409,431,449,470,490,510,529,550,569,591,609,630,649,669,689,710,729,749,770,789,809,829,850,870,889,910,929,950,970,990,1009,1029,1049,1070,1089,1110,1129,1149,1170,1189,1209,1229,1250],"xSR":741.5,"ySR":573.95,"xT1":424.9,"yT1":0,"xT2":1058.1,"yT2":0,"toosoon":0,"cond_shown":"randomdotsizeEA","ratio_trial":500,"smaller_num":"5","larger_num":"10","correct_side":1,"subjID":"DannaRamos10","gender":"1","age":"9","school":"4"},{"start_time":1552055070171,"click_time":1552055071475,"finger_time":1552055070754,"fix_duration":1195.076107665462,"trial":33,"RT":583,"MT":721,"sideResp":1,"stimulus":"img/750/equaldotanddens/L/14_Ratio_750_L_8_R_6.png","xmouse":[768,768,768,768,768,768,768,768,768,768,767,767,767,767,767,767,767,767,767,767,767,767,767,767,767,767,766,764,759,756,751,742,739,733,726,719,693,663,645,631,619,605,605,605,613,618,614,608,606,606,606,606,604,601,597,592,575,570,568,565,565,563,559,552,544,512],"ymouse":[584,584,584,584,584,584,584,585,585,586,586,586,586,586,586,586,586,586,586,586,586,586,586,586,586,586,586,583,574,565,554,539,532,521,509,496,451,407,378,352,331,285,261,237,201,158,104,90,87,86,86,86,84,81,80,78,75,74,74,74,74,74,75,77,78,78],"timestamp_mouse":[14,32,43,63,83,102,122,143,162,183,203,223,244,262,283,302,324,342,363,383,404,423,444,463,483,503,523,543,562,583,603,623,642,662,683,702,722,742,762,782,803,822,843,862,883,902,923,944,962,982,1002,1023,1042,1063,1083,1103,1122,1143,1162,1183,1203,1224,1243,1263,1283,1304],"xSR":741.5,"ySR":573.95,"xT1":424.9,"yT1":0,"xT2":1058.1,"yT2":0,"toosoon":0,"cond_shown":"equaldotanddens","ratio_trial":750,"smaller_num":"6","larger_num":"8","correct_side":1,"subjID":"DannaRamos10","gender":"1","age":"9","school":"4"},{"start_time":1552055073114,"click_time":1552055074335,"finger_time":1552055073793,"fix_duration":898.6865007641131,"trial":34,"RT":679,"MT":542,"sideResp":1,"stimulus":"img/250/randomdotsizeEA/L/1_Ratio_250_L_8_R_2.png","xmouse":[819,819,819,819,819,819,819,819,819,819,819,819,819,819,819,819,819,819,819,819,819,819,819,819,819,819,819,818,817,813,808,798,785,756,740,725,690,628,550,540,532,524,520,509,504,501,500,499,499,499,499,499,499,498,496,496,496,494,494,494,494],"ymouse":[598,598,598,598,598,598,598,598,598,598,598,598,598,598,598,598,598,598,598,598,598,598,598,598,598,598,598,599,598,596,592,586,576,553,538,513,452,372,272,254,239,221,210,183,170,161,155,149,148,147,146,144,141,132,125,120,116,113,103,100,97],"timestamp_mouse":[19,41,59,80,99,119,139,161,180,199,220,240,260,279,300,319,340,361,379,400,420,439,461,480,500,520,540,560,579,600,620,640,660,679,701,720,740,759,779,800,819,839,859,879,899,919,940,959,979,999,1020,1039,1059,1079,1099,1119,1139,1160,1179,1199,1221],"xSR":741.5,"ySR":573.95,"xT1":424.9,"yT1":0,"xT2":1058.1,"yT2":0,"toosoon":0,"cond_shown":"randomdotsizeEA","ratio_trial":250,"smaller_num":"2","larger_num":"8","correct_side":1,"subjID":"DannaRamos10","gender":"1","age":"9","school":"4"},{"start_time":1552055075795,"click_time":1552055077054,"finger_time":1552055076374,"fix_duration":599.0571151428479,"trial":35,"RT":579,"MT":680,"sideResp":2,"stimulus":"img/250/equaldotsize/R/9_Ratio_250_L_3_R_12.png","xmouse":[766,766,766,766,766,766,766,766,766,766,766,766,766,766,766,766,766,766,766,766,766,766,766,766,766,766,766,770,778,791,819,828,838,846,859,882,894,906,920,932,954,965,980,993,1005,1028,1031,1034,1036,1038,1039,1039,1039,1040,1041,1043,1046,1050,1052,1055,1064,1068,1071,1075],"ymouse":[616,616,616,616,616,616,616,616,616,616,616,616,616,616,616,616,616,616,616,616,616,616,616,616,616,616,616,609,591,554,469,434,405,373,338,303,288,273,257,242,212,205,196,189,182,164,155,146,140,136,134,134,133,129,125,120,117,116,114,112,109,106,101,98],"timestamp_mouse":[1,36,38,59,79,98,119,140,159,178,199,220,239,259,280,298,318,339,358,379,398,419,439,459,478,498,519,539,559,579,598,618,638,659,679,698,718,738,759,779,798,818,840,858,879,898,918,940,958,978,999,1019,1038,1058,1079,1099,1119,1138,1158,1178,1198,1220,1239,1259],"xSR":741.5,"ySR":573.95,"xT1":424.9,"yT1":0,"xT2":1058.1,"yT2":0,"toosoon":0,"cond_shown":"equaldotsize","ratio_trial":250,"smaller_num":"3","larger_num":"12","correct_side":2,"subjID":"DannaRamos10","gender":"1","age":"9","school":"4"},{"start_time":1552055080094,"click_time":1552055081473,"finger_time":1552055080714,"fix_duration":638.1116766747208,"trial":36,"RT":620,"MT":759,"sideResp":2,"stimulus":"img/500/equaldotsize/R/12_Ratio_500_L_1_R_2.png","xmouse":[800,800,800,800,800,800,800,800,800,800,800,800,800,800,800,800,800,800,800,800,800,800,800,800,800,800,800,800,801,807,825,870,903,938,971,990,1015,1027,1033,1041,1051,1068,1070,1070,1070,1070,1068,1066,1065,1065,1065,1063,1062,1062,1062,1062,1066,1066,1066,1066,1066,1066,1067,1067,1067,1067,1068,1072,1076,1080],"ymouse":[619,619,619,619,619,619,619,619,619,619,619,619,619,619,619,619,619,619,619,619,619,619,619,619,619,619,619,619,619,618,610,584,554,523,493,473,430,399,374,352,332,298,290,286,280,272,258,248,242,235,230,213,207,195,184,168,149,149,149,149,149,146,144,143,142,140,132,118,101,84],"timestamp_mouse":[1,19,40,59,79,99,119,140,161,181,200,220,240,260,280,299,319,340,360,380,400,420,439,460,479,501,520,540,560,580,600,620,640,659,680,700,721,739,759,779,799,819,840,859,879,900,919,939,959,979,1000,1019,1040,1060,1079,1100,1120,1140,1160,1180,1199,1220,1239,1260,1279,1299,1319,1341,1359,1379],"xSR":741.5,"ySR":573.95,"xT1":424.9,"yT1":0,"xT2":1058.1,"yT2":0,"toosoon":0,"cond_shown":"equaldotsize","ratio_trial":500,"smaller_num":"1","larger_num":"2","correct_side":2,"subjID":"DannaRamos10","gender":"1","age":"9","school":"4"},{"start_time":1552055082485,"click_time":1552055083595,"finger_time":1552055083034,"fix_duration":250,"trial":37,"RT":549,"MT":561,"sideResp":1,"stimulus":"img/900/randomdotsizeEA/L/2_Ratio_900_L_20_R_18.png","xmouse":[796,796,796,796,796,796,796,796,796,796,796,796,796,796,796,796,796,796,796,796,796,796,796,796,796,795,773,754,733,715,703,689,683,678,676,671,664,655,641,622,602,593,593,593,593,592,583,577,574,573,571,564,554,541,518,489],"ymouse":[610,610,610,610,610,610,610,610,610,610,610,610,610,610,610,610,610,610,610,610,610,610,610,610,608,604,585,566,539,518,502,481,472,464,455,438,402,376,343,306,282,275,275,275,275,275,261,251,246,243,240,227,209,181,137,89],"timestamp_mouse":[11,38,50,69,88,108,128,148,169,189,208,229,248,268,288,309,329,349,368,388,408,429,449,469,489,509,528,549,568,588,609,628,648,668,689,709,728,749,768,788,809,828,848,868,889,908,928,949,968,988,1009,1028,1049,1069,1088,1109],"xSR":741.5,"ySR":573.95,"xT1":424.9,"yT1":0,"xT2":1058.1,"yT2":0,"toosoon":0,"cond_shown":"randomdotsizeEA","ratio_trial":900,"smaller_num":"18","larger_num":"20","correct_side":1,"subjID":"DannaRamos10","gender":"1","age":"9","school":"4"},{"start_time":1552055086472,"click_time":1552055088034,"finger_time":1552055087294,"fix_duration":277.9072136557561,"trial":38,"RT":822,"MT":740,"sideResp":2,"stimulus":"img/900/equaldotsize/L/10_Ratio_900_L_20_R_18.png","xmouse":[783,783,783,783,783,783,783,783,783,783,783,783,783,783,783,783,783,783,783,783,783,783,783,783,783,783,783,783,783,783,783,783,783,783,784,785,785,786,787,788,790,794,798,816,829,835,838,850,888,915,917,917,922,932,948,948,950,952,955,957,965,984,1023,1041,1049,1049,1048,1046,1044,1044,1043,1043,1043,1043,1043,1043,1055,1079,1087],"ymouse":[607,607,607,607,607,607,607,607,607,607,607,607,607,607,607,607,607,607,607,607,607,607,607,607,607,607,607,607,607,607,607,606,604,599,593,589,586,585,585,582,580,573,566,529,458,393,356,322,261,229,225,225,221,211,196,196,194,190,188,186,185,184,173,167,163,160,157,155,148,144,141,138,136,133,131,129,121,102,93],"timestamp_mouse":[10,22,41,63,82,102,121,141,162,181,201,221,241,262,281,301,322,341,362,381,401,422,441,462,482,501,521,541,561,582,602,621,642,663,681,702,723,742,761,782,801,822,841,861,882,902,922,941,963,983,1001,1022,1041,1061,1081,1102,1122,1142,1163,1181,1203,1221,1242,1261,1282,1301,1321,1342,1361,1382,1401,1421,1441,1461,1482,1502,1522,1542,1562],"xSR":741.5,"ySR":573.95,"xT1":424.9,"yT1":0,"xT2":1058.1,"yT2":0,"toosoon":0,"cond_shown":"equaldotsize","ratio_trial":900,"smaller_num":"18","larger_num":"20","correct_side":1,"subjID":"DannaRamos10","gender":"1","age":"9","school":"4"},{"start_time":1552055092924,"click_time":1552055094134,"finger_time":1552055093494,"fix_duration":1169.542115135683,"trial":39,"RT":570,"MT":640,"sideResp":1,"stimulus":"img/250/equaldotanddens/L/1_Ratio_250_L_8_R_2.png","xmouse":[783,783,783,783,782,781,781,781,781,781,781,780,780,778,778,776,774,773,772,770,768,767,767,767,767,767,767,765,764,758,744,735,725,715,697,671,630,611,601,587,569,561,543,513,484,444,433,428,428,428,426,426,426,426,426,426,434,438,447,456,462],"ymouse":[643,643,643,643,643,643,643,643,643,643,643,643,643,642,640,627,617,611,605,595,585,583,583,583,583,583,581,576,573,563,542,527,511,493,464,435,385,370,361,342,314,299,268,224,187,143,136,133,133,133,132,131,131,131,131,128,124,120,114,104,92],"timestamp_mouse":[13,40,49,71,90,110,130,149,170,190,209,230,251,270,290,310,330,349,370,389,410,429,450,470,489,510,531,549,570,590,609,629,650,669,691,710,731,749,771,789,809,831,850,870,889,910,929,949,970,989,1010,1029,1049,1069,1090,1110,1130,1149,1170,1189,1209],"xSR":741.5,"ySR":573.95,"xT1":424.9,"yT1":0,"xT2":1058.1,"yT2":0,"toosoon":0,"cond_shown":"equaldotanddens","ratio_trial":250,"smaller_num":"2","larger_num":"8","correct_side":1,"subjID":"DannaRamos10","gender":"1","age":"9","school":"4"},{"start_time":1552055096926,"click_time":1552055099353,"finger_time":1552055097494,"fix_duration":250,"trial":40,"RT":568,"MT":1859,"sideResp":2,"stimulus":"img/750/equaldotsize/R/3_Ratio_750_L_15_R_20.png","xmouse":[800,800,800,800,800,800,800,800,800,800,800,800,800,800,800,800,800,800,800,800,800,800,800,800,800,802,807,813,825,835,853,894,906,919,936,940,940,940,940,940,940,932,919,900,878,834,804,787,771,758,742,736,728,715,691,653,635,607,592,572,553,525,519,516,515,513,511,511,511,511,511,514,517,519,521,521,521,521,521,524,531,548,556,564,573,588,648,675,699,722,746,791,816,855,890,911,942,958,970,986,1008,1020,1024,1025,1025,1025,1025,1029,1031,1035,1040,1041,1042,1043,1044,1044,1044,1044,1045,1048,1054,1106],"ymouse":[615,615,615,615,615,615,615,615,615,615,615,615,615,615,615,615,615,615,615,615,615,615,615,615,614,610,602,591,567,545,514,462,442,416,369,340,339,339,339,339,339,341,347,354,363,374,375,375,375,375,375,373,372,364,349,321,307,279,263,244,230,207,202,199,197,193,189,189,189,189,189,183,174,164,150,131,129,129,129,135,150,178,191,201,210,218,234,237,237,237,237,230,228,227,217,203,159,125,101,82,53,42,38,37,36,36,36,44,50,56,61,62,63,64,64,64,64,64,65,65,66,80],"timestamp_mouse":[13,38,47,67,87,107,127,148,169,187,208,227,247,268,287,308,327,348,368,388,407,427,447,468,488,508,528,547,568,587,607,628,647,667,687,708,727,747,767,789,808,827,847,867,887,909,927,949,967,988,1008,1027,1047,1067,1088,1109,1127,1147,1167,1188,1207,1227,1247,1269,1288,1307,1328,1347,1368,1387,1407,1427,1448,1467,1487,1509,1527,1547,1569,1588,1607,1628,1648,1667,1688,1708,1727,1747,1767,1787,1807,1829,1848,1867,1889,1908,1927,1947,1968,1989,2009,2027,2047,2067,2088,2108,2128,2148,2169,2187,2207,2228,2247,2267,2288,2307,2327,2347,2367,2388,2407,2427],"xSR":741.5,"ySR":573.95,"xT1":424.9,"yT1":0,"xT2":1058.1,"yT2":0,"toosoon":0,"cond_shown":"equaldotsize","ratio_trial":750,"smaller_num":"15","larger_num":"20","correct_side":2,"subjID":"DannaRamos10","gender":"1","age":"9","school":"4"},{"start_time":1552055102327,"click_time":1552055103954,"finger_time":1552055103093,"fix_duration":771.0433298308047,"trial":41,"RT":766,"MT":861,"sideResp":2,"stimulus":"img/900/equaldotsize/L/8_Ratio_900_L_20_R_18.png","xmouse":[785,785,785,785,785,785,785,785,785,785,785,785,785,785,785,785,785,785,785,785,785,785,785,785,785,785,785,785,785,785,785,785,785,787,789,798,809,814,821,843,888,945,1087,1129,1141,1144,1144,1143,1143,1143,1143,1144,1144,1141,1136,1131,1128,1125,1124,1122,1121,1120,1118,1117,1117,1117,1116,1116,1116,1116,1116,1116,1116,1116,1116,1116,1116,1116,1116,1115,1115,1114],"ymouse":[638,638,638,638,638,638,638,638,638,638,638,638,638,638,638,639,640,640,640,640,640,640,640,640,640,640,640,640,640,640,640,640,640,639,637,619,591,579,563,529,454,382,263,231,217,205,196,188,187,185,181,172,166,155,147,140,137,134,133,131,129,126,121,118,117,116,113,113,112,110,110,110,109,108,107,107,105,105,105,104,102,98],"timestamp_mouse":[20,28,46,66,86,106,126,146,166,187,206,226,247,267,286,306,326,347,368,387,407,426,446,467,486,506,527,547,566,586,607,626,646,666,686,707,727,747,766,787,807,827,846,866,886,907,927,947,966,987,1007,1026,1046,1067,1087,1106,1127,1147,1167,1188,1207,1227,1246,1267,1286,1306,1326,1346,1368,1387,1406,1427,1447,1467,1487,1506,1527,1546,1566,1588,1607,1627],"xSR":741.5,"ySR":573.95,"xT1":424.9,"yT1":0,"xT2":1058.1,"yT2":0,"toosoon":0,"cond_shown":"equaldotsize","ratio_trial":900,"smaller_num":"18","larger_num":"20","correct_side":1,"subjID":"DannaRamos10","gender":"1","age":"9","school":"4"},{"start_time":1552055107208,"click_time":1552055108413,"finger_time":1552055108075,"fix_duration":892.9247770368871,"trial":42,"RT":867,"MT":338,"sideResp":1,"stimulus":"img/500/randomdotsizeEA/L/13_Ratio_500_L_12_R_6.png","xmouse":[777,777,777,777,779,780,780,780,780,780,781,781,781,781,781,781,781,781,781,781,781,781,781,783,783,783,783,783,783,783,783,783,783,783,783,786,789,794,794,794,794,792,791,788,785,781,778,774,766,760,752,740,729,701,675,641,608,563,503,468,425],"ymouse":[592,592,592,592,592,592,592,592,592,592,593,593,593,593,593,593,593,593,593,593,593,593,593,593,593,593,593,593,593,593,593,593,593,593,593,596,600,604,604,604,598,594,589,573,564,557,552,547,541,537,529,514,494,442,402,352,310,253,181,136,85],"timestamp_mouse":[12,34,46,65,85,107,126,146,165,186,205,225,246,267,285,305,325,346,366,385,406,425,446,465,487,506,526,546,566,586,606,625,646,665,686,705,727,746,766,787,806,826,846,867,885,905,925,946,966,986,1005,1025,1046,1065,1086,1105,1126,1146,1165,1185,1205],"xSR":741.5,"ySR":573.95,"xT1":424.9,"yT1":0,"xT2":1058.1,"yT2":0,"toosoon":0,"cond_shown":"randomdotsizeEA","ratio_trial":500,"smaller_num":"6","larger_num":"12","correct_side":1,"subjID":"DannaRamos10","gender":"1","age":"9","school":"4"},{"start_time":1552055109965,"click_time":1552055110953,"finger_time":1552055110634,"fix_duration":591.2383821484367,"trial":43,"RT":669,"MT":319,"sideResp":1,"stimulus":"img/900/equaldotanddens/L/4_Ratio_900_L_20_R_18.png","xmouse":[783,783,783,783,783,783,783,783,783,783,783,783,783,783,783,783,783,783,783,783,783,783,783,784,784,784,785,785,785,784,780,774,763,745,729,697,680,662,646,621,595,581,571,563,558,546,539,530,508,495],"ymouse":[601,601,601,601,601,601,601,601,601,601,601,601,601,601,601,601,601,601,601,601,601,601,601,601,601,601,601,601,599,598,591,584,574,557,538,495,470,445,420,382,325,292,273,261,250,228,213,190,122,81],"timestamp_mouse":[13,39,49,69,89,108,128,148,168,189,208,228,248,269,290,309,329,349,369,388,408,429,448,469,489,508,530,548,568,588,608,629,649,669,688,708,728,748,769,789,808,828,850,869,888,908,928,949,970,988],"xSR":741.5,"ySR":573.95,"xT1":424.9,"yT1":0,"xT2":1058.1,"yT2":0,"toosoon":0,"cond_shown":"equaldotanddens","ratio_trial":900,"smaller_num":"18","larger_num":"20","correct_side":1,"subjID":"DannaRamos10","gender":"1","age":"9","school":"4"},{"start_time":1552055113189,"click_time":1552055114713,"finger_time":1552055113894,"fix_duration":1494.4433594755205,"trial":44,"RT":705,"MT":819,"sideResp":1,"stimulus":"img/900/randomdotsizeEA/R/11_Ratio_900_L_18_R_20.png","xmouse":[798,796,796,791,791,791,791,791,791,791,791,791,791,791,791,791,791,791,791,791,791,791,791,791,791,791,791,791,791,791,791,791,794,797,798,796,795,792,790,783,756,732,700,673,643,591,568,554,538,523,490,481,473,469,468,467,467,467,467,467,470,472,473,473,473,473,474,474,474,474,474,474,473,473,472,470,470],"ymouse":[614,610,610,606,605,605,605,605,605,605,605,605,605,605,605,605,605,605,605,605,605,605,605,605,605,605,605,605,605,605,605,603,598,589,575,559,556,552,548,543,521,501,475,450,424,378,354,338,316,290,226,203,187,178,174,171,169,169,168,163,153,150,146,143,141,128,124,123,122,122,118,114,111,109,106,100,99],"timestamp_mouse":[15,39,44,64,84,104,126,146,165,184,204,225,244,264,284,305,324,345,364,384,404,424,446,464,485,504,524,546,564,586,605,624,644,665,685,705,726,745,766,785,804,825,844,865,885,904,925,944,964,984,1004,1024,1045,1065,1085,1105,1125,1146,1166,1185,1206,1224,1246,1264,1284,1304,1326,1344,1365,1384,1404,1425,1445,1465,1485,1504,1524],"xSR":741.5,"ySR":573.95,"xT1":424.9,"yT1":0,"xT2":1058.1,"yT2":0,"toosoon":0,"cond_shown":"randomdotsizeEA","ratio_trial":900,"smaller_num":"18","larger_num":"20","correct_side":2,"subjID":"DannaRamos10","gender":"1","age":"9","school":"4"},{"start_time":1552055118579,"click_time":1552055119774,"finger_time":1552055119233,"fix_duration":1483.0706659382538,"trial":45,"RT":654,"MT":541,"sideResp":1,"stimulus":"img/250/equaldotanddens/L/7_Ratio_250_L_8_R_2.png","xmouse":[784,784,782,782,782,782,782,782,782,782,782,782,782,782,782,782,782,782,782,782,782,782,782,782,782,782,782,782,782,774,758,746,729,691,681,661,659,659,659,657,649,647,646,646,645,634,629,623,603,568,505,494,492,490,487,479,469,456,444,434],"ymouse":[604,605,607,608,608,608,608,608,608,608,608,608,608,608,608,608,608,608,608,608,608,608,608,608,608,608,608,608,608,609,607,603,592,553,535,459,437,419,401,389,361,342,323,307,291,256,246,238,226,210,179,174,172,170,165,149,136,123,109,96],"timestamp_mouse":[14,37,55,76,95,115,134,154,174,195,215,235,256,275,295,315,336,356,375,394,415,435,456,475,496,515,535,554,575,595,615,635,654,675,695,714,736,756,774,795,814,834,855,874,895,915,935,956,975,995,1014,1034,1055,1076,1096,1114,1134,1155,1175,1195],"xSR":741.5,"ySR":573.95,"xT1":424.9,"yT1":0,"xT2":1058.1,"yT2":0,"toosoon":0,"cond_shown":"equaldotanddens","ratio_trial":250,"smaller_num":"2","larger_num":"8","correct_side":1,"subjID":"DannaRamos10","gender":"1","age":"9","school":"4"},{"start_time":1552055122275,"click_time":1552055124274,"finger_time":1552055123074,"fix_duration":1379.0966298649812,"trial":46,"RT":799,"MT":1200,"sideResp":2,"stimulus":"img/750/randomdotsizeEA/L/10_Ratio_750_L_4_R_3.png","xmouse":[780,780,780,780,780,780,780,780,780,780,780,780,780,780,780,780,780,780,780,780,780,780,780,780,780,780,780,780,780,780,780,780,780,780,780,780,782,784,790,794,797,804,819,866,929,999,1008,1012,1012,1010,1005,997,993,990,988,994,1007,1007,1013,1015,1019,1019,1019,1019,1019,1019,1019,1019,1019,1019,1018,1018,1018,1018,1018,1019,1029,1044,1059,1073,1097,1140,1147,1173,1192,1194,1185,1172,1170,1168,1168,1167,1166,1165,1165,1164,1163,1160,1159,1156],"ymouse":[599,599,599,599,599,599,599,599,599,599,599,599,599,599,599,599,599,599,599,599,599,599,599,599,599,599,599,599,599,599,599,599,599,599,599,599,597,594,580,567,553,518,490,445,400,337,320,305,278,259,240,212,197,186,174,146,138,138,137,137,135,135,135,135,135,135,135,133,129,123,109,106,102,100,99,96,93,95,103,112,116,121,118,103,86,76,59,58,58,58,58,59,59,59,59,59,60,60,61,62],"timestamp_mouse":[21,39,58,80,98,118,139,159,178,198,220,238,258,278,299,318,339,359,378,399,420,439,459,479,500,519,540,558,578,598,619,638,659,680,700,718,738,759,779,799,819,839,860,879,899,920,938,958,979,999,1018,1039,1059,1078,1099,1119,1138,1159,1178,1198,1218,1239,1259,1279,1299,1318,1340,1359,1379,1399,1419,1439,1459,1480,1500,1519,1538,1559,1578,1598,1619,1640,1659,1678,1698,1719,1738,1759,1779,1798,1818,1838,1858,1880,1900,1919,1938,1959,1978,1999],"xSR":741.5,"ySR":573.95,"xT1":424.9,"yT1":0,"xT2":1058.1,"yT2":0,"toosoon":0,"cond_shown":"randomdotsizeEA","ratio_trial":750,"smaller_num":"3","larger_num":"4","correct_side":1,"subjID":"DannaRamos10","gender":"1","age":"9","school":"4"},{"start_time":1552055128406,"click_time":1552055129914,"finger_time":1552055129273,"fix_duration":831.1697438411031,"trial":47,"RT":867,"MT":641,"sideResp":1,"stimulus":"img/750/equaldotanddens/L/1_Ratio_750_L_20_R_15.png","xmouse":[801,801,801,801,801,801,801,801,801,801,801,801,801,801,801,801,801,801,801,801,801,801,801,801,801,801,801,801,801,801,801,801,801,801,801,801,801,801,800,798,773,759,743,727,703,623,573,516,468,446,443,443,441,439,432,402,390,380,371,367,362,357,354,353,353,353,353,353,353,356,370,378,389,404,420,433],"ymouse":[628,628,628,628,628,628,628,628,628,628,628,628,628,628,628,628,628,628,628,628,628,628,628,628,628,628,628,628,628,628,628,628,628,628,628,628,628,628,628,626,615,609,603,593,574,489,441,387,349,335,332,332,331,322,297,227,203,182,167,156,135,119,103,89,84,82,82,82,82,82,86,86,86,86,86,86],"timestamp_mouse":[12,40,47,68,87,107,128,149,169,188,208,227,247,268,289,308,327,348,369,387,408,429,448,469,487,508,527,548,568,588,608,628,648,668,687,708,727,749,768,788,808,828,848,867,888,907,927,949,968,987,1007,1028,1047,1067,1088,1108,1127,1147,1168,1188,1208,1229,1247,1267,1289,1308,1328,1347,1368,1388,1408,1427,1448,1467,1487,1508],"xSR":741.5,"ySR":573.95,"xT1":424.9,"yT1":0,"xT2":1058.1,"yT2":0,"toosoon":0,"cond_shown":"equaldotanddens","ratio_trial":750,"smaller_num":"15","larger_num":"20","correct_side":1,"subjID":"DannaRamos10","gender":"1","age":"9","school":"4"},{"start_time":1552055131537,"click_time":1552055132673,"finger_time":1552055132214,"fix_duration":722.6621292365212,"trial":48,"RT":677,"MT":459,"sideResp":2,"stimulus":"img/250/randomdotsizeEA/R/11_Ratio_250_L_3_R_12.png","xmouse":[770,770,770,770,770,770,770,770,770,770,770,770,770,770,770,770,770,770,770,770,770,770,770,770,770,770,770,770,770,770,770,772,784,829,848,893,970,1045,1127,1158,1170,1184,1190,1196,1196,1196,1196,1193,1190,1186,1186,1186,1186,1183,1175,1165,1155],"ymouse":[598,598,598,598,598,598,598,598,598,598,598,598,598,598,598,598,598,598,598,598,598,598,598,598,598,598,598,598,598,598,598,598,596,570,553,522,479,434,349,285,266,226,202,155,131,100,72,50,28,12,12,12,12,12,13,17,22],"timestamp_mouse":[16,38,56,76,97,118,137,156,177,196,217,238,257,277,297,317,336,357,376,396,417,438,458,477,497,518,536,557,576,597,618,637,658,677,696,717,737,758,777,796,816,836,856,876,896,916,936,956,977,996,1018,1037,1057,1077,1096,1116,1136],"xSR":741.5,"ySR":573.95,"xT1":424.9,"yT1":0,"xT2":1058.1,"yT2":0,"toosoon":0,"cond_shown":"randomdotsizeEA","ratio_trial":250,"smaller_num":"3","larger_num":"12","correct_side":2,"subjID":"DannaRamos10","gender":"1","age":"9","school":"4"},{"start_time":1552055135156,"click_time":1552055136933,"finger_time":1552055136354,"fix_duration":1439.18305849756,"trial":49,"RT":1198,"MT":579,"sideResp":2,"stimulus":"img/900/equaldotanddens/L/2_Ratio_900_L_20_R_18.png","xmouse":[809,809,809,809,809,809,809,809,809,809,809,809,809,809,809,809,809,809,809,809,809,809,809,809,809,809,809,809,809,809,809,809,809,809,809,809,809,809,809,809,809,809,809,809,809,809,809,809,809,809,809,809,809,809,810,812,814,815,823,844,894,956,1018,1094,1111,1123,1137,1148,1171,1179,1180,1180,1180,1176,1175,1175,1175,1175,1170,1168,1165,1163,1163,1156,1154,1153,1153,1153,1151],"ymouse":[665,665,665,665,665,665,665,665,665,665,665,665,665,665,665,665,665,665,665,665,665,665,665,665,665,665,665,665,665,665,665,665,665,665,665,665,665,665,665,665,665,665,665,665,666,667,669,671,673,673,673,673,673,673,673,672,666,658,632,602,549,495,427,325,294,270,247,225,183,160,149,145,134,122,120,120,120,120,120,120,119,118,118,110,107,105,103,100,95],"timestamp_mouse":[17,41,59,77,97,119,137,158,179,197,218,238,257,279,299,319,337,358,377,398,418,438,458,478,497,518,539,558,578,598,618,638,658,678,698,717,738,758,777,799,818,838,858,878,898,919,938,957,977,999,1018,1038,1057,1077,1097,1118,1137,1158,1177,1198,1217,1238,1258,1277,1297,1317,1338,1358,1377,1397,1418,1438,1458,1479,1497,1518,1538,1558,1577,1598,1618,1637,1659,1679,1699,1717,1737,1757,1777],"xSR":741.5,"ySR":573.95,"xT1":424.9,"yT1":0,"xT2":1058.1,"yT2":0,"toosoon":0,"cond_shown":"equaldotanddens","ratio_trial":900,"smaller_num":"18","larger_num":"20","correct_side":1,"subjID":"DannaRamos10","gender":"1","age":"9","school":"4"},{"start_time":1552055138989,"click_time":1552055140735,"finger_time":1552055139693,"fix_duration":855.6241594281364,"trial":50,"RT":704,"MT":1042,"sideResp":1,"stimulus":"img/500/equaldotsize/L/5_Ratio_500_L_4_R_2.png","xmouse":[758,758,758,758,758,758,758,758,758,759,760,760,760,760,760,760,760,760,760,761,763,766,770,770,770,770,770,771,771,772,772,772,773,773,773,773,773,773,770,765,753,736,700,679,658,643,622,580,558,526,504,490,471,452,427,406,387,382,382,382,382,382,382,382,382,386,391,396,397,397,396,394,393,393,393,393,392,396,416,423,417,388,356,352,358,378,399,427],"ymouse":[626,626,626,626,626,626,626,626,626,627,628,628,628,628,628,628,628,628,628,629,629,630,630,630,630,630,630,630,627,624,621,619,608,597,584,564,560,547,540,532,518,500,470,455,446,438,427,399,381,347,325,310,298,292,285,278,273,269,269,269,269,269,269,267,261,243,226,202,197,188,177,168,156,152,150,147,136,110,0,0,0,0,0,0,7,23,39,61],"timestamp_mouse":[13,25,45,65,84,104,124,146,165,186,204,224,246,264,284,305,324,344,364,385,405,425,444,464,484,505,524,545,566,585,606,625,644,664,684,704,725,744,765,785,806,826,844,864,884,906,924,944,964,986,1006,1025,1044,1064,1084,1105,1125,1144,1164,1185,1204,1225,1245,1265,1284,1305,1325,1344,1364,1386,1405,1425,1444,1464,1484,1505,1524,1544,1564,1584,1605,1625,1644,1665,1685,1705,1726,1745],"xSR":741.5,"ySR":573.95,"xT1":424.9,"yT1":0,"xT2":1058.1,"yT2":0,"toosoon":0,"cond_shown":"equaldotsize","ratio_trial":500,"smaller_num":"2","larger_num":"4","correct_side":1,"subjID":"DannaRamos10","gender":"1","age":"9","school":"4"},{"start_time":1552055146172,"click_time":1552055147313,"finger_time":1552055146774,"fix_duration":1498.9266921608037,"trial":51,"RT":602,"MT":539,"sideResp":1,"stimulus":"img/750/randomdotsizeEA/L/13_Ratio_750_L_8_R_6.png","xmouse":[800,800,800,800,800,800,800,800,800,800,800,800,800,800,800,800,800,800,800,800,800,800,800,800,800,800,800,798,794,789,776,764,745,725,672,635,621,615,609,585,572,559,553,549,540,537,536,534,532,531,531,531,531,531,531,529,526,523],"ymouse":[626,626,626,626,626,626,626,626,626,626,626,626,626,626,626,626,626,626,626,626,626,626,626,626,626,626,622,616,604,585,539,495,430,374,294,251,231,221,211,168,144,112,95,83,53,44,40,35,33,32,31,31,31,31,31,31,38,45],"timestamp_mouse":[10,36,41,63,83,102,121,142,162,181,202,222,241,262,283,302,322,342,363,381,401,422,443,461,482,502,521,542,562,582,602,623,642,661,682,701,722,741,761,783,801,822,841,861,882,901,922,941,962,982,1001,1022,1041,1061,1082,1102,1122,1141],"xSR":741.5,"ySR":573.95,"xT1":424.9,"yT1":0,"xT2":1058.1,"yT2":0,"toosoon":0,"cond_shown":"randomdotsizeEA","ratio_trial":750,"smaller_num":"6","larger_num":"8","correct_side":1,"subjID":"DannaRamos10","gender":"1","age":"9","school":"4"},{"start_time":1552055149634,"click_time":1552055150993,"finger_time":1552055150274,"fix_duration":1358.6718737589595,"trial":52,"RT":640,"MT":719,"sideResp":2,"stimulus":"img/750/equaldotanddens/R/15_Ratio_750_L_9_R_12.png","xmouse":[798,798,798,798,798,798,798,798,798,798,798,798,798,798,798,798,798,798,798,798,798,798,798,798,798,798,798,798,798,798,798,798,803,808,815,828,867,937,1000,1059,1114,1162,1231,1245,1253,1253,1254,1255,1255,1255,1255,1254,1243,1232,1221,1202,1191,1185,1184,1184,1184,1184,1183,1182,1181,1177,1173,1160,1156],"ymouse":[609,609,609,609,609,609,609,609,609,609,609,609,609,609,609,609,609,609,609,609,609,609,609,609,609,609,609,609,609,610,607,599,573,562,549,533,486,384,300,225,154,83,0,0,0,0,0,0,0,0,0,0,10,23,37,54,63,70,70,70,70,70,72,73,74,76,77,78,78],"timestamp_mouse":[1,19,39,60,79,100,119,140,161,180,200,219,240,260,280,300,320,341,359,380,399,420,439,460,479,500,520,540,561,579,599,620,640,659,680,700,721,740,760,779,800,820,840,860,881,901,920,940,960,980,999,1019,1041,1061,1080,1100,1121,1140,1160,1179,1199,1219,1240,1259,1281,1300,1320,1339,1359],"xSR":741.5,"ySR":573.95,"xT1":424.9,"yT1":0,"xT2":1058.1,"yT2":0,"toosoon":0,"cond_shown":"equaldotanddens","ratio_trial":750,"smaller_num":"9","larger_num":"12","correct_side":2,"subjID":"DannaRamos10","gender":"1","age":"9","school":"4"},{"start_time":1552055153706,"click_time":1552055155134,"finger_time":1552055154554,"fix_duration":1490.4085815122805,"trial":53,"RT":848,"MT":580,"sideResp":1,"stimulus":"img/900/equaldotsize/R/3_Ratio_900_L_9_R_10.png","xmouse":[819,819,819,819,819,819,819,819,819,819,819,819,819,819,819,819,819,819,819,819,819,819,819,819,819,819,819,819,819,819,819,817,814,810,807,806,805,805,805,804,803,787,757,574,483,409,359,347,336,333,332,332,332,332,332,332,332,335,338,339,340,344,350,361,368,374,381,389,410,417,424,427],"ymouse":[630,630,630,630,630,630,630,630,630,630,630,630,630,630,630,630,630,630,630,630,630,630,630,630,630,630,630,630,630,630,630,627,621,611,608,605,603,603,603,603,601,582,556,397,318,220,151,133,110,104,104,104,104,104,104,104,104,108,110,110,110,110,109,103,100,97,93,88,76,71,67,65],"timestamp_mouse":[14,39,48,68,88,107,128,147,168,188,207,227,249,267,287,307,327,347,367,389,409,429,448,467,487,508,527,548,567,588,607,628,648,668,688,708,727,747,767,787,808,828,848,867,887,907,928,949,968,987,1007,1028,1047,1068,1088,1109,1129,1149,1168,1187,1207,1227,1247,1268,1287,1308,1328,1349,1368,1387,1407,1428],"xSR":741.5,"ySR":573.95,"xT1":424.9,"yT1":0,"xT2":1058.1,"yT2":0,"toosoon":0,"cond_shown":"equaldotsize","ratio_trial":900,"smaller_num":"9","larger_num":"10","correct_side":2,"subjID":"DannaRamos10","gender":"1","age":"9","school":"4"},{"start_time":1552055158360,"click_time":1552055159593,"finger_time":1552055158973,"fix_duration":464.92773403422825,"trial":54,"RT":613,"MT":620,"sideResp":1,"stimulus":"img/500/equaldotanddens/L/10_Ratio_500_L_4_R_2.png","xmouse":[785,785,785,785,785,785,785,785,785,785,785,785,785,785,785,785,785,785,785,785,785,785,785,785,784,783,774,768,759,747,724,673,656,640,617,583,496,433,384,367,361,348,338,326,321,340,349,354,354,355,358,371,376,379,381,382,393,397,403,405,409,425],"ymouse":[615,615,615,615,615,615,615,615,615,615,615,615,615,615,615,615,615,615,615,615,615,615,615,615,615,614,610,607,601,589,572,547,536,527,514,491,399,327,266,239,225,200,180,138,102,21,0,0,0,0,0,4,7,7,8,9,14,15,18,19,21,25],"timestamp_mouse":[13,34,53,75,94,114,133,155,174,194,213,233,253,274,293,313,333,354,375,393,413,433,453,473,494,514,533,554,574,593,613,634,653,675,694,714,733,754,773,795,814,834,855,873,893,915,935,954,974,994,1014,1033,1054,1074,1094,1113,1134,1154,1173,1193,1214,1233],"xSR":741.5,"ySR":573.95,"xT1":424.9,"yT1":0,"xT2":1058.1,"yT2":0,"toosoon":0,"cond_shown":"equaldotanddens","ratio_trial":500,"smaller_num":"2","larger_num":"4","correct_side":1,"subjID":"DannaRamos10","gender":"1","age":"9","school":"4"},{"start_time":1552055162126,"click_time":1552055164534,"finger_time":1552055162774,"fix_duration":250,"trial":55,"RT":648,"MT":1760,"sideResp":1,"stimulus":"img/500/randomdotsizeEA/R/1_Ratio_500_L_9_R_18.png","xmouse":[784,784,784,784,784,784,784,784,784,784,784,784,784,784,784,784,784,784,784,784,784,784,784,784,784,784,784,784,784,784,784,796,803,826,831,831,831,831,831,831,831,831,831,833,835,836,836,836,836,835,829,818,803,782,729,686,604,560,514,502,492,480,465,440,436,432,432,432,432,432,432,432,432,432,431,431,431,431,431,431,431,431,431,431,431,431,431,431,433,439,445,459,467,483,488,490,491,491,491,491,491,491,491,491,491,491,491,491,491,491,491,491,491,491,491,491,491,491,491,492,493],"ymouse":[603,603,603,603,603,603,603,603,603,603,603,603,603,603,603,603,603,603,603,603,603,603,603,603,603,603,603,603,603,603,603,580,569,530,520,520,520,520,520,520,520,520,520,517,510,506,505,504,503,499,494,489,483,474,448,422,362,324,283,269,251,229,205,171,162,158,158,158,158,158,158,158,158,155,152,151,150,149,149,149,149,149,149,149,149,149,149,149,146,143,137,129,123,111,108,106,105,104,104,104,104,104,104,104,104,104,104,104,104,104,104,104,104,104,104,104,104,104,103,100,98],"timestamp_mouse":[13,38,47,68,87,107,129,147,167,187,209,228,247,268,288,308,327,347,369,387,407,427,448,468,487,507,527,548,567,589,609,628,648,668,687,707,728,747,767,789,807,828,849,867,887,909,927,947,967,987,1008,1027,1049,1067,1087,1108,1127,1148,1168,1187,1207,1228,1248,1268,1287,1307,1328,1347,1367,1389,1407,1427,1447,1468,1487,1508,1528,1547,1568,1589,1608,1627,1647,1667,1687,1707,1728,1747,1769,1788,1808,1828,1848,1868,1887,1907,1928,1948,1968,1988,2007,2028,2048,2067,2089,2107,2127,2147,2167,2187,2207,2227,2248,2268,2287,2308,2328,2347,2367,2388,2408],"xSR":741.5,"ySR":573.95,"xT1":424.9,"yT1":0,"xT2":1058.1,"yT2":0,"toosoon":0,"cond_shown":"randomdotsizeEA","ratio_trial":500,"smaller_num":"9","larger_num":"18","correct_side":2,"subjID":"DannaRamos10","gender":"1","age":"9","school":"4"},{"start_time":1552055167163,"click_time":1552055168013,"finger_time":1552055167534,"fix_duration":1447.6992919109034,"trial":56,"RT":371,"MT":479,"sideResp":1,"stimulus":"img/250/equaldotsize/L/1_Ratio_250_L_8_R_2.png","xmouse":[782,782,782,782,782,782,782,782,782,782,782,782,782,782,782,782,781,772,760,747,727,705,667,644,633,625,622,620,618,616,613,607,591,585,573,555,541,537,534,530,528,527,520],"ymouse":[596,596,596,596,596,596,596,596,596,596,596,596,596,596,596,596,596,576,555,537,509,485,438,405,390,379,374,373,369,365,358,345,307,287,257,209,148,129,118,113,112,110,99],"timestamp_mouse":[21,30,50,71,90,110,131,151,170,190,211,230,250,270,290,310,331,352,371,392,410,431,450,471,492,511,532,550,570,591,611,630,650,670,690,711,732,750,771,790,811,831,850],"xSR":741.5,"ySR":573.95,"xT1":424.9,"yT1":0,"xT2":1058.1,"yT2":0,"toosoon":0,"cond_shown":"equaldotsize","ratio_trial":250,"smaller_num":"2","larger_num":"8","correct_side":1,"subjID":"DannaRamos10","gender":"1","age":"9","school":"4"},{"start_time":1552055169965,"click_time":1552055171275,"finger_time":1552055170334,"fix_duration":1248.3239019510977,"trial":57,"RT":369,"MT":941,"sideResp":2,"stimulus":"img/500/equaldotanddens/R/12_Ratio_500_L_1_R_2.png","xmouse":[770,770,770,770,770,770,770,770,771,771,771,772,773,775,780,786,796,815,819,820,821,823,839,847,851,853,853,853,853,853,853,853,853,853,853,854,854,853,848,839,833,832,840,846,855,859,866,882,894,905,917,937,958,962,964,964,964,972,978,985,991,997,1002,1007,1030,1091],"ymouse":[640,640,640,640,640,640,640,640,638,636,635,634,630,627,619,609,595,574,571,569,569,566,541,530,526,524,524,524,524,524,524,524,524,524,523,517,510,493,480,460,439,411,379,363,349,339,329,310,296,284,269,248,218,204,191,177,168,140,125,115,104,96,90,90,90,96],"timestamp_mouse":[12,38,48,70,89,109,129,149,169,189,208,230,248,270,289,308,329,348,369,389,409,428,448,469,488,509,528,549,569,588,609,629,649,669,689,710,728,749,768,789,810,828,848,869,888,908,928,950,968,988,1008,1028,1048,1068,1089,1109,1128,1148,1168,1189,1209,1228,1248,1270,1288,1309],"xSR":741.5,"ySR":573.95,"xT1":424.9,"yT1":0,"xT2":1058.1,"yT2":0,"toosoon":0,"cond_shown":"equaldotanddens","ratio_trial":500,"smaller_num":"1","larger_num":"2","correct_side":2,"subjID":"DannaRamos10","gender":"1","age":"9","school":"4"},{"start_time":1552055173546,"click_time":1552055174934,"finger_time":1552055174395,"fix_duration":930.8010466201919,"trial":58,"RT":849,"MT":539,"sideResp":1,"stimulus":"img/900/randomdotsizeEA/R/11_Ratio_900_L_18_R_20.png","xmouse":[800,800,800,800,800,800,800,800,800,800,800,800,800,800,800,800,800,800,800,800,800,800,800,800,800,800,800,800,800,800,800,800,800,800,800,800,800,800,800,798,790,775,751,698,676,661,644,625,582,548,538,513,495,478,476,473,473,473,473,473,473,473,473,473,473,474,479,483,486,486],"ymouse":[628,628,628,628,628,628,628,628,628,628,628,628,628,628,628,628,628,628,628,628,628,628,628,628,628,628,628,628,628,628,628,628,628,628,628,628,628,628,628,623,611,589,552,488,464,443,421,402,360,325,315,289,272,249,239,232,224,217,204,198,193,192,191,191,188,184,171,152,130,97],"timestamp_mouse":[13,36,47,67,89,109,129,148,169,187,207,228,247,268,289,308,328,349,367,388,408,428,448,468,487,507,529,549,568,587,607,628,648,667,688,708,727,747,767,788,807,827,849,868,887,907,928,948,968,987,1007,1027,1049,1068,1088,1107,1127,1148,1168,1187,1207,1227,1248,1267,1288,1308,1329,1348,1367,1388],"xSR":741.5,"ySR":573.95,"xT1":424.9,"yT1":0,"xT2":1058.1,"yT2":0,"toosoon":0,"cond_shown":"randomdotsizeEA","ratio_trial":900,"smaller_num":"18","larger_num":"20","correct_side":2,"subjID":"DannaRamos10","gender":"1","age":"9","school":"4"},{"start_time":1552055178795,"click_time":1552055180374,"finger_time":1552055179615,"fix_duration":779.6054037462122,"trial":59,"RT":820,"MT":759,"sideResp":2,"stimulus":"img/900/randomdotsizeEA/R/3_Ratio_900_L_9_R_10.png","xmouse":[793,793,793,793,793,793,793,793,793,793,793,793,793,793,793,793,793,793,793,793,793,793,793,793,793,793,793,793,793,793,793,793,793,793,793,793,793,793,796,802,807,811,815,815,816,817,820,845,863,878,882,883,883,883,883,883,888,902,912,924,934,940,949,952,957,964,971,986,993,1000,1006,1011,1013,1013,1013,1013,1014,1028,1040,1059],"ymouse":[602,602,602,602,602,602,602,602,602,602,602,602,602,602,602,602,602,602,602,602,602,602,602,602,602,602,602,602,602,602,602,602,602,602,602,602,602,602,594,583,574,566,557,556,556,554,546,489,446,397,356,331,277,245,213,184,163,129,114,101,88,81,75,74,74,74,74,69,67,65,64,62,61,61,61,61,61,60,60,60],"timestamp_mouse":[2,19,39,60,79,98,118,138,160,178,198,220,240,259,279,299,318,340,360,380,399,420,440,459,479,498,520,540,560,579,600,620,640,660,679,700,720,740,760,779,800,820,839,859,879,898,918,939,959,980,999,1020,1039,1060,1079,1099,1119,1139,1159,1179,1199,1220,1239,1260,1280,1299,1319,1339,1359,1380,1399,1420,1439,1460,1479,1500,1520,1539,1559,1579],"xSR":741.5,"ySR":573.95,"xT1":424.9,"yT1":0,"xT2":1058.1,"yT2":0,"toosoon":0,"cond_shown":"randomdotsizeEA","ratio_trial":900,"smaller_num":"9","larger_num":"10","correct_side":2,"subjID":"DannaRamos10","gender":"1","age":"9","school":"4"},{"start_time":1552055183850,"click_time":1552055184855,"finger_time":1552055184514,"fix_duration":594.9907558855139,"trial":60,"RT":664,"MT":341,"sideResp":2,"stimulus":"img/250/equaldotanddens/R/6_Ratio_250_L_6_R_24.png","xmouse":[769,769,769,769,769,769,769,769,769,769,769,769,769,769,769,769,769,769,769,769,769,769,769,769,769,769,769,769,769,769,772,778,806,829,890,917,947,968,983,1010,1023,1039,1068,1095,1130,1132,1133,1133,1133,1135,1141],"ymouse":[614,614,614,614,614,614,614,614,614,614,614,614,614,614,614,614,614,614,614,614,614,614,614,614,614,614,614,614,614,614,610,605,585,567,504,459,406,369,343,301,278,251,204,165,128,121,119,115,109,103,94],"timestamp_mouse":[12,35,44,63,85,105,124,144,164,183,203,225,245,265,284,303,324,345,364,385,403,425,444,464,485,504,525,545,564,585,604,624,644,664,684,704,724,744,764,784,803,823,843,865,884,903,924,945,965,983,1004],"xSR":741.5,"ySR":573.95,"xT1":424.9,"yT1":0,"xT2":1058.1,"yT2":0,"toosoon":0,"cond_shown":"equaldotanddens","ratio_trial":250,"smaller_num":"6","larger_num":"24","correct_side":2,"subjID":"DannaRamos10","gender":"1","age":"9","school":"4"},{"start_time":1552055186097,"click_time":1552055187614,"finger_time":1552055186835,"fix_duration":440.7078119113286,"trial":61,"RT":738,"MT":779,"sideResp":1,"stimulus":"img/500/equaldotsize/L/13_Ratio_500_L_12_R_6.png","xmouse":[789,789,789,789,789,789,789,789,789,789,789,789,789,789,789,789,789,789,789,789,789,789,789,789,789,789,789,789,789,789,789,789,789,789,788,781,765,757,739,729,721,701,690,675,660,648,622,601,591,585,580,580,581,584,585,585,585,585,584,569,549,525,485,479,479,479,479,479,479,479,479,479,478,478,478,478],"ymouse":[632,632,632,632,632,632,632,632,632,632,632,632,632,632,632,632,632,632,632,632,632,632,632,632,632,632,632,632,632,632,632,632,632,630,623