[{"start_time":1552054117374,"click_time":1552054118895,"finger_time":1552054117386,"fix_duration":693.7645042132747,"trial":0,"RT":12,"MT":1509,"sideResp":2,"stimulus":[],"xmouse":[804,804,804,804,804,804,804,804,804,804,804,804,804,804,804,804,804,804,804,803,804,806,807,807,808,809,810,810,810,810,810,810,810,810,810,810,810,810,810,810,810,810,812,815,823,853,871,888,914,926,940,940,940,940,941,952,961,973,980,987,1006,1022,1041,1051,1059,1060,1060,1060,1060,1061,1063,1065,1069,1075,1083,1103,1114],"ymouse":[560,560,560,560,560,560,560,560,560,560,560,560,560,560,560,560,560,560,560,560,555,551,549,547,545,543,543,542,541,541,541,541,541,541,541,541,541,541,541,541,541,541,540,536,528,494,462,398,303,273,255,255,255,255,253,244,238,231,227,221,208,195,184,178,173,173,173,173,173,173,171,167,162,152,142,110,93],"timestamp_mouse":[12,28,41,60,81,99,119,140,159,180,200,221,241,260,281,300,321,340,361,380,401,421,440,461,481,501,520,540,560,581,600,621,640,659,679,701,720,740,761,781,799,821,840,861,880,900,921,941,961,980,1001,1021,1040,1060,1081,1100,1119,1140,1161,1180,1200,1219,1241,1261,1280,1300,1319,1339,1360,1381,1400,1420,1440,1460,1480,1501,1520],"xSR":741.5,"ySR":501.8,"xT1":424.9,"yT1":0,"xT2":1058.1,"yT2":0,"toosoon":0,"cond_shown":"Congruent","ratio_trial":100,"L_num":6,"L_den":20,"R_num":5,"R_den":25,"correct_side":1,"subjID":"DannaRamos10","gender":"1","age":"9","school":"4","test":{"fix_dur":[250,1500],"timestim":1000,"targets_dim":[100,100],"targets_relative_coord":[0.3,0.7],"size_stim":[880,420],"start_dim":[100,100],"size_start":[300,300],"size_fix":60,"samplingrate":20,"img_types":["Congruent","Incongruent"],"ratios":[100,200,300],"rep_conds":19,"nTrials":120,"trials_to_rest":500,"Trials_order":[0,16,87,19,20,76,5,38,69,22,27,113,47,62,54,98,93,102,8,42,60,96,118,114,51,68,89,21,112,50,92,103,79,111,107,115,75,23,61,33,100,29,32,77,35,73,94,71,6,74,41,25,14,104,53,31,108,84,82,55,109,37,65,101,24,44,18,72,3,119,11,58,86,48,9,26,45,36,15,117,59,78,64,67,105,106,12,116,49,1,43,28,110,95,88,10,4,66,52,7,56,81,90,39,80,13,57,91,99,85,2,70,63,97,34,46,83,17,30,40],"cond_shown":["Congruent","Congruent","Incongruent","Incongruent","Congruent","Congruent","Incongruent","Congruent","Incongruent","Congruent","Incongruent","Incongruent","Incongruent","Congruent","Congruent","Congruent","Incongruent","Congruent","Congruent","Congruent","Congruent","Congruent","Congruent","Congruent","Incongruent","Congruent","Incongruent","Incongruent","Congruent","Congruent","Congruent","Incongruent","Incongruent","Incongruent","Incongruent","Incongruent","Incongruent","Incongruent","Incongruent","Incongruent","Congruent","Incongruent","Congruent","Incongruent","Incongruent","Incongruent","Congruent","Incongruent","Congruent","Congruent","Incongruent","Incongruent","Congruent","Congruent","Incongruent","Incongruent","Congruent","Congruent","Congruent","Incongruent","Incongruent","Incongruent","Incongruent","Incongruent","Congruent","Congruent","Congruent","Congruent","Incongruent","Incongruent","Incongruent","Congruent","Congruent","Congruent","Incongruent","Congruent","Incongruent","Congruent","Incongruent","Incongruent","Incongruent","Congruent","Congruent","Incongruent","Incongruent","Congruent","Congruent","Congruent","Incongruent","Incongruent","Incongruent","Congruent","Congruent","Incongruent","Congruent","Congruent","Congruent","Congruent","Congruent","Incongruent","Congruent","Incongruent","Congruent","Incongruent","Congruent","Incongruent","Incongruent","Incongruent","Incongruent","Incongruent","Congruent","Congruent","Incongruent","Incongruent","Congruent","Congruent","Incongruent","Incongruent","Congruent","Congruent"],"ratio_trial":[100,300,200,100,200,300,300,200,200,300,200,300,300,200,100,200,200,100,200,100,100,100,300,100,200,200,300,200,300,200,200,100,100,200,300,100,200,300,100,200,300,300,200,300,300,100,300,300,100,200,300,100,200,200,300,100,100,100,300,100,100,100,300,300,100,200,100,100,200,300,300,300,200,100,200,200,200,100,200,200,300,100,300,100,200,300,100,200,100,100,100,300,200,300,300,300,300,100,300,100,200,200,100,200,200,100,200,100,200,100,200,300,200,100,300,300,300,300,100,300],"left_num":[6,24,7,12,13,11,4,12,4,1,4,4,3,8,12,7,9,11,4,4,9,1,3,10,3,3,13,11,5,16,8,9,1,4,4,6,3,1,6,14,3,4,13,4,4,13,18,13,11,13,13,12,20,3,8,6,7,9,1,9,9,13,4,13,8,16,8,7,4,4,13,1,8,15,4,9,14,6,4,7,13,15,24,13,14,5,2,5,17,6,3,3,3,1,1,24,3,1,7,9,5,7,2,9,3,11,4,17,14,12,6,20,4,9,20,1,1,4,10,1],"right_num":[5,8,12,2,14,2,2,6,6,19,6,6,4,2,13,2,8,6,3,6,8,3,2,3,11,11,12,3,6,12,7,6,8,6,2,7,1,3,11,6,11,2,14,8,2,6,9,12,6,14,12,9,9,11,9,11,15,8,3,6,13,12,2,12,2,12,2,9,1,2,12,7,7,13,14,4,6,5,6,8,12,13,2,12,12,7,11,14,10,13,4,4,14,2,7,8,11,3,20,14,14,8,11,8,14,9,6,10,6,2,7,13,1,14,9,3,3,6,3,11],"left_den":[20,30,10,30,26,22,20,15,5,3,5,5,6,15,30,21,15,22,8,8,15,2,6,25,4,10,26,20,25,20,15,18,2,5,20,10,10,2,10,30,12,20,26,5,20,26,20,26,22,26,26,24,25,10,10,10,14,15,5,18,15,26,20,26,16,20,16,14,30,20,26,20,15,25,6,20,30,20,5,10,26,25,30,26,30,25,5,10,30,10,6,6,6,2,20,30,12,2,14,15,10,10,5,15,10,22,5,30,30,30,12,25,30,15,25,5,2,5,25,5],"right_den":[25,16,24,4,20,10,4,10,10,30,10,12,20,6,26,15,10,15,10,10,16,5,10,10,20,22,15,4,12,20,21,10,20,10,4,14,2,15,22,9,20,4,20,16,4,10,15,15,15,20,15,15,15,22,18,22,25,16,6,10,26,20,4,15,5,20,5,15,3,4,15,20,21,26,30,16,9,25,10,16,15,26,4,20,18,14,22,20,15,26,10,5,20,10,20,16,20,5,25,28,20,16,22,10,28,15,10,15,9,4,10,26,3,28,18,6,15,12,10,22],"correct_side":[1,1,1,2,2,1,2,1,1,2,1,1,1,1,2,1,2,1,1,2,1,2,1,1,1,2,2,2,2,1,1,2,1,1,2,1,2,1,1,2,2,2,2,1,2,2,1,2,1,2,2,2,1,2,1,1,2,1,2,2,1,2,2,2,1,1,1,2,2,2,2,2,1,1,1,1,2,1,1,1,2,1,1,2,2,2,2,2,2,1,1,2,2,1,2,1,2,2,2,1,2,1,2,2,2,2,1,2,2,2,2,1,2,1,1,2,1,1,1,2],"img_shown":["img2/100/Congruent/L/C_Dist_100_LN_6_LD_20_RN_5_RD_25_0.png","img2/300/Congruent/L/C_Dist_300_LN_24_LD_30_RN_8_RD_16_0.png","img2/200/Incongruent/L/I_Dist_200_LN_7_LD_10_RN_12_RD_24_0.png","img2/100/Incongruent/R/I_Dist_100_LN_12_LD_30_RN_2_RD_4_1.png","img2/200/Congruent/R/C_Dist_200_LN_13_LD_26_RN_14_RD_20_1.png","img2/300/Congruent/L/C_Dist_300_LN_11_LD_22_RN_2_RD_10_0.png","img2/300/Incongruent/R/I_Dist_300_LN_4_LD_20_RN_2_RD_4_1.png","img2/200/Congruent/L/C_Dist_200_LN_12_LD_15_RN_6_RD_10_0.png","img2/200/Incongruent/L/I_Dist_200_LN_4_LD_5_RN_6_RD_10_0.png","img2/300/Congruent/R/C_Dist_300_LN_1_LD_3_RN_19_RD_30_1.png","img2/200/Incongruent/L/I_Dist_200_LN_4_LD_5_RN_6_RD_10_0.png","img2/300/Incongruent/L/I_Dist_300_LN_4_LD_5_RN_6_RD_12_0.png","img2/300/Incongruent/L/I_Dist_300_LN_3_LD_6_RN_4_RD_20_0.png","img2/200/Congruent/L/C_Dist_200_LN_8_LD_15_RN_2_RD_6_0.png","img2/100/Congruent/R/C_Dist_100_LN_12_LD_30_RN_13_RD_26_1.png","img2/200/Congruent/L/C_Dist_200_LN_7_LD_21_RN_2_RD_15_0.png","img2/200/Incongruent/R/I_Dist_200_LN_9_LD_15_RN_8_RD_10_1.png","img2/100/Congruent/L/C_Dist_100_LN_11_LD_22_RN_6_RD_15_0.png","img2/200/Congruent/L/C_Dist_200_LN_4_LD_8_RN_3_RD_10_0.png","img2/100/Congruent/R/C_Dist_100_LN_4_LD_8_RN_6_RD_10_1.png","img2/100/Congruent/L/C_Dist_100_LN_9_LD_15_RN_8_RD_16_0.png","img2/100/Congruent/R/C_Dist_100_LN_1_LD_2_RN_3_RD_5_1.png","img2/300/Congruent/L/C_Dist_300_LN_3_LD_6_RN_2_RD_10_0.png","img2/100/Congruent/L/C_Dist_100_LN_10_LD_25_RN_3_RD_10_0.png","img2/200/Incongruent/L/I_Dist_200_LN_3_LD_4_RN_11_RD_20_0.png","img2/200/Congruent/R/C_Dist_200_LN_3_LD_10_RN_11_RD_22_1.png","img2/300/Incongruent/R/I_Dist_300_LN_13_LD_26_RN_12_RD_15_1.png","img2/200/Incongruent/R/I_Dist_200_LN_11_LD_20_RN_3_RD_4_1.png","img2/300/Congruent/R/C_Dist_300_LN_5_LD_25_RN_6_RD_12_1.png","img2/200/Congruent/L/C_Dist_200_LN_16_LD_20_RN_12_RD_20_0.png","img2/200/Congruent/L/C_Dist_200_LN_8_LD_15_RN_7_RD_21_0.png","img2/100/Incongruent/R/I_Dist_100_LN_9_LD_18_RN_6_RD_10_1.png","img2/100/Incongruent/L/I_Dist_100_LN_1_LD_2_RN_8_RD_20_0.png","img2/200/Incongruent/L/I_Dist_200_LN_4_LD_5_RN_6_RD_10_0.png","img2/300/Incongruent/R/I_Dist_300_LN_4_LD_20_RN_2_RD_4_1.png","img2/100/Incongruent/L/I_Dist_100_LN_6_LD_10_RN_7_RD_14_0.png","img2/200/Incongruent/R/I_Dist_200_LN_3_LD_10_RN_1_RD_2_1.png","img2/300/Incongruent/L/I_Dist_300_LN_1_LD_2_RN_3_RD_15_0.png","img2/100/Incongruent/L/I_Dist_100_LN_6_LD_10_RN_11_RD_22_0.png","img2/200/Incongruent/R/I_Dist_200_LN_14_LD_30_RN_6_RD_9_1.png","img2/300/Congruent/R/C_Dist_300_LN_3_LD_12_RN_11_RD_20_1.png","img2/300/Incongruent/R/I_Dist_300_LN_4_LD_20_RN_2_RD_4_1.png","img2/200/Congruent/R/C_Dist_200_LN_13_LD_26_RN_14_RD_20_1.png","img2/300/Incongruent/L/I_Dist_300_LN_4_LD_5_RN_8_RD_16_0.png","img2/300/Incongruent/R/I_Dist_300_LN_4_LD_20_RN_2_RD_4_1.png","img2/100/Incongruent/R/I_Dist_100_LN_13_LD_26_RN_6_RD_10_1.png","img2/300/Congruent/L/C_Dist_300_LN_18_LD_20_RN_9_RD_15_0.png","img2/300/Incongruent/R/I_Dist_300_LN_13_LD_26_RN_12_RD_15_1.png","img2/100/Congruent/L/C_Dist_100_LN_11_LD_22_RN_6_RD_15_0.png","img2/200/Congruent/R/C_Dist_200_LN_13_LD_26_RN_14_RD_20_1.png","img2/300/Incongruent/R/I_Dist_300_LN_13_LD_26_RN_12_RD_15_1.png","img2/100/Incongruent/R/I_Dist_100_LN_12_LD_24_RN_9_RD_15_1.png","img2/200/Congruent/L/C_Dist_200_LN_20_LD_25_RN_9_RD_15_0.png","img2/200/Congruent/R/C_Dist_200_LN_3_LD_10_RN_11_RD_22_1.png","img2/300/Incongruent/L/I_Dist_300_LN_8_LD_10_RN_9_RD_18_0.png","img2/100/Incongruent/L/I_Dist_100_LN_6_LD_10_RN_11_RD_22_0.png","img2/100/Congruent/R/C_Dist_100_LN_7_LD_14_RN_15_RD_25_1.png","img2/100/Congruent/L/C_Dist_100_LN_9_LD_15_RN_8_RD_16_0.png","img2/300/Congruent/R/C_Dist_300_LN_1_LD_5_RN_3_RD_6_1.png","img2/100/Incongruent/R/I_Dist_100_LN_9_LD_18_RN_6_RD_10_1.png","img2/100/Incongruent/L/I_Dist_100_LN_9_LD_15_RN_13_RD_26_0.png","img2/100/Incongruent/R/I_Dist_100_LN_13_LD_26_RN_12_RD_20_1.png","img2/300/Incongruent/R/I_Dist_300_LN_4_LD_20_RN_2_RD_4_1.png","img2/300/Incongruent/R/I_Dist_300_LN_13_LD_26_RN_12_RD_15_1.png","img2/100/Congruent/L/C_Dist_100_LN_8_LD_16_RN_2_RD_5_0.png","img2/200/Congruent/L/C_Dist_200_LN_16_LD_20_RN_12_RD_20_0.png","img2/100/Congruent/L/C_Dist_100_LN_8_LD_16_RN_2_RD_5_0.png","img2/100/Congruent/R/C_Dist_100_LN_7_LD_14_RN_9_RD_15_1.png","img2/200/Incongruent/R/I_Dist_200_LN_4_LD_30_RN_1_RD_3_1.png","img2/300/Incongruent/R/I_Dist_300_LN_4_LD_20_RN_2_RD_4_1.png","img2/300/Incongruent/R/I_Dist_300_LN_13_LD_26_RN_12_RD_15_1.png","img2/300/Congruent/R/C_Dist_300_LN_1_LD_20_RN_7_RD_20_1.png","img2/200/Congruent/L/C_Dist_200_LN_8_LD_15_RN_7_RD_21_0.png","img2/100/Congruent/L/C_Dist_100_LN_15_LD_25_RN_13_RD_26_0.png","img2/200/Incongruent/L/I_Dist_200_LN_4_LD_6_RN_14_RD_30_0.png","img2/200/Congruent/L/C_Dist_200_LN_9_LD_20_RN_4_RD_16_0.png","img2/200/Incongruent/R/I_Dist_200_LN_14_LD_30_RN_6_RD_9_1.png","img2/100/Congruent/L/C_Dist_100_LN_6_LD_20_RN_5_RD_25_0.png","img2/200/Incongruent/L/I_Dist_200_LN_4_LD_5_RN_6_RD_10_0.png","img2/200/Incongruent/L/I_Dist_200_LN_7_LD_10_RN_8_RD_16_0.png","img2/300/Incongruent/R/I_Dist_300_LN_13_LD_26_RN_12_RD_15_1.png","img2/100/Congruent/L/C_Dist_100_LN_15_LD_25_RN_13_RD_26_0.png","img2/300/Congruent/L/C_Dist_300_LN_24_LD_30_RN_2_RD_4_0.png","img2/100/Incongruent/R/I_Dist_100_LN_13_LD_26_RN_12_RD_20_1.png","img2/200/Incongruent/R/I_Dist_200_LN_14_LD_30_RN_12_RD_18_1.png","img2/300/Congruent/R/C_Dist_300_LN_5_LD_25_RN_7_RD_14_1.png","img2/100/Congruent/R/C_Dist_100_LN_2_LD_5_RN_11_RD_22_1.png","img2/200/Congruent/R/C_Dist_200_LN_5_LD_10_RN_14_RD_20_1.png","img2/100/Incongruent/R/I_Dist_100_LN_17_LD_30_RN_10_RD_15_1.png","img2/100/Incongruent/L/I_Dist_100_LN_6_LD_10_RN_13_RD_26_0.png","img2/100/Incongruent/L/I_Dist_100_LN_3_LD_6_RN_4_RD_10_0.png","img2/300/Congruent/R/C_Dist_300_LN_3_LD_6_RN_4_RD_5_1.png","img2/200/Congruent/R/C_Dist_200_LN_3_LD_6_RN_14_RD_20_1.png","img2/300/Incongruent/L/I_Dist_300_LN_1_LD_2_RN_2_RD_10_0.png","img2/300/Congruent/R/C_Dist_300_LN_1_LD_20_RN_7_RD_20_1.png","img2/300/Congruent/L/C_Dist_300_LN_24_LD_30_RN_8_RD_16_0.png","img2/300/Congruent/R/C_Dist_300_LN_3_LD_12_RN_11_RD_20_1.png","img2/100/Congruent/R/C_Dist_100_LN_1_LD_2_RN_3_RD_5_1.png","img2/300/Congruent/R/C_Dist_300_LN_7_LD_14_RN_20_RD_25_1.png","img2/100/Incongruent/L/I_Dist_100_LN_9_LD_15_RN_14_RD_28_0.png","img2/200/Congruent/R/C_Dist_200_LN_5_LD_10_RN_14_RD_20_1.png","img2/200/Incongruent/L/I_Dist_200_LN_7_LD_10_RN_8_RD_16_0.png","img2/100/Congruent/R/C_Dist_100_LN_2_LD_5_RN_11_RD_22_1.png","img2/200/Incongruent/R/I_Dist_200_LN_9_LD_15_RN_8_RD_10_1.png","img2/200/Congruent/R/C_Dist_200_LN_3_LD_10_RN_14_RD_28_1.png","img2/100/Incongruent/R/I_Dist_100_LN_11_LD_22_RN_9_RD_15_1.png","img2/200/Incongruent/L/I_Dist_200_LN_4_LD_5_RN_6_RD_10_0.png","img2/100/Incongruent/R/I_Dist_100_LN_17_LD_30_RN_10_RD_15_1.png","img2/200/Incongruent/R/I_Dist_200_LN_14_LD_30_RN_6_RD_9_1.png","img2/100/Incongruent/R/I_Dist_100_LN_12_LD_30_RN_2_RD_4_1.png","img2/200/Congruent/R/C_Dist_200_LN_6_LD_12_RN_7_RD_10_1.png","img2/300/Congruent/L/C_Dist_300_LN_20_LD_25_RN_13_RD_26_0.png","img2/200/Incongruent/R/I_Dist_200_LN_4_LD_30_RN_1_RD_3_1.png","img2/100/Incongruent/L/I_Dist_100_LN_9_LD_15_RN_14_RD_28_0.png","img2/300/Congruent/L/C_Dist_300_LN_20_LD_25_RN_9_RD_18_0.png","img2/300/Congruent/R/C_Dist_300_LN_1_LD_5_RN_3_RD_6_1.png","img2/300/Incongruent/L/I_Dist_300_LN_1_LD_2_RN_3_RD_15_0.png","img2/300/Incongruent/L/I_Dist_300_LN_4_LD_5_RN_6_RD_12_0.png","img2/100/Congruent/L/C_Dist_100_LN_10_LD_25_RN_3_RD_10_0.png","img2/300/Congruent/R/C_Dist_300_LN_1_LD_5_RN_11_RD_22_1.png"],"dist100_C":[["C_Dist_100_LN_10_LD_25_RN_3_RD_10_0.png","C_Dist_100_LN_11_LD_22_RN_4_RD_10_0.png","C_Dist_100_LN_11_LD_22_RN_6_RD_15_0.png","C_Dist_100_LN_15_LD_25_RN_13_RD_26_0.png","C_Dist_100_LN_3_LD_6_RN_2_RD_5_0.png","C_Dist_100_LN_6_LD_20_RN_5_RD_25_0.png","C_Dist_100_LN_8_LD_16_RN_2_RD_5_0.png","C_Dist_100_LN_9_LD_15_RN_8_RD_16_0.png"],["C_Dist_100_LN_1_LD_2_RN_18_RD_30_1.png","C_Dist_100_LN_1_LD_2_RN_3_RD_5_1.png","C_Dist_100_LN_12_LD_30_RN_13_RD_26_1.png","C_Dist_100_LN_2_LD_5_RN_11_RD_22_1.png","C_Dist_100_LN_2_LD_5_RN_6_RD_12_1.png","C_Dist_100_LN_3_LD_20_RN_4_RD_16_1.png","C_Dist_100_LN_4_LD_10_RN_15_RD_30_1.png","C_Dist_100_LN_4_LD_8_RN_6_RD_10_1.png","C_Dist_100_LN_6_LD_12_RN_15_RD_25_1.png","C_Dist_100_LN_7_LD_14_RN_15_RD_25_1.png","C_Dist_100_LN_7_LD_14_RN_9_RD_15_1.png"]],"dist100_I":[["I_Dist_100_LN_1_LD_2_RN_8_RD_20_0.png","I_Dist_100_LN_2_LD_4_RN_6_RD_15_0.png","I_Dist_100_LN_2_LD_4_RN_8_RD_20_0.png","I_Dist_100_LN_3_LD_5_RN_11_RD_22_0.png","I_Dist_100_LN_3_LD_5_RN_8_RD_16_0.png","I_Dist_100_LN_3_LD_6_RN_4_RD_10_0.png","I_Dist_100_LN_3_LD_9_RN_7_RD_30_0.png","I_Dist_100_LN_4_LD_8_RN_8_RD_20_0.png","I_Dist_100_LN_6_LD_10_RN_11_RD_22_0.png","I_Dist_100_LN_6_LD_10_RN_13_RD_26_0.png","I_Dist_100_LN_6_LD_10_RN_7_RD_14_0.png","I_Dist_100_LN_9_LD_10_RN_20_RD_25_0.png","I_Dist_100_LN_9_LD_15_RN_13_RD_26_0.png","I_Dist_100_LN_9_LD_15_RN_14_RD_28_0.png"],["I_Dist_100_LN_10_LD_25_RN_8_RD_16_1.png","I_Dist_100_LN_10_LD_25_RN_9_RD_18_1.png","I_Dist_100_LN_11_LD_22_RN_9_RD_15_1.png","I_Dist_100_LN_12_LD_24_RN_9_RD_15_1.png","I_Dist_100_LN_12_LD_30_RN_2_RD_4_1.png","I_Dist_100_LN_13_LD_26_RN_12_RD_20_1.png","I_Dist_100_LN_13_LD_26_RN_6_RD_10_1.png","I_Dist_100_LN_17_LD_30_RN_10_RD_15_1.png","I_Dist_100_LN_6_LD_12_RN_3_RD_5_1.png","I_Dist_100_LN_8_LD_16_RN_6_RD_10_1.png","I_Dist_100_LN_8_LD_20_RN_1_RD_2_1.png","I_Dist_100_LN_9_LD_18_RN_6_RD_10_1.png"]],"dist100_S":[["E_Dist_100_LN_2_LD_12_RN_2_RD_30_0.png","E_Dist_100_LN_6_LD_10_RN_6_RD_12_0.png"],["E_Dist_100_LN_6_LD_12_RN_6_RD_10_1.png"]],"dist200_C":[["C_Dist_200_LN_11_LD_22_RN_3_RD_10_0.png","C_Dist_200_LN_12_LD_15_RN_6_RD_10_0.png","C_Dist_200_LN_12_LD_20_RN_6_RD_15_0.png","C_Dist_200_LN_14_LD_28_RN_6_RD_20_0.png","C_Dist_200_LN_15_LD_25_RN_4_RD_10_0.png","C_Dist_200_LN_16_LD_20_RN_12_RD_20_0.png","C_Dist_200_LN_16_LD_30_RN_9_RD_27_0.png","C_Dist_200_LN_20_LD_25_RN_9_RD_15_0.png","C_Dist_200_LN_21_LD_30_RN_2_RD_4_0.png","C_Dist_200_LN_4_LD_10_RN_3_RD_15_0.png","C_Dist_200_LN_4_LD_8_RN_3_RD_10_0.png","C_Dist_200_LN_6_LD_15_RN_3_RD_15_0.png","C_Dist_200_LN_7_LD_21_RN_2_RD_15_0.png","C_Dist_200_LN_8_LD_15_RN_2_RD_6_0.png","C_Dist_200_LN_8_LD_15_RN_3_RD_9_0.png","C_Dist_200_LN_8_LD_15_RN_7_RD_21_0.png","C_Dist_200_LN_9_LD_20_RN_4_RD_16_0.png"],["C_Dist_200_LN_1_LD_2_RN_21_RD_30_1.png","C_Dist_200_LN_13_LD_26_RN_14_RD_20_1.png","C_Dist_200_LN_3_LD_10_RN_11_RD_22_1.png","C_Dist_200_LN_3_LD_10_RN_14_RD_28_1.png","C_Dist_200_LN_3_LD_10_RN_7_RD_14_1.png","C_Dist_200_LN_3_LD_12_RN_9_RD_20_1.png","C_Dist_200_LN_3_LD_6_RN_14_RD_20_1.png","C_Dist_200_LN_5_LD_10_RN_14_RD_20_1.png","C_Dist_200_LN_6_LD_12_RN_7_RD_10_1.png","C_Dist_200_LN_6_LD_20_RN_11_RD_22_1.png","C_Dist_200_LN_7_LD_15_RN_18_RD_27_1.png","C_Dist_200_LN_9_LD_30_RN_13_RD_26_1.png"]],"dist200_I":[["I_Dist_200_LN_1_LD_2_RN_3_RD_10_0.png","I_Dist_200_LN_1_LD_3_RN_2_RD_15_0.png","I_Dist_200_LN_3_LD_4_RN_11_RD_20_0.png","I_Dist_200_LN_4_LD_5_RN_6_RD_10_0.png","I_Dist_200_LN_4_LD_6_RN_14_RD_30_0.png","I_Dist_200_LN_7_LD_10_RN_12_RD_24_0.png","I_Dist_200_LN_7_LD_10_RN_14_RD_28_0.png","I_Dist_200_LN_7_LD_10_RN_8_RD_16_0.png"],["I_Dist_200_LN_11_LD_20_RN_3_RD_4_1.png","I_Dist_200_LN_14_LD_30_RN_12_RD_18_1.png","I_Dist_200_LN_14_LD_30_RN_6_RD_9_1.png","I_Dist_200_LN_3_LD_10_RN_1_RD_2_1.png","I_Dist_200_LN_4_LD_30_RN_1_RD_3_1.png","I_Dist_200_LN_6_LD_20_RN_3_RD_6_1.png","I_Dist_200_LN_7_LD_15_RN_4_RD_6_1.png","I_Dist_200_LN_7_LD_15_RN_6_RD_9_1.png","I_Dist_200_LN_9_LD_15_RN_8_RD_10_1.png"]],"dist200_S":[["E_Dist_200_LN_3_LD_6_RN_3_RD_10_0.png"],["E_Dist_200_LN_3_LD_10_RN_3_RD_6_1.png"]],"dist300_C":[["C_Dist_300_LN_11_LD_22_RN_1_RD_5_0.png","C_Dist_300_LN_11_LD_22_RN_2_RD_10_0.png","C_Dist_300_LN_11_LD_22_RN_4_RD_20_0.png","C_Dist_300_LN_12_LD_24_RN_2_RD_10_0.png","C_Dist_300_LN_18_LD_20_RN_9_RD_15_0.png","C_Dist_300_LN_20_LD_25_RN_13_RD_26_0.png","C_Dist_300_LN_20_LD_25_RN_14_RD_28_0.png","C_Dist_300_LN_20_LD_25_RN_5_RD_10_0.png","C_Dist_300_LN_20_LD_25_RN_8_RD_16_0.png","C_Dist_300_LN_20_LD_25_RN_9_RD_18_0.png","C_Dist_300_LN_24_LD_30_RN_2_RD_4_0.png","C_Dist_300_LN_24_LD_30_RN_8_RD_16_0.png","C_Dist_300_LN_3_LD_6_RN_2_RD_10_0.png","C_Dist_300_LN_4_LD_10_RN_1_RD_10_0.png","C_Dist_300_LN_4_LD_5_RN_2_RD_4_0.png","C_Dist_300_LN_8_LD_16_RN_1_RD_5_0.png","C_Dist_300_LN_9_LD_10_RN_3_RD_5_0.png"],["C_Dist_300_LN_1_LD_20_RN_7_RD_20_1.png","C_Dist_300_LN_1_LD_3_RN_19_RD_30_1.png","C_Dist_300_LN_1_LD_30_RN_8_RD_24_1.png","C_Dist_300_LN_1_LD_5_RN_11_RD_22_1.png","C_Dist_300_LN_1_LD_5_RN_3_RD_6_1.png","C_Dist_300_LN_1_LD_5_RN_6_RD_12_1.png","C_Dist_300_LN_2_LD_10_RN_12_RD_24_1.png","C_Dist_300_LN_2_LD_20_RN_10_RD_25_1.png","C_Dist_300_LN_3_LD_12_RN_11_RD_20_1.png","C_Dist_300_LN_3_LD_6_RN_4_RD_5_1.png","C_Dist_300_LN_4_LD_20_RN_13_RD_26_1.png","C_Dist_300_LN_5_LD_25_RN_6_RD_12_1.png","C_Dist_300_LN_5_LD_25_RN_7_RD_14_1.png","C_Dist_300_LN_7_LD_14_RN_20_RD_25_1.png","C_Dist_300_LN_8_LD_15_RN_10_RD_12_1.png"]],"dist300_I":[["I_Dist_300_LN_1_LD_2_RN_2_RD_10_0.png","I_Dist_300_LN_1_LD_2_RN_3_RD_15_0.png","I_Dist_300_LN_2_LD_4_RN_6_RD_30_0.png","I_Dist_300_LN_3_LD_6_RN_4_RD_20_0.png","I_Dist_300_LN_4_LD_5_RN_6_RD_12_0.png","I_Dist_300_LN_4_LD_5_RN_8_RD_16_0.png","I_Dist_300_LN_7_LD_10_RN_8_RD_20_0.png","I_Dist_300_LN_8_LD_10_RN_14_RD_28_0.png","I_Dist_300_LN_8_LD_10_RN_9_RD_18_0.png"],["I_Dist_300_LN_13_LD_26_RN_12_RD_15_1.png","I_Dist_300_LN_4_LD_20_RN_2_RD_4_1.png"]],"dist300_S":[["E_Dist_300_LN_9_LD_12_RN_9_RD_20_0.png"],["E_Dist_300_LN_18_LD_30_RN_18_RD_20_1.png","E_Dist_300_LN_3_LD_10_RN_3_RD_5_1.png","E_Dist_300_LN_9_LD_20_RN_9_RD_12_1.png"]],"dist500_C":[["C_Dist_500_LN_10_LD_13_RN_7_RD_26_0.png","C_Dist_500_LN_10_LD_15_RN_4_RD_24_0.png","C_Dist_500_LN_12_LD_16_RN_3_RD_12_0.png","C_Dist_500_LN_12_LD_18_RN_4_RD_24_0.png","C_Dist_500_LN_15_LD_18_RN_5_RD_15_0.png","C_Dist_500_LN_15_LD_20_RN_1_RD_4_0.png","C_Dist_500_LN_18_LD_27_RN_1_RD_6_0.png","C_Dist_500_LN_20_LD_24_RN_1_RD_3_0.png","C_Dist_500_LN_20_LD_24_RN_3_RD_9_0.png","C_Dist_500_LN_20_LD_24_RN_7_RD_21_0.png","C_Dist_500_LN_20_LD_28_RN_3_RD_14_0.png","C_Dist_500_LN_21_LD_28_RN_6_RD_24_0.png","C_Dist_500_LN_22_LD_28_RN_2_RD_7_0.png","C_Dist_500_LN_25_LD_30_RN_9_RD_27_0.png","C_Dist_500_LN_4_LD_6_RN_1_RD_6_0.png","C_Dist_500_LN_5_LD_6_RN_2_RD_6_0.png","C_Dist_500_LN_6_LD_9_RN_1_RD_6_0.png","C_Dist_500_LN_7_LD_10_RN_1_RD_5_0.png","C_Dist_500_LN_8_LD_12_RN_1_RD_6_0.png","C_Dist_500_LN_8_LD_12_RN_4_RD_24_0.png"],["C_Dist_500_LN_1_LD_4_RN_12_RD_16_1.png","C_Dist_500_LN_1_LD_4_RN_9_RD_12_1.png","C_Dist_500_LN_1_LD_9_RN_11_RD_18_1.png","C_Dist_500_LN_10_LD_24_RN_22_RD_24_1.png","C_Dist_500_LN_2_LD_12_RN_10_RD_15_1.png","C_Dist_500_LN_2_LD_12_RN_12_RD_18_1.png","C_Dist_500_LN_2_LD_12_RN_4_RD_6_1.png","C_Dist_500_LN_2_LD_24_RN_7_RD_12_1.png","C_Dist_500_LN_2_LD_5_RN_18_RD_20_1.png","C_Dist_500_LN_2_LD_5_RN_9_RD_10_1.png","C_Dist_500_LN_2_LD_8_RN_12_RD_16_1.png","C_Dist_500_LN_2_LD_8_RN_21_RD_28_1.png","C_Dist_500_LN_3_LD_10_RN_4_RD_5_1.png","C_Dist_500_LN_3_LD_12_RN_15_RD_20_1.png","C_Dist_500_LN_3_LD_30_RN_6_RD_10_1.png","C_Dist_500_LN_3_LD_8_RN_14_RD_16_1.png","C_Dist_500_LN_4_LD_16_RN_15_RD_20_1.png","C_Dist_500_LN_4_LD_24_RN_12_RD_18_1.png","C_Dist_500_LN_5_LD_14_RN_6_RD_7_1.png","C_Dist_500_LN_7_LD_21_RN_20_RD_24_1.png","C_Dist_500_LN_7_LD_28_RN_12_RD_16_1.png","C_Dist_500_LN_7_LD_28_RN_9_RD_12_1.png","C_Dist_500_LN_9_LD_27_RN_20_RD_24_1.png"]],"dist500_I":[["I_Dist_500_LN_2_LD_3_RN_4_RD_24_0.png","I_Dist_500_LN_5_LD_6_RN_6_RD_18_0.png","I_Dist_500_LN_7_LD_8_RN_9_RD_24_0.png"],["I_Dist_500_LN_7_LD_21_RN_5_RD_6_1.png"]],"dist500_S":[["E_Dist_500_LN_6_LD_8_RN_6_RD_24_0.png"],["E_Dist_500_LN_2_LD_12_RN_2_RD_3_1.png","E_Dist_500_LN_6_LD_24_RN_6_RD_8_1.png"]]}},{"start_time":1552054122647,"click_time":1552054124654,"finger_time":1552054123975,"fix_duration":250,"trial":1,"RT":1328,"MT":679,"sideResp":1,"stimulus":[],"xmouse":[820,820,820,820,820,820,820,820,820,820,820,820,820,820,820,820,820,820,820,820,820,820,820,820,820,820,820,820,820,820,820,820,820,820,820,820,820,820,820,820,820,820,820,820,820,820,820,820,820,820,820,820,820,820,820,820,820,820,820,820,820,820,820,820,820,814,807,775,752,739,723,707,661,629,578,536,524,523,526,528,529,529,535,538,547,555,563,565,563,562,559,554,546,543,543,542,541,540,536,530,522],"ymouse":[591,591,591,591,591,591,591,591,591,591,591,591,591,591,591,591,591,591,591,591,591,591,591,591,591,591,591,591,591,591,591,591,591,591,591,591,591,591,591,591,591,591,591,591,591,591,591,591,591,591,591,591,591,591,591,591,591,591,591,591,591,591,591,591,589,584,569,502,464,440,421,404,372,352,308,266,248,230,227,224,218,213,154,126,95,64,44,23,20,20,23,27,33,35,35,36,36,36,36,36,36],"timestamp_mouse":[21,44,46,66,86,106,126,147,167,187,206,228,246,268,287,307,327,347,367,388,407,427,446,467,488,507,527,547,567,586,608,628,648,667,688,707,728,747,767,787,808,828,847,868,887,908,926,948,966,988,1006,1026,1047,1067,1087,1106,1127,1147,1168,1186,1208,1228,1247,1268,1288,1307,1328,1347,1368,1388,1406,1428,1447,1468,1488,1508,1527,1548,1568,1586,1608,1627,1647,1667,1687,1707,1727,1748,1768,1786,1807,1828,1847,1867,1886,1908,1927,1947,1967,1987,2007],"xSR":741.5,"ySR":573.95,"xT1":424.9,"yT1":0,"xT2":1058.1,"yT2":0,"toosoon":0,"cond_shown":"Congruent","ratio_trial":300,"L_num":24,"L_den":30,"R_num":8,"R_den":16,"correct_side":1,"subjID":"DannaRamos10","gender":"1","school":"4","age":"9"},{"start_time":1552054127306,"click_time":1552054128997,"finger_time":1552054127894,"fix_duration":250,"trial":2,"RT":588,"MT":1103,"sideResp":2,"stimulus":[],"xmouse":[765,765,765,765,765,765,765,765,765,765,765,765,765,765,765,765,765,765,765,765,765,765,765,765,765,771,775,790,807,840,853,859,862,866,869,870,871,871,871,871,871,872,875,880,911,932,947,962,965,966,967,967,969,971,973,974,975,975,975,976,977,981,983,992,1010,1018,1021,1021,1021,1021,1021,1021,1022,1022,1022,1024,1027,1034,1050,1086,1098,1103,1103,1103,1078],"ymouse":[614,615,615,616,616,616,616,616,616,616,616,616,616,616,616,616,616,616,616,616,616,616,616,616,616,613,608,591,575,543,531,524,520,514,507,506,504,503,500,485,475,462,443,422,346,309,285,267,262,259,257,254,251,247,240,237,235,232,232,227,222,215,210,200,182,174,172,171,171,171,171,171,170,170,169,164,156,130,58,0,0,0,0,0,42],"timestamp_mouse":[15,38,49,68,89,109,127,148,169,189,209,227,247,268,288,308,328,349,368,389,408,428,447,469,489,508,528,548,569,588,608,629,649,669,688,708,729,749,768,788,808,829,849,868,888,907,928,948,969,987,1007,1028,1047,1068,1087,1107,1128,1148,1168,1188,1209,1228,1249,1268,1288,1308,1327,1348,1369,1389,1408,1428,1448,1469,1488,1509,1529,1549,1569,1588,1610,1627,1647,1668,1690],"xSR":741.5,"ySR":573.95,"xT1":424.9,"yT1":0,"xT2":1058.1,"yT2":0,"toosoon":0,"cond_shown":"Incongruent","ratio_trial":200,"L_num":7,"L_den":10,"R_num":12,"R_den":24,"correct_side":1,"subjID":"DannaRamos10","gender":"1","school":"4","age":"9"},{"start_time":1552054133589,"click_time":1552054136374,"finger_time":1552054134895,"fix_duration":851.2515057749895,"trial":3,"RT":1306,"MT":1479,"sideResp":1,"stimulus":[],"xmouse":[780,780,780,780,780,780,780,780,780,780,780,780,780,780,780,780,780,780,780,778,776,774,774,774,774,774,774,774,774,774,774,774,774,774,774,774,774,774,774,774,774,774,774,774,774,774,774,774,774,774,774,774,774,775,776,778,781,783,784,784,784,787,790,798,811,827,861,874,886,895,896,896,895,895,894,894,903,915,927,946,952,983,985,985,985,985,980,979,979,979,979,983,991,1001,1016,1035,1086,1108,1120,1121,1121,1121,1120,1119,1116,1114,1109,1106,1103,1097,1093,1089,1087,1086,1084,1079,1060,1042,1016,958,902,800,759,722,699,684,644,617,575,547,519,477,469,467,467,469,479,481,483,483],"ymouse":[643,643,643,643,643,643,643,643,643,643,643,643,643,643,643,643,643,643,642,640,636,633,632,632,632,632,632,632,632,632,632,632,632,632,632,632,632,632,632,632,632,632,632,630,629,629,628,628,627,627,627,627,627,626,625,621,613,607,606,605,604,601,598,590,579,566,537,518,500,481,478,476,476,476,476,476,461,447,433,415,411,388,387,387,387,387,384,382,379,374,368,361,352,341,322,292,212,175,140,135,132,131,131,131,131,131,131,130,130,130,130,130,130,130,130,130,137,145,156,168,171,174,174,172,169,167,167,167,166,166,165,153,148,145,140,132,116,110,104,96],"timestamp_mouse":[13,36,46,65,86,106,125,145,165,185,205,226,245,266,286,304,326,346,365,385,405,425,446,465,486,505,526,544,565,584,604,624,646,666,684,706,724,745,765,785,804,826,846,866,885,905,925,944,964,986,1005,1026,1045,1065,1085,1104,1125,1146,1166,1185,1205,1225,1246,1265,1285,1306,1325,1346,1365,1385,1406,1425,1446,1465,1486,1506,1525,1544,1565,1585,1605,1625,1646,1666,1684,1705,1724,1745,1764,1785,1806,1825,1846,1866,1885,1905,1925,1944,1966,1985,2006,2025,2045,2066,2085,2105,2124,2145,2165,2186,2206,2225,2244,2266,2286,2306,2325,2345,2366,2384,2405,2425,2445,2466,2485,2505,2525,2545,2565,2586,2606,2624,2645,2666,2685,2705,2725,2745,2765,2785],"xSR":741.5,"ySR":573.95,"xT1":424.9,"yT1":0,"xT2":1058.1,"yT2":0,"toosoon":0,"cond_shown":"Incongruent","ratio_trial":100,"L_num":12,"L_den":30,"R_num":2,"R_den":4,"correct_side":2,"subjID":"DannaRamos10","gender":"1","school":"4","age":"9"},{"start_time":1552054139530,"click_time":1552054142235,"finger_time":1552054140854,"fix_duration":393.16270011365174,"trial":4,"RT":1324,"MT":1381,"sideResp":2,"stimulus":[],"xmouse":[816,816,816,816,816,816,816,816,816,816,816,816,816,816,816,816,816,816,816,816,816,816,816,816,816,816,816,816,816,816,816,816,816,816,816,816,816,816,816,816,816,816,816,816,816,816,816,816,816,816,816,816,816,816,816,817,818,818,818,818,818,818,818,818,822,833,851,874,899,930,953,977,999,1012,1017,1004,1001,1001,998,992,983,980,979,978,978,982,984,986,989,990,990,990,992,993,993,993,993,993,994,996,999,999,999,999,999,999,1000,1001,1004,1005,1009,1009,1009,1009,1009,1010,1011,1012,1016,1020,1021,1021,1021,1020,1020,1022,1025,1028,1031,1032,1034,1036,1041,1048,1059,1086],"ymouse":[654,654,654,654,654,654,654,654,654,654,654,654,654,654,654,654,654,654,654,654,654,654,654,654,654,654,654,654,654,654,654,654,654,654,654,654,654,654,654,654,654,654,654,654,654,654,654,654,654,654,654,654,654,654,654,654,655,655,655,655,655,655,655,655,653,645,635,628,624,618,608,585,556,530,504,407,394,382,372,357,342,336,331,327,323,314,311,307,306,305,305,305,303,302,302,302,302,302,301,297,288,287,287,287,287,287,287,285,281,279,276,276,276,276,275,273,270,268,259,252,249,246,244,239,234,219,210,203,196,189,184,179,169,156,137,83],"timestamp_mouse":[14,33,44,64,84,104,124,144,165,185,204,225,245,263,285,304,325,345,363,385,405,423,444,465,484,505,525,544,565,585,605,625,643,665,685,704,724,745,765,783,805,824,845,865,884,905,925,945,965,985,1004,1024,1045,1063,1083,1103,1125,1144,1164,1184,1204,1225,1244,1265,1285,1305,1324,1345,1363,1385,1404,1424,1444,1465,1483,1504,1525,1544,1564,1584,1604,1624,1644,1665,1683,1703,1724,1745,1765,1784,1804,1825,1844,1865,1883,1904,1925,1944,1964,1984,2005,2023,2045,2064,2084,2104,2125,2144,2164,2183,2203,2223,2244,2265,2285,2305,2324,2344,2364,2385,2404,2424,2444,2463,2483,2504,2524,2543,2565,2585,2604,2625,2644,2665,2685,2705],"xSR":741.5,"ySR":573.95,"xT1":424.9,"yT1":0,"xT2":1058.1,"yT2":0,"toosoon":0,"cond_shown":"Congruent","ratio_trial":200,"L_num":13,"L_den":26,"R_num":14,"R_den":20,"correct_side":2,"subjID":"DannaRamos10","gender":"1","school":"4","age":"9"},{"start_time":1552054144486,"click_time":1552054145635,"finger_time":1552054145174,"fix_duration":250,"trial":5,"RT":688,"MT":461,"sideResp":1,"stimulus":[],"xmouse":[829,829,829,829,829,829,829,829,829,829,828,828,828,828,828,828,828,828,828,828,828,828,828,828,828,828,828,828,826,824,818,810,799,776,761,745,722,657,630,619,614,611,606,602,601,599,597,596,596,596,596,596,596,589,575,559,544,517],"ymouse":[655,655,655,655,655,655,655,655,655,655,654,654,654,654,654,654,654,654,654,654,654,654,654,654,654,654,654,654,652,651,645,638,624,587,557,517,461,317,245,200,164,149,139,130,126,122,120,118,118,118,118,118,118,118,113,109,100,86],"timestamp_mouse":[12,38,47,67,87,109,128,147,167,188,209,229,249,269,288,309,328,348,368,388,409,427,448,468,489,507,528,549,568,588,608,628,649,668,688,709,727,749,769,787,807,827,848,869,889,909,929,948,969,988,1007,1027,1049,1069,1088,1108,1128,1148],"xSR":741.5,"ySR":573.95,"xT1":424.9,"yT1":0,"xT2":1058.1,"yT2":0,"toosoon":0,"cond_shown":"Congruent","ratio_trial":300,"L_num":11,"L_den":22,"R_num":2,"R_den":10,"correct_side":1,"subjID":"DannaRamos10","gender":"1","school":"4","age":"9"},{"start_time":1552054149227,"click_time":1552054151054,"finger_time":1552054150595,"fix_duration":250,"trial":6,"RT":1368,"MT":459,"sideResp":2,"stimulus":[],"xmouse":[802,802,802,802,802,802,802,802,802,802,802,802,802,802,802,802,802,802,802,802,802,802,802,802,802,802,802,802,802,802,802,802,802,802,802,802,802,802,802,802,802,802,802,802,802,802,802,802,802,802,802,802,802,802,799,797,793,792,792,792,792,792,792,792,792,793,808,820,844,870,914,1023,1039,1044,1046,1046,1044,1043,1043,1043,1045,1059,1067,1070,1073,1073,1060,1053,1050,1050,1051,1061],"ymouse":[649,649,649,650,650,650,650,650,650,650,650,650,650,650,650,650,650,650,650,650,650,650,650,650,650,650,650,650,650,650,650,650,650,650,650,650,650,650,650,650,650,650,650,650,650,650,650,650,650,650,650,650,650,648,646,645,642,642,641,641,641,641,641,641,637,637,624,614,591,555,506,389,377,373,371,369,360,355,353,351,347,315,293,267,240,212,155,131,112,94,89,65],"timestamp_mouse":[12,39,47,67,87,108,127,148,167,186,207,227,246,268,288,307,328,348,367,388,408,427,446,468,488,506,528,547,567,588,608,627,648,667,686,708,727,746,766,787,807,826,847,868,888,906,928,946,968,986,1007,1028,1047,1068,1086,1108,1127,1148,1166,1188,1208,1227,1247,1268,1288,1307,1327,1347,1368,1387,1408,1427,1447,1466,1487,1507,1528,1547,1568,1588,1608,1627,1649,1668,1688,1707,1727,1748,1768,1787,1807,1827],"xSR":741.5,"ySR":573.95,"xT1":424.9,"yT1":0,"xT2":1058.1,"yT2":0,"toosoon":0,"cond_shown":"Incongruent","ratio_trial":300,"L_num":4,"L_den":20,"R_num":2,"R_den":4,"correct_side":2,"subjID":"DannaRamos10","gender":"1","school":"4","age":"9"},{"start_time":1552054156219,"click_time":1552054158274,"finger_time":1552054157274,"fix_duration":942.1140440558248,"trial":7,"RT":1055,"MT":1000,"sideResp":1,"stimulus":[],"xmouse":[784,784,784,784,784,784,784,784,784,784,784,784,784,784,784,784,784,784,784,784,784,784,784,784,784,784,784,784,784,784,784,784,784,784,784,784,784,784,784,784,784,784,784,784,784,784,784,784,784,784,784,784,786,788,791,791,791,788,783,780,778,777,776,776,775,775,771,757,743,733,722,708,689,687,687,687,687,687,684,677,668,657,631,616,603,587,568,541,532,530,530,530,530,529,529,529,529,529,528,528,528,528,524],"ymouse":[603,603,603,603,603,603,603,603,603,603,603,603,603,603,603,603,603,603,603,603,603,603,603,603,603,603,603,603,603,603,603,603,603,603,603,603,603,603,603,603,603,603,603,603,603,603,602,599,592,587,581,574,549,543,536,534,528,523,519,516,514,513,512,512,511,510,506,489,473,461,446,430,406,403,402,402,402,402,395,376,356,332,278,253,222,182,141,93,79,77,77,77,77,76,75,75,75,75,75,75,75,74,70],"timestamp_mouse":[16,36,55,75,94,116,136,155,176,194,216,234,256,276,295,315,336,355,376,394,416,434,454,476,495,516,534,555,576,595,615,635,655,676,694,714,735,754,776,796,815,835,855,874,896,915,936,955,974,994,1015,1035,1055,1075,1096,1115,1135,1154,1175,1196,1215,1235,1255,1275,1296,1316,1336,1355,1376,1395,1415,1435,1456,1475,1496,1516,1535,1555,1576,1595,1616,1634,1654,1675,1696,1715,1736,1756,1775,1795,1815,1835,1855,1875,1896,1916,1934,1955,1975,1995,2014,2035,2054],"xSR":741.5,"ySR":573.95,"xT1":424.9,"yT1":0,"xT2":1058.1,"yT2":0,"toosoon":0,"cond_shown":"Congruent","ratio_trial":200,"L_num":12,"L_den":15,"R_num":6,"R_den":10,"correct_side":1,"subjID":"DannaRamos10","gender":"1","school":"4","age":"9"},{"start_time":1552054160290,"click_time":1552054162114,"finger_time":1552054161574,"fix_duration":832.2653140261878,"trial":8,"RT":1284,"MT":540,"sideResp":1,"stimulus":[],"xmouse":[818,818,818,818,818,818,818,818,818,818,818,818,818,818,818,818,818,818,818,818,818,818,818,818,818,818,818,818,818,818,818,818,818,818,818,818,818,818,818,818,818,818,818,818,818,818,818,818,818,818,818,818,818,818,818,818,818,818,818,818,814,810,805,782,717,672,620,564,497,380,367,362,361,361,358,357,356,356,357,358,358,358,360,370,389,397,403,408,410,418,423,427],"ymouse":[623,623,623,623,623,623,622,620,618,610,608,607,607,607,607,607,607,607,607,607,607,607,607,607,607,607,607,607,607,607,607,607,607,607,607,607,607,607,607,607,607,607,607,607,607,607,607,607,607,607,607,607,607,607,607,607,607,607,607,605,603,599,594,574,518,471,412,343,260,130,116,112,109,105,91,83,74,69,65,62,62,62,62,63,72,75,77,78,78,79,80,80],"timestamp_mouse":[13,33,45,65,85,103,124,145,165,185,204,224,244,264,285,304,323,344,363,385,405,424,443,464,484,505,523,544,565,584,604,624,644,665,685,703,724,745,764,784,803,823,845,864,885,905,924,943,964,984,1005,1025,1045,1064,1084,1105,1124,1144,1165,1184,1205,1224,1245,1264,1284,1304,1325,1344,1364,1384,1405,1423,1444,1464,1484,1503,1524,1544,1564,1584,1604,1624,1644,1664,1684,1704,1724,1744,1763,1783,1803,1824],"xSR":741.5,"ySR":573.95,"xT1":424.9,"yT1":0,"xT2":1058.1,"yT2":0,"toosoon":0,"cond_shown":"Incongruent","ratio_trial":200,"L_num":4,"L_den":5,"R_num":6,"R_den":10,"correct_side":1,"subjID":"DannaRamos10","gender":"1","school":"4","age":"9"},{"start_time":1552054164732,"click_time":1552054166734,"finger_time":1552054165334,"fix_duration":715.9631845660906,"trial":9,"RT":602,"MT":1400,"sideResp":2,"stimulus":[],"xmouse":[782,782,782,782,782,782,782,782,782,782,782,782,782,782,782,782,782,782,782,782,782,782,782,782,782,782,782,782,783,786,807,834,906,926,938,941,942,942,942,942,942,942,942,942,942,942,942,942,942,942,942,941,939,938,937,936,935,930,925,919,913,912,916,926,944,968,989,1000,1007,995,992,985,980,978,978,978,978,978,978,978,977,976,975,964,959,954,951,950,950,950,950,955,977,994,1010,1027,1039,1044,1050,1056,1063],"ymouse":[591,591,591,591,591,591,591,591,591,591,591,591,591,591,591,591,591,591,591,591,591,591,591,591,591,591,590,588,583,574,545,517,465,447,436,431,431,431,431,431,431,431,431,431,431,431,431,431,431,431,431,431,431,431,431,431,431,431,428,421,406,396,371,345,314,278,243,220,169,135,126,114,101,95,93,92,91,91,91,91,90,90,90,96,99,102,105,106,107,109,113,116,119,119,119,116,111,107,98,84,72],"timestamp_mouse":[13,22,41,63,83,102,122,143,162,181,203,223,241,263,283,303,321,342,363,381,403,423,442,463,482,502,523,543,562,582,602,623,642,663,683,702,722,742,763,782,801,823,843,862,881,901,923,943,962,982,1001,1023,1042,1062,1083,1103,1122,1143,1162,1181,1202,1223,1242,1262,1282,1303,1322,1341,1362,1382,1402,1423,1442,1461,1483,1502,1523,1542,1561,1583,1603,1622,1642,1662,1682,1703,1721,1743,1762,1782,1802,1822,1842,1861,1881,1902,1923,1943,1962,1983,2002],"xSR":741.5,"ySR":573.95,"xT1":424.9,"yT1":0,"xT2":1058.1,"yT2":0,"toosoon":0,"cond_shown":"Congruent","ratio_trial":300,"L_num":1,"L_den":3,"R_num":19,"R_den":30,"correct_side":2,"subjID":"DannaRamos10","gender":"1","school":"4","age":"9"},{"start_time":1552054169770,"click_time":1552054171454,"finger_time":1552054171094,"fix_duration":1155.6330069455557,"trial":10,"RT":1324,"MT":360,"sideResp":1,"stimulus":[],"xmouse":[812,812,812,812,812,812,812,812,812,812,812,812,812,812,812,812,812,812,812,812,812,812,812,812,812,812,812,812,812,812,811,811,811,811,811,811,811,811,811,811,811,811,811,811,811,811,811,811,810,810,810,810,810,810,810,810,810,810,810,810,809,808,807,805,798,794,762,742,714,680,635,550,527,515,510,509,506,504,500,496,492,491,491,490,489],"ymouse":[613,613,613,613,613,613,613,613,613,613,613,613,613,613,613,613,613,613,613,613,613,613,613,613,613,613,613,613,613,613,613,613,613,613,613,613,613,613,613,613,613,613,613,613,613,613,613,613,612,612,610,610,610,610,609,609,609,609,609,609,608,607,604,601,594,589,542,510,457,401,341,227,198,179,165,162,152,148,144,137,128,114,107,100,91],"timestamp_mouse":[20,37,44,64,84,104,124,145,164,184,205,225,244,265,284,304,323,343,364,383,405,424,444,463,484,504,524,545,564,584,604,625,645,664,685,704,723,745,764,785,804,823,844,864,885,905,923,945,964,984,1006,1024,1044,1064,1084,1104,1124,1144,1164,1185,1204,1224,1244,1264,1284,1304,1324,1344,1364,1383,1403,1423,1445,1465,1485,1505,1525,1543,1563,1583,1605,1625,1645,1665,1684],"xSR":741.5,"ySR":573.95,"xT1":424.9,"yT1":0,"xT2":1058.1,"yT2":0,"toosoon":0,"cond_shown":"Incongruent","ratio_trial":200,"L_num":4,"L_den":5,"R_num":6,"R_den":10,"correct_side":1,"subjID":"DannaRamos10","gender":"1","school":"4","age":"9"},{"start_time":1552054174034,"click_time":1552054175374,"finger_time":1552054174833,"fix_duration":1438.7653990587442,"trial":11,"RT":799,"MT":541,"sideResp":1,"stimulus":[],"xmouse":[797,797,797,797,797,797,797,797,797,797,797,797,797,797,797,797,797,797,797,797,797,797,797,797,797,797,797,797,797,797,797,797,797,797,797,797,795,793,773,758,733,720,711,687,672,664,656,649,636,627,615,598,583,561,553,543,535,523,500,492,490,490,489,488,487,486,485,483],"ymouse":[623,623,623,623,623,623,623,623,623,623,623,623,623,623,623,623,623,623,623,623,623,623,623,623,623,623,623,623,623,623,623,623,623,623,623,623,621,619,596,577,539,504,472,399,369,354,342,333,317,307,296,281,267,239,227,215,200,183,150,136,129,122,119,114,111,107,103,99],"timestamp_mouse":[10,20,40,59,81,101,120,140,160,179,200,220,241,259,280,300,320,341,361,379,400,421,452,460,479,499,520,540,561,581,600,619,641,661,680,699,720,740,761,781,799,821,841,860,879,900,919,940,961,980,1000,1021,1041,1060,1079,1101,1120,1139,1159,1179,1200,1221,1241,1260,1279,1300,1320,1340],"xSR":741.5,"ySR":573.95,"xT1":424.9,"yT1":0,"xT2":1058.1,"yT2":0,"toosoon":0,"cond_shown":"Incongruent","ratio_trial":300,"L_num":4,"L_den":5,"R_num":6,"R_den":12,"correct_side":1,"subjID":"DannaRamos10","gender":"1","school":"4","age":"9"},{"start_time":1552054177747,"click_time":1552054179215,"finger_time":1552054178614,"fix_duration":1269.3117689994997,"trial":12,"RT":867,"MT":601,"sideResp":1,"stimulus":[],"xmouse":[809,809,809,809,809,809,809,809,809,809,809,809,809,809,809,809,809,809,809,809,809,809,809,809,809,809,809,809,809,809,809,809,809,809,809,809,809,809,809,809,809,808,807,799,793,777,742,691,625,603,578,572,553,542,535,523,512,500,489,488,488,488,488,488,488,488,488,489,493,495,498,500,503,509],"ymouse":[606,606,606,606,606,606,606,606,606,606,606,606,606,606,606,606,606,606,606,606,606,606,606,606,606,606,606,606,606,606,606,606,606,606,606,606,606,606,606,606,600,597,588,550,525,487,412,338,262,241,220,214,193,182,175,167,158,150,140,137,135,133,132,130,130,127,126,122,118,115,111,108,104,94],"timestamp_mouse":[21,29,47,68,87,107,128,149,168,187,207,229,247,268,288,307,328,347,367,388,407,427,447,467,487,508,527,547,568,588,608,627,647,669,687,707,729,748,767,788,808,828,847,867,888,908,928,947,967,987,1007,1027,1049,1067,1088,1108,1127,1147,1168,1188,1208,1228,1247,1268,1287,1308,1327,1347,1367,1388,1408,1428,1448,1468],"xSR":741.5,"ySR":573.95,"xT1":424.9,"yT1":0,"xT2":1058.1,"yT2":0,"toosoon":0,"cond_shown":"Incongruent","ratio_trial":300,"L_num":3,"L_den":6,"R_num":4,"R_den":20,"correct_side":1,"subjID":"DannaRamos10","gender":"1","school":"4","age":"9"},{"start_time":1552054180367,"click_time":1552054182695,"finger_time":1552054181935,"fix_duration":250,"trial":13,"RT":1568,"MT":760,"sideResp":1,"stimulus":[],"xmouse":[765,765,766,766,766,766,766,766,766,766,766,766,766,766,766,766,766,766,766,766,766,766,766,766,766,766,766,766,766,766,766,766,766,766,766,766,766,766,766,766,766,766,766,766,766,766,766,766,766,766,766,766,766,766,766,766,766,766,766,766,766,766,766,766,766,766,766,766,766,766,766,766,766,766,766,769,774,813,853,904,941,971,977,977,976,976,976,969,956,940,906,873,807,783,764,753,743,722,701,678,656,630,601,591,582,576,564,558,555,555,555,555,552,540,533,527,523],"ymouse":[658,658,658,658,658,658,658,658,658,658,658,658,658,658,658,658,658,658,658,658,658,658,658,658,658,658,658,658,658,658,658,658,658,658,658,658,658,658,658,658,658,658,658,658,658,658,658,658,658,658,658,658,658,658,658,658,658,658,658,658,658,658,658,658,658,658,658,658,658,658,658,658,658,658,658,656,652,622,586,534,472,405,380,378,377,377,377,380,385,390,400,405,406,404,398,391,382,340,287,235,186,123,57,35,17,8,0,0,0,0,0,0,0,10,17,22,27],"timestamp_mouse":[14,28,47,68,87,109,127,148,169,187,208,228,247,267,288,307,328,348,369,388,408,429,447,468,487,508,529,548,568,588,607,627,648,668,688,708,727,748,768,787,807,828,848,867,888,908,927,948,968,988,1008,1028,1048,1068,1088,1107,1128,1147,1167,1188,1208,1229,1248,1268,1287,1307,1329,1347,1368,1388,1408,1427,1447,1467,1487,1508,1529,1547,1568,1587,1608,1628,1647,1669,1687,1708,1727,1747,1767,1788,1808,1828,1847,1867,1887,1908,1928,1947,1968,1988,2008,2028,2047,2068,2087,2108,2127,2147,2168,2187,2208,2227,2248,2268,2288,2307,2328],"xSR":741.5,"ySR":573.95,"xT1":424.9,"yT1":0,"xT2":1058.1,"yT2":0,"toosoon":0,"cond_shown":"Congruent","ratio_trial":200,"L_num":8,"L_den":15,"R_num":2,"R_den":6,"correct_side":1,"subjID":"DannaRamos10","gender":"1","school":"4","age":"9"},{"start_time":1552054184186,"click_time":1552054186215,"finger_time":1552054185614,"fix_duration":250,"trial":14,"RT":1428,"MT":601,"sideResp":2,"stimulus":[],"xmouse":[804,804,804,804,804,804,804,804,804,804,804,804,804,804,804,804,804,804,804,804,804,804,804,804,804,804,804,804,804,804,804,804,804,804,804,804,804,804,804,804,804,804,804,804,804,804,804,804,804,804,804,804,804,804,804,804,804,804,804,804,804,804,804,802,798,792,786,773,766,757,747,733,695,672,663,660,660,659,659,659,659,659,659,659,659,661,681,727,758,789,815,833,872,893,924,958,1008,1034,1041,1049,1055,1067],"ymouse":[631,631,631,631,631,631,631,631,631,631,631,631,631,631,631,631,631,631,631,631,631,631,631,631,631,631,631,631,631,631,631,631,631,631,631,631,631,631,631,631,631,631,631,631,631,631,631,631,631,631,631,631,631,631,631,631,631,631,631,631,631,631,631,631,631,631,628,619,613,600,581,551,455,404,379,372,370,369,369,369,369,369,369,369,368,366,353,327,308,287,266,248,217,205,187,168,139,116,106,98,91,82],"timestamp_mouse":[21,29,48,68,88,109,128,148,169,190,209,229,249,268,290,308,328,348,368,389,408,429,449,469,490,508,528,548,569,590,608,628,649,668,690,709,729,749,770,788,808,829,849,869,889,910,928,949,968,990,1008,1029,1049,1068,1089,1108,1129,1150,1168,1189,1210,1229,1249,1269,1289,1309,1328,1348,1369,1388,1408,1428,1449,1468,1490,1509,1528,1549,1568,1588,1610,1629,1648,1668,1689,1708,1729,1748,1769,1788,1809,1828,1849,1868,1890,1910,1928,1948,1969,1989,2010,2029],"xSR":741.5,"ySR":573.95,"xT1":424.9,"yT1":0,"xT2":1058.1,"yT2":0,"toosoon":0,"cond_shown":"Congruent","ratio_trial":100,"L_num":12,"L_den":30,"R_num":13,"R_den":26,"correct_side":2,"subjID":"DannaRamos10","gender":"1","school":"4","age":"9"},{"start_time":1552054190498,"click_time":1552054192675,"finger_time":1552054192055,"fix_duration":1381.017804478986,"trial":15,"RT":1557,"MT":620,"sideResp":2,"stimulus":[],"xmouse":[784,784,784,784,784,784,784,784,784,784,784,784,784,784,784,784,784,784,784,784,784,784,784,784,784,784,784,784,784,784,784,784,784,784,784,784,784,784,784,784,784,784,784,784,784,784,784,784,784,784,784,784,784,784,784,784,784,784,784,784,784,784,783,781,777,774,771,768,768,769,769,770,771,773,778,784,790,810,817,823,825,827,838,851,865,884,903,956,969,976,982,992,1002,1014,1024,1034,1039,1043,1043,1043,1043,1043,1043,1045,1047,1048,1049,1055,1061],"ymouse":[654,654,654,654,654,652,651,650,650,650,650,650,650,650,650,650,650,650,650,650,650,650,650,650,650,650,650,650,650,650,650,650,650,650,650,650,650,650,650,650,650,650,650,650,650,650,650,650,650,650,650,650,650,650,650,650,650,650,650,650,650,650,649,647,641,638,626,602,598,596,595,594,593,592,588,584,579,545,525,506,486,458,370,326,292,251,208,115,96,87,80,76,75,73,71,70,70,69,69,69,69,69,69,68,68,66,66,64,63],"timestamp_mouse":[16,36,57,77,96,117,137,157,178,198,216,236,258,277,297,317,338,357,377,397,418,437,456,478,496,517,537,557,577,598,616,637,657,678,697,716,737,758,776,797,817,837,856,877,897,917,937,956,977,997,1016,1037,1056,1076,1098,1116,1136,1157,1176,1196,1216,1236,1257,1278,1296,1317,1336,1358,1377,1397,1417,1437,1457,1477,1498,1517,1536,1557,1576,1596,1617,1637,1657,1676,1696,1717,1738,1758,1777,1796,1816,1837,1857,1877,1896,1917,1936,1957,1976,1997,2017,2036,2057,2076,2097,2116,2138,2156,2176],"xSR":741.5,"ySR":573.95,"xT1":424.9,"yT1":0,"xT2":1058.1,"yT2":0,"toosoon":0,"cond_shown":"Congruent","ratio_trial":200,"L_num":7,"L_den":21,"R_num":2,"R_den":15,"correct_side":1,"subjID":"DannaRamos10","gender":"1","school":"4","age":"9"},{"start_time":1552054195257,"click_time":1552054197236,"finger_time":1552054196654,"fix_duration":539.5037624319259,"trial":16,"RT":1397,"MT":582,"sideResp":2,"stimulus":[],"xmouse":[794,794,794,794,794,794,794,794,794,794,794,794,794,794,794,794,792,791,787,785,785,785,785,785,785,785,785,785,785,785,784,783,780,779,774,773,772,771,771,771,771,771,771,771,771,771,771,771,771,774,776,776,776,777,783,788,789,790,790,790,790,790,790,790,790,790,790,791,798,827,843,857,872,893,922,929,931,931,937,941,941,942,944,947,954,957,963,975,986,1003,1012,1019,1022,1025,1027,1029,1041,1047,1064],"ymouse":[619,619,619,619,619,619,619,619,619,619,619,619,619,619,619,619,619,619,619,619,619,619,619,619,619,619,619,619,619,619,620,621,622,622,624,625,625,625,625,625,625,625,625,625,625,625,625,625,625,623,621,620,618,616,608,600,596,592,589,589,589,589,589,589,589,589,589,588,582,567,557,547,528,480,362,292,226,214,189,184,184,183,182,177,169,167,163,156,150,140,136,134,133,133,133,131,121,115,96],"timestamp_mouse":[17,37,58,78,97,117,138,159,178,198,217,238,259,277,297,317,338,359,377,397,418,438,458,478,498,517,537,558,578,597,619,638,658,677,698,718,739,757,779,797,818,837,857,877,899,918,937,958,979,997,1018,1038,1057,1078,1097,1117,1137,1157,1179,1198,1218,1238,1259,1277,1297,1318,1337,1357,1377,1397,1417,1438,1459,1477,1498,1517,1538,1557,1577,1597,1617,1637,1659,1678,1698,1718,1738,1758,1777,1797,1818,1838,1858,1877,1897,1917,1938,1958,1978],"xSR":741.5,"ySR":573.95,"xT1":424.9,"yT1":0,"xT2":1058.1,"yT2":0,"toosoon":0,"cond_shown":"Incongruent","ratio_trial":200,"L_num":9,"L_den":15,"R_num":8,"R_den":10,"correct_side":2,"subjID":"DannaRamos10","gender":"1","school":"4","age":"9"},{"start_time":1552054199808,"click_time":1552054203055,"finger_time":1552054201255,"fix_duration":1250.0906085945269,"trial":17,"RT":1447,"MT":1800,"sideResp":2,"stimulus":[],"xmouse":[812,812,812,812,812,812,812,812,812,812,812,812,812,812,812,812,812,812,812,812,812,812,812,812,812,812,812,812,812,812,812,812,812,812,812,812,812,812,812,812,812,812,812,812,812,812,812,812,812,812,812,812,812,812,812,812,812,812,812,812,812,812,812,812,812,812,811,809,802,796,788,784,772,761,751,739,728,716,692,686,682,676,672,663,660,659,659,659,659,659,659,659,659,658,653,644,632,613,594,587,579,574,570,562,561,561,561,561,561,560,558,554,550,536,528,521,516,513,507,507,507,507,507,507,506,506,504,502,502,502,503,504,505,518,536,577,685,755,885,924,947,967,991,1090,1151,1194,1226,1242,1250,1250,1246,1242,1235,1226,1222,1219,1214,1210,1192,1184,1173,1161,1147],"ymouse":[619,619,619,619,619,619,619,619,619,619,619,619,619,619,619,619,619,619,619,619,619,619,619,619,619,619,619,619,619,619,619,619,619,619,619,619,619,619,619,619,619,619,619,619,619,619,619,619,619,619,619,619,619,619,619,619,619,619,619,619,619,619,619,619,619,619,617,616,606,599,587,579,553,533,511,489,467,445,401,390,382,373,366,352,348,347,347,347,347,347,347,347,346,346,343,336,323,301,275,264,249,236,225,205,203,203,203,203,203,201,200,197,193,182,175,170,166,163,160,160,160,160,160,160,160,160,160,168,179,184,187,189,190,197,207,219,247,256,262,264,256,242,224,168,146,135,130,127,122,120,116,112,105,99,96,94,91,88,78,73,68,61,54],"timestamp_mouse":[12,37,47,67,86,108,128,148,166,187,206,226,247,267,286,306,326,346,366,387,406,427,447,468,488,506,526,547,568,587,606,627,646,668,687,707,727,747,766,787,806,828,847,866,886,907,927,947,966,986,1007,1027,1048,1066,1086,1106,1127,1146,1166,1186,1207,1227,1246,1266,1286,1308,1326,1347,1366,1387,1406,1427,1447,1466,1487,1506,1526,1547,1566,1587,1606,1627,1647,1666,1687,1706,1727,1748,1766,1787,1807,1828,1848,1866,1887,1907,1927,1946,1966,1986,2007,2027,2047,2067,2087,2107,2127,2146,2166,2188,2206,2226,2247,2268,2286,2306,2326,2346,2366,2386,2407,2428,2446,2466,2486,2506,2526,2546,2567,2587,2607,2626,2646,2667,2687,2707,2727,2747,2766,2787,2807,2826,2846,2866,2886,2907,2927,2948,2967,2987,3007,3026,3047,3066,3086,3107,3127,3146,3166,3187,3207,3226,3247],"xSR":741.5,"ySR":573.95,"xT1":424.9,"yT1":0,"xT2":1058.1,"yT2":0,"toosoon":0,"cond_shown":"Congruent","ratio_trial":100,"L_num":11,"L_den":22,"R_num":6,"R_den":15,"correct_side":1,"subjID":"DannaRamos10","gender":"1","school":"4","age":"9"},{"start_time":1552054205201,"click_time":1552054208415,"finger_time":1552054205915,"fix_duration":565.7265031079415,"trial":18,"RT":714,"MT":2500,"sideResp":1,"stimulus":[],"xmouse":[767,767,767,767,767,767,767,767,767,767,767,767,767,767,765,764,761,760,758,758,758,758,758,758,758,758,758,757,757,757,757,757,757,757,757,757,768,774,776,776,776,776,776,776,776,776,776,776,776,776,776,776,776,776,776,776,776,773,770,754,744,735,732,729,727,716,704,690,668,665,665,665,665,665,665,665,664,658,653,642,639,639,639,639,639,639,639,639,639,641,653,672,698,747,763,769,770,770,770,772,775,776,777,778,778,778,775,772,767,766,764,764,764,771,786,788,786,778,775,774,773,769,763,733,698,676,655,639,620,615,611,608,606,605,600,598,596,589,574,567,562,561,561,561,561,558,556,555,554,554,554,554,554,553,552,550,548,545,535,527,506],"ymouse":[601,599,598,598,598,598,598,598,598,598,598,598,598,598,599,599,599,599,599,599,599,599,599,599,600,600,600,602,603,603,603,603,601,590,581,571,554,545,540,540,540,540,540,540,540,540,540,540,540,540,540,540,540,540,540,539,538,535,532,510,498,489,485,483,482,468,453,436,411,407,406,406,406,406,406,405,400,391,381,358,347,335,327,317,316,315,315,315,315,315,320,327,335,342,344,344,344,344,344,344,343,339,335,324,316,313,307,304,298,296,294,292,290,287,278,271,262,252,247,246,245,243,242,231,216,205,198,188,174,169,167,165,163,161,151,148,143,134,114,105,96,92,90,88,85,80,77,74,72,71,70,69,68,66,64,64,64,64,64,63,62],"timestamp_mouse":[17,36,53,73,94,115,133,153,174,193,214,233,253,274,293,314,333,353,374,394,413,434,455,474,493,513,533,553,574,594,614,633,653,674,694,714,734,754,774,795,814,833,854,873,894,914,934,954,974,994,1014,1034,1054,1074,1094,1113,1133,1154,1174,1193,1213,1234,1253,1274,1293,1313,1334,1354,1374,1394,1415,1434,1454,1474,1494,1515,1533,1553,1573,1594,1614,1633,1654,1674,1693,1714,1734,1755,1774,1794,1813,1834,1853,1874,1893,1915,1934,1953,1973,1993,2013,2033,2053,2074,2093,2114,2135,2155,2174,2193,2213,2233,2253,2275,2293,2315,2335,2354,2374,2393,2414,2434,2454,2475,2493,2515,2535,2555,2574,2594,2613,2634,2654,2674,2693,2714,2733,2753,2774,2793,2813,2834,2854,2874,2893,2913,2933,2954,2974,2993,3013,3034,3055,3073,3093,3114,3134,3153,3174,3193,3214],"xSR":741.5,"ySR":573.95,"xT1":424.9,"yT1":0,"xT2":1058.1,"yT2":0,"toosoon":0,"cond_shown":"Congruent","ratio_trial":200,"L_num":4,"L_den":8,"R_num":3,"R_den":10,"correct_side":1,"subjID":"DannaRamos10","gender":"1","school":"4","age":"9"},{"start_time":1552054212154,"click_time":1552054214315,"finger_time":1552054213495,"fix_duration":817.1125038677485,"trial":19,"RT":1341,"MT":820,"sideResp":2,"stimulus":[],"xmouse":[781,781,781,781,781,781,781,781,781,781,781,781,781,781,781,781,781,781,781,781,781,781,781,781,781,781,781,781,781,781,781,781,781,781,781,781,781,781,781,781,781,781,781,781,781,781,781,781,781,781,781,781,781,781,781,781,781,781,781,781,781,781,781,781,781,781,781,779,775,767,759,750,726,702,657,646,630,628,628,628,628,628,630,631,632,633,652,747,814,872,924,965,1013,1019,1024,1028,1032,1034,1034,1035,1035,1036,1040,1041,1046,1053,1060,1071,1078],"ymouse":[616,616,616,616,616,616,616,616,616,616,616,616,616,616,616,616,616,616,616,616,616,616,616,616,616,616,616,616,616,616,616,616,616,616,616,616,616,616,616,616,616,616,616,616,616,616,616,616,616,616,616,616,616,616,616,616,616,616,616,616,616,616,616,616,616,615,608,571,555,538,521,506,449,399,336,319,300,297,297,297,297,295,282,275,270,267,263,263,256,245,229,218,201,195,188,182,174,167,163,157,152,148,137,134,129,122,117,106,98],"timestamp_mouse":[10,20,41,60,82,100,121,141,160,181,200,220,242,262,280,301,320,341,361,382,401,420,440,461,480,502,520,541,562,581,601,620,641,662,680,700,721,740,760,780,801,820,842,860,881,900,920,941,960,982,1001,1020,1041,1060,1082,1101,1120,1141,1161,1181,1200,1222,1240,1261,1281,1300,1320,1341,1361,1381,1401,1420,1440,1460,1481,1500,1521,1540,1561,1581,1600,1620,1640,1662,1682,1701,1722,1740,1761,1780,1800,1820,1840,1860,1881,1901,1921,1940,1960,1981,2001,2020,2040,2061,2082,2100,2120,2140,2160],"xSR":741.5,"ySR":573.95,"xT1":424.9,"yT1":0,"xT2":1058.1,"yT2":0,"toosoon":0,"cond_shown":"Congruent","ratio_trial":100,"L_num":4,"L_den":8,"R_num":6,"R_den":10,"correct_side":2,"subjID":"DannaRamos10","gender":"1","school":"4","age":"9"},{"start_time":1552054218268,"click_time":1552054220016,"finger_time":1552054219616,"fix_duration":1392.211988847345,"trial":20,"RT":1348,"MT":400,"sideResp":1,"stimulus":[],"xmouse":[778,778,778,778,778,778,778,778,778,778,778,778,778,778,778,778,778,778,778,778,778,778,778,778,778,778,778,778,778,778,778,778,778,778,778,778,778,778,778,778,778,778,778,778,778,778,778,778,778,778,778,778,778,778,778,778,778,778,778,778,778,778,778,778,778,779,779,773,772,769,754,731,680,660,645,636,622,562,535,524,522,522,530,533,535,535,530,503],"ymouse":[643,643,643,643,643,643,643,643,643,643,643,643,643,643,643,643,643,643,643,643,643,643,643,643,643,643,643,643,643,643,643,643,643,643,643,643,643,643,643,643,643,643,643,643,643,643,643,643,643,643,643,643,643,643,643,643,643,643,643,643,643,643,643,643,643,629,621,565,485,424,380,342,295,279,268,258,243,201,181,167,158,150,137,128,121,111,94,64],"timestamp_mouse":[19,42,47,67,87,107,126,147,167,186,206,226,247,268,286,307,327,346,367,386,407,428,446,467,487,507,527,546,566,588,607,628,647,667,688,706,727,747,767,787,807,826,846,867,886,907,927,946,967,988,1006,1027,1047,1066,1086,1108,1127,1147,1167,1188,1207,1227,1247,1266,1288,1308,1326,1348,1366,1386,1407,1426,1447,1467,1488,1507,1527,1546,1566,1587,1607,1627,1647,1667,1686,1706,1727,1748],"xSR":741.5,"ySR":573.95,"xT1":424.9,"yT1":0,"xT2":1058.1,"yT2":0,"toosoon":0,"cond_shown":"Congruent","ratio_trial":100,"L_num":9,"L_den":15,"R_num":8,"R_den":16,"correct_side":1,"subjID":"DannaRamos10","gender":"1","school":"4","age":"9"},{"start_time":1552054221304,"click_time":1552054223915,"finger_time":1552054223214,"fix_duration":349.15484896702475,"trial":21,"RT":1910,"MT":701,"sideResp":2,"stimulus":[],"xmouse":[776,776,776,776,776,776,776,776,776,776,776,776,776,776,776,776,776,776,776,776,776,776,776,776,776,776,776,776,776,776,776,776,776,776,776,776,776,776,776,776,776,776,776,776,776,776,776,776,776,776,776,776,776,776,776,776,776,776,776,776,776,776,776,776,776,776,776,776,776,776,776,776,776,776,776,776,776,776,776,776,776,776,776,776,776,776,776,776,776,776,776,776,776,778,796,904,985,1071,1155,1245,1346,1362,1369,1371,1373,1373,1373,1372,1372,1372,1369,1364,1356,1345,1331,1278,1253,1226,1206,1191,1171,1168,1168,1168,1168,1168,1168,1166,1164,1162,1151],"ymouse":[612,612,612,612,612,612,612,612,612,612,612,612,612,612,612,612,612,612,612,612,612,612,612,612,612,612,612,612,612,612,612,612,612,612,612,612,612,612,612,612,612,612,612,612,612,612,612,612,612,612,612,612,612,612,612,612,612,612,612,612,612,612,612,612,612,612,612,612,612,612,612,612,612,612,612,612,612,612,612,612,612,612,612,612,612,612,612,612,612,612,612,612,612,612,602,537,503,477,453,426,383,367,348,331,308,291,289,287,286,286,275,260,242,219,191,106,76,53,39,29,22,20,20,20,20,20,20,20,20,22,26],"timestamp_mouse":[13,39,51,72,92,110,130,151,172,190,210,230,250,270,291,311,331,351,371,391,411,430,451,472,490,510,530,551,571,591,610,632,652,670,690,710,732,751,771,790,811,830,851,872,891,911,931,951,972,992,1011,1031,1050,1072,1092,1110,1130,1151,1172,1191,1210,1230,1250,1270,1292,1311,1330,1351,1370,1390,1412,1431,1451,1471,1490,1511,1531,1550,1572,1592,1611,1631,1651,1671,1690,1711,1731,1751,1772,1791,1812,1831,1851,1871,1890,1910,1932,1951,1970,1991,2010,2030,2050,2070,2090,2110,2132,2152,2171,2191,2210,2230,2251,2272,2291,2310,2331,2350,2371,2390,2410,2432,2450,2470,2490,2511,2531,2551,2571,2591,2611],"xSR":741.5,"ySR":573.95,"xT1":424.9,"yT1":0,"xT2":1058.1,"yT2":0,"toosoon":0,"cond_shown":"Congruent","ratio_trial":100,"L_num":1,"L_den":2,"R_num":3,"R_den":5,"correct_side":2,"subjID":"DannaRamos10","gender":"1","school":"4","age":"9"},{"start_time":1552054226361,"click_time":1552054227814,"finger_time":1552054227535,"fix_duration":1085.237580744817,"trial":22,"RT":1174,"MT":279,"sideResp":1,"stimulus":[],"xmouse":[810,810,810,810,810,810,810,810,810,810,810,810,810,810,810,810,810,810,810,810,810,810,810,810,810,810,810,810,810,810,810,810,810,810,810,810,810,810,810,810,810,810,810,810,810,810,810,810,810,810,810,821,836,837,837,837,837,835,828,824,820,811,785,768,759,749,737,722,676,632,603,575,523],"ymouse":[620,620,620,620,620,620,620,620,620,620,620,620,620,620,620,620,620,620,620,620,620,620,620,620,620,620,620,620,620,620,620,620,620,620,620,620,620,620,620,620,620,620,620,620,620,620,620,620,620,620,620,620,620,620,618,611,605,596,571,557,531,506,438,409,390,374,355,333,267,197,149,112,55],"timestamp_mouse":[20,43,54,73,93,113,133,155,174,193,214,235,253,273,293,314,333,353,373,394,414,434,454,473,493,513,535,554,574,594,613,633,653,675,693,713,733,753,773,795,813,833,853,874,893,913,934,953,975,995,1013,1033,1053,1073,1095,1113,1133,1153,1174,1194,1213,1234,1253,1273,1293,1314,1334,1353,1374,1394,1415,1434,1453],"xSR":741.5,"ySR":573.95,"xT1":424.9,"yT1":0,"xT2":1058.1,"yT2":0,"toosoon":0,"cond_shown":"Congruent","ratio_trial":300,"L_num":3,"L_den":6,"R_num":2,"R_den":10,"correct_side":1,"subjID":"DannaRamos10","gender":"1","school":"4","age":"9"},{"start_time":1552054231747,"click_time":1552054233715,"finger_time":1552054233255,"fix_duration":1170.3761515128685,"trial":23,"RT":1508,"MT":460,"sideResp":2,"stimulus":[],"xmouse":[817,817,817,817,817,817,817,817,817,817,817,817,817,817,817,817,817,817,817,817,817,817,817,817,817,817,817,817,817,817,817,817,817,817,817,817,817,817,817,817,817,817,817,817,817,817,817,817,817,817,817,817,817,817,817,817,817,817,817,817,817,817,817,817,817,817,817,817,817,817,817,817,817,819,839,1016,1136,1192,1234,1264,1265,1265,1264,1257,1253,1247,1242,1240,1239,1238,1234,1229,1217,1200,1161,1148,1136,1133,1133],"ymouse":[654,654,654,654,654,654,654,654,654,654,654,654,654,654,654,654,654,654,654,654,654,654,654,654,654,654,654,654,654,654,654,654,654,654,654,654,654,654,654,654,654,654,654,654,654,654,654,654,654,654,654,654,654,654,654,654,654,654,654,654,654,654,654,654,654,654,654,654,654,654,654,654,654,653,647,573,505,460,420,378,366,353,331,307,284,246,230,225,222,221,217,212,200,184,152,137,118,109,99],"timestamp_mouse":[13,36,47,68,87,107,129,149,168,187,208,227,247,269,287,307,327,348,369,387,408,428,449,468,489,507,527,548,567,588,608,627,647,667,688,707,728,749,767,787,808,827,848,868,887,908,929,948,968,989,1009,1029,1047,1068,1087,1109,1127,1147,1168,1188,1208,1228,1247,1267,1289,1308,1328,1348,1368,1389,1408,1428,1448,1468,1488,1508,1527,1547,1568,1588,1608,1627,1647,1667,1688,1708,1727,1748,1767,1787,1808,1827,1847,1867,1888,1907,1927,1948,1968],"xSR":741.5,"ySR":573.95,"xT1":424.9,"yT1":0,"xT2":1058.1,"yT2":0,"toosoon":0,"cond_shown":"Congruent","ratio_trial":100,"L_num":10,"L_den":25,"R_num":3,"R_den":10,"correct_side":1,"subjID":"DannaRamos10","gender":"1","school":"4","age":"9"},{"start_time":1552054235550,"click_time":1552054236675,"finger_time":1552054236136,"fix_duration":792.1523304558733,"trial":24,"RT":586,"MT":539,"sideResp":1,"stimulus":[],"xmouse":[757,757,757,756,756,756,756,756,756,756,756,756,756,756,756,756,756,756,756,756,756,756,756,756,756,756,756,754,752,735,721,699,674,649,623,551,525,508,497,486,485,484,484,483,483,483,483,483,483,483,483,483,483,483,483,483,483],"ymouse":[625,625,625,625,625,625,625,625,625,625,625,625,625,625,625,625,625,625,625,625,625,625,625,625,625,625,625,621,616,577,542,495,439,382,339,246,212,188,171,152,148,145,144,141,141,140,140,139,138,138,137,135,132,126,121,104,94],"timestamp_mouse":[14,37,45,65,84,104,124,145,165,185,206,226,245,265,285,305,325,344,365,385,404,425,446,466,485,504,525,545,564,586,604,625,645,664,685,705,724,745,765,786,804,825,845,865,884,905,925,944,964,985,1004,1025,1045,1065,1084,1104,1124],"xSR":741.5,"ySR":573.95,"xT1":424.9,"yT1":0,"xT2":1058.1,"yT2":0,"toosoon":0,"cond_shown":"Incongruent","ratio_trial":200,"L_num":3,"L_den":4,"R_num":11,"R_den":20,"correct_side":1,"subjID":"DannaRamos10","gender":"1","school":"4","age":"9"},{"start_time":1552054238862,"click_time":1552054240155,"finger_time":1552054239594,"fix_duration":1045.8340553654534,"trial":25,"RT":732,"MT":561,"sideResp":1,"stimulus":[],"xmouse":[788,788,788,788,788,788,788,788,788,788,788,788,788,788,788,788,788,788,788,788,788,788,788,788,788,788,788,788,788,788,788,788,788,788,788,783,776,774,766,740,724,715,706,700,696,696,694,690,681,654,635,617,600,580,552,540,531,525,520,516,513,512,511,507,497],"ymouse":[611,611,611,611,611,611,611,611,611,611,611,611,611,611,611,611,611,611,611,611,611,611,611,611,611,611,611,611,611,611,611,611,611,610,602,590,570,562,531,463,430,408,392,382,374,374,372,366,356,326,309,294,279,262,223,198,176,157,144,132,125,120,113,106,92],"timestamp_mouse":[13,35,53,73,93,113,133,154,173,194,212,232,252,272,293,312,334,353,372,394,412,432,454,473,493,512,534,553,573,593,614,632,652,672,692,713,732,753,772,792,812,833,853,873,893,913,933,954,973,992,1012,1032,1052,1072,1092,1112,1134,1153,1172,1192,1213,1233,1253,1272,1293],"xSR":741.5,"ySR":573.95,"xT1":424.9,"yT1":0,"xT2":1058.1,"yT2":0,"toosoon":0,"cond_shown":"Congruent","ratio_trial":200,"L_num":3,"L_den":10,"R_num":11,"R_den":22,"correct_side":2,"subjID":"DannaRamos10","gender":"1","school":"4","age":"9"},{"start_time":1552054247078,"click_time":1552054248281,"finger_time":1552054247796,"fix_duration":1341.0704135539363,"trial":26,"RT":718,"MT":485,"sideResp":2,"stimulus":[],"xmouse":[794,794,794,794,794,794,794,794,794,794,794,794,794,794,794,794,794,794,794,794,794,794,794,794,794,794,794,794,794,794,794,794,794,804,837,867,894,911,924,941,941,944,955,966,980,982,984,987,989,999,1003,1005,1006,1009,1020,1026,1033,1044,1053,1062],"ymouse":[644,644,644,644,644,644,644,644,644,644,644,644,644,644,644,644,644,644,644,644,644,644,644,644,644,644,644,644,644,644,644,644,643,628,583,551,528,513,490,364,296,251,230,220,218,218,216,211,205,183,174,168,165,157,135,125,112,94,79,66],"timestamp_mouse":[17,43,57,77,97,117,137,157,176,198,217,236,257,277,296,316,337,356,377,396,416,437,458,478,497,516,537,558,578,598,616,638,657,676,697,718,737,758,777,796,817,837,857,876,896,916,937,957,978,997,1016,1037,1057,1076,1096,1116,1137,1157,1176,1203],"xSR":741.5,"ySR":573.95,"xT1":424.9,"yT1":0,"xT2":1058.1,"yT2":0,"toosoon":0,"cond_shown":"Incongruent","ratio_trial":300,"L_num":13,"L_den":26,"R_num":12,"R_den":15,"correct_side":2,"subjID":"DannaRamos10","gender":"1","school":"4","age":"9"},{"start_time":1552054251525,"click_time":1552054253136,"finger_time":1552054252274,"fix_duration":547.07473670347,"trial":27,"RT":749,"MT":862,"sideResp":2,"stimulus":[],"xmouse":[751,751,751,751,751,751,751,751,751,751,751,751,751,751,751,751,751,751,751,751,751,751,751,751,751,751,751,751,751,751,751,751,751,752,757,766,781,827,848,861,871,879,910,931,954,978,996,1015,1016,1016,1017,1019,1035,1053,1065,1077,1085,1090,1091,1091,1091,1091,1091,1091,1091,1091,1091,1091,1091,1091,1091,1091,1091,1091,1091,1091,1091,1091,1091,1091,1091],"ymouse":[642,642,642,642,642,642,642,642,642,642,642,642,642,642,642,642,642,642,642,642,642,642,642,642,642,642,642,642,642,642,642,642,642,641,630,611,580,438,364,321,288,270,229,213,200,187,176,162,161,161,160,159,153,148,144,140,137,133,131,131,131,130,130,130,130,130,130,130,130,130,130,130,130,130,130,130,130,121,111,107,98],"timestamp_mouse":[13,38,50,70,89,110,130,149,171,189,210,229,249,271,289,309,330,351,371,390,411,431,449,469,489,509,531,551,570,589,610,629,651,669,690,709,730,749,769,789,809,830,850,871,890,910,929,950,969,990,1009,1030,1049,1069,1089,1110,1130,1150,1170,1191,1210,1230,1250,1270,1290,1310,1330,1351,1370,1390,1411,1429,1449,1471,1491,1510,1530,1549,1569,1590,1610],"xSR":741.5,"ySR":573.95,"xT1":424.9,"yT1":0,"xT2":1058.1,"yT2":0,"toosoon":0,"cond_shown":"Incongruent","ratio_trial":200,"L_num":11,"L_den":20,"R_num":3,"R_den":4,"correct_side":2,"subjID":"DannaRamos10","gender":"1","school":"4","age":"9"},{"start_time":1552054255101,"click_time":1552054256516,"finger_time":1552054256374,"fix_duration":983.8582164443028,"trial":28,"RT":1273,"MT":142,"sideResp":2,"stimulus":[],"xmouse":[789,789,789,789,789,789,789,789,789,789,789,789,789,789,789,789,789,789,789,789,789,789,789,789,789,789,789,789,789,789,789,789,789,789,789,789,789,789,789,806,824,832,833,833,833,833,833,833,833,833,833,833,833,833,833,833,833,833,833,833,833,834,837,848,902,937,969,999,1025,1078,1096],"ymouse":[628,628,628,628,628,628,628,628,628,628,628,628,628,628,628,628,628,628,628,628,628,628,628,628,628,628,628,628,628,628,628,628,628,628,628,628,628,628,628,631,633,634,634,634,634,634,634,634,634,634,634,634,634,634,634,634,634,634,634,634,634,634,628,610,487,412,336,269,204,103,73],"timestamp_mouse":[20,45,53,73,94,114,135,155,173,194,213,234,254,275,295,313,334,355,373,393,415,435,453,474,495,514,534,555,575,594,613,634,653,675,695,713,733,754,773,794,813,834,853,874,894,914,933,953,975,994,1013,1035,1054,1073,1094,1115,1133,1154,1174,1194,1213,1234,1254,1273,1293,1313,1334,1354,1373,1394,1414],"xSR":741.5,"ySR":573.95,"xT1":424.9,"yT1":0,"xT2":1058.1,"yT2":0,"toosoon":0,"cond_shown":"Congruent","ratio_trial":300,"L_num":5,"L_den":25,"R_num":6,"R_den":12,"correct_side":2,"subjID":"DannaRamos10","gender":"1","school":"4","age":"9"},{"start_time":1552054260190,"click_time":1552054262075,"finger_time":1552054261775,"fix_duration":1394.0445347915952,"trial":29,"RT":1585,"MT":300,"sideResp":1,"stimulus":[],"xmouse":[821,821,821,821,821,821,821,821,821,821,821,821,821,821,821,821,821,821,821,821,821,821,821,821,821,821,821,821,821,821,821,821,821,821,821,821,821,821,821,821,821,821,821,821,821,821,821,821,821,821,821,821,821,821,821,821,821,821,821,821,821,821,821,821,828,831,832,832,832,832,832,832,832,832,832,832,824,811,797,780,773,729,709,688,673,663,635,614,592,579,559,541,532,521,511],"ymouse":[605,605,605,605,605,605,605,605,605,605,605,605,605,605,605,605,605,605,605,605,605,605,605,605,605,605,605,605,605,605,605,605,605,605,605,605,605,605,605,605,605,605,605,605,605,605,605,605,605,605,605,605,605,605,605,605,605,605,605,605,605,605,605,605,605,605,605,605,605,605,605,605,605,605,605,604,597,587,574,550,540,477,444,416,389,365,311,274,237,213,191,162,145,118,96],"timestamp_mouse":[13,35,45,65,84,105,125,146,165,185,205,226,245,266,286,304,325,346,365,384,404,426,445,465,484,506,524,545,566,585,604,625,645,666,685,705,724,745,766,784,804,824,844,864,884,905,924,944,966,986,1004,1025,1044,1064,1084,1106,1125,1145,1166,1184,1205,1225,1246,1265,1285,1305,1325,1345,1365,1386,1405,1425,1445,1466,1485,1504,1524,1544,1566,1585,1604,1625,1645,1664,1684,1705,1724,1744,1766,1785,1805,1824,1845,1864,1885],"xSR":741.5,"ySR":573.95,"xT1":424.9,"yT1":0,"xT2":1058.1,"yT2":0,"toosoon":0,"cond_shown":"Congruent","ratio_trial":200,"L_num":16,"L_den":20,"R_num":12,"R_den":20,"correct_side":1,"subjID":"DannaRamos10","gender":"1","school":"4","age":"9"},{"start_time":1552054265753,"click_time":1552054267614,"finger_time":1552054267214,"fix_duration":1075.2912256733243,"trial":30,"RT":1461,"MT":400,"sideResp":1,"stimulus":[],"xmouse":[792,792,792,792,792,792,792,792,792,792,792,792,792,792,792,792,792,792,792,792,792,792,792,792,792,792,792,792,792,792,792,792,792,792,792,792,792,792,792,792,792,792,792,792,792,792,792,792,792,792,792,792,792,792,792,792,792,792,792,792,792,792,792,792,792,792,792,792,792,792,792,792,790,742,705,686,676,671,661,649,635,617,613,612,611,611,605,595,567,553,536,524,518,509],"ymouse":[656,656,656,656,656,656,656,656,656,656,656,656,656,656,656,656,656,656,656,656,656,656,656,656,656,656,656,656,656,656,656,656,656,656,656,656,656,656,656,656,656,656,656,656,656,656,656,656,656,656,656,656,656,656,656,656,656,656,656,656,656,656,656,656,656,656,656,656,656,656,656,656,650,533,457,420,394,374,336,318,301,281,276,274,273,270,259,244,200,174,145,118,104,91],"timestamp_mouse":[13,22,43,62,83,102,122,142,163,181,202,221,241,262,282,301,321,341,362,381,401,421,443,463,481,503,521,542,561,582,601,622,641,663,682,702,722,743,762,781,801,823,842,862,883,903,921,942,962,983,1001,1021,1042,1061,1081,1103,1122,1142,1161,1182,1201,1221,1242,1262,1283,1302,1322,1342,1361,1383,1401,1421,1442,1461,1481,1502,1522,1541,1562,1581,1602,1621,1642,1662,1682,1703,1721,1741,1762,1782,1803,1822,1843,1861],"xSR":741.5,"ySR":573.95,"xT1":424.9,"yT1":0,"xT2":1058.1,"yT2":0,"toosoon":0,"cond_shown":"Congruent","ratio_trial":200,"L_num":8,"L_den":15,"R_num":7,"R_den":21,"correct_side":1,"subjID":"DannaRamos10","gender":"1","school":"4","age":"9"},{"start_time":1552054273110,"click_time":1552054274994,"finger_time":1552054274375,"fix_duration":533.8139229005776,"trial":31,"RT":1265,"MT":619,"sideResp":2,"stimulus":[],"xmouse":[795,795,795,795,795,795,795,795,795,795,795,795,795,795,795,795,795,795,795,795,795,795,795,795,795,795,795,795,795,795,795,795,795,795,795,795,795,795,795,795,795,795,795,795,795,795,795,795,795,795,795,795,795,795,795,795,795,795,795,795,795,797,797,797,786,773,754,751,751,751,751,751,751,751,751,751,751,751,751,753,766,846,905,969,1031,1082,1164,1176,1180,1183,1183,1180,1173,1165,1156],"ymouse":[624,624,624,624,624,624,624,624,624,624,624,624,624,624,624,624,624,624,624,624,624,624,624,624,624,624,624,624,624,624,624,624,624,624,624,624,624,624,624,624,624,624,624,624,624,624,624,624,624,624,624,624,624,624,624,624,624,624,624,623,621,603,587,560,516,472,404,387,381,379,379,378,378,378,378,378,378,378,378,377,378,378,362,340,310,279,218,200,183,159,144,105,87,70,57],"timestamp_mouse":[14,39,44,64,86,104,124,145,164,185,204,225,246,264,285,304,325,346,365,384,404,424,444,465,485,505,525,544,565,586,604,625,644,664,684,704,724,744,766,785,805,825,845,864,884,906,924,945,964,986,1006,1024,1046,1064,1085,1105,1126,1145,1164,1185,1204,1225,1244,1265,1285,1306,1325,1344,1366,1385,1405,1425,1446,1465,1485,1504,1524,1545,1564,1584,1604,1624,1644,1664,1684,1704,1725,1744,1766,1785,1805,1824,1845,1865,1884],"xSR":741.5,"ySR":573.95,"xT1":424.9,"yT1":0,"xT2":1058.1,"yT2":0,"toosoon":0,"cond_shown":"Incongruent","ratio_trial":100,"L_num":9,"L_den":18,"R_num":6,"R_den":10,"correct_side":2,"subjID":"DannaRamos10","gender":"1","school":"4","age":"9"},{"start_time":1552054276681,"click_time":1552054278954,"finger_time":1552054278195,"fix_duration":464.2881701981427,"trial":32,"RT":1514,"MT":759,"sideResp":2,"stimulus":[],"xmouse":[798,798,798,798,798,798,798,798,798,798,798,798,798,798,798,798,798,798,798,798,791,783,782,782,782,782,782,782,782,782,782,782,782,782,782,782,782,782,782,782,782,782,782,782,782,782,782,782,782,782,782,782,782,782,782,782,782,782,782,782,782,782,782,782,782,782,782,782,782,782,782,782,801,816,832,849,868,901,928,960,1013,1079,1166,1192,1205,1214,1219,1228,1237,1243,1247,1249,1249,1245,1240,1238,1235,1224,1214,1203,1193,1184,1180,1180,1180,1180,1180,1180,1180,1179,1175,1172,1166,1151],"ymouse":[651,651,651,651,651,651,651,651,651,651,651,651,651,651,651,651,651,651,651,651,651,651,651,651,651,651,651,651,651,651,651,651,651,651,651,651,651,651,651,651,651,651,651,651,651,651,651,651,651,651,651,651,651,651,651,651,651,651,651,651,651,651,651,651,651,651,651,651,651,651,651,650,647,645,641,635,627,613,594,566,511,436,348,317,294,270,246,178,155,137,117,99,81,76,71,69,67,62,60,56,53,52,51,51,51,51,51,51,51,51,51,51,51,51],"timestamp_mouse":[13,35,54,75,93,113,134,154,173,194,213,234,254,274,293,314,334,354,374,393,414,434,454,473,495,513,534,554,573,593,614,634,654,675,693,713,734,754,773,794,815,833,855,874,893,915,935,953,975,994,1013,1033,1053,1073,1093,1115,1134,1155,1174,1195,1214,1233,1253,1275,1295,1313,1335,1354,1374,1393,1415,1434,1453,1474,1494,1514,1533,1554,1573,1594,1614,1633,1653,1673,1693,1714,1733,1754,1773,1795,1815,1833,1853,1874,1894,1913,1934,1954,1974,1995,2013,2033,2053,2073,2094,2113,2133,2155,2173,2195,2213,2233,2254,2273],"xSR":741.5,"ySR":573.95,"xT1":424.9,"yT1":0,"xT2":1058.1,"yT2":0,"toosoon":0,"cond_shown":"Incongruent","ratio_trial":100,"L_num":1,"L_den":2,"R_num":8,"R_den":20,"correct_side":1,"subjID":"DannaRamos10","gender":"1","school":"4","age":"9"},{"start_time":1552054283407,"click_time":1552054285254,"finger_time":1552054284816,"fix_duration":250,"trial":33,"RT":1409,"MT":438,"sideResp":1,"stimulus":[],"xmouse":[774,774,774,774,774,774,774,774,774,774,774,774,774,774,774,774,774,774,774,774,774,774,774,774,774,774,774,774,774,774,774,774,774,774,774,774,774,774,774,774,774,774,774,774,774,774,774,774,774,774,774,774,774,774,774,774,774,774,774,774,774,774,774,774,774,774,774,774,778,782,783,783,767,761,755,748,740,715,704,693,683,672,662,657,647,634,616,577,557,542,531,526,519],"ymouse":[633,633,633,633,633,633,633,633,633,633,633,633,633,633,633,633,633,633,633,633,633,633,633,633,633,633,633,633,633,633,633,633,633,633,633,633,633,633,633,633,633,633,633,633,633,633,633,633,633,633,633,633,633,633,633,633,633,633,633,633,633,633,633,633,633,633,633,633,619,595,569,542,453,429,416,403,386,341,320,305,288,267,250,242,229,212,191,143,120,105,89,78,62],"timestamp_mouse":[12,29,49,67,88,107,128,147,167,189,209,229,247,268,288,307,327,347,368,388,408,429,448,469,488,508,528,549,567,589,609,629,647,668,687,707,727,749,769,789,807,828,847,867,887,907,927,947,967,988,1008,1028,1048,1068,1089,1107,1128,1147,1169,1189,1209,1228,1247,1268,1287,1309,1328,1348,1368,1388,1409,1429,1447,1468,1488,1507,1527,1548,1568,1588,1607,1627,1647,1668,1688,1708,1727,1747,1767,1787,1808,1827,1847],"xSR":741.5,"ySR":573.95,"xT1":424.9,"yT1":0,"xT2":1058.1,"yT2":0,"toosoon":0,"cond_shown":"Incongruent","ratio_trial":200,"L_num":4,"L_den":5,"R_num":6,"R_den":10,"correct_side":1,"subjID":"DannaRamos10","gender":"1","school":"4","age":"9"},{"start_time":1552054286669,"click_time":1552054288775,"finger_time":1552054287734,"fix_duration":250,"trial":34,"RT":1065,"MT":1041,"sideResp":2,"stimulus":[],"xmouse":[820,820,820,820,820,820,820,820,820,820,820,820,820,820,820,820,820,820,820,820,820,820,820,820,820,820,820,820,820,820,820,820,820,820,820,820,820,820,820,820,820,820,820,820,820,820,820,820,820,820,820,824,833,851,877,885,889,892,893,894,894,895,895,895,895,895,895,895,895,895,895,895,895,895,895,895,896,902,912,947,963,972,976,976,976,976,977,980,984,1001,1012,1023,1034,1046,1054,1054,1054,1054,1054,1054,1054,1054,1054,1055,1057,1063],"ymouse":[617,617,617,617,617,617,617,617,617,617,617,617,617,617,617,617,617,617,617,617,617,617,617,617,617,617,617,617,617,617,617,617,617,617,617,617,617,617,617,617,617,617,617,617,617,617,617,617,617,617,617,616,609,588,543,528,523,516,512,507,506,505,505,505,505,505,505,505,505,505,505,505,505,504,493,477,445,419,383,292,250,228,214,208,202,197,194,184,175,144,129,114,103,91,77,75,75,74,74,74,74,74,74,73,73,69],"timestamp_mouse":[13,35,46,66,86,105,126,147,166,186,205,225,247,266,287,305,325,346,365,386,405,426,446,467,485,506,525,547,566,585,606,626,647,667,687,705,725,747,765,786,805,825,846,866,886,905,925,945,966,986,1005,1026,1045,1065,1085,1105,1125,1145,1165,1185,1205,1227,1246,1265,1286,1307,1325,1345,1367,1386,1407,1425,1445,1466,1485,1505,1525,1545,1565,1586,1605,1626,1646,1666,1685,1705,1726,1747,1766,1786,1806,1826,1846,1866,1886,1905,1927,1946,1965,1986,2006,2027,2046,2065,2086,2106],"xSR":741.5,"ySR":573.95,"xT1":424.9,"yT1":0,"xT2":1058.1,"yT2":0,"toosoon":0,"cond_shown":"Incongruent","ratio_trial":300,"L_num":4,"L_den":20,"R_num":2,"R_den":4,"correct_side":2,"subjID":"DannaRamos10","gender":"1","school":"4","age":"9"},{"start_time":1552054290852,"click_time":1552054292675,"finger_time":1552054292355,"fix_duration":1136.412954027918,"trial":35,"RT":1503,"MT":320,"sideResp":2,"stimulus":[],"xmouse":[796,796,796,796,796,796,796,796,796,796,796,796,796,796,796,796,796,796,796,796,796,796,796,796,796,796,796,796,796,796,796,796,796,796,796,796,796,796,796,796,796,796,796,796,796,796,796,796,796,796,796,796,796,796,796,796,796,796,796,796,796,796,796,796,796,796,796,796,796,796,796,818,820,821,826,884,1001,1073,1131,1161,1174,1177,1177,1175,1174,1174,1173,1171,1166,1157,1147,1127],"ymouse":[617,617,617,617,617,617,617,617,617,617,617,617,617,617,617,617,617,617,617,617,617,617,617,617,617,617,617,617,617,617,617,617,617,617,617,617,617,617,617,617,617,617,617,617,617,617,617,617,617,617,617,617,617,617,617,617,617,617,617,617,617,617,617,617,617,617,617,617,617,618,621,630,630,630,630,586,457,371,290,234,211,194,183,176,173,165,161,157,145,132,117,95],"timestamp_mouse":[12,37,42,62,84,104,124,142,163,182,202,223,243,262,283,303,322,342,362,382,402,422,444,462,483,504,522,542,562,583,602,623,642,664,682,703,723,742,763,784,803,822,842,864,883,902,924,943,964,984,1003,1022,1042,1063,1084,1102,1122,1142,1164,1182,1203,1224,1243,1263,1283,1304,1324,1343,1362,1382,1403,1423,1443,1464,1483,1503,1522,1543,1564,1584,1603,1622,1643,1663,1683,1704,1722,1742,1762,1782,1803,1823],"xSR":741.5,"ySR":573.95,"xT1":424.9,"yT1":0,"xT2":1058.1,"yT2":0,"toosoon":0,"cond_shown":"Incongruent","ratio_trial":100,"L_num":6,"L_den":10,"R_num":7,"R_den":14,"correct_side":1,"subjID":"DannaRamos10","gender":"1","school":"4","age":"9"},{"start_time":1552054294356,"click_time":1552054296155,"finger_time":1552054295756,"fix_duration":499.16975066360425,"trial":36,"RT":1400,"MT":399,"sideResp":1,"stimulus":[],"xmouse":[791,791,791,791,791,791,791,791,791,791,791,791,791,791,791,791,791,791,791,791,791,791,791,791,791,791,791,791,791,791,791,791,791,791,791,791,791,791,791,791,791,791,791,791,791,791,791,791,791,791,791,791,791,791,791,791,791,791,791,791,791,791,791,791,791,789,788,786,778,771,751,712,696,681,672,664,656,646,629,614,604,588,582,579,579,579,578,560,544,532,522],"ymouse":[638,638,638,638,638,638,638,638,638,638,638,638,638,638,638,638,638,638,638,638,638,638,638,638,638,638,638,638,638,638,638,638,638,638,638,638,638,638,638,638,638,638,638,638,638,638,638,638,638,638,638,638,638,638,638,638,638,638,638,638,638,638,638,638,638,636,636,634,618,606,565,442,379,325,265,213,156,98,38,0,0,0,0,0,0,0,0,14,25,34,41],"timestamp_mouse":[1,19,40,59,79,99,119,138,158,178,198,220,239,260,279,299,318,339,358,379,400,420,440,460,480,499,519,538,558,579,599,618,640,660,680,700,718,739,759,780,799,818,838,859,878,899,918,940,958,979,999,1019,1038,1059,1079,1100,1118,1138,1159,1180,1200,1218,1238,1258,1279,1299,1319,1339,1359,1379,1400,1419,1439,1459,1479,1498,1519,1538,1558,1579,1598,1619,1638,1659,1678,1699,1719,1738,1758,1779,1799],"xSR":741.5,"ySR":573.95,"xT1":424.9,"yT1":0,"xT2":1058.1,"yT2":0,"toosoon":0,"cond_shown":"Incongruent","ratio_trial":200,"L_num":3,"L_den":10,"R_num":1,"R_den":2,"correct_side":2,"subjID":"DannaRamos10","gender":"1","school":"4","age":"9"},{"start_time":1552054299126,"click_time":1552054300804,"finger_time":1552054300494,"fix_duration":1489.9839906979887,"trial":37,"RT":1368,"MT":310,"sideResp":1,"stimulus":[],"xmouse":[774,774,774,768,768,768,768,768,768,768,768,768,768,768,768,768,768,768,768,768,768,768,768,768,768,768,768,768,768,768,768,768,768,768,768,768,768,768,768,768,768,768,768,768,768,768,768,768,768,768,768,768,768,768,768,768,768,768,768,768,768,768,768,768,768,768,765,763,736,723,713,701,691,669,649,629,601,581,550,542,533,522,513,496],"ymouse":[624,624,624,626,626,626,626,626,626,626,626,626,626,626,626,626,626,626,626,626,626,626,626,626,626,626,626,626,626,626,626,626,626,626,626,626,626,626,626,626,626,626,626,626,626,626,626,626,626,626,626,626,626,626,626,626,626,626,626,626,626,626,626,626,626,626,619,599,521,484,462,435,418,392,378,364,337,308,242,211,186,162,146,81],"timestamp_mouse":[12,35,48,68,88,110,128,149,169,189,209,228,249,269,288,309,330,348,369,388,409,428,448,470,490,508,530,550,568,589,608,629,650,668,688,708,728,749,770,790,808,829,849,869,889,910,929,949,968,988,1009,1030,1050,1069,1089,1108,1129,1148,1169,1189,1208,1228,1249,1269,1288,1309,1329,1349,1368,1388,1409,1429,1448,1469,1488,1508,1528,1548,1568,1589,1610,1629,1649,1678],"xSR":741.5,"ySR":573.95,"xT1":424.9,"yT1":0,"xT2":1058.1,"yT2":0,"toosoon":0,"cond_shown":"Incongruent","ratio_trial":300,"L_num":1,"L_den":2,"R_num":3,"R_den":15,"correct_side":1,"subjID":"DannaRamos10","gender":"1","school":"4","age":"9"},{"start_time":1552054302726,"click_time":1552054306035,"finger_time":1552054304255,"fix_duration":1030.9760602373337,"trial":38,"RT":1529,"MT":1780,"sideResp":2,"stimulus":[],"xmouse":[798,798,798,798,798,798,798,798,798,798,798,798,798,798,798,798,798,798,798,798,798,798,798,798,798,798,798,798,798,798,798,798,798,798,798,798,798,798,798,798,798,798,798,798,798,798,798,798,798,798,798,798,798,798,798,798,798,798,798,798,798,798,798,798,798,798,798,798,798,798,798,798,798,798,798,792,785,775,742,730,718,708,697,680,657,645,633,622,603,594,588,581,573,567,548,542,536,530,499,479,461,449,444,443,442,441,441,441,441,441,442,442,444,444,446,446,446,446,446,446,446,446,446,446,451,455,463,471,479,488,492,498,507,519,574,604,635,670,757,821,883,949,987,1008,1011,1015,1026,1042,1069,1072,1075,1080,1093,1104,1128,1132,1134,1134,1134,1134,1134,1134,1133,1129,1104,1094],"ymouse":[622,622,622,622,622,621,621,621,621,621,621,621,621,621,621,621,621,621,621,621,621,621,621,621,621,621,621,621,621,621,621,621,621,621,621,621,621,621,621,621,621,621,621,621,621,621,621,621,621,621,621,621,621,621,621,621,621,621,621,621,621,621,621,621,621,621,621,621,621,621,621,621,621,621,615,588,566,539,475,453,434,416,393,364,334,320,310,300,282,272,266,259,251,240,214,205,196,186,164,153,143,135,131,125,122,120,118,117,116,113,112,111,109,108,107,107,107,107,107,107,107,107,106,106,131,154,180,206,231,260,273,288,304,321,370,384,393,399,399,384,365,346,336,327,321,309,293,281,271,270,270,266,256,240,191,178,173,172,172,172,168,163,158,150,109,89],"timestamp_mouse":[12,34,49,69,88,109,129,150,169,189,209,228,249,268,289,309,330,348,369,389,409,428,450,469,490,509,528,549,570,590,608,629,649,669,690,710,729,748,769,789,810,828,848,869,890,909,929,949,968,990,1010,1029,1049,1068,1090,1109,1129,1150,1169,1188,1209,1228,1249,1268,1288,1309,1329,1348,1368,1389,1409,1428,1449,1468,1489,1509,1529,1549,1569,1588,1609,1629,1648,1669,1688,1708,1729,1749,1769,1789,1808,1828,1850,1868,1888,1909,1928,1950,1969,1988,2009,2029,2048,2070,2088,2110,2129,2148,2169,2189,2209,2228,2249,2270,2289,2309,2329,2348,2368,2388,2408,2428,2449,2469,2489,2510,2528,2548,2568,2588,2608,2629,2648,2668,2690,2709,2729,2749,2770,2789,2808,2828,2849,2870,2889,2909,2929,2948,2970,2989,3008,3029,3049,3068,3089,3109,3129,3148,3168,3189,3209,3230,3249,3269,3288,3308],"xSR":741.5,"ySR":573.95,"xT1":424.9,"yT1":0,"xT2":1058.1,"yT2":0,"toosoon":0,"cond_shown":"Incongruent","ratio_trial":100,"L_num":6,"L_den":10,"R_num":11,"R_den":22,"correct_side":1,"subjID":"DannaRamos10","gender":"1","school":"4","age":"9"},{"start_time":1552054308964,"click_time":1552054310494,"finger_time":1552054309855,"fix_duration":1486.4955554214644,"trial":39,"RT":891,"MT":639,"sideResp":1,"stimulus":[],"xmouse":[789,787,785,785,785,785,785,785,785,785,785,785,785,785,785,785,785,785,785,785,785,785,785,784,779,772,767,763,763,763,763,763,763,763,763,763,763,763,763,763,758,753,745,742,741,741,741,741,741,741,741,740,710,693,680,669,656,632,621,607,588,571,542,532,526,525,525,525,525,525,525,525,522,520,517,512,506],"ymouse":[621,624,627,627,627,627,627,627,627,627,627,627,627,627,627,627,627,627,627,627,627,627,627,629,634,641,643,643,643,643,643,643,643,643,643,643,643,643,643,643,644,644,646,647,647,647,647,647,647,647,647,642,551,517,500,489,478,451,429,393,327,270,193,172,161,155,154,153,152,150,144,143,133,128,120,109,96],"timestamp_mouse":[13,38,50,70,90,110,130,150,170,190,210,230,250,270,290,310,330,350,370,390,410,430,450,470,490,511,531,550,570,590,610,630,651,670,690,710,732,751,771,791,810,830,851,871,891,911,930,951,971,991,1010,1032,1051,1071,1091,1111,1130,1150,1171,1191,1210,1232,1251,1271,1291,1311,1331,1351,1371,1391,1411,1431,1450,1471,1491,1511,1530],"xSR":741.5,"ySR":573.95,"xT1":424.9,"yT1":0,"xT2":1058.1,"yT2":0,"toosoon":0,"cond_shown":"Incongruent","ratio_trial":200,"L_num":14,"L_den":30,"R_num":6,"R_den":9,"correct_side":2,"subjID":"DannaRamos10","gender":"1","school":"4","age":"9"},{"start_time":1552054313390,"click_time":1552054315054,"finger_time":1552054314735,"fix_duration":1251.010810794411,"trial":40,"RT":1345,"MT":319,"sideResp":2,"stimulus":[],"xmouse":[820,820,820,820,820,820,820,820,820,820,820,820,820,820,820,820,820,820,820,820,820,820,820,820,820,820,820,820,820,820,820,820,820,820,820,820,820,820,820,820,820,820,820,820,820,820,820,820,820,820,820,820,820,820,820,820,820,820,820,820,820,820,820,820,820,824,835,867,923,966,998,1059,1084,1107,1123,1138,1150,1155,1159,1162,1163,1162,1159,1155],"ymouse":[628,628,628,628,628,628,628,628,628,628,628,628,628,628,628,628,628,628,628,628,628,628,628,628,628,628,628,628,628,628,628,628,628,628,628,628,628,628,628,628,628,628,628,628,628,628,628,628,628,628,628,628,628,628,628,628,628,628,628,628,628,628,628,628,626,621,609,569,503,457,420,352,322,291,262,237,218,209,201,186,162,122,108,98],"timestamp_mouse":[14,38,46,66,86,104,125,144,165,185,205,225,245,265,284,304,325,346,366,384,405,426,445,465,485,505,524,544,565,586,604,624,644,664,685,705,724,744,764,785,804,824,844,865,886,905,926,944,965,986,1005,1025,1044,1065,1084,1105,1126,1144,1164,1186,1206,1225,1245,1264,1285,1305,1325,1344,1364,1385,1405,1425,1444,1465,1485,1504,1526,1544,1565,1585,1605,1625,1644,1664],"xSR":741.5,"ySR":573.95,"xT1":424.9,"yT1":0,"xT2":1058.1,"yT2":0,"toosoon":0,"cond_shown":"Congruent","ratio_trial":300,"L_num":3,"L_den":12,"R_num":11,"R_den":20,"correct_side":2,"subjID":"DannaRamos10","gender":"1","school":"4","age":"9"},{"start_time":1552054317224,"click_time":1552054319334,"finger_time":1552054318734,"fix_duration":1006.3472117019586,"trial":41,"RT":1510,"MT":600,"sideResp":2,"stimulus":[],"xmouse":[797,797,797,797,797,797,797,797,797,797,797,797,797,797,797,797,797,797,797,797,797,797,797,797,797,797,797,797,797,797,797,797,797,797,797,797,797,797,797,797,797,797,797,797,797,797,797,797,797,797,797,797,797,797,797,797,797,797,797,797,797,797,797,797,797,797,797,797,797,797,797,797,797,803,824,881,917,944,959,969,977,977,976,975,975,975,975,980,983,987,1002,1008,1012,1018,1021,1042,1050,1055,1057,1058,1058,1058,1058,1058,1058,1060],"ymouse":[603,603,603,603,603,603,603,603,603,603,603,603,603,603,603,603,603,603,603,603,603,603,603,603,603,603,603,603,603,603,603,603,603,603,603,603,603,603,603,603,603,603,603,603,603,603,603,603,603,603,603,603,603,603,603,603,603,603,603,603,603,603,603,603,603,603,603,603,603,603,603,603,603,600,589,551,523,500,485,469,429,406,381,351,333,301,284,271,261,249,215,202,192,182,179,147,134,120,107,91,75,74,74,74,69,62],"timestamp_mouse":[13,42,50,70,92,110,130,150,171,191,210,230,251,270,292,310,331,351,371,392,410,430,452,470,491,511,531,551,571,591,611,630,651,671,691,711,732,752,771,791,811,831,850,870,890,911,931,951,971,991,1011,1030,1050,1072,1091,1111,1130,1150,1171,1191,1211,1231,1250,1271,1291,1312,1331,1350,1371,1392,1412,1430,1450,1470,1491,1510,1531,1550,1571,1592,1611,1632,1651,1670,1691,1710,1731,1750,1770,1791,1810,1831,1851,1870,1892,1912,1931,1950,1971,1991,2010,2030,2051,2070,2090,2110],"xSR":741.5,"ySR":573.95,"xT1":424.9,"yT1":0,"xT2":1058.1,"yT2":0,"toosoon":0,"cond_shown":"Incongruent","ratio_trial":300,"L_num":4,"L_den":20,"R_num":2,"R_den":4,"correct_side":2,"subjID":"DannaRamos10","gender":"1","school":"4","age":"9"},{"start_time":1552054321833,"click_time":1552054323954,"finger_time":1552054323254,"fix_duration":1378.2067147780956,"trial":42,"RT":1421,"MT":700,"sideResp":2,"stimulus":[],"xmouse":[786,786,786,786,786,786,786,786,786,786,786,786,786,786,786,786,786,786,786,786,786,786,786,786,786,786,786,786,786,786,786,786,786,786,786,786,786,786,786,786,786,786,786,786,786,786,786,786,786,786,786,786,786,786,786,786,786,786,786,786,786,786,786,786,786,786,786,786,786,792,801,867,889,903,910,924,932,940,947,951,953,960,964,968,972,977,985,994,1007,1023,1049,1068,1073,1077,1081,1085,1088,1089,1089,1089,1089,1089,1089,1089,1089,1087,1083],"ymouse":[643,643,643,643,643,643,643,643,643,643,643,643,643,643,643,643,643,643,643,643,643,643,643,643,643,643,643,643,643,643,643,643,643,643,643,643,643,643,643,643,643,643,643,643,643,643,643,643,643,643,643,643,643,643,643,643,643,643,643,643,643,643,643,643,643,643,643,643,643,638,626,555,531,514,504,471,445,417,392,373,359,335,324,312,298,279,266,252,235,218,192,170,164,157,151,147,139,134,130,129,128,128,128,126,123,118,92],"timestamp_mouse":[11,37,42,63,81,101,122,141,161,181,201,221,243,261,282,302,322,342,362,381,401,422,441,462,483,501,522,543,563,582,602,621,643,663,682,703,721,742,763,781,802,821,842,861,882,902,922,941,962,981,1001,1021,1043,1063,1082,1101,1121,1141,1162,1183,1203,1222,1242,1261,1283,1302,1321,1342,1363,1382,1402,1421,1442,1461,1482,1503,1521,1542,1562,1581,1601,1621,1642,1662,1681,1703,1722,1742,1762,1782,1802,1823,1842,1861,1881,1901,1921,1943,1963,1982,2001,2021,2042,2062,2082,2102,2121],"xSR":741.5,"ySR":573.95,"xT1":424.9,"yT1":0,"xT2":1058.1,"yT2":0,"toosoon":0,"cond_shown":"Congruent","ratio_trial":200,"L_num":13,"L_den":26,"R_num":14,"R_den":20,"correct_side":2,"subjID":"DannaRamos10","gender":"1","school":"4","age":"9"},{"start_time":1552054326311,"click_time":1552054327755,"finger_time":1552054327194,"fix_duration":1355.41027588219,"trial":43,"RT":883,"MT":561,"sideResp":2,"stimulus":[],"xmouse":[774,774,774,774,774,774,774,774,774,774,774,774,774,774,774,774,774,774,774,774,774,774,774,774,774,774,774,774,774,774,774,774,774,774,774,774,774,774,774,775,776,782,799,815,847,870,892,938,954,968,981,993,1014,1021,1028,1032,1035,1040,1047,1055,1063,1067,1071,1071,1071,1071,1071,1071,1071,1071,1071,1073,1078],"ymouse":[613,613,613,613,613,613,613,613,613,613,613,613,613,613,613,613,613,613,613,613,613,613,613,613,613,613,613,613,613,613,613,613,613,613,613,613,613,613,613,613,612,611,606,603,599,595,586,563,550,534,511,482,418,396,381,363,351,317,294,268,245,226,188,173,159,155,151,142,137,131,124,115,95],"timestamp_mouse":[20,37,43,63,83,104,123,143,164,185,204,224,245,264,284,304,324,344,364,383,403,424,443,464,484,504,523,543,564,584,604,624,644,663,683,705,724,744,764,783,804,824,843,863,883,904,924,943,964,984,1004,1023,1044,1063,1084,1105,1123,1143,1164,1183,1204,1223,1243,1265,1284,1303,1324,1344,1363,1384,1403,1424,1444],"xSR":741.5,"ySR":573.95,"xT1":424.9,"yT1":0,"xT2":1058.1,"yT2":0,"toosoon":0,"cond_shown":"Incongruent","ratio_trial":300,"L_num":4,"L_den":5,"R_num":8,"R_den":16,"correct_side":1,"subjID":"DannaRamos10","gender":"1","school":"4","age":"9"},{"start_time":1552054329366,"click_time":1552054330934,"finger_time":1552054330535,"fix_duration":250,"trial":44,"RT":1169,"MT":399,"sideResp":2,"stimulus":[],"xmouse":[789,789,789,789,789,789,789,789,789,789,789,789,789,789,789,789,789,789,789,789,789,789,789,789,789,789,794,797,798,798,798,798,798,798,798,798,798,798,798,798,798,798,798,798,798,798,798,798,798,798,798,798,798,798,807,817,828,837,844,854,866,880,895,910,935,941,943,944,944,946,955,967,973,985,1008,1048,1056,1059,1061],"ymouse":[620,620,620,620,620,620,620,620,620,620,620,620,620,620,620,620,620,620,620,620,620,620,620,620,620,619,619,619,619,619,619,619,619,619,619,619,619,619,619,619,619,619,619,619,619,619,619,619,619,619,619,619,619,619,618,616,612,607,602,594,585,576,567,559,545,541,539,537,536,534,522,503,486,459,387,226,166,124,97],"timestamp_mouse":[13,35,49,69,88,108,130,149,169,189,208,229,250,268,289,310,329,349,368,388,409,429,450,468,489,508,528,549,569,588,609,628,649,669,689,709,728,748,768,790,808,829,848,868,888,908,928,950,970,989,1009,1028,1050,1069,1089,1109,1130,1149,1169,1189,1209,1228,1249,1270,1289,1308,1328,1349,1369,1389,1409,1429,1448,1468,1488,1509,1529,1549,1568],"xSR":741.5,"ySR":573.95,"xT1":424.9,"yT1":0,"xT2":1058.1,"yT2":0,"toosoon":0,"cond_shown":"Incongruent","ratio_trial":300,"L_num":4,"L_den":20,"R_num":2,"R_den":4,"correct_side":2,"subjID":"DannaRamos10","gender":"1","school":"4","age":"9"},{"start_time":1552054332678,"click_time":1552054333975,"finger_time":1552054333435,"fix_duration":502.496966332227,"trial":45,"RT":757,"MT":540,"sideResp":1,"stimulus":[],"xmouse":[809,809,809,809,809,809,809,809,809,809,809,809,809,809,809,809,809,809,809,809,809,809,809,809,809,809,809,809,809,809,809,809,809,809,809,809,809,807,806,798,790,772,754,737,699,684,669,659,654,650,649,646,645,641,632,627,620,612,603,585,578,570,556,546,524],"ymouse":[590,590,590,590,590,590,590,590,590,590,590,590,590,590,590,590,590,590,590,590,590,590,590,590,590,590,590,590,590,590,590,590,590,590,590,590,582,572,561,522,493,439,400,372,319,298,280,269,262,255,252,245,238,225,194,176,157,138,119,87,78,67,50,40,23],"timestamp_mouse":[21,38,56,77,97,116,137,157,176,196,217,238,256,278,297,317,337,358,377,396,416,438,456,476,496,516,537,557,577,597,617,636,657,676,697,716,737,757,777,797,817,837,857,877,896,917,937,957,977,996,1017,1037,1056,1076,1096,1117,1137,1157,1177,1197,1218,1237,1258,1277,1297],"xSR":741.5,"ySR":573.95,"xT1":424.9,"yT1":0,"xT2":1058.1,"yT2":0,"toosoon":0,"cond_shown":"Incongruent","ratio_trial":100,"L_num":13,"L_den":26,"R_num":6,"R_den":10,"correct_side":2,"subjID":"DannaRamos10","gender":"1","school":"4","age":"9"},{"start_time":1552054335526,"click_time":1552054336875,"finger_time":1552054336515,"fix_duration":250,"trial":46,"RT":989,"MT":360,"sideResp":1,"stimulus":[],"xmouse":[809,809,809,809,809,809,809,809,809,809,809,809,809,809,809,809,811,812,812,812,812,812,812,812,812,812,812,812,812,812,812,812,812,812,812,812,812,812,812,812,812,812,812,812,812,812,812,810,806,798,792,786,783,782,781,781,779,771,751,732,716,700,668,645,619,595,573,518],"ymouse":[601,601,601,601,601,601,601,601,601,601,601,601,601,601,601,601,601,597,596,596,596,596,596,596,596,596,596,596,596,596,596,596,596,596,596,596,596,596,596,596,596,596,596,596,596,596,595,589,582,566,554,544,536,534,533,529,523,490,438,399,372,348,301,264,225,178,139,59],"timestamp_mouse":[9,37,48,69,88,108,128,150,169,189,210,228,249,268,288,309,328,348,368,390,408,429,449,468,488,509,529,549,568,589,608,630,650,668,688,709,729,749,768,788,808,828,850,869,889,909,928,949,969,989,1008,1028,1049,1068,1088,1109,1129,1148,1168,1188,1208,1230,1248,1269,1290,1309,1329,1349],"xSR":741.5,"ySR":573.95,"xT1":424.9,"yT1":0,"xT2":1058.1,"yT2":0,"toosoon":0,"cond_shown":"Congruent","ratio_trial":300,"L_num":18,"L_den":20,"R_num":9,"R_den":15,"correct_side":1,"subjID":"DannaRamos10","gender":"1","school":"4","age":"9"},{"start_time":1552054339304,"click_time":1552054340954,"finger_time":1552054340355,"fix_duration":1466.3841785580657,"trial":47,"RT":1051,"MT":599,"sideResp":2,"stimulus":[],"xmouse":[778,778,778,778,778,778,778,778,778,778,778,778,778,778,778,778,778,778,778,778,778,778,778,778,778,778,778,778,778,778,778,778,778,778,778,778,778,778,778,778,778,778,778,778,778,778,778,778,778,782,809,838,852,902,934,953,969,982,996,1022,1028,1035,1039,1053,1060,1068,1073,1078,1084,1088,1089,1090,1093,1095,1100,1103,1104,1107,1108,1108,1108,1109,1110],"ymouse":[618,618,618,618,618,618,618,618,618,618,618,618,618,618,618,618,618,618,618,618,618,618,618,618,618,618,618,618,618,618,618,618,618,618,618,618,618,618,618,618,618,618,618,618,618,618,618,618,618,618,617,606,598,564,534,507,487,469,449,405,399,389,379,349,329,306,284,265,246,231,228,221,209,192,146,127,117,108,102,102,102,100,96],"timestamp_mouse":[21,38,51,70,90,111,131,152,171,190,212,231,252,270,290,312,332,351,370,391,411,431,451,471,491,512,531,550,571,590,610,631,650,671,690,710,731,750,772,790,810,830,851,870,891,911,932,951,970,991,1010,1031,1051,1072,1091,1111,1131,1150,1170,1190,1211,1231,1250,1272,1291,1311,1331,1351,1370,1391,1411,1431,1451,1472,1491,1510,1531,1551,1572,1590,1610,1631,1650],"xSR":741.5,"ySR":573.95,"xT1":424.9,"yT1":0,"xT2":1058.1,"yT2":0,"toosoon":0,"cond_shown":"Incongruent","ratio_trial":300,"L_num":13,"L_den":26,"R_num":12,"R_den":15,"correct_side":2,"subjID":"DannaRamos10","gender":"1","school":"4","age":"9"},{"start_time":1552054342293,"click_time":1552054345095,"finger_time":1552054343695,"fix_duration":396.4813908251356,"trial":48,"RT":1402,"MT":1400,"sideResp":2,"stimulus":[],"xmouse":[780,780,780,780,780,780,780,780,780,780,780,780,780,780,780,780,780,780,780,780,780,780,780,780,780,780,780,780,780,780,780,780,780,780,780,780,780,780,780,780,780,780,780,780,780,780,780,780,780,780,780,780,780,780,780,780,780,780,780,780,780,780,780,780,780,780,780,779,778,774,757,741,725,716,710,706,705,705,704,702,700,698,697,694,690,677,664,647,610,582,541,536,535,535,535,535,535,535,535,535,535,535,541,554,577,640,669,686,693,700,720,734,753,769,787,820,843,871,924,948,999,1028,1072,1127,1178,1253,1266,1269,1269,1269,1269,1268,1267,1265,1261,1240,1225,1198,1190,1165,1128],"ymouse":[655,655,655,655,655,655,655,655,655,655,655,655,655,655,655,655,655,655,655,655,655,655,655,655,655,655,655,655,655,655,655,655,655,655,655,655,655,655,655,655,655,655,655,655,655,655,655,655,655,655,655,655,655,655,655,655,655,655,655,655,655,655,655,655,655,655,655,654,650,631,573,511,462,441,428,403,383,357,331,321,308,304,299,294,288,271,255,235,203,181,155,151,151,151,15