[{"start_time":1552054119745,"click_time":1552054123759,"finger_time":1552054123277,"fix_duration":643.1823693645462,"trial":0,"RT":3532,"MT":482,"sideResp":2,"stimulus":[],"xmouse":[798,798,798,798,798,798,798,798,798,798,798,798,798,798,798,798,798,798,798,798,798,798,798,798,798,799,799,799,799,799,799,799,799,799,799,799,799,799,799,799,799,799,799,799,799,799,799,799,799,799,799,799,799,799,799,799,799,799,799,799,799,801,803,804,806,806,806,806,806,806,806,806,806,806,806,806,806,806,806,806,806,806,806,806,806,806,806,806,806,806,806,806,806,806,806,806,806,806,806,806,806,806,806,806,806,806,806,806,806,806,806,806,806,806,806,806,806,806,806,806,806,806,806,806,806,806,806,806,806,806,806,806,806,806,806,806,806,806,806,806,806,806,806,806,806,806,806,806,806,806,806,806,806,806,806,806,806,806,806,806,806,806,806,806,806,806,806,806,806,806,806,806,809,812,820,830,843,881,899,918,939,965,1020,1061,1075,1115,1134,1163,1175,1183,1189,1193,1194,1194,1189,1184,1183,1181,1177,1168,1157],"ymouse":[566,566,566,566,566,566,566,566,566,566,566,566,566,566,566,566,566,566,566,566,566,566,566,566,566,566,566,566,566,566,566,566,566,566,566,566,566,566,566,566,566,566,566,566,566,566,566,566,566,566,566,566,566,566,566,566,566,566,566,566,566,566,565,564,560,559,558,556,555,555,555,554,554,554,554,554,554,554,554,554,554,553,553,553,553,553,553,553,553,553,553,553,553,553,553,552,552,552,552,552,552,552,552,552,552,552,552,552,552,552,552,552,552,552,552,552,552,552,552,552,552,552,552,552,552,552,552,552,552,552,552,552,552,552,552,552,552,552,552,552,552,552,551,550,549,547,546,545,545,545,545,545,545,543,543,543,543,543,542,542,542,542,542,542,542,541,541,541,541,540,540,539,536,532,526,519,512,490,479,465,451,431,383,342,324,280,254,208,185,165,143,122,81,64,46,38,36,35,35,35,35],"timestamp_mouse":[14,43,54,73,94,114,133,153,174,194,212,233,252,274,293,313,332,352,374,393,414,432,452,474,494,513,532,552,572,593,614,633,652,672,692,714,734,753,773,794,813,832,852,873,894,913,933,953,973,992,1012,1034,1053,1072,1093,1114,1133,1152,1173,1194,1212,1233,1252,1273,1292,1313,1333,1353,1373,1392,1413,1432,1452,1472,1493,1512,1532,1552,1573,1593,1614,1633,1652,1673,1694,1713,1733,1752,1774,1793,1813,1834,1854,1873,1893,1913,1933,1954,1973,1992,2012,2032,2053,2074,2093,2112,2132,2153,2173,2193,2213,2234,2252,2272,2292,2313,2333,2353,2373,2392,2413,2433,2453,2473,2494,2513,2533,2552,2573,2594,2614,2633,2652,2673,2693,2712,2734,2753,2772,2793,2812,2833,2853,2874,2892,2912,2933,2953,2973,2993,3014,3034,3052,3074,3093,3112,3133,3153,3173,3194,3212,3233,3253,3273,3293,3313,3334,3353,3373,3393,3412,3433,3452,3473,3492,3512,3532,3552,3572,3592,3613,3633,3653,3672,3694,3714,3732,3752,3772,3793,3812,3834,3853,3874,3892,3912,3934,3953,3972,3993,4014],"xSR":741.5,"ySR":501.8,"xT1":424.9,"yT1":0,"xT2":1058.1,"yT2":0,"toosoon":0,"cond_shown":"Incongruent","ratio_trial":200,"L_num":3,"L_den":10,"R_num":1,"R_den":2,"correct_side":2,"subjID":"camiloandrescastellanoscastro28","gender":"0","age":"9","school":"4","test":{"fix_dur":[250,1500],"timestim":1000,"targets_dim":[100,100],"targets_relative_coord":[0.3,0.7],"size_stim":[880,420],"start_dim":[100,100],"size_start":[300,300],"size_fix":60,"samplingrate":20,"img_types":["Congruent","Incongruent"],"ratios":[100,200,300],"rep_conds":19,"nTrials":120,"trials_to_rest":500,"Trials_order":[111,69,95,36,105,83,75,107,60,102,68,94,62,32,110,80,44,118,53,26,86,41,117,14,82,37,93,50,59,39,5,11,64,31,28,45,56,112,109,30,101,12,106,103,40,77,8,55,91,27,66,24,119,76,16,58,113,49,6,96,84,72,46,0,116,54,22,29,21,114,97,90,42,33,71,65,100,67,104,98,1,18,15,25,81,10,4,3,19,51,20,70,48,99,89,108,88,7,52,73,47,17,87,92,79,115,85,34,57,9,13,43,2,35,23,63,38,61,78,74],"cond_shown":["Incongruent","Incongruent","Incongruent","Congruent","Incongruent","Incongruent","Incongruent","Incongruent","Congruent","Congruent","Congruent","Congruent","Congruent","Congruent","Congruent","Congruent","Congruent","Congruent","Incongruent","Congruent","Congruent","Incongruent","Incongruent","Congruent","Congruent","Incongruent","Incongruent","Congruent","Incongruent","Incongruent","Incongruent","Incongruent","Congruent","Incongruent","Congruent","Incongruent","Congruent","Congruent","Incongruent","Congruent","Incongruent","Congruent","Congruent","Incongruent","Congruent","Incongruent","Congruent","Incongruent","Incongruent","Incongruent","Congruent","Congruent","Incongruent","Congruent","Congruent","Congruent","Incongruent","Incongruent","Congruent","Congruent","Congruent","Congruent","Congruent","Congruent","Congruent","Congruent","Congruent","Incongruent","Incongruent","Congruent","Incongruent","Congruent","Congruent","Incongruent","Incongruent","Incongruent","Congruent","Incongruent","Congruent","Congruent","Incongruent","Congruent","Incongruent","Incongruent","Incongruent","Congruent","Congruent","Incongruent","Incongruent","Incongruent","Congruent","Congruent","Congruent","Incongruent","Incongruent","Congruent","Congruent","Incongruent","Congruent","Incongruent","Incongruent","Incongruent","Incongruent","Congruent","Incongruent","Incongruent","Incongruent","Congruent","Incongruent","Incongruent","Incongruent","Incongruent","Congruent","Incongruent","Incongruent","Incongruent","Congruent","Incongruent","Congruent","Congruent"],"ratio_trial":[200,200,300,100,200,300,200,300,100,100,200,300,200,200,200,200,200,300,300,200,200,300,200,200,300,100,200,200,300,200,300,300,300,100,300,200,200,300,100,100,300,100,300,100,300,300,200,100,100,200,100,100,300,300,300,300,300,100,100,100,100,100,300,100,200,100,300,300,200,100,100,100,100,200,300,300,300,100,200,200,100,100,200,100,200,300,300,200,100,200,200,300,100,200,300,100,300,100,300,100,300,300,200,200,100,100,100,300,200,200,100,100,200,300,300,200,200,100,100,200],"left_num":[3,1,2,4,4,13,1,13,2,7,6,1,3,16,12,8,15,18,4,7,5,3,1,11,2,17,14,11,13,4,7,4,11,11,24,1,4,1,3,7,3,9,4,3,2,1,7,9,10,4,6,8,7,20,5,3,13,3,10,2,9,1,24,7,20,7,3,4,7,4,17,2,8,7,13,4,2,11,15,14,17,2,3,9,3,7,8,7,2,7,4,8,8,4,4,6,7,9,7,9,13,3,14,3,13,6,13,18,9,14,17,6,14,1,4,7,7,13,4,8],"right_num":[1,2,6,6,6,12,3,12,6,9,11,3,7,9,6,2,4,9,2,2,14,4,3,3,12,10,6,3,12,14,8,2,1,9,8,3,3,7,7,9,4,8,2,11,10,2,18,6,9,1,15,2,8,14,7,11,12,8,3,11,8,18,8,9,9,9,2,2,6,6,10,6,2,12,12,6,10,9,4,6,10,6,1,13,1,20,1,4,8,4,3,10,2,14,2,5,20,6,20,14,12,4,6,14,12,3,12,9,8,12,10,3,6,3,2,12,2,6,15,7],"left_den":[10,3,4,8,5,26,2,26,5,14,20,5,10,30,20,15,25,20,20,21,10,6,2,22,10,30,30,22,26,6,10,20,22,22,30,2,10,20,9,14,6,15,5,5,20,2,15,18,25,30,12,16,10,25,25,12,26,5,25,5,15,2,30,14,25,14,6,20,15,8,30,5,16,10,26,5,20,22,25,28,30,5,10,15,10,14,16,15,4,15,10,15,16,6,20,20,14,18,14,15,26,6,30,10,26,12,26,20,15,30,30,12,28,2,20,10,21,26,10,15],"right_den":[2,15,30,10,10,15,10,15,12,15,22,6,14,27,15,6,10,15,4,15,20,20,10,10,24,15,9,10,15,30,20,4,5,15,16,10,15,20,30,15,20,16,4,22,25,10,27,10,18,3,25,5,20,28,14,20,15,16,10,22,16,30,16,15,15,15,10,4,9,10,15,12,5,24,15,12,25,15,10,20,15,12,2,26,2,25,5,6,20,6,15,12,5,30,4,25,25,10,25,28,15,20,9,28,20,5,20,15,10,18,15,5,20,15,4,24,15,10,30,21],"correct_side":[2,1,1,2,1,2,1,2,2,2,2,2,2,1,1,1,1,1,2,1,2,1,1,1,2,2,2,1,2,1,1,2,1,2,1,1,1,2,1,2,1,1,1,1,2,1,2,2,2,2,2,1,1,1,2,2,2,1,1,2,1,2,1,2,1,2,1,2,2,2,2,2,1,1,2,1,2,2,1,1,2,2,2,1,2,2,1,2,1,2,1,2,1,1,2,1,2,2,2,1,2,1,2,2,2,2,2,1,2,2,2,2,1,1,2,1,1,2,2,1],"img_shown":["img2/200/Incongruent/R/I_Dist_200_LN_3_LD_10_RN_1_RD_2_1.png","img2/200/Incongruent/L/I_Dist_200_LN_1_LD_3_RN_2_RD_15_0.png","img2/300/Incongruent/L/I_Dist_300_LN_2_LD_4_RN_6_RD_30_0.png","img2/100/Congruent/R/C_Dist_100_LN_4_LD_8_RN_6_RD_10_1.png","img2/200/Incongruent/L/I_Dist_200_LN_4_LD_5_RN_6_RD_10_0.png","img2/300/Incongruent/R/I_Dist_300_LN_13_LD_26_RN_12_RD_15_1.png","img2/200/Incongruent/L/I_Dist_200_LN_1_LD_2_RN_3_RD_10_0.png","img2/300/Incongruent/R/I_Dist_300_LN_13_LD_26_RN_12_RD_15_1.png","img2/100/Congruent/R/C_Dist_100_LN_2_LD_5_RN_6_RD_12_1.png","img2/100/Congruent/R/C_Dist_100_LN_7_LD_14_RN_9_RD_15_1.png","img2/200/Congruent/R/C_Dist_200_LN_6_LD_20_RN_11_RD_22_1.png","img2/300/Congruent/R/C_Dist_300_LN_1_LD_5_RN_3_RD_6_1.png","img2/200/Congruent/R/C_Dist_200_LN_3_LD_10_RN_7_RD_14_1.png","img2/200/Congruent/L/C_Dist_200_LN_16_LD_30_RN_9_RD_27_0.png","img2/200/Congruent/L/C_Dist_200_LN_12_LD_20_RN_6_RD_15_0.png","img2/200/Congruent/L/C_Dist_200_LN_8_LD_15_RN_2_RD_6_0.png","img2/200/Congruent/L/C_Dist_200_LN_15_LD_25_RN_4_RD_10_0.png","img2/300/Congruent/L/C_Dist_300_LN_18_LD_20_RN_9_RD_15_0.png","img2/300/Incongruent/R/I_Dist_300_LN_4_LD_20_RN_2_RD_4_1.png","img2/200/Congruent/L/C_Dist_200_LN_7_LD_21_RN_2_RD_15_0.png","img2/200/Congruent/R/C_Dist_200_LN_5_LD_10_RN_14_RD_20_1.png","img2/300/Incongruent/L/I_Dist_300_LN_3_LD_6_RN_4_RD_20_0.png","img2/200/Incongruent/L/I_Dist_200_LN_1_LD_2_RN_3_RD_10_0.png","img2/200/Congruent/L/C_Dist_200_LN_11_LD_22_RN_3_RD_10_0.png","img2/300/Congruent/R/C_Dist_300_LN_2_LD_10_RN_12_RD_24_1.png","img2/100/Incongruent/R/I_Dist_100_LN_17_LD_30_RN_10_RD_15_1.png","img2/200/Incongruent/R/I_Dist_200_LN_14_LD_30_RN_6_RD_9_1.png","img2/200/Congruent/L/C_Dist_200_LN_11_LD_22_RN_3_RD_10_0.png","img2/300/Incongruent/R/I_Dist_300_LN_13_LD_26_RN_12_RD_15_1.png","img2/200/Incongruent/L/I_Dist_200_LN_4_LD_6_RN_14_RD_30_0.png","img2/300/Incongruent/L/I_Dist_300_LN_7_LD_10_RN_8_RD_20_0.png","img2/300/Incongruent/R/I_Dist_300_LN_4_LD_20_RN_2_RD_4_1.png","img2/300/Congruent/L/C_Dist_300_LN_11_LD_22_RN_1_RD_5_0.png","img2/100/Incongruent/R/I_Dist_100_LN_11_LD_22_RN_9_RD_15_1.png","img2/300/Congruent/L/C_Dist_300_LN_24_LD_30_RN_8_RD_16_0.png","img2/200/Incongruent/L/I_Dist_200_LN_1_LD_2_RN_3_RD_10_0.png","img2/200/Congruent/L/C_Dist_200_LN_4_LD_10_RN_3_RD_15_0.png","img2/300/Congruent/R/C_Dist_300_LN_1_LD_20_RN_7_RD_20_1.png","img2/100/Incongruent/L/I_Dist_100_LN_3_LD_9_RN_7_RD_30_0.png","img2/100/Congruent/R/C_Dist_100_LN_7_LD_14_RN_9_RD_15_1.png","img2/300/Incongruent/L/I_Dist_300_LN_3_LD_6_RN_4_RD_20_0.png","img2/100/Congruent/L/C_Dist_100_LN_9_LD_15_RN_8_RD_16_0.png","img2/300/Congruent/L/C_Dist_300_LN_4_LD_5_RN_2_RD_4_0.png","img2/100/Incongruent/L/I_Dist_100_LN_3_LD_5_RN_11_RD_22_0.png","img2/300/Congruent/R/C_Dist_300_LN_2_LD_20_RN_10_RD_25_1.png","img2/300/Incongruent/L/I_Dist_300_LN_1_LD_2_RN_2_RD_10_0.png","img2/200/Congruent/R/C_Dist_200_LN_7_LD_15_RN_18_RD_27_1.png","img2/100/Incongruent/R/I_Dist_100_LN_9_LD_18_RN_6_RD_10_1.png","img2/100/Incongruent/R/I_Dist_100_LN_10_LD_25_RN_9_RD_18_1.png","img2/200/Incongruent/R/I_Dist_200_LN_4_LD_30_RN_1_RD_3_1.png","img2/100/Congruent/R/C_Dist_100_LN_6_LD_12_RN_15_RD_25_1.png","img2/100/Congruent/L/C_Dist_100_LN_8_LD_16_RN_2_RD_5_0.png","img2/300/Incongruent/L/I_Dist_300_LN_7_LD_10_RN_8_RD_20_0.png","img2/300/Congruent/L/C_Dist_300_LN_20_LD_25_RN_14_RD_28_0.png","img2/300/Congruent/R/C_Dist_300_LN_5_LD_25_RN_7_RD_14_1.png","img2/300/Congruent/R/C_Dist_300_LN_3_LD_12_RN_11_RD_20_1.png","img2/300/Incongruent/R/I_Dist_300_LN_13_LD_26_RN_12_RD_15_1.png","img2/100/Incongruent/L/I_Dist_100_LN_3_LD_5_RN_8_RD_16_0.png","img2/100/Congruent/L/C_Dist_100_LN_10_LD_25_RN_3_RD_10_0.png","img2/100/Congruent/R/C_Dist_100_LN_2_LD_5_RN_11_RD_22_1.png","img2/100/Congruent/L/C_Dist_100_LN_9_LD_15_RN_8_RD_16_0.png","img2/100/Congruent/R/C_Dist_100_LN_1_LD_2_RN_18_RD_30_1.png","img2/300/Congruent/L/C_Dist_300_LN_24_LD_30_RN_8_RD_16_0.png","img2/100/Congruent/R/C_Dist_100_LN_7_LD_14_RN_9_RD_15_1.png","img2/200/Congruent/L/C_Dist_200_LN_20_LD_25_RN_9_RD_15_0.png","img2/100/Congruent/R/C_Dist_100_LN_7_LD_14_RN_9_RD_15_1.png","img2/300/Congruent/L/C_Dist_300_LN_3_LD_6_RN_2_RD_10_0.png","img2/300/Incongruent/R/I_Dist_300_LN_4_LD_20_RN_2_RD_4_1.png","img2/200/Incongruent/R/I_Dist_200_LN_7_LD_15_RN_6_RD_9_1.png","img2/100/Congruent/R/C_Dist_100_LN_4_LD_8_RN_6_RD_10_1.png","img2/100/Incongruent/R/I_Dist_100_LN_17_LD_30_RN_10_RD_15_1.png","img2/100/Congruent/R/C_Dist_100_LN_2_LD_5_RN_6_RD_12_1.png","img2/100/Congruent/L/C_Dist_100_LN_8_LD_16_RN_2_RD_5_0.png","img2/200/Incongruent/L/I_Dist_200_LN_7_LD_10_RN_12_RD_24_0.png","img2/300/Incongruent/R/I_Dist_300_LN_13_LD_26_RN_12_RD_15_1.png","img2/300/Incongruent/L/I_Dist_300_LN_4_LD_5_RN_6_RD_12_0.png","img2/300/Congruent/R/C_Dist_300_LN_2_LD_20_RN_10_RD_25_1.png","img2/100/Incongruent/R/I_Dist_100_LN_11_LD_22_RN_9_RD_15_1.png","img2/200/Congruent/L/C_Dist_200_LN_15_LD_25_RN_4_RD_10_0.png","img2/200/Congruent/L/C_Dist_200_LN_14_LD_28_RN_6_RD_20_0.png","img2/100/Incongruent/R/I_Dist_100_LN_17_LD_30_RN_10_RD_15_1.png","img2/100/Congruent/R/C_Dist_100_LN_2_LD_5_RN_6_RD_12_1.png","img2/200/Incongruent/R/I_Dist_200_LN_3_LD_10_RN_1_RD_2_1.png","img2/100/Incongruent/L/I_Dist_100_LN_9_LD_15_RN_13_RD_26_0.png","img2/200/Incongruent/R/I_Dist_200_LN_3_LD_10_RN_1_RD_2_1.png","img2/300/Congruent/R/C_Dist_300_LN_7_LD_14_RN_20_RD_25_1.png","img2/300/Congruent/L/C_Dist_300_LN_8_LD_16_RN_1_RD_5_0.png","img2/200/Incongruent/R/I_Dist_200_LN_7_LD_15_RN_4_RD_6_1.png","img2/100/Incongruent/L/I_Dist_100_LN_2_LD_4_RN_8_RD_20_0.png","img2/200/Incongruent/R/I_Dist_200_LN_7_LD_15_RN_4_RD_6_1.png","img2/200/Congruent/L/C_Dist_200_LN_4_LD_10_RN_3_RD_15_0.png","img2/300/Congruent/R/C_Dist_300_LN_8_LD_15_RN_10_RD_12_1.png","img2/100/Congruent/L/C_Dist_100_LN_8_LD_16_RN_2_RD_5_0.png","img2/200/Incongruent/L/I_Dist_200_LN_4_LD_6_RN_14_RD_30_0.png","img2/300/Incongruent/R/I_Dist_300_LN_4_LD_20_RN_2_RD_4_1.png","img2/100/Congruent/L/C_Dist_100_LN_6_LD_20_RN_5_RD_25_0.png","img2/300/Congruent/R/C_Dist_300_LN_7_LD_14_RN_20_RD_25_1.png","img2/100/Incongruent/R/I_Dist_100_LN_9_LD_18_RN_6_RD_10_1.png","img2/300/Congruent/R/C_Dist_300_LN_7_LD_14_RN_20_RD_25_1.png","img2/100/Incongruent/L/I_Dist_100_LN_9_LD_15_RN_14_RD_28_0.png","img2/300/Incongruent/R/I_Dist_300_LN_13_LD_26_RN_12_RD_15_1.png","img2/300/Incongruent/L/I_Dist_300_LN_3_LD_6_RN_4_RD_20_0.png","img2/200/Incongruent/R/I_Dist_200_LN_14_LD_30_RN_6_RD_9_1.png","img2/200/Congruent/R/C_Dist_200_LN_3_LD_10_RN_14_RD_28_1.png","img2/100/Incongruent/R/I_Dist_100_LN_13_LD_26_RN_12_RD_20_1.png","img2/100/Incongruent/R/I_Dist_100_LN_6_LD_12_RN_3_RD_5_1.png","img2/100/Incongruent/R/I_Dist_100_LN_13_LD_26_RN_12_RD_20_1.png","img2/300/Congruent/L/C_Dist_300_LN_18_LD_20_RN_9_RD_15_0.png","img2/200/Incongruent/R/I_Dist_200_LN_9_LD_15_RN_8_RD_10_1.png","img2/200/Incongruent/R/I_Dist_200_LN_14_LD_30_RN_12_RD_18_1.png","img2/100/Incongruent/R/I_Dist_100_LN_17_LD_30_RN_10_RD_15_1.png","img2/100/Incongruent/R/I_Dist_100_LN_6_LD_12_RN_3_RD_5_1.png","img2/200/Congruent/L/C_Dist_200_LN_14_LD_28_RN_6_RD_20_0.png","img2/300/Incongruent/L/I_Dist_300_LN_1_LD_2_RN_3_RD_15_0.png","img2/300/Incongruent/R/I_Dist_300_LN_4_LD_20_RN_2_RD_4_1.png","img2/200/Incongruent/L/I_Dist_200_LN_7_LD_10_RN_12_RD_24_0.png","img2/200/Congruent/L/C_Dist_200_LN_7_LD_21_RN_2_RD_15_0.png","img2/100/Incongruent/R/I_Dist_100_LN_13_LD_26_RN_6_RD_10_1.png","img2/100/Congruent/R/C_Dist_100_LN_4_LD_10_RN_15_RD_30_1.png","img2/200/Congruent/L/C_Dist_200_LN_8_LD_15_RN_7_RD_21_0.png"],"dist100_C":[["C_Dist_100_LN_10_LD_25_RN_3_RD_10_0.png","C_Dist_100_LN_11_LD_22_RN_4_RD_10_0.png","C_Dist_100_LN_11_LD_22_RN_6_RD_15_0.png","C_Dist_100_LN_15_LD_25_RN_13_RD_26_0.png","C_Dist_100_LN_3_LD_6_RN_2_RD_5_0.png","C_Dist_100_LN_6_LD_20_RN_5_RD_25_0.png","C_Dist_100_LN_8_LD_16_RN_2_RD_5_0.png","C_Dist_100_LN_9_LD_15_RN_8_RD_16_0.png"],["C_Dist_100_LN_1_LD_2_RN_18_RD_30_1.png","C_Dist_100_LN_1_LD_2_RN_3_RD_5_1.png","C_Dist_100_LN_12_LD_30_RN_13_RD_26_1.png","C_Dist_100_LN_2_LD_5_RN_11_RD_22_1.png","C_Dist_100_LN_2_LD_5_RN_6_RD_12_1.png","C_Dist_100_LN_3_LD_20_RN_4_RD_16_1.png","C_Dist_100_LN_4_LD_10_RN_15_RD_30_1.png","C_Dist_100_LN_4_LD_8_RN_6_RD_10_1.png","C_Dist_100_LN_6_LD_12_RN_15_RD_25_1.png","C_Dist_100_LN_7_LD_14_RN_15_RD_25_1.png","C_Dist_100_LN_7_LD_14_RN_9_RD_15_1.png"]],"dist100_I":[["I_Dist_100_LN_1_LD_2_RN_8_RD_20_0.png","I_Dist_100_LN_2_LD_4_RN_6_RD_15_0.png","I_Dist_100_LN_2_LD_4_RN_8_RD_20_0.png","I_Dist_100_LN_3_LD_5_RN_11_RD_22_0.png","I_Dist_100_LN_3_LD_5_RN_8_RD_16_0.png","I_Dist_100_LN_3_LD_6_RN_4_RD_10_0.png","I_Dist_100_LN_3_LD_9_RN_7_RD_30_0.png","I_Dist_100_LN_4_LD_8_RN_8_RD_20_0.png","I_Dist_100_LN_6_LD_10_RN_11_RD_22_0.png","I_Dist_100_LN_6_LD_10_RN_13_RD_26_0.png","I_Dist_100_LN_6_LD_10_RN_7_RD_14_0.png","I_Dist_100_LN_9_LD_10_RN_20_RD_25_0.png","I_Dist_100_LN_9_LD_15_RN_13_RD_26_0.png","I_Dist_100_LN_9_LD_15_RN_14_RD_28_0.png"],["I_Dist_100_LN_10_LD_25_RN_8_RD_16_1.png","I_Dist_100_LN_10_LD_25_RN_9_RD_18_1.png","I_Dist_100_LN_11_LD_22_RN_9_RD_15_1.png","I_Dist_100_LN_12_LD_24_RN_9_RD_15_1.png","I_Dist_100_LN_12_LD_30_RN_2_RD_4_1.png","I_Dist_100_LN_13_LD_26_RN_12_RD_20_1.png","I_Dist_100_LN_13_LD_26_RN_6_RD_10_1.png","I_Dist_100_LN_17_LD_30_RN_10_RD_15_1.png","I_Dist_100_LN_6_LD_12_RN_3_RD_5_1.png","I_Dist_100_LN_8_LD_16_RN_6_RD_10_1.png","I_Dist_100_LN_8_LD_20_RN_1_RD_2_1.png","I_Dist_100_LN_9_LD_18_RN_6_RD_10_1.png"]],"dist100_S":[["E_Dist_100_LN_2_LD_12_RN_2_RD_30_0.png","E_Dist_100_LN_6_LD_10_RN_6_RD_12_0.png"],["E_Dist_100_LN_6_LD_12_RN_6_RD_10_1.png"]],"dist200_C":[["C_Dist_200_LN_11_LD_22_RN_3_RD_10_0.png","C_Dist_200_LN_12_LD_15_RN_6_RD_10_0.png","C_Dist_200_LN_12_LD_20_RN_6_RD_15_0.png","C_Dist_200_LN_14_LD_28_RN_6_RD_20_0.png","C_Dist_200_LN_15_LD_25_RN_4_RD_10_0.png","C_Dist_200_LN_16_LD_20_RN_12_RD_20_0.png","C_Dist_200_LN_16_LD_30_RN_9_RD_27_0.png","C_Dist_200_LN_20_LD_25_RN_9_RD_15_0.png","C_Dist_200_LN_21_LD_30_RN_2_RD_4_0.png","C_Dist_200_LN_4_LD_10_RN_3_RD_15_0.png","C_Dist_200_LN_4_LD_8_RN_3_RD_10_0.png","C_Dist_200_LN_6_LD_15_RN_3_RD_15_0.png","C_Dist_200_LN_7_LD_21_RN_2_RD_15_0.png","C_Dist_200_LN_8_LD_15_RN_2_RD_6_0.png","C_Dist_200_LN_8_LD_15_RN_3_RD_9_0.png","C_Dist_200_LN_8_LD_15_RN_7_RD_21_0.png","C_Dist_200_LN_9_LD_20_RN_4_RD_16_0.png"],["C_Dist_200_LN_1_LD_2_RN_21_RD_30_1.png","C_Dist_200_LN_13_LD_26_RN_14_RD_20_1.png","C_Dist_200_LN_3_LD_10_RN_11_RD_22_1.png","C_Dist_200_LN_3_LD_10_RN_14_RD_28_1.png","C_Dist_200_LN_3_LD_10_RN_7_RD_14_1.png","C_Dist_200_LN_3_LD_12_RN_9_RD_20_1.png","C_Dist_200_LN_3_LD_6_RN_14_RD_20_1.png","C_Dist_200_LN_5_LD_10_RN_14_RD_20_1.png","C_Dist_200_LN_6_LD_12_RN_7_RD_10_1.png","C_Dist_200_LN_6_LD_20_RN_11_RD_22_1.png","C_Dist_200_LN_7_LD_15_RN_18_RD_27_1.png","C_Dist_200_LN_9_LD_30_RN_13_RD_26_1.png"]],"dist200_I":[["I_Dist_200_LN_1_LD_2_RN_3_RD_10_0.png","I_Dist_200_LN_1_LD_3_RN_2_RD_15_0.png","I_Dist_200_LN_3_LD_4_RN_11_RD_20_0.png","I_Dist_200_LN_4_LD_5_RN_6_RD_10_0.png","I_Dist_200_LN_4_LD_6_RN_14_RD_30_0.png","I_Dist_200_LN_7_LD_10_RN_12_RD_24_0.png","I_Dist_200_LN_7_LD_10_RN_14_RD_28_0.png","I_Dist_200_LN_7_LD_10_RN_8_RD_16_0.png"],["I_Dist_200_LN_11_LD_20_RN_3_RD_4_1.png","I_Dist_200_LN_14_LD_30_RN_12_RD_18_1.png","I_Dist_200_LN_14_LD_30_RN_6_RD_9_1.png","I_Dist_200_LN_3_LD_10_RN_1_RD_2_1.png","I_Dist_200_LN_4_LD_30_RN_1_RD_3_1.png","I_Dist_200_LN_6_LD_20_RN_3_RD_6_1.png","I_Dist_200_LN_7_LD_15_RN_4_RD_6_1.png","I_Dist_200_LN_7_LD_15_RN_6_RD_9_1.png","I_Dist_200_LN_9_LD_15_RN_8_RD_10_1.png"]],"dist200_S":[["E_Dist_200_LN_3_LD_6_RN_3_RD_10_0.png"],["E_Dist_200_LN_3_LD_10_RN_3_RD_6_1.png"]],"dist300_C":[["C_Dist_300_LN_11_LD_22_RN_1_RD_5_0.png","C_Dist_300_LN_11_LD_22_RN_2_RD_10_0.png","C_Dist_300_LN_11_LD_22_RN_4_RD_20_0.png","C_Dist_300_LN_12_LD_24_RN_2_RD_10_0.png","C_Dist_300_LN_18_LD_20_RN_9_RD_15_0.png","C_Dist_300_LN_20_LD_25_RN_13_RD_26_0.png","C_Dist_300_LN_20_LD_25_RN_14_RD_28_0.png","C_Dist_300_LN_20_LD_25_RN_5_RD_10_0.png","C_Dist_300_LN_20_LD_25_RN_8_RD_16_0.png","C_Dist_300_LN_20_LD_25_RN_9_RD_18_0.png","C_Dist_300_LN_24_LD_30_RN_2_RD_4_0.png","C_Dist_300_LN_24_LD_30_RN_8_RD_16_0.png","C_Dist_300_LN_3_LD_6_RN_2_RD_10_0.png","C_Dist_300_LN_4_LD_10_RN_1_RD_10_0.png","C_Dist_300_LN_4_LD_5_RN_2_RD_4_0.png","C_Dist_300_LN_8_LD_16_RN_1_RD_5_0.png","C_Dist_300_LN_9_LD_10_RN_3_RD_5_0.png"],["C_Dist_300_LN_1_LD_20_RN_7_RD_20_1.png","C_Dist_300_LN_1_LD_3_RN_19_RD_30_1.png","C_Dist_300_LN_1_LD_30_RN_8_RD_24_1.png","C_Dist_300_LN_1_LD_5_RN_11_RD_22_1.png","C_Dist_300_LN_1_LD_5_RN_3_RD_6_1.png","C_Dist_300_LN_1_LD_5_RN_6_RD_12_1.png","C_Dist_300_LN_2_LD_10_RN_12_RD_24_1.png","C_Dist_300_LN_2_LD_20_RN_10_RD_25_1.png","C_Dist_300_LN_3_LD_12_RN_11_RD_20_1.png","C_Dist_300_LN_3_LD_6_RN_4_RD_5_1.png","C_Dist_300_LN_4_LD_20_RN_13_RD_26_1.png","C_Dist_300_LN_5_LD_25_RN_6_RD_12_1.png","C_Dist_300_LN_5_LD_25_RN_7_RD_14_1.png","C_Dist_300_LN_7_LD_14_RN_20_RD_25_1.png","C_Dist_300_LN_8_LD_15_RN_10_RD_12_1.png"]],"dist300_I":[["I_Dist_300_LN_1_LD_2_RN_2_RD_10_0.png","I_Dist_300_LN_1_LD_2_RN_3_RD_15_0.png","I_Dist_300_LN_2_LD_4_RN_6_RD_30_0.png","I_Dist_300_LN_3_LD_6_RN_4_RD_20_0.png","I_Dist_300_LN_4_LD_5_RN_6_RD_12_0.png","I_Dist_300_LN_4_LD_5_RN_8_RD_16_0.png","I_Dist_300_LN_7_LD_10_RN_8_RD_20_0.png","I_Dist_300_LN_8_LD_10_RN_14_RD_28_0.png","I_Dist_300_LN_8_LD_10_RN_9_RD_18_0.png"],["I_Dist_300_LN_13_LD_26_RN_12_RD_15_1.png","I_Dist_300_LN_4_LD_20_RN_2_RD_4_1.png"]],"dist300_S":[["E_Dist_300_LN_9_LD_12_RN_9_RD_20_0.png"],["E_Dist_300_LN_18_LD_30_RN_18_RD_20_1.png","E_Dist_300_LN_3_LD_10_RN_3_RD_5_1.png","E_Dist_300_LN_9_LD_20_RN_9_RD_12_1.png"]],"dist500_C":[["C_Dist_500_LN_10_LD_13_RN_7_RD_26_0.png","C_Dist_500_LN_10_LD_15_RN_4_RD_24_0.png","C_Dist_500_LN_12_LD_16_RN_3_RD_12_0.png","C_Dist_500_LN_12_LD_18_RN_4_RD_24_0.png","C_Dist_500_LN_15_LD_18_RN_5_RD_15_0.png","C_Dist_500_LN_15_LD_20_RN_1_RD_4_0.png","C_Dist_500_LN_18_LD_27_RN_1_RD_6_0.png","C_Dist_500_LN_20_LD_24_RN_1_RD_3_0.png","C_Dist_500_LN_20_LD_24_RN_3_RD_9_0.png","C_Dist_500_LN_20_LD_24_RN_7_RD_21_0.png","C_Dist_500_LN_20_LD_28_RN_3_RD_14_0.png","C_Dist_500_LN_21_LD_28_RN_6_RD_24_0.png","C_Dist_500_LN_22_LD_28_RN_2_RD_7_0.png","C_Dist_500_LN_25_LD_30_RN_9_RD_27_0.png","C_Dist_500_LN_4_LD_6_RN_1_RD_6_0.png","C_Dist_500_LN_5_LD_6_RN_2_RD_6_0.png","C_Dist_500_LN_6_LD_9_RN_1_RD_6_0.png","C_Dist_500_LN_7_LD_10_RN_1_RD_5_0.png","C_Dist_500_LN_8_LD_12_RN_1_RD_6_0.png","C_Dist_500_LN_8_LD_12_RN_4_RD_24_0.png"],["C_Dist_500_LN_1_LD_4_RN_12_RD_16_1.png","C_Dist_500_LN_1_LD_4_RN_9_RD_12_1.png","C_Dist_500_LN_1_LD_9_RN_11_RD_18_1.png","C_Dist_500_LN_10_LD_24_RN_22_RD_24_1.png","C_Dist_500_LN_2_LD_12_RN_10_RD_15_1.png","C_Dist_500_LN_2_LD_12_RN_12_RD_18_1.png","C_Dist_500_LN_2_LD_12_RN_4_RD_6_1.png","C_Dist_500_LN_2_LD_24_RN_7_RD_12_1.png","C_Dist_500_LN_2_LD_5_RN_18_RD_20_1.png","C_Dist_500_LN_2_LD_5_RN_9_RD_10_1.png","C_Dist_500_LN_2_LD_8_RN_12_RD_16_1.png","C_Dist_500_LN_2_LD_8_RN_21_RD_28_1.png","C_Dist_500_LN_3_LD_10_RN_4_RD_5_1.png","C_Dist_500_LN_3_LD_12_RN_15_RD_20_1.png","C_Dist_500_LN_3_LD_30_RN_6_RD_10_1.png","C_Dist_500_LN_3_LD_8_RN_14_RD_16_1.png","C_Dist_500_LN_4_LD_16_RN_15_RD_20_1.png","C_Dist_500_LN_4_LD_24_RN_12_RD_18_1.png","C_Dist_500_LN_5_LD_14_RN_6_RD_7_1.png","C_Dist_500_LN_7_LD_21_RN_20_RD_24_1.png","C_Dist_500_LN_7_LD_28_RN_12_RD_16_1.png","C_Dist_500_LN_7_LD_28_RN_9_RD_12_1.png","C_Dist_500_LN_9_LD_27_RN_20_RD_24_1.png"]],"dist500_I":[["I_Dist_500_LN_2_LD_3_RN_4_RD_24_0.png","I_Dist_500_LN_5_LD_6_RN_6_RD_18_0.png","I_Dist_500_LN_7_LD_8_RN_9_RD_24_0.png"],["I_Dist_500_LN_7_LD_21_RN_5_RD_6_1.png"]],"dist500_S":[["E_Dist_500_LN_6_LD_8_RN_6_RD_24_0.png"],["E_Dist_500_LN_2_LD_12_RN_2_RD_3_1.png","E_Dist_500_LN_6_LD_24_RN_6_RD_8_1.png"]]}},{"start_time":1552054127835,"click_time":1552054131178,"finger_time":1552054130717,"fix_duration":754.6806013304581,"trial":1,"RT":2882,"MT":461,"sideResp":2,"stimulus":[],"xmouse":[790,790,790,789,789,789,789,788,788,788,788,788,788,788,788,788,788,788,788,788,788,788,788,788,788,788,788,788,788,788,788,788,788,788,788,788,788,788,788,788,788,788,788,788,788,788,788,788,788,788,788,788,788,788,788,788,788,788,788,788,788,788,788,788,788,788,788,788,788,788,788,788,788,788,788,788,788,788,788,788,788,788,788,788,788,788,788,788,788,788,788,788,788,788,788,788,788,788,788,788,788,788,788,788,788,788,788,788,788,788,788,788,788,788,788,788,788,788,788,788,788,788,788,788,788,788,788,788,788,788,788,788,788,788,788,788,788,788,788,788,788,788,789,808,826,857,893,930,952,988,1009,1022,1032,1043,1048,1050,1052,1052,1056,1058,1063,1068,1075,1086,1091,1095,1099,1104],"ymouse":[504,504,504,505,505,505,505,505,505,505,505,505,505,505,505,508,508,508,508,508,508,508,508,508,508,508,508,508,508,508,508,508,508,508,508,508,508,508,508,508,508,508,508,508,508,508,508,508,508,508,508,508,508,508,508,508,508,508,508,508,508,508,508,508,508,508,508,508,508,508,508,508,508,508,508,508,508,508,508,508,508,508,508,508,508,508,508,508,508,508,508,508,508,508,508,508,508,508,508,508,508,508,508,508,508,508,508,508,508,508,508,508,508,508,508,508,508,508,508,508,508,508,508,508,508,508,508,508,508,508,508,508,508,508,508,508,508,508,508,508,508,508,508,486,465,443,417,389,371,332,309,295,283,259,250,244,236,230,207,192,177,167,154,132,121,112,102,91],"timestamp_mouse":[14,23,43,63,83,103,122,142,163,183,203,224,243,263,282,302,323,342,362,384,402,423,443,462,484,502,524,542,562,584,602,623,643,663,682,702,724,742,762,784,802,823,842,862,884,904,923,943,963,984,1002,1023,1042,1062,1082,1104,1124,1142,1162,1183,1203,1223,1244,1263,1284,1303,1324,1343,1363,1382,1404,1423,1443,1462,1483,1504,1522,1543,1563,1582,1603,1622,1644,1663,1682,1703,1722,1744,1763,1784,1802,1823,1843,1862,1883,1903,1924,1943,1962,1983,2004,2023,2043,2063,2083,2103,2122,2143,2163,2182,2204,2223,2242,2262,2283,2302,2322,2343,2362,2383,2402,2422,2443,2463,2483,2504,2523,2542,2563,2584,2603,2623,2642,2662,2682,2702,2723,2743,2764,2783,2802,2823,2842,2863,2882,2903,2922,2943,2962,2983,3002,3024,3043,3062,3082,3103,3122,3143,3163,3182,3202,3224,3243,3263,3282,3302,3322,3342],"xSR":741.5,"ySR":469.95,"xT1":424.9,"yT1":0,"xT2":1058.1,"yT2":0,"toosoon":0,"cond_shown":"Incongruent","ratio_trial":200,"L_num":1,"L_den":3,"R_num":2,"R_den":15,"correct_side":1,"subjID":"camiloandrescastellanoscastro28","gender":"0","school":"4","age":"9"},{"start_time":1552054136031,"click_time":1552054138579,"finger_time":1552054137117,"fix_duration":752.5749605993128,"trial":2,"RT":1086,"MT":1462,"sideResp":1,"stimulus":[],"xmouse":[793,793,793,793,793,793,793,793,793,793,793,793,793,793,793,793,793,793,793,793,793,793,793,793,793,793,793,793,793,793,793,793,793,793,793,793,793,793,793,793,793,793,793,793,793,793,793,793,793,793,793,795,808,830,844,856,863,866,867,867,867,867,867,867,865,862,857,852,838,833,822,819,816,812,811,811,810,810,810,809,807,806,804,801,799,797,796,796,795,795,795,795,795,795,795,795,795,795,795,795,795,795,795,795,794,790,783,773,746,740,719,703,686,657,647,639,630,624,610,602,595,592,587,567,551,529,516,501],"ymouse":[530,530,530,530,530,530,530,530,530,530,530,530,530,530,530,530,530,530,530,530,530,530,530,530,530,530,530,530,530,530,530,530,530,530,530,530,530,530,530,530,530,530,530,530,530,530,530,530,530,530,530,528,523,512,502,495,490,486,484,484,484,484,484,484,484,484,484,484,484,484,487,488,489,491,492,492,493,493,493,495,497,499,501,506,509,512,514,515,516,516,516,516,516,516,516,516,516,516,516,516,516,516,516,512,502,488,472,455,412,403,375,352,326,273,250,229,208,193,164,153,143,139,135,127,121,111,105,98],"timestamp_mouse":[7,26,46,67,86,108,126,147,167,186,206,228,248,267,286,308,328,346,366,388,408,427,447,466,486,506,527,546,566,586,606,627,648,666,686,708,726,747,767,787,808,828,847,867,888,907,927,947,968,987,1007,1027,1046,1067,1086,1106,1126,1146,1167,1187,1207,1226,1247,1267,1286,1307,1326,1347,1367,1387,1406,1427,1447,1467,1487,1506,1527,1546,1566,1586,1606,1627,1646,1667,1686,1707,1726,1747,1766,1787,1806,1827,1847,1867,1887,1907,1927,1947,1967,1986,2006,2028,2047,2067,2086,2107,2126,2147,2167,2187,2206,2227,2247,2267,2287,2307,2327,2346,2367,2388,2407,2427,2447,2466,2488,2507,2528,2548],"xSR":741.5,"ySR":469.95,"xT1":424.9,"yT1":0,"xT2":1058.1,"yT2":0,"toosoon":0,"cond_shown":"Incongruent","ratio_trial":300,"L_num":2,"L_den":4,"R_num":6,"R_den":30,"correct_side":1,"subjID":"camiloandrescastellanoscastro28","gender":"0","school":"4","age":"9"},{"start_time":1552054141290,"click_time":1552054143879,"finger_time":1552054143018,"fix_duration":250,"trial":3,"RT":1728,"MT":861,"sideResp":2,"stimulus":[],"xmouse":[795,795,795,795,795,795,795,795,795,795,795,795,795,795,795,795,795,795,795,795,795,795,794,793,793,793,793,793,793,793,791,787,786,786,786,786,786,786,786,786,786,786,786,786,786,786,786,786,786,786,786,786,786,786,786,786,786,786,786,786,786,786,786,786,786,786,786,786,786,786,786,786,786,786,786,786,786,786,786,786,786,786,786,780,775,758,740,734,719,716,714,712,709,706,705,705,705,715,731,753,802,826,844,854,860,867,870,884,900,914,938,957,971,977,979,980,980,981,983,985,996,1007,1027,1044,1057,1074,1077,1081,1082,1084],"ymouse":[514,514,514,514,514,514,514,514,514,514,514,514,514,514,514,514,514,514,514,514,514,514,514,514,514,514,514,514,514,514,514,514,514,514,514,514,514,514,514,514,514,514,514,514,514,514,514,514,514,514,514,514,514,514,514,514,514,514,514,514,514,514,514,514,514,514,514,514,514,514,514,514,514,514,514,514,514,514,514,514,514,514,514,514,513,511,505,504,499,496,493,489,484,481,479,477,476,474,469,463,444,431,418,407,394,368,354,327,307,287,252,224,211,206,203,199,199,196,191,186,169,159,149,140,132,118,114,106,102,94],"timestamp_mouse":[8,28,48,67,88,108,127,147,169,188,210,228,247,267,288,308,329,347,369,387,409,428,448,469,488,509,527,548,568,587,609,627,648,669,688,708,729,749,767,788,809,829,848,868,888,907,927,949,968,988,1008,1027,1047,1068,1087,1107,1127,1149,1169,1188,1208,1228,1249,1269,1288,1308,1329,1347,1367,1387,1408,1427,1448,1469,1488,1507,1529,1549,1568,1588,1607,1628,1649,1667,1688,1707,1728,1747,1769,1787,1808,1827,1848,1868,1887,1907,1929,1947,1968,1989,2008,2027,2048,2068,2088,2108,2128,2147,2167,2187,2207,2227,2249,2267,2289,2308,2328,2348,2368,2387,2407,2427,2448,2467,2488,2507,2529,2549,2569,2589],"xSR":741.5,"ySR":469.95,"xT1":424.9,"yT1":0,"xT2":1058.1,"yT2":0,"toosoon":0,"cond_shown":"Congruent","ratio_trial":100,"L_num":4,"L_den":8,"R_num":6,"R_den":10,"correct_side":2,"subjID":"camiloandrescastellanoscastro28","gender":"0","school":"4","age":"9"},{"start_time":1552054146906,"click_time":1552054148459,"finger_time":1552054148059,"fix_duration":1266.6022977851696,"trial":4,"RT":1153,"MT":400,"sideResp":1,"stimulus":[],"xmouse":[782,782,782,782,782,782,782,782,782,782,782,782,782,782,782,782,782,782,782,782,782,782,782,782,782,782,782,782,782,782,782,782,782,782,782,782,782,782,782,782,782,782,782,782,782,782,782,782,782,782,782,782,782,782,781,775,755,736,706,641,614,596,578,563,555,555,555,555,555,555,555,555,555,555,555,555,555,519],"ymouse":[502,502,502,502,502,502,502,502,502,502,502,502,502,502,502,502,502,502,502,502,502,502,502,502,502,502,502,502,502,502,502,502,502,502,502,502,502,502,502,502,502,502,502,502,502,502,502,502,502,502,502,502,502,502,501,497,477,456,419,321,264,204,136,75,15,15,15,15,15,15,15,15,15,15,15,15,15,6],"timestamp_mouse":[13,41,52,71,92,112,132,153,173,192,212,232,252,273,292,313,332,352,371,392,413,432,451,473,492,512,533,552,572,591,611,632,652,672,691,712,732,751,773,792,811,831,852,872,892,911,932,951,972,992,1012,1031,1052,1073,1091,1112,1131,1153,1172,1192,1212,1233,1252,1273,1291,1313,1332,1353,1373,1393,1413,1432,1452,1472,1492,1512,1533,1553],"xSR":741.5,"ySR":469.95,"xT1":424.9,"yT1":0,"xT2":1058.1,"yT2":0,"toosoon":0,"cond_shown":"Incongruent","ratio_trial":200,"L_num":4,"L_den":5,"R_num":6,"R_den":10,"correct_side":1,"subjID":"camiloandrescastellanoscastro28","gender":"0","school":"4","age":"9"},{"start_time":1552054151337,"click_time":1552054152479,"finger_time":1552054152218,"fix_duration":738.0097318857446,"trial":5,"RT":881,"MT":261,"sideResp":2,"stimulus":[],"xmouse":[792,792,792,792,792,792,792,792,792,792,792,792,792,792,792,792,792,792,792,792,792,792,792,792,792,792,792,792,792,792,792,792,792,792,792,792,792,792,792,792,794,796,802,834,854,871,892,907,933,946,958,969,985,1025,1060,1075,1088,1094],"ymouse":[525,525,525,525,525,525,525,525,525,525,525,525,525,525,525,525,525,525,525,525,525,525,525,525,525,525,525,525,525,525,525,525,525,525,525,525,525,525,525,525,525,525,523,506,493,480,459,441,400,380,359,338,311,240,177,139,101,76],"timestamp_mouse":[10,21,42,60,82,102,120,142,161,181,201,222,241,260,280,302,322,341,362,382,401,420,442,461,482,502,521,540,562,581,601,620,641,662,682,702,720,741,762,782,801,820,840,860,881,900,920,940,961,980,1001,1021,1040,1060,1080,1102,1122,1142],"xSR":741.5,"ySR":469.95,"xT1":424.9,"yT1":0,"xT2":1058.1,"yT2":0,"toosoon":0,"cond_shown":"Incongruent","ratio_trial":300,"L_num":13,"L_den":26,"R_num":12,"R_den":15,"correct_side":2,"subjID":"camiloandrescastellanoscastro28","gender":"0","school":"4","age":"9"},{"start_time":1552054155264,"click_time":1552054157559,"finger_time":1552054157198,"fix_duration":1203.593267627289,"trial":6,"RT":1934,"MT":361,"sideResp":2,"stimulus":[],"xmouse":[781,781,781,781,781,781,781,781,781,781,781,781,781,781,781,781,781,781,781,781,781,781,781,781,781,781,781,781,781,781,781,781,781,781,781,781,780,778,777,777,775,771,766,762,760,759,759,759,759,759,759,759,759,759,760,761,764,764,764,764,764,764,764,764,764,764,764,764,764,764,764,764,764,764,764,764,764,764,764,764,764,764,764,764,764,766,771,778,784,794,796,799,801,802,803,805,814,823,833,841,852,873,882,893,904,916,947,963,989,1006,1023,1057,1072,1087,1098],"ymouse":[501,501,501,501,501,501,501,501,501,501,501,501,501,501,501,501,501,501,501,501,501,501,501,501,501,501,501,501,501,501,501,501,501,501,501,501,502,502,502,502,499,492,487,481,478,477,477,477,477,477,477,477,477,477,477,477,477,477,477,477,477,477,477,477,477,477,477,477,477,477,477,477,477,477,477,477,477,477,477,477,477,477,477,477,477,477,477,478,479,479,478,476,475,475,474,473,467,457,447,438,423,391,374,355,338,321,284,265,235,214,194,150,127,106,87],"timestamp_mouse":[14,37,54,73,95,113,133,154,174,194,214,233,253,273,294,315,333,355,374,393,414,434,455,473,493,515,533,555,574,594,614,634,654,674,694,714,734,753,775,793,813,834,853,873,894,914,935,955,973,994,1014,1034,1055,1074,1094,1114,1133,1153,1174,1194,1214,1233,1253,1275,1293,1314,1334,1354,1375,1393,1413,1434,1455,1475,1494,1515,1534,1554,1575,1594,1613,1633,1654,1675,1693,1715,1733,1753,1774,1794,1814,1833,1854,1874,1893,1915,1934,1953,1973,1995,2014,2034,2055,2075,2094,2114,2134,2154,2173,2193,2213,2233,2253,2274,2295],"xSR":741.5,"ySR":469.95,"xT1":424.9,"yT1":0,"xT2":1058.1,"yT2":0,"toosoon":0,"cond_shown":"Incongruent","ratio_trial":200,"L_num":1,"L_den":2,"R_num":3,"R_den":10,"correct_side":1,"subjID":"camiloandrescastellanoscastro28","gender":"0","school":"4","age":"9"},{"start_time":1552054160126,"click_time":1552054161598,"finger_time":1552054161197,"fix_duration":1107.3374834719693,"trial":7,"RT":1071,"MT":401,"sideResp":2,"stimulus":[],"xmouse":[773,773,773,773,773,773,773,773,773,773,773,773,773,773,773,773,773,773,773,773,773,773,773,773,773,773,773,773,773,773,773,773,773,773,773,773,773,773,773,773,773,773,773,773,774,780,787,796,813,820,826,832,840,867,903,935,977,1019,1090,1117,1129,1143,1154,1172,1177,1184,1187,1187,1184,1177,1170,1168,1164,1153],"ymouse":[542,542,542,542,542,542,542,542,542,542,542,542,542,542,542,542,542,542,542,542,542,542,542,542,542,542,542,542,542,542,542,542,542,542,542,542,542,542,542,542,542,542,542,542,543,543,543,541,534,530,528,525,521,509,493,473,442,405,336,302,282,257,235,192,175,155,145,134,114,104,95,91,86,82],"timestamp_mouse":[13,35,51,72,93,111,131,151,172,191,213,232,253,273,291,311,333,352,372,392,412,432,453,471,491,511,532,552,571,592,611,631,651,673,691,711,732,753,772,793,811,832,851,871,892,911,932,951,972,991,1012,1032,1051,1071,1093,1111,1132,1151,1171,1193,1212,1232,1252,1272,1292,1311,1332,1352,1371,1391,1412,1432,1453,1472],"xSR":741.5,"ySR":469.95,"xT1":424.9,"yT1":0,"xT2":1058.1,"yT2":0,"toosoon":0,"cond_shown":"Incongruent","ratio_trial":300,"L_num":13,"L_den":26,"R_num":12,"R_den":15,"correct_side":2,"subjID":"camiloandrescastellanoscastro28","gender":"0","school":"4","age":"9"},{"start_time":1552054164760,"click_time":1552054167038,"finger_time":1552054165699,"fix_duration":1259.3718148875585,"trial":8,"RT":939,"MT":1339,"sideResp":2,"stimulus":[],"xmouse":[772,772,772,772,772,772,772,772,772,772,772,772,772,772,772,772,772,772,772,772,772,772,772,772,772,772,772,772,772,772,772,772,772,772,772,772,772,772,776,779,783,785,788,789,789,788,786,780,778,776,775,772,768,767,764,761,755,737,726,717,707,701,686,677,659,648,637,619,615,612,611,609,605,601,598,594,592,590,590,590,590,590,590,593,609,630,653,680,684,689,696,707,739,763,805,835,863,913,939,966,990,1013,1047,1064,1073,1076,1077,1077,1077,1077,1077,1077,1080,1087,1098],"ymouse":[498,498,498,498,498,498,498,498,498,498,498,498,498,498,498,498,498,498,498,498,498,498,498,498,498,498,498,498,498,498,498,498,498,498,498,498,498,498,498,497,494,490,482,477,473,472,470,464,464,463,462,462,460,460,458,456,452,437,429,421,412,404,382,370,348,333,316,279,264,254,244,237,227,221,217,213,211,209,209,209,209,209,211,214,222,227,231,232,232,232,232,232,231,231,230,228,223,216,213,209,205,202,193,182,173,165,160,150,144,139,135,129,116,102,87],"timestamp_mouse":[1,19,38,58,78,97,117,138,159,177,199,218,237,258,277,299,317,338,358,377,397,417,438,458,477,498,519,538,558,579,599,618,637,659,679,699,718,737,757,779,798,818,837,858,878,898,918,939,957,977,997,1019,1038,1058,1078,1099,1117,1137,1157,1178,1197,1217,1237,1258,1279,1297,1318,1337,1358,1378,1397,1417,1437,1458,1479,1499,1517,1537,1558,1578,1599,1618,1637,1659,1678,1698,1719,1737,1757,1778,1797,1818,1837,1858,1878,1897,1918,1937,1957,1978,1999,2019,2037,2057,2077,2098,2117,2137,2158,2178,2199,2218,2237,2257,2278],"xSR":741.5,"ySR":469.95,"xT1":424.9,"yT1":0,"xT2":1058.1,"yT2":0,"toosoon":0,"cond_shown":"Congruent","ratio_trial":100,"L_num":2,"L_den":5,"R_num":6,"R_den":12,"correct_side":2,"subjID":"camiloandrescastellanoscastro28","gender":"0","school":"4","age":"9"},{"start_time":1552054170003,"click_time":1552054171798,"finger_time":1552054171297,"fix_duration":1244.5769448389726,"trial":9,"RT":1294,"MT":501,"sideResp":1,"stimulus":[],"xmouse":[784,784,784,784,784,784,784,784,784,784,784,784,784,784,784,784,784,784,784,784,794,811,817,820,821,821,821,821,821,821,821,821,821,821,821,821,821,821,821,821,821,821,821,821,821,821,821,821,821,821,821,821,821,821,821,821,817,816,814,811,810,807,805,800,788,782,776,768,759,737,728,718,703,693,678,673,668,665,662,659,657,651,642,626,589,568,550,540,531,522],"ymouse":[513,513,513,513,513,513,513,513,513,513,513,513,513,513,513,513,513,513,513,513,513,508,506,504,504,504,504,504,504,504,504,504,504,504,504,504,504,504,504,504,504,504,504,504,504,504,504,504,504,504,504,504,504,504,504,504,502,501,500,497,494,490,484,475,458,448,441,431,422,396,378,353,295,264,199,177,160,150,144,137,134,129,126,122,110,101,94,89,84,78],"timestamp_mouse":[16,34,55,75,95,114,135,155,175,194,214,236,256,275,294,315,336,355,374,395,415,435,455,474,495,516,536,555,575,594,615,635,654,675,694,715,735,756,775,795,814,835,854,875,895,914,936,954,974,995,1016,1036,1055,1075,1094,1115,1135,1156,1174,1194,1215,1235,1254,1274,1294,1314,1335,1355,1375,1395,1415,1434,1455,1475,1495,1515,1535,1555,1576,1595,1614,1634,1654,1676,1694,1716,1735,1754,1775,1795],"xSR":741.5,"ySR":469.95,"xT1":424.9,"yT1":0,"xT2":1058.1,"yT2":0,"toosoon":0,"cond_shown":"Congruent","ratio_trial":100,"L_num":7,"L_den":14,"R_num":9,"R_den":15,"correct_side":2,"subjID":"camiloandrescastellanoscastro28","gender":"0","school":"4","age":"9"},{"start_time":1552054173563,"click_time":1552054174680,"finger_time":1552054174277,"fix_duration":404.2468563297893,"trial":10,"RT":714,"MT":403,"sideResp":2,"stimulus":[],"xmouse":[777,777,777,777,777,777,777,777,777,777,777,777,777,777,777,777,777,777,777,777,777,777,777,777,777,777,777,777,777,777,778,784,786,796,806,818,842,854,864,872,883,904,922,945,961,975,999,1009,1015,1019,1022,1028,1033,1042,1049,1060],"ymouse":[511,511,511,511,511,511,511,511,511,511,511,511,511,511,511,511,511,511,511,511,511,511,511,511,511,511,511,511,511,510,509,500,497,486,476,466,446,434,420,407,393,370,356,333,313,293,259,243,227,212,197,165,146,118,100,83],"timestamp_mouse":[14,37,55,74,95,116,135,154,176,195,216,234,255,274,294,315,334,354,376,394,416,435,455,475,496,515,535,555,575,594,615,635,655,675,695,714,735,754,775,795,815,835,855,874,895,914,934,954,976,995,1016,1035,1055,1075,1095,1116],"xSR":741.5,"ySR":469.95,"xT1":424.9,"yT1":0,"xT2":1058.1,"yT2":0,"toosoon":0,"cond_shown":"Congruent","ratio_trial":200,"L_num":6,"L_den":20,"R_num":11,"R_den":22,"correct_side":2,"subjID":"camiloandrescastellanoscastro28","gender":"0","school":"4","age":"9"},{"start_time":1552054176792,"click_time":1552054177940,"finger_time":1552054177257,"fix_duration":531.2084180108509,"trial":11,"RT":465,"MT":683,"sideResp":2,"stimulus":[],"xmouse":[768,768,768,768,768,768,768,768,768,768,768,768,768,768,768,775,797,810,817,819,824,827,840,854,869,889,893,896,898,898,901,901,902,902,902,902,902,900,894,890,888,888,888,889,898,954,977,997,1017,1037,1082,1084,1087,1087,1084,1087,1092,1099],"ymouse":[533,533,533,533,533,533,533,533,533,533,533,533,533,533,533,533,526,521,519,517,513,511,500,487,472,444,434,424,418,413,407,404,402,401,400,399,399,399,399,399,399,399,399,398,397,374,361,345,330,312,251,239,207,186,165,134,117,99],"timestamp_mouse":[12,30,46,66,86,106,125,147,167,185,206,226,247,267,286,306,326,345,367,386,406,425,446,465,485,506,525,546,566,587,607,628,646,667,688,707,726,747,767,787,808,826,846,867,886,906,927,946,966,987,1008,1027,1046,1066,1088,1106,1127,1148],"xSR":741.5,"ySR":469.95,"xT1":424.9,"yT1":0,"xT2":1058.1,"yT2":0,"toosoon":0,"cond_shown":"Congruent","ratio_trial":300,"L_num":1,"L_den":5,"R_num":3,"R_den":6,"correct_side":2,"subjID":"camiloandrescastellanoscastro28","gender":"0","school":"4","age":"9"},{"start_time":1552054180888,"click_time":1552054182599,"finger_time":1552054182299,"fix_duration":1467.460136036485,"trial":12,"RT":1411,"MT":300,"sideResp":2,"stimulus":[],"xmouse":[784,784,784,784,784,784,784,784,784,784,784,784,784,784,784,784,784,784,784,784,784,784,784,784,784,784,784,784,784,784,784,784,784,784,784,784,784,784,784,784,784,784,784,784,784,784,784,784,784,784,784,784,784,784,784,784,784,784,784,784,784,784,784,785,790,803,812,827,833,841,861,871,881,892,906,953,973,989,1008,1021,1050,1066,1079,1094,1111,1141],"ymouse":[533,533,533,533,533,533,533,533,533,533,533,533,533,533,533,533,533,533,533,533,533,533,533,533,533,533,533,533,533,533,533,533,533,533,533,533,533,533,533,533,533,533,533,533,533,533,533,533,533,533,533,533,533,533,533,533,533,533,533,533,533,533,533,533,532,526,520,510,505,498,481,470,459,446,430,375,349,325,292,271,230,210,187,165,141,96],"timestamp_mouse":[13,43,52,72,90,110,131,152,170,191,211,231,251,272,291,310,332,352,371,391,411,430,451,472,492,510,532,552,571,591,611,631,650,672,691,711,730,752,772,791,810,832,852,871,891,911,932,951,971,991,1011,1032,1051,1072,1091,1111,1132,1151,1171,1191,1212,1232,1251,1271,1290,1310,1331,1351,1372,1391,1411,1431,1450,1470,1491,1511,1530,1550,1570,1591,1610,1630,1652,1671,1692,1711],"xSR":741.5,"ySR":469.95,"xT1":424.9,"yT1":0,"xT2":1058.1,"yT2":0,"toosoon":0,"cond_shown":"Congruent","ratio_trial":200,"L_num":3,"L_den":10,"R_num":7,"R_den":14,"correct_side":2,"subjID":"camiloandrescastellanoscastro28","gender":"0","school":"4","age":"9"},{"start_time":1552054184782,"click_time":1552054186219,"finger_time":1552054185700,"fix_duration":442.28284128277386,"trial":13,"RT":918,"MT":519,"sideResp":1,"stimulus":[],"xmouse":[789,789,789,789,789,789,789,789,789,789,789,789,789,789,789,789,789,789,789,789,789,789,789,789,789,789,789,789,789,789,789,789,789,789,789,789,789,789,789,789,789,789,787,782,770,732,713,698,685,675,664,658,650,644,636,622,614,605,598,591,580,571,548,532,520,509,508,508,507,507,505,501],"ymouse":[509,509,509,509,509,509,509,509,509,509,509,509,509,509,509,509,509,509,509,509,509,509,509,509,509,509,509,509,509,509,509,509,509,509,509,509,509,509,509,509,509,509,508,503,491,455,433,417,400,385,358,345,324,308,291,261,247,237,227,219,206,199,184,171,161,146,141,136,129,123,106,81],"timestamp_mouse":[20,37,56,78,96,117,138,157,178,196,216,237,258,276,296,317,338,358,377,398,417,437,456,477,498,517,537,558,576,597,616,638,658,677,698,716,736,757,777,797,818,837,856,878,897,918,937,956,976,997,1018,1037,1056,1076,1096,1116,1136,1158,1178,1197,1216,1237,1256,1276,1296,1316,1336,1357,1378,1397,1416,1436],"xSR":741.5,"ySR":469.95,"xT1":424.9,"yT1":0,"xT2":1058.1,"yT2":0,"toosoon":0,"cond_shown":"Congruent","ratio_trial":200,"L_num":16,"L_den":30,"R_num":9,"R_den":27,"correct_side":1,"subjID":"camiloandrescastellanoscastro28","gender":"0","school":"4","age":"9"},{"start_time":1552054189282,"click_time":1552054190638,"finger_time":1552054190199,"fix_duration":1241.9599390115395,"trial":14,"RT":917,"MT":439,"sideResp":1,"stimulus":[],"xmouse":[795,795,795,795,795,795,795,795,795,795,795,795,795,795,795,795,795,795,795,795,795,795,795,795,795,795,795,795,795,795,795,795,795,795,793,789,788,788,788,788,787,783,777,766,751,719,701,688,676,664,643,634,627,620,611,589,581,573,566,555,537,533,528,525,522,517,514,503],"ymouse":[513,513,513,513,513,513,513,513,513,513,513,513,513,513,513,513,513,513,513,513,513,513,513,513,513,513,513,513,513,513,513,513,513,513,513,513,513,512,512,512,512,510,507,501,492,470,454,439,421,400,360,340,323,305,288,242,224,206,189,173,147,139,130,125,119,112,106,94],"timestamp_mouse":[25,41,56,77,96,117,137,157,178,196,216,237,257,276,296,316,337,358,377,398,416,436,456,476,497,516,536,556,577,596,617,637,657,677,696,717,738,757,776,797,816,836,858,876,896,917,938,956,977,997,1017,1037,1056,1076,1097,1116,1137,1156,1177,1197,1216,1236,1258,1277,1297,1316,1337,1356],"xSR":741.5,"ySR":469.95,"xT1":424.9,"yT1":0,"xT2":1058.1,"yT2":0,"toosoon":0,"cond_shown":"Congruent","ratio_trial":200,"L_num":12,"L_den":20,"R_num":6,"R_den":15,"correct_side":1,"subjID":"camiloandrescastellanoscastro28","gender":"0","school":"4","age":"9"},{"start_time":1552054192270,"click_time":1552054195059,"finger_time":1552054193959,"fix_duration":250,"trial":15,"RT":1689,"MT":1100,"sideResp":2,"stimulus":[],"xmouse":[801,800,800,799,799,799,799,799,799,799,799,799,799,799,799,799,799,799,799,799,799,799,799,799,799,799,799,799,799,799,799,799,799,799,799,799,799,799,799,799,799,799,799,799,799,799,799,799,799,799,799,799,799,799,799,799,799,799,799,799,799,799,799,799,799,799,799,799,799,799,799,799,799,799,799,799,799,799,799,799,799,799,811,834,860,879,904,909,913,913,913,908,906,904,904,904,904,904,894,873,837,736,697,672,667,667,667,667,667,667,667,667,702,714,730,748,784,803,830,847,859,872,878,889,902,914,944,957,972,983,993,1016,1031,1045,1055,1058,1058,1058,1058,1059],"ymouse":[512,512,512,512,512,512,512,512,512,512,512,512,512,512,512,512,512,512,512,512,512,512,512,512,512,512,512,512,512,512,512,512,512,512,512,512,512,512,512,512,512,512,512,512,512,512,512,512,512,512,512,512,512,512,512,512,512,512,512,512,512,512,512,512,512,512,512,512,512,512,512,512,512,512,512,512,512,512,512,512,512,512,506,494,474,454,423,408,387,376,368,358,355,354,353,351,338,324,291,254,206,85,40,8,1,1,1,1,1,1,1,1,5,13,22,30,45,50,58,60,62,62,62,62,62,62,58,57,53,52,52,52,52,52,52,52,52,52,51,51],"timestamp_mouse":[10,34,49,68,88,110,129,150,169,188,209,228,249,268,289,308,328,349,369,388,410,429,449,468,490,509,528,550,569,589,609,628,649,668,689,710,729,748,768,788,810,830,850,869,890,910,929,950,970,989,1009,1030,1049,1069,1090,1108,1129,1150,1168,1189,1209,1228,1249,1269,1289,1309,1328,1349,1370,1389,1409,1429,1450,1470,1489,1508,1528,1548,1568,1590,1608,1628,1649,1670,1689,1709,1728,1750,1768,1789,1809,1828,1848,1869,1889,1909,1928,1949,1968,1988,2009,2028,2048,2070,2089,2109,2128,2149,2170,2188,2208,2228,2249,2268,2288,2309,2328,2350,2370,2388,2408,2428,2449,2468,2488,2509,2528,2549,2570,2589,2608,2629,2649,2670,2689,2710,2729,2749,2769,2789],"xSR":741.5,"ySR":469.95,"xT1":424.9,"yT1":0,"xT2":1058.1,"yT2":0,"toosoon":0,"cond_shown":"Congruent","ratio_trial":200,"L_num":8,"L_den":15,"R_num":2,"R_den":6,"correct_side":1,"subjID":"camiloandrescastellanoscastro28","gender":"0","school":"4","age":"9"},{"start_time":1552054198761,"click_time":1552054199798,"finger_time":1552054199439,"fix_duration":1321.007459893467,"trial":16,"RT":678,"MT":359,"sideResp":1,"stimulus":[],"xmouse":[775,775,775,775,775,775,775,775,775,775,775,775,775,775,775,775,775,775,775,775,775,775,775,775,775,775,775,775,775,775,774,762,754,743,737,730,719,715,707,694,682,645,628,606,598,594,593,591,582,565,545,516],"ymouse":[515,515,515,515,515,515,515,515,515,515,515,515,515,515,515,515,515,515,515,515,515,515,515,515,515,515,515,515,515,511,510,490,479,460,445,428,382,352,315,273,237,160,129,101,92,88,87,86,79,68,56,38],"timestamp_mouse":[17,39,58,78,97,118,139,158,178,199,218,237,258,279,297,317,338,359,378,398,418,438,459,479,498,517,537,558,578,597,618,638,658,678,699,718,737,758,778,798,818,838,858,877,898,918,938,957,978,997,1018,1037],"xSR":741.5,"ySR":469.95,"xT1":424.9,"yT1":0,"xT2":1058.1,"yT2":0,"toosoon":0,"cond_shown":"Congruent","ratio_trial":200,"L_num":15,"L_den":25,"R_num":4,"R_den":10,"correct_side":1,"subjID":"camiloandrescastellanoscastro28","gender":"0","school":"4","age":"9"},{"start_time":1552054202632,"click_time":1552054204040,"finger_time":1552054203519,"fix_duration":1191.7536015926012,"trial":17,"RT":887,"MT":521,"sideResp":1,"stimulus":[],"xmouse":[773,773,773,773,773,773,773,773,773,773,773,773,773,773,773,773,773,773,773,773,773,773,773,773,773,773,773,773,773,773,773,773,773,773,773,773,773,773,773,773,773,773,772,764,754,743,725,705,642,599,571,549,529,494,478,462,453,450,449,449,449,449,449,451,452,456,463,476,504,515,519],"ymouse":[480,480,480,480,480,480,480,480,480,480,480,480,480,480,480,480,480,480,480,480,480,480,480,480,480,480,480,480,480,480,480,480,480,480,480,480,480,480,480,480,480,480,480,476,468,456,438,414,343,291,259,234,210,173,155,137,125,120,117,117,117,117,116,115,115,114,113,111,104,100,98],"timestamp_mouse":[12,36,47,68,87,107,126,147,166,187,207,226,247,266,286,307,326,347,367,387,406,428,448,466,487,506,526,547,566,587,608,626,647,666,688,707,726,746,768,787,806,826,847,866,887,907,927,947,967,986,1006,1027,1046,1066,1088,1107,1127,1149,1167,1187,1207,1226,1247,1266,1287,1308,1327,1348,1366,1388,1407],"xSR":741.5,"ySR":469.95,"xT1":424.9,"yT1":0,"xT2":1058.1,"yT2":0,"toosoon":0,"cond_shown":"Congruent","ratio_trial":300,"L_num":18,"L_den":20,"R_num":9,"R_den":15,"correct_side":1,"subjID":"camiloandrescastellanoscastro28","gender":"0","school":"4","age":"9"},{"start_time":1552054206071,"click_time":1552054207499,"finger_time":1552054207019,"fix_duration":630.4409365819431,"trial":18,"RT":948,"MT":480,"sideResp":2,"stimulus":[],"xmouse":[785,785,785,785,785,785,785,785,785,785,785,785,785,785,785,785,785,785,785,785,785,785,785,785,785,785,785,785,785,785,785,785,785,785,785,785,785,785,785,785,785,785,793,798,810,821,840,847,859,869,880,896,901,905,907,909,911,911,914,919,927,956,973,993,1012,1029,1057,1073,1092,1102,1110,1116],"ymouse":[515,515,515,515,515,515,515,515,515,515,515,515,515,515,515,515,515,515,515,515,515,515,515,515,515,515,515,515,515,515,515,515,515,515,515,515,515,515,515,515,515,515,514,512,506,497,479,471,459,449,442,427,422,416,414,412,410,410,407,402,394,367,347,321,299,273,223,197,162,139,120,92],"timestamp_mouse":[20,45,47,68,89,108,127,148,167,189,208,227,249,269,287,308,328,349,368,389,408,428,448,467,489,508,528,548,568,588,609,628,649,669,687,708,727,747,769,788,809,829,847,868,888,907,928,948,967,988,1007,1028,1047,1067,1087,1108,1127,1148,1167,1187,1207,1227,1248,1269,1288,1309,1328,1349,1367,1388,1409,1428],"xSR":741.5,"ySR":469.95,"xT1":424.9,"yT1":0,"xT2":1058.1,"yT2":0,"toosoon":0,"cond_shown":"Incongruent","ratio_trial":300,"L_num":4,"L_den":20,"R_num":2,"R_den":4,"correct_side":2,"subjID":"camiloandrescastellanoscastro28","gender":"0","school":"4","age":"9"},{"start_time":1552054210151,"click_time":1552054211179,"finger_time":1552054210799,"fix_duration":971.0356629953181,"trial":19,"RT":648,"MT":380,"sideResp":1,"stimulus":[],"xmouse":[798,798,798,798,798,798,798,798,798,798,798,798,798,798,798,798,798,798,798,798,798,798,798,798,798,798,795,789,780,769,758,748,734,730,728,726,720,708,705,702,699,695,680,670,649,632,614,578,556,538,520,506],"ymouse":[531,531,531,531,531,531,531,531,531,531,531,531,531,531,531,531,531,531,531,531,531,531,531,531,531,531,529,523,514,503,490,478,457,441,429,417,403,380,372,367,359,351,326,311,281,263,241,195,168,140,117,96],"timestamp_mouse":[14,27,48,69,89,108,128,147,169,189,207,227,247,269,288,307,328,349,369,389,408,428,447,468,489,508,528,547,567,589,608,627,648,669,687,709,728,747,768,787,807,827,848,869,887,907,927,947,968,988,1007,1028],"xSR":741.5,"ySR":469.95,"xT1":424.9,"yT1":0,"xT2":1058.1,"yT2":0,"toosoon":0,"cond_shown":"Congruent","ratio_trial":200,"L_num":7,"L_den":21,"R_num":2,"R_den":15,"correct_side":1,"subjID":"camiloandrescastellanoscastro28","gender":"0","school":"4","age":"9"},{"start_time":1552054213341,"click_time":1552054214180,"finger_time":1552054213939,"fix_duration":1100.3141300048333,"trial":20,"RT":598,"MT":241,"sideResp":2,"stimulus":[],"xmouse":[775,775,775,775,775,775,775,775,775,775,775,775,775,775,775,775,775,775,775,775,775,775,775,775,775,775,779,803,827,856,882,906,939,961,979,999,1019,1050,1066,1080,1096,1111],"ymouse":[512,512,512,512,512,512,512,512,512,512,512,512,512,512,512,512,512,512,512,512,512,512,512,512,512,512,512,498,480,460,438,418,378,342,312,282,253,200,173,148,119,90],"timestamp_mouse":[18,39,58,77,97,118,137,158,177,199,219,238,257,279,297,319,339,358,379,398,417,438,457,478,497,518,538,557,577,598,618,639,657,679,697,718,737,757,778,799,818,839],"xSR":741.5,"ySR":469.95,"xT1":424.9,"yT1":0,"xT2":1058.1,"yT2":0,"toosoon":0,"cond_shown":"Congruent","ratio_trial":200,"L_num":5,"L_den":10,"R_num":14,"R_den":20,"correct_side":2,"subjID":"camiloandrescastellanoscastro28","gender":"0","school":"4","age":"9"},{"start_time":1552054216912,"click_time":1552054218318,"finger_time":1552054217699,"fix_duration":1451.5451716580278,"trial":21,"RT":787,"MT":619,"sideResp":1,"stimulus":[],"xmouse":[793,793,793,793,793,793,793,793,793,793,793,793,793,793,793,793,793,793,793,793,793,793,793,793,793,793,793,793,793,793,793,793,793,793,794,792,784,775,761,741,733,726,720,714,710,709,708,708,707,698,688,678,665,649,615,599,587,575,561,535,526,522,519,518,512,510,504,500,494,482,474],"ymouse":[525,525,525,525,525,525,525,525,525,525,525,525,525,525,525,525,525,525,525,525,525,525,525,525,525,525,525,525,525,525,525,525,525,525,525,522,516,510,500,485,479,474,470,466,462,461,461,460,458,444,426,409,392,369,322,300,279,256,234,199,186,178,173,169,157,154,143,137,127,105,92],"timestamp_mouse":[13,36,48,66,88,107,127,146,166,188,207,226,246,266,287,307,327,346,368,386,406,427,447,468,486,507,527,548,566,586,606,628,648,667,687,707,726,746,767,787,806,826,846,868,886,907,927,946,966,987,1006,1027,1047,1067,1087,1106,1126,1146,1167,1186,1206,1228,1246,1268,1287,1308,1326,1347,1366,1387,1406],"xSR":741.5,"ySR":469.95,"xT1":424.9,"yT1":0,"xT2":1058.1,"yT2":0,"toosoon":0,"cond_shown":"Incongruent","ratio_trial":300,"L_num":3,"L_den":6,"R_num":4,"R_den":20,"correct_side":1,"subjID":"camiloandrescastellanoscastro28","gender":"0","school":"4","age":"9"},{"start_time":1552054220507,"click_time":1552054222078,"finger_time":1552054221539,"fix_duration":907.4924894903671,"trial":22,"RT":1032,"MT":539,"sideResp":2,"stimulus":[],"xmouse":[781,781,781,781,781,781,781,781,781,781,781,781,781,781,781,781,781,781,781,781,781,781,781,781,781,781,781,781,781,781,781,781,781,781,781,781,781,781,781,781,781,781,781,781,781,781,781,784,788,815,831,850,870,889,926,954,969,978,986,999,1004,1009,1015,1021,1030,1035,1039,1045,1047,1053,1054,1055,1056,1059,1063,1068,1070,1073,1077],"ymouse":[536,536,536,536,536,536,536,536,536,536,536,536,536,536,536,536,536,536,536,536,536,536,536,536,536,536,536,536,536,536,536,536,536,536,536,536,536,536,536,536,536,536,536,536,536,536,536,536,535,523,517,509,500,489,465,442,426,412,395,357,339,320,301,283,248,232,216,197,185,162,155,149,143,136,125,116,110,102,95],"timestamp_mouse":[12,42,52,71,92,112,133,152,172,191,213,233,252,272,292,313,332,351,371,392,412,433,451,471,492,512,533,552,572,593,612,632,651,671,692,713,731,751,772,792,811,832,851,871,892,912,931,952,971,992,1011,1032,1051,1072,1092,1112,1131,1151,1171,1192,1211,1231,1251,1272,1292,1312,1331,1351,1372,1391,1411,1432,1452,1471,1491,1511,1532,1551,1571],"xSR":741.5,"ySR":469.95,"xT1":424.9,"yT1":0,"xT2":1058.1,"yT2":0,"toosoon":0,"cond_shown":"Incongruent","ratio_trial":200,"L_num":1,"L_den":2,"R_num":3,"R_den":10,"correct_side":1,"subjID":"camiloandrescastellanoscastro28","gender":"0","school":"4","age":"9"},{"start_time":1552054225160,"click_time":1552054226199,"finger_time":1552054225659,"fix_duration":560.4077337738998,"trial":23,"RT":499,"MT":540,"sideResp":1,"stimulus":[],"xmouse":[784,784,784,784,784,784,784,784,784,784,784,784,784,784,784,784,784,784,784,783,782,779,774,773,762,752,735,725,716,707,698,683,675,665,660,655,650,648,646,644,642,633,621,597,580,566,548,543,538,535,529,516],"ymouse":[502,502,502,502,502,502,502,502,502,502,502,502,502,502,502,502,502,502,502,500,498,490,476,470,444,422,382,364,348,332,318,280,262,236,225,214,201,196,192,189,185,176,168,156,149,142,134,130,127,123,116,98],"timestamp_mouse":[19,39,59,78,100,119,138,159,180,198,218,239,258,279,299,319,338,360,379,399,419,439,460,478,499,519,538,559,579,598,618,639,658,678,699,718,739,758,778,798,820,838,858,879,899,918,938,959,979,998,1019,1038],"xSR":741.5,"ySR":469.95,"xT1":424.9,"yT1":0,"xT2":1058.1,"yT2":0,"toosoon":0,"cond_shown":"Congruent","ratio_trial":200,"L_num":11,"L_den":22,"R_num":3,"R_den":10,"correct_side":1,"subjID":"camiloandrescastellanoscastro28","gender":"0","school":"4","age":"9"},{"start_time":1552054228220,"click_time":1552054229419,"finger_time":1552054229118,"fix_duration":500.85578503442827,"trial":24,"RT":898,"MT":301,"sideResp":2,"stimulus":[],"xmouse":[785,785,785,785,785,785,785,785,785,785,785,785,785,785,785,785,785,785,785,785,785,785,785,785,785,785,785,785,785,785,785,785,785,785,785,785,785,785,785,785,785,786,787,801,817,833,847,861,904,931,979,1009,1027,1046,1050,1052,1053,1053,1058,1060],"ymouse":[522,522,522,522,522,522,522,522,522,522,522,522,522,522,522,522,522,522,522,522,522,522,522,522,522,522,522,522,522,522,522,522,522,522,522,522,522,522,522,522,522,515,509,470,444,420,396,372,309,271,200,154,125,90,84,81,79,77,70,60],"timestamp_mouse":[18,42,59,80,98,119,139,160,178,198,220,240,259,280,299,318,340,360,378,399,420,439,459,480,499,520,539,558,579,599,619,640,658,679,698,719,740,758,779,798,818,838,859,879,898,919,939,960,978,1000,1018,1039,1059,1078,1098,1118,1138,1160,1178,1199],"xSR":741.5,"ySR":469.95,"xT1":424.9,"yT1":0,"xT2":1058.1,"yT2":0,"toosoon":0,"cond_shown":"Congruent","ratio_trial":300,"L_num":2,"L_den":10,"R_num":12,"R_den":24,"correct_side":2,"subjID":"camiloandrescastellanoscastro28","gender":"0","school":"4","age":"9"},{"start_time":1552054231051,"click_time":1552054232199,"finger_time":1552054231818,"fix_duration":250,"trial":25,"RT":767,"MT":381,"sideResp":1,"stimulus":[],"xmouse":[783,783,783,783,783,783,783,783,783,783,783,783,783,783,783,783,783,783,783,783,783,783,783,783,783,783,783,783,783,783,783,783,783,781,779,778,776,766,753,738,724,710,682,670,662,653,645,623,612,599,591,585,576,566,554,541,527,501],"ymouse":[492,492,492,492,492,492,492,492,492,492,492,492,492,492,492,492,492,492,492,492,492,492,492,492,492,492,492,492,492,492,492,492,492,492,492,492,492,476,446,420,396,375,334,318,302,282,264,225,208,188,179,172,160,150,138,123,105,76],"timestamp_mouse":[20,29,47,68,88,108,128,150,168,187,207,227,247,268,289,307,327,347,367,389,407,428,448,467,488,507,527,548,567,588,609,628,647,668,688,707,728,747,767,787,808,827,848,868,889,907,927,948,968,987,1009,1028,1047,1067,1088,1107,1128,1147],"xSR":741.5,"ySR":469.95,"xT1":424.9,"yT1":0,"xT2":1058.1,"yT2":0,"toosoon":0,"cond_shown":"Incongruent","ratio_trial":100,"L_num":17,"L_den":30,"R_num":10,"R_den":15,"correct_side":2,"subjID":"camiloandrescastellanoscastro28","gender":"0","school":"4","age":"9"},{"start_time":1552054234720,"click_time":1552054236100,"finger_time":1552054235660,"fix_duration":1240.8470229493491,"trial":26,"RT":940,"MT":440,"sideResp":2,"stimulus":[],"xmouse":[787,787,787,787,787,787,787,787,787,787,787,787,787,787,787,787,787,787,787,787,787,787,787,787,787,787,787,787,787,787,787,787,787,787,787,785,784,783,783,783,783,783,783,791,802,827,847,866,910,937,963,986,1004,1033,1042,1054,1059,1063,1069,1071,1073,1075,1077,1081,1083,1085,1087,1087,1089],"ymouse":[530,530,530,530,530,530,530,530,530,530,530,530,530,530,530,530,530,530,530,530,530,530,530,530,530,530,530,530,530,530,530,530,530,530,530,530,529,528,528,528,527,524,523,507,495,473,459,444,408,385,364,348,335,310,299,280,269,260,241,231,219,208,194,161,153,131,117,104,76],"timestamp_mouse":[19,44,59,79,100,118,140,159,178,200,220,238,258,278,299,318,339,360,379,400,419,438,458,480,498,519,539,558,579,598,618,638,659,680,699,718,740,758,779,798,818,838,859,878,898,919,940,958,979,998,1018,1038,1059,1078,1099,1118,1139,1160,1179,1198,1218,1238,1259,1278,1299,1319,1339,1360,1380],"xSR":741.5,"ySR":469.95,"xT1":424.9,"yT1":0,"xT2":1058.1,"yT2":0,"toosoon":0,"cond_shown":"Incongruent","ratio_trial":200,"L_num":14,"L_den":30,"R_num":6,"R_den":9,"correct_side":2,"subjID":"camiloandrescastellanoscastro28","gender":"0","school":"4","age":"9"},{"start_time":1552054238706,"click_time":1552054239981,"finger_time":1552054239619,"fix_duration":1406.237701502044,"trial":27,"RT":913,"MT":362,"sideResp":1,"stimulus":[],"xmouse":[784,784,784,784,784,784,784,784,784,784,784,784,784,784,784,784,784,784,784,784,784,784,784,784,784,784,784,784,784,784,784,784,784,784,784,784,784,784,784,784,784,784,781,778,750,732,705,691,682,671,666,661,656,651,642,634,622,609,600,578,564,547,527,506],"ymouse":[512,512,512,512,512,512,512,512,512,512,512,512,512,512,512,512,512,512,512,512,512,512,512,512,512,512,512,512,512,512,512,512,512,512,512,512,512,512,512,512,512,512,509,508,484,466,441,426,411,383,370,356,340,325,268,245,221,200,186,156,140,121,99,79],"timestamp_mouse":[13,40,54,74,94,112,133,154,173,193,213,234,252,273,293,312,332,353,373,393,413,433,453,474,493,513,533,553,573,593,613,634,653,672,693,713,733,753,773,792,813,834,853,872,893,913,933,953,973,993,1013,1033,1053,1073,1096,1114,1133,1153,1174,1194,1213,1233,1254,1274],"xSR":741.5,"ySR":469.95,"xT1":424.9,"yT1":0,"xT2":1058.1,"yT2":0,"toosoon":0,"cond_shown":"Congruent","ratio_trial":200,"L_num":11,"L_den":22,"R_num":3,"R_den":10,"correct_side":1,"subjID":"camiloandrescastellanoscastro28","gender":"0","school":"4","age":"9"},{"start_time":1552054242015,"click_time":1552054243199,"finger_time":1552054242679,"fix_duration":854.0254854459664,"trial":28,"RT":664,"MT":520,"sideResp":2,"stimulus":[],"xmouse":[782,782,782,782,782,782,782,782,782,782,782,782,782,782,782,782,782,782,782,782,782,782,782,782,782,782,782,782,782,782,789,805,827,847,888,905,925,944,963,998,1015,1035,1048,1059,1074,1078,1081,1083,1087,1091,1092,1092,1092,1092,1092,1092,1092,1092,1092,1094],"ymouse":[503,503,503,503,503,503,503,503,503,503,503,503,503,503,503,503,503,503,503,503,503,503,503,503,503,503,503,503,503,503,502,491,478,466,435,419,402,386,369,333,310,282,264,249,228,217,211,203,193,173,162,157,152,148,140,134,127,119,111,96],"timestamp_mouse":[13,39,43,64,85,105,124,145,164,185,204,224,244,264,285,305,323,345,364,384,405,424,444,463,485,505,525,545,563,584,604,624,644,664,684,704,725,744,764,784,803,823,844,864,883,904,925,944,964,983,1004,1024,1044,1065,1084,1104,1124,1143,1165,1184],"xSR":741.5,"ySR":469.95,"xT1":424.9,"yT1":0,"xT2":1058.1,"yT2":0,"toosoon":0,"cond_shown":"Incongruent","ratio_trial":300,"L_num":13,"L_den":26,"R_num":12,"R_den":15,"correct_side":2,"subjID":"camiloandrescastellanoscastro28","gender":"0","school":"4","age":"9"},{"start_time":1552054244700,"click_time":1552054246499,"finger_time":1552054245899,"fix_duration":359.31019724345134,"trial":29,"RT":1199,"MT":600,"sideResp":2,"stimulus":[],"xmouse":[793,793,793,793,793,793,793,793,793,793,793,793,793,793,793,793,793,793,793,793,793,793,793,793,793,793,793,793,793,793,791,790,788,787,782,769,767,765,765,765,765,765,765,765,765,765,765,765,765,765,765,765,765,765,765,765,775,793,814,830,842,844,847,854,862,887,903,929,953,979,1055,1109,1158,1189,1201,1209,1209,1210,1210,1210,1210,1208,1205,1201,1195,1189,1188,1185,1179,1165,1124],"ymouse":[499,499,499,499,499,499,499,499,499,499,499,499,499,499,499,499,499,499,499,499,499,499,499,499,499,499,499,499,499,499,501,501,501,501,499,490,488,487,487,487,487,487,487,487,487,487,487,487,487,487,487,487,487,487,487,487,487,487,491,492,493,493,491,483,475,452,440,417,395,373,306,253,199,157,131,97,83,69,61,53,36,28,21,15,9,7,7,7,7,7,17],"timestamp_mouse":[1,34,39,60,80,100,120,139,158,179,199,218,240,259,278,300,319,340,360,379,399,419,440,458,479,499,519,539,560,580,600,618,640,659,680,699,719,740,758,780,799,820,840,860,879,899,918,940,959,979,999,1020,1040,1059,1079,1098,1119,1139,1160,1179,1199,1219,1239,1259,1279,1299,1320,1338,1360,1380,1398,1420,1439,1460,1479,1498,1519,1539,1559,1580,1599,1619,1639,1659,1680,1699,1720,1739,1759,1781,1798],"xSR":741.5,"ySR":469.95,"xT1":424.9,"yT1":0,"xT2":1058.1,"yT2":0,"toosoon":0,"cond_shown":"Incongruent","ratio_trial":200,"L_num":4,"L_den":6,"R_num":14,"R_den":30,"correct_side":1,"subjID":"camiloandrescastellanoscastro28","gender":"0","school":"4","age":"9"},{"start_time":1552054248445,"click_time":1552054249298,"finger_time":1552054249039,"fix_duration":444.52570144418127,"trial":30,"RT":594,"MT":259,"sideResp":1,"stimulus":[],"xmouse":[794,794,794,794,794,794,794,794,794,794,794,794,794,794,794,794,794,794,794,794,794,794,794,793,791,788,784,764,758,741,730,719,696,687,676,669,661,651,630,601,566,542,519],"ymouse":[504,504,504,504,504,504,504,504,504,504,504,504,504,504,504,504,504,504,504,504,504,505,505,505,505,505,505,484,478,457,442,425,387,367,342,318,292,241,191,150,114,93,77],"timestamp_mouse":[14,38,53,74,95,113,134,154,174,194,214,234,254,275,294,313,333,354,374,395,414,434,454,474,495,514,534,554,574,594,614,634,654,675,694,714,734,754,775,793,814,833,853],"xSR":741.5,"ySR":469.95,"xT1":424.9,"yT1":0,"xT2":1058.1,"yT2":0,"toosoon":0,"cond_shown":"Incongruent","ratio_trial":300,"L_num":7,"L_den":10,"R_num":8,"R_den":20,"correct_side":1,"subjID":"camiloandrescastellanoscastro28","gender":"0","school":"4","age":"9"},{"start_time":1552054250663,"click_time":1552054252160,"finger_time":1552054251339,"fix_duration":383.99652509780435,"trial":31,"RT":676,"MT":821,"sideResp":1,"stimulus":[],"xmouse":[789,789,789,789,789,789,789,789,789,789,789,789,789,789,789,789,789,789,789,789,789,789,789,789,789,789,789,789,789,789,791,802,811,820,828,831,837,838,839,839,839,839,839,839,837,834,813,798,779,774,770,769,768,768,766,762,748,735,709,687,667,628,610,595,582,571,562,559,558,556,547,539,531,522,515],"ymouse":[508,508,508,508,508,508,508,508,508,508,508,508,508,508,508,508,508,508,508,508,508,508,508,508,508,508,508,508,508,508,507,486,471,454,439,430,414,409,407,407,407,406,406,406,406,406,403,399,391,388,386,385,385,385,382,376,356,344,320,301,282,240,219,200,185,173,161,158,156,153,140,132,120,107,97],"timestamp_mouse":[16,35,55,75,96,116,136,156,177,195,216,236,256,276,296,315,337,357,377,397,416,436,456,476,497,516,536,557,577,596,616,636,656,676,696,716,736,757,776,796,816,836,855,876,896,917,936,956,975,996,1016,1036,1057,1077,1096,1116,1136,1157,1176,1195,1215,1235,1257,1276,1297,1316,1336,1356,1376,1397,1418,1435,1455,1476,1496],"xSR":741.5,"ySR":469.95,"xT1":424.9,"yT1":0,"xT2":1058.1,"yT2":0,"toosoon":0,"cond_shown":"Incongruent","ratio_trial":300,"L_num":4,"L_den":20,"R_num":2,"R_den":4,"correct_side":2,"subjID":"camiloandrescastellanoscastro28","gender":"0","school":"4","age":"9"},{"start_time":1552054256715,"click_time":1552054258699,"finger_time":1552054258318,"fix_duration":1095.25269227619,"trial":32,"RT":1603,"MT":381,"sideResp":1,"stimulus":[],"xmouse":[799,799,799,799,799,799,799,799,799,799,799,799,799,799,799,799,799,799,799,799,799,799,799,799,799,799,799,799,799,799,799,799,799,799,799,799,799,799,799,799,799,799,799,799,799,799,799,799,799,799,799,799,799,799,799,799,799,799,799,799,799,799,799,799,799,799,799,799,799,799,799,799,799,799,799,799,799,799,794,780,765,746,720,691,636,616,600,582,572,560,553,546,537,528,519,506,502,500,498,488],"ymouse":[508,508,508,508,508,508,508,508,508,508,508,508,508,508,508,508,508,508,508,508,508,508,508,508,508,508,508,508,508,508,508,508,508,508,508,508,508,508,508,508,508,508,508,508,508,508,508,508,508,508,508,508,508,508,508,508,508,508,508,508,508,508,508,508,508,508,508,508,508,508,508,508,508,508,508,508,508,505,495,471,452,429,393,356,287,259,236,213,202,186,177,169,158,146,132,115,106,103,100,86],"timestamp_mouse":[15,40,43,64,83,104,125,143,164,184,204,225,244,264,284,305,324,344,363,385,404,425,445,464,484,504,524,545,564,585,605,625,645,664,685,704,724,745,765,785,804,825,844,864,884,903,924,945,965,985,1003,1025,1044,1065,1083,1104,1125,1144,1165,1184,1204,1224,1244,1265,1285,1303,1325,1345,1364,1384,1404,1424,1445,1464,1484,1505,1523,1545,1564,1584,1603,1624,1644,1664,1684,1705,1724,1745,1764,1784,1804,1824,1844,1865,1883,1904,1924,1944,1964,1983],"xSR":741.5,"ySR":469.95,"xT1":424.9,"yT1":0,"xT2":1058.1,"yT2":0,"toosoon":0,"cond_shown":"Congruent","ratio_trial":300,"L_num":11,"L_den":22,"R_num":1,"R_den":5,"correct_side":1,"subjID":"camiloandrescastellanoscastro28","gender":"0","school":"4","age":"9"},{"start_time":1552054259978,"click_time":1552054261699,"finger_time":1552054261339,"fix_duration":517.31316464148,"trial":33,"RT":1361,"MT":360,"sideResp":2,"stimulus":[],"xmouse":[800,800,800,800,800,800,800,800,800,800,800,800,800,800,800,800,800,800,800,800,800,800,800,800,800,800,800,800,800,800,800,800,800,800,800,800,800,800,800,800,800,800,800,800,800,800,800,800,800,800,800,800,800,800,800,800,800,800,800,800,800,800,800,800,800,807,823,837,852,864,874,881,903,926,940,954,975,980,985,990,997,1016,1031,1042,1054,1064,1075],"ymouse":[529,529,529,529,529,529,529,529,529,529,529,529,529,529,529,529,529,529,529,529,529,529,529,529,529,529,529,529,529,529,529,529,529,529,529,529,529,529,529,529,529,529,529,529,529,529,529,529,529,529,529,529,529,529,529,529,529,529,529,529,529,529,529,529,529,520,499,479,458,436,416,398,362,335,319,302,270,258,245,233,221,194,171,156,138,121,94],"timestamp_mouse":[10,21,44,61,81,102,121,141,161,181,200,222,242,261,281,301,321,341,361,381,401,421,442,461,481,501,521,541,560,582,601,621,641,661,682,702,721,740,762,782,801,821,842,862,881,901,920,942,962,982,1002,1021,1042,1062,1080,1102,1121,1142,1161,1180,1201,1221,1242,1260,1281,1301,1321,1341,1361,1380,1401,1421,1442,1461,1481,1501,1521,1542,1561,1581,1600,1620,1640,1661,1681,1701,1721],"xSR":741.5,"ySR":469.95,"xT1":424.9,"yT1":0,"xT2":1058.1,"yT2":0,"toosoon":0,"cond_shown":"Incongruent","ratio_trial":100,"L_num":11,"L_den":22,"R_num":9,"R_den":15,"correct_side":2,"subjID":"camiloandrescastellanoscastro28","gender":"0","school":"4","age":"9"},{"start_time":1552054264130,"click_time":1552054265320,"finger_time":1552054264879,"fix_duration":1069.3853489277583,"trial":34,"RT":749,"MT":441,"sideResp":1,"stimulus":[],"xmouse":[788,788,788,788,788,788,788,788,788,788,788,788,788,788,788,788,788,788,788,788,788,788,788,788,788,788,788,788,788,788,788,788,788,788,788,781,770,754,723,707,691,678,668,648,634,624,612,601,581,576,574,572,570,566,560,547,534,520,505,504],"ymouse":[516,516,516,516,516,516,516,516,516,516,516,516,516,516,516,516,516,516,516,516,516,516,516,516,516,516,516,516,516,516,516,516,516,514,506,495,478,459,428,412,397,385,373,343,323,309,294,283,262,256,248,239,228,199,184,158,140,124,102,99],"timestamp_mouse":[9,42,49,68,90,109,130,149,168,190,209,229,250,269,290,309,329,350,368,388,410,430,449,468,489,510,530,549,569,590,609,630,649,669,689,709,730,749,769,790,809,829,850,869,890,909,930,949,969,989,1009,1030,1049,1069,1089,1108,1129,1149,1169,1189],"xSR":741.5,"ySR":469.95,"xT1":424.9,"yT1":0,"xT2":1058.1,"yT2":0,"toosoon":0,"cond_shown":"Congruent","ratio_trial":300,"L_num":24,"L_den":30,"R_num":8,"R_den":16,"correct_side":1,"subjID":"camiloandrescastellanoscastro28","gender":"0","school":"4","age":"9"},{"start_time":1552054267600,"click_time":1552054268980,"finger_time":1552054268499,"fix_duration":819.3187227853991,"trial":35,"RT":899,"MT":481,"sideResp":2,"stimulus":[],"xmouse":[803,803,803,803,803,803,803,803,803,803,803,803,803,803,803,803,803,803,803,803,803,803,803,803,803,803,803,803,803,803,803,800,800,799,799,799,799,799,799,799,799,803,816,833,874,893,911,931,954,1001,1023,1060,1090,1119,1169,1184,1196,1203,1206,1205,1202,1197,1193,1189,1177,1170,1166,1161,1156],"ymouse":[519,519,519,519,519,519,519,519,519,519,519,519,519,519,519,519,519,519,519,519,519,519,519,519,519,519,519,519,519,515,513,509,508,508,508,508,508,508,508,508,508,502,494,484,459,445,432,418,400,369,350,313,280,246,176,149,131,109,91,65,56,49,45,43,40,39,37,37,37],"timestamp_mouse":[19,40,59,79,99,120,140,160,178,199,220,240,259,279,299,319,339,359,380,398,420,439,460,479,499,520,540,560,580,599,620,639,659,678,700,719,740,760,779,799,819,838,860,879,899,919,940,959,979,999,1020,1039,1060,1078,1099,1119,1139,1158,1179,1199,1219,1239,1259,1280,1299,1318,1339,1358,1379],"xSR":741.5,"ySR":469.95,"xT1":424.9,"yT1":0,"xT2":1058.1,"yT2":0,"toosoon":0,"cond_shown":"Incongruent","ratio_trial":200,"L_num":1,"L_den":2,"R_num":3,"R_den":10,"correct_side":1,"subjID":"camiloandrescastellanoscastro28","gender":"0","school":"4","age":"9"},{"start_time":1552054273347,"click_time":1552054275259,"finger_time":1552054273859,"fix_duration":1327.6986254895814,"trial":36,"RT":512,"MT":1400,"sideResp":1,"stimulus":[],"xmouse":[782,782,782,782,782,782,782,782,782,782,782,782,783,783,786,786,787,789,790,792,795,797,799,799,797,794,791,782,776,769,761,756,747,737,728,720,712,694,685,679,661,640,576,556,535,531,531,531,531,531,531,541,572,588,676,743,809,875,887,891,891,892,894,894,895,896,896,894,884,870,853,835,797,776,767,762,761,761,761,761,761,761,761,760,760,775,842,1073,1158,1182,1183,1174,985,743,592,491],"ymouse":[543,543,543,543,543,543,543,543,543,543,543,543,542,540,535,532,529,524,521,519,515,510,497,481,471,463,453,430,417,403,393,385,371,357,345,334,325,304,291,282,263,241,180,160,137,131,131,131,131,131,131,129,146,155,194,218,241,255,256,256,256,256,256,256,255,253,250,241,233,226,218,211,195,185,181,179,179,179,179,179,179,179,179,180,191,213,250,323,354,364,366,363,288,200,134,98],"timestamp_mouse":[19,39,52,72,91,113,132,151,172,191,213,232,252,272,292,313,332,352,372,393,412,432,452,471,492,512,532,552,572,592,612,632,652,672,692,713,732,752,772,791,812,833,852,871,892,912,933,952,972,992,1012,1035,1052,1073,1092,1112,1131,1151,1172,1192,1212,1232,1251,1272,1291,1313,1333,1352,1372,1393,1412,1432,1452,1473,1491,1512,1533,1553,1572,1591,1613,1632,1652,1672,1692,1713,1733,1752,1771,1793,1813,1832,1852,1871,1891,1912],"xSR":741.5,"ySR":469.95,"xT1":424.9,"yT1":0,"xT2":1058.1,"yT2":0,"toosoon":0,"cond_shown":"Congruent","ratio_trial":200,"L_num":4,"L_den":10,"R_num":3,"R_den":15,"correct_side":1,"subjID":"camiloandrescastellanoscastro28","gender":"0","school":"4","age":"9"},{"start_time":1552054277979,"click_time":1552054279319,"finger_time":1552054278758,"fix_duration":1058.4457874591028,"trial":37,"RT":779,"MT":561,"sideResp":2,"stimulus":[],"xmouse":[763,763,763,763,763,763,763,763,763,763,763,763,763,763,763,763,763,763,763,763,763,763,763,763,763,763,763,763,763,763,763,763,763,763,763,763,771,802,834,861,878,891,915,940,953,962,976,982,987,991,993,996,997,999,1000,1003,1009,1012,1017,1021,1024,1029,1031,1034,1037,1049,1057,1064],"ymouse":[515,515,515,515,515,515,515,515,515,515,515,515,515,515,515,515,515,515,515,515,515,515,515,515,515,515,515,515,515,515,515,515,515,515,515,514,506,493,474,457,443,428,376,301,258,222,176,161,152,146,144,137,133,126,120,115,106,103,101,101,101,100,100,100,100,99,98,96],"timestamp_mouse":[2,36,40,60,80,101,121,140,161,180,200,220,241,260,281,300,320,341,361,381,400,419,441,461,480,501,521,540,560,581,600,621,641,660,679,700,720,740,760,779,800,820,840,860,881,901,921,940,961,980,1000,1020,1040,1060,1081,1100,1120,1140,1161,1179,1201,1220,1240,1260,1280,1301,1319,1340],"xSR":741.5,"ySR":469.95,"xT1":424.9,"yT1":0,"xT2":1058.1,"yT2":0,"toosoon":0,"cond_shown":"Congruent","ratio_trial":300,"L_num":1,"L_den":20,"R_num":7,"R_den":20,"correct_side":2,"subjID":"camiloandrescastellanoscastro28","gender":"0","school":"4","age":"9"},{"start_time":1552054281542,"click_time":1552054283779,"finger_time":1552054283439,"fix_duration":901.9184968096282,"trial":38,"RT":1897,"MT":340,"sideResp":1,"stimulus":[],"xmouse":[817,817,817,817,817,817,817,817,817,817,817,817,817,817,817,817,817,817,817,817,817,817,817,817,817,817,817,817,817,817,817,817,817,817,817,817,817,817,817,817,817,817,817,817,817,817,817,817,817,817,817,817,817,817,817,817,817,817,817,817,817,817,817,817,817,817,817,817,817,817,817,817,817,817,817,817,817,816,816,816,815,815,815,815,815,815,815,813,807,797,785,775,758,754,751,748,743,724,711,700,689,681,637,614,582,569,562,545,537,528,519,511],"ymouse":[507,507,507,507,507,507,507,507,507,507,507,507,507,507,507,507,507,507,507,507,507,507,507,507,507,507,507,507,507,507,507,507,507,507,507,507,507,507,507,507,507,507,507,507,507,507,507,507,507,507,507,507,507,507,507,507,507,507,507,507,507,507,507,507,507,507,507,507,507,507,507,507,507,507,507,507,507,504,500,498,496,495,495,495,495,495,495,495,493,490,486,481,474,471,467,463,452,419,401,385,369,355,302,278,231,207,189,149,132,116,104,93],"timestamp_mouse":[18,37,58,77,98,117,137,157,177,197,217,238,258,278,297,317,336,357,377,397,418,437,457,478,498,518,538,558,577,596,617,638,658,678,698,717,736,758,778,798,818,837,858,878,898,917,938,957,977,997,1018,1037,1057,1078,1098,1117,1137,1157,1178,1197,1218,1237,1257,1278,1298,1317,1337,1357,1377,1398,1417,1437,1457,1477,1496,1518,1537,1557,1577,1597,1616,1636,1657,1677,1697,1717,1737,1757,1777,1798,1817,1838,1857,1877,1897,1917,1937,1956,1977,1997,2017,2038,2057,2077,2097,2118,2137,2156,2177,2197,2218,2237],"xSR":741.5,"ySR":469.95,"xT1":424.9,"yT1":0,"xT2":1058.1,"yT2":0,"toosoon":0,"cond_shown":"Incongruent","ratio_trial":100,"L_num":3,"L_den":9,"R_num":7,"R_den":30,"correct_side":1,"subjID":"camiloandrescastellanoscastro28","gender":"0","school":"4","age":"9"},{"start_time":1552054285228,"click_time":1552054289498,"finger_time":1552054285242,"fix_duration":645.8682889000769,"trial":39,"RT":14,"MT":4256,"sideResp":2,"stimulus":[],"xmouse":[900,918,918,918,912,907,905,905,905,905,904,902,897,883,874,866,858,848,823,807,802,801,801,801,801,801,801,801,801,801,801,801,801,801,801,801,801,801,801,801,801,801,801,801,801,801,801,801,801,801,801,801,801,801,801,801,801,801,801,801,801,801,801,801,801,801,801,801,801,801,801,801,801,801,801,801,801,801,801,801,801,801,801,801,801,801,801,801,801,801,801,801,801,801,801,801,801,801,801,801,801,801,801,801,801,801,801,801,801,801,801,801,801,801,799,798,798,798,798,798,798,798,797,797,797,797,797,797,797,797,797,797,797,797,797,797,797,797,797,797,797,797,797,797,797,797,797,797,797,797,797,797,797,797,797,797,797,797,797,797,798,800,813,820,827,833,838,855,866,877,893,901,924,933,943,954,960,962,964,964,964,964,964,966,966,966,967,967,971,971,973,975,977,982,983,984,985,986,989,992,997,1005,1015,1031,1034,1037,1038,1040,1042,1043,1046,1049,1055,1074],"ymouse":[564,569,569,570,570,570,570,570,570,570,570,568,565,559,556,552,546,540,527,522,519,519,519,519,519,519,519,519,519,519,519,519,519,519,519,519,519,519,519,519,519,519,519,519,519,519,519,519,519,519,519,519,519,519,519,519,519,519,519,519,519,519,519,519,519,519,519,519,519,519,519,519,519,519,519,519,519,519,519,519,519,519,519,519,519,519,519,519,519,519,519,519,519,519,519,519,519,519,519,519,519,519,519,519,519,519,519,519,519,519,519,519,519,519,519,519,519,519,519,519,519,519,519,519,519,519,519,519,519,519,519,519,519,519,519,519,519,519,519,519,519,519,519,519,519,519,519,519,519,519,519,519,519,519,519,519,519,519,519,519,512,500,472,458,445,433,423,391,373,353,329,313,281,266,253,241,234,228,224,224,224,224,224,221,219,217,216,215,210,210,207,205,202,196,194,192,191,189,185,180,175,171,166,157,154,152,148,144,138,130,123,115,103,70],"timestamp_mouse":[14,37,51,71,91,111,131,151,171,191,211,231,250,271,291,311,331,350,370,391,412,430,451,471,491,511,532,551,571,592,612,631,651,672,690,712,731,750,770,791,812,832,851,871,891,912,931,950,970,991,1012,1032,1052,1071,1091,1111,1131,1152,1170,1191,1211,1232,1252,1270,1291,1311,1332,1352,1371,1391,1412,1431,1452,1470,1491,1512,1531,1551,1570,1592,1612,1632,1651,1671,1691,1712,1730,1751,1771,1792,1811,1831,1851,1871,1891,1912,1932,1952,1971,1991,2012,2032,2051,2072,2091,2112,2131,2151,2171,2192,2212,2231,2252,2272,2290,2311,2331,2352,2371,2390,2411,2432,2451,2471,2492,2511,2531,2552,2571,2591,2612,2631,2652,2671,2691,2712,2732,2752,2771,2791,2812,2832,2852,2870,2892,2912,2932,2952,2982,2991,3010,3032,3051,3071,3092,3112,3131,3151,3170,3192,3211,3231,3252,3271,3292,3311,3331,3353,3371,3391,3410,3431,3453,3471,3490,3510,3530,3551,3571,3591,3612,3631,3652,3671,3692,3711,3731,3751,3771,3791,3812,3831,3852,3871,3891,3912,3930,3951,3971,3991,4011,4031,4052,4071,4092,4111,4132,4151,4171,4191,4212,4232,4251,4270],"xSR":741.5,"ySR":469.95,"xT1":424.9,"yT1":0,"xT2":1058.1,"yT2":0,"toosoon":0,"cond_shown":"Congruent","ratio_trial":100,"L_num":7,"L_den":14,"R_num":9,"R_den":15,"correct_side":2,"subjID":"camiloandrescastellanoscastro28","gender":"0","school":"4","age":"9"},{"start_time":1552054291245,"click_time":1552054293399,"finger_time":1552054292879,"fix_duration":384.7864352780892,"trial":40,"RT":1634,"MT":520,"sideResp":1,"stimulus":[],"xmouse":[777,777,777,777,777,777,777,777,777,777,777,777,777,777,777,777,777,777,777,777,777,777,777,777,777,777,777,777,777,777,777,777,777,777,777,777,777,777,777,777,777,777,777,777,777,777,777,777,777,779,782,784,795,798,800,802,802,802,802,802,802,802,802,802,802,802,802,802,802,802,802,802,802,802,802,802,802,799,796,790,786,782,767,760,753,746,739,721,713,702,693,687,675,668,658,645,631,604,594,583,576,560,552,543,536,531,528,522],"ymouse":[491,491,491,491,491,491,491,491,491,491,491,492,492,492,492,492,492,492,492,492,492,492,492,492,492,492,492,492,492,492,492,492,492,492,492,492,492,492,492,492,492,492,492,492,492,492,492,492,492,492,492,491,485,483,482,480,480,480,480,480,480,480,480,480,480,480,480,480,480,480,480,480,480,480,480,480,480,480,479,476,472,468,448,438,427,415,400,362,342,315,296,281,255,240,225,208,192,159,148,132,123,103,91,79,68,59,51,39],"timestamp_mouse":[13,38,54,74,95,114,135,154,174,195,215,235,255,274,294,315,334,355,375,395,414,435,454,475,494,514,535,554,575,594,614,635,654,675,695,714,734,755,774,794,815,834,854,874,894,914,935,954,975,994,1014,1034,1055,1074,1095,1115,1133,1155,1174,1194,1215,1234,1255,1275,1295,1314,1333,1354,1375,1394,1415,1434,1454,1474,1494,1514,1535,1554,1575,1594,1614,1634,1654,1674,1694,1714,1734,1753,1774,1794,1814,1834,1854,1874,1894,1914,1935,1953,1974,1993,2015,2036,2054,2073,2094,2115,2134,2153],"xSR":741.5,"ySR":469.95,"xT1":424.9,"yT1":0,"xT2":1058.1,"yT2":0,"toosoon":0,"cond_shown":"Incongruent","ratio_trial":300,"L_num":3,"L_den":6,"R_num":4,"R_den":20,"correct_side":1,"subjID":"camiloandrescastellanoscastro28","gender":"0","school":"4","age":"9"},{"start_time":1552054295265,"click_time":1552054296919,"finger_time":1552054296319,"fix_duration":765.7496946393188,"trial":41,"RT":1054,"MT":600,"sideResp":1,"stimulus":[],"xmouse":[796,796,796,797,797,797,797,797,797,797,797,797,797,797,797,797,797,797,797,797,797,797,797,797,797,797,797,797,797,797,797,797,797,797,797,797,797,797,797,795,792,787,784,782,781,778,773,770,763,759,755,747,741,737,731,726,712,701,695,690,685,676,673,670,666,660,649,636,629,623,618,613,610,605,602,599,587,581,574,567,559,535,522],"ymouse":[522,521,520,518,518,518,518,518,518,518,518,518,518,518,518,518,518,518,518,518,518,518,518,518,518,518,518,518,518,518,518,518,518,518,518,518,518,518,515,513,510,507,507,506,505,504,502,501,498,496,494,489,484,480,471,463,445,432,424,417,407,382,371,359,345,330,293,263,248,232,221,200,191,182,176,169,145,135,125,115,108,91,83],"timestamp_mouse":[15,36,53,73,94,114,134,155,174,194,214,234,255,275,294,315,333,354,375,395,414,435,454,474,495,514,535,554,574,594,615,634,655,675,695,714,733,753,774,795,814,834,853,874,895,914,934,954,974,995,1014,1034,1054,1074,1093,1115,1134,1153,1175,1194,1214,1235,1255,1274,1295,1314,1333,1355,1374,1393,1413,1433,1454,1474,1494,1514,1534,1553,1573,1594,1614,1634,1654],"xSR":741.5,"ySR":469.95,"xT1":424.9,"yT1":0,"xT2":1058.1,"yT2":0,"toosoon":0,"cond_shown":"Congruent","ratio_trial":100,"L_num":9,"L_den":15,"R_num":8,"R_den":16,"correct_side":1,"subjID":"camiloandrescastellanoscastro28","gender":"0","school":"4","age":"9"},{"start_time":1552054301590,"click_time":1552054303099,"finger_time":1552054302540,"fix_duration":1229.5375001615382,"trial":42,"RT":950,"MT":559,"sideResp":1,"stimulus":[],"xmouse":[775,776,777,778,781,783,784,785,785,787,787,787,787,787,787,787,787,787,787,787,788,788,788,788,788,788,788,788,788,788,788,788,788,788,788,788,788,788,788,788,788,788,788,788,778,769,757,745,733,716,706,696,689,678,659,647,634,618,600,557,530,492,472,454,430,424,419,417,415,414,414,414,415,421,436],"ymouse":[486,487,488,490,494,497,498,499,500,501,501,501,501,501,501,501,501,501,501,500,498,497,497,497,497,497,497,497,497,497,497,497,497,497,497,497,497,497,497,497,497,497,496,495,481,470,455,440,424,398,382,371,363,353,334,323,312,301,285,248,225,194,175,157,126,113,103,94,87,74,70,68,68,67,64],"timestamp_mouse":[33,49,70,89,110,129,150,169,189,209,229,249,270,289,309,329,348,369,390,409,429,449,470,489,509,529,549,569,589,610,629,649,669,689,709,729,750,769,790,810,830,848,869,890,909,929,950,969,989,1010,1029,1049,1069,1088,1109,1129,1150,1169,1190,1209,1229,1249,1269,1289,1309,1329,1350,1369,1389,1409,1429,1449,1470,1489,1508],"xSR":741.5,"ySR":469.95,"xT1":424.9,"yT1":0,"xT2":1058.1,"yT2":0,"toosoon":0,"cond_shown":"Congruent","ratio_trial":300,"L_num":4,"L_den":5,"R_num":2,"R_den":4,"correct_side":1,"subjID":"camiloandrescastellanoscastro28","gender":"0","school":"4","age":"9"},{"start_time":1552054306350,"click_time":1552054309640,"finger_time":1552054309200,"fix_duration":408.9428344821415,"trial":43,"RT":2850,"MT":440,"sideResp":1,"stimulus":[],"xmouse":[775,775,775,775,775,775,775,775,775,775,775,775,775,775,775,775,775,775,775,775,775,775,775,775,775,775,778,785,786,788,788,788,788,788,788,788,788,788,788,788,788,788,788,788,788,788,788,788,788,788,788,788,788,788,788,788,788,788,788,788,788,788,788,788,788,788,788,788,788,788,788,788,788,788,788,788,788,788,793,799,801,804,808,810,811,811,811,811,811,811,811,811,811,811,811,811,811,811,811,811,811,811,811,811,811,811,811,811,811,811,811,811,811,811,811,811,811,809,809,809,809,809,809,809,809,809,809,809,809,808,807,806,804,803,801,800,798,793,790,788,785,781,762,738,723,707,690,653,633,613,591,572,540,538,537,537,534,532,531,529,527,522,506,490,479],"ymouse":[512,512,512,512,512,512,512,512,512,512,512,512,512,512,512,512,512,512,512,512,512,512,512,512,512,512,511,507,507,506,505,505,505,505,505,505,505,505,505,505,505,505,505,505,505,505,505,505,505,505,505,505,505,505,505,505,505,505,505,505,505,505,505,505,505,505,505,505,505,505,505,505,505,505,505,505,505,505,500,496,493,491,484,482,478,477,476,476,475,474,474,473,473,473,473,473,473,473,473,473,473,473,473,473,473,473,473,473,473,473,473,473,473,473,473,473,473,472,472,472,472,472,472,472,472,472,472,472,472,472,472,472,472,472,473,474,474,476,476,476,476,476,459,433,414,396,375,335,318,302,285,269,233,221,206,190,175,156,149,142,136,128,114,102,94],"timestamp_mouse":[12,33,49,69,89,110,129,149,170,189,209,230,249,270,290,309,330,348,370,390,410,430,450,470,489,509,529,549,569,589,609,628,648,670,689,710,728,748,770,790,809,828,849,870,889,910,928,949,970,990,1009,1030,1049,1069,1090,1109,1130,1150,1170,1190,1209,1230,1250,1269,1289,1310,1330,1349,1370,1389,1409,1430,1450,1470,1488,1509,1530,1550,1570,1589,1610,1630,1648,1669,1689,1709,1729,1749,1769,1790,1808,1829,1850,1869,1889,1910,1929,1949,1969,1988,2010,2029,2050,2069,2090,2109,2129,2149,2169,2190,2210,2229,2250,2269,2289,2309,2330,2350,2370,2390,2410,2430,2449,2469,2489,2509,2530,2549,2570,2590,2609,2629,2649,2669,2689,2710,2729,2749,2769,2789,2809,2829,2850,2868,2888,2910,2929,2949,2969,2989,3009,3030,3049,3070,3089,3109,3128,3149,3168,3190,3209,3229,3248,3270,3290],"xSR":741.5,"ySR":469.95,"xT1":424.9,"yT1":0,"xT2":1058.1,"yT2":0,"toosoon":0,"cond_shown":"Incongruent","ratio_trial":100,"L_num":3,"L_den":5,"R_num":11,"R_den":22,"correct_side":1,"subjID":"camiloandrescastellanoscastro28","gender":"0","school":"4","age":"9"},{"start_time":1552054311252,"click_time":1552054312940,"finger_time":1552054312280,"fix_duration":250,"trial":44,"RT":1028,"MT":660,"sideResp":2,"stimulus":[],"xmouse":[800,800,800,800,800,800,800,800,800,800,800,800,800,800,800,800,800,800,800,800,800,800,800,800,800,800,800,800,800,800,800,800,800,800,800,800,800,800,800,800,800,800,800,800,802,804,808,817,826,833,838,842,849,856,865,874,898,914,919,935,946,959,980,988,994,1001,1005,1017,1023,1033,1038,1043,1052,1055,1058,1061,1068,1075,1077,1084,1088,1092,1097,1101,1106],"ymouse":[543,543,543,543,543,543,543,543,543,543,543,543,543,543,543,543,543,543,543,543,543,543,543,543,543,543,543,543,543,543,543,543,543,543,543,543,543,543,543,543,543,543,543,543,541,540,536,525,512,504,497,490,477,466,451,433,391,355,343,305,284,265,235,224,217,210,204,191,184,172,168,161,149,145,142,138,131,126,124,119,116,112,106,101,95],"timestamp_mouse":[13,27,47,67,87,108,126,147,168,188,207,226,247,268,288,308,327,346,368,388,408,427,448,467,488,508,527,547,568,588,606,627,647,668,688,708,727,747,768,786,808,827,847,866,887,907,928,946,968,987,1007,1028,1047,1067,1088,1107,1128,1147,1167,1187,1207,1226,1248,1268,1287,1307,1328,1347,1368,1387,1408,1427,1448,1467,1487,1507,1529,1548,1568,1587,1608,1628,1647,1667,1688],"xSR":741.5,"ySR":469.95,"xT1":424.9,"yT1":0,"xT2":1058.1,"yT2":0,"toosoon":0,"cond_shown":"Congruent","ratio_trial":300,"L_num":2,"L_den":20,"R_num":10,"R_den":25,"correct_side":2,"subjID":"camiloandrescastellanoscastro28","gender":"0","school":"4","age":"9"},{"start_time":1552054314569,"click_time":1552054316859,"finger_time":1552054316440,"fix_duration":649.3200964100645,"trial":45,"RT":1871,"MT":419,"sideResp":1,"stimulus":[],"xmouse":[800,800,800,800,800,800,800,800,800,800,800,800,800,800,800,800,800,800,800,800,800,800,800,800,800,800,800,800,800,800,800,800,800,800,800,800,800,800,800,800,800,800,800,800,800,800,800,800,800,800,800,800,800,800,800,800,800,800,800,800,800,800,800,800,800,800,800,800,800,800,800,800,800,800,800,800,800,800,800,800,800,800,800,800,800,800,800,800,800,799,798,788,782,770,750,723,714,706,699,691,674,666,653,645,635,626,605,594,584,576,567,551,539,530,523],"ymouse":[525,525,525,525,525,525,525,525,525,525,525,525,525,525,525,525,525,525,525,525,525,525,525,525,525,525,525,525,525,525,525,525,525,525,525,525,525,525,525,525,525,525,525,525,525,525,525,525,525,525,525,525,525,525,525,525,525,525,525,525,525,525,525,525,525,525,525,525,525,525,525,525,525,525,525,525,525,525,525,525,525,525,525,525,525,525,525,525,525,525,523,497,488,469,442,409,398,387,376,365,342,330,310,296,282,266,229,210,189,169,148,107,79,60,45],"timestamp_mouse":[12,42,50,70,91,110,129,150,170,191,211,230,251,270,291,310,330,351,370,391,410,430,451,471,490,511,530,551,570,590,610,630,650,671,690,710,730,750,771,790,811,831,851,871,891,910,931,951,970,991,1010,1031,1049,1071,1090,1111,1131,1151,1171,1190,1211,1230,1251,1270,1291,1310,1331,1350,1371,1390,1411,1431,1451,1470,1491,1511,1531,1550,1571,1590,1611,1631,1651,1671,1691,1711,1730,1750,1771,1790,1811,1830,1851,1871,1890,1912,1930,1951,1970,1990,2013,2030,2049,2069,2090,2110,2130,2151,2170,2190,2210,2229,2250,2270,2290],"xSR":741.5,"ySR":469.95,"xT1":424.9,"yT1":0,"xT2":1058.1,"yT2":0,"toosoon":0,"cond_shown":"Incongruent","ratio_trial":300,"L_num":1,"L_den":2,"R_num":2,"R_den":10,"correct_side":1,"subjID":"camiloandrescastellanoscastro28","gender":"0","school":"4","age":"9"},{"start_time":1552054319398,"click_time":1552054321099,"finger_time":1552054320540,"fix_duration":1077.4127573617134,"trial":46,"RT":1142,"MT":559,"sideResp":2,"stimulus":[],"xmouse":[787,787,787,787,787,787,787,787,787,787,787,787,787,787,787,787,787,787,787,787,787,787,787,787,787,787,787,787,787,787,787,787,787,787,787,787,787,787,787,787,787,787,787,787,787,787,787,787,787,787,787,787,787,787,787,787,788,788,788,785,769,760,748,743,741,740,742,746,751,757,779,794,811,827,847,888,907,927,945,964,1001,1017,1036,1044,1051,1060],"ymouse":[491,491,491,491,491,491,491,491,491,491,491,491,491,491,491,491,491,491,491,491,491,491,491,491,491,491,491,491,491,491,491,491,491,491,491,491,491,491,491,491,491,491,491,491,491,491,489,488,487,486,484,482,481,481,481,478,474,468,457,443,408,392,372,363,357,349,345,340,334,326,304,296,286,278,270,254,244,233,223,210,182,165,139,125,110,90],"timestamp_mouse":[10,36,41,62,81,101,121,140,161,181,201,222,241,261,281,301,322,342,361,382,401,421,442,462,481,502,522,542,561,581,602,621,640,660,681,701,722,742,760,781,801,822,842,862,881,902,921,941,961,981,1001,1022,1040,1061,1081,1101,1121,1142,1161,1181,1201,1221,1240,1261,1281,1302,1322,1341,1361,1381,1401,1421,1441,1461,1481,1502,1522,1542,1562,1581,1601,1621,1641,1663,1682,1701],"xSR":741.5,"ySR":469.95,"xT1":424.9,"yT1":0,"xT2":1058.1,"yT2":0,"toosoon":0,"cond_shown":"Congruent","ratio_trial":200,"L_num":7,"L_den":15,"R_num":18,"R_den":27,"correct_side":2,"subjID":"camiloandrescastellanoscastro28","gender":"0","school":"4","age":"9"},{"start_time":1552054322857,"click_time":1552054325520,"finger_time":1552054324320,"fix_duration":377.3681400382469,"trial":47,"RT":1463,"MT":1200,"sideResp":2,"stimulus":[],"xmouse":[788,788,788,788,788,788,788,788,788,788,788,788,788,788,788,788,788,788,788,788,788,788,788,788,788,788,788,788,788,788,788,788,788,788,788,788,788,788,788,788,788,788,788,788,788,788,788,788,788,788,788,788,788,788,788,788,788,788,788,788,788,788,788,788,788,788,788,788,788,786,784,777,755,740,730,721,716,713,713,713,713,713,713,712,712,712,711,711,711,711,711,714,719,726,737,747,757,766,766,766,766,766,766,766,770,771,776,786,792,797,798,799,799,799,799,798,796,775,763,756,753,753,769,793,846,907,962,1028,1032,1041,1046,1050,1057,1059],"ymouse":[534,534,534,534,534,534,534,534,534,534,534,534,534,534,534,534,534,534,534,534,534,534,534,534,534,534,534,534,534,534,534,534,534,534,534,534,534,534,534,534,534,534,534,534,534,534,534,534,534,534,534,534,534,534,534,534,534,534,534,534,534,534,534,534,534,534,534,534,534,534,534,531,521,516,513,509,507,507,507,507,507,507,506,506,504,503,501,501,501,501,501,501,501,501,499,497,494,490,490,490,490,490,490,490,492,494,498,512,523,530,530,531,531,531,531,531,531,515,505,493,480,468,434,411,368,320,267,154,141,113,101,91,74,66],"timestamp_mouse":[13,22,42,63,82,102,123,143,162,183,203,222,242,263,282,303,322,342,363,383,403,421,442,462,483,502,523,542,562,583,602,622,642,663,682,702,721,742,762,782,802,823,843,863,883,902,922,943,962,983,1002,1022,1042,1063,1083,1102,1122,1143,1161,1183,1202,1222,1241,1263,1282,1302,1322,1343,1361,1382,1403,1422,1443,1463,1482,1501,1523,1542,1562,1582,1602,1622,1643,1662,1683,1702,1723,1742,1762,1782,1802,1824,1842,1863,1882,1902,1923,1941,1962,1982,2003,2022,2042,2062,2082,2102,2122,2142,2162,2182,2202,2222,2242,2262,2283,2302,2322,2342,2362,2382,2402,2423,2442,2463,2482,2501,2523,2542,2562,2582,2602,2622,2643,2662],"xSR":741.5,"ySR":469.95,"xT1":424.9,"yT1":0,"xT2":1058.1,"yT2":0,"toosoon":0,"cond_shown":"Incongruent","ratio_trial":100,"L_num":9,"L_den":18,"R_num":6,"R_den":10,"correct_side":2,"subjID":"camiloandrescastellanoscastro28","gender":"0","school":"4","age":"9"},{"start_time":1552054327501,"click_time":1552054329059,"finger_time":1552054328399,"fix_duration":980.612811302229,"trial":48,"RT":898,"MT":660,"sideResp":2,"stimulus":[],"xmouse":[794,794,794,794,794,794,794,794,794,794,794,794,794,794,794,794,794,794,794,794,794,794,794,794,794,794,794,794,794,794,794,794,794,794,794,794,794,794,795,801,804,810,816,823,839,848,857,862,868,882,890,900,909,918,933,944,950,955,962,974,979,985,992,998,1013,1024,1031,1042,1056,1081,1092,1097,1102,1106,1110,1111,1113,1113],"ymouse":[519,519,519,519,519,519,519,519,519,519,519,519,519,519,519,519,519,519,519,519,519,519,519,519,519,519,519,519,519,519,519,519,519,519,519,519,519,519,518,513,511,504,495,484,461,449,432,423,412,387,372,355,340,324,298,282,274,268,261,247,241,235,228,223,212,205,199,194,186,175,169,164,158,150,133,123,108,98],"timestamp_mouse":[18,39,59,79,98,119,138,158,179,198,218,239,259,278,298,318,337,358,378,398,418,439,459,477,498,519,538,559,578,599,618,638,659,677,698,719,739,758,778,798,818,839,858,878,898,918,938,958,978,998,1018,1039,1058,1078,1098,1118,1138,1158,1179,1198,1218,1239,1258,1279,1298,1319,1338,1358,1379,1398,1419,1439,1458,1478,1498,1518,1538,1558],"xSR":741.5,"ySR":469.95,"xT1":424.9,"yT1":0,"xT2":1058.1,"yT2":0,"toosoon":0,"cond_shown":"Incongruent","ratio_trial":100,"L_num":10,"L_den":25,"R_num":9,"R_den":18,"correct_side":2,"subjID":"camiloandrescastellanoscastro28","gender":"0","school":"4","age":"9"},{"start_time":1552054331649,"click_time":1552054333399,"finger_time":1552054332959,"fix_duration":969.6254001078795,"trial":49,"RT":1310,"MT":440,"sideResp":1,"stimulus":[],"xmouse":[791,791,791,791,791,791,791,791,791,791,791,791,791,791,791,791,791,791,791,791,791,791,791,791,791,791,791,791,791,791,791,791,791,791,791,791,791,791,791,791,791,791,791,791,791,791,791,791,791,791,791,791,791,791,791,791,791,791,791,791,791,791,791,787,780,760,734,680,647,634,623,607,602,597,593,591,586,580,575,572,570,564,553,543,536,530,527,523],"ymouse":[504,504,504,504,504,504,504,504,504,504,504,504,504,504,504,504,504,504,504,504,504,504,504,504,504,504,504,504,504,504,504,504,504,504,504,504,504,504,504,504,504,504,504,504,504,504,504,504,504,504,504,504,504,504,504,504,504,504,504,504,504,504,504,501,493,469,435,360,307,283,263,236,226,215,205,196,187,173,162,156,150,141,122,110,99,91,86,82],"timestamp_mouse":[21,31,51,69,90,110,130,150,171,190,210,230,250,270,291,311,330,351,371,390,411,431,451,470,490,510,531,550,570,590,611,630,651,670,690,710,731,751,769,791,810,831,850,871,890,910,931,951,971,990,1010,1030,1050,1069,1091,1111,1131,1150,1171,1190,1210,1231,1249,1270,1290,1310,1331,1350,1371,1390,1410,1432,1450,1470,1492,1510,1531,1550,1570,1590,1610,1630,1651,1670,1691,1711,1730,1750],"xSR":741.5,"ySR":469.95,"xT1":424.9,"yT1":0,"xT2":1058.1,"yT2":0,"toosoon":0,"cond_shown":"Incongruent","ratio_trial":200,"L_num":4,"L_den":30,"R_num":1,"R_den":3,"correct_side":2,"subjID":"camiloandrescastellanoscastro28","gender":"0","school":"4","age":"9"},{"start_time":1552054340338,"click_time":1552054342500,"finger_time":1552054341898,"fix_duration":316.07521893854397,"trial":50,"RT":1560,"MT":602,"sideResp":2,"stimulus":[],"xmouse":[783,783,783,783,783,783,783,783,783,783,783,783,783,783,783,783,783,783,783,783,783,783,783,783,783,783,783,783,783,783,783,783,783,783,783,783,783,783,783,783,783,783,783,783,783,783,783,783,783,783,783,783,783,783,783,783,783,783,783,783,783,783,783,783,783,783,783,783,783,786,787,789,790,793,796,801,807,815,831,840,852,867,882,907,923,937,947,962,990,999,1007,1017,1024,1040,1048,1048,1048,1048,1048,1048,1048,1048,1048,1048,1048,1048,1048,1096,1097],"ymouse":[536,536,536,536,536,536,536,536,536,536,536,536,536,536