[{"start_time":1552054700879,"click_time":1552054708265,"finger_time":1552054700889,"fix_duration":329.0405607559863,"trial":0,"RT":10,"MT":7376,"sideResp":1,"stimulus":"img/250/randomdotsizeEA/R/6_Ratio_250_L_6_R_24.png","xmouse":[795,795,795,795,795,795,795,795,795,799,805,810,812,817,831,835,838,840,840,840,840,838,836,835,834,834,834,833,828,826,825,825,825,825,825,821,816,804,803,803,803,803,803,803,803,803,803,803,803,803,801,797,796,796,796,796,796,796,796,796,796,796,796,796,796,796,796,796,796,796,796,796,796,796,797,798,798,799,799,799,799,799,799,799,799,799,799,799,799,799,799,799,799,799,799,799,799,799,799,799,800,800,800,800,800,800,800,800,800,800,800,800,800,800,800,800,800,800,800,800,800,800,800,800,800,800,800,800,800,800,800,800,800,800,800,800,800,800,800,800,800,800,800,800,800,800,800,800,800,800,800,800,800,800,800,800,800,800,800,800,798,796,793,793,793,793,793,793,793,793,793,793,793,793,793,793,793,793,793,793,794,795,796,797,797,797,797,797,797,797,797,797,797,797,797,797,797,797,797,797,797,797,797,797,797,797,797,797,797,797,797,797,797,797,797,797,797,797,797,797,797,797,797,797,797,797,797,797,797,797,797,797,797,797,797,797,797,797,797,797,797,797,797,797,797,797,797,797,797,797,797,797,797,797,797,797,797,797,797,797,797,797,797,797,797,797,797,797,797,797,797,797,797,797,797,797,797,797,797,797,797,797,797,797,797,797,797,797,797,797,797,797,797,797,797,797,797,797,797,797,797,797,797,797,797,797,797,797,797,797,797,797,797,797,797,797,797,797,797,797,797,797,797,797,797,797,797,797,797,797,797,797,797,795,785,764,740,705,683,680,678,678,676,675,674,674,674,673,673,673,673,673,673,670,666,661,644,625,601,558,543,534,529,529,529,529,529,529,527,524],"ymouse":[578,578,578,578,578,578,578,578,578,578,578,578,578,575,553,540,530,522,520,519,519,519,520,522,525,525,525,526,526,526,526,526,526,526,526,526,526,526,526,526,526,526,526,526,526,526,526,526,526,526,526,526,527,527,527,527,528,528,528,528,528,528,528,528,528,528,528,528,528,528,528,528,528,528,524,524,522,521,519,519,519,519,519,519,519,519,519,519,519,519,519,519,519,519,519,519,519,519,519,519,519,519,519,519,519,519,519,519,519,519,519,519,519,519,519,519,519,519,519,519,519,519,519,519,519,519,519,519,519,519,519,519,519,519,519,519,519,519,519,519,519,519,519,519,519,519,519,519,519,519,519,519,519,519,519,519,519,519,519,519,529,541,548,549,550,550,550,550,550,550,550,550,550,550,550,550,550,549,546,541,540,537,537,536,536,534,534,534,534,534,534,534,534,534,534,534,534,534,534,534,534,534,534,534,534,534,534,534,534,534,534,534,534,534,534,534,534,534,534,534,534,534,534,534,534,534,534,534,534,534,534,534,534,534,534,534,534,534,534,534,534,534,534,534,534,534,534,534,534,534,534,534,534,534,534,534,534,534,534,534,534,534,534,534,534,534,534,534,534,534,534,534,534,534,534,534,534,534,534,534,534,534,534,534,534,534,534,534,534,534,534,534,534,534,534,534,534,534,534,534,534,534,534,534,534,534,534,534,534,534,534,534,534,534,534,534,534,534,534,534,534,534,534,534,534,534,534,534,534,534,534,534,534,525,511,481,446,398,364,354,342,335,323,306,301,299,298,297,297,294,292,288,283,272,265,257,236,216,194,154,135,122,110,108,107,107,106,105,101,97],"timestamp_mouse":[10,25,45,66,86,106,127,146,167,185,206,226,247,267,286,306,325,345,366,386,405,425,446,465,485,507,527,545,565,587,607,626,647,666,687,706,726,746,766,787,805,826,845,867,885,906,925,947,967,986,1005,1026,1045,1065,1087,1107,1127,1146,1167,1185,1205,1226,1247,1265,1286,1307,1326,1346,1366,1386,1407,1426,1447,1465,1485,1505,1525,1546,1566,1585,1607,1626,1647,1667,1685,1705,1725,1747,1766,1786,1805,1825,1847,1867,1886,1905,1925,1947,1967,1987,2006,2026,2045,2066,2087,2106,2127,2146,2166,2186,2205,2225,2245,2267,2286,2307,2325,2345,2367,2387,2405,2427,2447,2466,2487,2505,2525,2547,2567,2585,2607,2627,2646,2666,2686,2707,2725,2745,2766,2785,2805,2826,2846,2867,2887,2907,2926,2946,2967,2987,3007,3025,3045,3067,3086,3107,3126,3147,3167,3186,3205,3226,3246,3266,3287,3305,3325,3347,3365,3386,3407,3427,3446,3466,3486,3506,3525,3545,3566,3586,3605,3627,3647,3665,3685,3706,3727,3746,3767,3787,3806,3826,3846,3866,3887,3906,3926,3946,3966,3986,4007,4026,4047,4066,4086,4105,4126,4145,4166,4187,4206,4226,4245,4267,4286,4305,4327,4347,4366,4386,4405,4427,4446,4467,4486,4505,4525,4546,4566,4587,4605,4625,4645,4667,4687,4705,4725,4746,4766,4786,4805,4827,4846,4866,4886,4905,4926,4945,4966,4987,5005,5026,5046,5067,5087,5105,5125,5146,5166,5185,5205,5227,5245,5267,5286,5306,5325,5346,5367,5387,5407,5426,5445,5467,5487,5506,5526,5546,5567,5587,5607,5627,5646,5666,5686,5707,5727,5746,5766,5786,5807,5826,5846,5867,5887,5906,5927,5946,5967,5987,6007,6025,6047,6066,6085,6105,6125,6147,6167,6186,6205,6227,6247,6266,6286,6306,6326,6347,6367,6387,6407,6426,6447,6467,6487,6505,6527,6547,6566,6586,6606,6626,6646,6666,6685,6706,6726,6745,6767,6786,6806,6825,6847,6867,6885,6906,6925,6945,6967,6987,7005,7025,7045,7067,7085,7107,7125,7146,7165,7185,7205,7225,7245,7265,7285,7306,7325,7346,7367,7385],"xSR":741.5,"ySR":501.8,"xT1":424.9,"yT1":0,"xT2":1058.1,"yT2":0,"toosoon":0,"cond_shown":"randomdotsizeEA","ratio_trial":250,"smaller_num":"6","larger_num":"24","correct_side":2,"subjID":"CamiloAndresCastellanosCastro28","gender":"0","age":"9","school":"4","test":{"fix_dur":[250,1500],"timestim":300,"targets_dim":[100,100],"targets_relative_coord":[0.3,0.7],"size_stim":[880,420],"start_dim":[100,100],"size_start":[300,300],"size_fix":60,"samplingrate":20,"img_types":["equaldotsize","equaldotanddens","randomdotsizeEA"],"ratios":[250,500,750,900],"rep_conds":9,"nTrials":120,"trials_to_rest":500,"Trials_order":[98,73,10,49,52,5,66,74,30,115,43,68,112,106,46,70,4,48,90,17,88,14,89,42,12,33,53,8,78,51,97,67,116,25,54,35,91,100,95,40,22,58,15,71,101,63,85,79,113,119,50,38,93,20,45,28,75,118,72,94,96,65,86,56,3,2,32,109,87,111,6,39,59,21,62,37,104,114,9,24,110,1,41,117,60,76,81,44,80,47,0,55,23,92,83,29,26,105,13,84,19,107,11,64,27,69,34,77,31,99,36,82,102,18,16,108,103,57,61,7],"cond_shown":["randomdotsizeEA","equaldotanddens","equaldotanddens","equaldotanddens","equaldotanddens","randomdotsizeEA","equaldotsize","randomdotsizeEA","equaldotsize","equaldotanddens","equaldotanddens","randomdotsizeEA","equaldotanddens","equaldotanddens","equaldotanddens","equaldotanddens","equaldotanddens","equaldotsize","equaldotsize","randomdotsizeEA","equaldotanddens","randomdotsizeEA","randomdotsizeEA","equaldotsize","equaldotsize","equaldotsize","randomdotsizeEA","randomdotsizeEA","equaldotsize","equaldotsize","equaldotanddens","equaldotanddens","randomdotsizeEA","equaldotanddens","equaldotsize","randomdotsizeEA","equaldotanddens","equaldotanddens","randomdotsizeEA","equaldotanddens","equaldotanddens","equaldotanddens","equaldotsize","randomdotsizeEA","randomdotsizeEA","equaldotsize","equaldotanddens","equaldotanddens","randomdotsizeEA","randomdotsizeEA","randomdotsizeEA","randomdotsizeEA","equaldotsize","randomdotsizeEA","equaldotsize","equaldotanddens","equaldotsize","equaldotanddens","equaldotsize","equaldotanddens","equaldotsize","randomdotsizeEA","randomdotsizeEA","randomdotsizeEA","equaldotsize","randomdotsizeEA","randomdotsizeEA","equaldotanddens","equaldotsize","equaldotsize","equaldotsize","equaldotsize","randomdotsizeEA","equaldotsize","randomdotsizeEA","equaldotanddens","randomdotsizeEA","equaldotsize","equaldotsize","equaldotsize","randomdotsizeEA","equaldotanddens","randomdotsizeEA","equaldotsize","equaldotsize","equaldotanddens","equaldotsize","randomdotsizeEA","randomdotsizeEA","randomdotsizeEA","equaldotsize","equaldotanddens","randomdotsizeEA","randomdotsizeEA","randomdotsizeEA","randomdotsizeEA","randomdotsizeEA","equaldotsize","equaldotanddens","equaldotsize","equaldotanddens","randomdotsizeEA","randomdotsizeEA","equaldotanddens","equaldotsize","equaldotsize","equaldotanddens","randomdotsizeEA","equaldotanddens","equaldotsize","equaldotsize","equaldotanddens","equaldotsize","equaldotsize","equaldotanddens","equaldotsize","equaldotanddens","equaldotsize","equaldotanddens","equaldotanddens"],"ratio_trial":[250,250,900,250,500,500,750,250,750,750,750,750,500,900,900,900,500,250,750,500,500,250,500,750,250,900,500,750,750,500,250,750,750,250,750,900,750,500,900,500,900,900,500,900,500,500,250,750,500,900,250,250,900,750,900,500,500,900,250,900,250,500,250,750,500,250,750,250,500,500,750,500,900,900,250,250,750,750,900,250,250,250,500,900,250,500,900,750,750,900,250,750,900,750,900,500,250,900,250,250,750,900,900,500,500,900,900,500,750,500,250,900,750,750,500,250,750,900,250,750],"smaller_num":["6","3","18","3","1","9","15","5","15","18","9","3","1","18","18","18","4","2","18","2","9","3","2","12","4","9","5","3","12","2","3","15","9","5","6","9","15","5","18","2","18","9","4","18","6","2","5","3","2","18","3","3","18","3","18","5","9","18","2","9","3","5","4","18","1","2","3","4","4","5","18","2","18","18","6","2","3","15","18","2","2","1","9","18","2","6","9","3","12","9","3","15","18","12","18","2","2","18","3","2","9","9","9","1","5","9","18","1","3","6","4","9","6","3","2","2","3","18","5","3"],"larger_num":["24","12","20","12","2","18","20","20","20","24","12","4","2","20","20","20","8","8","24","4","18","12","4","16","16","10","10","4","16","4","12","20","12","20","8","10","20","10","20","4","20","10","8","20","12","4","20","4","4","20","12","12","20","4","20","10","18","20","8","10","12","10","16","24","2","8","4","16","8","10","24","4","20","20","24","8","4","20","20","8","8","4","18","20","8","12","10","4","16","10","12","20","20","16","20","4","8","20","12","8","12","10","10","2","10","10","20","2","4","12","16","10","8","4","4","8","4","20","20","4"],"correct_side":[2,2,2,1,2,1,2,2,2,1,2,1,2,2,2,1,1,1,1,1,1,1,2,2,1,2,1,2,2,1,2,2,2,2,1,2,2,1,1,1,2,2,1,1,1,2,2,2,2,1,2,2,1,2,2,2,2,2,2,2,1,1,2,1,2,1,2,2,1,2,1,1,2,2,2,2,1,2,1,1,1,2,2,1,1,1,2,1,2,1,1,1,1,2,1,2,1,1,2,1,2,1,2,2,1,1,1,2,1,1,2,2,1,1,1,1,2,2,2,1],"img_shown":["img/250/randomdotsizeEA/R/6_Ratio_250_L_6_R_24.png","img/250/equaldotanddens/R/9_Ratio_250_L_3_R_12.png","img/900/equaldotanddens/R/13_Ratio_900_L_18_R_20.png","img/250/equaldotanddens/L/15_Ratio_250_L_12_R_3.png","img/500/equaldotanddens/R/15_Ratio_500_L_1_R_2.png","img/500/randomdotsizeEA/L/4_Ratio_500_L_18_R_9.png","img/750/equaldotsize/R/3_Ratio_750_L_15_R_20.png","img/250/randomdotsizeEA/R/12_Ratio_250_L_5_R_20.png","img/750/equaldotsize/R/5_Ratio_750_L_15_R_20.png","img/750/equaldotanddens/L/6_Ratio_750_L_24_R_18.png","img/750/equaldotanddens/R/15_Ratio_750_L_9_R_12.png","img/750/randomdotsizeEA/L/8_Ratio_750_L_4_R_3.png","img/500/equaldotanddens/R/15_Ratio_500_L_1_R_2.png","img/900/equaldotanddens/R/13_Ratio_900_L_18_R_20.png","img/900/equaldotanddens/R/12_Ratio_900_L_18_R_20.png","img/900/equaldotanddens/L/8_Ratio_900_L_20_R_18.png","img/500/equaldotanddens/L/8_Ratio_500_L_8_R_4.png","img/250/equaldotsize/L/7_Ratio_250_L_8_R_2.png","img/750/equaldotsize/L/6_Ratio_750_L_24_R_18.png","img/500/randomdotsizeEA/L/5_Ratio_500_L_4_R_2.png","img/500/equaldotanddens/L/4_Ratio_500_L_18_R_9.png","img/250/randomdotsizeEA/L/15_Ratio_250_L_12_R_3.png","img/500/randomdotsizeEA/R/9_Ratio_500_L_2_R_4.png","img/750/equaldotsize/R/11_Ratio_750_L_12_R_16.png","img/250/equaldotsize/L/2_Ratio_250_L_16_R_4.png","img/900/equaldotsize/R/15_Ratio_900_L_9_R_10.png","img/500/randomdotsizeEA/L/7_Ratio_500_L_10_R_5.png","img/750/randomdotsizeEA/R/7_Ratio_750_L_3_R_4.png","img/750/equaldotsize/R/11_Ratio_750_L_12_R_16.png","img/500/equaldotsize/L/10_Ratio_500_L_4_R_2.png","img/250/equaldotanddens/R/9_Ratio_250_L_3_R_12.png","img/750/equaldotanddens/R/4_Ratio_750_L_15_R_20.png","img/750/randomdotsizeEA/R/15_Ratio_750_L_9_R_12.png","img/250/equaldotanddens/R/12_Ratio_250_L_5_R_20.png","img/750/equaldotsize/L/13_Ratio_750_L_8_R_6.png","img/900/randomdotsizeEA/R/6_Ratio_900_L_9_R_10.png","img/750/equaldotanddens/R/4_Ratio_750_L_15_R_20.png","img/500/equaldotanddens/L/7_Ratio_500_L_10_R_5.png","img/900/randomdotsizeEA/L/4_Ratio_900_L_20_R_18.png","img/500/equaldotanddens/L/5_Ratio_500_L_4_R_2.png","img/900/equaldotanddens/R/12_Ratio_900_L_18_R_20.png","img/900/equaldotanddens/R/7_Ratio_900_L_9_R_10.png","img/500/equaldotsize/L/8_Ratio_500_L_8_R_4.png","img/900/randomdotsizeEA/L/2_Ratio_900_L_20_R_18.png","img/500/randomdotsizeEA/L/11_Ratio_500_L_12_R_6.png","img/500/equaldotsize/R/9_Ratio_500_L_2_R_4.png","img/250/equaldotanddens/R/12_Ratio_250_L_5_R_20.png","img/750/equaldotanddens/R/7_Ratio_750_L_3_R_4.png","img/500/randomdotsizeEA/R/9_Ratio_500_L_2_R_4.png","img/900/randomdotsizeEA/L/10_Ratio_900_L_20_R_18.png","img/250/randomdotsizeEA/R/4_Ratio_250_L_3_R_12.png","img/250/randomdotsizeEA/R/11_Ratio_250_L_3_R_12.png","img/900/equaldotsize/L/2_Ratio_900_L_20_R_18.png","img/750/randomdotsizeEA/R/12_Ratio_750_L_3_R_4.png","img/900/equaldotsize/R/14_Ratio_900_L_18_R_20.png","img/500/equaldotanddens/R/14_Ratio_500_L_5_R_10.png","img/500/equaldotsize/R/1_Ratio_500_L_9_R_18.png","img/900/equaldotanddens/R/9_Ratio_900_L_18_R_20.png","img/250/equaldotsize/R/13_Ratio_250_L_2_R_8.png","img/900/equaldotanddens/R/3_Ratio_900_L_9_R_10.png","img/250/equaldotsize/L/14_Ratio_250_L_12_R_3.png","img/500/randomdotsizeEA/L/7_Ratio_500_L_10_R_5.png","img/250/randomdotsizeEA/R/10_Ratio_250_L_4_R_16.png","img/750/randomdotsizeEA/L/6_Ratio_750_L_24_R_18.png","img/500/equaldotsize/R/12_Ratio_500_L_1_R_2.png","img/250/randomdotsizeEA/L/3_Ratio_250_L_8_R_2.png","img/750/randomdotsizeEA/R/12_Ratio_750_L_3_R_4.png","img/250/equaldotanddens/R/10_Ratio_250_L_4_R_16.png","img/500/equaldotsize/L/8_Ratio_500_L_8_R_4.png","img/500/equaldotsize/R/14_Ratio_500_L_5_R_10.png","img/750/equaldotsize/L/6_Ratio_750_L_24_R_18.png","img/500/equaldotsize/L/10_Ratio_500_L_4_R_2.png","img/900/randomdotsizeEA/R/9_Ratio_900_L_18_R_20.png","img/900/equaldotsize/R/14_Ratio_900_L_18_R_20.png","img/250/randomdotsizeEA/R/6_Ratio_250_L_6_R_24.png","img/250/equaldotanddens/R/13_Ratio_250_L_2_R_8.png","img/750/randomdotsizeEA/L/10_Ratio_750_L_4_R_3.png","img/750/equaldotsize/R/4_Ratio_750_L_15_R_20.png","img/900/equaldotsize/L/4_Ratio_900_L_20_R_18.png","img/250/equaldotsize/L/3_Ratio_250_L_8_R_2.png","img/250/randomdotsizeEA/L/3_Ratio_250_L_8_R_2.png","img/250/equaldotanddens/R/8_Ratio_250_L_1_R_4.png","img/500/randomdotsizeEA/R/1_Ratio_500_L_9_R_18.png","img/900/equaldotsize/L/8_Ratio_900_L_20_R_18.png","img/250/equaldotsize/L/1_Ratio_250_L_8_R_2.png","img/500/equaldotanddens/L/13_Ratio_500_L_12_R_6.png","img/900/equaldotsize/R/6_Ratio_900_L_9_R_10.png","img/750/randomdotsizeEA/L/8_Ratio_750_L_4_R_3.png","img/750/randomdotsizeEA/R/11_Ratio_750_L_12_R_16.png","img/900/randomdotsizeEA/L/1_Ratio_900_L_10_R_9.png","img/250/equaldotsize/L/14_Ratio_250_L_12_R_3.png","img/750/equaldotanddens/L/1_Ratio_750_L_20_R_15.png","img/900/randomdotsizeEA/L/2_Ratio_900_L_20_R_18.png","img/750/randomdotsizeEA/R/11_Ratio_750_L_12_R_16.png","img/900/randomdotsizeEA/L/4_Ratio_900_L_20_R_18.png","img/500/randomdotsizeEA/R/9_Ratio_500_L_2_R_4.png","img/250/randomdotsizeEA/L/1_Ratio_250_L_8_R_2.png","img/900/equaldotsize/L/4_Ratio_900_L_20_R_18.png","img/250/equaldotanddens/R/4_Ratio_250_L_3_R_12.png","img/250/equaldotsize/L/3_Ratio_250_L_8_R_2.png","img/750/equaldotanddens/R/15_Ratio_750_L_9_R_12.png","img/900/randomdotsizeEA/L/1_Ratio_900_L_10_R_9.png","img/900/randomdotsizeEA/R/3_Ratio_900_L_9_R_10.png","img/500/equaldotanddens/R/15_Ratio_500_L_1_R_2.png","img/500/equaldotsize/L/7_Ratio_500_L_10_R_5.png","img/900/equaldotsize/L/1_Ratio_900_L_10_R_9.png","img/900/equaldotanddens/L/4_Ratio_900_L_20_R_18.png","img/500/randomdotsizeEA/R/15_Ratio_500_L_1_R_2.png","img/750/equaldotanddens/L/8_Ratio_750_L_4_R_3.png","img/500/equaldotsize/L/11_Ratio_500_L_12_R_6.png","img/250/equaldotsize/R/10_Ratio_250_L_4_R_16.png","img/900/equaldotanddens/R/3_Ratio_900_L_9_R_10.png","img/750/equaldotsize/L/13_Ratio_750_L_8_R_6.png","img/750/equaldotsize/L/8_Ratio_750_L_4_R_3.png","img/500/equaldotanddens/L/5_Ratio_500_L_4_R_2.png","img/250/equaldotsize/L/7_Ratio_250_L_8_R_2.png","img/750/equaldotanddens/R/12_Ratio_750_L_3_R_4.png","img/900/equaldotsize/R/11_Ratio_900_L_18_R_20.png","img/250/equaldotanddens/R/12_Ratio_250_L_5_R_20.png","img/750/equaldotanddens/L/10_Ratio_750_L_4_R_3.png"],"Rat0":[["12_Ratio_0_L_9_R_0.png","13_Ratio_0_L_6_R_0.png","5_Ratio_0_L_2_R_0.png","6_Ratio_0_L_4_R_0.png","8_Ratio_0_L_6_R_0.png"],["1_Ratio_0_L_0_R_17.png","10_Ratio_0_L_0_R_22.png","11_Ratio_0_L_0_R_1.png","14_Ratio_0_L_0_R_24.png","15_Ratio_0_L_0_R_4.png","2_Ratio_0_L_0_R_5.png","3_Ratio_0_L_0_R_17.png","4_Ratio_0_L_0_R_7.png","7_Ratio_0_L_0_R_19.png","9_Ratio_0_L_0_R_15.png"]],"Rat250":[["1_Ratio_250_L_8_R_2.png","14_Ratio_250_L_12_R_3.png","15_Ratio_250_L_12_R_3.png","2_Ratio_250_L_16_R_4.png","3_Ratio_250_L_8_R_2.png","5_Ratio_250_L_24_R_6.png","7_Ratio_250_L_8_R_2.png"],["10_Ratio_250_L_4_R_16.png","11_Ratio_250_L_3_R_12.png","12_Ratio_250_L_5_R_20.png","13_Ratio_250_L_2_R_8.png","4_Ratio_250_L_3_R_12.png","6_Ratio_250_L_6_R_24.png","8_Ratio_250_L_1_R_4.png","9_Ratio_250_L_3_R_12.png"]],"Rat500":[["10_Ratio_500_L_4_R_2.png","11_Ratio_500_L_12_R_6.png","13_Ratio_500_L_12_R_6.png","4_Ratio_500_L_18_R_9.png","5_Ratio_500_L_4_R_2.png","7_Ratio_500_L_10_R_5.png","8_Ratio_500_L_8_R_4.png"],["1_Ratio_500_L_9_R_18.png","12_Ratio_500_L_1_R_2.png","14_Ratio_500_L_5_R_10.png","15_Ratio_500_L_1_R_2.png","2_Ratio_500_L_3_R_6.png","3_Ratio_500_L_10_R_20.png","6_Ratio_500_L_9_R_18.png","9_Ratio_500_L_2_R_4.png"]],"Rat750":[["1_Ratio_750_L_20_R_15.png","10_Ratio_750_L_4_R_3.png","13_Ratio_750_L_8_R_6.png","14_Ratio_750_L_8_R_6.png","6_Ratio_750_L_24_R_18.png","8_Ratio_750_L_4_R_3.png","9_Ratio_750_L_4_R_3.png"],["11_Ratio_750_L_12_R_16.png","12_Ratio_750_L_3_R_4.png","15_Ratio_750_L_9_R_12.png","2_Ratio_750_L_6_R_8.png","3_Ratio_750_L_15_R_20.png","4_Ratio_750_L_15_R_20.png","5_Ratio_750_L_15_R_20.png","7_Ratio_750_L_3_R_4.png"]],"Rat900":[["1_Ratio_900_L_10_R_9.png","10_Ratio_900_L_20_R_18.png","2_Ratio_900_L_20_R_18.png","4_Ratio_900_L_20_R_18.png","8_Ratio_900_L_20_R_18.png"],["11_Ratio_900_L_18_R_20.png","12_Ratio_900_L_18_R_20.png","13_Ratio_900_L_18_R_20.png","14_Ratio_900_L_18_R_20.png","15_Ratio_900_L_9_R_10.png","3_Ratio_900_L_9_R_10.png","5_Ratio_900_L_9_R_10.png","6_Ratio_900_L_9_R_10.png","7_Ratio_900_L_9_R_10.png","9_Ratio_900_L_18_R_20.png"]],"Rat1000":[["10_Ratio_1000_L_16_R_16.png","11_Ratio_1000_L_6_R_6.png","12_Ratio_1000_L_14_R_14.png","13_Ratio_1000_L_20_R_20.png","15_Ratio_1000_L_15_R_15.png","2_Ratio_1000_L_17_R_17.png","4_Ratio_1000_L_9_R_9.png","5_Ratio_1000_L_6_R_6.png","6_Ratio_1000_L_19_R_19.png","8_Ratio_1000_L_14_R_14.png","9_Ratio_1000_L_25_R_25.png"],["1_Ratio_1000_L_1_R_1.png","14_Ratio_1000_L_17_R_17.png","3_Ratio_1000_L_17_R_17.png","7_Ratio_1000_L_6_R_6.png"]]}},{"start_time":1552054710118,"click_time":1552054711985,"finger_time":1552054711146,"fix_duration":250,"trial":1,"RT":1028,"MT":839,"sideResp":2,"stimulus":"img/250/equaldotanddens/R/9_Ratio_250_L_3_R_12.png","xmouse":[779,779,779,779,779,779,779,779,779,779,779,779,779,779,779,779,779,779,779,779,779,779,779,779,779,779,779,779,779,779,779,779,779,779,779,779,779,779,779,779,779,779,779,779,779,779,779,779,780,780,785,796,801,806,814,822,827,839,843,850,856,863,874,878,882,887,896,901,906,911,911,911,911,911,911,911,911,911,911,911,911,911,979,994,1010,1017,1026,1027,1027,1027,1027,1029,1050,1071],"ymouse":[481,481,481,481,481,481,481,481,481,481,481,481,481,481,481,481,481,481,481,481,481,481,481,481,481,481,481,481,481,481,481,481,481,481,481,481,481,481,481,481,481,481,481,481,481,481,481,481,481,480,470,431,414,394,380,361,352,329,319,306,290,272,236,222,208,191,80,41,19,4,4,4,4,4,4,4,4,4,4,4,4,4,0,8,19,26,32,33,33,33,33,34,43,52],"timestamp_mouse":[13,27,47,68,87,107,127,148,167,188,208,227,247,267,286,307,328,348,367,388,407,427,448,467,488,508,528,547,566,586,607,628,647,668,687,707,728,748,768,787,806,826,846,867,887,908,928,946,967,987,1006,1028,1046,1067,1086,1107,1126,1148,1166,1186,1206,1228,1246,1266,1287,1308,1328,1347,1366,1386,1407,1426,1446,1467,1486,1506,1527,1547,1566,1588,1607,1627,1647,1667,1688,1707,1727,1747,1766,1787,1806,1827,1846,1867],"xSR":741.5,"ySR":469.95,"xT1":424.9,"yT1":0,"xT2":1058.1,"yT2":0,"toosoon":0,"cond_shown":"equaldotanddens","ratio_trial":250,"smaller_num":"3","larger_num":"12","correct_side":2,"subjID":"CamiloAndresCastellanosCastro28","gender":"0","age":"9","school":"4"},{"start_time":1552054713655,"click_time":1552054715165,"finger_time":1552054714484,"fix_duration":587.057827579738,"trial":2,"RT":829,"MT":681,"sideResp":2,"stimulus":"img/900/equaldotanddens/R/13_Ratio_900_L_18_R_20.png","xmouse":[775,775,775,775,775,775,775,775,775,775,775,775,775,775,775,775,775,775,775,775,775,775,775,775,775,775,775,775,775,775,775,775,775,776,777,778,779,781,784,786,788,790,790,790,792,800,806,813,829,854,865,873,882,887,892,893,893,896,900,904,910,912,915,918,923,934,939,945,954,959,974,985,998,1015,1048,1065],"ymouse":[498,498,498,498,498,498,498,498,498,498,498,498,498,498,498,498,498,498,498,498,498,498,498,498,498,498,498,498,498,498,498,498,498,498,498,497,495,492,487,483,475,469,464,457,447,418,401,386,352,310,290,272,256,242,221,211,203,194,182,174,162,159,155,152,149,142,139,136,132,131,126,123,119,114,102,94],"timestamp_mouse":[25,39,50,70,90,109,130,150,169,189,209,230,249,269,289,310,330,351,369,390,410,431,450,470,489,511,530,550,570,591,610,629,651,670,690,710,731,749,770,790,810,829,850,869,889,910,929,949,969,991,1010,1030,1049,1069,1092,1109,1130,1149,1169,1191,1209,1229,1249,1269,1289,1309,1330,1349,1370,1389,1410,1429,1451,1471,1491,1510],"xSR":741.5,"ySR":469.95,"xT1":424.9,"yT1":0,"xT2":1058.1,"yT2":0,"toosoon":0,"cond_shown":"equaldotanddens","ratio_trial":900,"smaller_num":"18","larger_num":"20","correct_side":2,"subjID":"CamiloAndresCastellanosCastro28","gender":"0","age":"9","school":"4"},{"start_time":1552054717521,"click_time":1552054718704,"finger_time":1552054718166,"fix_duration":1155.2395250945008,"trial":3,"RT":645,"MT":538,"sideResp":1,"stimulus":"img/250/equaldotanddens/L/15_Ratio_250_L_12_R_3.png","xmouse":[795,795,795,795,795,795,795,795,795,795,795,795,795,795,795,795,795,795,795,795,795,795,795,795,795,795,795,795,794,794,793,792,786,782,771,751,721,705,692,684,685,692,691,686,685,684,684,684,684,682,676,671,656,648,638,621,605,558,532,509],"ymouse":[502,502,502,502,502,502,502,502,502,502,502,502,502,502,502,502,502,502,502,502,502,501,497,494,492,490,489,489,488,487,486,483,467,455,438,412,370,345,320,293,248,170,145,127,121,119,119,118,113,107,98,91,81,78,75,71,65,60,57,54],"timestamp_mouse":[12,39,45,64,85,104,125,144,164,185,204,224,244,263,284,303,324,344,364,384,405,424,445,465,484,503,524,545,564,583,604,624,645,663,684,703,725,743,764,783,803,826,843,863,883,903,925,945,963,983,1003,1023,1043,1064,1083,1104,1125,1145,1163,1183],"xSR":741.5,"ySR":469.95,"xT1":424.9,"yT1":0,"xT2":1058.1,"yT2":0,"toosoon":0,"cond_shown":"equaldotanddens","ratio_trial":250,"smaller_num":"3","larger_num":"12","correct_side":1,"subjID":"CamiloAndresCastellanosCastro28","gender":"0","age":"9","school":"4"},{"start_time":1552054720406,"click_time":1552054721584,"finger_time":1552054721104,"fix_duration":821.5363341213308,"trial":4,"RT":698,"MT":480,"sideResp":2,"stimulus":"img/500/equaldotanddens/R/15_Ratio_500_L_1_R_2.png","xmouse":[788,788,788,788,788,788,788,788,788,788,788,788,788,788,788,788,788,788,788,788,788,788,788,788,788,789,790,790,791,791,792,793,796,797,798,800,803,809,812,814,822,834,841,846,851,857,867,873,881,884,892,896,906,917,933,955,1012,1045,1066],"ymouse":[519,519,519,519,519,519,519,519,519,519,519,519,519,519,519,519,519,519,519,519,519,519,519,519,519,518,513,509,504,501,496,492,482,476,469,460,450,429,418,411,385,342,320,301,281,266,238,227,212,208,198,193,177,167,155,140,92,62,40],"timestamp_mouse":[18,38,59,80,98,118,139,160,178,200,219,239,259,278,300,319,340,358,378,398,420,439,459,478,500,518,540,559,578,598,618,639,658,678,698,718,738,758,778,799,819,839,858,878,899,918,940,958,978,998,1019,1038,1059,1080,1099,1119,1140,1158,1178],"xSR":741.5,"ySR":469.95,"xT1":424.9,"yT1":0,"xT2":1058.1,"yT2":0,"toosoon":0,"cond_shown":"equaldotanddens","ratio_trial":500,"smaller_num":"1","larger_num":"2","correct_side":2,"subjID":"CamiloAndresCastellanosCastro28","gender":"0","age":"9","school":"4"},{"start_time":1552054723657,"click_time":1552054725305,"finger_time":1552054724586,"fix_duration":1070.2520010794492,"trial":5,"RT":929,"MT":719,"sideResp":2,"stimulus":"img/500/randomdotsizeEA/L/4_Ratio_500_L_18_R_9.png","xmouse":[794,794,794,794,794,794,794,794,794,794,794,794,794,794,794,794,794,794,794,794,794,794,794,794,794,794,794,794,794,794,794,794,794,794,794,794,794,794,794,794,794,794,794,795,799,803,806,815,818,835,840,843,847,850,860,866,873,881,890,917,928,941,955,972,1004,1018,1034,1037,1043,1043,1043,1043,1045,1051,1057,1078,1089,1096,1097,1099,1099,1100,1101],"ymouse":[506,506,506,506,506,506,506,506,506,506,506,506,506,506,506,506,506,506,506,506,506,506,506,506,506,506,506,506,506,506,506,506,506,506,506,506,506,506,506,506,506,506,506,505,492,478,463,433,424,371,353,339,329,319,300,290,278,267,253,223,208,191,173,156,131,125,120,120,119,119,119,119,119,117,115,109,106,103,103,101,101,100,99],"timestamp_mouse":[13,40,47,67,89,107,128,148,167,189,208,227,248,269,288,309,327,347,369,388,408,428,447,468,489,508,529,549,568,588,608,627,649,668,689,708,728,748,769,788,809,828,848,867,888,907,928,947,969,988,1007,1027,1047,1068,1088,1107,1127,1148,1169,1188,1207,1228,1248,1267,1289,1307,1328,1347,1367,1388,1408,1428,1449,1468,1487,1507,1527,1548,1568,1589,1607,1628,1648],"xSR":741.5,"ySR":469.95,"xT1":424.9,"yT1":0,"xT2":1058.1,"yT2":0,"toosoon":0,"cond_shown":"randomdotsizeEA","ratio_trial":500,"smaller_num":"9","larger_num":"18","correct_side":1,"subjID":"CamiloAndresCastellanosCastro28","gender":"0","age":"9","school":"4"},{"start_time":1552054726993,"click_time":1552054728564,"finger_time":1552054727505,"fix_duration":606.6930348234486,"trial":6,"RT":512,"MT":1059,"sideResp":2,"stimulus":"img/750/equaldotsize/R/3_Ratio_750_L_15_R_20.png","xmouse":[770,770,770,770,770,770,770,769,768,768,768,768,768,768,768,768,768,768,768,768,768,768,769,771,771,772,775,782,786,790,798,804,809,814,814,814,814,814,814,814,814,814,814,815,816,817,818,820,820,821,822,824,825,827,829,830,831,832,833,836,838,844,854,862,870,879,886,899,907,917,934,965,981,1012,1022,1033,1043,1054,1090],"ymouse":[542,542,542,542,542,542,540,537,533,532,530,527,524,518,516,514,512,508,507,507,506,504,495,487,479,469,458,435,421,405,374,351,328,289,275,267,263,262,262,262,262,262,262,256,253,249,245,240,239,238,234,231,228,223,220,218,216,216,213,211,208,202,193,189,182,176,171,160,155,149,142,131,125,116,113,109,105,102,95],"timestamp_mouse":[14,35,51,72,91,113,131,151,172,193,213,233,252,272,293,312,331,352,371,393,412,432,452,472,491,512,532,554,572,592,612,631,651,672,691,711,731,752,772,793,813,831,852,871,892,911,932,953,971,992,1011,1031,1052,1071,1092,1112,1132,1152,1172,1192,1213,1232,1253,1271,1292,1311,1332,1353,1371,1392,1411,1433,1453,1473,1493,1512,1532,1551,1571],"xSR":741.5,"ySR":469.95,"xT1":424.9,"yT1":0,"xT2":1058.1,"yT2":0,"toosoon":0,"cond_shown":"equaldotsize","ratio_trial":750,"smaller_num":"15","larger_num":"20","correct_side":2,"subjID":"CamiloAndresCastellanosCastro28","gender":"0","age":"9","school":"4"},{"start_time":1552054730599,"click_time":1552054732904,"finger_time":1552054731525,"fix_duration":1074.2757440023317,"trial":7,"RT":926,"MT":1379,"sideResp":2,"stimulus":"img/250/randomdotsizeEA/R/12_Ratio_250_L_5_R_20.png","xmouse":[793,793,793,793,793,793,793,793,793,793,793,793,793,793,793,793,793,793,793,793,793,793,793,793,793,793,793,793,793,793,793,793,793,793,793,793,793,793,793,793,793,793,795,802,807,813,817,818,820,820,820,821,822,823,823,823,823,822,819,815,809,802,787,782,778,774,773,771,770,770,768,768,768,768,768,768,768,768,768,768,768,768,768,768,768,768,768,765,763,760,757,751,749,749,749,749,749,749,749,749,749,749,749,750,771,805,848,907,926,939,946,952,960,991,1026,1078],"ymouse":[526,526,526,526,526,526,526,526,526,526,526,526,526,526,526,526,526,526,526,526,526,526,526,526,526,526,526,526,526,526,526,526,526,526,526,526,526,526,526,526,526,524,518,495,484,470,461,453,435,424,420,410,392,379,367,356,347,326,310,294,278,260,228,216,207,199,195,188,184,179,175,175,175,175,175,175,175,175,175,175,175,175,175,175,174,170,168,160,156,153,150,147,146,146,146,146,146,146,146,146,146,146,146,142,137,134,130,128,125,121,118,113,108,102,99,99],"timestamp_mouse":[14,25,47,65,84,106,125,146,166,186,205,226,246,265,286,305,326,345,365,386,405,426,445,466,485,505,526,545,566,585,606,625,645,665,685,705,726,745,765,786,806,826,845,866,885,906,926,945,965,985,1005,1025,1046,1065,1085,1105,1125,1146,1165,1185,1206,1225,1246,1265,1285,1305,1326,1346,1364,1385,1406,1426,1445,1466,1486,1505,1526,1546,1566,1586,1605,1625,1646,1665,1686,1705,1726,1746,1765,1786,1806,1825,1846,1865,1885,1905,1926,1946,1965,1985,2006,2025,2046,2065,2085,2106,2125,2147,2165,2186,2205,2226,2246,2266,2285,2305],"xSR":741.5,"ySR":469.95,"xT1":424.9,"yT1":0,"xT2":1058.1,"yT2":0,"toosoon":0,"cond_shown":"randomdotsizeEA","ratio_trial":250,"smaller_num":"5","larger_num":"20","correct_side":2,"subjID":"CamiloAndresCastellanosCastro28","gender":"0","age":"9","school":"4"},{"start_time":1552054735393,"click_time":1552054736545,"finger_time":1552054736024,"fix_duration":1387.247127558996,"trial":8,"RT":631,"MT":521,"sideResp":2,"stimulus":"img/750/equaldotsize/R/5_Ratio_750_L_15_R_20.png","xmouse":[810,810,810,810,810,810,810,810,810,810,810,810,810,810,810,810,810,810,810,810,810,810,810,810,810,810,810,810,810,810,810,810,810,810,812,812,812,814,815,817,819,820,823,824,827,831,836,854,870,890,897,918,957,980,1005,1024,1042,1060],"ymouse":[504,504,504,504,504,504,504,504,504,504,504,504,504,504,504,504,504,504,504,504,504,504,504,504,503,503,501,497,493,488,482,467,454,423,399,377,357,322,311,301,284,280,261,255,246,234,220,185,162,134,125,104,77,69,62,57,52,51],"timestamp_mouse":[13,36,52,72,91,112,132,151,172,191,211,231,251,271,291,311,332,352,372,392,412,430,452,472,491,512,531,552,571,592,611,631,651,672,691,711,730,753,771,792,811,832,852,871,892,911,931,953,971,992,1011,1031,1052,1071,1091,1111,1131,1152],"xSR":741.5,"ySR":469.95,"xT1":424.9,"yT1":0,"xT2":1058.1,"yT2":0,"toosoon":0,"cond_shown":"equaldotsize","ratio_trial":750,"smaller_num":"15","larger_num":"20","correct_side":2,"subjID":"CamiloAndresCastellanosCastro28","gender":"0","age":"9","school":"4"},{"start_time":1552054739035,"click_time":1552054740625,"finger_time":1552054739985,"fix_duration":1169.8167818981537,"trial":9,"RT":950,"MT":640,"sideResp":1,"stimulus":"img/750/equaldotanddens/L/6_Ratio_750_L_24_R_18.png","xmouse":[779,779,779,779,779,779,779,779,779,779,779,779,779,779,779,779,779,779,779,779,779,779,779,779,779,779,779,779,779,779,779,779,779,779,779,780,780,780,781,781,782,782,782,782,782,782,781,779,778,773,758,745,730,717,711,703,697,692,684,670,659,659,659,659,659,659,659,659,659,607,595,590,587,585,584,582,577,554,543,516],"ymouse":[511,511,511,511,511,511,511,511,511,511,511,511,511,511,511,511,511,511,511,511,511,511,511,511,511,511,511,511,511,511,511,511,511,511,511,510,507,504,503,501,500,498,496,494,492,488,477,469,456,427,359,310,256,213,176,121,97,72,49,20,4,4,4,4,4,4,4,4,4,4,37,50,58,63,64,65,65,68,69,74],"timestamp_mouse":[26,41,49,69,89,109,129,149,169,189,210,229,250,270,289,310,329,349,369,390,409,429,449,470,489,508,530,549,570,590,608,629,649,670,689,709,729,749,769,790,810,829,849,870,889,909,929,950,970,989,1010,1029,1049,1069,1088,1110,1130,1149,1169,1190,1210,1228,1249,1269,1288,1310,1330,1350,1370,1389,1410,1430,1450,1469,1489,1510,1528,1549,1569,1589],"xSR":741.5,"ySR":469.95,"xT1":424.9,"yT1":0,"xT2":1058.1,"yT2":0,"toosoon":0,"cond_shown":"equaldotanddens","ratio_trial":750,"smaller_num":"18","larger_num":"24","correct_side":1,"subjID":"CamiloAndresCastellanosCastro28","gender":"0","age":"9","school":"4"},{"start_time":1552054741920,"click_time":1552054743465,"finger_time":1552054742665,"fix_duration":253.17049049125816,"trial":10,"RT":745,"MT":800,"sideResp":2,"stimulus":"img/750/equaldotanddens/R/15_Ratio_750_L_9_R_12.png","xmouse":[781,781,781,781,781,781,781,781,781,781,781,781,781,781,781,781,781,781,781,781,781,781,781,781,781,781,781,781,781,781,781,781,781,783,785,795,807,832,843,849,853,858,863,865,867,867,864,859,855,849,845,836,835,834,834,836,839,858,869,880,891,902,922,933,945,968,984,1007,1013,1016,1018,1021,1025,1029,1035,1050,1057,1063],"ymouse":[503,503,503,503,503,503,503,503,503,503,503,503,503,503,503,503,503,503,503,503,503,503,503,503,503,503,503,503,503,503,503,503,503,501,498,484,470,450,439,430,423,411,378,359,340,312,277,257,240,221,204,175,162,153,144,137,132,117,112,108,106,104,102,100,98,94,93,89,88,88,88,87,85,83,81,78,77,75],"timestamp_mouse":[4,31,45,64,83,104,125,144,164,184,205,225,244,264,285,305,325,344,365,384,404,423,445,464,485,504,525,544,564,584,605,625,644,664,684,705,724,745,765,785,804,823,845,864,884,904,926,944,965,984,1003,1025,1044,1064,1085,1104,1125,1144,1163,1185,1205,1225,1244,1265,1285,1304,1324,1345,1364,1385,1405,1424,1444,1464,1484,1504,1524,1545],"xSR":741.5,"ySR":469.95,"xT1":424.9,"yT1":0,"xT2":1058.1,"yT2":0,"toosoon":0,"cond_shown":"equaldotanddens","ratio_trial":750,"smaller_num":"9","larger_num":"12","correct_side":2,"subjID":"CamiloAndresCastellanosCastro28","gender":"0","age":"9","school":"4"},{"start_time":1552054745282,"click_time":1552054747146,"finger_time":1552054746065,"fix_duration":716.0732010276225,"trial":11,"RT":783,"MT":1081,"sideResp":1,"stimulus":"img/750/randomdotsizeEA/L/8_Ratio_750_L_4_R_3.png","xmouse":[756,756,756,756,756,756,756,756,756,756,756,756,756,762,765,772,774,775,775,775,775,775,775,775,775,775,775,775,775,775,775,775,775,776,776,776,776,776,776,776,776,776,776,775,773,769,763,762,759,759,759,759,759,761,763,772,784,805,861,879,892,902,908,917,919,923,924,925,925,925,925,925,925,925,925,925,920,910,900,898,897,892,868,833,753,732,716,704,670,648,621,590,554,479],"ymouse":[526,526,526,526,526,526,526,526,526,526,526,526,526,527,527,528,529,529,529,529,529,529,529,529,529,529,529,529,529,529,529,529,529,529,527,525,521,507,478,462,440,420,406,368,352,336,319,316,305,304,301,300,296,288,283,271,258,239,194,179,164,150,142,125,120,115,114,113,113,112,112,112,112,112,112,111,111,111,112,113,113,113,113,113,108,99,91,83,73,71,69,69,69,61],"timestamp_mouse":[11,32,43,63,83,102,123,142,162,182,202,222,242,262,282,302,323,342,363,383,402,422,443,462,483,502,522,543,562,583,602,623,643,663,682,702,722,743,763,783,802,822,841,863,882,902,922,942,963,982,1002,1022,1042,1063,1082,1102,1122,1143,1163,1182,1202,1222,1242,1263,1282,1303,1322,1343,1362,1383,1403,1423,1442,1463,1482,1503,1522,1543,1561,1582,1601,1622,1642,1662,1681,1702,1722,1742,1763,1782,1803,1822,1842,1864],"xSR":741.5,"ySR":469.95,"xT1":424.9,"yT1":0,"xT2":1058.1,"yT2":0,"toosoon":0,"cond_shown":"randomdotsizeEA","ratio_trial":750,"smaller_num":"3","larger_num":"4","correct_side":1,"subjID":"CamiloAndresCastellanosCastro28","gender":"0","age":"9","school":"4"},{"start_time":1552054749381,"click_time":1552054751125,"finger_time":1552054750204,"fix_duration":1254.3269147212618,"trial":12,"RT":823,"MT":921,"sideResp":2,"stimulus":"img/500/equaldotanddens/R/15_Ratio_500_L_1_R_2.png","xmouse":[772,772,772,772,772,772,772,772,772,772,772,772,772,772,772,772,772,772,772,772,772,772,772,772,772,772,772,772,772,772,772,772,772,772,772,772,772,772,772,774,782,797,804,833,842,851,859,869,887,894,899,902,906,909,916,919,921,923,925,926,926,926,927,931,949,964,990,1041,1171,1242,1301,1344,1367,1368,1369,1369,1369,1369,1369,1369,1369,1369,1369,1353,1306,1264,1217,1153],"ymouse":[516,516,516,516,516,516,516,516,516,516,516,516,516,516,516,516,516,516,516,516,516,516,516,516,516,516,516,516,516,516,516,516,516,516,516,516,516,516,516,507,494,463,453,407,390,369,348,325,279,260,233,224,200,183,139,118,100,85,72,65,65,65,64,64,64,66,74,85,103,112,120,123,123,122,118,113,109,106,104,104,104,104,104,102,94,89,83,73],"timestamp_mouse":[13,35,43,63,83,103,123,143,163,184,204,223,242,264,284,303,323,344,363,384,403,423,444,463,484,504,523,542,564,584,603,623,644,664,684,703,724,743,763,783,803,823,844,864,883,903,923,943,965,983,1005,1023,1044,1064,1083,1103,1124,1143,1163,1183,1204,1224,1244,1262,1283,1303,1324,1344,1364,1383,1403,1423,1444,1464,1484,1503,1523,1544,1564,1583,1603,1624,1643,1664,1683,1703,1735,1744],"xSR":741.5,"ySR":469.95,"xT1":424.9,"yT1":0,"xT2":1058.1,"yT2":0,"toosoon":0,"cond_shown":"equaldotanddens","ratio_trial":500,"smaller_num":"1","larger_num":"2","correct_side":2,"subjID":"CamiloAndresCastellanosCastro28","gender":"0","age":"9","school":"4"},{"start_time":1552054754216,"click_time":1552054755445,"finger_time":1552054754944,"fix_duration":250,"trial":13,"RT":728,"MT":501,"sideResp":2,"stimulus":"img/900/equaldotanddens/R/13_Ratio_900_L_18_R_20.png","xmouse":[763,763,763,765,770,774,776,776,776,776,776,776,776,776,776,776,776,776,776,776,776,776,776,776,776,776,776,776,776,776,776,776,776,776,776,776,785,796,807,818,832,842,855,861,867,879,895,941,965,987,1010,1016,1021,1022,1022,1023,1025,1033,1039,1039,1045,1059],"ymouse":[518,518,518,518,520,521,521,522,522,522,522,522,522,522,522,522,522,522,522,522,522,522,522,522,522,522,522,522,522,522,522,520,513,505,494,478,438,410,385,360,324,304,269,252,237,218,200,156,139,123,103,96,90,89,89,87,86,82,80,80,79,77],"timestamp_mouse":[13,47,48,68,87,108,129,149,168,188,208,228,249,268,288,309,329,348,368,389,409,429,449,468,489,508,528,549,569,589,608,628,648,668,688,708,728,748,769,788,809,829,848,868,889,908,929,948,969,988,1008,1029,1054,1069,1088,1109,1129,1148,1168,1188,1209,1229],"xSR":741.5,"ySR":469.95,"xT1":424.9,"yT1":0,"xT2":1058.1,"yT2":0,"toosoon":0,"cond_shown":"equaldotanddens","ratio_trial":900,"smaller_num":"18","larger_num":"20","correct_side":2,"subjID":"CamiloAndresCastellanosCastro28","gender":"0","age":"9","school":"4"},{"start_time":1552054757968,"click_time":1552054759225,"finger_time":1552054758585,"fix_duration":1441.7843626308625,"trial":14,"RT":617,"MT":640,"sideResp":2,"stimulus":"img/900/equaldotanddens/R/12_Ratio_900_L_18_R_20.png","xmouse":[790,790,790,790,790,790,790,790,790,790,790,790,790,790,790,790,790,790,790,790,790,790,790,790,790,790,790,790,790,790,790,790,790,790,790,790,790,790,795,803,814,825,839,860,874,891,905,920,946,957,964,971,977,986,992,1000,1012,1022,1040,1047,1052,1057,1064],"ymouse":[496,496,496,496,496,496,496,496,496,496,496,496,496,496,496,496,496,496,496,496,496,496,496,496,496,496,496,496,493,482,468,462,439,405,382,361,344,328,296,279,261,246,225,203,193,183,172,164,145,132,124,117,108,98,94,90,85,80,75,73,73,73,72],"timestamp_mouse":[17,42,57,77,96,116,137,156,177,197,216,237,256,276,297,316,336,356,377,397,417,437,457,477,497,516,536,556,576,597,617,637,657,677,696,716,736,756,778,796,816,836,856,877,896,916,936,957,977,996,1017,1036,1056,1077,1097,1116,1137,1156,1177,1196,1216,1237,1257],"xSR":741.5,"ySR":469.95,"xT1":424.9,"yT1":0,"xT2":1058.1,"yT2":0,"toosoon":0,"cond_shown":"equaldotanddens","ratio_trial":900,"smaller_num":"18","larger_num":"20","correct_side":2,"subjID":"CamiloAndresCastellanosCastro28","gender":"0","age":"9","school":"4"},{"start_time":1552054760474,"click_time":1552054761884,"finger_time":1552054761244,"fix_duration":448.6308713885484,"trial":15,"RT":770,"MT":640,"sideResp":1,"stimulus":"img/900/equaldotanddens/L/8_Ratio_900_L_20_R_18.png","xmouse":[772,776,776,777,777,777,777,777,777,777,777,777,777,777,777,777,777,777,777,777,777,777,777,777,777,777,777,777,777,777,780,781,782,783,783,783,780,778,774,770,767,763,761,756,754,752,750,749,743,740,736,730,719,684,673,666,662,660,657,656,655,652,651,647,636,625,608,586,569,534,523],"ymouse":[520,521,521,521,521,521,521,521,521,521,521,521,521,521,521,521,521,521,521,521,521,521,521,521,521,521,521,521,521,521,521,516,512,502,496,490,476,470,452,428,417,405,395,377,370,361,351,340,294,274,250,224,199,154,142,134,128,125,119,118,115,111,107,103,92,84,76,67,59,51,49],"timestamp_mouse":[14,41,49,71,90,110,131,151,170,190,209,231,250,271,289,310,331,350,371,391,411,429,451,470,491,510,531,550,571,591,611,631,650,671,690,710,730,750,770,790,810,831,850,871,890,910,930,951,972,990,1010,1031,1051,1071,1089,1110,1130,1150,1171,1190,1211,1230,1250,1269,1291,1310,1330,1350,1370,1391,1410],"xSR":741.5,"ySR":469.95,"xT1":424.9,"yT1":0,"xT2":1058.1,"yT2":0,"toosoon":0,"cond_shown":"equaldotanddens","ratio_trial":900,"smaller_num":"18","larger_num":"20","correct_side":1,"subjID":"CamiloAndresCastellanosCastro28","gender":"0","age":"9","school":"4"},{"start_time":1552054763233,"click_time":1552054764624,"finger_time":1552054763904,"fix_duration":287.5084063743003,"trial":16,"RT":671,"MT":720,"sideResp":1,"stimulus":"img/500/equaldotanddens/L/8_Ratio_500_L_8_R_4.png","xmouse":[785,785,785,785,785,785,785,785,785,785,785,785,785,785,785,785,785,785,785,785,786,787,788,788,788,789,789,789,789,790,790,790,790,790,790,784,780,776,771,767,762,746,739,730,720,698,686,678,673,665,659,655,653,651,648,640,633,619,602,587,580,573,570,567,563,549,538,530,525,524],"ymouse":[500,500,500,500,500,500,500,500,500,500,500,500,500,500,500,500,500,500,500,499,496,493,492,490,489,485,484,484,483,483,481,476,471,465,457,430,416,401,377,356,330,284,266,247,229,196,181,169,160,144,128,120,114,109,104,93,84,76,68,59,54,51,50,50,49,45,41,40,40,40],"timestamp_mouse":[19,44,51,70,91,111,132,151,170,192,211,231,251,272,292,312,331,351,372,391,411,432,451,471,492,512,531,552,572,592,612,631,651,671,692,712,731,752,772,791,812,831,852,872,891,913,931,951,971,991,1013,1031,1051,1071,1092,1111,1131,1152,1171,1191,1211,1232,1252,1271,1291,1312,1331,1352,1371,1391],"xSR":741.5,"ySR":469.95,"xT1":424.9,"yT1":0,"xT2":1058.1,"yT2":0,"toosoon":0,"cond_shown":"equaldotanddens","ratio_trial":500,"smaller_num":"4","larger_num":"8","correct_side":1,"subjID":"CamiloAndresCastellanosCastro28","gender":"0","age":"9","school":"4"},{"start_time":1552054765737,"click_time":1552054766804,"finger_time":1552054766244,"fix_duration":250,"trial":17,"RT":507,"MT":560,"sideResp":1,"stimulus":"img/250/equaldotsize/L/7_Ratio_250_L_8_R_2.png","xmouse":[761,761,761,761,761,761,761,761,761,761,761,761,761,761,761,761,761,761,761,761,761,766,769,788,809,828,835,832,827,824,814,807,801,794,790,779,775,770,764,757,739,733,729,724,719,703,690,672,653,631,586,564,542,520],"ymouse":[539,539,539,539,539,539,539,539,539,539,539,539,539,539,539,539,539,539,539,539,539,538,535,515,489,459,427,410,391,373,324,300,278,256,236,194,180,166,152,140,118,110,105,100,96,90,87,82,76,70,54,49,42,36],"timestamp_mouse":[12,36,48,67,87,107,128,147,166,188,208,227,247,268,287,307,328,348,367,387,407,427,448,467,487,507,527,547,567,586,608,627,648,667,687,708,727,748,767,787,809,827,848,867,888,908,927,948,967,987,1008,1027,1047,1067],"xSR":741.5,"ySR":469.95,"xT1":424.9,"yT1":0,"xT2":1058.1,"yT2":0,"toosoon":0,"cond_shown":"equaldotsize","ratio_trial":250,"smaller_num":"2","larger_num":"8","correct_side":1,"subjID":"CamiloAndresCastellanosCastro28","gender":"0","age":"9","school":"4"},{"start_time":1552054769167,"click_time":1552054770245,"finger_time":1552054769764,"fix_duration":1381.861360612017,"trial":18,"RT":597,"MT":481,"sideResp":1,"stimulus":"img/750/equaldotsize/L/6_Ratio_750_L_24_R_18.png","xmouse":[775,776,776,776,776,776,776,776,776,776,776,776,776,776,776,776,776,775,774,772,772,771,770,770,770,770,770,770,770,770,770,770,770,769,767,761,750,734,718,716,715,713,712,711,711,710,705,692,658,632,605,580,540,517],"ymouse":[517,517,517,517,517,517,517,517,517,517,517,517,517,517,517,516,515,514,512,506,503,500,496,492,488,486,485,482,477,455,438,418,388,367,321,296,255,198,137,116,101,90,82,76,76,75,71,64,50,43,36,28,17,12],"timestamp_mouse":[18,44,57,78,98,117,137,158,177,198,217,238,257,278,298,318,337,357,377,397,417,437,458,477,497,518,537,557,577,597,617,638,657,677,697,718,737,757,779,797,817,837,857,878,897,918,937,958,977,998,1018,1036,1058,1078],"xSR":741.5,"ySR":469.95,"xT1":424.9,"yT1":0,"xT2":1058.1,"yT2":0,"toosoon":0,"cond_shown":"equaldotsize","ratio_trial":750,"smaller_num":"18","larger_num":"24","correct_side":1,"subjID":"CamiloAndresCastellanosCastro28","gender":"0","age":"9","school":"4"},{"start_time":1552054771970,"click_time":1552054773285,"finger_time":1552054772684,"fix_duration":805.6385700769235,"trial":19,"RT":714,"MT":601,"sideResp":1,"stimulus":"img/500/randomdotsizeEA/L/5_Ratio_500_L_4_R_2.png","xmouse":[780,780,780,780,780,780,780,780,780,780,780,780,780,780,780,780,780,780,780,780,780,780,780,780,780,780,781,783,784,784,784,785,785,787,788,791,793,795,799,802,804,804,800,785,773,760,745,729,699,691,680,677,669,662,662,661,657,656,651,647,643,641,635,583,548,518],"ymouse":[499,499,499,499,499,499,499,499,499,499,499,499,499,499,499,499,499,499,499,499,499,499,499,499,499,499,499,496,494,491,490,489,488,480,476,468,461,453,441,416,403,385,354,300,259,222,192,170,137,130,118,115,108,104,104,104,102,102,100,97,94,93,87,61,49,44],"timestamp_mouse":[14,41,55,75,95,115,135,155,174,195,213,235,254,274,295,314,334,355,374,395,414,435,455,474,495,514,536,554,575,595,615,634,655,674,695,714,735,755,774,794,813,834,855,875,894,915,934,954,976,994,1015,1034,1054,1075,1094,1115,1135,1155,1175,1194,1214,1234,1255,1275,1294,1314],"xSR":741.5,"ySR":469.95,"xT1":424.9,"yT1":0,"xT2":1058.1,"yT2":0,"toosoon":0,"cond_shown":"randomdotsizeEA","ratio_trial":500,"smaller_num":"2","larger_num":"4","correct_side":1,"subjID":"CamiloAndresCastellanosCastro28","gender":"0","age":"9","school":"4"},{"start_time":1552054775294,"click_time":1552054776364,"finger_time":1552054775844,"fix_duration":1307.6734078506163,"trial":20,"RT":550,"MT":520,"sideResp":1,"stimulus":"img/500/equaldotanddens/L/4_Ratio_500_L_18_R_9.png","xmouse":[782,782,782,782,782,782,782,782,782,782,782,782,782,782,782,782,782,782,782,782,782,782,784,788,800,802,811,815,817,817,815,809,803,790,782,775,763,751,716,703,689,682,669,663,655,646,629,616,592,578,563,544,525,490],"ymouse":[536,536,536,536,536,536,536,536,536,536,536,536,536,536,536,536,536,536,536,536,536,536,536,527,512,506,483,468,442,426,408,390,369,318,294,270,231,206,155,140,125,117,102,98,94,90,86,82,75,72,70,65,60,51],"timestamp_mouse":[12,35,51,71,90,111,130,151,170,191,211,231,250,271,290,311,331,350,371,390,410,431,451,470,491,510,531,550,571,590,611,630,650,670,690,710,730,751,770,790,811,830,851,870,890,911,931,951,971,990,1010,1030,1050,1070],"xSR":741.5,"ySR":469.95,"xT1":424.9,"yT1":0,"xT2":1058.1,"yT2":0,"toosoon":0,"cond_shown":"equaldotanddens","ratio_trial":500,"smaller_num":"9","larger_num":"18","correct_side":1,"subjID":"CamiloAndresCastellanosCastro28","gender":"0","age":"9","school":"4"},{"start_time":1552054778129,"click_time":1552054779525,"finger_time":1552054778784,"fix_duration":641.3044150417319,"trial":21,"RT":655,"MT":741,"sideResp":1,"stimulus":"img/250/randomdotsizeEA/L/15_Ratio_250_L_12_R_3.png","xmouse":[818,818,818,818,818,818,818,818,818,818,818,818,818,818,818,818,818,818,818,818,818,817,817,817,817,817,817,817,817,817,817,815,813,813,813,809,807,804,804,804,803,793,780,744,731,692,683,672,664,656,650,629,629,629,629,629,629,629,629,595,588,585,579,579,578,578,570,551,526,499],"ymouse":[508,508,508,508,508,508,508,508,508,508,508,508,508,508,508,508,508,508,508,508,508,508,508,507,507,506,505,503,500,498,485,473,459,436,424,391,371,356,345,335,307,288,264,213,196,131,111,87,66,48,31,1,1,1,1,1,1,1,1,1,10,14,17,17,18,18,18,18,18,18],"timestamp_mouse":[21,45,55,75,95,116,135,155,176,195,215,235,256,275,296,316,336,356,376,394,415,435,455,475,496,516,536,556,574,595,616,635,655,675,695,716,735,756,775,796,816,835,855,875,895,916,934,955,976,996,1014,1035,1056,1075,1095,1116,1135,1154,1176,1196,1216,1235,1255,1276,1296,1316,1335,1356,1375,1395],"xSR":741.5,"ySR":469.95,"xT1":424.9,"yT1":0,"xT2":1058.1,"yT2":0,"toosoon":0,"cond_shown":"randomdotsizeEA","ratio_trial":250,"smaller_num":"3","larger_num":"12","correct_side":1,"subjID":"CamiloAndresCastellanosCastro28","gender":"0","age":"9","school":"4"},{"start_time":1552054781283,"click_time":1552054782745,"finger_time":1552054781764,"fix_duration":557.1953887326706,"trial":22,"RT":481,"MT":981,"sideResp":2,"stimulus":"img/500/randomdotsizeEA/R/9_Ratio_500_L_2_R_4.png","xmouse":[819,819,819,819,819,819,819,819,819,819,819,819,819,819,819,819,819,819,819,819,819,819,819,820,820,820,818,818,818,817,816,816,816,816,816,816,816,818,825,829,834,840,848,859,863,867,870,876,885,892,898,905,912,926,934,939,950,969,1000,1014,1026,1030,1033,1034,1034,1034,1034,1034,1034,1034,1037,1041,1047,1071],"ymouse":[477,477,477,477,477,477,477,477,477,477,477,477,477,477,477,477,477,477,477,477,477,477,477,476,469,462,455,441,429,406,397,389,383,372,366,361,354,346,330,320,311,300,286,257,243,230,220,204,183,173,163,154,146,132,128,125,120,112,98,91,86,83,80,79,79,79,79,79,79,79,78,76,76,74],"timestamp_mouse":[10,22,57,62,82,101,122,141,161,181,201,222,241,262,280,302,322,342,361,381,402,422,442,461,481,502,521,542,561,581,601,621,642,662,681,701,721,741,762,781,801,822,840,862,881,901,921,941,963,980,1001,1022,1042,1062,1081,1101,1121,1141,1162,1181,1201,1222,1242,1262,1281,1300,1322,1341,1362,1381,1402,1421,1442,1462],"xSR":741.5,"ySR":469.95,"xT1":424.9,"yT1":0,"xT2":1058.1,"yT2":0,"toosoon":0,"cond_shown":"randomdotsizeEA","ratio_trial":500,"smaller_num":"2","larger_num":"4","correct_side":2,"subjID":"CamiloAndresCastellanosCastro28","gender":"0","age":"9","school":"4"},{"start_time":1552054783858,"click_time":1552054785105,"finger_time":1552054784484,"fix_duration":250,"trial":23,"RT":626,"MT":621,"sideResp":2,"stimulus":"img/750/equaldotsize/R/11_Ratio_750_L_12_R_16.png","xmouse":[781,781,781,781,781,781,781,781,781,781,781,781,781,781,781,781,781,781,781,781,781,781,781,781,781,783,785,787,790,792,793,795,796,799,804,810,820,823,835,843,861,869,878,882,891,896,899,904,913,924,929,934,937,940,953,964,977,993,1003,1012,1033,1050,1070],"ymouse":[543,543,543,543,543,543,543,543,543,543,543,543,543,543,543,543,543,543,543,543,543,543,540,538,526,521,515,510,498,483,471,462,449,438,418,402,378,370,342,324,281,260,239,223,197,185,175,166,151,133,126,120,117,114,108,103,97,91,86,82,75,70,64],"timestamp_mouse":[9,34,46,66,86,106,127,146,166,186,207,226,246,266,287,306,326,346,367,387,407,426,446,466,486,506,526,546,566,587,606,626,647,666,687,706,726,746,766,787,806,826,846,867,887,906,926,946,967,988,1006,1027,1046,1066,1087,1106,1126,1146,1167,1187,1207,1226,1247],"xSR":741.5,"ySR":469.95,"xT1":424.9,"yT1":0,"xT2":1058.1,"yT2":0,"toosoon":0,"cond_shown":"equaldotsize","ratio_trial":750,"smaller_num":"12","larger_num":"16","correct_side":2,"subjID":"CamiloAndresCastellanosCastro28","gender":"0","age":"9","school":"4"},{"start_time":1552054787033,"click_time":1552054788264,"finger_time":1552054787664,"fix_duration":1106.5724916548068,"trial":24,"RT":631,"MT":600,"sideResp":1,"stimulus":"img/250/equaldotsize/L/2_Ratio_250_L_16_R_4.png","xmouse":[815,815,815,815,815,815,815,815,815,815,815,815,815,815,815,815,815,815,815,815,815,815,815,815,815,815,815,816,817,817,817,817,817,817,817,814,810,806,800,796,786,782,777,768,756,722,703,683,662,641,629,612,604,596,591,582,580,578,576,567,533,508],"ymouse":[508,508,508,508,508,508,508,508,508,508,508,508,508,508,508,508,508,508,508,508,508,508,507,505,504,500,497,492,490,482,476,461,452,439,426,400,386,373,351,338,311,293,271,248,224,173,154,136,121,107,101,91,87,84,82,79,79,78,77,73,64,56],"timestamp_mouse":[13,39,51,72,91,112,131,151,171,191,210,232,252,271,291,312,332,351,371,392,412,431,451,471,491,512,531,552,572,591,611,631,651,672,692,712,731,751,770,791,811,831,851,872,892,912,931,951,971,991,1012,1032,1051,1072,1091,1112,1131,1152,1171,1191,1212,1230],"xSR":741.5,"ySR":469.95,"xT1":424.9,"yT1":0,"xT2":1058.1,"yT2":0,"toosoon":0,"cond_shown":"equaldotsize","ratio_trial":250,"smaller_num":"4","larger_num":"16","correct_side":1,"subjID":"CamiloAndresCastellanosCastro28","gender":"0","age":"9","school":"4"},{"start_time":1552054790259,"click_time":1552054791464,"finger_time":1552054791003,"fix_duration":1193.5020897858185,"trial":25,"RT":744,"MT":461,"sideResp":2,"stimulus":"img/900/equaldotsize/R/15_Ratio_900_L_9_R_10.png","xmouse":[788,788,788,788,788,788,788,788,788,788,788,788,788,788,788,788,788,788,788,788,788,788,788,788,788,789,790,792,794,795,796,797,798,798,798,800,800,801,804,811,822,828,835,841,857,867,881,894,917,930,954,965,975,981,992,996,1005,1011,1022,1051,1067],"ymouse":[545,545,545,545,545,545,545,545,545,545,545,545,545,545,545,545,545,545,545,545,545,545,545,545,545,545,542,536,527,522,511,505,500,495,487,481,473,456,441,422,378,356,334,312,263,238,213,191,159,143,119,112,107,104,101,100,97,95,92,80,70],"timestamp_mouse":[13,30,45,66,85,106,125,146,165,185,206,225,246,265,284,305,326,346,364,386,406,426,445,466,486,504,524,546,566,584,604,624,645,666,685,706,724,744,765,784,804,825,845,865,885,905,925,945,966,984,1004,1025,1045,1065,1087,1104,1125,1145,1165,1185,1204],"xSR":741.5,"ySR":469.95,"xT1":424.9,"yT1":0,"xT2":1058.1,"yT2":0,"toosoon":0,"cond_shown":"equaldotsize","ratio_trial":900,"smaller_num":"9","larger_num":"10","correct_side":2,"subjID":"CamiloAndresCastellanosCastro28","gender":"0","age":"9","school":"4"},{"start_time":1552054793053,"click_time":1552054794884,"finger_time":1552054794363,"fix_duration":707.9975118945969,"trial":26,"RT":1310,"MT":521,"sideResp":2,"stimulus":"img/500/randomdotsizeEA/L/7_Ratio_500_L_10_R_5.png","xmouse":[769,769,769,769,769,769,769,769,769,769,769,769,769,769,769,769,769,769,769,769,769,769,769,769,769,769,769,769,769,769,769,769,769,769,769,769,769,769,769,770,770,770,770,770,770,770,770,770,770,770,770,770,770,771,771,771,771,771,771,771,771,771,772,772,777,780,784,791,798,809,822,828,833,840,863,885,912,951,1008,1068,1096,1116,1131,1140,1151,1154,1154,1156,1156,1156,1156,1156],"ymouse":[505,505,505,505,505,505,505,505,505,505,505,505,505,505,505,505,505,505,505,505,505,505,505,505,505,505,505,505,505,505,505,505,505,505,505,505,505,505,505,503,503,502,502,502,502,502,502,502,502,502,502,502,502,500,498,495,492,490,489,486,485,484,483,482,474,468,461,451,440,424,402,392,382,372,343,324,305,279,242,200,180,164,148,135,116,111,108,106,106,103,101,98],"timestamp_mouse":[19,43,51,71,91,111,132,151,171,191,211,230,251,272,290,312,331,350,372,390,410,431,451,470,492,511,531,550,572,590,610,630,652,670,692,711,730,751,772,791,811,832,851,872,890,910,930,951,971,991,1011,1031,1052,1072,1091,1111,1132,1150,1171,1191,1212,1230,1252,1272,1291,1310,1331,1350,1371,1392,1411,1431,1452,1471,1492,1510,1530,1552,1572,1592,1611,1632,1651,1672,1692,1711,1730,1751,1772,1792,1810,1831],"xSR":741.5,"ySR":469.95,"xT1":424.9,"yT1":0,"xT2":1058.1,"yT2":0,"toosoon":0,"cond_shown":"randomdotsizeEA","ratio_trial":500,"smaller_num":"5","larger_num":"10","correct_side":1,"subjID":"CamiloAndresCastellanosCastro28","gender":"0","age":"9","school":"4"},{"start_time":1552054796950,"click_time":1552054798704,"finger_time":1552054797643,"fix_duration":865.5842772213703,"trial":27,"RT":693,"MT":1061,"sideResp":2,"stimulus":"img/750/randomdotsizeEA/R/7_Ratio_750_L_3_R_4.png","xmouse":[793,795,795,796,799,800,800,800,800,800,800,800,800,800,800,800,800,800,800,800,800,800,800,800,800,800,800,800,800,800,799,798,795,791,786,785,783,783,783,782,781,781,781,781,782,784,785,786,788,788,789,789,790,790,790,790,790,790,791,795,799,808,824,851,862,872,880,889,902,910,917,925,933,937,940,943,947,952,972,987,1003,1016,1031,1039,1054,1057,1059],"ymouse":[502,503,504,504,506,508,508,508,509,509,509,509,509,509,509,509,509,509,509,509,508,508,505,504,502,502,501,501,499,496,493,486,479,469,455,448,444,440,437,426,417,406,394,390,383,381,380,378,377,377,376,375,374,372,370,368,367,366,365,361,354,344,325,297,283,272,259,244,211,194,177,161,141,131,124,118,110,103,87,80,72,69,68,68,68,68,69],"timestamp_mouse":[35,55,74,94,114,134,154,175,194,214,234,255,273,295,313,335,354,375,395,415,434,453,473,493,514,535,553,574,594,615,633,655,674,693,713,734,753,773,795,814,834,853,874,893,914,935,954,975,995,1014,1034,1054,1075,1095,1113,1135,1155,1175,1194,1213,1233,1254,1273,1295,1313,1335,1354,1375,1395,1413,1433,1455,1475,1495,1514,1534,1555,1574,1595,1613,1635,1653,1673,1693,1714,1734,1754],"xSR":741.5,"ySR":469.95,"xT1":424.9,"yT1":0,"xT2":1058.1,"yT2":0,"toosoon":0,"cond_shown":"randomdotsizeEA","ratio_trial":750,"smaller_num":"3","larger_num":"4","correct_side":2,"subjID":"CamiloAndresCastellanosCastro28","gender":"0","age":"9","school":"4"},{"start_time":1552054799777,"click_time":1552054801644,"finger_time":1552054800645,"fix_duration":250,"trial":28,"RT":868,"MT":999,"sideResp":2,"stimulus":"img/750/equaldotsize/R/11_Ratio_750_L_12_R_16.png","xmouse":[780,780,780,780,780,780,780,780,780,780,780,780,780,780,780,780,780,780,780,780,780,780,780,780,780,780,780,780,780,780,780,780,780,780,781,782,784,784,785,786,789,794,806,830,845,859,876,890,900,904,904,906,910,918,921,927,931,933,936,938,939,941,949,980,995,1018,1040,1065,1102,1118,1131,1141,1142,1144,1144,1145,1146,1146,1147,1147,1145,1142,1141,1136,1135,1135,1134,1134,1134,1133,1133,1133,1132,1128],"ymouse":[513,513,513,513,513,513,513,513,513,513,513,513,513,513,513,513,513,513,513,513,513,513,513,513,513,513,513,513,513,513,513,513,513,513,512,510,510,509,507,506,504,498,486,460,441,422,404,384,366,341,329,318,296,264,246,229,214,202,180,173,168,163,153,142,138,134,130,127,127,127,127,127,126,125,125,125,124,124,123,121,118,114,111,103,101,101,100,100,100,100,100,100,100,97],"timestamp_mouse":[12,35,47,67,87,107,127,146,167,187,208,227,248,266,286,307,327,348,367,387,408,428,448,466,487,507,527,546,566,587,608,627,648,667,687,707,727,747,767,788,807,826,848,868,887,907,928,946,968,986,1006,1026,1046,1067,1087,1107,1127,1148,1167,1186,1207,1228,1247,1267,1286,1308,1328,1348,1367,1386,1406,1426,1448,1467,1486,1507,1527,1546,1568,1587,1607,1627,1646,1667,1687,1707,1728,1748,1768,1788,1807,1827,1847,1866],"xSR":741.5,"ySR":469.95,"xT1":424.9,"yT1":0,"xT2":1058.1,"yT2":0,"toosoon":0,"cond_shown":"equaldotsize","ratio_trial":750,"smaller_num":"12","larger_num":"16","correct_side":2,"subjID":"CamiloAndresCastellanosCastro28","gender":"0","age":"9","school":"4"},{"start_time":1552054805305,"click_time":1552054806425,"finger_time":1552054806025,"fix_duration":1178.9478658630512,"trial":29,"RT":720,"MT":400,"sideResp":1,"stimulus":"img/500/equaldotsize/L/10_Ratio_500_L_4_R_2.png","xmouse":[794,794,794,794,794,794,794,794,794,794,794,794,794,794,794,794,794,794,794,797,800,803,804,804,804,804,804,804,804,804,804,804,804,804,802,800,794,789,776,771,768,758,742,729,705,645,594,594,594,594,594,594,594,594,594,594,488],"ymouse":[533,533,533,533,533,533,533,533,533,533,533,533,533,533,533,533,533,533,533,528,524,519,516,515,515,515,515,515,515,515,515,511,507,502,491,485,465,447,399,373,344,307,230,189,139,57,2,2,2,2,2,2,2,2,2,2,4],"timestamp_mouse":[1,19,38,60,78,99,119,139,160,179,200,219,240,260,279,299,318,338,360,379,399,420,439,458,480,499,519,540,559,578,600,619,640,659,678,700,720,738,758,779,800,819,840,858,878,899,919,940,959,979,1000,1020,1040,1059,1080,1099,1120],"xSR":741.5,"ySR":469.95,"xT1":424.9,"yT1":0,"xT2":1058.1,"yT2":0,"toosoon":0,"cond_shown":"equaldotsize","ratio_trial":500,"smaller_num":"2","larger_num":"4","correct_side":1,"subjID":"CamiloAndresCastellanosCastro28","gender":"0","age":"9","school":"4"},{"start_time":1552054807954,"click_time":1552054808924,"finger_time":1552054808464,"fix_duration":487.87451777330114,"trial":30,"RT":510,"MT":460,"sideResp":2,"stimulus":"img/250/equaldotanddens/R/9_Ratio_250_L_3_R_12.png","xmouse":[777,777,777,777,777,777,777,777,777,777,777,777,777,777,777,777,777,777,777,777,777,777,778,780,788,790,794,797,802,808,821,826,833,836,845,864,874,884,894,921,934,944,948,955,966,987,1011,1044,1088],"ymouse":[499,499,499,499,499,499,499,499,499,499,499,499,499,499,499,499,499,499,499,499,499,499,499,494,476,466,454,443,431,415,381,363,331,319,285,246,228,212,193,162,150,138,133,128,124,118,114,104,91],"timestamp_mouse":[12,38,51,71,91,110,131,150,170,191,209,230,251,270,290,311,330,350,369,389,411,429,450,470,490,510,529,550,571,590,610,629,649,670,691,710,730,751,770,791,810,830,851,870,891,910,930,950,970],"xSR":741.5,"ySR":469.95,"xT1":424.9,"yT1":0,"xT2":1058.1,"yT2":0,"toosoon":0,"cond_shown":"equaldotanddens","ratio_trial":250,"smaller_num":"3","larger_num":"12","correct_side":2,"subjID":"CamiloAndresCastellanosCastro28","gender":"0","age":"9","school":"4"},{"start_time":1552054811353,"click_time":1552054812524,"finger_time":1552054811865,"fix_duration":1288.676844165811,"trial":31,"RT":512,"MT":659,"sideResp":2,"stimulus":"img/750/equaldotanddens/R/4_Ratio_750_L_15_R_20.png","xmouse":[792,792,792,792,792,792,792,792,792,792,792,792,792,792,790,790,790,790,790,790,790,790,790,790,790,793,797,799,801,807,813,821,830,844,864,873,880,885,889,900,905,911,920,926,941,952,964,980,994,1022,1028,1028,1028,1028,1028,1028,1028,1028,1063],"ymouse":[511,511,511,511,511,511,511,511,511,511,511,511,511,509,505,504,503,502,501,499,497,492,488,484,477,459,445,430,412,374,354,329,304,270,227,208,192,180,170,152,145,138,127,120,104,89,77,60,44,11,4,4,4,4,4,4,4,4,4],"timestamp_mouse":[14,41,50,70,92,111,132,151,172,191,211,231,250,270,291,311,331,351,371,392,412,431,452,471,490,512,531,552,571,592,611,630,652,672,692,711,730,750,772,793,810,831,850,871,892,910,931,951,972,992,1010,1032,1051,1071,1090,1111,1131,1151,1171],"xSR":741.5,"ySR":469.95,"xT1":424.9,"yT1":0,"xT2":1058.1,"yT2":0,"toosoon":0,"cond_shown":"equaldotanddens","ratio_trial":750,"smaller_num":"15","larger_num":"20","correct_side":2,"subjID":"CamiloAndresCastellanosCastro28","gender":"0","age":"9","school":"4"},{"start_time":1552054815266,"click_time":1552054816446,"finger_time":1552054815864,"fix_duration":1461.6916974920794,"trial":32,"RT":598,"MT":582,"sideResp":2,"stimulus":"img/750/randomdotsizeEA/R/15_Ratio_750_L_9_R_12.png","xmouse":[809,809,809,809,809,809,809,809,809,809,809,809,809,809,809,809,809,809,809,810,811,812,813,815,816,816,817,818,819,821,822,822,823,827,829,831,833,837,845,850,855,862,869,887,899,915,931,950,978,988,996,1003,1008,1020,1029,1037,1046,1055,1059],"ymouse":[509,509,509,509,509,509,509,509,509,509,509,509,509,509,509,509,509,509,509,510,509,509,506,500,496,494,491,485,479,466,460,454,447,428,415,398,375,336,291,266,245,224,206,172,153,136,119,102,80,74,70,65,64,60,59,58,58,58,58],"timestamp_mouse":[19,42,58,78,98,119,139,159,179,198,217,237,257,279,298,319,339,359,378,398,419,437,459,479,499,519,537,559,578,598,618,637,658,679,697,717,738,758,779,798,818,839,858,879,898,918,939,959,978,997,1019,1038,1059,1079,1098,1118,1139,1159,1179],"xSR":741.5,"ySR":469.95,"xT1":424.9,"yT1":0,"xT2":1058.1,"yT2":0,"toosoon":0,"cond_shown":"randomdotsizeEA","ratio_trial":750,"smaller_num":"9","larger_num":"12","correct_side":2,"subjID":"CamiloAndresCastellanosCastro28","gender":"0","age":"9","school":"4"},{"start_time":1552054819200,"click_time":1552054820145,"finger_time":1552054819763,"fix_duration":1373.822412172421,"trial":33,"RT":563,"MT":382,"sideResp":2,"stimulus":"img/250/equaldotanddens/R/12_Ratio_250_L_5_R_20.png","xmouse":[791,791,791,791,791,791,791,791,791,791,791,791,791,791,791,791,791,791,791,791,791,791,791,791,791,791,791,791,791,793,796,801,805,819,826,837,851,897,931,961,989,1016,1038,1040,1043,1049,1057,1068],"ymouse":[502,502,502,502,502,502,502,502,502,502,502,502,502,502,502,502,502,502,502,502,502,502,502,502,501,499,495,480,465,445,421,385,365,323,305,287,265,216,189,160,135,112,97,95,93,90,86,78],"timestamp_mouse":[12,23,45,64,84,103,123,144,163,183,205,224,244,263,284,304,323,344,364,384,404,424,444,464,483,504,525,544,563,584,605,623,643,664,685,704,724,744,764,784,804,823,845,863,884,903,924,944],"xSR":741.5,"ySR":469.95,"xT1":424.9,"yT1":0,"xT2":1058.1,"yT2":0,"toosoon":0,"cond_shown":"equaldotanddens","ratio_trial":250,"smaller_num":"5","larger_num":"20","correct_side":2,"subjID":"CamiloAndresCastellanosCastro28","gender":"0","age":"9","school":"4"},{"start_time":1552054821390,"click_time":1552054822664,"finger_time":1552054821924,"fix_duration":422.9179065502656,"trial":34,"RT":534,"MT":740,"sideResp":1,"stimulus":"img/750/equaldotsize/L/13_Ratio_750_L_8_R_6.png","xmouse":[807,807,807,807,807,807,807,807,807,807,807,807,807,807,807,807,807,807,807,807,807,807,807,807,807,807,807,807,807,807,807,807,807,807,807,807,807,807,807,808,809,818,842,859,875,887,893,902,903,904,901,895,878,863,845,827,806,761,735,709,667,625,577,495],"ymouse":[497,497,497,497,497,497,497,497,497,497,497,497,497,497,497,497,497,497,497,497,497,497,497,497,491,483,466,429,418,411,410,408,408,408,405,402,398,388,385,376,372,354,315,294,273,255,243,217,207,199,184,176,163,157,150,143,136,123,116,108,97,89,78,67],"timestamp_mouse":[15,33,55,74,93,114,133,155,175,193,213,235,253,275,295,314,334,354,375,394,414,434,455,475,493,514,534,555,573,594,614,634,654,674,694,715,734,755,774,795,814,834,854,873,894,914,934,954,974,995,1013,1034,1053,1074,1094,1114,1135,1154,1173,1193,1214,1234,1254,1274],"xSR":741.5,"ySR":469.95,"xT1":424.9,"yT1":0,"xT2":1058.1,"yT2":0,"toosoon":0,"cond_shown":"equaldotsize","ratio_trial":750,"smaller_num":"6","larger_num":"8","correct_side":1,"subjID":"CamiloAndresCastellanosCastro28","gender":"0","age":"9","school":"4"},{"start_time":1552054824721,"click_time":1552054826084,"finger_time":1552054825545,"fix_duration":1155.4910667005645,"trial":35,"RT":824,"MT":539,"sideResp":1,"stimulus":"img/900/randomdotsizeEA/R/6_Ratio_900_L_9_R_10.png","xmouse":[765,765,765,765,765,765,765,765,765,765,765,765,765,765,765,765,765,765,765,765,765,765,765,765,765,765,765,765,764,763,763,763,763,763,763,763,761,760,759,756,752,740,736,732,731,730,729,729,729,729,729,729,726,724,722,711,673,650,633,617,603,588,583,579,573,562,552,533,523],"ymouse":[498,498,498,498,498,498,498,498,498,498,498,498,498,498,498,498,498,498,498,498,498,498,498,498,498,498,498,498,496,494,493,493,493,493,493,493,491,488,485,482,476,461,456,449,447,439,433,423,419,413,405,397,374,360,343,319,270,239,215,193,173,146,134,130,121,109,101,89,84],"timestamp_mouse":[20,38,42,62,82,103,124,144,162,184,202,222,244,262,283,303,324,344,363,384,403,423,444,464,483,502,523,543,563,584,603,624,643,662,683,703,724,743,762,784,802,823,842,863,883,904,923,943,963,982,1003,1023,1043,1062,1083,1103,1124,1142,1163,1182,1203,1224,1242,1263,1283,1303,1323,1343,1362],"xSR":741.5,"ySR":469.95,"xT1":424.9,"yT1":0,"xT2":1058.1,"yT2":0,"toosoon":0,"cond_shown":"randomdotsizeEA","ratio_trial":900,"smaller_num":"9","larger_num":"10","correct_side":2,"subjID":"CamiloAndresCastellanosCastro28","gender":"0","age":"9","school":"4"},{"start_time":1552054828457,"click_time":1552054829444,"finger_time":1552054829024,"fix_duration":1230.175738863499,"trial":36,"RT":567,"MT":420,"sideResp":2,"stimulus":"img/750/equaldotanddens/R/4_Ratio_750_L_15_R_20.png","xmouse":[790,790,790,790,790,790,790,790,790,790,790,790,790,790,790,790,790,790,790,790,790,790,790,790,789,789,790,792,799,810,813,814,815,815,810,806,802,802,802,818,829,842,862,888,948,971,997,1028,1047,1080],"ymouse":[495,495,495,495,495,495,495,495,495,495,495,495,495,495,495,495,495,495,495,495,495,495,495,495,494,494,486,478,458,413,393,377,355,334,282,256,229,192,173,148,140,134,129,122,112,108,104,98,94,88],"timestamp_mouse":[13,35,46,66,87,107,126,146,168,188,208,226,246,267,287,307,327,346,367,386,408,426,448,467,487,508,528,548,567,588,607,627,647,667,687,707,726,748,768,788,808,826,847,867,887,907,926,948,967,987],"xSR":741.5,"ySR":469.95,"xT1":424.9,"yT1":0,"xT2":1058.1,"yT2":0,"toosoon":0,"cond_shown":"equaldotanddens","ratio_trial":750,"smaller_num":"15","larger_num":"20","correct_side":2,"subjID":"CamiloAndresCastellanosCastro28","gender":"0","age":"9","school":"4"},{"start_time":1552054831023,"click_time":1552054832264,"finger_time":1552054831724,"fix_duration":595.4283075527309,"trial":37,"RT":701,"MT":540,"sideResp":1,"stimulus":"img/500/equaldotanddens/L/7_Ratio_500_L_10_R_5.png","xmouse":[811,811,811,811,811,811,811,811,811,811,811,811,811,811,811,811,811,811,811,811,811,811,811,811,811,811,811,810,807,798,792,788,785,785,785,785,785,789,792,794,796,809,816,818,818,806,779,763,751,739,724,716,701,696,692,687,674,662,649,631,599,571,514],"ymouse":[505,505,505,505,505,505,505,505,505,505,505,505,505,505,505,505,505,505,505,505,505,505,505,505,505,505,505,505,502,490,483,478,473,472,471,466,456,430,415,402,394,362,345,326,306,281,231,208,188,172,151,141,125,119,115,112,105,101,96,90,77,67,44],"timestamp_mouse":[9,32,41,61,82,102,121,142,160,181,202,222,241,262,282,300,321,353,361,380,402,421,442,460,482,502,520,540,562,582,600,621,641,661,681,701,722,741,760,780,801,822,841,862,882,902,921,941,960,981,1001,1020,1041,1061,1082,1102,1122,1141,1161,1181,1201,1221,1241],"xSR":741.5,"ySR":469.95,"xT1":424.9,"yT1":0,"xT2":1058.1,"yT2":0,"toosoon":0,"cond_shown":"equaldotanddens","ratio_trial":500,"smaller_num":"5","larger_num":"10","correct_side":1,"subjID":"CamiloAndresCastellanosCastro28","gender":"0","age":"9","school":"4"},{"start_time":1552054834250,"click_time":1552054835623,"finger_time":1552054834664,"fix_duration":1144.3974611831527,"trial":38,"RT":414,"MT":959,"sideResp":2,"stimulus":"img/900/randomdotsizeEA/L/4_Ratio_900_L_20_R_18.png","xmouse":[801,801,801,801,801,801,801,801,801,801,801,801,801,801,801,801,801,803,807,811,812,814,815,815,814,809,805,802,800,800,800,800,800,800,806,810,824,839,864,877,889,889,887,883,880,880,880,880,880,887,895,909,927,944,983,997,1007,1013,1019,1022,1022,1025,1028,1031,1031,1031,1034,1045,1068],"ymouse":[517,515,515,514,514,514,514,514,514,514,513,513,513,513,513,512,509,502,489,474,469,463,458,450,430,419,413,408,403,402,401,399,394,391,380,374,359,345,321,301,260,242,231,222,214,214,213,213,211,201,193,183,170,157,126,106,85,67,43,34,33,30,26,25,25,25,25,33,47],"timestamp_mouse":[15,43,55,75,93,114,133,154,175,194,213,234,253,274,294,314,334,353,374,394,414,433,454,474,494,513,534,555,574,595,614,634,654,675,695,713,734,753,773,795,813,834,854,875,895,914,934,953,973,994,1013,1034,1053,1073,1094,1114,1134,1154,1175,1195,1213,1234,1254,1274,1294,1313,1335,1354,1373],"xSR":741.5,"ySR":469.95,"xT1":424.9,"yT1":0,"xT2":1058.1,"yT2":0,"toosoon":0,"cond_shown":"randomdotsizeEA","ratio_trial":900,"smaller_num":"18","larger_num":"20","correct_side":1,"subjID":"CamiloAndresCastellanosCastro28","gender":"0","age":"9","school":"4"},{"start_time":1552054837259,"click_time":1552054838744,"finger_time":1552054837764,"fix_duration":673.7535289791513,"trial":39,"RT":505,"MT":980,"sideResp":1,"stimulus":"img/500/equaldotanddens/L/5_Ratio_500_L_4_R_2.png","xmouse":[787,787,787,787,787,787,787,787,787,787,787,787,787,787,787,787,787,786,786,786,784,783,783,780,775,770,765,756,747,725,717,709,703,698,689,685,676,663,653,632,619,604,588,576,561,559,558,557,556,556,556,556,556,556,556,563,570,576,582,582,582,582,582,582,582,582,582,582,582,581,577,570,565,555,518],"ymouse":[520,520,520,520,520,520,520,520,520,520,520,520,520,520,520,520,520,518,517,515,510,507,504,500,484,466,446,426,410,361,340,318,295,277,242,225,208,186,173,142,125,108,97,88,77,76,74,74,73,73,73,73,73,73,73,79,88,94,97,97,97,97,97,97,97,97,97,97,96,90,85,79,76,72,60],"timestamp_mouse":[12,33,45,65,85,104,124,144,166,185,205,225,245,264,286,306,326,346,366,384,406,424,445,466,485,505,526,544,565,585,605,626,646,665,686,704,724,745,765,785,805,825,844,865,885,905,925,946,965,985,1005,1024,1045,1066,1085,1104,1124,1144,1165,1186,1205,1226,1245,1264,1286,1305,1325,1346,1366,1386,1405,1425,1446,1465,1485],"xSR":741.5,"ySR":469.95,"xT1":424.9,"yT1":0,"xT2":1058.1,"yT2":0,"toosoon":0,"cond_shown":"equaldotanddens","ratio_trial":500,"smaller_num":"2","larger_num":"4","correct_side":1,"subjID":"CamiloAndresCastellanosCastro28","gender":"0","age":"9","school":"4"},{"start_time":1552054841099,"click_time":1552054842244,"finger_time":1552054841744,"fix_duration":1430.0573358587594,"trial":40,"RT":645,"MT":500,"sideResp":2,"stimulus":"img/900/equaldotanddens/R/12_Ratio_900_L_18_R_20.png","xmouse":[793,793,793,793,793,793,793,793,793,793,793,793,793,793,793,793,793,793,793,793,793,793,792,789,786,785,784,782,781,780,779,777,776,776,776,776,779,794,805,827,846,868,906,930,937,950,955,969,978,988,995,1005,1018,1039,1045,1047,1051,1060],"ymouse":[545,545,545,545,545,545,545,545,545,545,545,545,545,545,545,545,545,545,545,545,545,545,543,540,535,534,532,524,518,510,499,485,447,429,411,411,373,335,314,286,262,233,183,142,129,95,76,46,34,24,17,12,8,5,5,5,5,9],"timestamp_mouse":[15,24,45,65,85,105,125,146,165,185,206,225,245,264,285,305,325,345,364,386,405,425,445,464,485,506,525,545,565,586,605,624,645,664,684,705,724,745,764,785,806,824,846,865,885,906,925,946,964,985,1005,1026,1046,1066,1086,1106,1125,1145],"xSR":741.5,"ySR":469.95,"xT1":424.9,"yT1":0,"xT2":1058.1,"yT2":0,"toosoon":0,"cond_shown":"equaldotanddens","ratio_trial":900,"smaller_num":"18","larger_num":"20","correct_side":2,"subjID":"CamiloAndresCastellanosCastro28","gender":"0","age":"9","school":"4"},{"start_time":1552054844534,"click_time":1552054845624,"finger_time":1552054845024,"fix_duration":1209.5777898891772,"trial":41,"RT":490,"MT":600,"sideResp":2,"stimulus":"img/900/equaldotanddens/R/7_Ratio_900_L_9_R_10.png","xmouse":[777,777,777,777,777,777,777,777,777,777,777,777,777,777,777,777,777,777,776,776,776,776,776,776,776,776,776,776,777,781,791,816,827,837,851,871,881,891,900,907,915,930,935,939,946,949,956,961,968,981,997,1024,1038,1049,1067],"ymouse":[502,501,501,500,500,500,500,500,500,500,500,500,500,500,500,499,497,495,493,492,490,483,478,470,460,442,424,402,375,349,323,267,242,219,192,162,151,141,134,129,124,111,106,100,93,90,87,86,85,84,83,80,78,76,70],"timestamp_mouse":[13,45,50,71,91,109,130,151,170,189,210,231,251,269,290,309,331,351,371,389,409,430,451,470,490,511,531,551,569,590,610,631,651,670,690,710,730,751,770,790,809,830,851,871,889,909,929,951,971,990,1009,1029,1050,1071,1090],"xSR":741.5,"ySR":469.95,"xT1":424.9,"yT1":0,"xT2":1058.1,"yT2":0,"toosoon":0,"cond_shown":"equaldotanddens","ratio_trial":900,"smaller_num":"9","larger_num":"10","correct_side":2,"subjID":"CamiloAndresCastellanosCastro28","gender":"0","age":"9","school":"4"},{"start_time":1552054847818,"click_time":1552054848764,"finger_time":1552054848264,"fix_duration":1013.3628108661436,"trial":42,"RT":446,"MT":500,"sideResp":1,"stimulus":"img/500/equaldotsize/L/8_Ratio_500_L_8_R_4.png","xmouse":[790,790,790,790,790,790,790,790,790,790,790,790,790,790,790,790,790,790,790,790,790,790,784,778,768,754,734,731,730,729,726,717,711,705,695,685,654,641,628,613,601,589,572,560,548,538,527,503],"ymouse":[518,518,518,518,518,517,516,514,513,513,513,513,513,512,511,511,508,507,502,498,489,482,457,440,421,397,355,338,320,301,278,246,227,206,184,160,110,91,77,63,56,49,41,36,31,27,24,22],"timestamp_mouse":[20,37,46,66,86,105,126,147,166,186,207,225,245,266,287,307,326,345,366,385,405,426,446,466,485,506,526,546,566,586,606,626,646,667,687,706,726,746,765,785,807,827,846,866,885,906,927,946],"xSR":741.5,"ySR":469.95,"xT1":424.9,"yT1":0,"xT2":1058.1,"yT2":0,"toosoon":0,"cond_shown":"equaldotsize","ratio_trial":500,"smaller_num":"4","larger_num":"8","correct_side":1,"subjID":"CamiloAndresCastellanosCastro28","gender":"0","age":"9","school":"4"},{"start_time":1552054850999,"click_time":1552054851847,"finger_time":1552054851425,"fix_duration":992.4696916622787,"trial":43,"RT":426,"MT":422,"sideResp":2,"stimulus":"img/900/randomdotsizeEA/L/2_Ratio_900_L_20_R_18.png","xmouse":[804,804,804,804,804,804,804,804,804,804,804,804,804,804,804,804,804,804,802,798,796,795,805,812,817,820,820,820,824,828,831,841,852,882,904,932,964,1036,1066,1087,1102,1116,1126],"ymouse":[563,563,563,563,563,563,563,563,563,563,563,563,563,563,560,557,551,524,505,486,475,459,429,411,397,383,372,354,344,335,324,308,293,264,248,228,206,157,136,122,111,101,95],"timestamp_mouse":[11,34,48,67,86,106,127,147,167,186,208,227,247,268,287,307,327,347,366,387,408,426,448,466,487,508,528,547,566,586,606,627,647,667,687,707,728,747,767,787,806,827,848],"xSR":741.5,"ySR":469.95,"xT1":424.9,"yT1":0,"xT2":1058.1,"yT2":0,"toosoon":0,"cond_shown":"randomdotsizeEA","ratio_trial":900,"smaller_num":"18","larger_num":"20","correct_side":1,"subjID":"CamiloAndresCastellanosCastro28","gender":"0","age":"9","school":"4"},{"start_time":1552054853039,"click_time":1552054854347,"finger_time":1552054853427,"fix_duration":250,"trial":44,"RT":388,"MT":920,"sideResp":2,"stimulus":"img/500/randomdotsizeEA/L/11_Ratio_500_L_12_R_6.png","xmouse":[769,769,769,769,769,769,769,769,769,769,769,769,769,769,769,769,769,769,767,760,754,738,730,725,722,719,719,719,719,719,718,718,718,717,717,717,718,721,728,737,765,786,809,835,861,900,913,922,928,934,945,959,973,991,1006,1023,1025,1026,1029,1031,1036,1040,1044,1049,1053,1063],"ymouse":[504,504,504,504,504,504,504,504,504,504,504,504,504,504,504,502,497,486,479,458,435,396,380,368,358,338,330,326,318,312,299,296,292,291,290,290,290,290,290,290,287,287,283,278,269,240,224,206,188,161,122,105,92,81,74,68,68,68,68,68,68,68,68,68,67,67],"timestamp_mouse":[12,35,46,66,87,107,126,147,166,186,207,227,248,266,286,309,327,347,368,388,407,428,448,467,487,507,526,547,566,588,608,627,647,667,687,708,726,747,768,788,807,826,848,867,887,908,926,947,968,988,1007,1026,1047,1068,1087,1107,1127,1146,1166,1187,1207,1227,1246,1266,1287,1307],"xSR":741.5,"ySR":469.95,"xT1":424.9,"yT1":0,"xT2":1058.1,"yT2":0,"toosoon":0,"cond_shown":"randomdotsizeEA","ratio_trial":500,"smaller_num":"6","larger_num":"12","correct_side":1,"subjID":"CamiloAndresCastellanosCastro28","gender":"0","age":"9","school":"4"},{"start_time":1552054856732,"click_time":1552054857846,"finger_time":1552054857266,"fix_duration":1325.0420845917552,"trial":45,"RT":534,"MT":580,"sideResp":2,"stimulus":"img/500/equaldotsize/R/9_Ratio_500_L_2_R_4.png","xmouse":[791,791,791,791,791,791,791,791,791,791,791,791,791,791,791,791,791,791,791,791,791,791,791,791,791,791,791,791,792,793,795,796,797,798,799,802,808,821,839,856,883,894,904,914,925,940,947,953,962,976,1008,1020,1030,1041,1057,1082],"ymouse":[490,489,488,487,486,484,484,484,484,484,484,484,484,484,484,484,484,484,481,480,478,477,475,474,472,470,468,467,465,462,458,455,454,451,449,444,431,410,381,350,293,269,244,222,195,170,159,152,146,138,118,110,104,97,86,76],"timestamp_mouse":[15,33,53,74,95,114,134,155,174,193,215,234,253,275,294,315,333,353,374,394,414,435,454,475,494,514,534,553,573,594,615,633,654,674,695,714,734,754,775,795,814,834,855,874,895,915,934,955,975,994,1015,1033,1054,1074,1095,1114],"xSR":741.5,"ySR":469.95,"xT1":424.9,"yT1":0,"xT2":1058.1,"yT2":0,"toosoon":0,"cond_shown":"equaldotsize","ratio_trial":500,"smaller_num":"2","larger_num":"4","correct_side":2,"subjID":"CamiloAndresCastellanosCastro28","gender":"0","age":"9","school":"4"},{"start_time":1552054859723,"click_time":1552054860587,"finger_time":1552054860285,"fix_duration":797.0136330565368,"trial":46,"RT":562,"MT":302,"sideResp":2,"stimulus":"img/250/equaldotanddens/R/12_Ratio_250_L_5_R_20.png","xmouse":[800,799,798,798,798,798,798,798,798,798,798,798,798,798,799,799,799,799,799,799,799,799,799,799,799,800,816,830,847,868,890,930,945,956,962,966,982,994,1005,1018,1031,1058,1069,1078],"ymouse":[526,527,529,529,529,529,529,529,529,529,529,528,525,524,523,523,523,523,523,523,523,523,523,523,523,518,500,483,461,437,408,350,328,309,295,284,257,238,214,190,166,126,108,92],"timestamp_mouse":[2,23,43,63,84,102,124,143,164,183,204,222,244,263,283,302,323,343,362,384,402,422,443,464,482,502,523,544,562,582,602,624,643,664,683,703,724,743,763,784,803,824,843,863],"xSR":741.5,"ySR":469.95,"xT1":424.9,"yT1":0,"xT2":1058.1,"yT2":0,"toosoon":0,"cond_shown":"equaldotanddens","ratio_trial":250,"smaller_num":"5","larger_num":"20","correct_side":2,"subjID":"CamiloAndresCastellanosCastro28","gender":"0","age":"9","school":"4"},{"start_time":1552054861806,"click_time":1552054862647,"finger_time":1552054862487,"fix_duration":318.7033582406661,"trial":47,"RT":681,"MT":160,"sideResp":2,"stimulus":"img/750/equaldotanddens/R/7_Ratio_750_L_3_R_4.png","xmouse":[781,781,781,781,781,781,781,781,781,781,781,781,781,781,781,781,781,781,781,781,781,781,781,781,781,781,782,785,786,786,787,788,793,806,817,839,877,986,1032,1065,1088,1108,1123],"ymouse":[505,508,509,509,509,509,509,509,509,509,509,509,509,509,509,509,509,509,509,509,509,509,509,509,509,509,508,503,502,501,499,496,491,477,465,442,399,270,212,160,130,102,82],"timestamp_mouse":[1,21,39,60,79,101,121,141,160,179,200,220,240,260,281,301,320,340,360,380,399,421,440,460,481,499,519,540,560,581,600,621,640,660,681,700,720,740,759,780,801,819,841],"xSR":741.5,"ySR":469.95,"xT1":424.9,"yT1":0,"xT2":1058.1,"yT2":0,"toosoon":0,"cond_shown":"equaldotanddens","ratio_trial":750,"smaller_num":"3","larger_num":"4","correct_side":2,"subjID":"CamiloAndresCastellanosCastro28","gender":"0","age":"9","school":"4"},{"start_time":1552054864450,"click_time":1552054865307,"finger_time":1552054864946,"fix_duration":762.8245775041202,"trial":48,"RT":496,"MT":361,"sideResp":2,"stimulus":"img/500/randomdotsizeEA/R/9_Ratio_500_L_2_R_4.png","xmouse":[791,791,791,791,791,791,791,791,791,791,791,791,791,791,791,791,791,791,791,792,793,796,799,803,817,830,844,869,885,899,923,930,936,943,957,964,972,975,987,1015,1033,1047,1061],"ymouse":[506,506,506,506,506,506,506,506,506,506,506,506,506,506,506,506,506,506,506,505,502,499,492,485,460,445,425,389,369,349,313,299,284,271,242,228,210,206,182,135,109,93,78],"timestamp_mouse":[35,36,57,75,97,117,136,156,175,196,217,235,255,277,296,316,337,355,376,395,416,435,457,476,496,516,535,555,576,597,616,637,657,676,696,716,736,756,777,796,817,836,857],"xSR":741.5,"ySR":469.95,"xT1":424.9,"yT1":0,"xT2":1058.1,"yT2":0,"toosoon":0,"cond_shown":"randomdotsizeEA","ratio_trial":500,"smaller_num":"2","larger_num":"4","correct_side":2,"subjID":"CamiloAndresCastellanosCastro28","gender":"0","age":"9","school":"4"},{"start_time":1552054867248,"click_time":1552054868307,"finger_time":1552054867846,"fix_duration":1261.8352866654095,"trial":49,"RT":598,"MT":461,"sideResp":2,"stimulus":"img/900/randomdotsizeEA/L/10_Ratio_900_L_20_R_18.png","xmouse":[747,747,747,747,747,747,747,747,747,747,747,747,747,747,747,747,747,747,747,747,747,747,747,747,747,749,753,758,774,798,812,831,849,866,897,913,926,939,953,969,979,986,993,1002,1013,1017,1022,1024,1027,1031,1035,1045,1059],"ymouse":[535,535,535,535,535,535,535,535,535,535,535,535,535,535,535,535,535,535,535,535,535,535,535,535,535,533,529,521,499,469,454,439,423,407,371,349,327,306,276,234,209,184,162,142,117,110,103,101,97,96,94,92,90],"timestamp_mouse":[18,39,57,78,98,118,137,159,179,199,219,238,257,279,299,319,339,358,377,398,418,439,458,479,498,517,539,559,579,598,618,639,658,679,699,718,738,758,779,799,818,838,859,879,899,918,937,958,977,999,1018,1038,1059],"xSR":741.5,"ySR":469.95,"xT1":424.9,"yT1":0,"xT2":1058.1,"yT2":0,"toosoon":0,"cond_shown":"randomdotsizeEA","ratio_trial":900,"smaller_num":"18","larger_num":"20","correct_side":1,"subjID":"CamiloAndresCastellanosCastro28","gender":"0","age":"9","school":"4"},{"start_time":1552054870762,"click_time":1552054872107,"finger_time":1552054871446,"fix_duration":1455.0235885350849,"trial":50,"RT":684,"MT":661,"sideResp":2,"stimulus":"img/250/randomdotsizeEA/R/4_Ratio_250_L_3_R_12.png","xmouse":[763,763,763,763,763,763,763,763,763,763,763,763,763,763,763,763,763,763,763,763,763,763,763,763,763,763,763,763,763,763,770,772,778,791,808,819,831,834,839,859,872,896,928,984,1029,1029,1029,1029,1029,1029,1029,1029,1029,1029,1029,1029,1029,1029,1029,1180,1171,1164,1161,1160,1160,1160,1159,1157],"ymouse":[511,511,511,511,511,511,511,511,511,511,511,511,511,511,511,511,511,511,511,511,511,511,511,511,511,511,511,511,511,511,507,505,498,481,445,419,390,361,334,270,236,187,131,58,11,11,11,11,11,11,11,11,11,11,11,11,11,11,11,18,32,44,54,55,55,55,55,57],"timestamp_mouse":[12,36,43,65,85,104,125,144,164,183,205,225,244,264,285,304,324,344,363,385,404,424,444,465,483,504,523,545,564,585,605,624,645,665,684,704,724,744,765,784,804,824,844,863,885,903,923,944,964,985,1005,1024,1045,1064,1084,1104,1124,1144,1165,1185,1203,1224,1245,1264,1284,1305,1324,1345],"xSR":741.5,"ySR":469.95,"xT1":424.9,"yT1":0,"xT2":1058.1,"yT2":0,"toosoon":0,"cond_shown":"randomdotsizeEA","ratio_trial":250,"smaller_num":"3","larger_num":"12","correct_side":2,"subjID":"CamiloAndresCastellanosCastro28","gender":"0","age":"9","school":"4"},{"start_time":1552054873965,"click_time":1552054875047,"finger_time":1552054874525,"fix_duration":716.8350816051316,"trial":51,"RT":560,"MT":522,"sideResp":2,"stimulus":"img/250/randomdotsizeEA/R/11_Ratio_250_L_3_R_12.png","xmouse":[779,779,779,779,779,779,779,779,779,779,779,779,779,778,778,778,777,777,777,777,777,777,777,777,777,777,782,791,804,832,841,850,854,860,863,864,866,872,878,896,909,921,934,954,987,1002,1016,1027,1035,1045,1049,1052,1058,1061,1065],"ymouse":[505,505,505,505,505,505,505,505,505,505,505,505,505,505,505,504,504,504,504,504,504,504,504,504,503,497,491,480,464,427,415,402,393,380,371,368,365,357,346,319,302,282,261,228,182,163,145,132,121,111,108,107,103,101,98],"timestamp_mouse":[9,36,40,62,81,102,122,141,162,181,200,222,241,261,282,302,322,341,362,381,401,421,442,461,481,501,521,542,560,582,601,620,641,661,682,700,722,741,761,782,800,822,841,862,882,900,921,941,961,982,1000,1020,1041,1060,1082],"xSR":741.5,"ySR":469.95,"xT1":424.9,"yT1":0,"xT2":1058.1,"yT2":0,"toosoon":0,"cond_shown":"randomdotsizeEA","ratio_trial":250,"smaller_num":"3","larger_num":"12","correct_side":2,"subjID":"CamiloAndresCastellanosCastro28","gender":"0","age":"9","school":"4"},{"start_time":1552054876576,"click_time":1552054878327,"finger_time":1552054877327,"fix_duration":907.6885159053224,"trial":52,"RT":751,"MT":1000,"sideResp":1,"stimulus":"img/900/equaldotsize/L/2_Ratio_900_L_20_R_18.png","xmouse":[798,798,798,798,798,798,798,798,798,798,798,798,798,798,798,798,798,798,798,798,798,798,798,798,798,798,798,803,809,813,817,818,819,824,827,832,836,839,847,850,860,864,874,900,951,976,998,1013,1029,1034,1038,1040,1042,1044,1044,1045,1046,1046,1046,1046,1046,1046,1046,1046,1046,1046,1041,1023,979,957,930,923,915,914,914,913,909,902,858,831,798,758,708,627,591,556,532,516],"ymouse":[517,517,517,517,517,517,517,517,517,517,517,517,517,517,517,517,517,517,517,517,517,517,517,517,517,517,517,511,504,500,496,494,494,487,482,477,472,468,456,453,441,436,426,402,355,330,307,289,263,252,240,230,220,211,207,202,199,195,194,194,194,194,194,194,194,192,188,184,172,167,162,160,156,156,156,156,156,153,146,138,132,124,108,87,77,67,63,61],"timestamp_mouse":[13,36,50,70,91,110,130,150,170,189,211,231,251,271,290,309,330,350,369,390,410,430,451,473,489,509,530,551,570,590,610,629,649,670,690,710,730,751,771,790,811,830,849,871,890,910,930,950,970,990,1010,1030,1050,1070,1089,1110,1130,1150,1171,1191,1209,1230,1249,1271,1290,1310,1330,1350,1370,1390,1411,1430,1450,1471,1490,1510,1530,1551,1571,1589,1611,1630,1651,1671,1689,1711,1730,1751],"xSR":741.5,"ySR":469.95,"xT1":424.9,"yT1":0,"xT2":1058.1,"yT2":0,"toosoon":0,"cond_shown":"equaldotsize","ratio_trial":900,"smaller_num":"18","larger_num":"20","correct_side":1,"subjID":"CamiloAndresCastellanosCastro28","gender":"0","age":"9","school":"4"},{"start_time":1552054880272,"click_time":1552054882506,"finger_time":1552054881907,"fix_duration":1025.053257805792,"trial":53,"RT":1635,"MT":599,"sideResp":2,"stimulus":"img/750/randomdotsizeEA/R/12_Ratio_750_L_3_R_4.png","xmouse":[800,800,800,800,800,800,800,800,800,800,800,800,800,800,800,800,800,800,800,800,788,773,761,755,755,755,755,755,755,755,755,755,755,755,755,755,755,755,755,755,755,755,755,755,755,755,755,755,755,755,755,755,755,755,755,755,755,755,755,755,755,755,755,755,755,755,755,755,755,755,755,755,755,755,755,755,755,755,762,773,787,803,818,830,838,838,838,852,898,923,944,959,973,1001,1040,1058,1105,1166,1199,1222,1222,1222,1222,1222,1222,1222,1222,1221,1199,1182,1159,1139],"ymouse":[513,513,513,513,513,513,513,513,513,513,513,513,513,513,513,513,513,513,513,513,510,508,505,504,504,504,504,504,504,504,504,504,504,504,504,504,504,504,504,504,504,504,504,504,504,504,504,504,504,504,504,504,504,504,504,504,504,504,504,504,504,504,504,504,504,504,504,504,504,504,504,504,504,504,504,504,504,504,493,483,470,453,436,418,379,336,320,267,191,168,155,148,145,141,135,133,126,112,101,94,93,93,93,93,93,93,93,91,81,74,68,62],"timestamp_mouse":[15,40,55,74,95,113,134,154,175,195,214,234,254,273,294,314,335,354,375,395,415,434,454,475,495,515,534,554,573,594,614,634,655,673,693,715,734,753,775,794,815,835,855,873,893,915,934,954,973,994,1014,1034,1055,1074,1095,1113,1133,1154,1175,1195,1213,1233,1254,1274,1294,1315,1333,1355,1375,1394,1413,1434,1455,1474,1493,1513,1535,1555,1574,1594,1614,1635,1655,1673,1693,1714,1734,1754,1774,1794,1814,1835,1855,1875,1893,1913,1934,1954,1973,1994,2014,2034,2054,2075,2094,2115,2134,2154,2175,2194,2214,2234],"xSR":741.5,"ySR":469.95,"xT1":424.9,"yT1":0,"xT2":1058.1,"yT2":0,"toosoon":0,"cond_shown":"randomdotsizeEA","ratio_trial":750,"smaller_num":"3","larger_num":"4","correct_side":2,"subjID":"CamiloAndresCastellanosCastro28","gender":"0","age":"9","school":"4"},{"start_time":1552054883906,"click_time":1552054885026,"finger_time":1552054884627,"fix_duration":536.3179628496899,"trial":54,"RT":721,"MT":399,"sideResp":2,"stimulus":"img/900/equaldotsize/R/14_Ratio_900_L_18_R_20.png","xmouse":[779,779,779,779,779,779,780,780,780,780,780,780,780,780,780,780,780,780,780,780,780,780,780,780,780,780,780,780,780,780,780,780,781,788,801,823,869,947,991,1028,1058,1072,1073,1069,1068,1068,1068,1070,1072,1073,1073,1074,1074,1078,1082,1091,1097],"ymouse":[546,546,546,546,546,546,544,540,538,536,535,534,534,534,534,534,534,534,534,534,534,534,534,534,534,534,534,534,534,534,534,532,525,516,502,483,441,364,320,281,244,218,180,168,161,155,145,134,130,127,126,125,124,119,114,104,97],"timestamp_mouse":[10,21,40,61,80,99,120,140,160,181,199,220,241,260,280,300,320,339,360,379,400,421,440,461,480,501,520,539,561,579,601,619,640,659,680,701,721,740,760,781,801,821,841,859,881,899,920,940,960,980,1000,1021,1040,1060,1079,1099,1119],"xSR":741.5,"ySR":469.95,"xT1":424.9,"yT1":0,"xT2":1058.1,"yT2":0,"toosoon":0,"cond_shown":"equaldotsize","ratio_trial":900,"smaller_num":"18","larger_num":"20","correct_side":2,"subjID":"CamiloAndresCastellanosCastro28","gender":"0","age":"9","school":"4"},{"start_time":1552054886937,"click_time":1552054888185,"finger_time":1552054887506,"fix_duration":1129.9819724823035,"trial":55,"RT":569,"MT":679,"sideResp":2,"stimulus":"img/500/equaldotanddens/R/14_Ratio_500_L_5_R_10.png","xmouse":[794,794,794,794,794,794,794,794,794,794,794,794,794,794,794,794,794,794,794,794,794,795,795,795,795,796,817,829,839,846,857,859,859,859,858,858,858,860,865,871,888,903,916,942,959,978,1023,1041,1059,1069,1076,1077,1077,1078,1081,1084,1085,1085,1085,1085,1086,1088,1090],"ymouse":[514,514,514,514,514,514,514,514,514,514,514,514,514,514,514,514,514,514,514,514,513,512,512,512,512,510,486,473,459,447,425,406,382,356,317,260,234,215,198,184,163,152,143,133,126,122,118,118,118,118,117,117,116,116,113,108,105,102,101,101,100,100,99],"timestamp_mouse":[12,38,49,70,90,108,129,148,170,190,209,228,248,270,290,309,330,349,369,388,409,429,448,469,490,509,530,548,569,588,609,628,649,668,689,710,729,749,769,789,809,829,848,868,890,910,930,949,968,989,1009,1029,1049,1070,1090,1109,1128,1149,1170,1190,1209,1230,1248],"xSR":741.5,"ySR":469.95,"xT1":424.9,"yT1":0,"xT2":1058.1,"yT2":0,"toosoon":0,"cond_shown":"equaldotanddens","ratio_trial":500,"smaller_num":"5","larger_num":"10","correct_side":2,"subjID":"CamiloAndresCastellanosCastro28","gender":"0","age":"9","school":"4"},{"start_time":1552054889810,"click_time":1552054890827,"finger_time":1552054890326,"fix_duration":503.21402681635897,"trial":56,"RT":516,"MT":501,"sideResp":2,"stimulus":"img/500/equaldotsize/R/1_Ratio_500_L_9_R_18.png","xmouse":[791,791,791,791,791,791,791,791,791,791,791,791,791,791,791,791,791,791,791,791,791,796,800,802,806,808,814,818,822,831,842,852,877,888,898,907,912,922,932,935,946,961,969,980,991,1001,1012,1036,1052,1055,1071],"ymouse":[510,510,510,510,510,510,510,510,510,510,510,510,510,510,510,510,510,510,510,510,509,498,489,480,470,461,442,434,424,404,389,374,337,317,300,282,269,241,219,213,194,173,163,151,138,126,116,92,77,74,62],"timestamp_mouse":[17,36,56,75,96,117,136,156,176,196,216,237,257,276,296,315,337,357,375,397,416,436,456,477,495,516,536,556,576,596,615,637,656,676,696,717,736,756,777,796,816,837,856,875,896,915,937,956,976,997,1017],"xSR":741.5,"ySR":469.95,"xT1":424.9,"yT1":0,"xT2":1058.1,"yT2":0,"toosoon":0,"cond_shown":"equaldotsize","ratio_trial":500,"smaller_num":"9","larger_num":"18","correct_side":2,"subjID":"CamiloAndresCastellanosCastro28","gender":"0","age":"9","school":"4"},{"start_time":1552054892873,"click_time":1552054893747,"finger_time":1552054893186,"fix_duration":1147.6237784781754,"trial":57,"RT":313,"MT":561,"sideResp":2,"stimulus":"img/900/equaldotanddens/R/9_Ratio_900_L_18_R_20.png","xmouse":[811,811,812,812,812,812,812,812,812,812,812,812,812,813,814,815,815,816,816,816,816,816,816,817,821,823,830,838,858,870,883,898,913,937,948,959,980,992,1020,1030,1039,1043,1048,1076],"ymouse":[477,477,477,477,477,477,477,477,477,477,477,477,477,475,473,469,458,450,432,424,416,409,400,392,368,355,326,303,258,237,217,199,181,155,142,131,114,106,90,87,85,84,84,84],"timestamp_mouse":[24,34,57,73,94,113,134,153,174,194,212,233,254,273,294,312,332,353,374,393,413,434,453,473,493,514,532,552,573,592,613,634,653,675,693,713,732,753,774,792,813,834,853,874],"xSR":741.5,"ySR":469.95,"xT1":424.9,"yT1":0,"xT2":1058.1,"yT2":0,"toosoon":0,"cond_shown":"equaldotanddens","ratio_trial":900,"smaller_num":"18","larger_num":"20","correct_side":2,"subjID":"CamiloAndresCastellanosCastro28","gender":"0","age":"9","school":"4"},{"start_time":1552054897700,"click_time":1552054898947,"finger_time":1552054898446,"fix_duration":1471.9635722185035,"trial":58,"RT":746,"MT":501,"sideResp":2,"stimulus":"img/250/equaldotsize/R/13_Ratio_250_L_2_R_8.png","xmouse":[803,803,803,803,803,803,803,803,803,803,803,803,803,803,803,803,803,803,803,803,803,803,803,803,803,803,803,803,803,803,803,803,803,803,803,803,800,792,785,776,765,753,742,742,744,751,760,779,792,812,836,858,908,927,945,963,981,996,1001,1009,1021,1035,1076],"ymouse":[514,514,514,514,514,514,514,514,514,514,514,514,514,514,514,514,514,514,514,514,514,514,514,514,514,514,514,514,514,514,514,514,514,514,513,505,491,464,445,427,406,384,341,324,309,296,279,257,247,236,222,210,181,170,158,147,132,114,107,98,87,76,43],"timestamp_mouse":[13,25,46,67,86,105,125,146,166,185,207,226,245,266,285,305,327,345,366,386,407,425,445,467,487,507,527,546,566,587,606,626,646,666,686,706,726,746,766,786,807,826,847,865,886,905,926,946,965,986,1006,1027,1046,1065,1086,1107,1127,1146,1165,1186,1207,1226,1247],"xSR":741.5,"ySR":469.95,"xT1":424.9,"yT1":0,"xT2":1058.1,"yT2":0,"toosoon":0,"cond_shown":"equaldotsize","ratio_trial":250,"smaller_num":"2","larger_num":"8","correct_side":2,"subjID":"CamiloAndresCastellanosCastro28","gender":"0","age":"9","school":"4"},{"start_time":1552054901287,"click_time":1552054902526,"finger_time":1552054901926,"fix_duration":1238.4129152674197,"trial":59,"RT":639,"MT":600,"sideResp":2,"stimulus":"img/900/equaldotanddens/R/3_Ratio_900_L_9_R_10.png","xmouse":[807,807,806,801,796,791,787,783,781,781,781,781,781,781,781,781,781,781,781,781,781,781,781,781,781,781,781,781,781,781,785,792,799,806,817,818,818,820,824,832,836,838,839,839,839,841,846,858,896,916,938,957,975,1002,1011,1017,1023,1030,1036,1039,1043,1051,1066],"ymouse":[536,536,535,527,522,516,509,500,498,497,497,497,497,497,497,497,497,497,497,497,497,497,497,497,497,497,497,497,497,496,488,478,462,438,396,381,368,354,342,319,306,298,287,269,259,248,234,211,170,153,140,129,119,108,106,105,102,99,96,94,93,91,89],"timestamp_mouse":[1,19,42,59,79,99,119,139,160,180,199,218,238,259,280,299,319,338,359,380,398,418,439,459,480,499,520,540,560,579,599,620,639,658,678,699,720,738,759,779,799,820,839,860,879,899,919,939,959,978,998,1019,1038,1059,1079,1099,1120,1139,1160,1180,1199,1218,1239],"xSR":741.5,"ySR":469.95,"xT1":424.9,"yT1":0,"xT2":1058.1,"yT2":0,"toosoon":0,"cond_shown":"equaldotanddens","ratio_trial":900,"smaller_num":"9","larger_num":"10","correct_side":2,"subjID":"CamiloAndresCastellanosCastro28","gender":"0","age":"9","school":"4"},{"start_time":1552054904567,"click_time":1552054906087,"finger_time":1552054905307,"fix_duration":819.2368697411472,"trial":60,"RT":740,"MT":780,"sideResp":1,"stimulus":"img/250/equaldotsize/L/14_Ratio_250_L_12_R_3.png","xmouse":[805,805,805,805,805,805,805,805,805,805,805,805,805,805,805,805,805,805,805,805,805,805,805,805,805,805,805,805,805,805,805,802,797,790,787,787,786,785,780,774,766,748,719,683,665,647,625,608,588,588,588,588,588,588,588,588,588,588,588,588,588,588,588,588,588,588,588,588,588,588,588,588,408,417,423,431],"ymouse":[503,503,503,503,503,503,503,503,503,503,503,503,503,503,503,503,503,503,503,503,503,503,503,503,503,503,503,503,503,503,497,493,486,475,471,470,468,466,456,442,421,392,342,258,200,138,79,39,2,2,2,2,2,2,2,2,2,2,2,2,2,2,2,2,2,2,2,2,2,2,2,2,1,16,25,34],"timestamp_mouse":[32,39,59,80,100,120,139,160,179,200,218,240,260,279,299,319,339,359,380,398,420,440,458,480,500,520,540,560,579,600,620,638,659,679,700,720,740,760,780,798,819,840,859,880,898,919,938,960,978,999,1019,1039,1059,1079,1098,1118,1140,1158,1180,1199,1219,1238,1259,1279,1300,1319,1340,1360,1380,1400,1419,1439,1459,1480,1499,1520],"xSR":741.5,"ySR":469.95,"xT1":424.9,"yT1":0,"xT2":1058.1,"yT2":0,"toosoon":0,"cond_shown":"equaldotsize","ratio_trial":250,"smaller_num":"3","larger_num":"12","correct_side":1,"subjID":"CamiloAndresCastellanosCastro28","gender":"0","age":"9","school":"4"},{"start_time":1552054908198,"click_time":1552054909167,"finger_time":1552054908807,"fix_duration":250,"trial":61,"RT":609,"MT":360,"sideResp":1,"stimulus":"img/500/randomdotsizeEA/L/7_Ratio_500_L_10_R_5.png","xmouse":[777,777,777,777,777,777,777,777,777,777,777,777,777,777,777,777,777,777,777,777,777,777,777,777,777,777,777,777,779,781,781,777,762,751,746,745,745,745,735,711,680,669,663,660,656,648,632,544,476],"ymouse":[504,504,504,504,504,504,504,504,504,503,502,502,501,501,501,501,501,501,501,501,501,501,501,501,501,501,501,501,494,478,459,424,383,366,354,342,322,273,249,229,209,201,186,176,164,148,130,62,16],"timestamp_mouse":[11,36,47,69,88,108,129,149,167,187,209,229,248,267,288,308,327,348,369,388,407,427,448,469,489,509,528,549,569,588,609,629,649,667,688,709,728,748,768,788,808,827,848,867,888,908,928,948,969],"xSR":741.5,"ySR":469.95,"xT1":424.9,"yT1":0,"xT2":1058.1,"yT2":0,"toosoon":0,"cond_shown":"randomdotsizeEA","ratio_trial":500,"smaller_num":"5","larger_num":"10","correct_side":1,"subjID":"CamiloAndresCastellanosCastro28","gender":"0","age":"9","school":"4"},{"start_time":1552054912897,"click_time":1552054914127,"finger_time":1552054913448,"fix_duration":848.522398614929,"trial":62,"RT":551,"MT":679,"sideResp":2,"stimulus":"img/250/randomdotsizeEA/R/10_Ratio_250_L_4_R_16.png","xmouse":[793,793,793,794,794,794,794,794,794,794,794,794,794,794,794,794,794,794,794,794,794,794,793,789,782,777,775,767,760,751,742,733,715,709,705,699,697,697,702,716,731,750,797,814,825,832,840,849,877,888,896,903,926,936,936,936,936,936,936,936,936,1088],"ymouse":[521,520,520,520,520,520,520,520,520,520,520,520,520,520,520,520,520,520,520,520,520,520,513,504,497,490,486,469,458,447,435,425,409,402,395,384,381,381,379,375,367,352,309,286,269,254,24