[{"start_time":1552054116415,"click_time":1552054122459,"finger_time":1552054116427,"fix_duration":250,"trial":0,"RT":12,"MT":6032,"sideResp":2,"stimulus":[],"xmouse":[503,503,503,503,503,503,503,503,503,503,503,503,503,503,503,503,503,503,503,503,503,503,503,505,510,519,522,534,541,557,572,590,610,628,659,672,686,705,715,732,736,739,742,745,751,752,754,759,765,782,798,805,806,806,806,806,806,806,806,805,803,802,802,800,795,792,791,791,788,788,788,788,788,788,788,788,788,788,788,788,788,788,788,788,788,788,788,788,788,788,788,788,788,788,793,795,795,796,797,797,797,797,797,797,797,797,797,797,797,797,797,797,797,797,797,797,797,797,797,797,797,797,797,797,797,797,797,797,797,797,797,797,797,797,797,797,797,797,797,797,797,797,797,797,797,797,797,797,797,797,797,797,797,797,797,797,797,797,797,797,797,797,797,797,797,797,797,797,797,797,797,797,797,797,797,797,797,797,797,797,797,797,797,797,797,797,797,797,797,797,797,797,797,797,797,797,797,797,797,797,797,797,797,797,797,797,797,797,797,797,797,797,797,797,797,797,797,797,797,797,797,797,797,797,797,797,797,797,797,797,797,797,797,797,797,797,797,796,792,790,790,790,790,790,790,790,790,790,790,790,790,790,790,790,790,790,790,790,790,790,791,801,815,831,865,880,894,913,948,980,987,990,992,992,993,994,994,996,998,1005,1011,1016,1021,1026,1041,1052,1058,1058,1059,1061,1062,1064,1065,1065,1065,1065,1065,1065,1065,1066,1069,1075,1087],"ymouse":[518,518,518,518,518,518,518,518,518,518,518,518,518,518,518,518,518,518,518,518,518,518,518,518,519,523,524,530,534,545,555,568,582,593,614,623,632,643,649,657,658,660,661,662,663,663,664,664,664,661,657,654,654,653,651,649,648,647,646,644,642,641,640,637,627,620,618,617,612,612,612,612,612,612,612,612,612,612,612,612,612,612,612,612,612,612,612,612,612,612,612,612,612,612,618,619,620,623,624,624,624,624,624,624,624,624,624,624,624,624,624,624,624,624,624,624,624,624,624,624,624,624,624,624,624,624,624,624,624,624,624,624,624,624,624,624,624,624,624,624,624,624,624,624,624,624,624,624,624,624,624,624,624,624,624,624,624,624,624,624,624,624,624,624,624,624,624,624,624,624,624,624,624,624,624,624,624,624,624,624,624,624,624,624,624,624,624,624,624,624,624,624,624,624,624,624,624,624,624,624,624,624,624,624,624,624,624,624,624,624,624,624,624,624,624,624,624,624,624,624,624,624,624,624,624,624,624,624,624,624,624,624,624,624,624,624,624,624,609,601,599,596,595,595,595,595,595,595,595,595,595,595,595,595,595,595,595,595,595,595,588,569,551,528,482,458,429,395,331,285,270,263,257,254,250,246,241,233,226,208,197,189,181,175,165,158,155,154,153,144,133,123,118,117,116,116,116,116,116,114,108,102,96],"timestamp_mouse":[11,25,44,64,83,103,123,142,162,183,204,223,242,262,283,304,323,344,364,382,403,422,443,463,483,502,524,544,563,583,603,623,643,662,683,703,723,742,762,782,802,823,843,863,883,904,924,944,964,982,1002,1022,1043,1063,1082,1103,1124,1144,1163,1182,1202,1224,1244,1262,1283,1303,1323,1343,1363,1383,1403,1423,1443,1463,1484,1503,1524,1543,1564,1583,1602,1623,1643,1663,1682,1703,1723,1743,1764,1783,1804,1824,1843,1863,1883,1903,1922,1942,1964,1983,2002,2024,2044,2063,2084,2103,2123,2144,2163,2184,2203,2223,2243,2262,2282,2302,2322,2342,2364,2383,2403,2422,2443,2463,2484,2503,2523,2542,2564,2583,2604,2623,2644,2664,2684,2703,2722,2744,2763,2783,2803,2823,2843,2863,2883,2903,2924,2943,2962,2983,3003,3022,3043,3063,3083,3103,3124,3143,3163,3184,3202,3222,3244,3264,3283,3302,3324,3344,3364,3382,3403,3424,3443,3464,3482,3503,3524,3544,3564,3582,3602,3624,3644,3663,3683,3702,3722,3743,3763,3782,3803,3823,3844,3864,3883,3903,3923,3942,3963,3983,4003,4022,4042,4064,4084,4103,4122,4142,4162,4184,4202,4224,4244,4263,4284,4302,4323,4344,4364,4382,4403,4424,4443,4463,4484,4502,4523,4543,4563,4583,4603,4624,4644,4662,4684,4703,4723,4743,4764,4783,4803,4822,4843,4864,4883,4903,4923,4944,4962,4982,5003,5024,5043,5063,5083,5102,5124,5144,5163,5184,5202,5222,5243,5263,5283,5304,5323,5344,5363,5382,5403,5423,5442,5463,5483,5504,5523,5542,5564,5583,5604,5623,5643,5664,5683,5702,5724,5743,5763,5783,5804,5823,5844,5864,5883,5904,5923,5943,5963,5983,6003,6023,6043],"xSR":458.5,"ySR":477.75,"xT1":255.09999999999997,"yT1":0,"xT2":661.9,"yT2":0,"toosoon":0,"cond_shown":"Congruent","ratio_trial":200,"L_num":5,"L_den":10,"R_num":14,"R_den":20,"correct_side":2,"subjID":"DylanCastillo13","gender":"0","age":"8","school":"4","test":{"fix_dur":[250,1500],"timestim":1000,"targets_dim":[100,100],"targets_relative_coord":[0.3,0.7],"size_stim":[880,420],"start_dim":[100,100],"size_start":[300,300],"size_fix":60,"samplingrate":20,"img_types":["Congruent","Incongruent"],"ratios":[100,200,300],"rep_conds":19,"nTrials":120,"trials_to_rest":500,"Trials_order":[56,84,106,51,94,12,113,49,86,59,66,32,36,104,38,40,9,44,73,91,33,80,24,31,98,67,93,85,47,57,102,39,87,70,53,4,42,103,28,72,69,11,25,109,119,14,112,52,58,55,62,96,111,79,114,90,77,54,61,35,10,0,30,37,108,7,83,107,18,88,101,115,117,71,97,6,45,82,8,60,75,2,116,5,118,100,68,17,92,50,16,23,64,22,1,110,20,43,29,65,19,78,89,26,76,48,34,74,41,15,27,81,21,63,105,99,13,95,46,3],"cond_shown":["Congruent","Congruent","Congruent","Incongruent","Congruent","Congruent","Incongruent","Incongruent","Congruent","Incongruent","Congruent","Congruent","Congruent","Congruent","Congruent","Congruent","Incongruent","Congruent","Incongruent","Incongruent","Incongruent","Congruent","Congruent","Incongruent","Congruent","Incongruent","Incongruent","Incongruent","Incongruent","Incongruent","Congruent","Incongruent","Incongruent","Congruent","Incongruent","Congruent","Congruent","Incongruent","Congruent","Congruent","Incongruent","Incongruent","Incongruent","Incongruent","Incongruent","Congruent","Congruent","Congruent","Congruent","Incongruent","Congruent","Congruent","Incongruent","Incongruent","Congruent","Congruent","Incongruent","Congruent","Incongruent","Incongruent","Congruent","Congruent","Congruent","Incongruent","Congruent","Incongruent","Incongruent","Incongruent","Congruent","Congruent","Incongruent","Incongruent","Incongruent","Incongruent","Incongruent","Congruent","Incongruent","Congruent","Congruent","Congruent","Incongruent","Congruent","Congruent","Incongruent","Congruent","Congruent","Congruent","Incongruent","Congruent","Congruent","Congruent","Incongruent","Congruent","Congruent","Incongruent","Congruent","Congruent","Incongruent","Incongruent","Incongruent","Incongruent","Congruent","Incongruent","Congruent","Congruent","Congruent","Congruent","Congruent","Incongruent","Incongruent","Incongruent","Incongruent","Incongruent","Incongruent","Incongruent","Incongruent","Incongruent","Incongruent","Congruent","Incongruent"],"ratio_trial":[200,100,300,200,300,100,300,100,200,300,100,200,100,200,200,300,200,200,100,100,200,200,100,100,200,100,200,100,300,200,100,200,200,300,300,300,100,100,300,100,200,300,100,100,300,200,300,300,300,100,200,100,200,100,100,100,300,100,100,300,300,100,100,100,100,100,300,300,100,300,300,100,200,300,100,100,200,300,200,100,200,200,200,300,300,300,200,300,200,200,300,300,300,300,100,200,200,100,300,300,100,100,300,200,300,100,300,200,300,200,200,200,200,200,200,200,100,300,300,200],"left_num":[5,11,11,4,20,7,2,3,9,13,8,9,2,12,8,2,14,3,4,12,7,8,6,3,5,9,14,3,4,4,10,14,3,1,1,20,6,3,24,15,4,8,2,9,13,3,3,11,11,2,3,11,7,1,6,11,4,15,6,4,1,10,7,9,11,4,13,4,7,24,4,12,9,2,9,10,7,12,20,7,9,3,3,13,4,1,8,4,16,12,3,4,20,5,6,5,20,6,8,4,2,3,4,9,4,3,4,12,1,7,1,9,4,7,4,14,8,1,24,3],"right_num":[14,4,2,1,9,15,6,7,13,12,2,13,6,6,7,10,6,9,8,2,4,2,5,11,14,20,6,11,2,1,3,6,11,11,2,13,5,8,2,13,6,9,8,13,12,9,4,2,4,8,9,6,6,8,5,6,8,13,11,2,8,3,9,6,6,8,12,2,9,2,2,9,8,6,14,3,14,2,9,9,8,14,14,12,1,19,7,6,9,6,2,6,14,7,13,14,9,7,14,2,8,4,2,4,2,4,2,6,2,12,3,8,6,6,1,12,6,3,2,1],"left_den":[10,22,22,30,25,14,4,9,30,26,16,30,5,20,15,20,30,12,8,30,15,15,20,5,10,10,30,5,20,30,25,30,4,5,2,25,20,5,30,25,5,10,4,15,26,12,6,22,22,4,12,22,15,2,20,22,5,25,10,20,30,25,14,18,22,8,26,20,14,30,20,24,15,4,15,25,10,24,25,14,15,10,6,26,10,3,15,5,30,15,6,5,25,25,10,10,25,10,10,20,4,20,20,20,5,20,5,15,2,10,2,15,5,15,30,30,16,2,30,10],"right_den":[20,10,10,3,18,25,30,30,26,15,5,26,12,15,21,25,9,20,20,4,6,6,25,22,20,25,9,22,4,3,10,9,20,22,10,26,25,16,4,26,10,18,20,26,15,20,5,10,20,20,20,15,9,20,25,15,16,26,22,4,24,10,15,10,15,20,15,4,15,4,4,15,10,30,28,10,28,10,15,15,10,28,20,15,10,30,21,12,27,10,10,12,28,14,26,20,15,14,28,4,20,16,4,16,4,16,4,10,10,24,10,10,10,9,3,18,10,15,4,2],"correct_side":[2,1,1,2,1,2,1,1,2,2,1,2,2,1,1,2,2,2,1,2,2,1,1,1,2,1,2,1,2,2,1,2,1,2,1,1,1,1,1,1,1,1,1,1,2,2,2,1,1,1,2,1,2,1,1,1,1,1,1,2,2,1,2,2,1,1,2,2,2,1,2,2,2,1,1,1,1,1,1,2,2,2,2,2,1,2,1,1,1,1,1,1,1,2,1,2,1,1,1,2,1,2,2,1,1,2,1,1,1,1,1,2,1,2,2,2,2,1,1,2],"img_shown":["img2/200/Congruent/R/C_Dist_200_LN_5_LD_10_RN_14_RD_20_1.png","img2/100/Congruent/L/C_Dist_100_LN_11_LD_22_RN_4_RD_10_0.png","img2/300/Congruent/L/C_Dist_300_LN_11_LD_22_RN_2_RD_10_0.png","img2/200/Incongruent/R/I_Dist_200_LN_4_LD_30_RN_1_RD_3_1.png","img2/300/Congruent/L/C_Dist_300_LN_20_LD_25_RN_9_RD_18_0.png","img2/100/Congruent/R/C_Dist_100_LN_7_LD_14_RN_15_RD_25_1.png","img2/300/Incongruent/L/I_Dist_300_LN_2_LD_4_RN_6_RD_30_0.png","img2/100/Incongruent/L/I_Dist_100_LN_3_LD_9_RN_7_RD_30_0.png","img2/200/Congruent/R/C_Dist_200_LN_9_LD_30_RN_13_RD_26_1.png","img2/300/Incongruent/R/I_Dist_300_LN_13_LD_26_RN_12_RD_15_1.png","img2/100/Congruent/L/C_Dist_100_LN_8_LD_16_RN_2_RD_5_0.png","img2/200/Congruent/R/C_Dist_200_LN_9_LD_30_RN_13_RD_26_1.png","img2/100/Congruent/R/C_Dist_100_LN_2_LD_5_RN_6_RD_12_1.png","img2/200/Congruent/L/C_Dist_200_LN_12_LD_20_RN_6_RD_15_0.png","img2/200/Congruent/L/C_Dist_200_LN_8_LD_15_RN_7_RD_21_0.png","img2/300/Congruent/R/C_Dist_300_LN_2_LD_20_RN_10_RD_25_1.png","img2/200/Incongruent/R/I_Dist_200_LN_14_LD_30_RN_6_RD_9_1.png","img2/200/Congruent/R/C_Dist_200_LN_3_LD_12_RN_9_RD_20_1.png","img2/100/Incongruent/L/I_Dist_100_LN_4_LD_8_RN_8_RD_20_0.png","img2/100/Incongruent/R/I_Dist_100_LN_12_LD_30_RN_2_RD_4_1.png","img2/200/Incongruent/R/I_Dist_200_LN_7_LD_15_RN_4_RD_6_1.png","img2/200/Congruent/L/C_Dist_200_LN_8_LD_15_RN_2_RD_6_0.png","img2/100/Congruent/L/C_Dist_100_LN_6_LD_20_RN_5_RD_25_0.png","img2/100/Incongruent/L/I_Dist_100_LN_3_LD_5_RN_11_RD_22_0.png","img2/200/Congruent/R/C_Dist_200_LN_5_LD_10_RN_14_RD_20_1.png","img2/100/Incongruent/L/I_Dist_100_LN_9_LD_10_RN_20_RD_25_0.png","img2/200/Incongruent/R/I_Dist_200_LN_14_LD_30_RN_6_RD_9_1.png","img2/100/Incongruent/L/I_Dist_100_LN_3_LD_5_RN_11_RD_22_0.png","img2/300/Incongruent/R/I_Dist_300_LN_4_LD_20_RN_2_RD_4_1.png","img2/200/Incongruent/R/I_Dist_200_LN_4_LD_30_RN_1_RD_3_1.png","img2/100/Congruent/L/C_Dist_100_LN_10_LD_25_RN_3_RD_10_0.png","img2/200/Incongruent/R/I_Dist_200_LN_14_LD_30_RN_6_RD_9_1.png","img2/200/Incongruent/L/I_Dist_200_LN_3_LD_4_RN_11_RD_20_0.png","img2/300/Congruent/R/C_Dist_300_LN_1_LD_5_RN_11_RD_22_1.png","img2/300/Incongruent/L/I_Dist_300_LN_1_LD_2_RN_2_RD_10_0.png","img2/300/Congruent/L/C_Dist_300_LN_20_LD_25_RN_13_RD_26_0.png","img2/100/Congruent/L/C_Dist_100_LN_6_LD_20_RN_5_RD_25_0.png","img2/100/Incongruent/L/I_Dist_100_LN_3_LD_5_RN_8_RD_16_0.png","img2/300/Congruent/L/C_Dist_300_LN_24_LD_30_RN_2_RD_4_0.png","img2/100/Congruent/L/C_Dist_100_LN_15_LD_25_RN_13_RD_26_0.png","img2/200/Incongruent/L/I_Dist_200_LN_4_LD_5_RN_6_RD_10_0.png","img2/300/Incongruent/L/I_Dist_300_LN_8_LD_10_RN_9_RD_18_0.png","img2/100/Incongruent/L/I_Dist_100_LN_2_LD_4_RN_8_RD_20_0.png","img2/100/Incongruent/L/I_Dist_100_LN_9_LD_15_RN_13_RD_26_0.png","img2/300/Incongruent/R/I_Dist_300_LN_13_LD_26_RN_12_RD_15_1.png","img2/200/Congruent/R/C_Dist_200_LN_3_LD_12_RN_9_RD_20_1.png","img2/300/Congruent/R/C_Dist_300_LN_3_LD_6_RN_4_RD_5_1.png","img2/300/Congruent/L/C_Dist_300_LN_11_LD_22_RN_2_RD_10_0.png","img2/300/Congruent/L/C_Dist_300_LN_11_LD_22_RN_4_RD_20_0.png","img2/100/Incongruent/L/I_Dist_100_LN_2_LD_4_RN_8_RD_20_0.png","img2/200/Congruent/R/C_Dist_200_LN_3_LD_12_RN_9_RD_20_1.png","img2/100/Congruent/L/C_Dist_100_LN_11_LD_22_RN_6_RD_15_0.png","img2/200/Incongruent/R/I_Dist_200_LN_7_LD_15_RN_6_RD_9_1.png","img2/100/Incongruent/L/I_Dist_100_LN_1_LD_2_RN_8_RD_20_0.png","img2/100/Congruent/L/C_Dist_100_LN_6_LD_20_RN_5_RD_25_0.png","img2/100/Congruent/L/C_Dist_100_LN_11_LD_22_RN_6_RD_15_0.png","img2/300/Incongruent/L/I_Dist_300_LN_4_LD_5_RN_8_RD_16_0.png","img2/100/Congruent/L/C_Dist_100_LN_15_LD_25_RN_13_RD_26_0.png","img2/100/Incongruent/L/I_Dist_100_LN_6_LD_10_RN_11_RD_22_0.png","img2/300/Incongruent/R/I_Dist_300_LN_4_LD_20_RN_2_RD_4_1.png","img2/300/Congruent/R/C_Dist_300_LN_1_LD_30_RN_8_RD_24_1.png","img2/100/Congruent/L/C_Dist_100_LN_10_LD_25_RN_3_RD_10_0.png","img2/100/Congruent/R/C_Dist_100_LN_7_LD_14_RN_9_RD_15_1.png","img2/100/Incongruent/R/I_Dist_100_LN_9_LD_18_RN_6_RD_10_1.png","img2/100/Congruent/L/C_Dist_100_LN_11_LD_22_RN_6_RD_15_0.png","img2/100/Incongruent/L/I_Dist_100_LN_4_LD_8_RN_8_RD_20_0.png","img2/300/Incongruent/R/I_Dist_300_LN_13_LD_26_RN_12_RD_15_1.png","img2/300/Incongruent/R/I_Dist_300_LN_4_LD_20_RN_2_RD_4_1.png","img2/100/Congruent/R/C_Dist_100_LN_7_LD_14_RN_9_RD_15_1.png","img2/300/Congruent/L/C_Dist_300_LN_24_LD_30_RN_2_RD_4_0.png","img2/300/Incongruent/R/I_Dist_300_LN_4_LD_20_RN_2_RD_4_1.png","img2/100/Incongruent/R/I_Dist_100_LN_12_LD_24_RN_9_RD_15_1.png","img2/200/Incongruent/R/I_Dist_200_LN_9_LD_15_RN_8_RD_10_1.png","img2/300/Incongruent/L/I_Dist_300_LN_2_LD_4_RN_6_RD_30_0.png","img2/100/Incongruent/L/I_Dist_100_LN_9_LD_15_RN_14_RD_28_0.png","img2/100/Congruent/L/C_Dist_100_LN_10_LD_25_RN_3_RD_10_0.png","img2/200/Incongruent/L/I_Dist_200_LN_7_LD_10_RN_14_RD_28_0.png","img2/300/Congruent/L/C_Dist_300_LN_12_LD_24_RN_2_RD_10_0.png","img2/200/Congruent/L/C_Dist_200_LN_20_LD_25_RN_9_RD_15_0.png","img2/100/Congruent/R/C_Dist_100_LN_7_LD_14_RN_9_RD_15_1.png","img2/200/Incongruent/R/I_Dist_200_LN_9_LD_15_RN_8_RD_10_1.png","img2/200/Congruent/R/C_Dist_200_LN_3_LD_10_RN_14_RD_28_1.png","img2/200/Congruent/R/C_Dist_200_LN_3_LD_6_RN_14_RD_20_1.png","img2/300/Incongruent/R/I_Dist_300_LN_13_LD_26_RN_12_RD_15_1.png","img2/300/Congruent/L/C_Dist_300_LN_4_LD_10_RN_1_RD_10_0.png","img2/300/Congruent/R/C_Dist_300_LN_1_LD_3_RN_19_RD_30_1.png","img2/200/Congruent/L/C_Dist_200_LN_8_LD_15_RN_7_RD_21_0.png","img2/300/Incongruent/L/I_Dist_300_LN_4_LD_5_RN_6_RD_12_0.png","img2/200/Congruent/L/C_Dist_200_LN_16_LD_30_RN_9_RD_27_0.png","img2/200/Congruent/L/C_Dist_200_LN_12_LD_15_RN_6_RD_10_0.png","img2/300/Congruent/L/C_Dist_300_LN_3_LD_6_RN_2_RD_10_0.png","img2/300/Incongruent/L/I_Dist_300_LN_4_LD_5_RN_6_RD_12_0.png","img2/300/Congruent/L/C_Dist_300_LN_20_LD_25_RN_14_RD_28_0.png","img2/300/Congruent/R/C_Dist_300_LN_5_LD_25_RN_7_RD_14_1.png","img2/100/Incongruent/L/I_Dist_100_LN_6_LD_10_RN_13_RD_26_0.png","img2/200/Congruent/R/C_Dist_200_LN_5_LD_10_RN_14_RD_20_1.png","img2/200/Congruent/L/C_Dist_200_LN_20_LD_25_RN_9_RD_15_0.png","img2/100/Incongruent/L/I_Dist_100_LN_6_LD_10_RN_7_RD_14_0.png","img2/300/Incongruent/L/I_Dist_300_LN_8_LD_10_RN_14_RD_28_0.png","img2/300/Incongruent/R/I_Dist_300_LN_4_LD_20_RN_2_RD_4_1.png","img2/100/Incongruent/L/I_Dist_100_LN_2_LD_4_RN_8_RD_20_0.png","img2/100/Congruent/R/C_Dist_100_LN_3_LD_20_RN_4_RD_16_1.png","img2/300/Incongruent/R/I_Dist_300_LN_4_LD_20_RN_2_RD_4_1.png","img2/200/Congruent/L/C_Dist_200_LN_9_LD_20_RN_4_RD_16_0.png","img2/300/Congruent/L/C_Dist_300_LN_4_LD_5_RN_2_RD_4_0.png","img2/100/Congruent/R/C_Dist_100_LN_3_LD_20_RN_4_RD_16_1.png","img2/300/Congruent/L/C_Dist_300_LN_4_LD_5_RN_2_RD_4_0.png","img2/200/Congruent/L/C_Dist_200_LN_12_LD_15_RN_6_RD_10_0.png","img2/300/Incongruent/L/I_Dist_300_LN_1_LD_2_RN_2_RD_10_0.png","img2/200/Incongruent/L/I_Dist_200_LN_7_LD_10_RN_12_RD_24_0.png","img2/200/Incongruent/L/I_Dist_200_LN_1_LD_2_RN_3_RD_10_0.png","img2/200/Incongruent/R/I_Dist_200_LN_9_LD_15_RN_8_RD_10_1.png","img2/200/Incongruent/L/I_Dist_200_LN_4_LD_5_RN_6_RD_10_0.png","img2/200/Incongruent/R/I_Dist_200_LN_7_LD_15_RN_6_RD_9_1.png","img2/200/Incongruent/R/I_Dist_200_LN_4_LD_30_RN_1_RD_3_1.png","img2/200/Incongruent/R/I_Dist_200_LN_14_LD_30_RN_12_RD_18_1.png","img2/100/Incongruent/R/I_Dist_100_LN_8_LD_16_RN_6_RD_10_1.png","img2/300/Incongruent/L/I_Dist_300_LN_1_LD_2_RN_3_RD_15_0.png","img2/300/Congruent/L/C_Dist_300_LN_24_LD_30_RN_2_RD_4_0.png","img2/200/Incongruent/R/I_Dist_200_LN_3_LD_10_RN_1_RD_2_1.png"],"dist100_C":[["C_Dist_100_LN_10_LD_25_RN_3_RD_10_0.png","C_Dist_100_LN_11_LD_22_RN_4_RD_10_0.png","C_Dist_100_LN_11_LD_22_RN_6_RD_15_0.png","C_Dist_100_LN_15_LD_25_RN_13_RD_26_0.png","C_Dist_100_LN_3_LD_6_RN_2_RD_5_0.png","C_Dist_100_LN_6_LD_20_RN_5_RD_25_0.png","C_Dist_100_LN_8_LD_16_RN_2_RD_5_0.png","C_Dist_100_LN_9_LD_15_RN_8_RD_16_0.png"],["C_Dist_100_LN_1_LD_2_RN_18_RD_30_1.png","C_Dist_100_LN_1_LD_2_RN_3_RD_5_1.png","C_Dist_100_LN_12_LD_30_RN_13_RD_26_1.png","C_Dist_100_LN_2_LD_5_RN_11_RD_22_1.png","C_Dist_100_LN_2_LD_5_RN_6_RD_12_1.png","C_Dist_100_LN_3_LD_20_RN_4_RD_16_1.png","C_Dist_100_LN_4_LD_10_RN_15_RD_30_1.png","C_Dist_100_LN_4_LD_8_RN_6_RD_10_1.png","C_Dist_100_LN_6_LD_12_RN_15_RD_25_1.png","C_Dist_100_LN_7_LD_14_RN_15_RD_25_1.png","C_Dist_100_LN_7_LD_14_RN_9_RD_15_1.png"]],"dist100_I":[["I_Dist_100_LN_1_LD_2_RN_8_RD_20_0.png","I_Dist_100_LN_2_LD_4_RN_6_RD_15_0.png","I_Dist_100_LN_2_LD_4_RN_8_RD_20_0.png","I_Dist_100_LN_3_LD_5_RN_11_RD_22_0.png","I_Dist_100_LN_3_LD_5_RN_8_RD_16_0.png","I_Dist_100_LN_3_LD_6_RN_4_RD_10_0.png","I_Dist_100_LN_3_LD_9_RN_7_RD_30_0.png","I_Dist_100_LN_4_LD_8_RN_8_RD_20_0.png","I_Dist_100_LN_6_LD_10_RN_11_RD_22_0.png","I_Dist_100_LN_6_LD_10_RN_13_RD_26_0.png","I_Dist_100_LN_6_LD_10_RN_7_RD_14_0.png","I_Dist_100_LN_9_LD_10_RN_20_RD_25_0.png","I_Dist_100_LN_9_LD_15_RN_13_RD_26_0.png","I_Dist_100_LN_9_LD_15_RN_14_RD_28_0.png"],["I_Dist_100_LN_10_LD_25_RN_8_RD_16_1.png","I_Dist_100_LN_10_LD_25_RN_9_RD_18_1.png","I_Dist_100_LN_11_LD_22_RN_9_RD_15_1.png","I_Dist_100_LN_12_LD_24_RN_9_RD_15_1.png","I_Dist_100_LN_12_LD_30_RN_2_RD_4_1.png","I_Dist_100_LN_13_LD_26_RN_12_RD_20_1.png","I_Dist_100_LN_13_LD_26_RN_6_RD_10_1.png","I_Dist_100_LN_17_LD_30_RN_10_RD_15_1.png","I_Dist_100_LN_6_LD_12_RN_3_RD_5_1.png","I_Dist_100_LN_8_LD_16_RN_6_RD_10_1.png","I_Dist_100_LN_8_LD_20_RN_1_RD_2_1.png","I_Dist_100_LN_9_LD_18_RN_6_RD_10_1.png"]],"dist100_S":[["E_Dist_100_LN_2_LD_12_RN_2_RD_30_0.png","E_Dist_100_LN_6_LD_10_RN_6_RD_12_0.png"],["E_Dist_100_LN_6_LD_12_RN_6_RD_10_1.png"]],"dist200_C":[["C_Dist_200_LN_11_LD_22_RN_3_RD_10_0.png","C_Dist_200_LN_12_LD_15_RN_6_RD_10_0.png","C_Dist_200_LN_12_LD_20_RN_6_RD_15_0.png","C_Dist_200_LN_14_LD_28_RN_6_RD_20_0.png","C_Dist_200_LN_15_LD_25_RN_4_RD_10_0.png","C_Dist_200_LN_16_LD_20_RN_12_RD_20_0.png","C_Dist_200_LN_16_LD_30_RN_9_RD_27_0.png","C_Dist_200_LN_20_LD_25_RN_9_RD_15_0.png","C_Dist_200_LN_21_LD_30_RN_2_RD_4_0.png","C_Dist_200_LN_4_LD_10_RN_3_RD_15_0.png","C_Dist_200_LN_4_LD_8_RN_3_RD_10_0.png","C_Dist_200_LN_6_LD_15_RN_3_RD_15_0.png","C_Dist_200_LN_7_LD_21_RN_2_RD_15_0.png","C_Dist_200_LN_8_LD_15_RN_2_RD_6_0.png","C_Dist_200_LN_8_LD_15_RN_3_RD_9_0.png","C_Dist_200_LN_8_LD_15_RN_7_RD_21_0.png","C_Dist_200_LN_9_LD_20_RN_4_RD_16_0.png"],["C_Dist_200_LN_1_LD_2_RN_21_RD_30_1.png","C_Dist_200_LN_13_LD_26_RN_14_RD_20_1.png","C_Dist_200_LN_3_LD_10_RN_11_RD_22_1.png","C_Dist_200_LN_3_LD_10_RN_14_RD_28_1.png","C_Dist_200_LN_3_LD_10_RN_7_RD_14_1.png","C_Dist_200_LN_3_LD_12_RN_9_RD_20_1.png","C_Dist_200_LN_3_LD_6_RN_14_RD_20_1.png","C_Dist_200_LN_5_LD_10_RN_14_RD_20_1.png","C_Dist_200_LN_6_LD_12_RN_7_RD_10_1.png","C_Dist_200_LN_6_LD_20_RN_11_RD_22_1.png","C_Dist_200_LN_7_LD_15_RN_18_RD_27_1.png","C_Dist_200_LN_9_LD_30_RN_13_RD_26_1.png"]],"dist200_I":[["I_Dist_200_LN_1_LD_2_RN_3_RD_10_0.png","I_Dist_200_LN_1_LD_3_RN_2_RD_15_0.png","I_Dist_200_LN_3_LD_4_RN_11_RD_20_0.png","I_Dist_200_LN_4_LD_5_RN_6_RD_10_0.png","I_Dist_200_LN_4_LD_6_RN_14_RD_30_0.png","I_Dist_200_LN_7_LD_10_RN_12_RD_24_0.png","I_Dist_200_LN_7_LD_10_RN_14_RD_28_0.png","I_Dist_200_LN_7_LD_10_RN_8_RD_16_0.png"],["I_Dist_200_LN_11_LD_20_RN_3_RD_4_1.png","I_Dist_200_LN_14_LD_30_RN_12_RD_18_1.png","I_Dist_200_LN_14_LD_30_RN_6_RD_9_1.png","I_Dist_200_LN_3_LD_10_RN_1_RD_2_1.png","I_Dist_200_LN_4_LD_30_RN_1_RD_3_1.png","I_Dist_200_LN_6_LD_20_RN_3_RD_6_1.png","I_Dist_200_LN_7_LD_15_RN_4_RD_6_1.png","I_Dist_200_LN_7_LD_15_RN_6_RD_9_1.png","I_Dist_200_LN_9_LD_15_RN_8_RD_10_1.png"]],"dist200_S":[["E_Dist_200_LN_3_LD_6_RN_3_RD_10_0.png"],["E_Dist_200_LN_3_LD_10_RN_3_RD_6_1.png"]],"dist300_C":[["C_Dist_300_LN_11_LD_22_RN_1_RD_5_0.png","C_Dist_300_LN_11_LD_22_RN_2_RD_10_0.png","C_Dist_300_LN_11_LD_22_RN_4_RD_20_0.png","C_Dist_300_LN_12_LD_24_RN_2_RD_10_0.png","C_Dist_300_LN_18_LD_20_RN_9_RD_15_0.png","C_Dist_300_LN_20_LD_25_RN_13_RD_26_0.png","C_Dist_300_LN_20_LD_25_RN_14_RD_28_0.png","C_Dist_300_LN_20_LD_25_RN_5_RD_10_0.png","C_Dist_300_LN_20_LD_25_RN_8_RD_16_0.png","C_Dist_300_LN_20_LD_25_RN_9_RD_18_0.png","C_Dist_300_LN_24_LD_30_RN_2_RD_4_0.png","C_Dist_300_LN_24_LD_30_RN_8_RD_16_0.png","C_Dist_300_LN_3_LD_6_RN_2_RD_10_0.png","C_Dist_300_LN_4_LD_10_RN_1_RD_10_0.png","C_Dist_300_LN_4_LD_5_RN_2_RD_4_0.png","C_Dist_300_LN_8_LD_16_RN_1_RD_5_0.png","C_Dist_300_LN_9_LD_10_RN_3_RD_5_0.png"],["C_Dist_300_LN_1_LD_20_RN_7_RD_20_1.png","C_Dist_300_LN_1_LD_3_RN_19_RD_30_1.png","C_Dist_300_LN_1_LD_30_RN_8_RD_24_1.png","C_Dist_300_LN_1_LD_5_RN_11_RD_22_1.png","C_Dist_300_LN_1_LD_5_RN_3_RD_6_1.png","C_Dist_300_LN_1_LD_5_RN_6_RD_12_1.png","C_Dist_300_LN_2_LD_10_RN_12_RD_24_1.png","C_Dist_300_LN_2_LD_20_RN_10_RD_25_1.png","C_Dist_300_LN_3_LD_12_RN_11_RD_20_1.png","C_Dist_300_LN_3_LD_6_RN_4_RD_5_1.png","C_Dist_300_LN_4_LD_20_RN_13_RD_26_1.png","C_Dist_300_LN_5_LD_25_RN_6_RD_12_1.png","C_Dist_300_LN_5_LD_25_RN_7_RD_14_1.png","C_Dist_300_LN_7_LD_14_RN_20_RD_25_1.png","C_Dist_300_LN_8_LD_15_RN_10_RD_12_1.png"]],"dist300_I":[["I_Dist_300_LN_1_LD_2_RN_2_RD_10_0.png","I_Dist_300_LN_1_LD_2_RN_3_RD_15_0.png","I_Dist_300_LN_2_LD_4_RN_6_RD_30_0.png","I_Dist_300_LN_3_LD_6_RN_4_RD_20_0.png","I_Dist_300_LN_4_LD_5_RN_6_RD_12_0.png","I_Dist_300_LN_4_LD_5_RN_8_RD_16_0.png","I_Dist_300_LN_7_LD_10_RN_8_RD_20_0.png","I_Dist_300_LN_8_LD_10_RN_14_RD_28_0.png","I_Dist_300_LN_8_LD_10_RN_9_RD_18_0.png"],["I_Dist_300_LN_13_LD_26_RN_12_RD_15_1.png","I_Dist_300_LN_4_LD_20_RN_2_RD_4_1.png"]],"dist300_S":[["E_Dist_300_LN_9_LD_12_RN_9_RD_20_0.png"],["E_Dist_300_LN_18_LD_30_RN_18_RD_20_1.png","E_Dist_300_LN_3_LD_10_RN_3_RD_5_1.png","E_Dist_300_LN_9_LD_20_RN_9_RD_12_1.png"]],"dist500_C":[["C_Dist_500_LN_10_LD_13_RN_7_RD_26_0.png","C_Dist_500_LN_10_LD_15_RN_4_RD_24_0.png","C_Dist_500_LN_12_LD_16_RN_3_RD_12_0.png","C_Dist_500_LN_12_LD_18_RN_4_RD_24_0.png","C_Dist_500_LN_15_LD_18_RN_5_RD_15_0.png","C_Dist_500_LN_15_LD_20_RN_1_RD_4_0.png","C_Dist_500_LN_18_LD_27_RN_1_RD_6_0.png","C_Dist_500_LN_20_LD_24_RN_1_RD_3_0.png","C_Dist_500_LN_20_LD_24_RN_3_RD_9_0.png","C_Dist_500_LN_20_LD_24_RN_7_RD_21_0.png","C_Dist_500_LN_20_LD_28_RN_3_RD_14_0.png","C_Dist_500_LN_21_LD_28_RN_6_RD_24_0.png","C_Dist_500_LN_22_LD_28_RN_2_RD_7_0.png","C_Dist_500_LN_25_LD_30_RN_9_RD_27_0.png","C_Dist_500_LN_4_LD_6_RN_1_RD_6_0.png","C_Dist_500_LN_5_LD_6_RN_2_RD_6_0.png","C_Dist_500_LN_6_LD_9_RN_1_RD_6_0.png","C_Dist_500_LN_7_LD_10_RN_1_RD_5_0.png","C_Dist_500_LN_8_LD_12_RN_1_RD_6_0.png","C_Dist_500_LN_8_LD_12_RN_4_RD_24_0.png"],["C_Dist_500_LN_1_LD_4_RN_12_RD_16_1.png","C_Dist_500_LN_1_LD_4_RN_9_RD_12_1.png","C_Dist_500_LN_1_LD_9_RN_11_RD_18_1.png","C_Dist_500_LN_10_LD_24_RN_22_RD_24_1.png","C_Dist_500_LN_2_LD_12_RN_10_RD_15_1.png","C_Dist_500_LN_2_LD_12_RN_12_RD_18_1.png","C_Dist_500_LN_2_LD_12_RN_4_RD_6_1.png","C_Dist_500_LN_2_LD_24_RN_7_RD_12_1.png","C_Dist_500_LN_2_LD_5_RN_18_RD_20_1.png","C_Dist_500_LN_2_LD_5_RN_9_RD_10_1.png","C_Dist_500_LN_2_LD_8_RN_12_RD_16_1.png","C_Dist_500_LN_2_LD_8_RN_21_RD_28_1.png","C_Dist_500_LN_3_LD_10_RN_4_RD_5_1.png","C_Dist_500_LN_3_LD_12_RN_15_RD_20_1.png","C_Dist_500_LN_3_LD_30_RN_6_RD_10_1.png","C_Dist_500_LN_3_LD_8_RN_14_RD_16_1.png","C_Dist_500_LN_4_LD_16_RN_15_RD_20_1.png","C_Dist_500_LN_4_LD_24_RN_12_RD_18_1.png","C_Dist_500_LN_5_LD_14_RN_6_RD_7_1.png","C_Dist_500_LN_7_LD_21_RN_20_RD_24_1.png","C_Dist_500_LN_7_LD_28_RN_12_RD_16_1.png","C_Dist_500_LN_7_LD_28_RN_9_RD_12_1.png","C_Dist_500_LN_9_LD_27_RN_20_RD_24_1.png"]],"dist500_I":[["I_Dist_500_LN_2_LD_3_RN_4_RD_24_0.png","I_Dist_500_LN_5_LD_6_RN_6_RD_18_0.png","I_Dist_500_LN_7_LD_8_RN_9_RD_24_0.png"],["I_Dist_500_LN_7_LD_21_RN_5_RD_6_1.png"]],"dist500_S":[["E_Dist_500_LN_6_LD_8_RN_6_RD_24_0.png"],["E_Dist_500_LN_2_LD_12_RN_2_RD_3_1.png","E_Dist_500_LN_6_LD_24_RN_6_RD_8_1.png"]]}},{"start_time":1552054125029,"click_time":1552054126898,"finger_time":1552054126518,"fix_duration":1267.963560830507,"trial":1,"RT":1489,"MT":380,"sideResp":1,"stimulus":[],"xmouse":[811,811,811,811,811,811,811,811,811,811,811,811,811,811,811,811,811,811,811,811,811,811,811,811,811,811,811,811,811,811,811,811,811,811,811,811,811,811,811,811,811,811,811,811,811,811,811,811,811,811,811,811,811,811,811,811,811,811,811,811,811,811,811,811,811,811,811,811,811,811,811,811,820,836,862,874,878,867,850,816,787,763,723,699,674,648,610,566,545,532,517,501,478],"ymouse":[632,632,632,632,632,632,632,632,632,632,632,632,632,632,632,632,632,632,632,632,632,632,632,632,632,632,632,632,632,632,632,632,632,632,632,632,632,632,632,632,632,632,632,632,632,632,632,632,632,632,632,632,632,632,632,632,632,632,632,632,632,632,632,632,632,632,632,632,632,632,632,632,605,572,518,489,456,424,404,378,354,335,292,259,229,206,178,149,137,128,118,110,98],"timestamp_mouse":[15,52,69,90,109,130,149,169,190,209,229,250,269,290,309,330,348,368,388,410,430,448,469,489,510,530,549,570,588,609,629,650,669,688,709,730,750,770,789,808,830,850,868,890,909,930,950,968,988,1010,1029,1050,1069,1090,1109,1128,1150,1169,1188,1208,1230,1249,1270,1288,1310,1328,1349,1369,1390,1409,1430,1449,1469,1489,1509,1529,1550,1568,1589,1610,1628,1650,1669,1689,1710,1730,1749,1768,1789,1809,1829,1849,1869],"xSR":741.5,"ySR":573.95,"xT1":424.9,"yT1":0,"xT2":1058.1,"yT2":0,"toosoon":0,"cond_shown":"Congruent","ratio_trial":100,"L_num":11,"L_den":22,"R_num":4,"R_den":10,"correct_side":1,"subjID":"DylanCastillo13","gender":"0","school":"4","age":"8"},{"start_time":1552054128966,"click_time":1552054130479,"finger_time":1552054130139,"fix_duration":987.8120706934961,"trial":2,"RT":1173,"MT":340,"sideResp":1,"stimulus":[],"xmouse":[785,785,785,785,785,785,785,785,785,785,785,785,785,785,785,785,785,785,785,785,785,785,785,785,785,785,785,785,785,785,785,785,785,785,785,785,785,785,785,785,785,785,785,785,785,785,785,785,785,785,785,785,785,785,785,785,785,778,767,750,728,693,682,670,657,645,618,604,585,571,559,544,535,528,520,512],"ymouse":[591,591,591,591,591,591,591,591,591,591,591,591,591,591,591,591,591,591,591,591,591,591,591,591,591,591,591,591,591,591,591,591,591,591,591,591,591,591,591,591,591,591,591,591,591,591,591,591,591,591,591,591,591,591,591,591,591,580,568,548,522,478,465,448,429,408,354,321,270,231,194,152,136,123,108,95],"timestamp_mouse":[13,34,53,72,92,112,132,151,171,193,211,232,252,272,293,312,331,351,372,393,412,432,452,473,493,513,533,552,573,592,613,632,652,673,692,713,733,752,773,791,813,832,852,872,892,912,931,952,972,993,1012,1031,1053,1073,1092,1113,1132,1152,1172,1193,1213,1232,1252,1273,1293,1312,1332,1352,1372,1391,1411,1433,1453,1472,1492,1512],"xSR":741.5,"ySR":573.95,"xT1":424.9,"yT1":0,"xT2":1058.1,"yT2":0,"toosoon":0,"cond_shown":"Congruent","ratio_trial":300,"L_num":11,"L_den":22,"R_num":2,"R_den":10,"correct_side":1,"subjID":"DylanCastillo13","gender":"0","school":"4","age":"8"},{"start_time":1552054132301,"click_time":1552054134197,"finger_time":1552054133798,"fix_duration":741.5898542695442,"trial":3,"RT":1497,"MT":399,"sideResp":1,"stimulus":[],"xmouse":[782,782,782,782,782,783,784,784,784,784,784,784,784,784,784,784,784,784,784,784,784,784,784,784,784,784,784,784,784,784,784,784,784,784,784,784,784,784,784,784,784,784,784,784,774,769,767,767,767,767,767,767,767,767,767,767,767,767,767,767,767,767,767,767,767,767,767,767,767,767,767,767,767,767,762,756,756,753,737,657,647,640,631,612,579,565,555,547,544,536,533,531,526,521,512],"ymouse":[638,638,638,638,638,638,638,638,638,638,638,638,638,638,638,638,638,638,638,638,638,638,638,638,638,638,638,638,638,638,638,638,638,638,638,638,638,638,638,638,638,638,638,638,631,622,621,621,621,621,621,621,621,621,621,621,621,621,621,621,621,621,621,621,621,621,621,621,621,621,621,621,621,621,567,523,482,445,396,266,253,244,238,226,206,195,187,180,176,160,152,145,130,119,98],"timestamp_mouse":[16,47,57,76,98,117,138,156,176,198,217,236,257,277,296,317,336,358,376,397,417,437,458,478,497,518,538,557,576,596,617,638,658,677,698,717,738,756,777,798,818,837,857,878,897,918,937,957,977,997,1017,1036,1058,1077,1098,1117,1137,1157,1178,1198,1217,1237,1257,1278,1297,1318,1337,1358,1377,1398,1416,1437,1457,1477,1497,1517,1538,1556,1576,1597,1617,1636,1657,1676,1696,1718,1738,1757,1778,1797,1816,1838,1858,1876,1896],"xSR":741.5,"ySR":573.95,"xT1":424.9,"yT1":0,"xT2":1058.1,"yT2":0,"toosoon":0,"cond_shown":"Incongruent","ratio_trial":200,"L_num":4,"L_den":30,"R_num":1,"R_den":3,"correct_side":2,"subjID":"DylanCastillo13","gender":"0","school":"4","age":"8"},{"start_time":1552054139050,"click_time":1552054140718,"finger_time":1552054140598,"fix_duration":250,"trial":4,"RT":1548,"MT":120,"sideResp":1,"stimulus":[],"xmouse":[825,825,825,825,825,825,825,825,825,825,825,825,825,825,825,825,825,825,825,825,825,825,825,825,825,825,825,825,825,825,825,825,825,825,825,825,825,825,825,825,825,825,825,825,825,825,825,825,825,825,825,825,825,825,825,825,825,825,825,825,825,825,825,825,825,825,825,825,825,825,825,825,825,825,825,825,824,771,757,741,718,671,588,491],"ymouse":[636,636,636,636,636,636,636,636,636,636,636,636,636,636,636,636,636,636,636,636,636,636,636,636,636,636,636,636,636,636,636,636,636,636,636,636,636,636,636,636,636,636,636,636,636,636,636,636,636,636,636,636,636,636,636,636,636,636,636,636,636,636,636,636,636,636,636,636,636,636,636,636,636,636,636,636,633,550,524,491,438,345,225,94],"timestamp_mouse":[13,35,49,67,88,108,128,149,168,189,208,228,248,268,287,309,329,348,368,388,409,429,448,467,489,509,528,549,568,588,608,629,648,668,687,708,729,747,769,789,808,829,848,868,887,908,928,948,967,989,1008,1028,1047,1069,1089,1107,1129,1149,1169,1189,1207,1229,1248,1268,1289,1308,1328,1349,1368,1387,1408,1429,1449,1468,1489,1507,1528,1548,1568,1588,1608,1628,1648,1668],"xSR":741.5,"ySR":573.95,"xT1":424.9,"yT1":0,"xT2":1058.1,"yT2":0,"toosoon":0,"cond_shown":"Congruent","ratio_trial":300,"L_num":20,"L_den":25,"R_num":9,"R_den":18,"correct_side":1,"subjID":"DylanCastillo13","gender":"0","school":"4","age":"8"},{"start_time":1552054143300,"click_time":1552054145439,"finger_time":1552054144638,"fix_duration":1400.4029171990296,"trial":5,"RT":1338,"MT":801,"sideResp":2,"stimulus":[],"xmouse":[807,807,807,807,808,807,803,803,803,803,802,801,800,800,800,800,800,800,800,800,800,800,800,800,800,800,800,800,800,800,800,800,800,800,800,800,800,800,800,800,800,800,800,800,800,800,800,800,800,800,800,800,800,800,800,800,800,800,800,800,800,800,800,804,808,828,840,849,856,867,881,890,896,901,918,931,938,946,947,951,955,957,958,958,963,966,972,980,990,1006,1011,1011,1013,1013,1013,1013,1014,1017,1022,1029,1032,1033,1033,1034,1044,1051,1060],"ymouse":[608,608,608,608,610,620,630,637,640,641,642,642,642,642,642,642,642,642,642,642,642,642,642,642,642,642,642,642,642,642,642,642,642,642,642,642,642,642,642,642,642,642,642,642,642,642,642,642,642,642,642,642,642,642,642,642,642,642,642,642,642,642,642,635,624,585,565,548,537,512,487,467,448,427,372,338,311,281,259,217,200,190,184,179,165,156,142,124,104,76,68,67,65,65,65,65,64,64,65,69,70,70,70,70,71,72,73],"timestamp_mouse":[18,39,57,78,99,119,138,158,179,197,218,238,259,278,299,318,338,357,378,399,419,438,457,478,497,519,537,557,578,597,618,639,659,678,698,718,738,759,778,799,818,838,858,879,899,918,939,958,977,997,1018,1039,1058,1079,1097,1118,1138,1158,1179,1197,1218,1237,1259,1278,1298,1318,1338,1357,1377,1399,1417,1438,1458,1478,1498,1517,1538,1559,1578,1599,1618,1638,1657,1677,1698,1718,1739,1758,1779,1799,1818,1838,1857,1877,1899,1918,1939,1958,1977,1999,2018,2038,2059,2078,2099,2117,2138],"xSR":741.5,"ySR":573.95,"xT1":424.9,"yT1":0,"xT2":1058.1,"yT2":0,"toosoon":0,"cond_shown":"Congruent","ratio_trial":100,"L_num":7,"L_den":14,"R_num":15,"R_den":25,"correct_side":2,"subjID":"DylanCastillo13","gender":"0","school":"4","age":"8"},{"start_time":1552054147483,"click_time":1552054148618,"finger_time":1552054148239,"fix_duration":863.9730312501941,"trial":6,"RT":756,"MT":379,"sideResp":1,"stimulus":[],"xmouse":[794,794,794,794,794,794,794,794,794,794,794,794,794,794,794,794,794,794,794,794,794,794,794,794,794,794,794,794,794,794,794,794,794,794,794,788,785,781,777,771,761,737,732,724,710,687,665,660,658,657,654,642,632,617,589,539,520],"ymouse":[624,624,624,624,624,624,624,624,624,624,624,624,624,624,624,624,624,624,624,624,624,624,624,624,624,624,624,624,624,624,624,624,624,624,623,600,586,573,559,542,520,457,436,410,353,285,232,220,215,211,206,190,176,155,124,66,50],"timestamp_mouse":[16,36,55,74,95,115,135,154,176,195,214,235,255,276,295,314,336,356,375,395,415,435,456,475,496,515,534,554,576,594,615,635,655,676,695,716,735,756,775,795,816,836,854,875,896,915,935,955,975,995,1015,1034,1055,1075,1095,1115,1134],"xSR":741.5,"ySR":573.95,"xT1":424.9,"yT1":0,"xT2":1058.1,"yT2":0,"toosoon":0,"cond_shown":"Incongruent","ratio_trial":300,"L_num":2,"L_den":4,"R_num":6,"R_den":30,"correct_side":1,"subjID":"DylanCastillo13","gender":"0","school":"4","age":"8"},{"start_time":1552054150051,"click_time":1552054151818,"finger_time":1552054151518,"fix_duration":250,"trial":7,"RT":1467,"MT":300,"sideResp":1,"stimulus":[],"xmouse":[792,792,792,792,792,793,793,793,793,793,794,794,794,794,794,794,794,794,794,794,794,794,794,794,794,794,794,794,794,794,794,794,794,794,794,794,794,794,794,794,794,794,794,794,794,794,794,794,794,794,794,794,794,794,794,794,794,794,794,794,794,794,793,793,793,793,793,793,793,790,783,778,772,757,747,737,726,717,696,683,662,623,544,522,506,500,494,486,463],"ymouse":[645,645,645,644,642,641,640,637,635,633,632,632,632,632,632,632,632,632,632,632,632,632,632,632,632,632,632,632,632,632,632,632,632,632,632,632,632,632,632,632,632,632,632,632,632,632,632,632,632,632,632,632,632,632,632,632,632,632,630,628,628,628,627,627,627,627,627,627,627,620,612,604,592,564,548,527,507,492,461,442,414,359,252,221,199,188,174,152,96],"timestamp_mouse":[12,38,46,67,87,107,127,148,167,187,206,227,247,268,288,307,328,347,366,387,408,428,448,467,488,507,528,548,567,587,607,627,647,667,686,707,726,747,766,787,807,827,848,867,888,907,928,947,967,987,1008,1028,1046,1066,1086,1106,1126,1146,1167,1187,1207,1227,1248,1268,1288,1307,1326,1348,1367,1387,1407,1426,1447,1467,1487,1508,1526,1548,1567,1587,1607,1626,1648,1667,1688,1707,1727,1747,1767],"xSR":741.5,"ySR":573.95,"xT1":424.9,"yT1":0,"xT2":1058.1,"yT2":0,"toosoon":0,"cond_shown":"Incongruent","ratio_trial":100,"L_num":3,"L_den":9,"R_num":7,"R_den":30,"correct_side":1,"subjID":"DylanCastillo13","gender":"0","school":"4","age":"8"},{"start_time":1552054153471,"click_time":1552054155239,"finger_time":1552054154738,"fix_duration":250,"trial":8,"RT":1267,"MT":501,"sideResp":2,"stimulus":[],"xmouse":[801,802,802,802,802,802,802,802,802,802,802,802,802,802,802,802,802,802,802,802,802,802,802,802,802,802,802,802,802,803,804,805,805,805,805,805,805,805,805,805,805,805,805,805,805,805,805,806,806,806,806,806,806,806,806,806,807,808,808,808,809,812,822,833,845,854,861,883,909,930,946,965,980,985,986,988,989,992,997,999,1001,1011,1023,1031,1039,1049,1055,1064,1068],"ymouse":[620,620,620,620,620,620,620,620,620,620,620,620,620,620,620,620,620,620,620,620,620,620,620,620,620,620,620,620,620,619,616,614,614,614,614,614,614,614,614,614,614,614,614,614,614,614,614,610,609,608,608,608,608,608,608,608,608,609,609,609,610,605,578,559,540,523,505,459,423,388,348,300,274,266,263,261,252,245,233,229,225,209,189,173,161,144,132,109,95],"timestamp_mouse":[6,37,47,66,87,107,128,146,167,186,207,228,247,268,287,308,327,348,366,388,407,427,447,467,488,507,527,546,568,587,608,626,647,668,686,708,727,748,766,788,808,827,847,868,888,907,926,947,968,988,1007,1027,1046,1068,1088,1107,1128,1146,1167,1188,1206,1228,1246,1267,1288,1307,1327,1347,1367,1388,1407,1427,1447,1467,1487,1507,1527,1546,1567,1587,1606,1628,1646,1667,1688,1708,1727,1747,1767],"xSR":741.5,"ySR":573.95,"xT1":424.9,"yT1":0,"xT2":1058.1,"yT2":0,"toosoon":0,"cond_shown":"Congruent","ratio_trial":200,"L_num":9,"L_den":30,"R_num":13,"R_den":26,"correct_side":2,"subjID":"DylanCastillo13","gender":"0","school":"4","age":"8"},{"start_time":1552054157876,"click_time":1552054159399,"finger_time":1552054158818,"fix_duration":1417.7530959723745,"trial":9,"RT":942,"MT":581,"sideResp":2,"stimulus":[],"xmouse":[789,789,789,789,789,789,789,789,789,789,789,789,789,789,789,789,789,789,789,789,789,789,789,789,789,789,789,789,789,789,789,789,789,789,789,789,789,789,789,789,789,789,789,789,789,795,816,830,843,857,868,878,899,906,910,913,916,922,926,931,938,954,960,963,967,974,993,1003,1012,1017,1020,1028,1036,1042,1050,1058,1071],"ymouse":[604,604,604,604,604,604,604,604,604,604,604,604,604,604,604,604,604,604,604,604,604,604,603,603,603,603,603,603,603,603,603,603,603,603,603,603,603,603,603,603,603,603,603,603,603,595,574,556,537,518,498,476,417,399,384,374,365,350,339,328,316,297,287,282,273,260,225,210,197,189,183,168,150,137,125,109,89],"timestamp_mouse":[10,22,41,63,83,101,121,142,163,182,202,223,243,262,282,301,322,342,362,381,401,423,443,463,481,503,522,542,562,583,601,621,642,663,682,701,722,743,762,782,802,821,843,862,883,902,922,942,962,982,1002,1022,1042,1062,1083,1103,1122,1142,1162,1182,1202,1222,1242,1263,1282,1303,1322,1341,1362,1382,1403,1422,1441,1463,1482,1503,1523],"xSR":741.5,"ySR":573.95,"xT1":424.9,"yT1":0,"xT2":1058.1,"yT2":0,"toosoon":0,"cond_shown":"Incongruent","ratio_trial":300,"L_num":13,"L_den":26,"R_num":12,"R_den":15,"correct_side":2,"subjID":"DylanCastillo13","gender":"0","school":"4","age":"8"},{"start_time":1552054163750,"click_time":1552054165658,"finger_time":1552054165198,"fix_duration":250,"trial":10,"RT":1448,"MT":460,"sideResp":2,"stimulus":[],"xmouse":[784,784,784,784,784,784,784,784,784,784,784,784,784,784,784,784,784,784,784,784,784,784,784,784,784,784,784,784,784,784,784,784,784,784,784,784,784,784,784,784,784,784,784,784,784,784,784,784,784,784,784,784,784,784,784,784,784,784,784,784,784,784,784,784,784,784,784,784,784,784,784,787,838,895,947,984,1007,1029,1033,1033,1033,1033,1033,1033,1032,1032,1032,1032,1033,1036,1042,1047,1062,1068,1072,1077],"ymouse":[637,637,637,637,637,637,637,637,637,637,637,637,637,637,637,637,637,637,637,637,637,637,637,637,637,637,637,637,637,637,637,637,637,637,637,637,637,637,637,637,637,637,637,637,637,637,637,637,637,637,637,637,637,637,637,637,637,637,637,637,637,637,637,637,637,637,637,637,637,637,636,619,525,456,396,344,300,240,218,203,187,176,163,158,153,148,143,139,134,129,123,119,109,106,102,98],"timestamp_mouse":[14,34,48,68,89,109,129,148,169,188,208,228,247,268,288,307,328,348,367,388,407,428,447,467,489,507,529,549,567,589,609,629,649,668,689,708,728,748,767,789,809,829,847,868,889,908,929,947,968,989,1008,1029,1048,1068,1089,1108,1128,1148,1168,1188,1209,1227,1247,1267,1288,1308,1328,1348,1368,1389,1409,1428,1448,1467,1488,1509,1528,1548,1568,1587,1609,1628,1649,1668,1688,1708,1728,1748,1768,1788,1808,1829,1848,1867,1888,1908],"xSR":741.5,"ySR":573.95,"xT1":424.9,"yT1":0,"xT2":1058.1,"yT2":0,"toosoon":0,"cond_shown":"Congruent","ratio_trial":100,"L_num":8,"L_den":16,"R_num":2,"R_den":5,"correct_side":1,"subjID":"DylanCastillo13","gender":"0","school":"4","age":"8"},{"start_time":1552054169211,"click_time":1552054170499,"finger_time":1552054169958,"fix_duration":250,"trial":11,"RT":747,"MT":541,"sideResp":2,"stimulus":[],"xmouse":[788,788,788,788,788,788,788,788,788,788,788,788,788,788,788,788,788,788,788,788,788,788,788,788,788,788,788,788,788,788,788,788,788,788,788,788,788,788,803,868,912,943,959,965,966,969,971,974,979,986,987,988,988,989,996,1005,1011,1018,1024,1034,1040,1047,1052,1056,1065],"ymouse":[633,633,633,633,633,633,633,633,633,633,633,633,633,633,633,633,633,633,633,633,633,633,633,633,633,633,633,624,615,615,615,615,615,615,615,615,598,571,525,329,252,210,185,173,164,152,143,133,124,113,110,107,107,105,103,101,99,97,97,95,94,93,92,91,84],"timestamp_mouse":[14,36,47,68,86,107,128,147,166,187,206,226,247,268,287,308,326,347,367,386,408,427,448,467,488,507,528,547,566,586,607,627,646,666,688,707,727,747,767,787,807,827,847,868,888,907,926,946,966,987,1007,1028,1047,1067,1087,1107,1127,1148,1167,1187,1207,1227,1247,1267,1287],"xSR":741.5,"ySR":573.95,"xT1":424.9,"yT1":0,"xT2":1058.1,"yT2":0,"toosoon":0,"cond_shown":"Congruent","ratio_trial":200,"L_num":9,"L_den":30,"R_num":13,"R_den":26,"correct_side":2,"subjID":"DylanCastillo13","gender":"0","school":"4","age":"8"},{"start_time":1552054172440,"click_time":1552054174359,"finger_time":1552054173998,"fix_duration":739.4322570276362,"trial":12,"RT":1558,"MT":361,"sideResp":1,"stimulus":[],"xmouse":[781,781,783,784,784,784,784,784,784,784,784,784,784,784,784,784,784,784,784,784,784,784,784,784,784,784,784,784,784,784,784,784,784,784,784,784,784,784,784,784,784,784,784,784,784,784,784,785,785,785,785,785,785,786,786,786,786,786,786,786,786,786,786,786,786,786,786,786,786,786,786,786,786,786,786,786,780,765,747,712,676,645,606,586,574,562,545,512,503,500,498,496,490,485,480,478],"ymouse":[606,606,615,618,618,618,618,618,618,618,618,618,618,618,618,618,618,618,618,618,618,618,618,618,618,618,618,618,618,618,618,618,618,618,618,618,618,618,618,618,618,618,618,618,618,618,618,618,618,616,616,616,616,614,614,614,614,614,614,614,614,614,614,614,614,614,614,614,614,614,614,614,614,608,602,594,581,541,485,394,306,236,144,103,77,48,17,0,0,0,0,0,0,0,0,1],"timestamp_mouse":[33,39,58,78,97,119,137,157,178,197,219,238,258,278,298,319,338,359,378,398,419,438,459,478,498,519,538,558,578,599,619,637,659,678,697,717,737,759,777,799,818,838,858,879,899,917,938,958,978,998,1018,1038,1059,1079,1098,1118,1139,1159,1178,1198,1218,1238,1257,1279,1299,1319,1338,1357,1378,1399,1418,1439,1458,1479,1498,1518,1538,1558,1578,1598,1619,1639,1658,1677,1697,1719,1739,1759,1779,1798,1819,1838,1858,1877,1898,1919],"xSR":741.5,"ySR":573.95,"xT1":424.9,"yT1":0,"xT2":1058.1,"yT2":0,"toosoon":0,"cond_shown":"Congruent","ratio_trial":100,"L_num":2,"L_den":5,"R_num":6,"R_den":12,"correct_side":2,"subjID":"DylanCastillo13","gender":"0","school":"4","age":"8"},{"start_time":1552054177816,"click_time":1552054179918,"finger_time":1552054179418,"fix_duration":977.9695187243257,"trial":13,"RT":1602,"MT":500,"sideResp":1,"stimulus":[],"xmouse":[794,794,794,794,794,794,794,794,794,794,794,794,794,794,794,794,794,794,794,794,794,793,793,793,793,793,793,793,793,793,793,793,793,793,793,793,793,793,793,793,793,793,793,793,793,793,793,793,793,793,793,793,793,793,793,793,793,793,793,793,793,793,793,793,793,793,793,793,793,793,793,793,791,786,778,775,772,771,770,768,759,751,742,734,710,669,638,622,615,607,604,601,597,592,583,578,575,574,572,566,559,551,544,538,528,523],"ymouse":[613,613,613,613,613,613,613,613,613,613,613,613,613,613,613,613,613,613,613,613,613,609,606,605,605,605,605,605,605,605,605,605,605,605,605,605,605,605,605,605,605,605,605,605,605,605,605,605,605,605,605,605,605,605,605,605,605,605,605,605,605,605,605,605,605,605,605,605,605,605,605,605,604,599,587,584,581,580,579,577,572,564,554,544,502,411,338,305,290,272,261,249,236,222,190,165,155,144,133,111,96,85,77,71,64,62],"timestamp_mouse":[2,39,41,61,81,103,122,143,162,181,203,222,242,262,282,302,322,343,361,382,402,423,442,463,483,502,522,543,561,581,602,622,641,662,683,702,722,741,763,783,802,822,843,863,882,902,922,943,963,983,1003,1023,1041,1062,1083,1102,1123,1141,1163,1182,1203,1223,1242,1263,1283,1302,1322,1342,1362,1382,1402,1421,1441,1462,1483,1502,1522,1543,1562,1582,1602,1622,1642,1661,1683,1702,1722,1742,1763,1783,1802,1822,1842,1863,1883,1902,1922,1941,1963,1982,2003,2023,2042,2061,2083,2101],"xSR":741.5,"ySR":573.95,"xT1":424.9,"yT1":0,"xT2":1058.1,"yT2":0,"toosoon":0,"cond_shown":"Congruent","ratio_trial":200,"L_num":12,"L_den":20,"R_num":6,"R_den":15,"correct_side":1,"subjID":"DylanCastillo13","gender":"0","school":"4","age":"8"},{"start_time":1552054181902,"click_time":1552054183239,"finger_time":1552054182618,"fix_duration":862.610957663668,"trial":14,"RT":716,"MT":621,"sideResp":2,"stimulus":[],"xmouse":[812,812,812,812,812,812,812,812,812,812,812,812,812,812,812,812,812,812,812,812,812,812,812,812,812,811,809,806,801,786,776,771,768,766,759,756,752,748,743,731,728,726,726,726,726,726,726,729,734,742,779,797,807,815,846,877,923,970,1007,1053,1071,1088,1102,1107,1112,1121,1122],"ymouse":[653,653,653,653,653,653,653,653,653,653,653,653,653,653,653,653,651,650,650,650,650,650,650,650,650,648,645,640,632,610,595,590,585,583,575,571,565,559,549,529,524,519,518,518,518,518,517,516,512,501,444,414,394,376,337,312,284,259,237,209,192,175,160,148,134,103,93],"timestamp_mouse":[16,36,57,76,97,116,137,157,176,197,216,236,255,277,297,316,336,356,375,395,416,437,457,475,497,516,536,556,577,596,616,635,656,676,697,716,736,757,777,796,816,836,857,875,897,916,937,956,976,997,1015,1036,1057,1076,1097,1116,1137,1157,1176,1197,1216,1236,1257,1276,1296,1316,1336],"xSR":741.5,"ySR":573.95,"xT1":424.9,"yT1":0,"xT2":1058.1,"yT2":0,"toosoon":0,"cond_shown":"Congruent","ratio_trial":200,"L_num":8,"L_den":15,"R_num":7,"R_den":21,"correct_side":1,"subjID":"DylanCastillo13","gender":"0","school":"4","age":"8"},{"start_time":1552054189665,"click_time":1552054191298,"finger_time":1552054190778,"fix_duration":445.2394175991763,"trial":15,"RT":1113,"MT":520,"sideResp":2,"stimulus":[],"xmouse":[799,799,799,799,799,799,799,799,799,799,799,799,799,799,799,799,799,799,799,799,799,799,799,799,799,799,799,799,799,799,799,799,799,799,799,799,799,799,799,799,799,799,799,799,799,799,799,799,799,799,799,800,805,810,822,847,903,914,924,931,938,947,957,962,968,977,998,1007,1013,1019,1026,1035,1035,1035,1035,1035,1035,1035,1037,1042,1049,1070],"ymouse":[643,643,643,643,643,643,643,643,643,643,643,643,643,643,643,643,643,643,643,643,643,643,643,643,643,643,643,643,643,643,643,643,643,643,643,643,643,643,643,643,643,643,643,643,643,643,643,643,643,643,643,644,634,617,585,530,444,422,400,378,356,324,303,292,275,252,199,177,156,138,123,104,101,101,101,101,101,101,101,101,100,97],"timestamp_mouse":[14,39,52,73,94,114,132,154,173,194,213,233,253,274,293,312,333,353,373,393,414,433,453,474,494,513,534,553,574,593,612,634,654,674,693,712,734,754,774,794,814,834,853,873,894,913,933,954,973,992,1012,1032,1053,1073,1092,1113,1133,1152,1173,1194,1214,1233,1253,1274,1293,1312,1333,1353,1373,1393,1414,1433,1453,1473,1494,1513,1534,1553,1573,1592,1613,1633],"xSR":741.5,"ySR":573.95,"xT1":424.9,"yT1":0,"xT2":1058.1,"yT2":0,"toosoon":0,"cond_shown":"Congruent","ratio_trial":300,"L_num":2,"L_den":20,"R_num":10,"R_den":25,"correct_side":2,"subjID":"DylanCastillo13","gender":"0","school":"4","age":"8"},{"start_time":1552054194349,"click_time":1552054195799,"finger_time":1552054195358,"fix_duration":730.7912573674895,"trial":16,"RT":1009,"MT":441,"sideResp":2,"stimulus":[],"xmouse":[804,804,804,804,804,804,803,800,799,799,798,798,796,795,794,793,793,793,793,793,793,793,793,793,793,793,793,793,793,793,793,793,793,793,793,793,793,793,793,793,793,793,793,793,793,793,793,793,793,811,861,928,1017,1023,1023,1024,1027,1030,1033,1033,1033,1033,1033,1033,1033,1033,1033,1034,1038,1045,1051,1056,1065],"ymouse":[651,651,651,651,651,651,640,634,632,630,630,628,621,617,615,612,611,611,611,611,611,611,611,611,611,611,611,611,611,611,611,611,611,611,611,611,611,611,611,611,611,611,611,611,611,611,611,611,611,580,510,441,328,289,259,239,223,205,170,157,146,136,126,110,105,102,98,93,91,86,81,77,67],"timestamp_mouse":[13,34,49,69,90,109,129,149,169,188,208,228,249,269,290,309,329,349,369,390,410,430,449,469,490,509,528,550,570,589,610,630,649,669,689,710,730,748,770,789,809,830,848,869,889,910,929,949,969,989,1009,1029,1049,1069,1089,1110,1129,1149,1170,1189,1210,1229,1249,1269,1289,1309,1330,1349,1370,1390,1409,1429,1450],"xSR":741.5,"ySR":573.95,"xT1":424.9,"yT1":0,"xT2":1058.1,"yT2":0,"toosoon":0,"cond_shown":"Incongruent","ratio_trial":200,"L_num":14,"L_den":30,"R_num":6,"R_den":9,"correct_side":2,"subjID":"DylanCastillo13","gender":"0","school":"4","age":"8"},{"start_time":1552054197518,"click_time":1552054199439,"finger_time":1552054198358,"fix_duration":718.7829969114583,"trial":17,"RT":840,"MT":1081,"sideResp":2,"stimulus":[],"xmouse":[782,782,782,782,782,782,782,782,782,782,782,782,782,782,782,782,782,782,782,782,782,782,782,782,782,782,782,782,782,782,782,782,782,782,782,782,782,782,782,782,788,791,801,813,824,852,869,884,897,926,943,965,991,1005,1002,1001,1001,1001,1001,1002,1004,1005,1006,1006,1007,1007,1007,1007,1009,1009,1010,1010,1010,1010,1010,1010,1010,1010,1010,1010,989,972,966,965,965,965,965,965,965,965,965,972,985,1004,1042,1057,1065],"ymouse":[599,599,599,599,599,599,599,599,599,599,599,599,599,599,599,599,599,599,599,599,599,599,599,599,599,599,599,599,599,599,599,599,599,599,599,599,599,599,599,599,590,585,570,558,544,512,493,474,457,416,387,350,296,242,205,192,182,175,169,156,144,138,133,129,127,127,126,125,123,122,122,122,122,122,122,122,122,122,122,121,129,134,138,139,139,139,139,139,139,139,139,137,133,126,109,99,92],"timestamp_mouse":[10,37,40,61,81,99,121,140,160,180,200,221,240,261,280,301,321,340,361,380,400,421,441,460,480,501,521,541,560,581,600,620,639,660,680,700,721,741,761,781,800,821,840,860,881,900,921,940,961,980,999,1020,1041,1061,1080,1099,1120,1141,1159,1180,1200,1221,1241,1260,1280,1300,1320,1339,1361,1380,1401,1420,1439,1461,1481,1501,1520,1540,1560,1580,1600,1621,1640,1661,1680,1700,1719,1740,1759,1780,1800,1820,1841,1861,1880,1900,1921],"xSR":741.5,"ySR":573.95,"xT1":424.9,"yT1":0,"xT2":1058.1,"yT2":0,"toosoon":0,"cond_shown":"Congruent","ratio_trial":200,"L_num":3,"L_den":12,"R_num":9,"R_den":20,"correct_side":2,"subjID":"DylanCastillo13","gender":"0","school":"4","age":"8"},{"start_time":1552054201596,"click_time":1552054203798,"finger_time":1552054203438,"fix_duration":897.0059074983426,"trial":18,"RT":1842,"MT":360,"sideResp":2,"stimulus":[],"xmouse":[771,771,771,771,771,771,771,771,771,771,771,771,771,771,771,771,771,771,771,771,771,771,771,771,771,771,771,771,771,771,771,771,771,771,771,771,771,771,771,771,771,771,771,771,771,771,771,771,771,771,771,771,771,771,771,771,771,771,771,771,771,771,771,771,771,771,771,771,771,771,771,771,771,771,771,771,771,771,771,771,771,771,771,771,771,771,771,771,771,771,771,781,804,848,912,978,1063,1082,1099,1102,1118,1131,1145,1150,1150,1147,1137,1131,1125,1117,1110],"ymouse":[606,606,606,606,606,606,606,606,606,606,606,606,606,606,606,606,606,606,606,606,606,606,606,606,606,606,606,606,606,606,606,606,606,606,606,606,606,606,606,606,606,606,606,606,606,606,606,606,606,606,606,606,606,606,606,606,606,606,606,606,606,606,606,606,606,606,606,606,606,606,606,606,606,606,606,606,606,606,606,606,606,606,606,606,606,606,606,606,606,606,606,585,562,530,495,459,399,381,361,354,314,283,253,233,214,171,146,132,119,106,92],"timestamp_mouse":[10,35,42,63,82,103,122,142,162,183,202,222,241,263,283,302,323,343,362,383,402,423,442,462,483,501,523,542,562,583,603,622,643,662,682,703,722,743,762,783,802,821,843,862,883,901,923,943,962,981,1003,1021,1043,1063,1083,1102,1121,1143,1162,1183,1201,1222,1243,1261,1283,1303,1322,1342,1363,1383,1402,1422,1442,1463,1483,1502,1522,1543,1562,1583,1603,1622,1642,1662,1681,1703,1722,1742,1763,1782,1803,1821,1842,1863,1883,1902,1922,1943,1963,1983,2003,2022,2043,2062,2081,2103,2122,2142,2162,2182,2201],"xSR":741.5,"ySR":573.95,"xT1":424.9,"yT1":0,"xT2":1058.1,"yT2":0,"toosoon":0,"cond_shown":"Incongruent","ratio_trial":100,"L_num":4,"L_den":8,"R_num":8,"R_den":20,"correct_side":1,"subjID":"DylanCastillo13","gender":"0","school":"4","age":"8"},{"start_time":1552054205630,"click_time":1552054206918,"finger_time":1552054205999,"fix_duration":430.3367734839315,"trial":19,"RT":369,"MT":919,"sideResp":2,"stimulus":[],"xmouse":[788,788,788,788,788,788,788,788,788,788,788,788,788,788,788,788,788,785,777,775,774,771,768,761,758,755,754,753,750,750,750,750,750,749,749,749,752,754,758,760,765,775,790,834,858,868,871,871,873,882,886,896,914,980,1022,1040,1058,1079,1109,1114,1117,1123,1128,1132,1132],"ymouse":[606,606,606,606,606,606,606,606,606,606,606,606,606,606,606,606,599,589,573,568,567,564,559,547,542,538,536,533,527,527,527,527,526,525,525,525,525,525,526,528,532,544,564,615,636,642,643,643,643,598,565,530,485,380,321,294,265,234,194,186,177,163,146,107,89],"timestamp_mouse":[13,35,48,68,88,108,128,148,169,188,209,229,249,269,289,309,328,349,369,403,407,428,448,468,487,508,528,548,568,587,608,628,649,668,687,708,729,749,769,788,808,828,848,868,888,909,927,948,967,987,1007,1029,1049,1068,1088,1108,1128,1149,1168,1188,1208,1229,1248,1268,1288],"xSR":741.5,"ySR":573.95,"xT1":424.9,"yT1":0,"xT2":1058.1,"yT2":0,"toosoon":0,"cond_shown":"Incongruent","ratio_trial":100,"L_num":12,"L_den":30,"R_num":2,"R_den":4,"correct_side":2,"subjID":"DylanCastillo13","gender":"0","school":"4","age":"8"},{"start_time":1552054211140,"click_time":1552054212917,"finger_time":1552054212538,"fix_duration":800.6940136164861,"trial":20,"RT":1398,"MT":379,"sideResp":2,"stimulus":[],"xmouse":[766,766,766,766,766,766,766,766,766,766,766,766,766,766,766,766,766,766,766,766,766,766,766,766,766,766,766,766,766,766,766,766,766,766,766,766,766,766,766,766,766,766,766,766,766,766,766,766,766,766,766,766,766,766,766,766,766,766,766,766,766,766,766,766,766,766,766,768,781,801,824,842,880,895,912,921,930,945,950,952,952,952,953,964,974,981,994,1043,1059],"ymouse":[624,624,624,624,624,624,624,624,624,624,624,624,624,624,624,624,624,624,624,624,624,624,624,624,624,624,624,624,624,624,624,624,624,624,624,624,624,624,624,624,624,624,624,624,624,624,624,624,624,624,624,624,624,624,624,624,624,624,624,624,624,624,624,624,624,624,624,618,574,528,472,417,314,279,226,158,98,4,0,0,0,0,0,0,3,7,15,40,47],"timestamp_mouse":[17,38,58,78,98,118,139,157,179,197,218,239,258,279,298,319,338,358,378,398,418,438,458,478,499,518,538,558,578,598,618,637,659,678,698,718,738,759,777,799,818,837,859,878,899,919,939,959,978,997,1018,1038,1059,1078,1099,1119,1139,1159,1178,1198,1218,1239,1259,1277,1299,1319,1337,1358,1377,1398,1418,1438,1458,1478,1498,1519,1539,1559,1579,1597,1617,1637,1657,1678,1699,1719,1739,1758,1777],"xSR":741.5,"ySR":573.95,"xT1":424.9,"yT1":0,"xT2":1058.1,"yT2":0,"toosoon":0,"cond_shown":"Incongruent","ratio_trial":200,"L_num":7,"L_den":15,"R_num":4,"R_den":6,"correct_side":2,"subjID":"DylanCastillo13","gender":"0","school":"4","age":"8"},{"start_time":1552054215359,"click_time":1552054217079,"finger_time":1552054216778,"fix_duration":1439.9036346526657,"trial":21,"RT":1419,"MT":301,"sideResp":2,"stimulus":[],"xmouse":[780,780,780,780,780,780,780,780,780,780,780,780,780,780,780,780,780,780,780,780,780,780,780,780,780,780,780,780,780,780,780,780,780,780,780,780,780,780,780,780,780,780,780,780,780,780,780,780,780,780,780,780,780,780,780,780,780,780,780,780,780,780,780,780,780,780,780,780,780,789,815,913,978,1028,1054,1069,1076,1092,1098,1103,1106,1106,1108,1108,1109,1110],"ymouse":[611,611,611,611,611,611,611,611,611,611,611,611,611,611,611,611,611,611,611,611,611,611,611,611,611,611,611,611,611,611,611,611,611,611,611,611,611,611,611,611,611,611,611,611,611,611,611,611,611,611,611,611,611,611,611,611,611,611,611,611,611,611,611,611,611,611,611,611,611,596,559,441,354,278,233,201,177,139,125,114,111,111,109,106,103,99],"timestamp_mouse":[20,40,60,80,99,120,139,158,180,199,220,240,259,280,299,320,338,359,380,399,420,440,459,478,500,520,539,559,580,599,620,639,659,680,698,719,740,759,779,800,820,840,860,878,900,920,939,959,980,1000,1020,1039,1059,1080,1098,1120,1140,1159,1180,1199,1220,1238,1259,1280,1300,1320,1338,1359,1379,1399,1419,1440,1458,1480,1499,1519,1540,1560,1579,1600,1619,1640,1659,1680,1699,1719],"xSR":741.5,"ySR":573.95,"xT1":424.9,"yT1":0,"xT2":1058.1,"yT2":0,"toosoon":0,"cond_shown":"Congruent","ratio_trial":200,"L_num":8,"L_den":15,"R_num":2,"R_den":6,"correct_side":1,"subjID":"DylanCastillo13","gender":"0","school":"4","age":"8"},{"start_time":1552054218050,"click_time":1552054220918,"finger_time":1552054218358,"fix_duration":250,"trial":22,"RT":308,"MT":2560,"sideResp":1,"stimulus":[],"xmouse":[761,761,761,761,761,761,761,761,761,761,761,761,761,761,761,759,759,759,759,759,759,759,759,759,759,759,759,759,759,759,759,759,759,759,759,759,759,759,759,759,759,759,759,759,759,759,759,759,759,759,759,759,759,759,759,759,758,758,758,757,757,757,757,757,757,757,757,757,757,755,755,755,755,755,755,753,753,753,753,753,753,753,753,749,748,748,748,748,747,746,746,746,746,745,745,745,745,745,745,745,745,745,745,745,745,745,745,745,745,745,746,749,751,751,751,754,756,768,771,774,775,776,777,778,778,778,778,778,778,778,778,778,778,778,778,778,778,754,704,650,599,546,475,460],"ymouse":[615,615,615,615,615,615,615,615,615,615,615,615,615,615,625,683,743,769,770,770,770,770,770,770,770,772,772,772,772,772,772,772,772,772,772,772,772,772,772,772,772,772,772,772,772,772,772,772,772,772,772,772,772,772,772,771,765,765,765,765,765,765,765,765,765,765,765,765,765,767,770,771,771,771,767,760,759,759,759,759,759,757,732,664,661,661,661,661,662,665,666,666,666,667,667,667,667,667,667,666,665,665,665,665,665,667,669,670,670,664,653,631,617,612,612,611,611,605,601,597,595,594,593,591,591,591,591,591,591,591,591,591,591,591,591,591,591,540,466,390,302,211,102,80],"timestamp_mouse":[10,31,48,68,88,108,128,148,168,189,208,228,249,268,288,308,328,349,368,388,408,429,448,469,488,509,528,548,567,588,609,629,648,668,688,709,728,749,768,788,808,829,849,868,888,908,928,949,969,988,1008,1027,1049,1068,1089,1108,1127,1148,1168,1188,1208,1228,1247,1268,1289,1308,1328,1348,1368,1389,1408,1428,1448,1469,1488,1507,1528,1548,1569,1588,1608,1628,1648,1668,1688,1708,1729,1748,1768,1789,1809,1829,1849,1869,1888,1908,1928,1949,1968,1989,2008,2029,2049,2067,2088,2108,2128,2148,2169,2188,2208,2229,2248,2269,2288,2308,2328,2348,2368,2388,2407,2429,2448,2469,2487,2509,2529,2549,2569,2589,2608,2628,2648,2668,2689,2709,2728,2748,2768,2788,2809,2828,2849,2868],"xSR":741.5,"ySR":573.95,"xT1":424.9,"yT1":0,"xT2":1058.1,"yT2":0,"toosoon":0,"cond_shown":"Congruent","ratio_trial":100,"L_num":6,"L_den":20,"R_num":5,"R_den":25,"correct_side":1,"subjID":"DylanCastillo13","gender":"0","school":"4","age":"8"},{"start_time":1552054225858,"click_time":1552054227278,"finger_time":1552054226938,"fix_duration":997.4549410451694,"trial":23,"RT":1080,"MT":340,"sideResp":1,"stimulus":[],"xmouse":[806,806,806,806,806,807,808,809,809,809,809,809,809,809,809,809,809,809,809,809,809,809,809,811,811,811,811,811,811,811,811,811,811,811,811,811,811,811,811,811,811,811,811,811,811,811,811,811,811,811,811,811,811,806,789,773,755,710,683,662,643,626,604,595,590,583,574,559,548,526,498,481],"ymouse":[600,600,600,600,600,600,599,596,595,594,594,594,594,594,594,594,594,594,594,594,594,594,594,590,588,587,587,587,587,587,587,587,587,587,587,587,587,587,587,587,587,587,587,587,587,587,587,587,587,587,587,587,587,583,572,562,551,516,491,467,445,426,391,367,349,328,305,257,225,167,105,64],"timestamp_mouse":[10,20,41,60,80,100,121,140,160,180,201,221,239,260,281,301,320,341,359,381,401,421,440,459,480,500,520,540,560,580,600,621,639,660,680,701,720,740,760,780,801,820,841,860,879,901,920,941,960,980,1000,1021,1040,1060,1080,1101,1120,1140,1159,1180,1200,1219,1241,1260,1281,1300,1321,1341,1360,1380,1401,1420],"xSR":741.5,"ySR":573.95,"xT1":424.9,"yT1":0,"xT2":1058.1,"yT2":0,"toosoon":0,"cond_shown":"Incongruent","ratio_trial":100,"L_num":3,"L_den":5,"R_num":11,"R_den":22,"correct_side":1,"subjID":"DylanCastillo13","gender":"0","school":"4","age":"8"},{"start_time":1552054229176,"click_time":1552054231258,"finger_time":1552054230618,"fix_duration":1056.1721756376342,"trial":24,"RT":1442,"MT":640,"sideResp":1,"stimulus":[],"xmouse":[805,805,805,805,805,805,805,805,805,805,805,805,805,805,805,805,805,805,805,805,805,805,805,805,805,805,805,805,805,805,805,805,805,805,805,805,805,805,805,805,805,805,805,805,805,805,805,805,805,805,805,805,805,805,805,805,805,805,805,805,805,805,805,805,805,805,805,802,797,792,789,784,773,763,753,742,731,698,673,658,624,608,592,573,552,539,530,526,525,525,525,525,525,525,525,525,525,525,525,523,519,509,505,502,499],"ymouse":[644,644,644,644,644,644,644,644,644,644,644,644,644,644,644,644,644,644,644,644,644,644,644,644,644,644,644,644,644,644,644,644,644,644,644,644,644,644,644,644,644,644,644,644,644,644,644,644,644,644,644,644,644,644,644,644,644,644,644,644,644,644,644,644,644,644,644,631,619,605,593,576,540,520,506,491,476,440,411,391,345,321,292,253,209,177,157,141,133,129,127,127,127,127,127,127,127,127,127,125,120,111,106,101,97],"timestamp_mouse":[13,22,42,62,82,101,123,143,162,181,203,223,242,262,283,302,321,343,363,382,402,423,442,462,483,503,522,541,563,583,602,623,642,661,683,703,723,742,763,782,803,822,842,863,883,903,923,942,961,983,1002,1023,1042,1063,1081,1102,1122,1143,1162,1183,1203,1222,1243,1262,1282,1302,1322,1342,1362,1382,1402,1421,1442,1462,1483,1501,1522,1543,1562,1582,1611,1624,1642,1662,1682,1701,1723,1742,1762,1783,1802,1822,1843,1862,1881,1903,1922,1942,1962,1983,2002,2022,2042,2062,2082],"xSR":741.5,"ySR":573.95,"xT1":424.9,"yT1":0,"xT2":1058.1,"yT2":0,"toosoon":0,"cond_shown":"Congruent","ratio_trial":200,"L_num":5,"L_den":10,"R_num":14,"R_den":20,"correct_side":2,"subjID":"DylanCastillo13","gender":"0","school":"4","age":"8"},{"start_time":1552054235917,"click_time":1552054237118,"finger_time":1552054236679,"fix_duration":1476.195512515914,"trial":25,"RT":762,"MT":439,"sideResp":1,"stimulus":[],"xmouse":[817,817,817,817,817,817,817,817,817,817,817,817,817,817,817,817,817,817,817,817,817,817,817,817,817,816,816,816,815,812,808,805,803,802,800,797,792,788,782,759,740,707,683,661,640,634,627,623,616,603,603,603,603,603,600,594,587,580,568,533,517],"ymouse":[670,670,670,670,670,670,670,670,670,670,670,670,670,670,670,670,670,670,670,670,670,670,670,670,668,658,657,657,654,646,632,622,617,615,612,606,593,580,565,517,483,427,387,352,304,289,271,249,209,105,79,74,74,74,73,72,72,70,68,48,35],"timestamp_mouse":[11,38,41,61,82,102,122,142,162,181,201,222,242,260,282,301,321,342,362,381,401,422,442,462,482,501,522,541,561,581,601,621,641,661,681,701,721,741,762,781,801,822,841,861,881,900,921,941,960,982,1001,1021,1042,1061,1081,1100,1120,1141,1161,1181,1201],"xSR":741.5,"ySR":573.95,"xT1":424.9,"yT1":0,"xT2":1058.1,"yT2":0,"toosoon":0,"cond_shown":"Incongruent","ratio_trial":100,"L_num":9,"L_den":10,"R_num":20,"R_den":25,"correct_side":1,"subjID":"DylanCastillo13","gender":"0","school":"4","age":"8"},{"start_time":1552054242010,"click_time":1552054243479,"finger_time":1552054242898,"fix_duration":250,"trial":26,"RT":888,"MT":581,"sideResp":2,"stimulus":[],"xmouse":[809,809,809,807,807,806,806,805,804,801,799,798,798,798,797,797,797,797,797,797,797,797,797,797,797,797,797,797,797,797,797,797,797,797,797,797,797,797,797,802,806,807,809,812,817,821,822,825,832,843,848,852,854,869,896,907,908,908,909,914,931,946,966,986,1015,1027,1035,1040,1044,1051,1054,1056,1057,1059],"ymouse":[607,612,612,621,625,627,628,631,634,639,643,644,645,645,645,645,645,645,645,645,645,645,645,645,645,645,645,645,645,645,645,645,645,645,645,645,645,645,645,639,626,619,613,600,565,536,519,501,481,446,427,371,255,185,137,121,120,117,115,113,112,112,112,112,107,103,98,93,87,68,62,60,58,57],"timestamp_mouse":[15,41,48,69,88,108,128,149,169,188,208,228,248,268,288,308,328,349,369,389,408,427,449,469,488,508,529,548,568,588,608,628,648,668,689,708,729,748,768,788,808,829,848,868,888,908,929,948,969,988,1008,1028,1049,1068,1088,1107,1128,1149,1168,1188,1208,1229,1248,1269,1288,1308,1328,1348,1368,1388,1407,1427,1448,1469],"xSR":741.5,"ySR":573.95,"xT1":424.9,"yT1":0,"xT2":1058.1,"yT2":0,"toosoon":0,"cond_shown":"Incongruent","ratio_trial":200,"L_num":14,"L_den":30,"R_num":6,"R_den":9,"correct_side":2,"subjID":"DylanCastillo13","gender":"0","school":"4","age":"8"},{"start_time":1552054245712,"click_time":1552054247139,"finger_time":1552054246397,"fix_duration":712.8471887269777,"trial":27,"RT":685,"MT":742,"sideResp":1,"stimulus":[],"xmouse":[782,782,782,782,782,782,782,782,782,782,782,782,782,782,782,782,782,782,782,782,782,782,782,782,782,783,787,788,789,789,789,788,783,770,739,721,695,662,626,589,583,579,578,577,574,572,570,568,564,561,561,561,561,561,559,556,554,551,548,548,546,545,544,544,544,544,543,537,531,526,525,523],"ymouse":[613,613,613,613,613,613,613,613,613,613,613,613,613,613,613,613,613,613,613,612,612,612,612,612,612,614,620,622,623,623,623,623,623,619,609,599,571,529,488,442,430,419,414,410,397,386,370,352,329,276,233,220,186,168,144,132,123,117,113,112,111,110,110,110,110,110,110,104,100,96,94,90],"timestamp_mouse":[12,33,46,67,85,105,126,146,165,186,207,226,246,267,285,306,326,346,367,386,405,426,447,465,487,506,526,546,566,586,606,626,646,666,685,706,726,747,766,786,806,825,845,865,886,906,926,947,967,986,1006,1026,1047,1067,1086,1106,1126,1146,1166,1186,1205,1227,1247,1267,1286,1306,1325,1346,1366,1386,1407,1426],"xSR":741.5,"ySR":573.95,"xT1":424.9,"yT1":0,"xT2":1058.1,"yT2":0,"toosoon":0,"cond_shown":"Incongruent","ratio_trial":100,"L_num":3,"L_den":5,"R_num":11,"R_den":22,"correct_side":1,"subjID":"DylanCastillo13","gender":"0","school":"4","age":"8"},{"start_time":1552054248811,"click_time":1552054250598,"finger_time":1552054249998,"fix_duration":250,"trial":28,"RT":1187,"MT":600,"sideResp":2,"stimulus":[],"xmouse":[799,799,799,799,799,799,799,799,799,799,799,799,799,799,799,799,799,799,799,799,799,799,799,799,799,799,799,799,799,799,799,799,799,799,798,795,795,795,795,795,795,795,795,795,795,795,795,795,795,795,795,795,795,795,795,795,795,795,794,790,790,791,796,802,805,806,807,809,814,832,847,873,901,923,941,943,941,939,936,935,935,935,940,957,1004,1023,1038,1045,1052,1059],"ymouse":[590,590,590,590,590,590,590,590,590,590,590,590,590,590,590,590,590,590,590,590,590,590,590,590,590,590,590,590,590,590,590,590,590,590,591,590,590,590,590,590,590,590,590,590,590,590,590,590,590,590,590,590,590,590,590,590,590,586,574,544,532,517,503,491,485,484,483,481,475,442,415,365,301,237,143,120,87,69,57,43,39,38,35,33,30,30,29,28,26,24],"timestamp_mouse":[12,35,47,68,86,107,128,148,167,188,207,227,248,267,287,307,328,348,367,388,407,428,446,468,488,508,528,547,568,587,607,628,648,667,688,707,728,746,767,787,807,828,848,867,887,908,928,947,967,987,1007,1026,1048,1067,1087,1106,1127,1147,1167,1187,1207,1227,1248,1267,1286,1307,1327,1348,1367,1388,1407,1427,1447,1467,1487,1507,1528,1547,1568,1587,1607,1628,1648,1666,1687,1707,1727,1748,1768,1786],"xSR":741.5,"ySR":573.95,"xT1":424.9,"yT1":0,"xT2":1058.1,"yT2":0,"toosoon":0,"cond_shown":"Incongruent","ratio_trial":300,"L_num":4,"L_den":20,"R_num":2,"R_den":4,"correct_side":2,"subjID":"DylanCastillo13","gender":"0","school":"4","age":"8"},{"start_time":1552054253073,"click_time":1552054254518,"finger_time":1552054254398,"fix_duration":1391.439480435991,"trial":29,"RT":1325,"MT":120,"sideResp":1,"stimulus":[],"xmouse":[792,792,792,792,792,792,792,791,790,790,790,790,790,790,790,790,790,790,790,790,790,790,790,790,790,790,790,790,790,790,790,790,790,790,790,790,790,791,792,793,794,794,794,794,794,794,794,794,794,794,794,794,794,794,794,794,794,794,794,794,794,794,794,794,794,790,775,763,750,730,696,583,482],"ymouse":[603,603,603,603,603,603,602,601,600,600,600,600,600,600,600,600,600,600,600,600,600,600,600,600,600,600,600,600,600,600,600,600,600,600,600,599,595,594,592,591,590,589,589,589,589,589,589,589,589,589,589,589,589,589,589,589,589,589,589,589,589,589,589,589,587,579,558,543,523,493,434,244,80],"timestamp_mouse":[12,41,45,66,85,105,125,144,165,186,206,225,244,266,286,306,325,345,366,386,405,425,445,465,486,505,525,545,564,586,605,626,645,664,686,705,724,745,765,785,806,825,846,866,885,905,926,945,966,986,1005,1025,1046,1066,1085,1106,1125,1145,1165,1185,1205,1226,1246,1265,1284,1305,1325,1345,1365,1385,1405,1425,1445],"xSR":741.5,"ySR":573.95,"xT1":424.9,"yT1":0,"xT2":1058.1,"yT2":0,"toosoon":0,"cond_shown":"Incongruent","ratio_trial":200,"L_num":4,"L_den":30,"R_num":1,"R_den":3,"correct_side":2,"subjID":"DylanCastillo13","gender":"0","school":"4","age":"8"},{"start_time":1552054262251,"click_time":1552054265098,"finger_time":1552054264058,"fix_duration":970.9679746435189,"trial":30,"RT":1807,"MT":1040,"sideResp":2,"stimulus":[],"xmouse":[781,781,781,781,781,781,781,781,781,781,781,781,781,781,781,781,781,781,781,781,781,781,781,781,781,781,781,781,781,781,781,781,781,781,781,781,781,781,781,781,781,781,781,781,781,781,781,781,781,781,781,781,781,781,781,781,781,781,781,781,781,781,781,781,781,781,781,781,781,781,781,781,781,781,781,781,781,781,781,781,781,781,781,781,781,781,781,780,778,778,778,777,767,760,755,753,753,757,765,782,818,888,1066,1193,1269,1313,1337,1344,1346,1346,1346,1346,1345,1340,1339,1339,1339,1338,1331,1316,1300,1286,1278,1274,1264,1252,1237,1226,1216,1215,1213,1213,1212,1206,1202,1199,1193,1182,1176,1172,1168,1160,1142],"ymouse":[621,621,621,621,621,621,621,621,621,621,621,621,621,621,621,621,621,621,621,621,621,621,621,621,621,621,621,621,621,621,621,621,621,621,621,621,621,621,621,621,621,621,621,621,621,621,621,621,621,621,621,621,621,621,621,621,621,621,621,621,621,621,621,621,621,621,621,621,621,621,621,621,621,621,621,621,621,621,621,621,621,621,621,621,621,621,621,617,605,588,569,548,478,427,394,352,303,255,243,230,219,200,150,117,93,82,74,71,66,58,44,31,21,11,9,8,8,8,17,31,38,43,45,46,46,46,46,46,46,47,47,47,47,47,47,47,47,49,50,50,50,50,50],"timestamp_mouse":[12,36,47,67,88,108,128,147,167,186,207,228,247,267,288,307,327,348,367,389,408,427,447,467,487,507,528,547,567,588,607,627,647,667,688,708,726,746,767,788,808,827,848,867,886,908,927,947,967,986,1015,1026,1047,1068,1088,1108,1126,1148,1167,1187,1208,1227,1247,1266,1288,1307,1328,1346,1367,1387,1407,1427,1447,1467,1487,1507,1526,1548,1567,1587,1606,1628,1647,1666,1688,1707,1726,1747,1767,1787,1807,1827,1847,1867,1887,1907,1928,1947,1967,1987,2008,2028,2047,2067,2088,2107,2127,2147,2167,2187,2206,2227,2248,2267,2287,2307,2327,2348,2367,2387,2407,2427,2448,2466,2487,2508,2527,2547,2567,2586,2608,2627,2647,2667,2687,2707,2727,2747,2767,2788,2807,2827,2847],"xSR":741.5,"ySR":573.95,"xT1":424.9,"yT1":0,"xT2":1058.1,"yT2":0,"toosoon":0,"cond_shown":"Congruent","ratio_trial":100,"L_num":10,"L_den":25,"R_num":3,"R_den":10,"correct_side":1,"subjID":"DylanCastillo13","gender":"0","school":"4","age":"8"},{"start_time":1552054268957,"click_time":1552054270218,"finger_time":1552054269938,"fix_duration":1116.06262768012,"trial":31,"RT":981,"MT":280,"sideResp":2,"stimulus":[],"xmouse":[799,799,799,799,799,799,799,799,799,799,799,799,799,799,799,799,799,799,799,799,799,799,799,799,799,799,799,799,799,799,799,799,799,799,799,799,799,799,799,799,799,799,799,799,799,799,799,800,818,845,896,968,1081,1106,1114,1118,1119,1119,1119,1119,1119,1119,1117,1115],"ymouse":[631,631,631,631,631,631,631,631,631,631,631,631,631,631,631,631,631,631,631,631,631,631,631,631,631,631,631,631,631,631,631,631,631,631,631,631,631,631,631,631,631,631,631,631,631,631,631,623,577,520,447,359,193,155,140,129,124,119,112,107,106,105,102,99],"timestamp_mouse":[10,22,43,62,81,101,122,142,161,181,202,220,240,262,281,302,322,340,362,382,402,421,442,462,482,502,520,542,562,580,601,622,640,661,682,702,722,741,761,782,800,822,842,861,882,902,921,941,961,981,1001,1021,1041,1061,1081,1101,1122,1140,1162,1181,1202,1220,1241,1260],"xSR":741.5,"ySR":573.95,"xT1":424.9,"yT1":0,"xT2":1058.1,"yT2":0,"toosoon":0,"cond_shown":"Incongruent","ratio_trial":200,"L_num":14,"L_den":30,"R_num":6,"R_den":9,"correct_side":2,"subjID":"DylanCastillo13","gender":"0","school":"4","age":"8"},{"start_time":1552054274712,"click_time":1552054275899,"finger_time":1552054275638,"fix_duration":1332.2367308975101,"trial":32,"RT":926,"MT":261,"sideResp":1,"stimulus":[],"xmouse":[807,807,807,807,807,807,807,807,807,807,807,807,807,807,807,807,807,807,807,807,807,807,807,807,807,807,807,807,807,807,807,807,807,807,807,807,807,807,807,807,807,807,807,807,797,785,768,745,719,646,569,541,481,456,445,435,434,434,434,434],"ymouse":[633,633,633,633,633,633,633,633,633,633,633,633,633,633,633,633,633,633,633,633,633,633,633,633,633,633,633,633,633,633,633,633,633,633,633,633,633,633,633,633,633,633,633,633,618,599,568,521,460,282,109,53,0,0,0,0,0,0,0,1],"timestamp_mouse":[13,41,47,66,85,106,127,147,166,187,207,227,246,267,286,305,326,347,367,387,406,427,447,466,485,505,527,546,566,586,606,627,645,666,687,707,726,747,766,787,807,826,847,866,886,906,926,947,966,986,1005,1027,1047,1066,1087,1106,1126,1147,1167,1186],"xSR":741.5,"ySR":573.95,"xT1":424.9,"yT1":0,"xT2":1058.1,"yT2":0,"toosoon":0,"cond_shown":"Incongruent","ratio_trial":200,"L_num":3,"L_den":4,"R_num":11,"R_den":20,"correct_side":1,"subjID":"DylanCastillo13","gender":"0","school":"4","age":"8"},{"start_time":1552054279562,"click_time":1552054280878,"finger_time":1552054280598,"fix_duration":701.6033314214727,"trial":33,"RT":1036,"MT":280,"sideResp":2,"stimulus":[],"xmouse":[807,807,807,807,807,807,807,807,807,807,807,807,807,807,807,807,807,807,807,807,807,807,807,807,807,807,805,804,804,804,804,804,804,804,804,804,804,804,804,804,804,804,804,804,804,804,804,804,804,804,804,804,804,819,833,840,844,852,864,880,900,955,989,1028,1051,1065],"ymouse":[612,612,612,612,612,612,612,612,612,612,612,612,612,612,612,612,612,612,612,612,612,612,612,612,612,609,604,599,599,599,599,599,599,599,599,599,599,599,599,599,599,599,599,599,599,599,599,599,599,597,591,547,355,280,231,207,190,152,134,120,106,66,40,22,12,7],"timestamp_mouse":[16,37,57,77,95,116,137,157,177,196,216,236,255,275,296,317,336,355,377,396,416,436,456,476,496,516,536,556,576,595,616,637,656,677,695,717,737,757,776,797,816,837,855,875,896,917,936,955,977,996,1016,1036,1056,1076,1096,1116,1136,1156,1176,1196,1216,1236,1256,1276,1296,1316],"xSR":741.5,"ySR":573.95,"xT1":424.9,"yT1":0,"xT2":1058.1,"yT2":0,"toosoon":0,"cond_shown":"Congruent","ratio_trial":300,"L_num":1,"L_den":5,"R_num":11,"R_den":22,"correct_side":2,"subjID":"DylanCastillo13","gender":"0","school":"4","age":"8"},{"start_time":1552054282330,"click_time":1552054283899,"finger_time":1552054283299,"fix_duration":250,"trial":34,"RT":969,"MT":600,"sideResp":1,"stimulus":[],"xmouse":[828,828,828,828,828,828,828,828,828,828,828,828,828,828,828,828,828,828,828,828,828,828,828,828,828,828,828,828,828,828,828,828,828,828,828,828,828,828,828,828,828,828,828,828,825,822,817,811,804,780,761,731,699,681,667,665,665,665,665,669,673,675,675,669,642,636,630,622,606,586,565,553,546,541,537,534,530,527,521],"ymouse":[622,622,622,622,622,622,622,622,622,622,622,622,622,622,622,622,622,621,620,620,619,619,619,619,619,619,619,619,619,619,619,619,619,619,619,619,619,619,619,619,619,615,614,610,606,601,591,581,569,525,491,421,355,319,292,287,284,279,274,261,249,232,209,176,118,108,99,91,79,65,51,42,36,32,31,31,30,29,29],"timestamp_mouse":[13,34,47,68,87,109,128,149,168,189,208,229,249,268,288,308,328,349,368,388,408,429,448,469,487,509,527,549,568,588,607,628,649,668,689,709,729,749,768,788,808,829,848,868,888,909,928,947,969,989,1008,1028,1049,1068,1088,1108,1128,1149,1169,1189,1208,1229,1249,1268,1288,1308,1329,1348,1368,1388,1409,1429,1448,1468,1487,1509,1529,1548,1569],"xSR":741.5,"ySR":573.95,"xT1":424.9,"yT1":0,"xT2":1058.1,"yT2":0,"toosoon":0,"cond_shown":"Incongruent","ratio_trial":300,"L_num":1,"L_den":2,"R_num":2,"R_den":10,"correct_side":1,"subjID":"DylanCastillo13","gender":"0","school":"4","age":"8"},{"start_time":1552054285650,"click_time":1552054286878,"finger_time":1552054286459,"fix_duration":551.7277530894494,"trial":35,"RT":809,"MT":419,"sideResp":1,"stimulus":[],"xmouse":[816,816,816,815,815,815,815,815,815,815,814,814,814,814,814,814,814,814,814,814,814,814,814,814,814,814,814,813,813,812,811,811,809,809,809,809,808,805,802,795,787,776,747,717,692,671,661,644,636,622,607,595,574,566,560,553,545,535,532,529,526,524],"ymouse":[629,629,628,626,626,626,626,626,626,623,622,621,620,620,620,620,620,620,620,620,620,620,620,620,620,620,620,618,616,614,610,607,604,604,604,603,602,597,592,581,567,547,494,454,435,420,410,381,359,327,292,266,214,197,177,152,128,90,79,72,68,65],"timestamp_mouse":[22,28,48,68,89,109,128,148,168,189,208,228,249,269,289,309,327,349,368,388,409,428,448,468,487,509,529,548,568,588,609,628,648,668,688,709,728,748,768,788,809,828,848,868,889,909,928,948,968,988,1008,1028,1049,1067,1088,1109,1128,1149,1168,1188,1208,1228],"xSR":741.5,"ySR":573.95,"xT1":424.9,"yT1":0,"xT2":1058.1,"yT2":0,"toosoon":0,"cond_shown":"Congruent","ratio_trial":300,"L_num":20,"L_den":25,"R_num":13,"R_den":26,"correct_side":1,"subjID":"DylanCastillo13","gender":"0","school":"4","age":"8"},{"start_time":1552054290601,"click_time":1552054292278,"finger_time":1552054291718,"fix_duration":682.519614374921,"trial":36,"RT":1117,"MT":560,"sideResp":2,"stimulus":[],"xmouse":[783,783,783,783,783,784,784,784,784,784,784,784,784,784,784,784,784,784,784,784,784,784,784,784,784,784,784,784,784,784,784,784,784,784,784,784,784,784,784,784,784,784,784,784,784,784,784,784,784,784,784,784,787,805,851,893,928,954,966,968,968,968,968,968,970,971,972,973,980,984,990,998,1008,1027,1036,1041,1042,1045,1054,1060,1068,1073,1079],"ymouse":[624,622,622,622,620,619,618,618,617,617,617,617,617,617,617,617,617,617,617,617,617,617,617,617,617,617,617,617,617,617,617,617,617,617,617,617,617,617,617,617,617,617,617,617,617,617,617,617,617,617,617,617,611,582,492,408,335,270,222,202,202,201,199,196,192,190,189,188,178,171,161,147,135,119,113,109,108,107,105,104,101,100,98],"timestamp_mouse":[37,58,78,97,118,138,157,177,197,218,237,258,277,297,318,338,358,377,398,417,437,456,478,497,517,536,556,578,597,617,637,658,677,697,717,737,758,778,796,817,838,858,877,897,916,938,958,977,997,1018,1037,1057,1078,1097,1117,1137,1158,1177,1196,1216,1237,1258,1277,1297,1317,1337,1358,1377,1397,1416,1437,1457,1477,1497,1518,1537,1557,1576,1597,1617,1637,1657,1677],"xSR":741.5,"ySR":573.95,"xT1":424.9,"yT1":0,"xT2":1058.1,"yT2":0,"toosoon":0,"cond_shown":"Congruent","ratio_trial":100,"L_num":6,"L_den":20,"R_num":5,"R_den":25,"correct_side":1,"subjID":"DylanCastillo13","gender":"0","school":"4","age":"8"},{"start_time":1552054297964,"click_time":1552054299498,"finger_time":1552054298898,"fix_duration":1365.629622706589,"trial":37,"RT":934,"MT":600,"sideResp":1,"stimulus":[],"xmouse":[744,744,744,744,744,744,744,744,744,744,744,748,751,753,757,759,760,761,761,761,761,761,761,761,761,761,761,761,761,758,757,757,757,757,757,757,757,757,757,757,757,757,757,757,756,753,731,706,648,605,536,371,315,289,283,283,283,283,283,283,285,296,305,310,313,317,322,336,350,360,374,389,395,403,408,412,439],"ymouse":[577,577,577,577,577,577,577,577,577,578,579,586,591,594,599,602,605,607,607,607,607,607,607,607,608,608,608,608,608,608,608,607,607,607,607,607,607,607,607,607,607,607,607,607,606,603,573,544,476,416,330,139,68,33,26,26,26,26,26,26,25,26,27,28,29,30,31,34,38,42,47,52,54,56,56,56,39],"timestamp_mouse":[15,50,55,75,95,115,135,154,174,195,215,234,254,275,294,315,334,354,374,394,414,434,454,475,494,515,534,555,574,595,614,634,654,674,694,714,735,753,774,795,815,834,854,874,894,915,934,955,974,995,1014,1034,1053,1074,1095,1114,1134,1154,1174,1195,1214,1234,1254,1274,1294,1314,1335,1353,1375,1395,1414,1434,1453,1474,1494,1515,1534],"xSR":741.5,"ySR":573.95,"xT1":424.9,"yT1":0,"xT2":1058.1,"yT2":0,"toosoon":0,"cond_shown":"Incongruent","ratio_trial":100,"L_num":3,"L_den":5,"R_num":8,"R_den":16,"correct_side":1,"subjID":"DylanCastillo13","gender":"0","school":"4","age":"8"},{"start_time":1552054305877,"click_time":1552054307159,"finger_time":1552054306459,"fix_duration":435.86902473331133,"trial":38,"RT":582,"MT":700,"sideResp":1,"stimulus":[],"xmouse":[815,815,815,815,815,815,815,815,815,815,815,815,815,815,815,815,815,815,815,815,815,815,815,815,815,815,812,800,785,770,761,756,755,755,755,755,755,755,755,754,752,733,690,641,582,518,445,309,277,262,255,250,250,250,250,252,263,278,299,321,340,370,395,415,438],"ymouse":[612,612,612,612,612,612,612,612,612,612,612,612,612,612,612,612,612,612,612,612,612,612,612,612,612,612,612,601,586,571,554,539,526,525,525,525,524,524,524,522,516,486,438,395,345,281,212,72,30,11,0,0,0,0,0,0,0,0,0,1,7,17,25,31,38],"timestamp_mouse":[10,21,42,62,81,101,122,142,161,181,202,222,242,261,281,301,321,341,361,382,401,422,442,461,482,501,522,541,561,582,601,622,642,661,682,701,722,741,762,782,801,821,841,862,881,901,921,941,961,981,1001,1022,1041,1061,1081,1101,1124,1141,1162,1181,1202,1221,1241,1262,1282],"xSR":741.5,"ySR":573.95,"xT1":424.9,"yT1":0,"xT2":1058.1,"yT2":0,"toosoon":0,"cond_shown":"Congruent","ratio_trial":300,"L_num":24,"L_den":30,"R_num":2,"R_den":4,"correct_side":1,"subjID":"DylanCastillo13","gender":"0","school":"4","age":"8"},{"start_time":1552054310820,"click_time":1552054312998,"finger_time":1552054312299,"fix_duration":580.1925269044773,"trial":39,"RT":1479,"MT":699,"sideResp":1,"stimulus":[],"xmouse":[787,787,787,787,787,787,787,787,787,787,787,787,787,787,787,787,787,787,787,787,787,787,787,787,787,787,787,787,787,787,787,787,787,787,787,787,784,782,779,778,778,778,778,778,778,778,778,778,778,778,778,778,778,778,778,778,778,778,778,778,778,778,778,778,778,778,778,778,778,778,777,777,777,772,745,735,724,715,706,694,687,679,672,666,642,630,622,615,595,585,572,558,542,503,491,486,484,484,484,483,481,479,478,475,471,469,467,465,455],"ymouse":[600,600,600,600,600,600,600,600,600,600,600,600,600,600,600,600,600,600,600,600,600,600,600,600,600,600,600,600,600,600,600,600,600,600,600,600,599,596,588,586,586,586,586,586,586,586,586,586,586,586,586,586,586,586,586,586,586,586,586,586,586,586,586,586,586,586,586,586,586,586,585,585,584,573,525,503,483,467,453,429,417,403,392,380,342,326,313,303,275,263,247,231,215,168,156,151,149,148,148,147,146,144,143,133,123,116,112,104,84],"timestamp_mouse":[22,49,59,78,98,119,139,159,178,198,219,238,258,278,299,318,337,359,379,398,418,438,458,478,498,519,538,558,578,598,618,638,658,678,698,719,737,759,778,799,819,839,858,878,898,919,939,958,978,998,1018,1038,1058,1079,1098,1118,1139,1158,1179,1198,1218,1239,1258,1278,1298,1318,1339,1359,1378,1398,1419,1438,1457,1479,1499,1518,1538,1558,1578,1598,1619,1638,1659,1679,1699,1719,1739,1759,1778,1797,1819,1839,1858,1879,1898,1918,1939,1959,1979,1998,2018,2039,2058,2078,2098,2119,2138,2159,2178],"xSR":741.5,"ySR":573.95,"xT1":424.9,"yT1":0,"xT2":1058.1,"yT2":0,"toosoon":0,"cond_shown":"Congruent","ratio_trial":100,"L_num":15,"L_den":25,"R_num":13,"R_den":26,"correct_side":1,"subjID":"DylanCastillo13","gender":"0","school":"4","age":"8"},{"start_time":1552054315169,"click_time":1552054317979,"finger_time":1552054317398,"fix_duration":808.00663715269,"trial":40,"RT":2229,"MT":581,"sideResp":1,"stimulus":[],"xmouse":[805,805,805,805,805,805,805,805,805,805,805,805,805,805,805,805,805,805,805,805,805,805,805,805,805,805,805,805,805,805,805,805,805,805,805,805,805,805,805,805,805,805,805,805,805,805,805,805,805,805,805,805,805,805,805,805,805,805,805,805,805,805,805,805,805,805,805,805,805,805,805,805,805,805,805,805,805,805,805,805,805,805,805,805,805,805,805,805,805,805,805,805,805,805,805,805,805,805,805,805,805,805,805,805,805,805,805,805,805,809,815,835,835,833,832,832,831,839,838,806,765,728,728,728,728,728,726,709,709,706,700,685,682,675,653,604,466,449,447,443,439],"ymouse":[620,620,620,620,620,620,620,620,620,620,620,620,620,620,620,620,620,620,620,620,620,620,620,620,620,620,620,620,620,620,620,620,620,620,620,620,620,620,620,620,620,620,620,620,620,620,620,620,620,620,620,620,620,620,620,620,620,620,620,620,620,620,620,620,620,620,620,620,620,620,620,620,620,620,620,620,620,620,620,620,620,620,620,620,620,620,620,620,620,620,620,620,620,620,620,620,620,620,620,620,620,620,620,620,620,620,620,620,620,620,611,539,538,535,534,534,534,462,385,320,258,218,218,218,218,218,217,201,201,199,197,193,193,191,186,173,127,119,117,109,94],"timestamp_mouse":[12,36,50,70,89,110,129,150,169,190,209,230,249,270,290,309,329,349,370,390,410,429,450,470,490,509,529,550,570,589,610,629,650,669,689,710,730,749,770,789,809,829,849,870,890,909,930,950,969,990,1009,1030,1049,1070,1089,1109,1129,1149,1170,1189,1209,1230,1250,1269,1290,1310,1329,1350,1370,1389,1410,1430,1449,1470,1489,1510,1530,1549,1569,1590,1610,1630,1649,1669,1690,1709,1730,1749,1769,1790,1809,1828,1849,1869,1889,1909,1929,1949,1970,1990,2010,2030,2049,2069,2090,2109,2129,2149,2170,2189,2210,2229,2249,2269,2289,2310,2330,2349,2370,2389,2410,2429,2449,2469,2490,2510,2530,2549,2569,2590,2609,2630,2649,2669,2690,2710,2729,2749,2769,2790,2810],"xSR":741.5,"ySR":573.95,"xT1":424.9,"yT1":0,"xT2":1058.1,"yT2":0,"toosoon":0,"cond_shown":"Incongruent","ratio_trial":200,"L_num":4,"L_den":5,"R_num":6,"R_den":10,"correct_side":1,"subjID":"DylanCastillo13","gender":"0","school":"4","age":"8"},{"start_time":1552054320323,"click_time":1552054323478,"finger_time":1552054321519,"fix_duration":323.7538693752052,"trial":41,"RT":1196,"MT":1959,"sideResp":1,"stimulus":[],"xmouse":[759,759,759,759,759,759,759,759,759,759,759,759,759,759,759,759,759,759,759,759,759,759,759,759,759,759,759,759,759,759,759,759,759,759,759,759,759,759,759,759,759,759,759,759,759,759,759,759,759,759,759,759,759,759,759,759,759,759,759,749,741,733,727,714,711,707,702,694,675,660,651,644,637,630,617,612,609,605,596,590,586,580,576,574,569,566,564,563,560,554,552,552,552,552,553,557,562,569,577,579,581,584,588,594,595,596,598,599,601,602,603,604,605,608,611,612,614,615,617,617,617,617,618,628,634,639,642,645,649,649,649,649,649,644,639,635,631,627,618,614,609,603,598,589,585,582,577,574,565,559,553,545,539,534,532,530,527,524],"ymouse":[607,607,607,607,607,607,607,607,607,607,607,607,607,607,607,607,607,607,607,607,607,607,607,607,607,607,607,607,607,607,607,607,607,607,607,607,607,607,607,607,607,607,607,607,607,607,607,607,607,607,607,607,607,607,607,607,607,607,599,561,534,508,490,461,452,444,433,420,388,361,345,332,320,309,290,285,279,272,257,245,237,227,220,215,207,202,198,194,189,173,170,166,163,161,153,150,146,142,136,132,128,123,118,111,108,104,102,99,94,91,88,86,84,80,75,74,72,70,68,68,68,68,68,68,68,68,68,67,66,66,66,66,66,63,61,59,57,54,49,46,44,41,38,32,30,28,25,23,20,17,14,11,7,5,4,3,3,2],"timestamp_mouse":[15,35,56,75,95,116,136,156,176,195,215,235,255,275,295,315,335,355,375,395,416,436,455,475,496,516,535,555,575,596,615,634,656,675,696,715,736,755,776,796,815,836,855,876,896,916,936,956,975,995,1015,1035,1055,1076,1096,1115,1136,1155,1175,1196,1215,1235,1255,1275,1295,1315,1336,1355,1376,1395,1415,1436,1456,1476,1495,1516,1536,1556,1575,1595,1615,1636,1655,1675,1695,1715,1735,1756,1776,1796,1815,1836,1855,1875,1895,1916,1935,1955,1976,1995,2015,2035,2056,2076,2095,2115,2136,2155,2175,2195,2215,2236,2256,2275,2295,2315,2336,2356,2376,2396,2416,2436,2455,2475,2495,2516,2534,2556,2576,2596,2615,2635,2655,2675,2694,2716,2735,2755,2775,2796,2815,2835,2855,2875,2895,2915,2935,2955,2975,2994,3015,3036,3056,3076,3095,3115,3136,3155],"xSR":741.5,"ySR":573.95,"xT1":424.9,"yT1":0,"xT2":1058.1,"yT2":0,"toosoon":0,"cond_shown":"Incongruent","ratio_trial":300,"L_num":8,"L_den":10,"R_num":9,"R_den":18,"correct_side":1,"subjID":"DylanCastillo13","gender":"0","school":"4","age":"8"},{"start_time":1552054325816,"click_time":1552054328319,"finger_time":1552054326879,"fix_duration":1255.0913229918604,"trial":42,"RT":1063,"MT":1440,"sideResp":1,"stimulus":[],"xmouse":[814,814,814,814,814,814,814,814,814,814,814,814,814,814,814,814,814,814,814,814,814,814,814,814,814,814,814,814,814,814,814,814,814,814,814,814,814,814,814,814,814,814,814,814,814,814,814,814,814,814,813,809,802,792,762,742,731,720,708,696,672,660,649,634,603,593,581,570,558,539,530,521,517,513,512,511,511,511,511,511,511,511,514,525,553,678,722,745,764,796,810,817,819,819,819,819,819,819,819,819,819,819,819,819,819,819,819,819,819,816,790,759,733,703,630,587,572,557,547,518,506,492,482,477,475,472],"ymouse":[617,617,617,617,617,617,617,617,617,617,617,617,617,617,617,617,617,617,617,617,617,617,617,617,617,617,617,617,617,617,617,617,617,617,617,617,617,617,617,617,617,617,617,617,617,617,617,617,617,617,618,607,588,566,513,479,460,441,420,398,348,324,305,284,235,219,204,190,175,153,143,134,129,125,124,123,123,123,123,123,123,124,130,151,199,391,456,503,541,641,690,714,722,722,722,726,732,736,737,738,738,738,738,738,738,738,738,738,738,726,664,594,530,459,334,282,265,250,237,200,176,152,131,117,109,99],"timestamp_mouse":[12,34,43,62,82,103,123,143,163,183,203,223,243,262,282,302,322,343,362,382,402,423,443,463,483,502,523,542,563,582,601,623,643,662,683,702,723,742,762,783,802,823,842,863,882,903,923,943,963,982,1002,1022,1042,1063,1083,1102,1122,1142,1162,1183,1202,1222,1242,1262,1283,1301,1323,1342,1363,1382,1402,1422,1442,1462,1482,1502,1522,1543,1563,1583,1602,1622,1643,1662,1683,1702,1723,1742,1762,1783,1802,1822,1843,1863,1883,1902,1922,1942,1962,1982,2002,2022,2043,2062,2082,2102,2123,2143,2163,2183,2202,2222,2242,2263,2282,2302,2323,2343,2362,2383,2402,2422,2442,2462,2483,2503],"xSR":741.5,"ySR":573.95,"xT1":424.9,"yT1":0,"xT2":1058.1,"yT2":0,"toosoon":0,"cond_shown":"Incongruent","ratio_trial":100,"L_num":2,"L_den":4,"R_num":8,"R_den":20,"correct_side":1,"subjID":"DylanCastillo13","gender":"0","school":"4","age":"8"},{"start_time":1552054329471,"click_time":1552054331658,"finger_time":1552054331039,"fix_duration":250,"trial":43,"RT":1568,"MT":619,"sideResp":1,"stimulus":[],"xmouse":[774,774,774,774,774,774,774,774,774,774,774,774,774,774,774,774,774,774,774,774,774,774,774,774,774,774,774,774,774,774,774,774,774,774,774,774,774,774,774,774,774,774,774,774,774,774,774,774,774,774,774,774,774,774,774,774,774,774,774,774,774,774,774,774,774,774,774,774,774,774,774,774,774,774,774,774,774,763,727,696,677,669,663,663,663,663,663,663,659,652,641,631,621,619,614,607,589,584,578,571,564,559,547,541,540,538,537,534,527,517],"ymouse":[640,640,640,640,640,640,640,640,640,640,640,640,640,640,640,640,640,640,640,640,640,640,640,640,640,640,640,640,640,640,640,640,640,640,640,640,640,640,640,640,640,640,640,640,640,640,640,640,640,640,640,640,640,640,640,640,640,640,640,640,640,640,640,640,640,640,640,640,640,640,640,640,640,640,640,640,640,613,544,476,424,369,245,221,203,183,144,127,111,97,82,69,59,57,54,52,47,46,45,45,45,45,47,48,50,50,51,53,54,55],"timestamp_mouse":[13,38,47,67,88,107,127,148,168,188,207,228,248,266,288,307,327,347,368,388,408,428,447,467,488,508,528,548,567,587,607,628,647,666,688,708,728,747,768,787,808,827,847,868,886,908,928,948,968,987,1007,1028,1047,1068,1087,1108,1128,1148,1168,1187,1208,1227,1248,1267,1287,1307,1327,1348,1366,1388,1408,1427,1447,1468,1487,1506,1528,1547,1568,1587,1608,1627,1647,1668,1688,1707,1728,1747,1768,1788,1807,1827,1847,1867,1887,1908,1927,1947,1968,1987,2006,2028,2047,2068,2087,2108,2127,2147,2167,2187],"xSR":741.5,"ySR":573.95,"xT1":424.9,"yT1":0,"xT2":1058.1,"yT2":0,"toosoon":0,"cond_shown":"Incongruent","ratio_trial":100,"L_num":9,"L_den":15,"R_num":13,"R_den":26,"correct_side":1,"subjID":"DylanCastillo13","gender":"0","school":"4","age":"8"},{"start_time":1552054333804,"click_time":1552054337839,"finger_time":1552054336898,"fix_duration":1303.8450528349786,"trial":44,"RT":3094,"MT":941,"sideResp":1,"stimulus":[],"xmouse":[816,816,816,816,816,816,816,816,816,816,816,816,816,816,816,816,816,816,816,816,817,817,817,817,817,817,817,817,817,817,817,817,817,817,817,817,817,817,817,817,817,817,817,817,817,817,817,817,817,817,817,817,817,817,817,817,817,817,817,817,817,817,817,817,817,817,817,817,817,817,817,817,817,817,817,817,817,817,817,817,817,817,817,817,817,817,817,817,817,817,817,817,817,817,817,817,817,817,817,817,817,817,817,817,817,817,817,817,817,817,817,817,817,817,817,817,817,817,817,817,817,817,817,817,817,817,817,817,817,817,817,817,817,817,817,817,817,817,817,816,815,813,812,811,807,805,803,802,799,794,779,770,761,748,727,720,715,712,711,710,709,709,709,709,714,714,714,714,714,714,714,714,714,714,714,714,712,699,681,648,640,632,626,618,589,572,543,535,514,491,484,481,477,474,470,466,466,466,466,466,465,463],"ymouse":[604,604,604,604,604,604,605,605,605,605,605,605,605,605,605,605,605,605,605,605,605,605,605,605,605,605,605,605,605,605,605,605,605,605,605,605,605,605,605,605,605,605,605,605,605,605,605,605,605,605,605,605,605,605,605,605,605,605,605,605,605,605,605,605,605,605,605,605,605,605,605,605,605,605,605,605,605,605,605,605,605,605,605,605,605,605,605,605,605,605,605,605,605,605,605,605,605,605,605,608,613,615,615,615,615,615,615,615,615,615,615,615,615,615,615,615,615,615,615,615,615,615,615,615,615,615,615,615,615,615,615,615,615,615,615,615,615,615,615,616,616,616,616,616,616,615,614,614,612,609,601,594,587,575,548,538,519,507,499,488,482,471,454,435,416,416,416,416,416,416,417,418,418,418,418,418,402,355,300,231,210,193,181,167,116,76,23,8,0,0,0,0,0,0,0,0,0,0,0,0,0,1],"timestamp_mouse":[14,41,55,73,94,114,134,154,174,194,214,234,254,274,294,314,335,354,374,395,414,434,453,474,494,513,535,555,574,594,614,635,655,675,694,714,735,754,774,795,814,835,854,875,894,914,934,955,975,995,1015,1033,1054,1075,1094,1115,1135,1155,1174,1194,1215,1234,1255,1274,1295,1315,1334,1355,1374,1394,1415,1434,1454,1475,1494,1514,1535,1555,1575,1595,1614,1633,1655,1674,1694,1714,1734,1755,1774,1794,1814,1835,1854,1875,1894,1913,1935,1954,1974,1994,2013,2034,2055,2074,2094,2114,2135,2154,2174,2193,2214,2234,2254,2275,2295,2315,2334,2355,2374,2395,2414,2435,2454,2474,2495,2514,2535,2554,2575,2594,2614,2642,2654,2674,2694,2715,2735,2755,2774,2795,2814,2834,2854,2875,2895,2914,2934,2954,2975,2994,3014,3034,3055,3075,3094,3115,3135,3154,3175,3194,3214,3234,3261,3274,3294,3314,3335,3355,3374,3395,3414,3435,3455,3474,3494,3515,3534,3555,3575,3594,3614,3634,3654,3674,3694,3713,3735,3755,3775,3796,3814,3834,3854,3875,3894,3915,3934,3954,3974,3995,4014,4034],"xSR":741.5,"ySR":573.95,"xT1":424.9,"yT1":0,"xT2":1058.1,"yT2":0,"toosoon":0,"cond_shown":"Incongruent","ratio_trial":300,"L_num":13,"L_den":26,"R_num":12,"R_den":15,"correct_side":2,"subjID":"DylanCastillo13","gender":"0","school":"4","age":"8"},{"start_time":1552054343351,"click_time":1552054345379,"finger_time":1552054344959,"fix_duration":250,"trial":45,"RT":1608,"MT":420,"sideResp":2,"stimulus":[],"xmouse":[821,821,821,821,821,821,821,821,821,821,821,821,821,821,821,821,821,821,821,821,821,821,821,821,821,821,821,821,821,821,821,821,821,821,821,821,821,821,821,821,821,821,821,821,821,821,821,821,821,821,821,821,821,821,821,821,821,821,821,821,821,821,821,821,821,821,821,821,821,821,821,821,821,821,821,821,821,821,821,821,825,832,882,912,940,968,985,997,998,998,998,998,999,999,999,999,1000,1013,1031,1044,1056,1065],"ymouse":[605,605,605,605,605,605,605,605,605,605,605,605,605,605,605,605,605,605,605,605,605,605,605,605,605,605,605,605,605,605,605,605,605,605,605,605,605,605,605,605,605,605,605,605,605,605,605,605,605,605,605,605,605,605,605,605,605,605,605,605,606,606,606,606,606,606,606,606,606,606,606,606,606,606,606,606,606,606,606,606,568,528,342,260,195,145,104,43,26,23,22,21,19,19,19,19,18,23,31,38,45,51],"timestamp_mouse":[13,39,47,67,87,108,128,147,167,188,208,228,248,267,288,308,327,347,367,388,408,428,447,467,488,507,527,548,567,587,607,628,647,668,687,708,727,748,768,787,807,828,848,867,887,908,927,948,967,988,1008,1028,1047,1067,1088,1107,1127,1147,1167,1187,1208,1228,1247,1267,1288,1307,1328,1347,1368,1387,1408,1428,1448,1468,1486,1508,1528,1548,1567,1587,1608,1627,1647,1667,1687,1707,1727,1747,1767,1787,1808,1827,1847,1867,1887,1907,1927,1947,1966,1987,2007,2028],"xSR":741.5,"ySR":573.95,"xT1":424.9,"yT1":0,"xT2":1058.1,"yT2":0,"toosoon":0,"cond_shown":"Congruent","ratio_trial":200,"L_num":3,"L_den":12,"R_num":9,"R_den":20,"correct_side":2,"subjID":"DylanCastillo13","gender":"0","school":"4","age":"8"},{"start_time":1552054351515,"click_time":1552054355118,"finger_time":1552054354318,"fix_duration":855.6062585421579,"trial":46,"RT":2803,"MT":800,"sideResp":2,"stimulus":[],"xmouse":[796,796,796,796,796,796,796,796,796,796,796,796,796,796,796,796,796,796,796,796,796,796,796,796,796,796,796,796,796,796,796,796,796,796,796,796,796,796,796,796,796,796,796,796,796,796,796,796,796,796,796,796,796,796,796,796,796,796,796,796,796,796,796,796,796,796,796,796,796,796,796,796,796,796,796,796,796,796,796,796,796,796,796,796,796,796,796,796,796,796,796,796,796,796,796,796,796,796,796,796,796,796,796,796,796,796,796,796,796,796,796,796,796,796,796,796,796,796,796,796,796,796,796,796,796,796,796,796,796,796,796,796,796,796,796,796,796,796,796,796,790,806,807,807,808,808,808,808,808,816,847,862,877,891,920,941,963,994,1040,1155,1319,1342,1346,1347,1350,1350,1349,1345,1341,1311,1290,1265,1247,1234,1221,1219,1214,1207,1197,1162,1128],"ymouse":[626,626,626,626,626,626,626,626,626,626,626,626,626,626,626,626,626,626,626,626,626,626,626,626,626,626,626,626,626,626,626,626,626,626,626,626,626,626,626,626,626,626,626,626,626,626,626,626,626,626,626,626,626,626,626,626,626,626,626,626,626,626,626,626,626,626,626,626,626,626,626,626,626,626,626,626,626,626,626,626,626,626,626,626,626,626,626,626,626,626,626,626,626,626,626,626,626,626,626,626,626,626,626,626,626,626,626,626,626,626,626,626,626,626,626,626,626,626,626,626,626,626,626,626,626,626,626,626,626,626,626,626,626,626,626,626,626,626,626,621,541,512,512,512,510,495,493,493,492,383,262,205,150,104,20,0,0,0,0,0,0,0,0,3,20,25,30,36,39,45,45,45,42,41,39,39,39,39,43,63,80],"timestamp_mouse":[13,35,44,63,84,103,124,143,162,182,202,224,244,264,284,303,323,343,362,384,403,424,443,464,483,503,524,544,564,583,603,624,643,662,684,704,724,743,762,782,803,823,843,863,884,904,923,944,963,983,1003,1023,1044,1063,1082,1103,1124,1143,1163,1184,1204,1224,1243,1264,1284,1303,1323,1344,1364,1384,1404,1423,1444,1463,1483,1503,1523,1543,1563,1583,1603,1624,1644,1663,1684,1704,1724,1742,1764,1784,1804,1823,1844,1864,1882,1903,1924,1942,1964,1984,2004,2023,2044,2063,2084,2103,2124,2143,2164,2184,2204,2222,2244,2263,2284,2304,2322,2343,2364,2384,2404,2424,2444,2463,2483,2504,2524,2542,2564,2583,2604,2623,2644,2664,2684,2703,2722,2743,2764,2783,2803,2824,2843,2863,2883,2903,2923,2943,2963,2983,3002,3024,3044,3063,3083,3103,3123,3143,3164,3183,3204,3223,3243,3263,3286,3303,3324,3344,3363,3385,3403,3423,3443,3463,3485,3503,3523,3544,3564,3583,3603],"xSR":741.5,"ySR":573.95,"xT1":424.9,"yT1":0,"xT2":1058.1,"yT2":0,"toosoon":0,"cond_shown":"Congruent","ratio_trial":300,"L_num":3,"L_den":6,"R_num":4,"R_den":5,"correct_side":2,"subjID":"DylanCastillo13","gender":"0","school":"4","age":"8"},{"start_time":1552054359480,"click_time":1552054361399,"finger_time":1552054360838,"fix_duration":279.82541460776844,"trial":47,"RT":1358,"MT":561,"sideResp":1,"stimulus":[],"xmouse":[796,796,796,796,796,796,796,796,796,796,796,796,796,796,796,796,796,796,796,796,796,796,796,796,796,796,796,796,796,796,796,796,796,796,796,796,796,796,796,796,796,796,796,796,796,796,796,796,796,796,796,796,796,796,796,796,796,796,796,796,796,796,796,796,796,796,796,796,803,793,774,736,695,681,630,588,541,423,390,387,387,387,387,387,388,396,404,407,408,409,410,412,414,416,419,423,428],"ymouse":[589,589,589,590,590,590,590,590,590,590,590,590,590,590,590,590,590,590,590,590,590,590,590,590,590,590,590,590,590,590,590,590,590,590,590,590,590,590,590,590,590,590,590,590,590,590,590,590,590,590,590,590,590,590,590,590,590,590,590,590,590,590,590,590,590,590,590,590,468,380,282,154,54,15,0,0,0,0,0,0,0,0,0,2,7,18,32,36,40,42,44,46,46,46,46,46,46],"timestamp_mouse":[1,19,37,58,79,98,118,139,159,178,198,217,238,259,279,299,319,338,359,378,399,419,438,458,479,498,518,538,559,579,599,618,639,659,677,697,719,739,758,778,798,817,839,858,879,898,919,939,95