[{"start_time":1552054790907,"click_time":1552054814930,"finger_time":1552054790917,"fix_duration":250,"trial":0,"RT":10,"MT":24013,"sideResp":2,"stimulus":"img/900/equaldotanddens/R/15_Ratio_900_L_9_R_10.png","xmouse":[483,486,487,487,487,487,487,487,487,487,487,487,487,487,487,487,487,487,487,487,487,487,487,487,487,487,487,487,487,514,547,567,578,586,616,637,665,699,722,737,749,759,769,777,792,797,800,801,804,808,809,809,810,810,810,810,810,810,809,808,807,806,805,805,805,805,805,805,804,804,804,804,804,804,804,804,804,804,804,804,804,804,804,804,804,804,804,804,804,804,804,804,804,804,804,804,804,804,804,804,804,804,804,804,804,804,804,804,804,804,804,804,804,804,804,804,804,804,804,804,804,804,804,804,804,804,804,804,804,804,804,804,804,804,804,804,804,804,804,804,804,804,804,804,804,804,804,804,804,804,804,802,800,799,798,797,797,795,794,792,787,784,783,782,780,782,787,794,799,801,799,780,756,738,734,730,734,740,751,770,772,772,772,772,773,773,774,775,786,805,832,832,828,816,795,778,777,777,777,778,780,780,780,782,784,784,784,784,785,785,785,785,785,785,785,785,785,785,785,785,785,785,785,785,785,785,785,785,785,785,785,785,785,785,785,785,785,785,785,785,785,785,785,785,785,785,785,785,785,785,785,785,785,785,785,785,785,785,785,785,785,785,785,785,785,785,785,785,785,785,785,785,785,785,785,785,785,785,785,785,785,785,785,785,785,785,785,785,785,785,785,785,785,785,785,785,785,785,785,785,785,785,785,785,785,785,785,785,785,785,785,785,785,785,785,785,785,785,785,785,785,785,785,785,785,785,785,785,785,785,785,785,785,785,785,785,785,785,785,785,785,785,785,785,785,785,785,785,785,785,785,785,785,785,785,785,785,785,785,785,785,785,785,785,785,785,785,785,785,785,785,785,785,785,785,785,785,785,785,785,785,785,785,785,785,785,785,785,785,785,785,785,785,785,785,785,785,785,785,785,785,785,785,785,785,785,785,785,785,785,785,785,785,785,785,785,785,785,785,785,785,785,785,785,785,785,785,785,785,785,785,785,785,785,785,785,785,785,785,785,785,785,785,785,785,785,785,785,785,785,785,785,785,785,785,785,785,785,785,785,785,785,785,785,785,785,785,785,785,785,785,785,785,785,785,785,785,785,785,785,785,785,785,785,785,785,785,785,785,785,785,785,785,785,785,785,785,785,785,785,785,785,785,785,785,785,785,785,785,785,785,785,785,785,785,785,785,785,785,785,785,785,785,785,785,785,785,785,785,785,785,785,785,785,785,785,785,785,785,785,785,785,785,785,785,785,785,785,785,785,785,785,785,785,785,785,785,785,785,785,785,785,785,785,785,785,785,785,785,785,785,785,785,785,785,785,785,785,785,785,785,785,785,785,785,785,785,785,785,785,785,785,785,785,785,785,785,785,785,785,785,785,785,785,785,785,785,785,785,785,785,785,785,785,785,785,785,785,785,785,785,785,785,785,785,785,785,785,785,785,785,785,785,785,785,785,785,785,785,785,785,785,785,785,785,785,785,785,785,785,785,785,785,785,785,785,785,785,785,785,785,785,785,785,785,785,785,785,785,785,785,785,785,785,785,785,785,785,785,785,785,785,785,785,785,785,785,785,785,785,785,785,785,785,785,785,785,785,785,785,785,785,785,785,785,785,785,785,785,785,785,785,785,785,785,785,785,785,785,785,785,785,785,785,785,785,785,785,785,785,785,785,785,785,785,785,785,785,785,785,785,785,785,785,785,785,785,785,785,785,785,785,785,785,785,785,785,785,785,785,785,785,785,785,785,785,785,785,785,785,785,785,785,785,785,785,785,785,785,785,785,785,785,785,785,785,785,785,785,785,785,785,785,785,785,785,785,785,785,785,785,785,785,785,785,785,785,785,785,785,785,785,785,785,785,785,785,785,785,785,785,785,785,785,785,785,785,785,785,785,785,785,785,785,785,785,785,785,785,785,785,785,785,785,785,785,785,785,785,785,785,785,785,785,785,785,785,785,785,785,785,785,785,785,785,785,785,785,785,785,785,785,785,785,785,785,785,785,785,785,785,785,785,785,785,785,785,785,785,785,785,785,785,785,785,785,785,785,785,785,785,785,785,785,785,785,785,785,785,785,785,785,785,785,785,785,785,785,785,785,785,785,785,785,785,785,785,785,785,785,785,785,785,785,785,785,785,785,785,785,785,785,785,785,785,785,785,785,785,785,785,785,785,785,785,785,785,785,785,785,785,785,785,785,785,785,785,785,785,785,785,785,785,785,785,785,785,785,785,785,785,785,785,785,785,785,785,785,785,785,785,785,785,785,785,785,785,785,785,785,785,785,785,785,785,785,785,785,785,785,785,785,785,785,785,785,785,785,785,785,785,785,785,785,785,785,785,785,785,785,785,785,785,785,785,785,785,785,785,785,785,785,785,785,785,785,785,785,785,785,785,785,785,785,785,785,785,785,785,785,785,785,785,785,785,785,785,785,785,785,785,785,785,785,785,785,785,785,785,785,785,785,785,785,785,785,785,785,785,785,785,785,785,785,785,785,785,785,785,785,785,785,785,785,785,785,785,785,785,785,785,785,785,785,810,827,827,843,859,901,910,914,921,932,937,937,937,937,937,934,914,873,844,824,815,815,815,815,815,815,815,815,815,815,815,815,815,815,815,815,815,815,815,815,815,815,815,815,815,815,815,815,815,815,815,815,815,815,815,815,815,815,815,815,815,815,815,815,815,809,764,711,690,690,710,714,714,707,707,713,713,713,722,754,886,925,958,988,1012,1051,1056,1059],"ymouse":[552,549,547,547,547,547,547,547,547,547,547,547,547,547,547,547,547,547,547,547,547,547,547,547,547,547,547,547,547,546,550,554,556,557,573,585,601,619,628,633,639,643,647,649,653,654,655,655,655,652,652,651,651,650,647,645,642,639,637,634,631,628,626,625,624,624,624,624,623,623,623,623,623,623,623,623,623,623,623,623,623,623,623,623,623,623,623,623,623,623,623,623,623,623,623,623,623,623,623,623,623,623,623,623,623,623,623,623,623,623,623,623,623,623,623,623,623,623,623,623,623,623,623,623,623,623,623,623,623,623,623,623,623,623,623,623,623,623,623,623,623,623,623,623,623,623,623,623,623,623,623,620,618,615,615,613,612,610,609,608,605,604,604,604,606,611,615,617,619,619,613,604,595,592,591,598,605,607,609,609,609,609,609,609,609,611,612,612,608,590,554,552,553,561,577,596,598,599,600,600,600,600,600,601,603,603,603,605,608,613,613,613,613,613,613,613,613,613,613,613,613,613,613,613,613,613,613,613,613,613,613,613,613,613,613,613,613,613,613,613,613,613,613,613,613,613,613,613,613,613,613,613,613,613,613,613,613,613,613,613,613,613,613,613,613,613,613,613,613,613,613,613,613,613,613,613,613,613,613,613,613,613,613,613,613,613,613,613,613,613,613,613,613,613,613,613,613,613,613,613,613,613,613,613,613,613,613,613,613,613,613,613,613,613,613,613,613,613,613,613,613,613,613,613,613,613,613,613,613,613,613,613,613,613,613,613,613,613,613,613,613,613,613,613,613,613,613,613,613,613,613,613,613,613,613,613,613,613,613,613,613,613,613,613,613,613,613,613,613,613,613,613,613,613,613,613,613,613,613,613,613,613,613,613,613,613,613,613,613,613,613,613,613,613,613,613,613,613,613,613,613,613,613,613,613,613,613,613,613,613,613,613,613,613,613,613,613,613,613,613,613,613,613,613,613,613,613,613,613,613,613,613,613,613,613,613,613,613,613,613,613,613,613,613,613,613,613,613,613,613,613,613,613,613,613,613,613,613,613,613,613,613,613,613,613,613,613,613,613,613,613,613,613,613,613,613,613,613,613,613,613,613,613,613,613,613,613,613,613,613,613,613,613,613,613,613,613,613,613,613,613,613,613,613,613,613,613,613,613,613,613,613,613,613,613,613,613,613,613,613,613,613,613,613,613,613,613,613,613,613,613,613,613,613,613,613,613,613,613,613,613,613,613,613,613,613,613,613,613,613,613,613,613,613,613,613,613,613,613,613,613,613,613,613,613,613,613,613,613,613,613,613,613,613,613,613,613,613,613,613,613,613,613,613,613,613,613,613,613,613,613,613,613,613,613,613,613,613,613,613,613,613,613,613,613,613,613,613,613,613,613,613,613,613,613,613,613,613,613,613,613,613,613,613,613,613,613,613,613,613,613,613,613,613,613,613,613,613,613,613,613,613,613,613,613,613,613,613,613,613,613,613,613,613,613,613,613,613,613,613,613,613,613,613,613,613,613,613,613,613,613,613,613,613,613,613,613,613,613,613,613,613,613,613,613,613,613,613,613,613,613,613,613,613,613,613,613,613,613,613,613,613,613,613,613,613,613,613,613,613,613,613,613,613,613,613,613,613,613,613,613,613,613,613,613,613,613,613,613,613,613,613,613,613,613,613,613,613,613,613,613,613,613,613,613,613,613,613,613,613,613,613,613,613,613,613,613,613,613,613,613,613,613,613,613,613,613,613,613,613,613,613,613,613,613,613,613,613,613,613,613,613,613,613,613,613,613,613,613,613,613,613,613,613,613,613,613,613,613,613,613,613,613,613,613,613,613,613,613,613,613,613,613,613,613,613,613,613,613,613,613,613,613,613,613,613,613,613,613,613,613,613,613,613,613,613,613,613,613,613,613,613,613,613,613,613,613,613,613,613,613,613,613,613,613,613,613,613,613,613,613,613,613,613,613,613,613,613,613,613,613,613,613,613,613,613,613,613,613,613,613,613,613,613,613,613,613,613,613,613,613,613,613,613,613,613,613,613,613,613,613,613,613,613,613,613,613,613,613,613,613,613,613,613,613,613,613,613,613,613,613,613,613,613,613,613,613,613,613,613,613,613,613,613,613,613,613,613,613,613,613,613,613,613,613,613,613,613,613,613,613,613,613,613,613,613,613,613,613,613,613,613,613,613,613,613,613,613,613,613,613,613,613,613,613,613,613,613,613,613,613,613,613,613,613,613,613,613,613,613,613,613,613,613,613,613,613,613,613,613,613,613,613,613,613,613,613,613,613,613,613,613,613,613,613,613,613,613,613,613,613,613,613,613,613,613,613,613,613,613,613,613,613,613,613,613,613,613,613,613,613,613,613,613,613,613,613,613,613,613,613,613,613,613,613,613,613,613,613,613,613,613,613,613,613,613,613,613,613,613,613,613,613,613,613,613,613,613,613,613,613,613,613,613,613,613,613,613,613,613,613,613,613,613,613,613,613,613,613,613,613,613,613,613,613,613,613,613,613,613,613,613,613,613,607,600,600,600,603,614,617,619,621,625,626,626,626,626,626,626,626,631,634,639,640,640,640,640,640,640,640,640,640,640,640,640,640,640,640,640,640,640,640,640,640,640,640,640,640,640,640,640,640,640,640,640,640,640,640,640,640,640,640,640,640,640,640,640,640,506,302,143,13,13,0,0,0,0,0,0,0,0,11,39,71,70,60,50,42,32,31,31],"timestamp_mouse":[10,24,42,62,82,101,122,141,163,183,202,222,242,262,282,301,322,341,363,382,402,423,442,461,482,501,521,542,561,582,601,622,642,661,682,701,721,741,762,782,803,821,842,863,882,901,921,942,962,982,1001,1021,1041,1062,1082,1101,1122,1142,1162,1181,1203,1222,1242,1261,1283,1303,1323,1341,1363,1382,1402,1421,1443,1462,1482,1502,1523,1542,1562,1583,1602,1621,1643,1662,1682,1701,1721,1741,1762,1782,1801,1822,1842,1862,1881,1902,1922,1942,1961,1983,2002,2023,2041,2061,2082,2102,2122,2142,2163,2182,2201,2222,2241,2263,2282,2302,2323,2342,2362,2382,2402,2421,2442,2463,2483,2501,2521,2543,2563,2582,2601,2621,2641,2662,2681,2703,2722,2741,2762,2783,2803,2822,2841,2863,2883,2901,2922,2941,2962,2981,3003,3022,3041,3063,3082,3103,3122,3141,3162,3181,3201,3222,3242,3261,3281,3301,3322,3342,3362,3381,3401,3421,3443,3463,3482,3502,3522,3542,3562,3581,3602,3621,3642,3663,3682,3701,3721,3742,3762,3782,3801,3821,3842,3861,3882,3902,3922,3943,3962,3982,4001,4023,4043,4062,4082,4101,4121,4141,4161,4181,4202,4223,4242,4262,4282,4301,4323,4341,4362,4381,4402,4423,4441,4462,4481,4502,4521,4543,4563,4583,4601,4622,4642,4661,4683,4703,4722,4742,4763,4781,4801,4821,4842,4861,4883,4902,4923,4942,4962,4982,5002,5021,5043,5062,5081,5102,5121,5141,5161,5182,5203,5222,5241,5261,5281,5301,5322,5342,5363,5381,5401,5422,5443,5463,5481,5501,5521,5543,5561,5581,5601,5622,5642,5661,5683,5701,5721,5742,5763,5781,5801,5822,5842,5862,5883,5901,5922,5942,5962,5981,6001,6021,6041,6063,6083,6103,6124,6144,6163,6183,6203,6224,6243,6264,6283,6304,6323,6343,6364,6383,6404,6423,6443,6464,6484,6504,6524,6544,6564,6584,6603,6624,6644,6663,6684,6704,6723,6743,6764,6784,6804,6823,6844,6863,6884,6904,6924,6943,6963,6984,7003,7024,7044,7064,7083,7103,7123,7143,7164,7184,7204,7223,7243,7264,7284,7303,7324,7344,7364,7383,7403,7423,7444,7463,7483,7504,7524,7543,7565,7584,7604,7624,7643,7663,7684,7704,7723,7743,7764,7783,7804,7824,7844,7863,7884,7904,7923,7944,7964,7983,8004,8024,8043,8064,8083,8103,8124,8144,8163,8184,8204,8224,8243,8264,8283,8305,8324,8344,8364,8384,8404,8423,8443,8464,8484,8503,8524,8544,8563,8584,8603,8623,8644,8664,8683,8703,8724,8743,8764,8784,8803,8823,8843,8863,8884,8904,8924,8944,8964,8983,9004,9024,9043,9063,9084,9103,9124,9144,9163,9184,9204,9223,9244,9263,9283,9304,9324,9344,9363,9383,9403,9423,9443,9463,9484,9504,9524,9544,9564,9583,9603,9623,9644,9664,9683,9703,9724,9744,9763,9783,9804,9823,9843,9863,9883,9904,9923,9944,9964,9983,10003,10024,10044,10063,10084,10104,10124,10144,10164,10183,10203,10223,10243,10263,10283,10304,10323,10344,10363,10383,10403,10425,10444,10463,10484,10504,10524,10544,10564,10583,10603,10624,10643,10663,10684,10703,10724,10744,10764,10783,10804,10824,10843,10864,10883,10904,10924,10944,10964,10983,11004,11024,11044,11064,11083,11103,11123,11144,11163,11184,11204,11223,11244,11264,11284,11304,11324,11344,11363,11383,11403,11424,11444,11463,11483,11504,11523,11543,11563,11583,11603,11624,11644,11664,11683,11703,11723,11744,11764,11785,11804,11824,11844,11864,11883,11903,11924,11944,11964,11984,12004,12023,12044,12064,12083,12104,12123,12143,12163,12184,12203,12223,12244,12263,12283,12304,12323,12344,12363,12384,12404,12424,12443,12464,12484,12503,12524,12544,12564,12583,12603,12623,12644,12663,12684,12704,12724,12744,12763,12783,12803,12824,12844,12863,12883,12904,12924,12943,12963,12984,13003,13024,13044,13064,13083,13104,13124,13144,13164,13185,13203,13224,13244,13263,13284,13304,13323,13345,13364,13384,13404,13423,13443,13464,13484,13503,13524,13543,13564,13584,13604,13625,13643,13664,13684,13704,13724,13744,13764,13784,13803,13824,13844,13864,13884,13904,13924,13943,13964,13984,14003,14024,14044,14063,14084,14103,14124,14144,14164,14183,14203,14224,14244,14264,14283,14304,14324,14344,14363,14384,14403,14423,14443,14464,14484,14503,14524,14544,14564,14584,14603,14624,14644,14664,14684,14703,14723,14744,14764,14783,14804,14823,14844,14864,14883,14904,14923,14943,14964,14984,15003,15023,15043,15064,15083,15103,15124,15143,15164,15184,15204,15223,15243,15264,15284,15304,15323,15344,15364,15383,15404,15425,15444,15463,15484,15504,15523,15544,15564,15584,15603,15624,15644,15663,15683,15704,15724,15744,15763,15784,15804,15824,15844,15864,15883,15903,15923,15944,15964,15984,16004,16023,16044,16064,16083,16103,16124,16144,16163,16184,16204,16223,16244,16263,16284,16304,16323,16345,16364,16383,16403,16424,16443,16464,16484,16504,16524,16543,16564,16583,16603,16624,16643,16664,16684,16703,16724,16744,16763,16784,16803,16823,16843,16864,16883,16903,16924,16943,16963,16983,17004,17024,17044,17065,17083,17104,17123,17143,17164,17183,17203,17224,17244,17264,17284,17303,17324,17344,17364,17383,17404,17424,17443,17464,17484,17504,17523,17543,17564,17584,17604,17624,17643,17663,17684,17703,17724,17743,17763,17784,17804,17823,17844,17864,17884,17903,17923,17943,17964,17983,18003,18024,18043,18064,18083,18103,18124,18144,18164,18184,18204,18224,18243,18264,18284,18303,18323,18343,18363,18383,18404,18423,18444,18464,18483,18503,18524,18544,18563,18583,18604,18624,18643,18663,18684,18704,18724,18744,18763,18784,18803,18824,18843,18863,18883,18903,18923,18943,18965,18983,19004,19024,19043,19063,19084,19103,19123,19143,19164,19184,19203,19223,19244,19264,19283,19304,19323,19343,19363,19384,19403,19423,19444,19463,19483,19504,19523,19543,19564,19584,19603,19624,19644,19663,19684,19703,19724,19743,19764,19784,19804,19824,19843,19863,19883,19903,19923,19943,19964,19984,20003,20024,20044,20065,20083,20103,20124,20143,20163,20184,20204,20224,20244,20263,20284,20304,20323,20343,20363,20384,20403,20423,20444,20463,20484,20504,20523,20543,20564,20583,20605,20624,20643,20664,20684,20703,20723,20744,20763,20783,20803,20824,20843,20864,20883,20904,20923,20943,20963,20984,21003,21023,21043,21064,21083,21103,21124,21144,21164,21184,21204,21224,21244,21263,21284,21303,21323,21344,21363,21384,21404,21425,21444,21464,21483,21503,21524,21543,21564,21583,21603,21624,21644,21663,21684,21704,21724,21744,21764,21784,21804,21823,21843,21864,21883,21904,21923,21943,21964,21984,22003,22023,22044,22064,22083,22103,22124,22143,22163,22183,22204,22223,22243,22264,22283,22303,22323,22343,22363,22383,22403,22423,22443,22464,22482,22503,22524,22543,22563,22583,22603,22624,22643,22663,22683,22704,22724,22744,22764,22782,22803,22824,22843,22864,22884,22903,22924,22943,22964,22984,23003,23023,23044,23064,23083,23103,23124,23143,23164,23183,23204,23224,23244,23263,23284,23303,23323,23344,23363,23384,23404,23423,23444,23463,23483,23504,23523,23543,23563,23584,23603,23623,23643,23664,23684,23704,23723,23743,23764,23784,23803,23823,23843,23863,23886,23903,23923,23944,23963,23984,24003,24023],"xSR":458.5,"ySR":477.75,"xT1":255.09999999999997,"yT1":0,"xT2":661.9,"yT2":0,"toosoon":0,"cond_shown":"equaldotanddens","ratio_trial":900,"smaller_num":"9","larger_num":"10","correct_side":2,"subjID":"DylanCastillo13","gender":"0","age":"8","school":"4","test":{"fix_dur":[250,1500],"timestim":300,"targets_dim":[100,100],"targets_relative_coord":[0.3,0.7],"size_stim":[880,420],"start_dim":[100,100],"size_start":[300,300],"size_fix":60,"samplingrate":20,"img_types":["equaldotsize","equaldotanddens","randomdotsizeEA"],"ratios":[250,500,750,900],"rep_conds":9,"nTrials":120,"trials_to_rest":500,"Trials_order":[22,94,112,90,76,111,97,13,45,59,20,119,82,113,57,38,86,2,24,43,31,91,93,27,104,11,6,110,21,65,48,115,73,61,74,80,106,9,72,67,39,84,44,19,89,34,102,29,4,54,92,71,87,7,41,50,68,10,100,42,40,108,103,63,47,3,16,96,5,81,26,46,23,35,28,83,8,101,32,58,75,70,55,1,56,51,117,77,53,79,52,109,95,18,116,60,118,99,66,15,12,0,17,78,114,14,62,98,25,107,36,105,49,69,37,30,64,88,85,33],"cond_shown":["equaldotanddens","equaldotanddens","equaldotanddens","equaldotsize","equaldotanddens","equaldotsize","equaldotanddens","equaldotanddens","equaldotsize","randomdotsizeEA","randomdotsizeEA","randomdotsizeEA","equaldotanddens","randomdotsizeEA","equaldotsize","randomdotsizeEA","randomdotsizeEA","randomdotsizeEA","equaldotsize","equaldotanddens","equaldotanddens","equaldotanddens","equaldotsize","equaldotsize","randomdotsizeEA","randomdotsizeEA","equaldotsize","randomdotsizeEA","equaldotsize","randomdotsizeEA","equaldotsize","equaldotanddens","equaldotanddens","equaldotanddens","randomdotsizeEA","randomdotsizeEA","equaldotanddens","equaldotsize","equaldotsize","equaldotanddens","equaldotsize","equaldotsize","randomdotsizeEA","equaldotanddens","randomdotsizeEA","equaldotanddens","equaldotsize","randomdotsizeEA","equaldotanddens","equaldotsize","randomdotsizeEA","randomdotsizeEA","equaldotsize","equaldotanddens","randomdotsizeEA","randomdotsizeEA","randomdotsizeEA","equaldotanddens","equaldotanddens","equaldotsize","equaldotanddens","equaldotsize","equaldotanddens","equaldotsize","randomdotsizeEA","equaldotsize","equaldotanddens","equaldotsize","randomdotsizeEA","equaldotsize","randomdotsizeEA","equaldotanddens","randomdotsizeEA","randomdotsizeEA","equaldotanddens","randomdotsizeEA","randomdotsizeEA","randomdotsizeEA","randomdotsizeEA","equaldotanddens","equaldotsize","equaldotanddens","equaldotanddens","equaldotanddens","randomdotsizeEA","equaldotsize","equaldotsize","randomdotsizeEA","randomdotsizeEA","equaldotanddens","equaldotanddens","equaldotanddens","randomdotsizeEA","equaldotsize","randomdotsizeEA","equaldotsize","equaldotanddens","equaldotsize","equaldotsize","equaldotsize","equaldotsize","equaldotsize","randomdotsizeEA","equaldotsize","equaldotsize","randomdotsizeEA","randomdotsizeEA","randomdotsizeEA","equaldotanddens","randomdotsizeEA","equaldotsize","equaldotsize","equaldotanddens","equaldotsize","equaldotanddens","equaldotsize","equaldotanddens","equaldotanddens","equaldotanddens","equaldotsize"],"ratio_trial":[900,900,500,750,500,500,250,250,900,900,750,900,900,500,900,250,250,250,250,750,750,750,900,500,750,900,750,250,900,500,250,750,250,250,250,750,900,900,250,750,500,250,750,750,500,900,750,500,500,750,750,900,500,750,500,250,750,900,500,750,500,250,750,500,900,500,500,250,500,900,250,900,900,900,500,900,750,500,750,900,500,900,750,250,750,500,900,500,500,750,500,250,900,750,750,250,900,500,750,500,250,250,500,750,750,250,250,250,250,900,250,900,250,900,250,750,500,500,250,900],"smaller_num":["9","18","6","3","5","5","2","2","18","18","15","9","9","6","18","5","2","3","6","3","6","3","9","5","6","18","3","4","9","2","5","9","3","5","4","3","18","18","4","15","6","4","6","15","6","18","6","2","3","3","15","18","2","3","2","3","9","18","2","3","10","2","6","9","9","9","2","3","1","9","3","9","9","9","1","9","15","5","6","18","9","18","15","2","15","5","18","1","2","15","5","3","18","6","6","1","18","1","6","10","2","2","9","15","15","6","2","2","2","9","3","18","2","9","3","12","9","9","4","18"],"larger_num":["10","20","12","4","10","10","8","8","20","20","20","10","10","12","20","20","8","12","24","4","8","4","10","10","8","20","4","16","10","4","20","12","12","20","16","4","20","20","16","20","12","16","8","20","12","20","8","4","6","4","20","20","4","4","4","12","12","20","4","4","20","8","8","18","10","18","4","12","2","10","12","10","10","10","2","10","20","10","8","20","18","20","20","8","20","10","20","2","4","20","10","12","20","8","8","4","20","2","8","20","8","8","18","20","20","24","8","8","8","10","12","20","8","10","12","16","18","18","16","20"],"correct_side":[2,1,1,2,2,2,1,1,1,2,1,2,2,1,2,2,1,1,2,2,2,2,1,1,1,2,1,2,2,1,2,2,2,2,1,1,2,2,1,2,1,2,2,2,1,1,2,2,2,2,2,1,1,1,1,2,2,1,1,1,2,1,1,2,2,2,1,2,2,1,1,2,2,1,2,1,2,2,2,1,2,1,2,1,2,1,2,2,1,1,1,1,1,1,1,2,1,2,1,2,1,1,1,1,2,2,2,1,1,2,2,1,1,2,2,2,2,2,1,2],"img_shown":["img/900/equaldotanddens/R/15_Ratio_900_L_9_R_10.png","img/900/equaldotanddens/L/2_Ratio_900_L_20_R_18.png","img/500/equaldotanddens/L/11_Ratio_500_L_12_R_6.png","img/750/equaldotsize/R/12_Ratio_750_L_3_R_4.png","img/500/equaldotanddens/R/14_Ratio_500_L_5_R_10.png","img/500/equaldotsize/R/14_Ratio_500_L_5_R_10.png","img/250/equaldotanddens/L/3_Ratio_250_L_8_R_2.png","img/250/equaldotanddens/L/7_Ratio_250_L_8_R_2.png","img/900/equaldotsize/L/2_Ratio_900_L_20_R_18.png","img/900/randomdotsizeEA/R/14_Ratio_900_L_18_R_20.png","img/750/randomdotsizeEA/L/1_Ratio_750_L_20_R_15.png","img/900/randomdotsizeEA/R/3_Ratio_900_L_9_R_10.png","img/900/equaldotanddens/R/5_Ratio_900_L_9_R_10.png","img/500/randomdotsizeEA/L/11_Ratio_500_L_12_R_6.png","img/900/equaldotsize/R/12_Ratio_900_L_18_R_20.png","img/250/randomdotsizeEA/R/12_Ratio_250_L_5_R_20.png","img/250/randomdotsizeEA/L/1_Ratio_250_L_8_R_2.png","img/250/randomdotsizeEA/L/15_Ratio_250_L_12_R_3.png","img/250/equaldotsize/R/6_Ratio_250_L_6_R_24.png","img/750/equaldotanddens/R/12_Ratio_750_L_3_R_4.png","img/750/equaldotanddens/R/2_Ratio_750_L_6_R_8.png","img/750/equaldotanddens/R/7_Ratio_750_L_3_R_4.png","img/900/equaldotsize/L/1_Ratio_900_L_10_R_9.png","img/500/equaldotsize/L/7_Ratio_500_L_10_R_5.png","img/750/randomdotsizeEA/L/14_Ratio_750_L_8_R_6.png","img/900/randomdotsizeEA/R/13_Ratio_900_L_18_R_20.png","img/750/equaldotsize/L/8_Ratio_750_L_4_R_3.png","img/250/randomdotsizeEA/R/10_Ratio_250_L_4_R_16.png","img/900/equaldotsize/R/15_Ratio_900_L_9_R_10.png","img/500/randomdotsizeEA/L/5_Ratio_500_L_4_R_2.png","img/250/equaldotsize/R/12_Ratio_250_L_5_R_20.png","img/750/equaldotanddens/R/15_Ratio_750_L_9_R_12.png","img/250/equaldotanddens/R/9_Ratio_250_L_3_R_12.png","img/250/equaldotanddens/R/12_Ratio_250_L_5_R_20.png","img/250/randomdotsizeEA/L/2_Ratio_250_L_16_R_4.png","img/750/randomdotsizeEA/L/8_Ratio_750_L_4_R_3.png","img/900/equaldotanddens/R/11_Ratio_900_L_18_R_20.png","img/900/equaldotsize/R/14_Ratio_900_L_18_R_20.png","img/250/equaldotsize/L/2_Ratio_250_L_16_R_4.png","img/750/equaldotanddens/R/4_Ratio_750_L_15_R_20.png","img/500/equaldotsize/L/11_Ratio_500_L_12_R_6.png","img/250/equaldotsize/R/10_Ratio_250_L_4_R_16.png","img/750/randomdotsizeEA/R/2_Ratio_750_L_6_R_8.png","img/750/equaldotanddens/R/3_Ratio_750_L_15_R_20.png","img/500/randomdotsizeEA/L/13_Ratio_500_L_12_R_6.png","img/900/equaldotanddens/L/8_Ratio_900_L_20_R_18.png","img/750/equaldotsize/R/2_Ratio_750_L_6_R_8.png","img/500/randomdotsizeEA/R/9_Ratio_500_L_2_R_4.png","img/500/equaldotanddens/R/2_Ratio_500_L_3_R_6.png","img/750/equaldotsize/R/7_Ratio_750_L_3_R_4.png","img/750/randomdotsizeEA/R/4_Ratio_750_L_15_R_20.png","img/900/randomdotsizeEA/L/10_Ratio_900_L_20_R_18.png","img/500/equaldotsize/L/5_Ratio_500_L_4_R_2.png","img/750/equaldotanddens/L/8_Ratio_750_L_4_R_3.png","img/500/randomdotsizeEA/L/10_Ratio_500_L_4_R_2.png","img/250/randomdotsizeEA/R/11_Ratio_250_L_3_R_12.png","img/750/randomdotsizeEA/R/15_Ratio_750_L_9_R_12.png","img/900/equaldotanddens/L/2_Ratio_900_L_20_R_18.png","img/500/equaldotanddens/L/10_Ratio_500_L_4_R_2.png","img/750/equaldotsize/L/10_Ratio_750_L_4_R_3.png","img/500/equaldotanddens/R/3_Ratio_500_L_10_R_20.png","img/250/equaldotsize/L/7_Ratio_250_L_8_R_2.png","img/750/equaldotanddens/L/14_Ratio_750_L_8_R_6.png","img/500/equaldotsize/R/6_Ratio_500_L_9_R_18.png","img/900/randomdotsizeEA/R/7_Ratio_900_L_9_R_10.png","img/500/equaldotsize/R/1_Ratio_500_L_9_R_18.png","img/500/equaldotanddens/L/10_Ratio_500_L_4_R_2.png","img/250/equaldotsize/R/11_Ratio_250_L_3_R_12.png","img/500/randomdotsizeEA/R/12_Ratio_500_L_1_R_2.png","img/900/equaldotsize/L/1_Ratio_900_L_10_R_9.png","img/250/randomdotsizeEA/L/14_Ratio_250_L_12_R_3.png","img/900/equaldotanddens/R/7_Ratio_900_L_9_R_10.png","img/900/randomdotsizeEA/R/15_Ratio_900_L_9_R_10.png","img/900/randomdotsizeEA/L/1_Ratio_900_L_10_R_9.png","img/500/equaldotanddens/R/15_Ratio_500_L_1_R_2.png","img/900/randomdotsizeEA/L/1_Ratio_900_L_10_R_9.png","img/750/randomdotsizeEA/R/3_Ratio_750_L_15_R_20.png","img/500/randomdotsizeEA/R/14_Ratio_500_L_5_R_10.png","img/750/randomdotsizeEA/R/2_Ratio_750_L_6_R_8.png","img/900/equaldotanddens/L/10_Ratio_900_L_20_R_18.png","img/500/equaldotsize/R/6_Ratio_500_L_9_R_18.png","img/900/equaldotanddens/L/2_Ratio_900_L_20_R_18.png","img/750/equaldotanddens/R/3_Ratio_750_L_15_R_20.png","img/250/equaldotanddens/L/7_Ratio_250_L_8_R_2.png","img/750/randomdotsizeEA/R/4_Ratio_750_L_15_R_20.png","img/500/equaldotsize/L/7_Ratio_500_L_10_R_5.png","img/900/equaldotsize/R/14_Ratio_900_L_18_R_20.png","img/500/randomdotsizeEA/R/12_Ratio_500_L_1_R_2.png","img/500/randomdotsizeEA/L/5_Ratio_500_L_4_R_2.png","img/750/equaldotanddens/L/1_Ratio_750_L_20_R_15.png","img/500/equaldotanddens/L/7_Ratio_500_L_10_R_5.png","img/250/equaldotanddens/L/15_Ratio_250_L_12_R_3.png","img/900/randomdotsizeEA/L/10_Ratio_900_L_20_R_18.png","img/750/equaldotsize/L/13_Ratio_750_L_8_R_6.png","img/750/randomdotsizeEA/L/13_Ratio_750_L_8_R_6.png","img/250/equaldotsize/R/8_Ratio_250_L_1_R_4.png","img/900/equaldotanddens/L/4_Ratio_900_L_20_R_18.png","img/500/equaldotsize/R/12_Ratio_500_L_1_R_2.png","img/750/equaldotsize/L/14_Ratio_750_L_8_R_6.png","img/500/equaldotsize/R/3_Ratio_500_L_10_R_20.png","img/250/equaldotsize/L/1_Ratio_250_L_8_R_2.png","img/250/equaldotsize/L/7_Ratio_250_L_8_R_2.png","img/500/randomdotsizeEA/L/4_Ratio_500_L_18_R_9.png","img/750/equaldotsize/L/1_Ratio_750_L_20_R_15.png","img/750/equaldotsize/R/4_Ratio_750_L_15_R_20.png","img/250/randomdotsizeEA/R/6_Ratio_250_L_6_R_24.png","img/250/randomdotsizeEA/R/13_Ratio_250_L_2_R_8.png","img/250/randomdotsizeEA/L/7_Ratio_250_L_8_R_2.png","img/250/equaldotanddens/L/3_Ratio_250_L_8_R_2.png","img/900/randomdotsizeEA/R/6_Ratio_900_L_9_R_10.png","img/250/equaldotsize/R/9_Ratio_250_L_3_R_12.png","img/900/equaldotsize/L/2_Ratio_900_L_20_R_18.png","img/250/equaldotanddens/L/7_Ratio_250_L_8_R_2.png","img/900/equaldotsize/R/5_Ratio_900_L_9_R_10.png","img/250/equaldotanddens/R/11_Ratio_250_L_3_R_12.png","img/750/equaldotsize/R/11_Ratio_750_L_12_R_16.png","img/500/equaldotanddens/R/1_Ratio_500_L_9_R_18.png","img/500/equaldotanddens/R/6_Ratio_500_L_9_R_18.png","img/250/equaldotanddens/L/2_Ratio_250_L_16_R_4.png","img/900/equaldotsize/R/13_Ratio_900_L_18_R_20.png"],"Rat0":[["12_Ratio_0_L_9_R_0.png","13_Ratio_0_L_6_R_0.png","5_Ratio_0_L_2_R_0.png","6_Ratio_0_L_4_R_0.png","8_Ratio_0_L_6_R_0.png"],["1_Ratio_0_L_0_R_17.png","10_Ratio_0_L_0_R_22.png","11_Ratio_0_L_0_R_1.png","14_Ratio_0_L_0_R_24.png","15_Ratio_0_L_0_R_4.png","2_Ratio_0_L_0_R_5.png","3_Ratio_0_L_0_R_17.png","4_Ratio_0_L_0_R_7.png","7_Ratio_0_L_0_R_19.png","9_Ratio_0_L_0_R_15.png"]],"Rat250":[["1_Ratio_250_L_8_R_2.png","14_Ratio_250_L_12_R_3.png","15_Ratio_250_L_12_R_3.png","2_Ratio_250_L_16_R_4.png","3_Ratio_250_L_8_R_2.png","5_Ratio_250_L_24_R_6.png","7_Ratio_250_L_8_R_2.png"],["10_Ratio_250_L_4_R_16.png","11_Ratio_250_L_3_R_12.png","12_Ratio_250_L_5_R_20.png","13_Ratio_250_L_2_R_8.png","4_Ratio_250_L_3_R_12.png","6_Ratio_250_L_6_R_24.png","8_Ratio_250_L_1_R_4.png","9_Ratio_250_L_3_R_12.png"]],"Rat500":[["10_Ratio_500_L_4_R_2.png","11_Ratio_500_L_12_R_6.png","13_Ratio_500_L_12_R_6.png","4_Ratio_500_L_18_R_9.png","5_Ratio_500_L_4_R_2.png","7_Ratio_500_L_10_R_5.png","8_Ratio_500_L_8_R_4.png"],["1_Ratio_500_L_9_R_18.png","12_Ratio_500_L_1_R_2.png","14_Ratio_500_L_5_R_10.png","15_Ratio_500_L_1_R_2.png","2_Ratio_500_L_3_R_6.png","3_Ratio_500_L_10_R_20.png","6_Ratio_500_L_9_R_18.png","9_Ratio_500_L_2_R_4.png"]],"Rat750":[["1_Ratio_750_L_20_R_15.png","10_Ratio_750_L_4_R_3.png","13_Ratio_750_L_8_R_6.png","14_Ratio_750_L_8_R_6.png","6_Ratio_750_L_24_R_18.png","8_Ratio_750_L_4_R_3.png","9_Ratio_750_L_4_R_3.png"],["11_Ratio_750_L_12_R_16.png","12_Ratio_750_L_3_R_4.png","15_Ratio_750_L_9_R_12.png","2_Ratio_750_L_6_R_8.png","3_Ratio_750_L_15_R_20.png","4_Ratio_750_L_15_R_20.png","5_Ratio_750_L_15_R_20.png","7_Ratio_750_L_3_R_4.png"]],"Rat900":[["1_Ratio_900_L_10_R_9.png","10_Ratio_900_L_20_R_18.png","2_Ratio_900_L_20_R_18.png","4_Ratio_900_L_20_R_18.png","8_Ratio_900_L_20_R_18.png"],["11_Ratio_900_L_18_R_20.png","12_Ratio_900_L_18_R_20.png","13_Ratio_900_L_18_R_20.png","14_Ratio_900_L_18_R_20.png","15_Ratio_900_L_9_R_10.png","3_Ratio_900_L_9_R_10.png","5_Ratio_900_L_9_R_10.png","6_Ratio_900_L_9_R_10.png","7_Ratio_900_L_9_R_10.png","9_Ratio_900_L_18_R_20.png"]],"Rat1000":[["10_Ratio_1000_L_16_R_16.png","11_Ratio_1000_L_6_R_6.png","12_Ratio_1000_L_14_R_14.png","13_Ratio_1000_L_20_R_20.png","15_Ratio_1000_L_15_R_15.png","2_Ratio_1000_L_17_R_17.png","4_Ratio_1000_L_9_R_9.png","5_Ratio_1000_L_6_R_6.png","6_Ratio_1000_L_19_R_19.png","8_Ratio_1000_L_14_R_14.png","9_Ratio_1000_L_25_R_25.png"],["1_Ratio_1000_L_1_R_1.png","14_Ratio_1000_L_17_R_17.png","3_Ratio_1000_L_17_R_17.png","7_Ratio_1000_L_6_R_6.png"]]}},{"start_time":1552054818109,"click_time":1552054819991,"finger_time":1552054819650,"fix_duration":997.7073726533253,"trial":1,"RT":1541,"MT":341,"sideResp":2,"stimulus":"img/900/equaldotanddens/L/2_Ratio_900_L_20_R_18.png","xmouse":[779,779,779,779,779,779,779,779,779,779,779,779,779,779,779,779,779,779,779,779,779,779,779,779,779,779,779,779,779,779,779,779,779,779,779,779,779,779,779,779,779,779,779,779,779,779,779,779,779,779,779,779,779,779,779,779,779,779,779,779,779,779,779,779,779,779,779,779,779,779,779,779,779,781,793,821,882,957,1029,1069,1070,1071,1075,1104,1117,1133,1145,1146,1146,1146,1146,1146,1146,1133],"ymouse":[637,637,637,637,637,637,637,637,637,637,637,637,637,637,637,637,637,637,637,637,637,637,637,637,637,637,637,637,637,637,637,637,637,637,637,637,637,637,637,637,637,637,636,635,633,633,632,632,632,632,632,632,632,632,632,632,632,632,632,632,632,632,632,632,632,632,632,632,632,632,632,632,632,630,621,597,537,469,426,394,388,382,373,319,294,256,222,197,160,142,130,115,102,63],"timestamp_mouse":[23,56,62,81,102,122,141,162,181,201,222,242,261,281,302,321,341,361,382,402,421,441,462,483,501,521,542,562,581,602,621,642,662,682,702,721,741,761,781,801,821,841,862,882,901,921,941,962,981,1001,1021,1042,1061,1081,1101,1121,1141,1162,1181,1201,1221,1241,1262,1282,1302,1322,1342,1362,1382,1401,1421,1442,1462,1482,1501,1521,1541,1561,1581,1602,1621,1641,1662,1682,1700,1722,1741,1761,1781,1801,1822,1842,1862,1881],"xSR":741.5,"ySR":573.95,"xT1":424.9,"yT1":0,"xT2":1058.1,"yT2":0,"toosoon":0,"cond_shown":"equaldotanddens","ratio_trial":900,"smaller_num":"18","larger_num":"20","correct_side":1,"subjID":"DylanCastillo13","gender":"0","age":"8","school":"4"},{"start_time":1552054824430,"click_time":1552054825390,"finger_time":1552054824930,"fix_duration":1477.56388111073,"trial":2,"RT":500,"MT":460,"sideResp":1,"stimulus":"img/500/equaldotanddens/L/11_Ratio_500_L_12_R_6.png","xmouse":[805,805,805,805,805,805,805,805,805,805,805,805,805,805,805,805,805,805,805,805,805,805,805,805,807,821,838,853,862,857,836,813,800,789,771,753,737,726,712,699,680,656,628,604,596,575,555,535,519],"ymouse":[617,617,617,617,617,617,617,617,617,617,617,617,617,617,617,617,617,617,617,617,617,617,617,617,614,546,486,439,394,297,243,206,189,175,168,162,159,157,153,149,144,134,122,104,98,80,65,48,33],"timestamp_mouse":[10,20,40,61,81,100,120,140,160,181,200,220,240,261,280,301,320,341,361,381,401,421,440,461,481,500,521,540,560,580,600,620,641,660,680,700,720,741,760,780,800,820,840,861,881,901,920,941,960],"xSR":741.5,"ySR":573.95,"xT1":424.9,"yT1":0,"xT2":1058.1,"yT2":0,"toosoon":0,"cond_shown":"equaldotanddens","ratio_trial":500,"smaller_num":"6","larger_num":"12","correct_side":1,"subjID":"DylanCastillo13","gender":"0","age":"8","school":"4"},{"start_time":1552054827243,"click_time":1552054828731,"finger_time":1552054827951,"fix_duration":250,"trial":3,"RT":708,"MT":780,"sideResp":2,"stimulus":"img/750/equaldotsize/R/12_Ratio_750_L_3_R_4.png","xmouse":[811,811,811,811,811,811,811,811,811,811,811,811,811,811,811,811,811,811,811,811,811,811,811,811,811,811,811,811,811,811,811,811,811,811,811,811,811,803,800,796,792,785,733,679,644,622,603,583,580,578,578,578,584,614,659,727,806,952,1001,1024,1037,1041,1055,1065,1079,1085,1087,1089,1089,1089,1086,1085,1085,1085,1085],"ymouse":[615,615,615,615,615,615,615,615,615,615,615,615,615,615,615,615,615,615,615,615,615,615,615,615,615,615,615,615,615,615,615,615,604,589,577,557,530,485,468,451,428,401,295,227,196,178,165,149,147,145,145,145,140,135,131,131,127,122,122,122,122,122,122,122,125,125,125,125,123,119,114,112,107,104,99],"timestamp_mouse":[12,37,47,67,87,107,128,148,167,188,208,228,248,268,288,307,327,347,367,388,407,427,447,467,487,507,528,547,568,588,608,627,647,667,687,708,727,747,767,788,807,827,848,867,887,907,928,947,967,988,1007,1027,1047,1067,1087,1107,1128,1147,1167,1188,1207,1227,1247,1267,1288,1307,1327,1348,1367,1387,1407,1427,1447,1467,1487],"xSR":741.5,"ySR":573.95,"xT1":424.9,"yT1":0,"xT2":1058.1,"yT2":0,"toosoon":0,"cond_shown":"equaldotsize","ratio_trial":750,"smaller_num":"3","larger_num":"4","correct_side":2,"subjID":"DylanCastillo13","gender":"0","age":"8","school":"4"},{"start_time":1552054830735,"click_time":1552054831690,"finger_time":1552054831390,"fix_duration":604.4148005997805,"trial":4,"RT":655,"MT":300,"sideResp":2,"stimulus":"img/500/equaldotanddens/R/14_Ratio_500_L_5_R_10.png","xmouse":[795,795,795,795,795,795,795,795,795,795,795,795,795,795,795,795,795,795,795,795,795,795,795,795,795,795,795,795,795,795,795,795,812,838,866,894,918,951,974,988,1006,1030,1069,1076,1079,1081,1084,1086],"ymouse":[596,596,596,596,596,596,596,596,596,596,596,596,596,596,596,596,596,596,596,596,596,596,596,596,596,596,596,596,596,596,596,594,558,522,489,457,428,380,340,316,290,254,179,154,132,117,108,95],"timestamp_mouse":[15,36,56,75,96,115,135,156,175,196,216,236,256,275,295,315,335,356,375,396,416,436,456,476,496,515,536,555,575,595,615,635,655,675,695,715,735,755,775,795,816,835,855,875,895,915,935,955],"xSR":741.5,"ySR":573.95,"xT1":424.9,"yT1":0,"xT2":1058.1,"yT2":0,"toosoon":0,"cond_shown":"equaldotanddens","ratio_trial":500,"smaller_num":"5","larger_num":"10","correct_side":2,"subjID":"DylanCastillo13","gender":"0","age":"8","school":"4"},{"start_time":1552054833506,"click_time":1552054834490,"finger_time":1552054834190,"fix_duration":475.963734785629,"trial":5,"RT":684,"MT":300,"sideResp":2,"stimulus":"img/500/equaldotsize/R/14_Ratio_500_L_5_R_10.png","xmouse":[795,795,795,795,795,795,795,795,795,795,795,795,795,795,795,795,795,795,795,795,795,795,795,795,795,795,795,795,795,795,795,795,795,795,802,820,846,892,949,1013,1038,1058,1068,1073,1077,1084,1086,1088,1089,1094],"ymouse":[582,582,582,582,582,582,582,582,582,582,582,582,582,582,582,582,582,582,582,582,582,582,582,582,582,582,582,582,582,582,582,582,582,582,572,547,493,398,266,175,154,138,130,125,121,115,112,108,103,85],"timestamp_mouse":[13,36,44,64,84,105,124,144,164,184,205,225,245,265,285,306,325,345,365,385,404,424,445,465,485,504,525,545,565,584,605,624,645,664,684,704,724,745,764,784,805,825,844,864,884,904,924,944,964,984],"xSR":741.5,"ySR":573.95,"xT1":424.9,"yT1":0,"xT2":1058.1,"yT2":0,"toosoon":0,"cond_shown":"equaldotsize","ratio_trial":500,"smaller_num":"5","larger_num":"10","correct_side":2,"subjID":"DylanCastillo13","gender":"0","age":"8","school":"4"},{"start_time":1552054836162,"click_time":1552054837250,"finger_time":1552054836831,"fix_duration":250,"trial":6,"RT":669,"MT":419,"sideResp":1,"stimulus":"img/250/equaldotanddens/L/3_Ratio_250_L_8_R_2.png","xmouse":[766,766,766,766,766,766,766,766,766,766,766,766,766,766,766,766,766,766,766,766,766,766,766,766,766,766,766,766,766,766,766,766,754,741,722,698,661,659,657,656,656,646,629,606,583,570,563,561,555,551,549,546,541,526,491],"ymouse":[624,624,624,624,624,624,624,624,624,624,624,624,624,624,624,624,624,624,624,624,624,624,624,624,624,624,624,624,624,624,624,623,592,548,480,399,283,276,271,269,268,252,232,210,194,185,178,176,172,169,168,161,150,124,70],"timestamp_mouse":[13,41,50,69,88,109,128,148,169,189,209,228,249,269,289,309,328,349,368,388,408,429,450,469,488,509,529,549,568,589,609,628,648,669,689,709,729,748,768,789,808,828,848,868,889,908,928,949,968,989,1008,1028,1048,1068,1088],"xSR":741.5,"ySR":573.95,"xT1":424.9,"yT1":0,"xT2":1058.1,"yT2":0,"toosoon":0,"cond_shown":"equaldotanddens","ratio_trial":250,"smaller_num":"2","larger_num":"8","correct_side":1,"subjID":"DylanCastillo13","gender":"0","age":"8","school":"4"},{"start_time":1552054839373,"click_time":1552054840370,"finger_time":1552054839951,"fix_duration":661.7523206164424,"trial":7,"RT":578,"MT":419,"sideResp":1,"stimulus":"img/250/equaldotanddens/L/7_Ratio_250_L_8_R_2.png","xmouse":[794,794,794,794,794,794,794,794,794,794,794,794,794,794,794,794,794,794,797,799,804,805,805,805,805,806,806,806,799,790,749,706,681,652,633,604,588,565,549,538,534,534,534,534,532,527,527,526,525,523],"ymouse":[620,620,620,620,620,620,620,620,620,620,620,620,620,620,620,620,620,620,620,620,618,617,616,614,613,607,600,580,558,534,435,360,310,269,241,201,180,141,121,106,100,100,100,99,97,94,94,94,93,92],"timestamp_mouse":[17,39,57,77,98,117,137,158,179,198,217,238,258,277,297,317,337,358,378,397,417,437,457,477,497,517,537,557,578,597,617,637,657,677,697,717,738,757,777,798,817,837,857,877,898,917,938,957,977,997],"xSR":741.5,"ySR":573.95,"xT1":424.9,"yT1":0,"xT2":1058.1,"yT2":0,"toosoon":0,"cond_shown":"equaldotanddens","ratio_trial":250,"smaller_num":"2","larger_num":"8","correct_side":1,"subjID":"DylanCastillo13","gender":"0","age":"8","school":"4"},{"start_time":1552054841603,"click_time":1552054842630,"finger_time":1552054842150,"fix_duration":250,"trial":8,"RT":547,"MT":480,"sideResp":1,"stimulus":"img/900/equaldotsize/L/2_Ratio_900_L_20_R_18.png","xmouse":[815,815,815,815,815,815,815,815,815,815,815,815,815,815,815,815,815,815,815,815,815,815,815,815,815,811,800,780,750,723,701,668,628,596,567,562,558,557,555,553,552,551,550,550,549,549,547,543,538,530,526,521],"ymouse":[641,641,641,641,641,641,641,641,641,641,641,641,641,641,641,641,641,641,641,641,641,641,641,641,641,627,605,548,481,433,394,343,286,237,178,157,147,141,136,127,126,123,122,121,120,120,118,116,115,109,104,97],"timestamp_mouse":[12,36,48,67,87,108,128,147,168,187,208,227,247,268,288,308,327,348,367,387,407,428,448,467,487,507,527,547,567,587,607,627,647,668,687,707,727,748,767,787,807,827,847,867,887,908,927,947,967,987,1008,1027],"xSR":741.5,"ySR":573.95,"xT1":424.9,"yT1":0,"xT2":1058.1,"yT2":0,"toosoon":0,"cond_shown":"equaldotsize","ratio_trial":900,"smaller_num":"18","larger_num":"20","correct_side":1,"subjID":"DylanCastillo13","gender":"0","age":"8","school":"4"},{"start_time":1552054849546,"click_time":1552054850470,"finger_time":1552054850390,"fix_duration":473.8629365610738,"trial":9,"RT":844,"MT":80,"sideResp":2,"stimulus":"img/900/randomdotsizeEA/R/14_Ratio_900_L_18_R_20.png","xmouse":[790,790,790,790,790,790,790,790,790,789,789,789,789,789,789,789,789,789,789,789,789,789,789,789,789,789,789,789,789,789,789,789,789,789,789,789,789,789,789,789,789,793,910,1013,1084,1138,1156],"ymouse":[594,594,594,594,594,594,595,596,596,596,596,596,596,596,596,596,596,596,596,596,596,596,596,596,596,596,596,596,596,596,596,596,596,596,596,596,596,596,596,596,596,596,469,333,220,127,77],"timestamp_mouse":[14,24,45,64,84,104,125,144,164,185,205,224,245,265,285,305,325,345,365,384,404,425,444,465,485,505,525,544,565,585,604,625,645,665,685,704,724,745,765,784,805,824,844,864,885,904,924],"xSR":741.5,"ySR":573.95,"xT1":424.9,"yT1":0,"xT2":1058.1,"yT2":0,"toosoon":0,"cond_shown":"randomdotsizeEA","ratio_trial":900,"smaller_num":"18","larger_num":"20","correct_side":2,"subjID":"DylanCastillo13","gender":"0","age":"8","school":"4"},{"start_time":1552054853169,"click_time":1552054854271,"finger_time":1552054853810,"fix_duration":1497.5299466504684,"trial":10,"RT":641,"MT":461,"sideResp":2,"stimulus":"img/750/randomdotsizeEA/L/1_Ratio_750_L_20_R_15.png","xmouse":[797,797,797,797,797,798,798,798,798,798,798,798,798,798,798,798,798,798,798,798,798,798,798,798,798,798,798,798,798,798,798,809,830,872,921,954,983,989,1000,1006,1014,1030,1037,1045,1048,1051,1055,1057,1061,1070,1074,1083,1084,1084,1084,1084],"ymouse":[614,614,614,614,614,614,614,614,614,614,614,614,614,614,614,614,614,614,614,614,614,614,614,614,614,614,614,614,614,614,614,593,564,503,449,411,370,354,333,322,310,288,280,270,266,259,251,247,238,217,199,158,140,122,104,92],"timestamp_mouse":[10,32,41,61,81,103,121,142,161,181,202,221,241,262,282,302,321,341,361,381,401,421,441,461,482,501,522,541,562,582,601,621,641,661,681,702,721,741,761,781,802,821,841,861,882,902,921,942,962,982,1001,1021,1042,1061,1082,1102],"xSR":741.5,"ySR":573.95,"xT1":424.9,"yT1":0,"xT2":1058.1,"yT2":0,"toosoon":0,"cond_shown":"randomdotsizeEA","ratio_trial":750,"smaller_num":"15","larger_num":"20","correct_side":1,"subjID":"DylanCastillo13","gender":"0","age":"8","school":"4"},{"start_time":1552054859958,"click_time":1552054860890,"finger_time":1552054860390,"fix_duration":467.2145030702829,"trial":11,"RT":432,"MT":500,"sideResp":1,"stimulus":"img/900/randomdotsizeEA/R/3_Ratio_900_L_9_R_10.png","xmouse":[801,801,801,801,801,801,801,801,801,801,801,801,801,801,801,801,801,801,801,801,801,740,681,624,583,571,568,568,568,567,563,555,551,547,544,543,540,540,540,540,539,537,534,531,529,527,524],"ymouse":[636,636,636,636,635,635,635,635,635,635,635,635,635,635,635,635,635,635,635,634,627,523,450,374,314,289,253,238,228,212,190,134,111,93,82,76,68,67,67,67,66,61,58,55,51,49,47],"timestamp_mouse":[14,38,53,73,92,112,132,153,173,192,214,233,253,272,293,312,333,352,372,392,413,432,452,473,492,512,532,552,572,592,612,633,652,673,693,713,732,752,772,793,814,833,852,873,892,913,932],"xSR":741.5,"ySR":573.95,"xT1":424.9,"yT1":0,"xT2":1058.1,"yT2":0,"toosoon":0,"cond_shown":"randomdotsizeEA","ratio_trial":900,"smaller_num":"9","larger_num":"10","correct_side":2,"subjID":"DylanCastillo13","gender":"0","age":"8","school":"4"},{"start_time":1552054862142,"click_time":1552054863131,"finger_time":1552054862451,"fix_duration":250,"trial":12,"RT":309,"MT":680,"sideResp":2,"stimulus":"img/900/equaldotanddens/R/5_Ratio_900_L_9_R_10.png","xmouse":[828,828,828,828,828,828,828,828,828,828,828,828,824,819,815,810,807,801,779,775,775,781,794,801,813,826,844,871,876,882,889,902,931,945,955,961,963,963,964,964,966,967,967,967,967,967,969,988,1040,1081],"ymouse":[603,603,603,603,603,603,603,603,603,603,603,603,599,589,580,564,539,496,324,287,266,249,227,217,205,193,182,170,167,166,164,160,154,152,150,150,149,149,148,140,127,124,122,120,117,116,113,104,85,72],"timestamp_mouse":[13,35,48,69,88,108,129,149,169,189,209,229,248,268,289,309,329,348,369,388,408,429,448,469,488,508,529,548,568,588,609,628,648,668,688,708,729,749,770,789,809,829,848,868,889,908,928,948,968,988],"xSR":741.5,"ySR":573.95,"xT1":424.9,"yT1":0,"xT2":1058.1,"yT2":0,"toosoon":0,"cond_shown":"equaldotanddens","ratio_trial":900,"smaller_num":"9","larger_num":"10","correct_side":2,"subjID":"DylanCastillo13","gender":"0","age":"8","school":"4"},{"start_time":1552054865304,"click_time":1552054866070,"finger_time":1552054865631,"fix_duration":1093.9398368240193,"trial":13,"RT":327,"MT":439,"sideResp":2,"stimulus":"img/500/randomdotsizeEA/L/11_Ratio_500_L_12_R_6.png","xmouse":[785,785,785,785,785,785,785,785,785,785,788,789,790,792,796,824,866,916,956,973,976,977,978,979,986,989,992,994,998,1009,1018,1023,1029,1037,1053,1058,1063,1069,1072],"ymouse":[647,647,647,647,647,647,647,647,636,633,627,624,623,620,614,582,538,488,442,400,389,384,376,361,337,326,316,306,296,271,255,245,231,213,167,146,126,108,96],"timestamp_mouse":[14,37,47,67,88,106,127,146,167,186,208,226,247,267,286,306,327,346,366,386,406,426,447,467,486,506,526,546,567,586,606,626,647,666,686,706,727,746,766],"xSR":741.5,"ySR":573.95,"xT1":424.9,"yT1":0,"xT2":1058.1,"yT2":0,"toosoon":0,"cond_shown":"randomdotsizeEA","ratio_trial":500,"smaller_num":"6","larger_num":"12","correct_side":1,"subjID":"DylanCastillo13","gender":"0","age":"8","school":"4"},{"start_time":1552054867745,"click_time":1552054869210,"finger_time":1552054868210,"fix_duration":292.2278373937176,"trial":14,"RT":465,"MT":1000,"sideResp":1,"stimulus":"img/900/equaldotsize/R/12_Ratio_900_L_18_R_20.png","xmouse":[802,802,802,802,802,802,802,802,802,802,802,802,802,802,802,802,801,800,800,800,798,798,795,795,790,785,781,772,765,760,755,747,696,652,631,622,618,616,611,597,589,580,570,566,564,561,559,555,552,552,550,550,548,548,548,548,548,548,548,548,548,547,546,542,539,536,534,533,532,531,529,527,525,524],"ymouse":[619,619,619,619,619,619,619,619,619,619,619,619,619,619,619,619,619,608,602,598,593,590,578,571,554,536,523,498,476,459,445,431,322,257,224,213,204,187,166,124,104,88,67,62,57,54,51,45,44,44,43,43,42,42,42,42,42,42,42,42,42,42,42,42,42,42,42,42,42,42,42,42,42,42],"timestamp_mouse":[15,25,45,66,86,106,125,145,166,185,206,226,245,266,286,305,326,346,365,385,406,426,445,465,485,505,526,545,565,586,606,625,645,665,685,705,725,745,766,785,805,825,845,865,885,905,927,945,965,985,1005,1025,1046,1067,1085,1105,1125,1145,1165,1185,1206,1225,1245,1265,1285,1305,1325,1345,1365,1385,1405,1425,1445,1465],"xSR":741.5,"ySR":573.95,"xT1":424.9,"yT1":0,"xT2":1058.1,"yT2":0,"toosoon":0,"cond_shown":"equaldotsize","ratio_trial":900,"smaller_num":"18","larger_num":"20","correct_side":2,"subjID":"DylanCastillo13","gender":"0","age":"8","school":"4"},{"start_time":1552054875941,"click_time":1552054877551,"finger_time":1552054877151,"fix_duration":250,"trial":15,"RT":1210,"MT":400,"sideResp":1,"stimulus":"img/250/randomdotsizeEA/R/12_Ratio_250_L_5_R_20.png","xmouse":[743,743,743,743,743,743,743,743,743,743,743,743,743,743,743,743,743,743,743,743,743,743,743,743,742,742,743,744,746,746,746,747,751,755,757,758,762,764,765,766,766,766,766,766,766,766,766,766,766,766,766,766,766,766,766,766,766,761,756,749,741,731,703,691,682,675,668,644,621,612,600,593,579,573,567,561,556,546,540,530,523],"ymouse":[633,633,633,633,633,633,633,633,633,633,633,633,633,633,633,633,633,633,633,633,633,633,633,633,633,633,633,633,633,633,633,633,631,630,629,628,627,626,626,625,624,622,621,621,621,621,621,621,621,621,621,621,621,621,621,621,617,608,601,591,578,562,524,501,479,462,445,399,348,321,288,261,208,185,166,147,127,96,83,64,55],"timestamp_mouse":[10,39,49,70,90,111,130,149,170,190,209,230,250,270,289,309,330,350,370,389,410,429,450,470,490,509,529,549,569,589,610,629,649,670,689,710,730,749,769,790,810,829,849,869,889,910,931,949,969,989,1009,1030,1050,1069,1089,1109,1130,1149,1170,1189,1210,1230,1249,1269,1290,1310,1329,1349,1369,1390,1410,1429,1449,1469,1490,1509,1530,1549,1571,1589,1610],"xSR":741.5,"ySR":573.95,"xT1":424.9,"yT1":0,"xT2":1058.1,"yT2":0,"toosoon":0,"cond_shown":"randomdotsizeEA","ratio_trial":250,"smaller_num":"5","larger_num":"20","correct_side":2,"subjID":"DylanCastillo13","gender":"0","age":"8","school":"4"},{"start_time":1552054882680,"click_time":1552054883890,"finger_time":1552054883711,"fix_duration":1246.6417057880699,"trial":16,"RT":1031,"MT":179,"sideResp":1,"stimulus":"img/250/randomdotsizeEA/L/1_Ratio_250_L_8_R_2.png","xmouse":[805,805,805,805,805,805,805,805,805,805,805,805,805,805,805,805,805,805,805,805,805,805,805,805,805,805,805,805,805,805,805,805,805,805,805,805,805,805,805,805,805,805,805,805,805,805,805,805,805,805,803,769,743,704,660,600,574,547,517,490,434],"ymouse":[617,617,617,617,617,617,617,617,617,617,617,617,617,617,617,617,617,617,617,617,617,617,617,617,617,617,617,617,617,617,617,617,617,617,617,617,617,617,617,617,617,617,617,617,617,617,617,617,617,617,610,528,463,387,305,225,204,181,156,133,86],"timestamp_mouse":[20,38,50,71,91,110,132,151,171,190,210,230,250,271,290,310,330,351,371,391,412,431,450,471,491,511,530,551,572,591,611,630,651,671,691,710,731,751,770,791,811,831,850,871,892,910,931,951,971,990,1010,1031,1050,1071,1090,1110,1131,1151,1170,1191,1210],"xSR":741.5,"ySR":573.95,"xT1":424.9,"yT1":0,"xT2":1058.1,"yT2":0,"toosoon":0,"cond_shown":"randomdotsizeEA","ratio_trial":250,"smaller_num":"2","larger_num":"8","correct_side":1,"subjID":"DylanCastillo13","gender":"0","age":"8","school":"4"},{"start_time":1552054892063,"click_time":1552054893251,"finger_time":1552054892870,"fix_duration":1310.589453017215,"trial":17,"RT":807,"MT":381,"sideResp":2,"stimulus":"img/250/randomdotsizeEA/L/15_Ratio_250_L_12_R_3.png","xmouse":[786,786,786,786,786,786,786,786,786,786,786,786,786,786,786,786,786,786,786,786,786,786,786,786,786,786,786,786,786,786,787,789,789,789,790,790,790,790,798,803,818,859,895,917,941,965,1006,1021,1032,1037,1038,1038,1038,1038,1038,1039,1043,1046,1053,1067],"ymouse":[600,600,600,600,600,600,600,600,600,600,600,600,600,600,600,600,600,600,600,600,600,600,600,600,600,600,600,600,600,600,601,601,601,601,601,601,601,601,591,584,569,540,510,481,441,392,248,196,170,153,142,128,120,109,97,92,84,81,78,76],"timestamp_mouse":[12,41,47,67,89,108,128,148,167,188,208,228,248,267,288,308,327,348,368,387,408,427,448,469,487,508,528,547,567,588,608,627,648,668,687,708,727,747,767,787,807,827,847,867,888,907,927,947,968,987,1009,1027,1047,1068,1088,1107,1127,1148,1167,1187],"xSR":741.5,"ySR":573.95,"xT1":424.9,"yT1":0,"xT2":1058.1,"yT2":0,"toosoon":0,"cond_shown":"randomdotsizeEA","ratio_trial":250,"smaller_num":"3","larger_num":"12","correct_side":1,"subjID":"DylanCastillo13","gender":"0","age":"8","school":"4"},{"start_time":1552054894890,"click_time":1552054899350,"finger_time":1552054898651,"fix_duration":879.5503221811008,"trial":18,"RT":3761,"MT":699,"sideResp":1,"stimulus":"img/250/equaldotsize/R/6_Ratio_250_L_6_R_24.png","xmouse":[782,782,782,782,782,782,782,782,782,782,782,782,782,782,782,782,782,782,782,782,782,782,782,782,782,782,782,782,782,782,782,782,782,782,782,782,782,782,782,782,782,782,782,782,782,782,782,782,782,782,782,782,782,782,782,782,782,782,782,782,782,782,782,782,782,782,782,782,782,782,782,782,782,782,782,782,782,782,782,782,782,782,782,782,782,782,782,782,782,782,782,782,782,782,782,782,782,782,782,782,782,782,782,782,782,782,782,782,782,782,782,782,782,782,782,782,782,782,782,782,782,782,782,782,782,782,782,782,782,782,782,782,782,782,782,782,782,782,782,782,782,782,782,782,782,782,782,782,782,782,782,782,782,782,782,782,782,782,782,782,782,782,782,782,782,782,782,782,782,782,782,782,782,782,782,782,782,782,782,782,782,782,782,782,782,782,782,804,861,899,907,907,907,907,907,907,898,878,854,831,782,760,729,708,684,650,639,637,635,632,625,612,607,595,589,583,582,579,572,566,546,536,527,522],"ymouse":[596,596,596,596,596,596,596,596,596,596,596,596,596,596,596,596,596,596,596,596,596,596,596,596,596,596,596,596,596,596,596,596,596,596,596,596,596,596,596,596,596,596,596,596,596,596,596,596,596,596,596,596,596,596,596,596,596,596,596,596,596,596,596,596,596,596,596,596,596,596,596,596,596,596,596,596,596,596,596,596,596,596,596,596,596,596,596,596,596,596,596,596,596,596,596,596,596,596,596,596,596,596,596,596,596,596,596,596,596,596,596,596,596,596,596,596,596,596,596,596,596,596,596,596,596,596,596,596,596,596,596,596,596,596,596,596,596,596,596,596,596,596,596,596,596,596,596,596,596,596,596,596,596,596,596,596,596,596,596,596,596,596,596,596,596,596,596,596,596,596,596,596,596,596,596,596,596,596,596,596,596,596,596,596,596,596,596,588,565,548,544,544,544,544,544,538,509,472,437,417,388,376,349,322,289,251,243,240,239,237,218,189,179,151,141,131,130,127,121,116,102,95,88,84],"timestamp_mouse":[11,34,41,60,80,101,121,140,161,180,200,220,241,260,281,301,320,340,360,380,401,421,441,460,481,501,521,540,560,581,602,621,640,660,680,701,721,740,760,781,800,821,841,861,880,901,921,941,961,981,1001,1021,1041,1060,1081,1101,1120,1141,1160,1180,1200,1221,1241,1261,1281,1300,1320,1341,1360,1380,1400,1421,1441,1462,1481,1500,1520,1541,1561,1581,1601,1621,1641,1660,1680,1700,1721,1741,1760,1780,1801,1821,1841,1861,1881,1900,1921,1940,1961,1980,2000,2020,2041,2060,2082,2101,2120,2140,2161,2181,2201,2220,2241,2260,2281,2301,2320,2340,2361,2381,2400,2421,2440,2461,2480,2501,2521,2542,2561,2581,2601,2620,2641,2661,2681,2700,2721,2741,2761,2781,2800,2821,2841,2861,2880,2900,2921,2940,2961,2981,3001,3020,3040,3060,3081,3101,3121,3141,3161,3180,3201,3221,3241,3261,3281,3300,3348,3349,3361,3380,3400,3420,3441,3461,3480,3500,3521,3540,3560,3581,3601,3620,3640,3661,3680,3701,3720,3741,3761,3781,3800,3821,3840,3860,3881,3900,3920,3940,3961,3980,4000,4021,4040,4061,4081,4100,4120,4141,4160,4181,4200,4222,4240,4260,4281,4300,4320,4341,4361,4380,4400,4421,4440,4460],"xSR":741.5,"ySR":573.95,"xT1":424.9,"yT1":0,"xT2":1058.1,"yT2":0,"toosoon":0,"cond_shown":"equaldotsize","ratio_trial":250,"smaller_num":"6","larger_num":"24","correct_side":2,"subjID":"DylanCastillo13","gender":"0","age":"8","school":"4"},{"start_time":1552054900582,"click_time":1552054901650,"finger_time":1552054900950,"fix_duration":250,"trial":19,"RT":368,"MT":700,"sideResp":2,"stimulus":"img/750/equaldotanddens/R/12_Ratio_750_L_3_R_4.png","xmouse":[770,770,770,770,770,770,770,770,770,770,770,770,770,770,770,772,776,791,809,833,874,884,894,903,914,946,963,986,989,992,993,993,994,995,1001,1005,1010,1015,1021,1024,1032,1036,1039,1043,1047,1053,1056,1060,1065,1067,1076,1080,1084,1086],"ymouse":[603,603,603,603,603,603,603,603,603,603,603,603,603,603,603,603,602,574,529,452,281,215,180,166,157,143,135,121,119,115,113,112,112,111,111,111,111,111,111,111,112,112,112,112,112,111,111,111,111,111,108,105,102,99],"timestamp_mouse":[13,39,48,68,89,109,128,148,169,188,209,228,249,268,288,308,328,348,368,389,408,428,448,468,488,508,528,548,568,589,608,628,649,668,690,709,729,748,768,788,808,828,848,869,888,908,929,948,968,988,1008,1028,1049,1068],"xSR":741.5,"ySR":573.95,"xT1":424.9,"yT1":0,"xT2":1058.1,"yT2":0,"toosoon":0,"cond_shown":"equaldotanddens","ratio_trial":750,"smaller_num":"3","larger_num":"4","correct_side":2,"subjID":"DylanCastillo13","gender":"0","age":"8","school":"4"},{"start_time":1552054902901,"click_time":1552054904171,"finger_time":1552054903151,"fix_duration":348.3804432543467,"trial":20,"RT":250,"MT":1020,"sideResp":2,"stimulus":"img/750/equaldotanddens/R/2_Ratio_750_L_6_R_8.png","xmouse":[793,793,793,793,793,793,793,793,794,795,795,792,788,777,770,770,769,769,769,769,769,769,769,769,769,769,769,769,769,769,769,769,769,770,824,864,904,944,985,1032,1050,1053,1058,1058,1058,1058,1058,1058,1058,1058,1058,1058,1058,1058,1058,1058,1058,1058,1058,1058,1058,1058,1058,1059],"ymouse":[616,616,616,616,616,616,616,616,611,601,593,575,554,518,494,490,488,487,487,487,487,487,487,487,487,487,487,487,487,487,487,487,487,470,351,287,239,205,175,134,122,119,113,113,113,112,110,106,102,99,99,98,98,98,98,98,98,98,98,98,98,98,98,95],"timestamp_mouse":[20,36,49,70,89,110,129,149,170,189,210,229,250,269,289,309,329,349,369,389,409,429,450,469,490,510,530,549,570,589,609,629,649,669,690,709,730,749,770,789,811,829,850,870,890,909,930,950,970,990,1009,1030,1050,1070,1089,1110,1130,1150,1170,1189,1210,1230,1250,1269],"xSR":741.5,"ySR":573.95,"xT1":424.9,"yT1":0,"xT2":1058.1,"yT2":0,"toosoon":0,"cond_shown":"equaldotanddens","ratio_trial":750,"smaller_num":"6","larger_num":"8","correct_side":2,"subjID":"DylanCastillo13","gender":"0","age":"8","school":"4"},{"start_time":1552054907326,"click_time":1552054908490,"finger_time":1552054908051,"fix_duration":755.6050716378307,"trial":21,"RT":725,"MT":439,"sideResp":2,"stimulus":"img/750/equaldotanddens/R/7_Ratio_750_L_3_R_4.png","xmouse":[798,794,794,790,790,790,790,790,790,790,788,788,787,787,787,787,787,787,787,787,787,787,787,787,787,787,787,787,787,787,787,787,786,781,777,777,777,786,825,856,884,939,974,1018,1027,1030,1031,1031,1031,1031,1031,1032,1032,1032,1032,1032,1032,1034,1062],"ymouse":[609,617,617,627,628,628,628,628,628,623,617,615,613,613,613,613,613,613,613,613,613,613,613,613,612,612,612,612,612,612,612,612,610,597,588,580,570,554,515,490,471,450,440,427,421,410,397,373,225,127,65,39,35,35,35,35,34,34,36],"timestamp_mouse":[4,37,45,64,84,104,125,144,164,184,205,225,245,265,284,304,324,345,364,384,404,424,445,464,485,505,524,545,565,584,605,625,644,664,684,704,725,744,764,784,804,825,844,864,885,905,926,946,964,984,1005,1025,1045,1065,1084,1105,1124,1144,1164],"xSR":741.5,"ySR":573.95,"xT1":424.9,"yT1":0,"xT2":1058.1,"yT2":0,"toosoon":0,"cond_shown":"equaldotanddens","ratio_trial":750,"smaller_num":"3","larger_num":"4","correct_side":2,"subjID":"DylanCastillo13","gender":"0","age":"8","school":"4"},{"start_time":1552054914691,"click_time":1552054916091,"finger_time":1552054915750,"fix_duration":557.2666443624959,"trial":22,"RT":1059,"MT":341,"sideResp":2,"stimulus":"img/900/equaldotsize/L/1_Ratio_900_L_10_R_9.png","xmouse":[785,785,785,785,785,785,785,785,785,785,785,785,785,785,785,785,785,785,785,785,785,785,785,785,785,785,785,785,785,785,785,785,785,785,785,785,785,785,785,785,785,785,785,785,785,785,785,785,785,785,785,785,785,794,828,937,980,1007,1023,1053,1053,1076,1080,1083,1087,1104,1119,1133,1140,1145,1157],"ymouse":[592,592,592,592,592,592,592,592,591,590,590,590,590,590,590,590,590,590,590,590,590,590,590,590,590,590,590,590,590,590,590,590,590,590,590,590,590,590,590,590,590,590,590,590,590,590,590,590,590,590,590,590,590,567,492,249,129,42,0,0,0,0,0,0,0,0,0,0,0,0,2],"timestamp_mouse":[1,19,40,59,79,99,120,139,159,180,200,220,240,259,279,299,319,339,359,380,400,419,440,460,480,499,519,539,560,579,599,619,640,659,679,700,720,740,760,780,800,820,840,859,880,900,919,940,961,980,1000,1020,1039,1059,1080,1099,1119,1139,1160,1180,1199,1219,1239,1259,1279,1300,1319,1340,1360,1379,1399],"xSR":741.5,"ySR":573.95,"xT1":424.9,"yT1":0,"xT2":1058.1,"yT2":0,"toosoon":0,"cond_shown":"equaldotsize","ratio_trial":900,"smaller_num":"9","larger_num":"10","correct_side":1,"subjID":"DylanCastillo13","gender":"0","age":"8","school":"4"},{"start_time":1552054917971,"click_time":1552054919092,"finger_time":1552054918591,"fix_duration":678.8563777827018,"trial":23,"RT":620,"MT":501,"sideResp":1,"stimulus":"img/500/equaldotsize/L/7_Ratio_500_L_10_R_5.png","xmouse":[789,789,789,789,789,789,789,789,789,789,789,789,789,789,789,789,789,789,789,789,789,789,789,789,789,789,789,789,789,788,782,766,750,728,699,670,645,597,590,587,584,581,573,564,559,556,555,550,544,533,521,505,505,505,505,504,491],"ymouse":[613,613,613,613,613,613,613,613,613,613,613,613,613,613,613,613,613,613,613,613,613,613,613,613,613,613,613,613,613,605,597,572,543,497,424,344,258,75,48,34,27,16,3,0,0,0,0,0,0,0,0,0,0,0,0,0,16],"timestamp_mouse":[1,19,39,60,79,100,119,139,160,180,199,219,239,260,279,299,319,339,360,379,400,421,440,459,480,500,520,540,559,579,599,620,639,659,679,699,719,739,760,779,800,819,839,859,879,900,920,940,960,979,999,1019,1039,1059,1079,1099,1121],"xSR":741.5,"ySR":573.95,"xT1":424.9,"yT1":0,"xT2":1058.1,"yT2":0,"toosoon":0,"cond_shown":"equaldotsize","ratio_trial":500,"smaller_num":"5","larger_num":"10","correct_side":1,"subjID":"DylanCastillo13","gender":"0","age":"8","school":"4"},{"start_time":1552054921033,"click_time":1552054921851,"finger_time":1552054921531,"fix_duration":919.8206105959589,"trial":24,"RT":498,"MT":320,"sideResp":1,"stimulus":"img/750/randomdotsizeEA/L/14_Ratio_750_L_8_R_6.png","xmouse":[808,803,792,790,790,790,790,790,790,790,790,790,790,788,788,788,788,788,786,784,782,782,781,771,760,740,691,621,534,528,526,525,525,525,525,525,525,525,524,523,522],"ymouse":[590,590,594,595,595,595,595,595,595,595,595,595,595,595,595,595,595,595,594,590,587,586,585,574,560,530,447,342,214,191,172,159,135,131,127,122,118,109,106,101,97],"timestamp_mouse":[18,38,58,78,99,119,139,159,178,199,219,239,258,278,298,319,339,358,378,398,419,438,458,478,498,519,538,558,578,599,618,639,658,678,698,718,738,758,778,798,818],"xSR":741.5,"ySR":573.95,"xT1":424.9,"yT1":0,"xT2":1058.1,"yT2":0,"toosoon":0,"cond_shown":"randomdotsizeEA","ratio_trial":750,"smaller_num":"6","larger_num":"8","correct_side":1,"subjID":"DylanCastillo13","gender":"0","age":"8","school":"4"},{"start_time":1552054925631,"click_time":1552054927211,"finger_time":1552054926272,"fix_duration":518.5808245504643,"trial":25,"RT":641,"MT":939,"sideResp":2,"stimulus":"img/900/randomdotsizeEA/R/13_Ratio_900_L_18_R_20.png","xmouse":[828,828,828,828,828,828,828,828,828,828,828,828,828,828,828,828,828,828,828,828,828,828,827,818,817,817,817,817,817,817,816,813,802,784,770,770,770,768,756,737,700,656,628,607,599,592,588,587,584,580,576,574,572,569,568,566,565,565,564,564,564,564,564,566,599,621,653,695,727,771,783,790,798,818,851,888,929,981,1018,1068],"ymouse":[639,639,639,639,639,639,639,639,639,639,639,639,639,639,639,639,639,639,639,639,639,638,636,624,624,624,624,624,624,624,616,601,545,429,274,233,210,195,168,141,96,47,8,0,0,0,0,0,0,0,0,0,0,0,0,0,0,1,2,2,3,3,4,6,24,40,58,81,94,105,107,107,108,108,108,97,86,72,63,55],"timestamp_mouse":[11,20,41,60,81,100,121,140,160,181,200,219,241,261,280,301,320,340,360,381,400,420,441,461,480,501,520,540,561,581,601,620,641,660,680,700,720,740,760,780,800,819,840,861,880,900,920,940,962,980,1001,1020,1041,1063,1080,1100,1121,1141,1162,1181,1201,1220,1241,1260,1281,1299,1321,1341,1360,1380,1401,1419,1441,1461,1480,1500,1521,1540,1561,1580],"xSR":741.5,"ySR":573.95,"xT1":424.9,"yT1":0,"xT2":1058.1,"yT2":0,"toosoon":0,"cond_shown":"randomdotsizeEA","ratio_trial":900,"smaller_num":"18","larger_num":"20","correct_side":2,"subjID":"DylanCastillo13","gender":"0","age":"8","school":"4"},{"start_time":1552054929881,"click_time":1552054930912,"finger_time":1552054930391,"fix_duration":1028.020280036845,"trial":26,"RT":510,"MT":521,"sideResp":1,"stimulus":"img/750/equaldotsize/L/8_Ratio_750_L_4_R_3.png","xmouse":[771,771,771,771,771,771,771,771,771,771,771,771,771,771,771,771,771,771,771,771,771,771,773,776,784,793,796,801,806,807,807,807,808,808,808,803,800,797,790,780,748,730,709,692,678,659,650,638,624,607,587,517],"ymouse":[621,621,621,621,621,621,621,621,621,620,620,620,620,620,620,620,620,620,620,620,620,619,609,595,579,549,542,535,533,533,533,533,533,532,528,502,487,472,449,417,343,307,269,241,215,179,166,152,139,128,116,77],"timestamp_mouse":[20,43,50,70,91,111,130,150,171,190,210,231,251,271,290,311,330,350,370,390,410,431,450,470,491,510,530,551,571,591,611,630,651,671,690,710,730,750,770,790,811,830,850,870,890,910,930,951,969,991,1009,1031],"xSR":741.5,"ySR":573.95,"xT1":424.9,"yT1":0,"xT2":1058.1,"yT2":0,"toosoon":0,"cond_shown":"equaldotsize","ratio_trial":750,"smaller_num":"3","larger_num":"4","correct_side":1,"subjID":"DylanCastillo13","gender":"0","age":"8","school":"4"},{"start_time":1552054932752,"click_time":1552054933972,"finger_time":1552054933091,"fix_duration":637.0267164629038,"trial":27,"RT":339,"MT":881,"sideResp":2,"stimulus":"img/250/randomdotsizeEA/R/10_Ratio_250_L_4_R_16.png","xmouse":[799,799,799,799,799,799,799,799,799,799,799,799,799,799,799,799,799,795,784,778,776,774,774,774,774,774,774,774,774,774,773,770,770,770,770,771,776,792,799,816,830,843,857,868,888,923,954,982,1011,1016,1018,1020,1031,1041,1051,1064,1074,1081,1085,1085,1085,1085],"ymouse":[588,588,588,588,588,588,588,588,588,588,588,588,588,588,588,588,588,571,533,514,497,490,486,480,478,474,468,460,458,455,451,448,447,447,447,447,447,447,447,445,440,434,421,408,397,381,356,332,285,278,277,275,261,245,225,201,177,157,117,108,103,99],"timestamp_mouse":[1,19,39,60,80,99,120,140,159,179,200,219,239,260,280,299,320,339,360,380,400,419,439,459,479,499,519,540,560,579,600,619,639,659,679,699,720,739,759,779,799,820,839,859,879,899,919,939,959,979,999,1019,1039,1059,1079,1100,1119,1139,1159,1180,1200,1219],"xSR":741.5,"ySR":573.95,"xT1":424.9,"yT1":0,"xT2":1058.1,"yT2":0,"toosoon":0,"cond_shown":"randomdotsizeEA","ratio_trial":250,"smaller_num":"4","larger_num":"16","correct_side":2,"subjID":"DylanCastillo13","gender":"0","age":"8","school":"4"},{"start_time":1552054936462,"click_time":1552054937511,"finger_time":1552054937371,"fix_duration":1449.7914085934613,"trial":28,"RT":909,"MT":140,"sideResp":2,"stimulus":"img/900/equaldotsize/R/15_Ratio_900_L_9_R_10.png","xmouse":[811,811,811,811,811,812,812,812,812,812,812,812,812,812,812,812,812,811,806,804,803,803,803,803,802,802,802,800,800,800,800,800,800,800,800,800,800,800,800,800,800,800,800,801,809,834,943,1006,1065,1105,1126,1141,1144],"ymouse":[653,653,653,653,653,653,653,653,653,653,653,653,653,653,653,653,653,640,628,620,617,617,617,617,616,613,603,600,600,600,600,600,600,600,600,599,599,599,599,599,599,599,599,597,581,529,359,277,214,171,143,105,92],"timestamp_mouse":[21,42,49,69,90,109,129,149,169,190,209,229,250,270,290,309,330,349,370,389,408,429,450,469,489,509,529,549,568,590,610,629,650,669,690,709,729,750,770,790,809,830,850,869,889,909,930,948,969,989,1009,1029,1049],"xSR":741.5,"ySR":573.95,"xT1":424.9,"yT1":0,"xT2":1058.1,"yT2":0,"toosoon":0,"cond_shown":"equaldotsize","ratio_trial":900,"smaller_num":"9","larger_num":"10","correct_side":2,"subjID":"DylanCastillo13","gender":"0","age":"8","school":"4"},{"start_time":1552054938783,"click_time":1552054940691,"finger_time":1552054939691,"fix_duration":470.0036280868548,"trial":29,"RT":908,"MT":1000,"sideResp":1,"stimulus":"img/500/randomdotsizeEA/L/5_Ratio_500_L_4_R_2.png","xmouse":[771,771,771,771,771,771,771,771,771,771,771,771,771,771,771,771,771,771,771,771,771,771,771,772,772,772,772,772,772,772,772,772,772,772,772,772,772,772,772,772,772,772,772,772,772,774,788,799,806,809,809,809,809,809,809,809,809,809,809,810,828,844,863,884,910,936,986,1003,1017,1027,1033,1034,1036,1036,1036,1036,1035,1020,1000,981,951,941,936,932,927,842,727,683,664,654,627,612,595,575,548,493],"ymouse":[601,601,601,601,601,601,601,601,601,601,601,601,601,601,601,601,601,601,601,601,601,601,601,601,601,601,601,601,601,601,601,601,601,601,601,594,588,588,588,588,588,588,588,588,585,567,515,474,451,442,442,442,441,439,439,439,439,439,438,435,429,424,419,415,408,400,375,357,335,313,285,278,277,277,276,274,269,253,243,236,230,229,229,228,226,196,128,95,82,75,62,56,51,48,44,41],"timestamp_mouse":[13,41,48,69,87,108,128,149,168,189,209,229,249,269,289,308,329,349,369,389,409,429,449,469,488,509,529,549,569,588,609,628,649,668,689,707,729,748,768,788,809,829,849,868,888,908,928,948,969,988,1008,1028,1049,1069,1089,1109,1128,1148,1167,1188,1208,1228,1248,1268,1289,1308,1329,1349,1368,1389,1408,1428,1448,1469,1488,1508,1529,1548,1568,1588,1608,1628,1648,1668,1689,1708,1728,1748,1768,1788,1808,1827,1848,1868,1888,1907],"xSR":741.5,"ySR":573.95,"xT1":424.9,"yT1":0,"xT2":1058.1,"yT2":0,"toosoon":0,"cond_shown":"randomdotsizeEA","ratio_trial":500,"smaller_num":"2","larger_num":"4","correct_side":1,"subjID":"DylanCastillo13","gender":"0","age":"8","school":"4"},{"start_time":1552054942894,"click_time":1552054944131,"finger_time":1552054943232,"fix_duration":1162.028142042848,"trial":30,"RT":338,"MT":899,"sideResp":2,"stimulus":"img/250/equaldotsize/R/12_Ratio_250_L_5_R_20.png","xmouse":[785,785,785,785,785,785,784,784,784,784,784,784,784,784,784,782,780,779,777,765,762,761,760,759,758,757,757,756,756,756,756,756,756,757,765,769,777,791,813,917,1005,1050,1080,1094,1102,1103,1105,1105,1106,1106,1106,1106,1106,1098,1063,1050,1046,1046,1046,1049,1057,1067],"ymouse":[581,580,580,580,580,580,579,579,579,579,579,579,579,578,576,574,572,570,568,545,540,537,536,534,532,530,530,529,529,529,529,529,528,528,528,528,525,516,495,408,327,276,230,207,190,187,185,184,182,181,178,173,167,156,114,97,87,82,79,70,62,55],"timestamp_mouse":[17,38,57,78,96,117,138,157,177,197,217,237,257,277,297,317,338,357,377,397,417,438,458,477,497,518,537,558,578,597,617,636,658,677,697,717,737,757,777,796,817,837,857,877,897,917,938,957,978,997,1017,1038,1058,1077,1097,1117,1138,1157,1177,1197,1218,1237],"xSR":741.5,"ySR":573.95,"xT1":424.9,"yT1":0,"xT2":1058.1,"yT2":0,"toosoon":0,"cond_shown":"equaldotsize","ratio_trial":250,"smaller_num":"5","larger_num":"20","correct_side":2,"subjID":"DylanCastillo13","gender":"0","age":"8","school":"4"},{"start_time":1552054945563,"click_time":1552054946652,"finger_time":1552054946011,"fix_duration":250,"trial":31,"RT":448,"MT":641,"sideResp":2,"stimulus":"img/750/equaldotanddens/R/15_Ratio_750_L_9_R_12.png","xmouse":[812,812,812,812,812,812,812,812,812,812,812,812,812,811,810,810,810,810,810,810,810,810,810,810,814,819,834,843,859,867,874,889,892,892,894,903,934,965,990,1015,1032,1056,1062,1062,1062,1062,1063,1063,1063,1063,1064,1065,1066,1068,1075],"ymouse":[623,623,623,623,623,623,623,623,623,623,623,623,623,618,611,606,604,604,602,599,594,579,568,555,544,532,509,500,476,454,423,322,261,209,174,157,144,143,143,143,143,140,137,136,136,136,134,132,127,123,119,114,109,103,91],"timestamp_mouse":[13,44,48,68,89,109,128,147,169,188,208,229,248,268,288,308,329,347,368,388,408,428,448,468,487,508,528,548,568,589,608,628,648,669,688,708,727,748,769,789,808,828,849,868,888,909,928,949,968,988,1008,1028,1048,1068,1088],"xSR":741.5,"ySR":573.95,"xT1":424.9,"yT1":0,"xT2":1058.1,"yT2":0,"toosoon":0,"cond_shown":"equaldotanddens","ratio_trial":750,"smaller_num":"9","larger_num":"12","correct_side":2,"subjID":"DylanCastillo13","gender":"0","age":"8","school":"4"},{"start_time":1552054949559,"click_time":1552054950331,"finger_time":1552054949691,"fix_duration":1446.982596484077,"trial":32,"RT":132,"MT":640,"sideResp":2,"stimulus":"img/250/equaldotanddens/R/9_Ratio_250_L_3_R_12.png","xmouse":[781,781,781,781,781,781,784,785,787,788,790,797,809,822,840,860,883,941,958,969,974,983,991,1001,1015,1028,1049,1055,1058,1061,1063,1076,1083,1087,1090,1095,1105,1111,1113],"ymouse":[577,577,577,577,577,576,555,546,521,505,496,486,476,466,453,440,423,386,374,367,364,361,358,354,349,345,328,307,291,272,251,208,192,178,164,152,125,102,89],"timestamp_mouse":[20,32,52,72,92,112,132,153,172,192,212,232,252,273,292,312,332,352,372,392,412,432,452,472,493,512,532,552,572,593,612,632,653,672,693,712,732,753,772],"xSR":741.5,"ySR":573.95,"xT1":424.9,"yT1":0,"xT2":1058.1,"yT2":0,"toosoon":0,"cond_shown":"equaldotanddens","ratio_trial":250,"smaller_num":"3","larger_num":"12","correct_side":2,"subjID":"DylanCastillo13","gender":"0","age":"8","school":"4"},{"start_time":1552054953150,"click_time":1552054954071,"finger_time":1552054953771,"fix_duration":558.6209289488045,"trial":33,"RT":621,"MT":300,"sideResp":2,"stimulus":"img/250/equaldotanddens/R/12_Ratio_250_L_5_R_20.png","xmouse":[774,774,774,774,774,774,774,774,774,774,774,774,774,774,774,774,774,774,774,774,774,774,774,774,774,774,778,798,807,817,827,836,859,875,895,911,922,951,1006,1029,1044,1046,1048,1048,1050,1054,1065],"ymouse":[626,626,626,626,626,626,626,626,626,626,626,626,626,626,626,626,626,626,626,626,626,626,626,626,626,627,625,602,593,585,575,563,523,495,458,422,388,215,87,66,55,53,53,53,53,53,53],"timestamp_mouse":[10,22,42,61,81,102,121,142,162,181,202,222,241,262,282,301,322,342,361,382,401,422,441,461,482,501,521,541,562,581,601,621,641,661,682,701,721,741,760,782,801,821,841,861,882,901,921],"xSR":741.5,"ySR":573.95,"xT1":424.9,"yT1":0,"xT2":1058.1,"yT2":0,"toosoon":0,"cond_shown":"equaldotanddens","ratio_trial":250,"smaller_num":"5","larger_num":"20","correct_side":2,"subjID":"DylanCastillo13","gender":"0","age":"8","school":"4"},{"start_time":1552054955644,"click_time":1552054957092,"finger_time":1552054956231,"fix_duration":250,"trial":34,"RT":587,"MT":861,"sideResp":1,"stimulus":"img/250/randomdotsizeEA/L/2_Ratio_250_L_16_R_4.png","xmouse":[829,829,829,829,829,829,829,829,829,829,829,829,829,829,829,829,826,816,814,814,814,814,814,814,814,814,813,811,809,808,808,808,812,817,823,831,839,860,866,866,866,864,853,823,812,796,775,733,725,720,711,695,674,644,641,634,620,579,560,549,546,545,545,545,545,544,540,536,533,530,529,526,516],"ymouse":[626,626,626,626,626,626,626,626,626,626,626,626,626,626,626,626,621,603,596,596,596,596,596,596,596,596,591,581,575,568,563,558,544,533,523,513,493,390,325,268,241,225,205,161,148,136,127,110,107,105,102,93,81,64,63,62,60,59,59,59,59,59,59,59,59,59,59,59,58,57,57,57,55],"timestamp_mouse":[18,34,47,68,87,107,127,147,166,188,207,227,247,268,287,307,327,347,366,386,406,428,448,468,488,506,527,547,567,587,607,627,647,667,687,708,727,747,767,787,807,827,847,868,887,907,927,947,967,987,1007,1028,1047,1068,1087,1108,1127,1147,1167,1187,1207,1227,1247,1267,1287,1308,1327,1347,1366,1387,1407,1428,1447],"xSR":741.5,"ySR":573.95,"xT1":424.9,"yT1":0,"xT2":1058.1,"yT2":0,"toosoon":0,"cond_shown":"randomdotsizeEA","ratio_trial":250,"smaller_num":"4","larger_num":"16","correct_side":1,"subjID":"DylanCastillo13","gender":"0","age":"8","school":"4"},{"start_time":1552054961503,"click_time":1552054962711,"finger_time":1552054962251,"fix_duration":669.3275462301551,"trial":35,"RT":748,"MT":460,"sideResp":1,"stimulus":"img/750/randomdotsizeEA/L/8_Ratio_750_L_4_R_3.png","xmouse":[776,776,776,776,776,776,776,776,776,776,776,776,776,776,776,776,776,776,776,776,776,776,776,776,776,776,776,776,776,776,776,776,776,776,769,762,755,741,727,699,683,672,664,655,629,616,603,585,565,518,505,493,488,484,474,470,468,467,467,467,467],"ymouse":[628,628,628,628,628,628,628,628,628,628,628,628,628,628,628,628,628,628,628,628,628,628,628,628,628,628,628,628,628,628,628,628,628,625,605,590,575,553,532,493,465,448,433,419,379,362,346,322,296,236,215,193,182,172,152,145,136,126,119,106,98],"timestamp_mouse":[14,39,48,69,87,109,129,149,168,189,209,228,249,269,289,309,329,349,368,388,409,428,449,468,489,508,529,549,569,588,608,629,649,668,688,707,728,748,769,788,809,828,849,868,889,908,928,948,968,988,1009,1028,1049,1068,1087,1108,1128,1148,1169,1188,1208],"xSR":741.5,"ySR":573.95,"xT1":424.9,"yT1":0,"xT2":1058.1,"yT2":0,"toosoon":0,"cond_shown":"randomdotsizeEA","ratio_trial":750,"smaller_num":"3","larger_num":"4","correct_side":1,"subjID":"DylanCastillo13","gender":"0","age":"8","school":"4"},{"start_time":1552054968342,"click_time":1552054969272,"finger_time":1552054969130,"fix_duration":1090.114120063614,"trial":36,"RT":788,"MT":142,"sideResp":2,"stimulus":"img/900/equaldotanddens/R/11_Ratio_900_L_18_R_20.png","xmouse":[825,825,825,825,825,825,825,825,823,822,822,822,822,822,822,822,822,822,822,824,826,826,826,826,826,826,826,826,826,826,826,826,826,826,817,805,793,781,768,768,768,776,835,880,935,1002,1061],"ymouse":[667,669,670,670,670,670,670,670,670,668,667,667,667,667,667,667,667,667,665,664,662,661,661,661,661,661,661,661,661,661,661,661,661,656,636,617,602,589,575,569,563,542,429,341,238,135,39],"timestamp_mouse":[12,29,50,70,89,110,130,148,170,190,209,229,250,269,289,308,330,349,370,389,409,429,449,470,489,510,530,550,569,590,610,630,649,668,690,709,730,749,770,788,809,830,848,869,889,909,930],"xSR":741.5,"ySR":573.95,"xT1":424.9,"yT1":0,"xT2":1058.1,"yT2":0,"toosoon":0,"cond_shown":"equaldotanddens","ratio_trial":900,"smaller_num":"18","larger_num":"20","correct_side":2,"subjID":"DylanCastillo13","gender":"0","age":"8","school":"4"},{"start_time":1552054971661,"click_time":1552054973271,"finger_time":1552054972372,"fix_duration":1328.9375009447135,"trial":37,"RT":711,"MT":899,"sideResp":2,"stimulus":"img/900/equaldotsize/R/14_Ratio_900_L_18_R_20.png","xmouse":[825,825,825,825,825,825,825,825,825,825,825,825,825,825,825,825,825,825,825,825,825,825,825,825,825,825,825,825,825,825,825,825,827,830,834,838,852,866,886,906,929,975,999,1008,1014,1017,1022,1023,1025,1028,1030,1038,1041,1044,1046,1048,1049,1049,1049,1049,1049,1049,1047,1047,1047,1047,1047,1047,1047,1046,1047,1060,1068,1079,1087,1091,1097,1098,1098,1098,1098],"ymouse":[621,621,621,621,621,621,621,621,621,621,621,621,621,621,621,621,621,621,621,621,621,621,621,621,621,621,621,621,621,621,621,621,612,602,588,573,535,516,492,466,443,369,322,306,293,284,266,259,252,244,236,220,212,206,201,197,192,191,191,191,191,191,189,189,189,189,189,189,189,189,185,167,160,152,145,140,128,121,111,100,92],"timestamp_mouse":[12,37,50,69,91,111,131,150,170,190,210,230,250,270,290,310,330,350,371,391,410,430,451,471,490,511,530,551,571,590,610,630,651,670,690,711,730,750,770,790,810,830,850,870,890,910,930,950,970,990,1011,1030,1051,1070,1091,1110,1131,1150,1171,1190,1210,1230,1250,1271,1290,1311,1331,1350,1371,1390,1411,1430,1450,1470,1490,1510,1530,1550,1570,1590,1610],"xSR":741.5,"ySR":573.95,"xT1":424.9,"yT1":0,"xT2":1058.1,"yT2":0,"toosoon":0,"cond_shown":"equaldotsize","ratio_trial":900,"smaller_num":"18","larger_num":"20","correct_side":2,"subjID":"DylanCastillo13","gender":"0","age":"8","school":"4"},{"start_time":1552054977135,"click_time":1552054977971,"finger_time":1552054977890,"fix_duration":782.9887174491274,"trial":38,"RT":755,"MT":81,"sideResp":1,"stimulus":"img/250/equaldotsize/L/2_Ratio_250_L_16_R_4.png","xmouse":[766,766,766,766,766,766,766,766,766,766,766,766,766,766,766,766,766,766,766,766,766,766,766,766,766,766,766,766,766,766,766,766,766,766,766,766,766,755,671,598,541,510],"ymouse":[607,607,607,607,607,607,607,607,607,607,607,607,607,607,607,607,607,607,607,607,607,607,607,607,607,607,607,607,607,607,607,607,607,607,607,607,607,566,384,251,129,28],"timestamp_mouse":[21,46,55,77,96,117,137,157,176,197,216,236,257,277,295,317,336,356,377,396,417,437,456,476,497,517,537,557,576,597,616,636,657,676,696,717,737,755,777,796,816,836],"xSR":741.5,"ySR":573.95,"xT1":424.9,"yT1":0,"xT2":1058.1,"yT2":0,"toosoon":0,"cond_shown":"equaldotsize","ratio_trial":250,"smaller_num":"4","larger_num":"16","correct_side":1,"subjID":"DylanCastillo13","gender":"0","age":"8","school":"4"},{"start_time":1552054980292,"click_time":1552054981793,"finger_time":1552054980712,"fix_duration":1099.5875216647883,"trial":39,"RT":420,"MT":1081,"sideResp":2,"stimulus":"img/750/equaldotanddens/R/4_Ratio_750_L_15_R_20.png","xmouse":[804,804,804,804,804,804,804,804,804,804,804,804,804,804,804,804,804,804,804,803,798,791,789,787,785,785,785,785,785,785,785,785,785,785,785,785,785,785,785,788,824,866,919,963,1008,1042,1072,1076,1079,1080,1082,1083,1084,1085,1086,1092,1094,1096,1098,1098,1098,1098,1098,1098,1098,1098,1098,1098,1098,1098,1098,1098,1098,1098,1098,1099],"ymouse":[614,614,614,614,614,614,614,614,614,614,614,614,614,614,614,614,614,614,614,603,587,572,566,562,558,557,557,557,557,557,557,557,557,557,557,557,557,557,557,552,508,436,332,225,117,34,0,0,0,0,0,0,0,0,0,0,0,0,0,0,0,0,0,0,0,0,0,0,0,0,0,0,0,0,0,1],"timestamp_mouse":[1,20,39,60,79,99,119,139,161,179,200,221,240,260,280,299,319,340,359,380,399,420,439,460,480,500,520,539,561,579,600,619,639,659,679,699,719,739,759,780,800,819,839,859,879,900,919,939,959,979,1000,1020,1039,1060,1079,1101,1119,1139,1160,1179,1200,1219,1239,1260,1279,1299,1320,1340,1359,1380,1400,1420,1439,1460,1480,1500],"xSR":741.5,"ySR":573.95,"xT1":424.9,"yT1":0,"xT2":1058.1,"yT2":0,"toosoon":0,"cond_shown":"equaldotanddens","ratio_trial":750,"smaller_num":"15","larger_num":"20","correct_side":2,"subjID":"DylanCastillo13","gender":"0","age":"8","school":"4"},{"start_time":1552054983878,"click_time":1552054985171,"finger_time":1552054984471,"fix_duration":564.768320709836,"trial":40,"RT":593,"MT":700,"sideResp":1,"stimulus":"img/500/equaldotsize/L/11_Ratio_500_L_12_R_6.png","xmouse":[802,802,802,802,802,802,802,802,802,802,802,802,802,802,802,802,802,802,802,802,802,802,802,802,802,802,805,806,807,807,803,795,783,765,739,681,661,641,621,600,552,537,531,525,520,509,503,498,494,491,486,482,481,480,478,473,472,470,468,468,467,467,467,467,468],"ymouse":[599,599,599,599,599,599,599,599,599,599,599,599,599,599,599,599,599,599,599,599,599,599,599,599,599,596,590,586,580,568,526,508,487,465,442,402,388,374,357,339,291,266,253,240,229,200,185,170,156,147,136,131,130,130,129,124,121,118,115,113,109,107,104,101,95],"timestamp_mouse":[22,38,53,74,93,113,134,154,174,193,214,234,254,275,295,313,334,354,375,393,414,433,454,473,494,514,533,554,573,593,614,634,654,674,694,713,733,754,774,794,813,833,853,873,893,914,933,954,974,995,1013,1034,1054,1074,1093,1113,1134,1154,1173,1194,1213,1233,1253,1274,1293],"xSR":741.5,"ySR":573.95,"xT1":424.9,"yT1":0,"xT2":1058.1,"yT2":0,"toosoon":0,"cond_shown":"equaldotsize","ratio_trial":500,"smaller_num":"6","larger_num":"12","correct_side":1,"subjID":"DylanCastillo13","gender":"0","age":"8","school":"4"},{"start_time":1552054987176,"click_time":1552054988091,"finger_time":1552054987792,"fix_duration":1043.4212231876393,"trial":41,"RT":616,"MT":299,"sideResp":2,"stimulus":"img/250/equaldotsize/R/10_Ratio_250_L_4_R_16.png","xmouse":[822,822,822,822,822,822,822,822,822,822,822,822,822,821,821,820,819,818,818,818,817,816,816,816,816,816,816,816,816,816,816,816,816,824,839,869,895,921,952,982,1057,1097,1127,1139,1146,1149],"ymouse":[620,620,620,620,620,620,620,620,618,618,617,617,617,616,615,614,611,609,607,606,602,595,592,590,589,585,582,580,578,577,571,564,545,522,492,419,368,332,297,269,223,200,172,150,128,97],"timestamp_mouse":[15,37,56,76,95,115,136,157,176,196,215,235,255,276,295,316,335,355,375,395,415,435,455,476,497,516,536,555,576,595,616,635,656,676,695,715,735,756,777,796,815,836,856,875,896,915],"xSR":741.5,"ySR":573.95,"xT1":424.9,"yT1":0,"xT2":1058.1,"yT2":0,"toosoon":0,"cond_shown":"equaldotsize","ratio_trial":250,"smaller_num":"4","larger_num":"16","correct_side":2,"subjID":"DylanCastillo13","gender":"0","age":"8","school":"4"},{"start_time":1552054990263,"click_time":1552054991752,"finger_time":1552054990791,"fix_duration":250,"trial":42,"RT":528,"MT":961,"sideResp":2,"stimulus":"img/750/randomdotsizeEA/R/2_Ratio_750_L_6_R_8.png","xmouse":[805,805,806,806,806,806,806,806,806,806,806,806,806,806,806,806,806,806,806,806,806,806,806,806,807,807,806,805,803,800,798,784,765,753,741,733,725,722,721,716,713,707,690,683,678,672,660,650,637,625,615,600,597,597,597,603,639,670,708,754,807,972,1057,1122,1156,1166,1167,1167,1168,1168,1168,1168,1168,1164,1153],"ymouse":[600,600,600,600,600,600,600,600,600,600,600,600,600,600,600,600,600,600,600,600,600,600,600,600,593,586,571,563,554,545,534,493,458,435,414,400,382,374,368,359,351,342,314,302,291,279,258,242,226,212,200,184,178,173,167,158,143,137,132,126,125,108,106,105,104,104,104,104,103,103,103,103,103,100,97],"timestamp_mouse":[25,29,49,68,88,108,128,149,168,189,208,228,248,269,288,309,329,348,369,388,410,429,449,468,490,509,528,548,568,588,608,628,648,669,688,708,728,748,769,789,808,828,848,868,888,908,928,948,969,989,1009,1028,1049,1068,1088,1108,1128,1148,1168,1188,1209,1228,1249,1269,1288,1310,1328,1349,1369,1389,1409,1428,1448,1468,1489],"xSR":741.5,"ySR":573.95,"xT1":424.9,"yT1":0,"xT2":1058.1,"yT2":0,"toosoon":0,"cond_shown":"randomdotsizeEA","ratio_trial":750,"smaller_num":"6","larger_num":"8","correct_side":2,"subjID":"DylanCastillo13","gender":"0","age":"8","school":"4"},{"start_time":1552054993684,"click_time":1552054995031,"finger_time":1552054994071,"fix_duration":250,"trial":43,"RT":387,"MT":960,"sideResp":2,"stimulus":"img/750/equaldotanddens/R/3_Ratio_750_L_15_R_20.png","xmouse":[762,762,762,762,762,762,763,763,763,763,763,763,764,764,764,764,764,765,768,776,795,809,823,836,839,839,839,839,839,839,839,839,839,839,839,839,839,839,839,839,839,839,839,839,839,839,839,839,839,839,839,839,839,839,838,838,838,838,845,864,887,978,998,1014,1024,1043,1053,1063],"ymouse":[629,629,629,629,629,629,626,626,626,625,625,625,625,624,623,620,616,608,590,569,535,511,472,437,422,417,417,417,417,417,417,417,417,417,417,417,417,417,417,417,417,417,417,417,417,417,417,417,417,417,417,416,410,397,374,334,309,279,243,215,195,149,135,122,107,79,66,55],"timestamp_mouse":[13,40,47,68,87,107,127,149,168,187,208,229,248,267,287,309,327,347,368,387,407,427,448,467,488,507,527,549,568,588,608,628,648,667,688,707,728,748,767,787,807,828,847,868,888,907,928,948,968,988,1009,1028,1047,1067,1087,1107,1127,1148,1168,1188,1207,1228,1248,1269,1287,1307,1327,1347],"xSR":741.5,"ySR":573.95,"xT1":424.9,"yT1":0,"xT2":1058.1,"yT2":0,"toosoon":0,"cond_shown":"equaldotanddens","ratio_trial":750,"smaller_num":"15","larger_num":"20","correct_side":2,"subjID":"DylanCastillo13","gender":"0","age":"8","school":"4"},{"start_time":1552054999058,"click_time":1552055001512,"finger_time":1552054999851,"fix_duration":1384.3076625626745,"trial":44,"RT":793,"MT":1661,"sideResp":2,"stimulus":"img/500/randomdotsizeEA/L/13_Ratio_500_L_12_R_6.png","xmouse":[783,783,783,783,783,783,783,783,783,783,783,783,783,783,783,783,783,783,783,783,783,783,783,783,783,783,783,783,783,783,783,783,783,783,783,783,783,783,783,783,780,766,760,753,749,745,743,736,733,730,727,721,720,720,720,720,720,720,720,720,720,720,720,720,720,720,720,720,720,722,724,737,746,750,756,757,757,756,755,755,755,755,755,755,755,755,755,753,746,740,734,719,710,707,702,696,686,679,671,660,647,625,621,616,612,608,603,603,603,614,635,706,764,800,833,876,966,995,1014,1025,1033,1053,1073],"ymouse":[604,604,604,604,604,604,604,604,604,604,604,604,604,604,604,604,604,604,604,604,604,604,604,604,604,604,604,604,604,604,604,604,604,604,604,602,597,591,578,564,547,507,491,476,467,459,451,436,427,420,413,400,397,397,397,397,397,397,397,397,397,397,397,397,397,397,397,396,392,387,380,350,332,318,300,293,284,279,277,277,277,277,277,277,277,277,277,273,263,256,248,224,213,212,210,209,204,200,193,182,170,148,143,136,130,122,110,107,104,101,97,87,79,74,71,65,55,55,54,52,52,52,52],"timestamp_mouse":[14,33,54,73,93,114,134,153,174,194,215,234,254,275,294,313,333,354,375,394,414,434,454,474,494,513,533,555,574,593,614,634,653,673,694,713,733,753,773,793,813,833,854,873,894,914,933,953,973,993,1013,1033,1053,1074,1093,1114,1133,1153,1174,1193,1214,1233,1253,1273,1294,1313,1334,1353,1373,1393,1413,1433,1453,1474,1493,1513,1533,1553,1574,1594,1614,1633,1653,1674,1695,1714,1733,1753,1773,1793,1814,1833,1854,1873,1894,1914,1933,1953,1975,1994,2013,2033,2053,2073,2095,2113,2133,2153,2173,2193,2215,2233,2253,2273,2293,2313,2333,2353,2373,2393,2413,2433,2453],"xSR":741.5,"ySR":573.95,"xT1":424.9,"yT1":0,"xT2":1058.1,"yT2":0,"toosoon":0,"cond_shown":"randomdotsizeEA","ratio_trial":500,"smaller_num":"6","larger_num":"12","correct_side":1,"subjID":"DylanCastillo13","gender":"0","age":"8","school":"4"},{"start_time":1552055007813,"click_time":1552055008891,"finger_time":1552055008451,"fix_duration":1039.5237366079614,"trial":45,"RT":638,"MT":440,"sideResp":1,"stimulus":"img/900/equaldotanddens/L/8_Ratio_900_L_20_R_18.png","xmouse":[811,811,811,811,811,811,811,811,811,811,811,811,811,811,811,812,812,812,812,812,812,812,812,812,812,812,812,812,812,811,807,790,755,670,654,646,640,631,610,602,600,598,596,582,575,565,554,547,539,537,535,530,523,513],"ymouse":[621,621,621,621,621,621,621,621,621,621,621,621,621,621,621,621,620,618,616,614,613,612,610,609,609,609,609,609,609,601,595,572,527,435,415,401,389,375,337,317,302,289,273,219,197,177,161,150,140,135,129,116,100,74],"timestamp_mouse":[18,45,58,79,99,118,138,158,179,198,220,238,259,278,298,318,338,359,378,399,418,438,459,478,499,520,539,559,578,598,619,638,659,678,699,719,739,758,779,798,818,838,858,878,899,918,938,958,979,998,1019,1038,1058,1078],"xSR":741.5,"ySR":573.95,"xT1":424.9,"yT1":0,"xT2":1058.1,"yT2":0,"toosoon":0,"cond_shown":"equaldotanddens","ratio_trial":900,"smaller_num":"18","larger_num":"20","correct_side":1,"subjID":"DylanCastillo13","gender":"0","age":"8","school":"4"},{"start_time":1552055010879,"click_time":1552055012691,"finger_time":1552055011691,"fix_duration":866.1607161497151,"trial":46,"RT":812,"MT":1000,"sideResp":2,"stimulus":"img/750/equaldotsize/R/2_Ratio_750_L_6_R_8.png","xmouse":[801,801,801,801,801,801,801,801,801,801,801,801,801,801,801,801,801,801,801,801,801,801,801,801,801,801,801,801,801,801,801,801,801,801,801,801,801,801,801,801,806,814,823,838,865,910,936,964,981,1002,1033,1051,1056,1059,1060,1059,1054,1051,1051,1051,1051,1054,1062,1070,1077,1086,1088,1089,1091,1094,1102,1105,1106,1107,1107,1107,1107,1107,1107,1107,1107,1107,1107,1107,1107,1107,1107,1107,1107,1107,1107],"ymouse":[587,587,587,587,587,587,587,587,587,587,587,587,587,587,587,587,587,587,587,587,587,587,587,587,587,587,587,587,587,587,587,587,587,587,587,587,587,583,578,574,558,545,531,513,487,443,420,395,377,357,308,270,250,232,215,185,174,170,169,169,168,158,145,132,122,111,109,109,109,109,109,109,109,109,109,109,109,109,109,109,109,109,108,107,106,105,104,101,101,101,96],"timestamp_mouse":[13,44,52,73,92,113,134,153,173,194,212,232,252,273,294,313,332,352,373,394,414,432,453,472,493,512,533,552,573,593,612,632,653,672,692,712,732,752,773,793,812,832,853,873,892,912,932,953,972,993,1012,1032,1052,1072,1092,1112,1132,1153,1172,1193,1212,1233,1252,1273,1293,1312,1334,1354,1373,1393,1412,1432,1452,1472,1492,1512,1534,1553,1573,1593,1613,1633,1652,1672,1692,1712,1732,1753,1773,1792,1812],"xSR":741.5,"ySR":573.95,"xT1":424.9,"yT1":0,"xT2":1058.1,"yT2":0,"toosoon":0,"cond_shown":"equaldotsize","ratio_trial":750,"smaller_num":"6","larger_num":"8","correct_side":2,"subjID":"DylanCastillo13","gender":"0","age":"8","school":"4"},{"start_time":1552055017454,"click_time":1552055018873,"finger_time":1552055018391,"fix_duration":540.7518439119506,"trial":47,"RT":937,"MT":482,"sideResp":2,"stimulus":"img/500/randomdotsizeEA/R/9_Ratio_500_L_2_R_4.png","xmouse":[811,811,811,811,811,811,811,811,811,811,811,811,811,811,811,811,811,811,811,811,811,811,811,811,811,811,811,811,811,811,811,811,811,811,811,811,811,811,811,811,811,811,811,811,811,812,820,831,844,856,867,903,917,932,944,956,974,980,991,999,1007,1018,1022,1025,1027,1029,1034,1041,1050,1057,1061],"ymouse":[627,627,627,627,627,627,627,627,627,627,627,627,627,627,627,627,627,627,627,627,627,627,627,627,627,627,627,627,627,627,627,627,627,627,627,627,627,627,627,627,627,627,627,627,627,608,559,516,473,436,415,354,322,287,257,231,187,169,151,134,117,93,84,81,77,76,74,74,74,74,74],"timestamp_mouse":[18,38,58,78,98,118,138,157,178,197,217,237,257,278,297,318,339,357,377,397,417,438,458,477,497,518,537,557,577,598,618,637,657,677,699,718,737,759,778,798,817,837,857,877,898,918,937,957,977,998,1017,1038,1058,1078,1097,1117,1137,1157,1178,1197,1217,1237,1257,1277,1297,1317,1337,1357,1377,1397,1418],"xSR":741.5,"ySR":573.95,"xT1":424.9,"yT1":0,"xT2":1058.1,"yT2":0,"toosoon":0,"cond_shown":"randomdotsizeEA","ratio_trial":500,"smaller_num":"2","larger_num":"4","correct_side":2,"subjID":"DylanCastillo13","gender":"0","age":"8","school":"4"},{"start_time":1552055028184,"click_time":1552055031473,"finger_time":1552055030851,"fix_duration":250,"trial":48,"RT":2667,"MT":622,"sideResp":2,"stimulus":"img/500/equaldotanddens/R/2_Ratio_500_L_3_R_6.png","xmouse":[824,824,824,824,824,824,824,824,824,824,824,824,824,824,824,824,824,824,824,824,824,824,824,824,824,824,824,824,824,824,824,824,824,824,824,824,824,824,824,824,824,824,824,824,824,824,824,824,824,824,824,824,824,824,824,824,824,824,824,824,824,824,824,824,824,824,824,824,824,824,824,824,824,824,824,824,824,824,824,824,824,824,824,824,824,824,824,824,824,824,824,824,824,824,824,824,824,824,824,824,824,824,824,824,824,824,824,824,824,824,824,824,824,824,824,824,824,824,824,824,824,824,824,824,824,824,824,824,824,824,824,821,816,806,799,794,794,794,794,794,794,794,794,794,794,794,794,794,794,794,850,897,944,985,1011,1031,1038,1039,1039,1039,1040,1041,1046,1053,1059],"ymouse":[606,606,606,606,606,606,606,606,606,606,606,606,606,606,606,606,606,606,606,606,606,606,606,606,606,606,606,606,606,606,606,606,606,606,606,606,606,606,606,606,606,606,606,606,606,606,606,606,606,606,606,606,606,606,606,606,606,606,606,606,606,606,606,606,606,606,606,606,606,606,606,606,606,606,606,606,606,606,606,606,606,606,606,606,606,606,606,606,606,606,606,606,606,606,606,606,606,606,606,606,606,606,606,606,606,606,606,606,606,606,606,606,606,606,606,606,606,606,606,606,606,606,606,606,606,606,606,606,606,606,606,593,583,564,552,543,543,543,543,543,543,543,543,543,543,543,543,543,543,537,425,318,207,110,49,0,0,0,0,0,0,0,0,3,6],"timestamp_mouse":[12,36,48,67,87,107,128,148,169,187,208,227,248,269,287,307,327,347,368,389,407,428,449,467,488,507,528,549,567,589,608,627,648,667,689,707,727,749,767,787,808,828,847,867,889,909,927,947,967,987,1007,1027,1048,1067,1087,1108,1127,1147,1168,1188,1207,1227,1247,1268,1287,1308,1328,1347,1368,1387,1408,1427,1449,1467,1488,1507,1527,1547,1567,1587,1607,1627,1647,1667,1687,1707,1727,1747,1767,1787,1807,1827,1847,1867,1889,1908,1928,1947,1968,1988,2007,2027,2049,2067,2088,2109,2129,2147,2167,2188,2207,2229,2248,2267,2288,2308,2328,2348,2368,2388,2408,2427,2447,2467,2488,2507,2527,2548,2568,2588,2608,2627,2647,2667,2688,2708,2728,2748,2767,2788,2807,2828,2847,2868,2888,2908,2929,2947,2967,2987,3007,3027,3048,3068,3088,3109,3129,3147,3168,3187,3209,3227,3247,3268,3289],"xSR":741.5,"ySR":573.95,"xT1":424.9,"yT1":0,"xT2":1058.1,"yT2":0,"toosoon":0,"cond_shown":"equaldotanddens","ratio_trial":500,"smaller_num":"3","larger_num":"6","correct_side":2,"subjID":"DylanCastillo13","gender":"0","age":"8","school":"4"},{"start_time":1552055033812,"click_time":1552055034872,"finger_time":1552055034591,"fix_duration":359.76134565925776,"trial":49,"RT":779,"MT":281,"sideResp":2,"stimulus":"img/750/equaldotsize/R/7_Ratio_750_L_3_R_4.png","xmouse":[824,824,824,824,824,824,824,824,824,824,824,824,824,824,824,824,824,824,824,824,824,824,824,824,824,824,824,824,824,824,824,824,824,824,824,824,824,824,825,850,877,909,932,951,979,984,991,998,1008,1030,1040,1048,1057,1062],"ymouse":[593,593,593,593,593,593,593,593,593,593,593,593,593,593,593,593,593,593,593,593,593,593,593,593,593,593,593,593,593,593,593,593,593,593,593,593,593,591,583,525,453,385,334,300,249,236,220,206,190,155,136,118,97,83],"timestamp_mouse":[2,20,45,59,80,100,119,140,159,179,199,219,240,260,279,300,320,339,359,381,400,419,441,460,480,500,519,539,560,579,599,621,639,659,680,699,719,739,760,779,799,819,839,861,879,900,920,940,959,980,999,1019,1039,1060],"xSR":741.5,"ySR":573.95,"xT1":424.9,"yT1":0,"xT2":1058.1,"yT2":0,"toosoon":0,"cond_shown":"equaldotsize","ratio_trial":750,"smaller_num":"3","larger_num":"4","correct_side":2,"subjID":"DylanCastillo13","gender":"0","age":"8","school":"4"},{"start_time":1552055039696,"click_time":1552055041091,"finger_time":1552055040691,"fix_duration":1004.3110909357464,"trial":50,"RT":995,"MT":400,"sideResp":2,"stimulus":"img/750/randomdotsizeEA/R/4_Ratio_750_L_15_R_20.png","xmouse":[777,777,777,777,777,777,777,777,777,777,777,777,777,777,777,777,777,777,777,777,777,777,777,777,777,777,777,777,777,777,777,777,777,777,777,777,777,777,777,777,782,783,787,791,791,791,791,792,793,803,816,836,854,866,910,923,940,952,962,971,975,978,984,994,1031,1047,1061,1073,1081,1094],"ymouse":[619,619,619,619,619,619,619,619,619,619,619,619,619,619,619,619,619,619,619,619,619,619,619,619,619,619,619,619,619,619,619,619,619,619,619,619,619,619,619,619,617,615,613,610,609,609,609,607,602,560,518,455,412,382,275,226,188,165,151,139,134,131,130,127,119,115,111,107,102,95],"timestamp_mouse":[15,40,55,76,96,115,136,155,176,195,217,235,255,276,296,317,336,356,375,397,415,435,455,476,497,516,537,556,576,596,616,636,656,676,697,716,736,757,775,795,817,835,857,875,895,916,936,955,975,995,1015,1035,1055,1076,1095,1115,1135,1155,1176,1195,1216,1236,1257,1276,1295,1315,1336,1355,1376,1395],"xSR":741.5,"ySR":573.95,"xT1":424.9,"yT1":0,"xT2":1058.1,"yT2":0,"toosoon":0,"cond_shown":"randomdotsizeEA","ratio_trial":750,"smaller_num":"15","larger_num":"20","correct_side":2,"subjID":"DylanCastillo13","gender":"0","age":"8","school":"4"},{"start_time":1552055043516,"click_time":1552055044691,"finger_time":1552055044211,"fix_duration":943.2751920462578,"trial":51,"RT":695,"MT":480,"sideResp":1,"stimulus":"img/900/randomdotsizeEA/L/10_Ratio_900_L_20_R_18.png","xmouse":[821,821,821,821,821,821,821,821,821,821,821,821,821,821,821,821,821,821,821,821,821,821,820,819,819,819,819,819,819,819,819,819,818,818,813,800,773,746,712,703,691,677,663,638,631,628,625,621,614,607,602,597,589,572,562,551,541,531,512],"ymouse":[580,580,580,580,580,580,580,580,580,580,580,580,580,581,581,582,582,582,582,583,583,583,583,583,583,583,583,583,583,583,583,583,583,576,557,519,449,401,357,349,336,321,307,282,272,266,260,251,234,220,210,197,181,147,130,114,99,86,60],"timestamp_mouse":[17,35,55,75,96,116,137,155,176,195,217,237,256,275,296,316,336,356,375,396,415,436,455,476,496,516,536,556,575,596,615,636,656,676,695,716,735,755,775,796,816,837,855,876,896,915,935,955,975,996,1016,1036,1055,1076,1095,1116,1137,1155,1175],"xSR":741.5,"ySR":573.95,"xT1":424.9,"yT1":0,"xT2":1058.1,"yT2":0,"toosoon":0,"cond_shown":"randomdotsizeEA","ratio_trial":900,"smaller_num":"18","larger_num":"20","correct_side":1,"subjID":"DylanCastillo13","gender":"0","age":"8","school":"4"},{"start_time":1552055048650,"click_time":1552055049891,"finger_time":1552055049511,"fix_duration":836.3306400419365,"trial":52,"RT":861,"MT":380,"sideResp":1,"stimulus":"img/500/equaldotsize/L/5_Ratio_500_L_4_R_2.png","xmouse":[792,792,792,792,792,792,792,792,792,792,792,792,792,792,792,792,792,792,792,792,792,792,792,792,792,792,792,792,792,792,792,792,792,792,792,792,792,791,787,786,784,778,743,653,616,593,584,564,551,535,520,505,484,475,471,468,465,459,456,453,450,445,438],"ymouse":[643,643,643,643,643,643,643,643,643,643,643,643,643,643,643,643,643,643,643,643,643,643,643,643,643,643,643,643,643,643,643,643,643,643,643,643,643,643,637,636,634,629,599,509,464,437,419,378,341,301,263,231,192,177,169,165,160,146,138,130,119,109,83],"timestamp_mouse":[10,22,41,61,81,102,123,141,162,181,203,222,242,262,281,301,322,343,362,381,402,422,441,462,481,501,522,541,561,581,602,621,642,662,683,701,722,741,761,782,802,822,841,861,881,903,922,941,961,983,1002,1022,1041,1062,1082,1102,1121,1141,1161,1181,1201,1221,1241],"xSR":741.5,"ySR":573.95,"xT1":424.9,"yT1":0,"xT2":1058.1,"yT2":0,"toosoon":0,"cond_shown":"equaldotsize","ratio_trial":500,"smaller_num":"2","larger_num":"4","correct_side":1,"subjID":"DylanCastillo13","gender":"0","age":"8","school":"4"},{"start_time":1552055051232,"click_time":1552055052532,"finger_time":1552055051912,"fix_duration":380.22280757114345,"trial":53,"RT":680,"MT":620,"sideResp":1,"stimulus":"img/750/equaldotanddens/L/8_Ratio_750_L_4_R_3.png","xmouse":[778,778,778,778,778,778,778,778,778,778,778,778,778,778,778,778,778,778,778,778,778,778,778,778,778,778,778,778,778,778,778,776,749,737,688,656,638,622,615,603,596,593,585,583,580,579,577,574,573,571,569,567,565,564,562,560,557,550,546,545,544,543,536,527,518],"ymouse":[623,623,623,623,623,623,623,623,623,623,623,623,623,623,623,623,623,623,623,623,623,623,623,623,623,623,623,623,623,623,623,618,583,572,535,507,487,448,399,338,309,282,234,218,202,188,176,154,145,136,130,125,121,119,117,115,113,108,106,105,104,104,100,97,94],"timestamp_mouse":[37,41,61,79,100,119,140,160,179,200,221,239,259,281,299,319,340,359,379,400,420,441,459,479,499,520,541,559,579,601,621,639,660,680,700,720,739,759,781,799,819,840,859,879,900,920,940,959,979,999,1020,1040,1060,1080,1099,1120,1139,1159,