[{"start_time":1552308661006,"click_time":1552308661893,"finger_time":1552308661016,"fix_duration":1010.1558100880443,"trial":0,"RT":10,"MT":877,"sideResp":1,"stimulus":[],"xmouse":[791,791,791,791,791,791,791,791,791,792,792,795,797,798,798,799,799,795,790,783,775,764,740,736,737,740,739,737,735,724,677,615,543,530,529,529,529,502,469,457,454,454,454,454,453],"ymouse":[529,529,529,529,529,529,529,529,529,529,529,528,528,528,528,526,524,508,494,466,414,348,187,134,107,82,63,57,56,52,31,5,0,0,0,0,0,0,0,0,0,0,0,0,1],"timestamp_mouse":[10,25,45,65,86,107,127,147,167,185,206,226,245,266,286,305,326,345,365,387,407,427,445,465,486,505,525,545,566,585,606,627,646,666,687,706,727,746,766,785,805,825,847,867,887],"xSR":741.5,"ySR":469.95,"xT1":424.9,"yT1":0,"xT2":1058.1,"yT2":0,"toosoon":0,"cond_shown":"Incongruent","ratio_trial":100,"L_num":10,"L_den":25,"R_num":8,"R_den":16,"correct_side":2,"subjID":"Juan Pablo Garcia Gaitan26","gender":"0","age":"9","school":"4","test":{"fix_dur":[250,1500],"timestim":1000,"targets_dim":[100,100],"targets_relative_coord":[0.3,0.7],"size_stim":[880,420],"start_dim":[100,100],"size_start":[300,300],"size_fix":60,"samplingrate":20,"img_types":["Congruent","Incongruent"],"ratios":[100,200,300],"rep_conds":19,"nTrials":120,"trials_to_rest":500,"Trials_order":[37,95,60,36,74,112,5,47,101,29,7,13,111,52,81,48,3,83,35,14,16,67,11,92,85,119,44,87,32,63,42,24,78,6,75,106,117,97,118,4,73,30,69,70,65,15,40,89,115,38,45,23,27,18,88,49,66,108,84,54,105,79,77,53,100,21,102,71,93,107,17,25,103,0,50,31,110,98,56,1,43,114,91,64,90,58,2,51,99,86,80,94,96,28,20,76,61,26,39,68,8,22,104,41,113,55,33,57,116,12,62,34,59,46,19,82,72,10,9,109],"cond_shown":["Incongruent","Incongruent","Congruent","Congruent","Congruent","Congruent","Incongruent","Incongruent","Incongruent","Incongruent","Incongruent","Incongruent","Incongruent","Congruent","Incongruent","Congruent","Incongruent","Incongruent","Incongruent","Congruent","Congruent","Incongruent","Incongruent","Congruent","Incongruent","Incongruent","Congruent","Incongruent","Congruent","Incongruent","Congruent","Congruent","Congruent","Congruent","Incongruent","Congruent","Incongruent","Incongruent","Congruent","Congruent","Incongruent","Congruent","Incongruent","Congruent","Incongruent","Incongruent","Congruent","Incongruent","Incongruent","Congruent","Incongruent","Incongruent","Incongruent","Congruent","Congruent","Incongruent","Congruent","Congruent","Congruent","Congruent","Incongruent","Incongruent","Incongruent","Incongruent","Congruent","Incongruent","Congruent","Incongruent","Incongruent","Incongruent","Incongruent","Incongruent","Incongruent","Congruent","Congruent","Incongruent","Congruent","Congruent","Congruent","Incongruent","Incongruent","Congruent","Incongruent","Congruent","Congruent","Congruent","Congruent","Incongruent","Incongruent","Congruent","Congruent","Congruent","Congruent","Congruent","Congruent","Congruent","Incongruent","Congruent","Incongruent","Congruent","Congruent","Congruent","Congruent","Incongruent","Incongruent","Incongruent","Incongruent","Incongruent","Congruent","Congruent","Congruent","Congruent","Incongruent","Congruent","Incongruent","Congruent","Congruent","Congruent","Incongruent","Incongruent"],"ratio_trial":[100,300,100,100,200,300,300,300,300,300,100,100,200,300,200,100,200,300,300,200,300,100,300,200,100,300,200,200,200,200,100,100,100,100,200,300,200,100,300,300,100,100,200,300,300,200,300,300,100,200,200,300,200,100,300,100,100,100,100,100,200,100,300,300,300,200,100,300,200,300,300,100,100,100,200,100,200,200,200,100,100,100,100,300,100,300,200,200,200,200,200,300,100,300,200,300,100,200,200,200,200,300,200,300,300,100,200,200,200,100,200,300,300,300,100,300,100,300,200,100],"left_num":[10,1,12,11,3,4,1,8,13,4,12,6,4,8,14,11,7,4,13,4,4,11,4,21,3,13,8,4,1,9,10,15,1,6,7,4,4,12,1,20,12,6,6,20,3,7,3,4,4,16,4,4,14,8,5,12,11,11,2,10,7,3,4,13,11,4,10,7,4,4,4,13,11,10,4,6,8,16,3,9,12,11,3,1,7,3,12,9,14,3,7,2,1,3,13,12,4,9,7,12,8,18,7,8,7,10,7,11,3,9,21,3,2,3,9,20,15,3,4,17],"right_num":[8,2,13,4,11,13,3,14,12,2,9,7,14,10,6,4,4,2,12,3,13,9,2,2,11,12,2,14,21,8,3,13,3,15,14,1,14,9,11,14,2,5,3,13,4,12,11,2,8,12,1,2,6,2,7,2,6,4,6,3,8,8,2,12,2,1,3,8,6,8,2,6,9,3,3,7,3,9,14,20,9,4,7,3,15,4,6,8,6,14,18,12,3,11,14,2,8,13,6,6,3,9,18,14,8,8,8,3,9,8,2,2,6,4,20,9,13,11,6,10],"left_den":[25,2,30,22,10,20,2,10,26,20,24,10,6,15,30,22,15,20,26,10,20,22,20,30,5,26,15,6,2,15,25,25,2,12,10,10,6,24,5,25,30,20,20,25,6,10,12,20,8,20,30,20,30,16,25,30,22,22,5,25,10,5,20,26,22,30,25,10,5,5,20,26,22,25,10,10,15,30,6,10,24,22,9,5,14,6,15,15,30,6,15,10,2,12,26,24,8,30,15,20,15,20,15,10,10,25,10,20,12,15,30,6,4,6,10,25,25,12,5,30],"right_den":[16,10,26,10,22,26,15,28,15,4,15,14,30,12,9,10,6,4,15,15,26,15,4,4,22,15,6,30,30,10,10,26,5,25,28,10,30,15,22,28,4,25,6,26,20,24,20,4,20,20,3,4,9,5,14,4,15,10,12,10,16,16,4,15,10,3,10,20,10,16,4,10,15,10,15,14,9,27,20,25,15,10,30,6,25,5,10,10,9,20,27,24,5,20,20,10,20,26,9,15,9,15,27,28,20,16,16,4,20,16,4,10,30,5,25,18,26,20,10,15],"correct_side":[2,1,2,1,2,2,1,1,2,2,2,1,1,2,2,1,2,2,2,1,2,2,2,1,1,2,1,1,2,2,1,1,2,2,1,1,1,2,2,1,2,1,2,1,1,1,2,2,1,1,2,2,2,1,2,2,1,1,2,1,1,1,2,2,1,2,1,1,1,1,2,2,2,1,1,1,1,1,2,1,2,1,1,2,2,2,1,2,2,2,2,2,2,2,2,1,1,2,2,1,1,1,2,1,1,2,1,2,2,1,1,1,1,2,1,1,1,2,1,2],"img_shown":["img2/100/Incongruent/R/I_Dist_100_LN_10_LD_25_RN_8_RD_16_1.png","img2/300/Incongruent/L/I_Dist_300_LN_1_LD_2_RN_2_RD_10_0.png","img2/100/Congruent/R/C_Dist_100_LN_12_LD_30_RN_13_RD_26_1.png","img2/100/Congruent/L/C_Dist_100_LN_11_LD_22_RN_4_RD_10_0.png","img2/200/Congruent/R/C_Dist_200_LN_3_LD_10_RN_11_RD_22_1.png","img2/300/Congruent/R/C_Dist_300_LN_4_LD_20_RN_13_RD_26_1.png","img2/300/Incongruent/L/I_Dist_300_LN_1_LD_2_RN_3_RD_15_0.png","img2/300/Incongruent/L/I_Dist_300_LN_8_LD_10_RN_14_RD_28_0.png","img2/300/Incongruent/R/I_Dist_300_LN_13_LD_26_RN_12_RD_15_1.png","img2/300/Incongruent/R/I_Dist_300_LN_4_LD_20_RN_2_RD_4_1.png","img2/100/Incongruent/R/I_Dist_100_LN_12_LD_24_RN_9_RD_15_1.png","img2/100/Incongruent/L/I_Dist_100_LN_6_LD_10_RN_7_RD_14_0.png","img2/200/Incongruent/L/I_Dist_200_LN_4_LD_6_RN_14_RD_30_0.png","img2/300/Congruent/R/C_Dist_300_LN_8_LD_15_RN_10_RD_12_1.png","img2/200/Incongruent/R/I_Dist_200_LN_14_LD_30_RN_6_RD_9_1.png","img2/100/Congruent/L/C_Dist_100_LN_11_LD_22_RN_4_RD_10_0.png","img2/200/Incongruent/R/I_Dist_200_LN_7_LD_15_RN_4_RD_6_1.png","img2/300/Incongruent/R/I_Dist_300_LN_4_LD_20_RN_2_RD_4_1.png","img2/300/Incongruent/R/I_Dist_300_LN_13_LD_26_RN_12_RD_15_1.png","img2/200/Congruent/L/C_Dist_200_LN_4_LD_10_RN_3_RD_15_0.png","img2/300/Congruent/R/C_Dist_300_LN_4_LD_20_RN_13_RD_26_1.png","img2/100/Incongruent/R/I_Dist_100_LN_11_LD_22_RN_9_RD_15_1.png","img2/300/Incongruent/R/I_Dist_300_LN_4_LD_20_RN_2_RD_4_1.png","img2/200/Congruent/L/C_Dist_200_LN_21_LD_30_RN_2_RD_4_0.png","img2/100/Incongruent/L/I_Dist_100_LN_3_LD_5_RN_11_RD_22_0.png","img2/300/Incongruent/R/I_Dist_300_LN_13_LD_26_RN_12_RD_15_1.png","img2/200/Congruent/L/C_Dist_200_LN_8_LD_15_RN_2_RD_6_0.png","img2/200/Incongruent/L/I_Dist_200_LN_4_LD_6_RN_14_RD_30_0.png","img2/200/Congruent/R/C_Dist_200_LN_1_LD_2_RN_21_RD_30_1.png","img2/200/Incongruent/R/I_Dist_200_LN_9_LD_15_RN_8_RD_10_1.png","img2/100/Congruent/L/C_Dist_100_LN_10_LD_25_RN_3_RD_10_0.png","img2/100/Congruent/L/C_Dist_100_LN_15_LD_25_RN_13_RD_26_0.png","img2/100/Congruent/R/C_Dist_100_LN_1_LD_2_RN_3_RD_5_1.png","img2/100/Congruent/R/C_Dist_100_LN_6_LD_12_RN_15_RD_25_1.png","img2/200/Incongruent/L/I_Dist_200_LN_7_LD_10_RN_14_RD_28_0.png","img2/300/Congruent/L/C_Dist_300_LN_4_LD_10_RN_1_RD_10_0.png","img2/200/Incongruent/L/I_Dist_200_LN_4_LD_6_RN_14_RD_30_0.png","img2/100/Incongruent/R/I_Dist_100_LN_12_LD_24_RN_9_RD_15_1.png","img2/300/Congruent/R/C_Dist_300_LN_1_LD_5_RN_11_RD_22_1.png","img2/300/Congruent/L/C_Dist_300_LN_20_LD_25_RN_14_RD_28_0.png","img2/100/Incongruent/R/I_Dist_100_LN_12_LD_30_RN_2_RD_4_1.png","img2/100/Congruent/L/C_Dist_100_LN_6_LD_20_RN_5_RD_25_0.png","img2/200/Incongruent/R/I_Dist_200_LN_6_LD_20_RN_3_RD_6_1.png","img2/300/Congruent/L/C_Dist_300_LN_20_LD_25_RN_13_RD_26_0.png","img2/300/Incongruent/L/I_Dist_300_LN_3_LD_6_RN_4_RD_20_0.png","img2/200/Incongruent/L/I_Dist_200_LN_7_LD_10_RN_12_RD_24_0.png","img2/300/Congruent/R/C_Dist_300_LN_3_LD_12_RN_11_RD_20_1.png","img2/300/Incongruent/R/I_Dist_300_LN_4_LD_20_RN_2_RD_4_1.png","img2/100/Incongruent/L/I_Dist_100_LN_4_LD_8_RN_8_RD_20_0.png","img2/200/Congruent/L/C_Dist_200_LN_16_LD_20_RN_12_RD_20_0.png","img2/200/Incongruent/R/I_Dist_200_LN_4_LD_30_RN_1_RD_3_1.png","img2/300/Incongruent/R/I_Dist_300_LN_4_LD_20_RN_2_RD_4_1.png","img2/200/Incongruent/R/I_Dist_200_LN_14_LD_30_RN_6_RD_9_1.png","img2/100/Congruent/L/C_Dist_100_LN_8_LD_16_RN_2_RD_5_0.png","img2/300/Congruent/R/C_Dist_300_LN_5_LD_25_RN_7_RD_14_1.png","img2/100/Incongruent/R/I_Dist_100_LN_12_LD_30_RN_2_RD_4_1.png","img2/100/Congruent/L/C_Dist_100_LN_11_LD_22_RN_6_RD_15_0.png","img2/100/Congruent/L/C_Dist_100_LN_11_LD_22_RN_4_RD_10_0.png","img2/100/Congruent/R/C_Dist_100_LN_2_LD_5_RN_6_RD_12_1.png","img2/100/Congruent/L/C_Dist_100_LN_10_LD_25_RN_3_RD_10_0.png","img2/200/Incongruent/L/I_Dist_200_LN_7_LD_10_RN_8_RD_16_0.png","img2/100/Incongruent/L/I_Dist_100_LN_3_LD_5_RN_8_RD_16_0.png","img2/300/Incongruent/R/I_Dist_300_LN_4_LD_20_RN_2_RD_4_1.png","img2/300/Incongruent/R/I_Dist_300_LN_13_LD_26_RN_12_RD_15_1.png","img2/300/Congruent/L/C_Dist_300_LN_11_LD_22_RN_2_RD_10_0.png","img2/200/Incongruent/R/I_Dist_200_LN_4_LD_30_RN_1_RD_3_1.png","img2/100/Congruent/L/C_Dist_100_LN_10_LD_25_RN_3_RD_10_0.png","img2/300/Incongruent/L/I_Dist_300_LN_7_LD_10_RN_8_RD_20_0.png","img2/200/Incongruent/L/I_Dist_200_LN_4_LD_5_RN_6_RD_10_0.png","img2/300/Incongruent/L/I_Dist_300_LN_4_LD_5_RN_8_RD_16_0.png","img2/300/Incongruent/R/I_Dist_300_LN_4_LD_20_RN_2_RD_4_1.png","img2/100/Incongruent/R/I_Dist_100_LN_13_LD_26_RN_6_RD_10_1.png","img2/100/Incongruent/R/I_Dist_100_LN_11_LD_22_RN_9_RD_15_1.png","img2/100/Congruent/L/C_Dist_100_LN_10_LD_25_RN_3_RD_10_0.png","img2/200/Congruent/L/C_Dist_200_LN_4_LD_10_RN_3_RD_15_0.png","img2/100/Incongruent/L/I_Dist_100_LN_6_LD_10_RN_7_RD_14_0.png","img2/200/Congruent/L/C_Dist_200_LN_8_LD_15_RN_3_RD_9_0.png","img2/200/Congruent/L/C_Dist_200_LN_16_LD_30_RN_9_RD_27_0.png","img2/200/Congruent/R/C_Dist_200_LN_3_LD_6_RN_14_RD_20_1.png","img2/100/Incongruent/L/I_Dist_100_LN_9_LD_10_RN_20_RD_25_0.png","img2/100/Incongruent/R/I_Dist_100_LN_12_LD_24_RN_9_RD_15_1.png","img2/100/Congruent/L/C_Dist_100_LN_11_LD_22_RN_4_RD_10_0.png","img2/100/Incongruent/L/I_Dist_100_LN_3_LD_9_RN_7_RD_30_0.png","img2/300/Congruent/R/C_Dist_300_LN_1_LD_5_RN_3_RD_6_1.png","img2/100/Congruent/R/C_Dist_100_LN_7_LD_14_RN_15_RD_25_1.png","img2/300/Congruent/R/C_Dist_300_LN_3_LD_6_RN_4_RD_5_1.png","img2/200/Congruent/L/C_Dist_200_LN_12_LD_15_RN_6_RD_10_0.png","img2/200/Incongruent/R/I_Dist_200_LN_9_LD_15_RN_8_RD_10_1.png","img2/200/Incongruent/R/I_Dist_200_LN_14_LD_30_RN_6_RD_9_1.png","img2/200/Congruent/R/C_Dist_200_LN_3_LD_6_RN_14_RD_20_1.png","img2/200/Congruent/R/C_Dist_200_LN_7_LD_15_RN_18_RD_27_1.png","img2/300/Congruent/R/C_Dist_300_LN_2_LD_10_RN_12_RD_24_1.png","img2/100/Congruent/R/C_Dist_100_LN_1_LD_2_RN_3_RD_5_1.png","img2/300/Congruent/R/C_Dist_300_LN_3_LD_12_RN_11_RD_20_1.png","img2/200/Congruent/R/C_Dist_200_LN_13_LD_26_RN_14_RD_20_1.png","img2/300/Congruent/L/C_Dist_300_LN_12_LD_24_RN_2_RD_10_0.png","img2/100/Incongruent/L/I_Dist_100_LN_4_LD_8_RN_8_RD_20_0.png","img2/200/Congruent/R/C_Dist_200_LN_9_LD_30_RN_13_RD_26_1.png","img2/200/Incongruent/R/I_Dist_200_LN_7_LD_15_RN_6_RD_9_1.png","img2/200/Congruent/L/C_Dist_200_LN_12_LD_20_RN_6_RD_15_0.png","img2/200/Congruent/L/C_Dist_200_LN_8_LD_15_RN_3_RD_9_0.png","img2/300/Congruent/L/C_Dist_300_LN_18_LD_20_RN_9_RD_15_0.png","img2/200/Congruent/R/C_Dist_200_LN_7_LD_15_RN_18_RD_27_1.png","img2/300/Incongruent/L/I_Dist_300_LN_8_LD_10_RN_14_RD_28_0.png","img2/300/Incongruent/L/I_Dist_300_LN_7_LD_10_RN_8_RD_20_0.png","img2/100/Incongruent/R/I_Dist_100_LN_10_LD_25_RN_8_RD_16_1.png","img2/200/Incongruent/L/I_Dist_200_LN_7_LD_10_RN_8_RD_16_0.png","img2/200/Incongruent/R/I_Dist_200_LN_11_LD_20_RN_3_RD_4_1.png","img2/200/Congruent/R/C_Dist_200_LN_3_LD_12_RN_9_RD_20_1.png","img2/100/Congruent/L/C_Dist_100_LN_9_LD_15_RN_8_RD_16_0.png","img2/200/Congruent/L/C_Dist_200_LN_21_LD_30_RN_2_RD_4_0.png","img2/300/Congruent/L/C_Dist_300_LN_3_LD_6_RN_2_RD_10_0.png","img2/300/Incongruent/L/I_Dist_300_LN_2_LD_4_RN_6_RD_30_0.png","img2/300/Congruent/R/C_Dist_300_LN_3_LD_6_RN_4_RD_5_1.png","img2/100/Incongruent/L/I_Dist_100_LN_9_LD_10_RN_20_RD_25_0.png","img2/300/Congruent/L/C_Dist_300_LN_20_LD_25_RN_9_RD_18_0.png","img2/100/Congruent/L/C_Dist_100_LN_15_LD_25_RN_13_RD_26_0.png","img2/300/Congruent/R/C_Dist_300_LN_3_LD_12_RN_11_RD_20_1.png","img2/200/Incongruent/L/I_Dist_200_LN_4_LD_5_RN_6_RD_10_0.png","img2/100/Incongruent/R/I_Dist_100_LN_17_LD_30_RN_10_RD_15_1.png"],"dist100_C":[["C_Dist_100_LN_10_LD_25_RN_3_RD_10_0.png","C_Dist_100_LN_11_LD_22_RN_4_RD_10_0.png","C_Dist_100_LN_11_LD_22_RN_6_RD_15_0.png","C_Dist_100_LN_15_LD_25_RN_13_RD_26_0.png","C_Dist_100_LN_3_LD_6_RN_2_RD_5_0.png","C_Dist_100_LN_6_LD_20_RN_5_RD_25_0.png","C_Dist_100_LN_8_LD_16_RN_2_RD_5_0.png","C_Dist_100_LN_9_LD_15_RN_8_RD_16_0.png"],["C_Dist_100_LN_1_LD_2_RN_18_RD_30_1.png","C_Dist_100_LN_1_LD_2_RN_3_RD_5_1.png","C_Dist_100_LN_12_LD_30_RN_13_RD_26_1.png","C_Dist_100_LN_2_LD_5_RN_11_RD_22_1.png","C_Dist_100_LN_2_LD_5_RN_6_RD_12_1.png","C_Dist_100_LN_3_LD_20_RN_4_RD_16_1.png","C_Dist_100_LN_4_LD_10_RN_15_RD_30_1.png","C_Dist_100_LN_4_LD_8_RN_6_RD_10_1.png","C_Dist_100_LN_6_LD_12_RN_15_RD_25_1.png","C_Dist_100_LN_7_LD_14_RN_15_RD_25_1.png","C_Dist_100_LN_7_LD_14_RN_9_RD_15_1.png"]],"dist100_I":[["I_Dist_100_LN_1_LD_2_RN_8_RD_20_0.png","I_Dist_100_LN_2_LD_4_RN_6_RD_15_0.png","I_Dist_100_LN_2_LD_4_RN_8_RD_20_0.png","I_Dist_100_LN_3_LD_5_RN_11_RD_22_0.png","I_Dist_100_LN_3_LD_5_RN_8_RD_16_0.png","I_Dist_100_LN_3_LD_6_RN_4_RD_10_0.png","I_Dist_100_LN_3_LD_9_RN_7_RD_30_0.png","I_Dist_100_LN_4_LD_8_RN_8_RD_20_0.png","I_Dist_100_LN_6_LD_10_RN_11_RD_22_0.png","I_Dist_100_LN_6_LD_10_RN_13_RD_26_0.png","I_Dist_100_LN_6_LD_10_RN_7_RD_14_0.png","I_Dist_100_LN_9_LD_10_RN_20_RD_25_0.png","I_Dist_100_LN_9_LD_15_RN_13_RD_26_0.png","I_Dist_100_LN_9_LD_15_RN_14_RD_28_0.png"],["I_Dist_100_LN_10_LD_25_RN_8_RD_16_1.png","I_Dist_100_LN_10_LD_25_RN_9_RD_18_1.png","I_Dist_100_LN_11_LD_22_RN_9_RD_15_1.png","I_Dist_100_LN_12_LD_24_RN_9_RD_15_1.png","I_Dist_100_LN_12_LD_30_RN_2_RD_4_1.png","I_Dist_100_LN_13_LD_26_RN_12_RD_20_1.png","I_Dist_100_LN_13_LD_26_RN_6_RD_10_1.png","I_Dist_100_LN_17_LD_30_RN_10_RD_15_1.png","I_Dist_100_LN_6_LD_12_RN_3_RD_5_1.png","I_Dist_100_LN_8_LD_16_RN_6_RD_10_1.png","I_Dist_100_LN_8_LD_20_RN_1_RD_2_1.png","I_Dist_100_LN_9_LD_18_RN_6_RD_10_1.png"]],"dist100_S":[["E_Dist_100_LN_2_LD_12_RN_2_RD_30_0.png","E_Dist_100_LN_6_LD_10_RN_6_RD_12_0.png"],["E_Dist_100_LN_6_LD_12_RN_6_RD_10_1.png"]],"dist200_C":[["C_Dist_200_LN_11_LD_22_RN_3_RD_10_0.png","C_Dist_200_LN_12_LD_15_RN_6_RD_10_0.png","C_Dist_200_LN_12_LD_20_RN_6_RD_15_0.png","C_Dist_200_LN_14_LD_28_RN_6_RD_20_0.png","C_Dist_200_LN_15_LD_25_RN_4_RD_10_0.png","C_Dist_200_LN_16_LD_20_RN_12_RD_20_0.png","C_Dist_200_LN_16_LD_30_RN_9_RD_27_0.png","C_Dist_200_LN_20_LD_25_RN_9_RD_15_0.png","C_Dist_200_LN_21_LD_30_RN_2_RD_4_0.png","C_Dist_200_LN_4_LD_10_RN_3_RD_15_0.png","C_Dist_200_LN_4_LD_8_RN_3_RD_10_0.png","C_Dist_200_LN_6_LD_15_RN_3_RD_15_0.png","C_Dist_200_LN_7_LD_21_RN_2_RD_15_0.png","C_Dist_200_LN_8_LD_15_RN_2_RD_6_0.png","C_Dist_200_LN_8_LD_15_RN_3_RD_9_0.png","C_Dist_200_LN_8_LD_15_RN_7_RD_21_0.png","C_Dist_200_LN_9_LD_20_RN_4_RD_16_0.png"],["C_Dist_200_LN_1_LD_2_RN_21_RD_30_1.png","C_Dist_200_LN_13_LD_26_RN_14_RD_20_1.png","C_Dist_200_LN_3_LD_10_RN_11_RD_22_1.png","C_Dist_200_LN_3_LD_10_RN_14_RD_28_1.png","C_Dist_200_LN_3_LD_10_RN_7_RD_14_1.png","C_Dist_200_LN_3_LD_12_RN_9_RD_20_1.png","C_Dist_200_LN_3_LD_6_RN_14_RD_20_1.png","C_Dist_200_LN_5_LD_10_RN_14_RD_20_1.png","C_Dist_200_LN_6_LD_12_RN_7_RD_10_1.png","C_Dist_200_LN_6_LD_20_RN_11_RD_22_1.png","C_Dist_200_LN_7_LD_15_RN_18_RD_27_1.png","C_Dist_200_LN_9_LD_30_RN_13_RD_26_1.png"]],"dist200_I":[["I_Dist_200_LN_1_LD_2_RN_3_RD_10_0.png","I_Dist_200_LN_1_LD_3_RN_2_RD_15_0.png","I_Dist_200_LN_3_LD_4_RN_11_RD_20_0.png","I_Dist_200_LN_4_LD_5_RN_6_RD_10_0.png","I_Dist_200_LN_4_LD_6_RN_14_RD_30_0.png","I_Dist_200_LN_7_LD_10_RN_12_RD_24_0.png","I_Dist_200_LN_7_LD_10_RN_14_RD_28_0.png","I_Dist_200_LN_7_LD_10_RN_8_RD_16_0.png"],["I_Dist_200_LN_11_LD_20_RN_3_RD_4_1.png","I_Dist_200_LN_14_LD_30_RN_12_RD_18_1.png","I_Dist_200_LN_14_LD_30_RN_6_RD_9_1.png","I_Dist_200_LN_3_LD_10_RN_1_RD_2_1.png","I_Dist_200_LN_4_LD_30_RN_1_RD_3_1.png","I_Dist_200_LN_6_LD_20_RN_3_RD_6_1.png","I_Dist_200_LN_7_LD_15_RN_4_RD_6_1.png","I_Dist_200_LN_7_LD_15_RN_6_RD_9_1.png","I_Dist_200_LN_9_LD_15_RN_8_RD_10_1.png"]],"dist200_S":[["E_Dist_200_LN_3_LD_6_RN_3_RD_10_0.png"],["E_Dist_200_LN_3_LD_10_RN_3_RD_6_1.png"]],"dist300_C":[["C_Dist_300_LN_11_LD_22_RN_1_RD_5_0.png","C_Dist_300_LN_11_LD_22_RN_2_RD_10_0.png","C_Dist_300_LN_11_LD_22_RN_4_RD_20_0.png","C_Dist_300_LN_12_LD_24_RN_2_RD_10_0.png","C_Dist_300_LN_18_LD_20_RN_9_RD_15_0.png","C_Dist_300_LN_20_LD_25_RN_13_RD_26_0.png","C_Dist_300_LN_20_LD_25_RN_14_RD_28_0.png","C_Dist_300_LN_20_LD_25_RN_5_RD_10_0.png","C_Dist_300_LN_20_LD_25_RN_8_RD_16_0.png","C_Dist_300_LN_20_LD_25_RN_9_RD_18_0.png","C_Dist_300_LN_24_LD_30_RN_2_RD_4_0.png","C_Dist_300_LN_24_LD_30_RN_8_RD_16_0.png","C_Dist_300_LN_3_LD_6_RN_2_RD_10_0.png","C_Dist_300_LN_4_LD_10_RN_1_RD_10_0.png","C_Dist_300_LN_4_LD_5_RN_2_RD_4_0.png","C_Dist_300_LN_8_LD_16_RN_1_RD_5_0.png","C_Dist_300_LN_9_LD_10_RN_3_RD_5_0.png"],["C_Dist_300_LN_1_LD_20_RN_7_RD_20_1.png","C_Dist_300_LN_1_LD_3_RN_19_RD_30_1.png","C_Dist_300_LN_1_LD_30_RN_8_RD_24_1.png","C_Dist_300_LN_1_LD_5_RN_11_RD_22_1.png","C_Dist_300_LN_1_LD_5_RN_3_RD_6_1.png","C_Dist_300_LN_1_LD_5_RN_6_RD_12_1.png","C_Dist_300_LN_2_LD_10_RN_12_RD_24_1.png","C_Dist_300_LN_2_LD_20_RN_10_RD_25_1.png","C_Dist_300_LN_3_LD_12_RN_11_RD_20_1.png","C_Dist_300_LN_3_LD_6_RN_4_RD_5_1.png","C_Dist_300_LN_4_LD_20_RN_13_RD_26_1.png","C_Dist_300_LN_5_LD_25_RN_6_RD_12_1.png","C_Dist_300_LN_5_LD_25_RN_7_RD_14_1.png","C_Dist_300_LN_7_LD_14_RN_20_RD_25_1.png","C_Dist_300_LN_8_LD_15_RN_10_RD_12_1.png"]],"dist300_I":[["I_Dist_300_LN_1_LD_2_RN_2_RD_10_0.png","I_Dist_300_LN_1_LD_2_RN_3_RD_15_0.png","I_Dist_300_LN_2_LD_4_RN_6_RD_30_0.png","I_Dist_300_LN_3_LD_6_RN_4_RD_20_0.png","I_Dist_300_LN_4_LD_5_RN_6_RD_12_0.png","I_Dist_300_LN_4_LD_5_RN_8_RD_16_0.png","I_Dist_300_LN_7_LD_10_RN_8_RD_20_0.png","I_Dist_300_LN_8_LD_10_RN_14_RD_28_0.png","I_Dist_300_LN_8_LD_10_RN_9_RD_18_0.png"],["I_Dist_300_LN_13_LD_26_RN_12_RD_15_1.png","I_Dist_300_LN_4_LD_20_RN_2_RD_4_1.png"]],"dist300_S":[["E_Dist_300_LN_9_LD_12_RN_9_RD_20_0.png"],["E_Dist_300_LN_18_LD_30_RN_18_RD_20_1.png","E_Dist_300_LN_3_LD_10_RN_3_RD_5_1.png","E_Dist_300_LN_9_LD_20_RN_9_RD_12_1.png"]],"dist500_C":[["C_Dist_500_LN_10_LD_13_RN_7_RD_26_0.png","C_Dist_500_LN_10_LD_15_RN_4_RD_24_0.png","C_Dist_500_LN_12_LD_16_RN_3_RD_12_0.png","C_Dist_500_LN_12_LD_18_RN_4_RD_24_0.png","C_Dist_500_LN_15_LD_18_RN_5_RD_15_0.png","C_Dist_500_LN_15_LD_20_RN_1_RD_4_0.png","C_Dist_500_LN_18_LD_27_RN_1_RD_6_0.png","C_Dist_500_LN_20_LD_24_RN_1_RD_3_0.png","C_Dist_500_LN_20_LD_24_RN_3_RD_9_0.png","C_Dist_500_LN_20_LD_24_RN_7_RD_21_0.png","C_Dist_500_LN_20_LD_28_RN_3_RD_14_0.png","C_Dist_500_LN_21_LD_28_RN_6_RD_24_0.png","C_Dist_500_LN_22_LD_28_RN_2_RD_7_0.png","C_Dist_500_LN_25_LD_30_RN_9_RD_27_0.png","C_Dist_500_LN_4_LD_6_RN_1_RD_6_0.png","C_Dist_500_LN_5_LD_6_RN_2_RD_6_0.png","C_Dist_500_LN_6_LD_9_RN_1_RD_6_0.png","C_Dist_500_LN_7_LD_10_RN_1_RD_5_0.png","C_Dist_500_LN_8_LD_12_RN_1_RD_6_0.png","C_Dist_500_LN_8_LD_12_RN_4_RD_24_0.png"],["C_Dist_500_LN_1_LD_4_RN_12_RD_16_1.png","C_Dist_500_LN_1_LD_4_RN_9_RD_12_1.png","C_Dist_500_LN_1_LD_9_RN_11_RD_18_1.png","C_Dist_500_LN_10_LD_24_RN_22_RD_24_1.png","C_Dist_500_LN_2_LD_12_RN_10_RD_15_1.png","C_Dist_500_LN_2_LD_12_RN_12_RD_18_1.png","C_Dist_500_LN_2_LD_12_RN_4_RD_6_1.png","C_Dist_500_LN_2_LD_24_RN_7_RD_12_1.png","C_Dist_500_LN_2_LD_5_RN_18_RD_20_1.png","C_Dist_500_LN_2_LD_5_RN_9_RD_10_1.png","C_Dist_500_LN_2_LD_8_RN_12_RD_16_1.png","C_Dist_500_LN_2_LD_8_RN_21_RD_28_1.png","C_Dist_500_LN_3_LD_10_RN_4_RD_5_1.png","C_Dist_500_LN_3_LD_12_RN_15_RD_20_1.png","C_Dist_500_LN_3_LD_30_RN_6_RD_10_1.png","C_Dist_500_LN_3_LD_8_RN_14_RD_16_1.png","C_Dist_500_LN_4_LD_16_RN_15_RD_20_1.png","C_Dist_500_LN_4_LD_24_RN_12_RD_18_1.png","C_Dist_500_LN_5_LD_14_RN_6_RD_7_1.png","C_Dist_500_LN_7_LD_21_RN_20_RD_24_1.png","C_Dist_500_LN_7_LD_28_RN_12_RD_16_1.png","C_Dist_500_LN_7_LD_28_RN_9_RD_12_1.png","C_Dist_500_LN_9_LD_27_RN_20_RD_24_1.png"]],"dist500_I":[["I_Dist_500_LN_2_LD_3_RN_4_RD_24_0.png","I_Dist_500_LN_5_LD_6_RN_6_RD_18_0.png","I_Dist_500_LN_7_LD_8_RN_9_RD_24_0.png"],["I_Dist_500_LN_7_LD_21_RN_5_RD_6_1.png"]],"dist500_S":[["E_Dist_500_LN_6_LD_8_RN_6_RD_24_0.png"],["E_Dist_500_LN_2_LD_12_RN_2_RD_3_1.png","E_Dist_500_LN_6_LD_24_RN_6_RD_8_1.png"]]}},{"start_time":1552308663907,"click_time":1552308665073,"finger_time":1552308664492,"fix_duration":833.2044251418222,"trial":1,"RT":585,"MT":581,"sideResp":2,"stimulus":[],"xmouse":[773,773,773,773,773,773,773,773,773,773,773,773,773,772,772,772,772,772,772,772,772,772,772,772,773,776,804,839,894,968,1063,1265,1326,1369,1378,1381,1381,1381,1381,1381,1381,1380,1377,1364,1351,1337,1305,1292,1272,1244,1215,1162,1139,1113,1110,1109,1109,1109],"ymouse":[605,605,605,605,605,605,605,605,605,605,605,605,605,605,605,605,605,605,605,605,605,605,605,605,605,605,595,579,551,510,447,312,264,228,218,213,213,213,213,212,208,193,183,162,150,140,126,125,125,125,125,125,125,122,121,120,107,99],"timestamp_mouse":[10,26,45,86,106,125,144,166,186,205,226,246,265,285,304,324,346,366,386,405,425,445,465,485,505,524,545,565,585,604,625,645,665,684,705,724,744,765,784,804,826,845,865,884,905,925,944,964,985,1005,1025,1044,1064,1084,1105,1124,1144,1165],"xSR":741.5,"ySR":573.95,"xT1":424.9,"yT1":0,"xT2":1058.1,"yT2":0,"toosoon":0,"cond_shown":"Incongruent","ratio_trial":300,"L_num":1,"L_den":2,"R_num":2,"R_den":10,"correct_side":1,"subjID":"Juan Pablo Garcia Gaitan26","gender":"0","school":"4","age":"9"},{"start_time":1552308672643,"click_time":1552308675591,"finger_time":1552308674951,"fix_duration":250,"trial":2,"RT":2308,"MT":640,"sideResp":2,"stimulus":[],"xmouse":[760,760,760,760,760,761,764,765,765,766,770,775,785,792,793,787,784,782,782,782,782,782,782,782,782,782,782,782,782,782,782,782,782,782,782,782,782,782,782,782,782,782,782,782,782,782,782,782,782,782,782,782,782,782,782,782,782,782,782,782,782,782,782,782,782,782,782,782,782,782,782,782,782,782,782,782,782,782,782,782,782,782,782,782,782,782,782,782,782,782,782,782,782,782,782,782,782,782,782,782,782,782,782,782,782,782,782,782,782,782,782,782,782,782,789,797,797,797,797,797,797,797,797,797,797,797,797,797,797,797,798,813,857,889,902,929,951,983,1004,1019,1034,1035,1035,1038,1049,1053,1057,1063],"ymouse":[632,632,632,632,632,630,627,626,625,625,624,624,623,623,623,623,623,623,623,623,623,623,623,623,623,623,623,623,623,623,623,623,623,623,623,623,623,623,623,623,623,623,623,623,623,623,623,623,623,623,623,623,623,623,623,623,623,623,623,623,623,623,623,623,623,623,623,623,623,623,623,623,623,623,623,623,623,623,623,623,623,623,623,623,623,623,623,623,623,623,623,623,623,623,623,623,623,623,623,623,623,623,623,623,623,623,623,623,623,623,623,623,623,617,591,570,570,570,570,570,570,570,570,570,570,570,570,529,378,251,157,133,111,102,96,85,79,73,70,68,66,66,66,66,66,66,66,66],"timestamp_mouse":[9,30,51,69,89,108,129,149,169,188,209,228,250,269,290,308,329,350,370,389,410,429,449,469,489,509,528,554,568,590,608,629,648,669,690,709,728,750,770,789,809,829,850,869,888,909,929,950,969,989,1009,1029,1048,1069,1089,1109,1129,1149,1169,1190,1210,1229,1250,1269,1290,1310,1329,1349,1368,1389,1409,1429,1449,1469,1490,1509,1528,1548,1570,1590,1608,1630,1649,1669,1689,1710,1729,1748,1769,1790,1809,1829,1848,1868,1890,1909,1930,1949,1969,1988,2009,2030,2050,2070,2089,2108,2129,2150,2170,2189,2209,2228,2250,2269,2290,2308,2329,2349,2369,2389,2409,2430,2449,2469,2488,2509,2528,2548,2569,2588,2608,2629,2649,2669,2689,2709,2729,2748,2768,2788,2808,2830,2849,2869,2890,2909,2929,2948],"xSR":741.5,"ySR":573.95,"xT1":424.9,"yT1":0,"xT2":1058.1,"yT2":0,"toosoon":0,"cond_shown":"Congruent","ratio_trial":100,"L_num":12,"L_den":30,"R_num":13,"R_den":26,"correct_side":2,"subjID":"Juan Pablo Garcia Gaitan26","gender":"0","school":"4","age":"9"},{"start_time":1552308680842,"click_time":1552308683233,"finger_time":1552308682652,"fix_duration":1048.2241528124669,"trial":3,"RT":1810,"MT":581,"sideResp":1,"stimulus":[],"xmouse":[774,774,774,774,774,774,774,774,774,774,774,774,774,774,774,774,774,774,774,774,774,774,774,774,774,774,774,774,774,774,774,774,774,774,774,774,774,774,774,774,774,774,774,774,774,774,774,774,774,774,774,774,774,774,774,774,774,774,774,774,774,774,774,774,774,774,774,774,774,774,774,774,774,774,774,774,774,774,774,774,774,774,774,774,774,774,774,774,773,789,913,961,973,981,991,1002,1002,1004,996,979,956,945,938,938,938,942,946,950,951,944,885,764,675,595,561,555,552,542,528,515],"ymouse":[646,646,646,646,646,646,646,646,646,646,646,646,646,646,646,646,646,646,646,646,646,646,646,646,646,646,646,646,646,646,646,646,646,646,646,646,646,646,646,646,646,646,646,646,646,646,646,646,646,646,646,646,646,646,646,646,646,646,646,646,646,646,646,646,646,646,646,646,646,646,646,646,646,646,646,646,646,646,646,646,646,646,646,646,646,646,646,646,645,637,581,526,480,436,393,285,273,234,212,191,161,152,148,148,147,145,142,129,112,88,16,0,0,0,0,1,8,19,29,37],"timestamp_mouse":[9,29,49,75,90,110,131,150,171,191,211,229,250,271,291,310,330,349,370,389,409,430,451,470,491,511,530,550,570,590,610,630,649,669,691,711,730,751,769,789,810,830,851,870,891,911,929,949,969,990,1010,1030,1050,1070,1089,1111,1131,1150,1170,1189,1211,1229,1251,1270,1290,1310,1329,1349,1370,1391,1410,1430,1449,1470,1490,1510,1531,1551,1571,1589,1610,1630,1651,1671,1690,1709,1731,1750,1770,1789,1810,1830,1851,1870,1890,1909,1930,1949,1971,1989,2009,2029,2050,2070,2091,2110,2129,2150,2169,2189,2210,2229,2249,2269,2289,2311,2329,2349,2370,2390],"xSR":741.5,"ySR":573.95,"xT1":424.9,"yT1":0,"xT2":1058.1,"yT2":0,"toosoon":0,"cond_shown":"Congruent","ratio_trial":100,"L_num":11,"L_den":22,"R_num":4,"R_den":10,"correct_side":1,"subjID":"Juan Pablo Garcia Gaitan26","gender":"0","school":"4","age":"9"},{"start_time":1552308685798,"click_time":1552308688234,"finger_time":1552308687351,"fix_duration":565.8574411829715,"trial":4,"RT":1553,"MT":883,"sideResp":2,"stimulus":[],"xmouse":[789,789,789,789,789,789,789,789,789,789,789,789,789,789,789,789,789,789,789,789,789,789,789,789,789,789,789,789,789,789,789,789,789,789,789,789,789,789,789,789,789,789,789,789,789,789,789,789,789,789,789,789,789,789,789,789,789,789,789,789,789,789,789,789,789,789,789,789,789,789,789,790,818,835,836,837,839,842,843,843,843,843,843,843,843,843,843,847,911,1089,1322,1529,1529,1529,1529,1529,1529,1529,1529,1529,1529,1529,1577,1567,1555,1540,1523,1474,1449,1421,1397,1369,1333,1325,1319,1310,1298,1263,1239,1192,1163,1137],"ymouse":[648,648,648,648,648,648,648,648,648,648,648,648,648,648,648,648,648,648,648,648,648,648,648,648,648,648,648,648,648,648,648,648,648,648,648,648,648,648,648,648,648,648,648,648,648,648,648,648,648,648,648,648,648,648,648,648,648,648,648,648,648,648,648,648,648,648,648,648,648,648,648,648,637,629,629,628,626,611,611,610,610,610,610,610,610,610,610,609,575,487,403,351,351,351,351,351,351,351,351,351,351,351,0,0,0,0,0,0,0,0,0,0,0,0,0,1,7,19,27,34,38,42],"timestamp_mouse":[14,33,55,74,94,115,133,153,175,193,213,235,253,273,295,313,334,354,374,395,413,435,453,473,493,515,533,555,574,593,615,633,655,674,693,715,734,754,773,795,815,835,854,873,894,915,933,955,974,995,1014,1033,1054,1075,1095,1114,1135,1154,1174,1195,1213,1235,1254,1274,1295,1315,1335,1354,1374,1394,1413,1434,1453,1473,1494,1514,1534,1553,1575,1594,1613,1633,1655,1674,1694,1713,1734,1753,1773,1793,1814,1834,1855,1873,1893,1914,1935,1953,1973,1995,2013,2033,2056,2074,2094,2115,2134,2154,2173,2194,2214,2234,2254,2275,2294,2314,2334,2353,2374,2393,2414,2435],"xSR":741.5,"ySR":573.95,"xT1":424.9,"yT1":0,"xT2":1058.1,"yT2":0,"toosoon":0,"cond_shown":"Congruent","ratio_trial":200,"L_num":3,"L_den":10,"R_num":11,"R_den":22,"correct_side":2,"subjID":"Juan Pablo Garcia Gaitan26","gender":"0","school":"4","age":"9"},{"start_time":1552308692542,"click_time":1552308694252,"finger_time":1552308693671,"fix_duration":987.9077940594493,"trial":5,"RT":1129,"MT":581,"sideResp":1,"stimulus":[],"xmouse":[817,817,817,817,817,817,817,817,817,817,817,817,817,817,817,817,817,817,817,817,817,817,817,817,817,817,817,817,817,817,817,817,817,817,817,817,817,817,817,817,817,817,817,817,817,817,817,817,817,817,817,817,817,817,817,817,847,892,894,871,832,821,821,821,821,766,745,728,707,694,688,688,688,688,685,679,679,679,679,679,676,673,658,599,529,438],"ymouse":[638,638,638,638,638,638,638,638,638,638,638,638,638,638,638,638,638,638,638,638,638,638,638,638,638,638,638,638,638,638,638,638,638,638,638,638,638,638,638,638,638,638,638,638,638,638,638,638,638,638,638,638,638,638,638,638,565,425,286,177,3,0,0,0,0,0,0,0,0,0,0,0,0,0,2,10,11,11,11,11,12,12,12,12,23,41],"timestamp_mouse":[10,45,51,69,90,111,130,151,171,191,210,230,251,270,290,309,331,349,371,391,410,430,449,469,491,511,530,549,570,591,611,630,650,669,690,710,729,750,770,790,811,830,849,869,889,911,931,951,970,990,1009,1029,1051,1070,1091,1111,1129,1149,1169,1190,1210,1230,1250,1270,1289,1310,1330,1351,1371,1391,1411,1431,1450,1471,1491,1509,1530,1550,1569,1590,1611,1630,1650,1670,1691,1710],"xSR":741.5,"ySR":573.95,"xT1":424.9,"yT1":0,"xT2":1058.1,"yT2":0,"toosoon":0,"cond_shown":"Congruent","ratio_trial":300,"L_num":4,"L_den":20,"R_num":13,"R_den":26,"correct_side":2,"subjID":"Juan Pablo Garcia Gaitan26","gender":"0","school":"4","age":"9"},{"start_time":1552308696257,"click_time":1552308697591,"finger_time":1552308697091,"fix_duration":743.9438951789336,"trial":6,"RT":834,"MT":500,"sideResp":2,"stimulus":[],"xmouse":[809,809,809,809,809,809,809,809,809,809,809,809,809,809,809,809,809,809,809,809,809,809,809,809,809,809,809,809,809,809,809,809,809,809,809,809,809,814,821,835,841,857,875,902,1016,1036,1087,1118,1147,1188,1202,1212,1221,1225,1229,1229,1229,1229,1229,1229,1229,1229,1226,1218,1182,1159,1148],"ymouse":[634,634,634,634,634,634,634,634,634,634,634,634,634,634,634,634,634,634,634,634,634,634,634,634,634,634,634,634,634,634,634,634,634,634,634,631,630,624,615,594,582,565,543,520,435,418,357,315,274,200,168,135,104,78,43,33,28,27,27,27,27,27,27,27,27,27,27],"timestamp_mouse":[15,36,55,75,95,115,136,155,175,195,214,236,256,276,294,314,334,354,376,396,416,435,455,475,496,515,534,554,576,596,615,635,654,675,696,714,734,755,774,795,814,834,854,874,894,915,935,955,974,994,1014,1035,1054,1074,1094,1115,1134,1154,1175,1195,1215,1236,1256,1275,1294,1314,1334],"xSR":741.5,"ySR":573.95,"xT1":424.9,"yT1":0,"xT2":1058.1,"yT2":0,"toosoon":0,"cond_shown":"Incongruent","ratio_trial":300,"L_num":1,"L_den":2,"R_num":3,"R_den":15,"correct_side":1,"subjID":"Juan Pablo Garcia Gaitan26","gender":"0","school":"4","age":"9"},{"start_time":1552308699666,"click_time":1552308702191,"finger_time":1552308701573,"fix_duration":611.5850941656022,"trial":7,"RT":1907,"MT":618,"sideResp":1,"stimulus":[],"xmouse":[811,811,811,811,811,811,811,811,811,811,811,811,811,811,811,811,811,811,811,811,811,811,811,811,811,811,811,811,811,811,811,811,811,811,811,811,811,811,811,811,811,811,811,811,811,811,811,811,811,811,811,811,811,811,811,811,811,811,811,811,811,811,811,811,811,811,811,811,811,811,811,811,811,811,811,811,811,811,811,811,811,811,811,811,811,811,811,811,811,811,811,811,810,809,802,798,793,790,789,771,763,759,749,741,720,707,687,672,660,643,634,628,624,613,601,592,581,570,560,548,546,543,542,539,533,530,520],"ymouse":[615,615,615,615,615,615,615,615,615,615,615,615,615,615,615,615,615,615,615,615,615,615,615,615,615,615,615,615,615,615,615,615,615,615,615,615,615,615,615,615,615,615,615,615,615,615,615,615,615,615,615,615,615,615,615,615,615,615,615,615,615,615,615,615,615,615,615,615,615,615,615,615,615,615,615,615,615,615,615,615,615,615,615,615,615,615,615,615,615,615,615,614,614,610,587,561,529,473,397,237,191,162,131,104,40,8,0,0,0,0,0,0,0,0,8,15,24,32,39,48,49,51,51,51,52,53,57],"timestamp_mouse":[9,41,47,66,86,106,127,145,167,185,207,227,247,267,285,305,326,347,367,386,406,427,447,467,486,506,527,546,566,587,607,626,646,666,686,705,725,747,766,785,805,827,847,866,886,905,926,947,967,987,1006,1026,1045,1067,1087,1107,1126,1146,1167,1186,1206,1226,1246,1267,1287,1306,1326,1346,1366,1386,1407,1425,1446,1467,1486,1506,1525,1547,1565,1585,1607,1627,1646,1665,1686,1707,1727,1746,1767,1785,1807,1826,1845,1865,1885,1907,1926,1946,1966,1986,2007,2026,2045,2067,2086,2105,2126,2147,2166,2187,2204,2224,2246,2266,2285,2304,2324,2345,2365,2385,2404,2424,2445,2464,2485,2504,2524],"xSR":741.5,"ySR":573.95,"xT1":424.9,"yT1":0,"xT2":1058.1,"yT2":0,"toosoon":0,"cond_shown":"Incongruent","ratio_trial":300,"L_num":8,"L_den":10,"R_num":14,"R_den":28,"correct_side":1,"subjID":"Juan Pablo Garcia Gaitan26","gender":"0","school":"4","age":"9"},{"start_time":1552308706571,"click_time":1552308709151,"finger_time":1552308708350,"fix_duration":1477.3387955103021,"trial":8,"RT":1779,"MT":801,"sideResp":1,"stimulus":[],"xmouse":[803,803,803,803,803,803,803,803,803,803,803,803,803,803,803,803,803,803,803,803,803,803,803,803,803,803,803,803,803,803,803,803,803,803,803,803,803,803,803,803,803,803,803,803,803,803,803,803,803,803,803,803,803,803,803,803,803,803,803,803,803,803,803,803,803,803,803,803,803,803,803,803,803,803,803,803,803,803,803,803,803,803,803,803,803,803,803,803,803,857,860,856,852,842,816,813,808,794,774,737,729,728,725,720,695,679,663,648,634,600,572,549,524,497,455,437,423,411,405,403,403,403,403,403,405,408,410,412,415,427],"ymouse":[593,593,593,593,593,593,593,593,593,593,593,593,593,593,593,593,593,593,593,593,593,593,593,593,593,593,593,593,593,593,593,593,593,593,593,593,593,593,593,593,593,593,593,593,593,593,593,593,593,593,593,593,593,593,593,593,593,593,593,593,593,593,593,593,593,593,593,593,593,593,593,593,593,593,593,593,593,593,593,593,593,593,593,593,593,593,593,593,591,489,443,433,420,387,290,261,229,192,164,128,122,119,112,104,81,69,56,44,33,17,7,0,0,0,0,0,0,5,9,15,16,16,16,16,17,17,17,17,18,23],"timestamp_mouse":[2,20,49,59,80,99,120,140,160,180,201,220,239,260,280,299,320,340,360,380,399,420,439,459,480,499,520,540,559,579,599,619,640,660,681,699,720,739,761,780,800,820,839,859,879,899,920,939,960,979,1000,1019,1040,1061,1079,1101,1120,1139,1160,1179,1201,1220,1240,1259,1280,1299,1320,1339,1361,1380,1400,1419,1440,1461,1480,1500,1520,1541,1559,1580,1601,1620,1640,1659,1680,1701,1720,1740,1760,1779,1799,1819,1839,1860,1879,1900,1919,1939,1960,1979,2000,2020,2040,2060,2079,2099,2119,2139,2160,2179,2200,2220,2240,2260,2280,2301,2319,2341,2360,2380,2399,2419,2440,2460,2480,2499,2520,2541,2560,2580],"xSR":741.5,"ySR":573.95,"xT1":424.9,"yT1":0,"xT2":1058.1,"yT2":0,"toosoon":0,"cond_shown":"Incongruent","ratio_trial":300,"L_num":13,"L_den":26,"R_num":12,"R_den":15,"correct_side":2,"subjID":"Juan Pablo Garcia Gaitan26","gender":"0","school":"4","age":"9"},{"start_time":1552308712056,"click_time":1552308714292,"finger_time":1552308713210,"fix_duration":745.9304273640911,"trial":9,"RT":1154,"MT":1082,"sideResp":1,"stimulus":[],"xmouse":[799,799,799,799,799,799,799,799,799,799,799,799,799,799,799,799,799,799,799,799,799,799,799,799,799,799,799,799,799,799,799,799,799,799,799,799,799,799,799,799,799,799,799,799,799,799,799,799,799,799,799,799,799,799,799,798,804,864,931,990,1004,1014,1017,1017,1017,1017,1010,980,952,913,885,837,765,676,466,403,359,335,322,315,315,315,313,312,307,307,307,307,307,309,314,320,332,345,372,386,397,398,398,398,398,398,398,398,398,398,399,402,404,419,436,457],"ymouse":[630,630,630,630,630,630,630,630,630,630,630,630,630,630,630,630,630,630,630,630,630,630,630,630,630,630,630,630,630,630,630,630,630,630,630,630,630,630,630,630,630,630,630,630,630,630,630,630,630,630,630,630,630,630,630,629,618,523,408,305,280,266,264,264,264,264,264,263,259,235,208,166,111,50,0,0,0,0,0,0,0,0,0,1,4,4,4,4,7,15,24,35,50,66,91,101,108,108,108,108,108,108,108,108,108,108,108,108,108,104,100,94],"timestamp_mouse":[15,43,55,74,95,115,134,154,174,195,215,235,254,275,294,315,334,354,374,395,414,435,455,476,495,514,534,554,575,595,614,634,656,675,695,714,736,755,774,795,814,834,855,875,896,914,934,955,974,994,1014,1035,1055,1075,1095,1115,1134,1154,1174,1194,1215,1236,1254,1274,1295,1315,1334,1354,1374,1394,1415,1435,1454,1474,1495,1515,1534,1555,1574,1594,1614,1634,1655,1674,1695,1715,1735,1755,1775,1795,1814,1835,1856,1875,1894,1914,1934,1955,1974,1994,2015,2034,2055,2075,2095,2114,2134,2155,2175,2194,2215,2236],"xSR":741.5,"ySR":573.95,"xT1":424.9,"yT1":0,"xT2":1058.1,"yT2":0,"toosoon":0,"cond_shown":"Incongruent","ratio_trial":300,"L_num":4,"L_den":20,"R_num":2,"R_den":4,"correct_side":2,"subjID":"Juan Pablo Garcia Gaitan26","gender":"0","school":"4","age":"9"},{"start_time":1552308717038,"click_time":1552308719311,"finger_time":1552308718731,"fix_duration":406.7353201236873,"trial":10,"RT":1693,"MT":580,"sideResp":1,"stimulus":[],"xmouse":[786,786,786,786,786,786,786,786,786,786,786,786,786,786,786,786,786,786,786,786,786,786,786,786,786,786,786,786,786,786,786,786,786,786,786,786,786,786,786,786,786,786,786,786,786,786,786,786,786,786,786,786,786,786,786,786,786,786,786,786,786,786,786,786,786,786,786,786,786,786,786,786,786,786,786,786,786,786,786,786,786,793,806,835,855,878,881,881,868,843,770,719,678,643,625,596,581,570,559,551,542,537,536,535,535,531,523,518,512,507,497,490,483,471],"ymouse":[605,605,605,605,605,605,605,605,605,605,605,605,605,605,605,605,605,605,605,605,605,605,605,605,605,605,605,605,605,605,605,605,605,605,605,605,605,605,605,605,605,605,605,605,605,605,605,605,605,605,605,605,605,605,605,605,605,605,605,605,605,605,605,605,605,605,605,605,605,605,605,605,605,605,605,605,605,605,605,605,605,608,609,610,602,563,540,513,465,418,302,236,185,141,117,80,62,49,36,25,12,4,1,0,0,0,0,0,0,0,0,0,0,1],"timestamp_mouse":[24,45,52,72,93,113,132,153,173,193,213,232,252,272,292,312,332,352,373,394,412,432,453,473,493,512,534,552,573,594,613,633,653,672,692,713,732,753,772,792,814,832,853,872,893,914,932,952,973,992,1012,1032,1053,1072,1093,1112,1133,1152,1173,1193,1213,1233,1253,1273,1293,1312,1334,1353,1373,1392,1412,1432,1454,1472,1493,1514,1533,1552,1572,1593,1613,1632,1652,1672,1693,1712,1733,1752,1773,1792,1812,1832,1852,1872,1892,1912,1932,1952,1972,1992,2014,2032,2053,2073,2093,2112,2133,2152,2172,2194,2213,2234,2254,2272],"xSR":741.5,"ySR":573.95,"xT1":424.9,"yT1":0,"xT2":1058.1,"yT2":0,"toosoon":0,"cond_shown":"Incongruent","ratio_trial":100,"L_num":12,"L_den":24,"R_num":9,"R_den":15,"correct_side":2,"subjID":"Juan Pablo Garcia Gaitan26","gender":"0","school":"4","age":"9"},{"start_time":1552308723857,"click_time":1552308726510,"finger_time":1552308725831,"fix_duration":1164.1282084145582,"trial":11,"RT":1974,"MT":679,"sideResp":2,"stimulus":[],"xmouse":[834,834,834,834,834,834,834,834,834,834,834,834,834,834,834,834,834,834,834,834,834,834,834,834,834,834,834,834,834,834,834,834,834,834,834,834,834,834,834,834,834,834,834,834,834,834,834,834,834,834,834,834,834,834,834,834,834,834,834,834,834,834,834,834,834,834,834,834,834,834,834,834,834,834,834,834,834,834,834,834,834,834,834,834,834,834,834,834,834,834,834,834,834,834,834,834,834,835,849,875,882,889,903,918,962,988,1000,1009,1018,1033,1037,1038,1038,1031,1018,1015,1013,1030,1030,1060,1074,1084,1093,1100,1113,1124,1133,1138,1138,1135,1133,1133,1133],"ymouse":[599,599,599,599,599,599,599,599,599,599,599,599,599,599,599,599,599,599,599,599,599,599,599,599,599,599,599,599,599,599,599,599,599,599,599,599,599,599,599,599,599,599,599,599,599,599,599,599,599,599,599,599,599,599,599,599,599,599,599,599,599,599,599,599,599,599,599,599,599,599,599,599,599,599,599,599,599,599,599,599,599,599,599,599,599,599,599,599,599,599,599,599,599,599,599,599,599,599,591,579,576,571,562,555,542,532,524,515,504,470,455,441,429,418,405,400,391,372,372,352,342,334,327,316,295,270,246,221,195,146,126,109,95],"timestamp_mouse":[14,48,54,75,93,113,133,154,173,195,214,234,254,273,293,313,334,354,374,393,414,433,455,473,493,514,533,555,573,594,613,635,654,673,694,713,733,753,773,794,814,834,855,874,893,913,933,953,975,994,1014,1034,1055,1074,1094,1114,1134,1153,1174,1193,1214,1234,1254,1274,1293,1314,1334,1353,1374,1393,1413,1433,1454,1474,1494,1514,1534,1555,1573,1594,1615,1635,1653,1673,1693,1715,1734,1753,1774,1794,1815,1834,1854,1874,1893,1913,1934,1954,1973,1993,2013,2034,2053,2074,2093,2114,2133,2153,2173,2193,2213,2234,2254,2275,2295,2313,2359,2361,2373,2394,2414,2433,2454,2473,2493,2513,2534,2553,2574,2593,2614,2634,2653],"xSR":741.5,"ySR":573.95,"xT1":424.9,"yT1":0,"xT2":1058.1,"yT2":0,"toosoon":0,"cond_shown":"Incongruent","ratio_trial":100,"L_num":6,"L_den":10,"R_num":7,"R_den":14,"correct_side":1,"subjID":"Juan Pablo Garcia Gaitan26","gender":"0","school":"4","age":"9"},{"start_time":1552308731973,"click_time":1552308737751,"finger_time":1552308734270,"fix_duration":320.01556377110165,"trial":12,"RT":2297,"MT":3481,"sideResp":1,"stimulus":[],"xmouse":[800,800,800,800,800,800,800,800,800,800,800,800,800,800,800,800,800,800,800,800,800,800,800,800,800,800,800,800,800,800,800,800,800,800,800,800,800,800,800,800,800,800,800,800,800,800,800,800,800,800,800,800,800,800,800,800,800,800,800,800,800,800,800,800,800,800,800,800,800,800,800,800,800,800,800,800,800,800,800,800,800,800,800,800,800,800,800,800,800,800,800,800,800,800,800,800,800,800,800,800,800,800,800,800,800,800,800,800,800,800,800,800,800,799,818,872,902,908,914,915,903,892,836,795,751,695,633,567,418,363,314,265,215,142,133,133,132,131,137,141,146,149,151,152,152,152,153,153,154,158,160,162,163,170,174,176,177,179,182,184,185,187,189,200,206,211,216,220,225,226,226,226,226,226,226,226,227,229,239,244,250,254,256,261,262,264,265,265,265,267,269,275,286,291,294,296,298,298,298,298,298,298,298,298,298,298,298,298,298,298,299,301,304,308,309,309,309,309,309,309,309,309,309,309,309,309,309,310,313,319,332,339,342,344,344,344,344,344,344,344,344,344,344,344,344,344,344,344,344,344,347,351,355,359,359,359,359,359,359,359,360,362,364,370,371,373,374,375,377,381,383,384,385,387,387,388,389,392,394,394,394,395,396,397,398,401,406,415,436],"ymouse":[608,608,608,608,608,608,608,608,608,608,608,608,608,608,608,608,608,608,608,608,608,608,608,608,608,608,608,608,608,608,608,608,608,608,608,608,608,608,608,608,608,608,608,608,608,608,608,608,608,608,608,608,608,608,608,608,608,608,608,608,608,608,608,608,608,608,608,608,608,608,608,608,608,608,608,608,608,608,608,608,608,608,608,608,608,608,608,608,608,608,608,608,608,608,608,608,608,608,608,608,608,608,608,608,608,608,608,608,608,608,608,608,608,602,519,450,424,421,404,373,338,297,165,96,21,0,0,0,0,0,0,0,0,0,0,0,1,8,37,48,56,62,65,68,69,72,75,80,83,92,94,96,97,98,98,98,98,98,98,98,98,98,98,98,98,98,96,95,94,94,94,94,94,94,94,94,93,92,87,83,80,80,78,76,75,74,73,73,73,72,71,69,64,62,60,58,58,57,57,57,57,57,57,57,57,57,57,57,57,57,57,57,57,57,57,57,57,57,57,57,57,57,57,57,57,57,57,57,57,60,66,69,70,71,71,71,71,71,71,71,71,71,71,71,71,71,71,71,71,72,74,75,78,80,80,80,80,80,80,80,80,81,82,84,84,85,85,85,85,85,85,85,85,85,85,85,85,85,85,85,85,85,85,85,85,85,85,85,85],"timestamp_mouse":[17,41,58,77,97,118,137,158,178,198,217,238,258,279,299,319,337,357,378,398,417,438,457,479,498,517,538,558,577,597,617,637,657,678,699,718,738,757,778,799,818,838,857,878,897,917,937,957,978,997,1018,1037,1058,1078,1097,1118,1139,1158,1178,1198,1218,1237,1257,1278,1298,1317,1338,1357,1379,1398,1417,1438,1459,1477,1497,1518,1538,1558,1578,1597,1618,1637,1659,1677,1697,1718,1738,1758,1779,1797,1817,1838,1857,1877,1899,1917,1937,1958,1978,1998,2018,2038,2057,2077,2098,2117,2137,2158,2178,2198,2218,2238,2259,2277,2297,2317,2337,2358,2378,2398,2417,2439,2459,2478,2498,2517,2538,2558,2578,2597,2617,2637,2658,2677,2698,2718,2737,2757,2777,2798,2818,2838,2858,2878,2897,2919,2938,2957,2977,2998,3017,3038,3057,3078,3097,3117,3137,3157,3177,3197,3218,3237,3257,3277,3298,3318,3339,3358,3377,3397,3418,3437,3458,3477,3497,3518,3537,3557,3578,3598,3617,3637,3658,3678,3697,3719,3739,3759,3777,3798,3817,3838,3859,3877,3897,3919,3938,3958,3977,3998,4017,4037,4058,4078,4099,4117,4137,4158,4178,4199,4217,4238,4258,4277,4297,4318,4337,4358,4379,4397,4417,4437,4458,4478,4498,4518,4538,4557,4578,4597,4617,4638,4658,4677,4697,4718,4738,4759,4777,4797,4817,4837,4857,4878,4899,4919,4938,4958,4977,4998,5017,5038,5058,5077,5098,5118,5138,5158,5177,5198,5217,5238,5257,5277,5297,5317,5337,5357,5378,5399,5418,5438,5457,5478,5499,5517,5537,5558,5577,5597,5618,5638,5658,5679,5698,5718,5737,5759,5778],"xSR":741.5,"ySR":573.95,"xT1":424.9,"yT1":0,"xT2":1058.1,"yT2":0,"toosoon":0,"cond_shown":"Incongruent","ratio_trial":200,"L_num":4,"L_den":6,"R_num":14,"R_den":30,"correct_side":1,"subjID":"Juan Pablo Garcia Gaitan26","gender":"0","school":"4","age":"9"},{"start_time":1552308740395,"click_time":1552308742892,"finger_time":1552308742452,"fix_duration":444.58467966010494,"trial":13,"RT":2057,"MT":440,"sideResp":1,"stimulus":[],"xmouse":[781,781,781,781,781,781,781,781,781,781,781,781,781,781,781,781,781,781,781,781,781,781,781,781,781,781,781,781,781,781,781,781,781,781,781,781,781,781,781,781,781,781,781,781,781,781,781,781,781,781,781,781,781,781,781,781,781,781,781,781,781,781,781,781,781,781,781,781,781,781,781,781,781,781,781,781,781,781,781,781,781,781,781,781,781,781,781,781,781,781,781,781,781,781,781,781,781,781,781,780,777,768,737,723,710,702,695,670,643,627,610,592,581,581,581,578,574,567,566,566,566,556,544,530,518],"ymouse":[603,603,603,603,603,603,603,603,603,603,603,603,603,603,603,603,603,603,603,603,603,603,603,603,603,603,603,603,603,603,603,603,603,603,603,603,603,603,603,603,603,603,603,603,603,603,603,603,603,603,603,603,603,603,603,603,603,603,603,603,603,603,603,603,603,603,603,603,603,603,603,603,603,603,603,603,603,603,603,603,603,603,603,603,603,603,603,603,603,603,603,603,603,603,603,603,603,603,603,603,595,575,518,491,468,444,423,364,301,254,192,122,11,0,0,0,0,0,0,0,0,1,4,7,8],"timestamp_mouse":[15,35,55,83,97,116,137,155,176,197,217,235,255,276,295,316,336,355,375,395,416,435,455,475,496,515,536,555,575,595,616,637,655,675,695,716,735,755,775,796,816,835,855,875,895,915,936,955,975,995,1016,1035,1055,1076,1096,1116,1136,1155,1176,1196,1215,1237,1256,1276,1296,1315,1336,1355,1375,1395,1415,1435,1457,1476,1495,1517,1535,1556,1577,1595,1616,1635,1655,1676,1697,1716,1736,1755,1777,1795,1815,1836,1855,1875,1896,1915,1936,1956,1975,1995,2015,2035,2057,2075,2095,2115,2135,2155,2177,2196,2216,2235,2255,2275,2295,2315,2335,2355,2375,2396,2415,2436,2455,2475,2497],"xSR":741.5,"ySR":573.95,"xT1":424.9,"yT1":0,"xT2":1058.1,"yT2":0,"toosoon":0,"cond_shown":"Congruent","ratio_trial":300,"L_num":8,"L_den":15,"R_num":10,"R_den":12,"correct_side":2,"subjID":"Juan Pablo Garcia Gaitan26","gender":"0","school":"4","age":"9"},{"start_time":1552308745684,"click_time":1552308747631,"finger_time":1552308746630,"fix_duration":250,"trial":14,"RT":946,"MT":1001,"sideResp":1,"stimulus":[],"xmouse":[762,762,762,764,766,769,772,774,774,774,774,774,774,774,774,774,774,774,774,774,774,774,774,774,774,774,774,774,774,774,774,774,774,774,774,774,774,774,774,774,774,774,774,774,775,777,777,778,778,773,768,762,758,740,728,720,711,692,521,411,294,213,151,150,152,157,164,195,214,237,263,292,326,371,374,375,375,375,375,376,376,376,376,376,379,381,386,393,410,416,419,421,421,421,421,423,424,429],"ymouse":[580,580,581,583,587,594,600,603,604,604,604,604,604,604,604,604,604,604,604,604,604,604,604,604,604,604,604,604,604,604,604,604,604,604,604,604,604,604,604,604,604,604,604,604,601,588,575,556,521,498,478,463,451,418,406,399,392,377,278,216,149,97,44,40,38,34,30,23,19,11,3,0,0,0,0,0,0,0,0,0,0,0,0,1,4,7,13,19,32,37,40,41,41,41,41,41,41,43],"timestamp_mouse":[6,27,46,66,86,108,127,148,167,186,207,227,247,267,286,306,326,346,367,386,408,428,446,466,486,506,526,547,568,587,606,627,646,667,686,706,727,746,766,787,807,828,846,867,887,908,927,946,967,987,1006,1026,1047,1066,1086,1106,1127,1147,1167,1188,1207,1227,1248,1267,1286,1307,1326,1347,1366,1388,1406,1428,1447,1467,1486,1506,1527,1546,1566,1586,1606,1627,1647,1666,1686,1706,1726,1747,1767,1787,1807,1826,1847,1866,1886,1906,1927,1947],"xSR":741.5,"ySR":573.95,"xT1":424.9,"yT1":0,"xT2":1058.1,"yT2":0,"toosoon":0,"cond_shown":"Incongruent","ratio_trial":200,"L_num":14,"L_den":30,"R_num":6,"R_den":9,"correct_side":2,"subjID":"Juan Pablo Garcia Gaitan26","gender":"0","school":"4","age":"9"},{"start_time":1552308750989,"click_time":1552308752632,"finger_time":1552308752350,"fix_duration":1237.2136115393512,"trial":15,"RT":1361,"MT":282,"sideResp":1,"stimulus":[],"xmouse":[811,811,811,811,811,811,811,811,811,811,811,811,811,811,811,811,811,811,811,811,811,811,811,811,811,811,811,811,810,810,810,810,810,810,809,808,808,808,808,808,808,808,808,808,808,808,808,808,808,808,808,808,808,807,807,807,806,806,806,806,806,806,806,805,805,803,800,795,784,767,738,707,685,672,664,658,654,652,640,632,596,563,519],"ymouse":[647,647,647,647,647,647,647,647,647,647,647,647,647,647,647,647,647,647,647,647,647,647,647,647,647,647,647,647,647,647,647,647,647,647,647,646,646,646,646,646,646,646,646,646,646,646,646,646,646,646,646,646,646,645,643,641,639,638,638,637,637,636,636,633,630,623,614,601,567,530,456,386,323,271,255,248,242,239,213,202,156,114,67],"timestamp_mouse":[20,21,41,61,81,101,121,143,163,181,202,221,241,261,282,301,321,342,362,382,402,421,441,463,481,501,523,541,561,582,602,622,642,661,682,702,721,741,762,781,803,822,841,862,882,902,923,942,961,982,1001,1022,1042,1062,1082,1102,1122,1142,1161,1183,1202,1222,1241,1261,1283,1301,1321,1342,1361,1381,1402,1422,1443,1461,1481,1501,1523,1541,1561,1582,1601,1621,1642],"xSR":741.5,"ySR":573.95,"xT1":424.9,"yT1":0,"xT2":1058.1,"yT2":0,"toosoon":0,"cond_shown":"Congruent","ratio_trial":100,"L_num":11,"L_den":22,"R_num":4,"R_den":10,"correct_side":1,"subjID":"Juan Pablo Garcia Gaitan26","gender":"0","school":"4","age":"9"},{"start_time":1552308755559,"click_time":1552308760491,"finger_time":1552308757070,"fix_duration":1067.6155722899066,"trial":16,"RT":1511,"MT":3421,"sideResp":1,"stimulus":[],"xmouse":[774,774,774,774,774,774,774,774,774,774,774,774,774,774,774,774,774,774,774,774,774,774,774,774,774,774,774,774,774,774,774,774,774,774,774,774,774,775,775,777,777,777,778,778,778,778,779,780,780,781,781,781,781,781,781,782,782,782,782,782,782,782,782,782,782,782,782,782,782,782,782,782,784,794,796,798,799,800,800,801,801,801,801,801,801,801,801,802,807,815,817,827,832,836,842,843,844,844,844,834,834,834,834,834,834,834,834,834,834,834,834,834,834,834,834,834,837,843,849,864,872,879,882,884,886,886,886,888,895,897,897,900,903,905,909,914,916,919,921,923,923,923,923,924,925,928,929,931,932,936,942,945,951,964,968,969,969,969,969,969,969,969,970,974,979,983,986,988,991,994,994,994,994,991,973,961,945,928,881,864,856,836,826,816,793,780,764,752,740,699,687,650,631,619,593,579,563,548,534,513,497,492,489,489,489,489,489,489,489,489,489,489,489,489,489,489,489,489,489,489,489,489,489,489,489,489,489,489,489,489,489,489,489,489,489,489,489,489,489,489,489,489,489,489,489,488,488],"ymouse":[617,617,617,617,617,617,617,617,617,617,617,617,617,617,617,617,617,617,617,617,617,617,617,617,617,617,617,617,617,617,617,617,617,617,617,617,617,617,617,617,617,617,617,617,617,617,617,617,617,617,617,617,617,617,617,617,617,617,617,617,617,617,617,617,617,617,617,617,617,617,617,617,615,591,579,563,551,542,537,535,535,535,535,535,535,535,535,534,534,532,531,521,514,506,487,477,465,454,448,435,434,434,434,434,434,434,434,434,434,434,434,434,434,434,438,445,454,465,475,494,503,508,510,511,512,512,512,512,513,514,514,514,514,514,514,514,514,514,514,514,514,514,514,514,514,514,514,514,514,513,511,510,509,505,505,505,505,505,505,505,505,505,505,504,503,502,500,498,496,494,494,494,492,488,481,478,471,464,442,434,430,421,414,408,388,374,354,329,299,213,191,135,107,86,48,33,19,9,1,0,0,0,0,0,0,0,0,0,0,0,0,0,0,0,0,0,0,0,0,0,0,0,0,0,0,0,0,0,0,0,0,0,0,0,0,0,0,0,0,0,0,0,0,0,0,0,4],"timestamp_mouse":[11,38,52,71,91,111,132,152,172,192,211,232,252,271,292,312,332,352,372,392,411,433,452,472,491,511,531,551,571,592,613,632,651,672,691,711,732,752,771,791,811,831,851,871,892,913,932,952,972,992,1012,1031,1052,1072,1093,1111,1132,1151,1171,1193,1211,1231,1252,1271,1291,1312,1333,1352,1372,1393,1411,1431,1452,1473,1493,1511,1531,1553,1571,1592,1611,1633,1652,1672,1691,1711,1732,1752,1773,1792,1811,1832,1852,1872,1891,1912,1932,1952,1971,1991,2013,2031,2051,2071,2092,2111,2132,2152,2171,2192,2211,2232,2251,2271,2291,2312,2331,2351,2371,2392,2412,2431,2451,2472,2492,2511,2532,2551,2573,2592,2611,2631,2652,2671,2693,2712,2732,2751,2771,2791,2811,2832,2851,2871,2892,2911,2931,2951,2971,2991,3011,3032,3052,3073,3092,3112,3131,3151,3172,3193,3211,3231,3252,3273,3291,3312,3332,3353,3371,3391,3412,3432,3451,3471,3492,3511,3532,3551,3578,3591,3611,3633,3652,3671,3693,3713,3731,3751,3772,3791,3812,3831,3853,3871,3892,3913,3931,3951,3972,3991,4012,4031,4052,4071,4091,4111,4131,4151,4171,4192,4211,4232,4252,4273,4293,4311,4332,4351,4372,4391,4412,4432,4453,4472,4491,4512,4531,4552,4572,4592,4611,4631,4652,4671,4691,4712,4732,4752,4772,4791,4811,4831,4852,4871,4891,4912,4932],"xSR":741.5,"ySR":573.95,"xT1":424.9,"yT1":0,"xT2":1058.1,"yT2":0,"toosoon":0,"cond_shown":"Incongruent","ratio_trial":200,"L_num":7,"L_den":15,"R_num":4,"R_den":6,"correct_side":2,"subjID":"Juan Pablo Garcia Gaitan26","gender":"0","school":"4","age":"9"},{"start_time":1552308766915,"click_time":1552308769636,"finger_time":1552308769033,"fix_duration":338.5856956892961,"trial":17,"RT":2118,"MT":603,"sideResp":2,"stimulus":[],"xmouse":[813,813,813,813,813,813,813,813,812,812,812,812,814,815,815,815,815,815,815,815,815,815,815,815,815,815,815,815,815,815,815,815,815,815,815,815,815,815,815,815,815,815,815,815,815,815,815,815,815,815,815,815,815,815,815,815,815,815,815,815,815,815,815,815,815,815,815,815,815,815,815,815,815,815,815,815,815,815,815,815,815,815,815,815,815,815,815,815,815,815,815,815,815,815,815,815,815,815,815,815,815,815,815,815,816,812,814,805,799,799,799,799,801,806,811,818,820,830,833,841,854,872,906,938,968,987,1017,1027,1037,1046,1052,1057,1078,1083,1106,1127,1146],"ymouse":[651,651,651,651,651,651,651,651,651,651,651,651,651,652,652,652,652,652,652,652,652,652,652,652,652,652,652,652,652,652,652,652,652,652,652,652,652,652,652,652,652,652,652,652,652,652,652,652,652,652,652,652,652,652,652,652,652,652,652,652,652,652,652,652,652,652,652,652,652,652,652,652,652,652,652,652,652,652,652,652,652,652,652,652,652,652,652,652,652,652,652,652,652,652,652,652,652,652,652,652,652,652,652,652,652,592,570,543,521,504,499,498,494,479,465,449,433,401,383,366,350,336,316,291,278,274,261,257,254,252,251,248,233,226,191,147,79],"timestamp_mouse":[1,19,39,59,78,100,118,138,158,178,199,218,238,260,279,299,319,339,360,378,400,419,439,458,479,498,519,539,559,579,598,619,638,658,679,698,720,738,758,778,800,819,839,858,879,899,919,940,958,979,999,1020,1038,1059,1079,1100,1119,1139,1160,1178,1199,1219,1240,1259,1279,1298,1319,1340,1360,1378,1399,1419,1438,1460,1479,1498,1518,1539,1559,1580,1600,1620,1638,1659,1679,1698,1718,1739,1760,1780,1800,1819,1838,1858,1879,1898,1919,1940,1960,1979,1999,2018,2038,2060,2080,2099,2118,2138,2159,2179,2198,2218,2239,2260,2279,2299,2319,2339,2359,2379,2398,2419,2438,2458,2478,2500,2520,2539,2560,2579,2600,2618,2638,2658,2678,2700,2720],"xSR":741.5,"ySR":573.95,"xT1":424.9,"yT1":0,"xT2":1058.1,"yT2":0,"toosoon":0,"cond_shown":"Incongruent","ratio_trial":300,"L_num":4,"L_den":20,"R_num":2,"R_den":4,"correct_side":2,"subjID":"Juan Pablo Garcia Gaitan26","gender":"0","school":"4","age":"9"},{"start_time":1552308774197,"click_time":1552308776855,"finger_time":1552308775953,"fix_duration":1102.192205601846,"trial":18,"RT":1756,"MT":902,"sideResp":2,"stimulus":[],"xmouse":[792,792,792,792,792,792,792,792,792,792,792,792,792,792,792,792,792,792,792,792,792,792,792,792,792,792,792,792,792,792,792,792,792,792,792,792,792,792,792,792,792,792,792,792,792,792,792,792,792,792,792,792,792,792,792,792,792,792,792,792,792,792,792,792,792,792,792,792,792,792,792,792,792,792,792,792,792,792,792,792,792,792,792,792,792,792,798,819,819,819,819,819,819,762,762,771,778,831,853,861,861,870,926,970,1020,1074,1213,1301,1322,1354,1360,1360,1361,1363,1366,1368,1369,1369,1368,1367,1364,1360,1347,1339,1326,1310,1289,1247,1223,1215,1204,1190,1148],"ymouse":[629,629,629,629,629,629,629,629,629,629,629,629,629,629,629,629,629,629,629,629,629,629,629,629,629,629,629,629,629,629,629,629,629,629,629,629,629,629,629,629,629,629,629,629,629,629,629,629,629,629,629,629,629,629,629,629,629,629,629,629,629,629,629,629,629,629,629,629,629,629,629,629,629,629,629,629,629,629,629,629,629,629,629,629,629,629,629,775,775,775,775,775,775,873,824,714,617,423,294,210,137,87,16,0,0,0,0,0,0,0,0,0,18,43,69,86,100,111,112,112,112,112,112,110,103,95,84,66,59,59,59,62,77],"timestamp_mouse":[17,37,57,76,98,117,138,156,176,197,218,236,257,276,297,316,336,357,378,396,417,437,456,478,496,517,537,556,577,596,618,637,657,677,697,718,737,757,776,797,818,837,858,877,896,917,938,958,976,997,1016,1038,1056,1076,1096,1118,1136,1157,1176,1197,1218,1237,1257,1278,1297,1316,1337,1358,1377,1396,1416,1438,1457,1477,1496,1517,1538,1557,1578,1598,1617,1637,1657,1677,1696,1716,1736,1756,1778,1797,1817,1837,1856,1877,1896,1918,1937,1957,1976,1997,2016,2037,2056,2078,2096,2118,2138,2158,2177,2196,2217,2238,2257,2278,2297,2317,2337,2357,2378,2397,2417,2437,2457,2477,2497,2517,2537,2556,2577,2597,2617,2638,2657],"xSR":741.5,"ySR":573.95,"xT1":424.9,"yT1":0,"xT2":1058.1,"yT2":0,"toosoon":0,"cond_shown":"Incongruent","ratio_trial":300,"L_num":13,"L_den":26,"R_num":12,"R_den":15,"correct_side":2,"subjID":"Juan Pablo Garcia Gaitan26","gender":"0","school":"4","age":"9"},{"start_time":1552308779213,"click_time":1552308781453,"finger_time":1552308781155,"fix_duration":1177.009530755239,"trial":19,"RT":1942,"MT":298,"sideResp":1,"stimulus":[],"xmouse":[760,760,760,760,760,760,760,760,760,760,759,759,759,759,759,759,759,759,759,759,759,759,759,759,759,759,759,759,759,759,759,759,759,759,759,759,759,759,759,759,759,759,759,759,759,759,759,759,759,759,759,759,759,759,759,759,759,759,759,759,759,759,759,759,759,759,759,759,759,759,759,759,759,759,759,759,759,759,759,759,759,759,759,759,759,759,759,759,759,759,759,759,759,759,759,760,762,780,800,809,813,797,714,685,676,670,660,607,567,545,530,525,524],"ymouse":[619,619,619,619,619,619,619,619,619,619,620,620,620,620,620,620,620,620,620,620,620,620,620,620,620,620,620,620,620,620,620,620,620,620,620,620,620,620,620,620,620,620,620,620,620,620,620,620,620,620,620,620,620,620,620,620,620,620,620,620,620,620,620,620,620,620,620,620,620,620,620,620,620,620,620,620,620,620,620,620,620,620,620,620,620,620,620,620,620,620,620,620,620,620,620,618,607,531,427,349,288,248,171,142,123,112,102,67,41,32,26,24,24],"timestamp_mouse":[9,21,42,61,80,102,120,140,160,180,201,220,241,260,281,301,321,340,360,380,400,422,441,461,481,501,521,540,560,582,602,621,641,660,681,701,721,741,760,780,802,821,840,861,880,902,920,941,961,982,1000,1021,1042,1061,1080,1101,1122,1140,1160,1180,1202,1221,1241,1260,1280,1302,1321,1342,1360,1380,1401,1421,1440,1460,1482,1502,1522,1541,1561,1582,1600,1621,1641,1661,1681,1700,1721,1741,1760,1781,1801,1820,1842,1861,1882,1900,1920,1942,1962,1980,2000,2022,2041,2060,2082,2102,2120,2142,2161,2181,2201,2221,2240],"xSR":741.5,"ySR":573.95,"xT1":424.9,"yT1":0,"xT2":1058.1,"yT2":0,"toosoon":0,"cond_shown":"Congruent","ratio_trial":200,"L_num":4,"L_den":10,"R_num":3,"R_den":15,"correct_side":1,"subjID":"Juan Pablo Garcia Gaitan26","gender":"0","school":"4","age":"9"},{"start_time":1552308784525,"click_time":1552308786494,"finger_time":1552308785954,"fix_duration":250,"trial":20,"RT":1429,"MT":540,"sideResp":2,"stimulus":[],"xmouse":[802,802,802,802,802,802,802,802,802,802,802,802,802,802,802,802,802,802,802,802,802,802,802,802,802,802,802,802,802,802,802,802,802,802,802,802,802,802,802,802,802,802,802,802,802,802,802,802,802,802,802,802,802,802,802,802,802,802,802,802,802,802,802,802,802,802,802,799,797,792,790,792,799,802,807,813,842,858,873,889,906,936,954,966,973,978,983,987,991,992,993,993,999,1009,1022,1036,1066,1080,1094],"ymouse":[618,618,618,618,618,618,618,618,618,618,618,618,618,618,618,618,618,618,618,618,618,618,618,618,618,618,618,618,618,618,618,618,618,618,618,618,618,618,618,618,618,618,618,618,618,618,618,618,618,618,618,618,618,618,618,618,618,618,618,618,618,618,618,618,618,618,618,617,612,606,595,511,462,435,415,394,365,354,345,336,327,313,302,294,287,280,256,242,230,226,222,222,213,202,186,167,131,116,95],"timestamp_mouse":[21,37,50,68,89,110,128,149,170,189,209,230,249,269,288,309,329,350,370,388,408,429,449,469,489,508,528,549,568,589,610,629,650,669,688,710,728,750,768,789,808,829,848,868,888,910,929,948,970,989,1008,1028,1049,1069,1089,1109,1130,1148,1169,1188,1210,1228,1249,1269,1290,1309,1330,1348,1370,1388,1409,1429,1449,1469,1488,1508,1528,1549,1570,1590,1608,1628,1650,1668,1688,1708,1729,1748,1769,1789,1810,1828,1849,1869,1890,1908,1928,1948,1969],"xSR":741.5,"ySR":573.95,"xT1":424.9,"yT1":0,"xT2":1058.1,"yT2":0,"toosoon":0,"cond_shown":"Congruent","ratio_trial":300,"L_num":4,"L_den":20,"R_num":13,"R_den":26,"correct_side":2,"subjID":"Juan Pablo Garcia Gaitan26","gender":"0","school":"4","age":"9"},{"start_time":1552308789126,"click_time":1552308792754,"finger_time":1552308791635,"fix_duration":1148.7293216454268,"trial":21,"RT":2509,"MT":1119,"sideResp":2,"stimulus":[],"xmouse":[815,815,815,815,815,815,815,815,815,815,815,815,815,815,815,815,815,815,815,815,815,815,815,815,815,815,815,815,815,815,815,815,815,815,815,815,815,815,815,815,815,815,815,815,815,815,815,815,815,815,815,815,815,815,815,815,815,815,815,815,815,815,815,815,815,815,815,815,815,815,815,815,815,815,815,815,815,815,815,815,815,815,815,815,815,815,815,815,815,815,815,815,815,815,815,815,815,815,815,815,815,815,815,815,815,815,815,815,814,814,814,814,814,814,814,814,814,814,814,814,814,814,814,814,815,854,888,932,980,1020,1065,1166,1247,1300,1363,1418,1514,1560,1560,1560,1560,1560,1579,1554,1531,1517,1517,1517,1501,1439,1396,1366,1366,1366,1366,1368,1370,1370,1370,1368,1361,1334,1296,1276,1260,1253,1251,1251,1250,1247,1245,1245,1245,1244,1240,1226,1222,1211,1206,1187,1162,1104],"ymouse":[618,618,618,618,618,618,618,618,618,618,618,618,618,618,618,618,618,618,618,618,618,618,618,618,618,618,618,618,618,618,618,618,618,618,618,618,618,618,618,618,618,618,618,618,618,618,618,618,618,618,618,618,618,618,618,618,618,618,618,618,618,618,618,618,618,618,618,618,618,618,618,618,618,618,618,618,618,618,618,618,618,618,618,618,618,618,618,618,618,618,618,618,618,618,618,618,618,618,618,618,618,618,618,618,618,618,618,618,618,618,618,618,618,618,618,618,618,618,618,618,618,618,618,618,617,576,555,536,516,492,455,360,283,232,181,130,12,0,0,0,0,0,0,0,0,0,0,0,3,19,30,41,41,41,41,41,40,39,38,37,36,36,46,52,55,56,57,57,57,60,60,60,60,60,60,60,59,58,58,56,52,44],"timestamp_mouse":[9,44,47,67,87,108,128,148,168,188,208,227,247,268,287,307,327,347,368,388,409,428,448,468,489,507,527,547,567,588,608,628,649,668,688,709,729,747,768,788,808,827,847,869,888,908,928,949,968,987,1007,1029,1048,1068,1087,1109,1128,1148,1168,1188,1207,1228,1248,1267,1287,1309,1328,1348,1368,1389,1407,1427,1448,1469,1487,1508,1527,1548,1569,1587,1608,1627,1647,1669,1688,1707,1727,1749,1769,1788,1808,1829,1848,1867,1889,1908,1929,1947,1968,1989,2008,2028,2047,2069,2087,2108,2128,2147,2168,2189,2208,2228,2249,2269,2288,2309,2329,2347,2368,2387,2408,2427,2447,2468,2489,2509,2527,2549,2568,2588,2608,2627,2648,2668,2689,2707,2728,2748,2767,2789,2808,2828,2847,2867,2888,2907,2927,2947,2968,2987,3007,3028,3048,3069,3088,3108,3129,3148,3169,3188,3209,3228,3249,3267,3288,3308,3328,3348,3369,3389,3408,3428,3448,3469,3487,3509,3528,3549,3568,3588,3608,3628],"xSR":741.5,"ySR":573.95,"xT1":424.9,"yT1":0,"xT2":1058.1,"yT2":0,"toosoon":0,"cond_shown":"Incongruent","ratio_trial":100,"L_num":11,"L_den":22,"R_num":9,"R_den":15,"correct_side":2,"subjID":"Juan Pablo Garcia Gaitan26","gender":"0","school":"4","age":"9"},{"start_time":1552308797743,"click_time":1552308799695,"finger_time":1552308799253,"fix_duration":847.3928974921747,"trial":22,"RT":1510,"MT":442,"sideResp":1,"stimulus":[],"xmouse":[775,775,775,775,775,775,775,775,775,775,775,775,775,775,775,775,775,775,775,775,775,775,775,775,775,775,775,775,775,775,775,775,775,775,775,775,775,775,775,775,775,775,775,775,775,775,775,775,775,775,775,775,775,775,775,775,775,775,775,775,775,775,775,775,775,775,775,775,775,775,775,775,775,775,775,772,764,753,737,723,677,659,648,640,632,615,606,601,598,596,591,587,583,579,572,548,529,511],"ymouse":[626,626,626,626,626,626,626,626,626,626,626,626,626,626,626,626,626,626,626,626,626,626,626,626,626,626,626,626,626,626,626,626,626,626,626,626,626,626,626,626,626,626,626,626,626,626,626,626,626,626,626,626,626,626,626,626,626,626,626,626,626,626,626,626,626,626,626,626,626,626,626,626,626,626,612,560,518,470,416,359,202,75,5,0,0,0,0,0,0,0,0,0,0,0,0,3,9,13],"timestamp_mouse":[13,39,51,70,90,112,132,150,171,192,211,232,250,271,291,311,332,350,370,391,412,430,451,472,491,510,530,550,571,591,611,631,650,670,691,711,732,751,772,790,811,830,852,872,890,910,930,951,971,992,1012,1031,1051,1071,1090,1111,1131,1150,1171,1190,1211,1230,1251,1270,1291,1311,1331,1350,1371,1391,1411,1432,1450,1471,1490,1510,1532,1550,1570,1590,1610,1631,1652,1670,1690,1711,1732,1752,1771,1791,1810,1831,1850,1871,1890,1912,1932,1952],"xSR":741.5,"ySR":573.95,"xT1":424.9,"yT1":0,"xT2":1058.1,"yT2":0,"toosoon":0,"cond_shown":"Incongruent","ratio_trial":300,"L_num":4,"L_den":20,"R_num":2,"R_den":4,"correct_side":2,"subjID":"Juan Pablo Garcia Gaitan26","gender":"0","school":"4","age":"9"},{"start_time":1552308803704,"click_time":1552308810413,"finger_time":1552308808614,"fix_duration":868.1454712930655,"trial":23,"RT":4910,"MT":1799,"sideResp":2,"stimulus":[],"xmouse":[772,772,772,772,772,772,772,772,772,772,772,772,772,772,772,772,772,772,772,772,772,772,772,772,772,772,772,772,772,772,772,772,772,772,772,772,772,772,772,772,772,772,772,772,772,772,772,772,772,772,772,772,772,772,772,772,772,772,772,772,772,772,772,772,772,772,772,772,772,772,772,772,772,772,772,772,772,772,772,772,772,772,772,772,772,772,772,772,772,772,772,772,772,772,772,772,772,772,772,772,772,772,772,772,772,772,772,772,772,772,772,772,772,772,772,772,772,772,772,772,772,772,772,772,772,772,772,772,772,772,772,772,772,772,772,772,772,772,772,772,772,772,772,772,772,772,772,772,772,772,772,772,772,772,772,772,772,772,772,772,772,772,772,772,772,772,772,772,772,772,772,772,772,772,772,772,772,772,772,772,772,772,772,772,772,772,772,772,772,772,772,772,772,772,772,772,772,772,772,772,772,772,772,772,772,772,772,772,772,772,772,772,772,772,772,772,772,772,772,772,772,772,772,772,772,772,772,772,772,772,772,772,772,772,772,772,772,772,773,774,778,780,793,807,830,849,875,948,984,1014,1034,1052,1083,1098,1127,1149,1178,1244,1262,1282,1297,1325,1339,1352,1355,1358,1359,1348,1340,1338,1338,1338,1338,1338,1337,1336,1335,1335,1335,1335,1335,1335,1335,1335,1335,1335,1335,1335,1335,1335,1335,1335,1335,1335,1334,1331,1311,1301,1289,1279,1267,1255,1239,1231,1226,1222,1218,1214,1204,1204,1204,1204,1204,1204,1204,1204,1204,1204,1204,1204,1204,1202,1194,1191,1182,1182,1182,1182,1182,1182,1181,1175,1168,1165,1165,1156],"ymouse":[651,651,651,651,651,651,651,651,651,651,651,651,651,651,651,651,651,651,651,651,651,651,651,651,651,651,651,651,651,651,651,651,651,651,651,651,651,651,651,651,651,651,651,651,651,651,651,651,651,651,651,651,651,651,651,651,651,651,651,651,651,651,651,651,651,651,651,651,651,651,651,651,651,651,651,651,651,651,651,651,651,651,651,651,651,651,651,651,651,651,651,651,651,651,651,651,651,651,651,651,651,651,651,651,651,651,651,651,651,651,651,651,651,651,651,651,651,651,651,651,651,651,651,651,651,651,651,651,651,651,651,651,651,651,651,651,651,651,651,651,651,651,651,651,651,651,651,651,651,651,651,651,651,651,651,651,651,651,651,651,651,651,651,651,651,651,651,651,651,651,651,651,651,651,651,651,651,651,651,651,651,651,651,651,651,651,651,651,651,651,651,651,651,651,651,651,651,651,651,651,651,651,651,651,651,651,651,651,651,651,651,651,651,651,651,651,651,651,651,651,651,651,651,651,651,651,651,651,651,651,651,651,651,651,651,651,651,651,649,647,642,640,622,607,589,575,553,482,447,420,404,393,374,360,337,316,291,229,210,187,163,100,64,19,7,0,0,0,0,0,0,0,0,0,0,3,6,6,6,6,6,6,6,6,6,6,6,6,6,6,6,6,6,6,4,3,0,0,0,0,0,0,0,0,0,0,0,0,1,1,1,1,1,1,1,1,1,1,1,1,2,2,6,9,11,11,11,11,11,11,12,15,20,22,23,28],"timestamp_mouse":[9,44,51,71,91,109,131,150,170,190,209,231,251,270,290,311,329,349,370,391,411,430,450,471,490,509,530,551,571,590,610,630,650,669,690,710,731,750,769,789,810,830,850,869,890,910,929,949,971,990,1010,1030,1051,1069,1089,1109,1130,1150,1170,1189,1211,1229,1249,1269,1291,1310,1330,1351,1371,1389,1409,1430,1451,1469,1489,1510,1531,1550,1570,1590,1610,1631,1649,1669,1689,1710,1731,1750,1771,1790,1809,1830,1850,1869,1891,1911,1930,1950,1971,1989,2010,2031,2050,2070,2090,2110,2129,2150,2169,2189,2210,2229,2250,2269,2290,2311,2330,2349,2371,2390,2409,2431,2449,2470,2490,2509,2529,2550,2571,2590,2610,2630,2649,2670,2690,2711,2729,2751,2770,2789,2809,2830,2851,2870,2890,2910,2930,2950,2970,2989,3010,3029,3050,3071,3091,3109,3129,3151,3170,3190,3210,3230,3250,3269,3289,3309,3331,3349,3371,3391,3410,3430,3450,3471,3489,3510,3530,3550,3571,3590,3610,3630,3650,3670,3689,3711,3730,3751,3771,3789,3809,3831,3851,3870,3890,3909,3930,3950,3970,3989,4009,4031,4050,4070,4090,4110,4130,4151,4170,4190,4210,4230,4251,4269,4290,4309,4329,4351,4370,4390,4410,4429,4451,4469,4490,4510,4529,4551,4569,4589,4610,4629,4649,4670,4691,4710,4730,4750,4769,4789,4810,4829,4850,4871,4891,4910,4929,4949,4969,4990,5010,5029,5049,5070,5090,5110,5129,5149,5170,5190,5211,5231,5249,5269,5289,5309,5330,5351,5369,5391,5411,5430,5451,5470,5489,5509,5530,5549,5570,5589,5610,5629,5649,5669,5690,5711,5730,5749,5770,5790,5809,5830,5850,5870,5891,5910,5931,5949,5969,5990,6010,6030,6049,6070,6089,6109,6130,6150,6169,6190,6210,6230,6250,6269,6290,6310,6329,6350,6371,6390,6411,6430,6449,6469,6489,6510,6529,6550,6570,6591,6610,6630,6649,6671,6689,6709],"xSR":741.5,"ySR":573.95,"xT1":424.9,"yT1":0,"xT2":1058.1,"yT2":0,"toosoon":0,"cond_shown":"Congruent","ratio_trial":200,"L_num":21,"L_den":30,"R_num":2,"R_den":4,"correct_side":1,"subjID":"Juan Pablo Garcia Gaitan26","gender":"0","school":"4","age":"9"},{"start_time":1552308813295,"click_time":1552308816574,"finger_time":1552308815194,"fix_duration":1278.896586803359,"trial":24,"RT":1899,"MT":1380,"sideResp":2,"stimulus":[],"xmouse":[806,806,806,806,806,806,806,806,806,806,806,806,806,806,806,806,806,806,806,806,806,806,806,806,806,806,806,806,806,806,806,806,806,806,806,806,806,806,806,806,806,806,806,806,806,806,806,806,806,806,806,806,806,806,806,806,806,806,806,806,806,806,806,806,806,806,806,806,806,806,806,806,806,806,806,806,806,806,806,806,806,806,806,806,806,806,806,806,806,806,806,806,807,815,826,860,896,1016,1092,1166,1242,1319,1386,1502,1502,1502,1502,1502,1502,1502,1502,1502,1502,1502,1502,1575,1558,1540,1519,1509,1491,1471,1449,1408,1392,1378,1367,1360,1350,1346,1342,1336,1333,1324,1315,1305,1297,1289,1275,1270,1267,1264,1262,1256,1248,1242,1238,1232,1224,1220,1215,1211,1201,1195,1191,1188,1185,1184,1180,1178,1174,1172,1168,1162,1154],"ymouse":[612,612,612,612,612,612,612,612,612,612,612,612,612,612,612,612,612,612,612,612,612,612,612,612,612,612,612,612,612,612,612,612,612,612,612,612,612,612,612,612,612,612,612,612,612,612,612,612,612,612,612,612,612,612,612,612,612,612,612,612,612,612,612,612,612,612,612,612,612,612,612,612,612,612,612,612,612,612,612,612,612,612,612,612,612,612,612,612,612,612,612,612,611,606,596,567,531,418,343,272,202,138,84,0,0,0,0,0,0,0,0,0,0,0,0,3,9,19,31,38,51,69,87,124,136,143,147,151,155,156,157,158,158,158,150,140,127,113,89,83,81,80,79,77,76,76,76,79,81,82,84,84,86,86,87,87,88,88,88,88,88,88,88,82,71],"timestamp_mouse":[1,19,48,59,79,99,119,139,159,179,198,219,239,258,279,299,318,338,359,378,398,420,439,459,479,500,518,538,559,580,600,620,639,659,679,699,720,740,760,778,799,818,839,860,878,898,919,938,960,980,999,1018,1039,1060,1079,1099,1119,1138,1159,1179,1199,1219,1239,1260,1278,1299,1319,1340,1360,1379,1399,1419,1440,1459,1479,1499,1520,1538,1559,1579,1598,1620,1639,1660,1678,1698,1718,1739,1758,1780,1798,1818,1839,1860,1878,1899,1919,1940,1959,1980,1999,2018,2039,2058,2078,2099,2119,2138,2159,2178,2199,2218,2242,2260,2278,2299,2318,2340,2359,2380,2399,2419,2439,2458,2479,2499,2518,2539,2558,2578,2599,2618,2638,2659,2679,2699,2719,2739,2760,2780,2799,2820,2839,2860,2879,2899,2919,2939,2960,2979,2999,3020,3039,3058,3079,3100,3120,3139,3158,3178,3199,3219,3238,3258,3279],"xSR":741.5,"ySR":573.95,"xT1":424.9,"yT1":0,"xT2":1058.1,"yT2":0,"toosoon":0,"cond_shown":"Incongruent","ratio_trial":100,"L_num":3,"L_den":5,"R_num":11,"R_den":22,"correct_side":1,"subjID":"Juan Pablo Garcia Gaitan26","gender":"0","school":"4","age":"9"},{"start_time":1552308819110,"click_time":1552308821855,"finger_time":1552308820553,"fix_duration":633.0363990671566,"trial":25,"RT":1443,"MT":1302,"sideResp":2,"stimulus":[],"xmouse":[792,792,792,792,792,792,792,792,792,792,792,792,792,792,792,792,792,792,792,792,792,792,792,792,792,792,792,792,792,792,792,792,792,792,792,792,792,792,792,792,792,792,792,792,792,792,792,792,792,792,792,792,792,792,792,792,792,792,792,792,792,792,792,792,792,792,792,792,792,792,792,789,773,769,769,769,769,767,764,752,731,707,655,637,635,637,648,672,679,685,688,689,690,690,690,690,690,690,690,690,690,690,690,690,690,690,690,690,690,690,690,692,707,725,743,767,797,861,882,899,909,914,918,923,927,935,950,995,1018,1037,1052,1072,1080,1083,1087,1090,1094,1095],"ymouse":[650,650,650,650,650,650,650,650,650,650,650,650,650,650,650,650,650,650,650,650,650,650,650,650,650,650,650,650,650,650,650,650,650,650,650,650,650,650,650,650,650,650,650,650,650,650,650,650,650,650,650,650,650,650,650,650,650,650,650,650,650,650,650,650,650,650,650,650,648,643,629,607,550,539,539,539,539,522,497,442,348,225,0,0,0,0,0,0,0,2,5,6,6,6,6,6,6,6,6,6,6,6,6,6,6,6,6,6,6,6,6,6,1,0,0,0,0,0,0,0,0,0,0,0,0,0,2,3,3,1,0,0,0,0,0,0,0,1],"timestamp_mouse":[21,41,44,63,83,103,123,145,164,184,204,225,243,263,284,304,325,345,364,383,403,423,445,464,484,503,524,545,565,584,603,624,643,663,684,704,725,743,763,784,804,823,844,864,885,903,924,943,964,984,1004,1025,1044,1063,1084,1105,1124,1144,1163,1185,1204,1223,1243,1264,1284,1303,1324,1343,1364,1383,1403,1423,1443,1464,1484,1505,1523,1543,1563,1584,1605,1623,1643,1663,1685,1704,1726,1744,1763,1783,1803,1825,1844,1863,1883,1903,1923,1943,1963,1983,2005,2024,2043,2063,2084,2103,2123,2144,2163,2183,2205,2224,2244,2264,2283,2304,2323,2344,2363,2384,2405,2424,2443,2464,2484,2504,2524,2544,2564,2584,2604,2625,2643,2663,2683,2704,2725,2745],"xSR":741.5,"ySR":573.95,"xT1":424.9,"yT1":0,"xT2":1058.1,"yT2":0,"toosoon":0,"cond_shown":"Incongruent","ratio_trial":300,"L_num":13,"L_den":26,"R_num":12,"R_den":15,"correct_side":2,"subjID":"Juan Pablo Garcia Gaitan26","gender":"0","school":"4","age":"9"},{"start_time":1552308825974,"click_time":1552308830997,"finger_time":1552308830057,"fix_duration":856.8649360301819,"trial":26,"RT":4083,"MT":940,"sideResp":2,"stimulus":[],"xmouse":[783,783,783,783,783,783,783,783,783,783,783,783,783,783,783,783,783,783,783,783,783,783,783,783,783,783,783,783,783,783,783,783,783,783,783,783,783,783,783,783,783,783,783,783,783,783,783,783,783,783,783,783,783,783,783,783,783,783,783,783,783,783,783,783,783,783,783,783,783,783,783,783,783,783,783,783,783,783,783,783,783,783,783,783,783,783,783,783,783,783,783,783,783,783,783,783,783,783,783,783,783,783,783,783,783,783,783,783,783,783,783,783,783,783,783,783,783,783,783,783,783,783,783,783,783,783,783,783,783,783,783,784,788,790,792,793,794,796,797,799,799,799,799,799,799,799,799,799,799,799,799,799,799,799,799,799,799,799,799,799,799,799,799,799,799,799,799,799,799,799,799,799,799,799,799,799,799,799,799,799,799,799,799,799,799,799,799,799,799,799,799,799,799,799,799,799,799,799,799,799,799,799,802,825,852,888,941,989,1031,1060,1063,1063,1063,1063,1065,1065,1067,1072,1078,1099,1136,1168,1196,1239,1248,1251,1252,1252,1252,1249,1248,1248,1247,1238,1234,1232,1228,1222,1214,1198,1197,1196,1196,1195,1195,1194,1192,1189,1185,1175,1165,1142],"ymouse":[612,612,612,612,612,612,612,612,612,612,612,612,612,612,612,612,612,612,612,612,612,612,612,612,612,612,612,612,612,612,612,612,612,612,612,612,612,612,612,612,612,612,612,612,612,612,612,612,612,612,612,612,612,612,612,612,612,612,612,612,612,612,612,612,612,612,612,612,612,612,612,612,612,612,612,612,612,612,612,612,612,612,612,612,612,612,612,612,612,612,612,612,612,612,612,612,612,612,612,612,612,612,612,612,612,612,612,612,612,612,612,612,612,612,612,612,612,612,612,612,612,612,612,612,612,612,612,612,612,612,612,612,610,609,608,608,608,608,608,608,608,608,608,608,608,608,608,608,608,608,608,608,608,608,608,608,608,608,608,608,608,608,608,608,608,608,608,608,608,608,608,608,608,608,608,608,608,608,608,608,608,608,608,608,608,608,608,608,608,608,608,608,608,608,608,608,608,608,608,608,608,607,606,589,572,546,509,480,466,463,463,463,463,463,463,462,459,450,440,407,357,308,262,175,149,133,126,126,125,124,124,124,124,119,117,117,117,117,116,113,113,112,112,111,111,111,111,110,108,105,102,93],"timestamp_mouse":[9,37,43,63,82,103,122,143,163,182,202,222,242,262,284,302,322,343,364,383,403,422,444,463,483,503,523,544,563,583,603,622,642,663,682,703,722,743,763,782,804,822,843,864,882,903,922,944,963,982,1002,1022,1042,1062,1083,1103,1123,1142,1164,1183,1202,1222,1243,1264,1282,1304,1322,1343,1364,1382,1404,1422,1442,1462,1483,1503,1522,1542,1562,1584,1602,1622,1642,1664,1682,1703,1724,1742,1763,1784,1802,1822,1844,1862,1888,1903,1924,1942,1963,1983,2002,2022,2043,2062,2083,2102,2123,2142,2163,2184,2203,2222,2242,2262,2284,2302,2324,2343,2362,2384,2404,2422,2443,2464,2483,2503,2522,2543,2562,2583,2604,2623,2644,2663,2683,2703,2723,2742,2762,2782,2804,2824,2842,2863,2883,2904,2924,2943,2963,2982,3002,3022,3043,3062,3084,3102,3123,3142,3163,3184,3204,3222,3243,3263,3282,3302,3322,3344,3364,3382,3402,3423,3442,3463,3483,3504,3523,3543,3562,3583,3603,3624,3644,3663,3682,3704,3722,3743,3763,3784,3803,3823,3843,3863,3884,3903,3923,3942,3962,3983,4004,4024,4042,4064,4083,4103,4123,4144,4163,4182,4203,4223,4242,4263,4283,4303,4324,4342,4362,4383,4403,4422,4442,4464,4483,4503,4523,4542,4562,4583,4603,4622,4643,4663,4682,4703,4723,4743,4763,4784,4804,4824,4844,4863,4882,4902,4923,4942,4963,4982,5004,5023],"xSR":741.5,"ySR":573.95,"xT1":424.9,"yT1":0,"xT2":1058.1,"yT2":0,"toosoon":0,"cond_shown":"Congruent","ratio_trial":200,"L_num":8,"L_den":15,"R_num":2,"R_den":6,"correct_side":1,"subjID":"Juan Pablo Garcia Gaitan26","gender":"0","school":"4","age":"9"},{"start_time":1552308834214,"click_time":1552308836857,"finger_time":1552308836377,"fix_duration":375.500526646584,"trial":27,"RT":2163,"MT":480,"sideResp":1,"stimulus":[],"xmouse":[814,814,814,814,814,814,814,814,814,814,814,814,814,814,814,814,814,814,814,814,814,814,814,814,814,814,814,814,814,814,814,814,814,814,814,814,814,814,814,814,814,814,814,814,814,814,814,814,814,814,814,814,814,814,814,814,814,814,814,814,814,814,814,814,814,814,814,814,814,814,814,814,814,814,814,814,814,814,814,814,814,814,814,814,814,814,814,814,814,814,814,814,814,814,814,814,814,814,814,814,814,814,814,814,814,814,814,819,889,918,929,914,880,847,816,795,764,755,746,726,709,679,669,664,660,658,654,633,599,577,554,535,502],"ymouse":[638,638,638,638,638,638,638,638,638,638,638,638,638,638,638,638,638,638,638,638,638,638,638,638,638,638,638,638,638,638,638,638,638,638,638,638,638,638,638,638,638,638,638,638,638,638,638,638,638,638,638,638,638,638,638,638,638,638,638,638,638,638,638,638,638,638,638,638,638,638,638,638,638,638,638,638,638,638,638,638,638,638,638,638,638,638,638,638,638,638,638,638,638,638,638,638,638,638,638,638,638,638,638,638,638,638,638,617,509,468,432,357,303,265,230,205,169,152,131,93,59,4,0,0,0,0,0,1,6,6,7,8,16],"timestamp_mouse":[13,22,42,63,82,102,122,142,163,183,202,222,243,262,283,302,323,344,364,383,403,422,443,464,482,503,524,542,562,583,603,623,643,662,683,703,723,743,762,782,802,823,842,863,882,902,924,943,962,982,1002,1022,1042,1062,1082,1102,1124,1142,1164,1183,1202,1223,1244,1262,1283,1303,1322,1342,1363,1383,1404,1423,1443,1464,1483,1502,1523,1543,1564,1582,1602,1623,1642,1664,1683,1702,1722,1743,1763,1784,1804,1823,1843,1862,1883,1903,1924,1943,1962,1983,2004,2023,2043,2062,2083,2102,2123,2143,2163,2183,2202,2224,2242,2263,2282,2302,2324,2342,2364,2382,2402,2424,2443,2462,2483,2504,2522,2544,2563,2583,2603,2623,2642],"xSR":741.5,"ySR":573.95,"xT1":424.9,"yT1":0,"xT2":1058.1,"yT2":0,"toosoon":0,"cond_shown":"Incongruent","ratio_trial":200,"L_num":4,"L_den":6,"R_num":14,"R_den":30,"correct_side":1,"subjID":"Juan Pablo Garcia Gaitan26","gender":"0","school":"4","age":"9"},{"start_time":1552308841891,"click_time":1552308847077,"finger_time":1552308845416,"fix_duration":773.8377458558014,"trial":28,"RT":3525,"MT":1661,"sideResp":1,"stimulus":[],"xmouse":[781,781,781,781,781,781,781,781,781,781,781,781,781,781,781,781,781,781,781,781,781,781,781,781,781,781,781,781,781,781,781,781,781,781,781,781,781,781,781,781,781,781,781,781,781,781,781,781,781,781,781,781,781,781,781,781,781,781,781,781,781,781,781,781,781,781,781,781,781,781,781,781,781,781,781,781,781,781,781,781,781,781,781,781,781,781,781,781,781,781,781,781,781,781,781,781,781,781,781,781,781,781,781,781,781,781,781,781,781,781,781,781,781,781,781,781,781,781,781,781,781,781,781,781,781,781,781,781,781,781,781,781,781,781,781,781,781,781,781,781,781,781,781,781,781,781,781,781,781,781,781,781,781,781,781,781,781,781,781,781,781,781,781,781,781,781,781,781,781,781,787,791,793,793,793,794,796,797,799,801,805,811,817,829,833,834,834,834,834,834,834,835,835,835,835,835,839,849,878,892,901,908,913,934,948,967,971,971,971,971,971,971,966,953,946,934,920,899,829,791,760,728,699,565,507,468,458,458,458,458,458,458,458,458,458,458,458,458,458,458,461,464,465,471,480,488,499,512,542,554,563,572,578,591,593,590,583,570,522,495],"ymouse":[607,607,607,607,607,607,607,607,607,607,607,607,607,607,607,607,607,607,607,607,607,607,607,607,607,607,607,607,607,607,607,607,607,607,607,607,607,607,607,607,607,607,607,607,607,607,607,607,607,607,607,607,607,607,607,607,607,607,607,607,607,607,607,607,607,607,607,607,607,607,607,607,607,607,607,607,607,607,607,607,607,607,607,607,607,607,607,607,607,607,607,607,607,607,607,607,607,607,607,607,607,607,607,607,607,607,607,607,607,607,607,607,607,607,607,607,607,607,607,607,607,607,607,607,607,607,607,607,607,607,607,607,607,607,607,607,607,607,607,607,607,607,607,607,607,607,607,607,607,607,607,607,607,607,607,607,607,607,607,607,607,607,607,607,607,607,607,607,607,607,598,592,587,587,585,578,569,559,539,530,513,491,467,422,404,399,399,399,399,398,398,396,395,391,380,370,350,317,218,188,171,159,150,117,85,38,30,30,30,27,18,0,0,0,0,0,0,0,0,4,18,51,114,414,513,559,564,564,564,564,564,564,564,564,564,564,564,564,564,564,558,551,548,526,495,478,462,444,403,386,375,360,345,300,261,234,206,175,106,78],"timestamp_mouse":[11,34,46,65,86,106,127,146,166,186,207,225,245,265,286,305,327,345,365,385,406,426,445,466,486,506,526,546,566,586,606,627,645,666,686,707,725,747,767,786,806,826,847,866,885,906,925,945,967,985,1005,1026,1046,1066,1085,1106,1125,1146,1166,1187,1205,1225,1246,1266,1285,1307,1327,1346,1366,1386,1406,1425,1446,1466,1485,1505,1525,1546,1565,1585,1606,1625,1646,1666,1686,1707,1726,1746,1765,1786,1806,1825,1845,1866,1885,1906,1926,1945,1965,1986,2006,2025,2047,2066,2086,2105,2126,2147,2166,2186,2206,2226,2245,2266,2285,2307,2326,2345,2366,2387,2405,2427,2446,2466,2486,2506,2527,2545,2566,2585,2606,2626,2645,2666,2687,2707,2726,2746,2766,2786,2806,2827,2847,2865,2886,2906,2926,2945,2967,2987,3007,3027,3046,3067,3087,3106,3126,3145,3166,3186,3205,3226,3245,3267,3285,3306,3326,3346,3365,3386,3406,3426,3447,3466,3486,3506,3525,3545,3565,3586,3605,3625,3647,3665,3685,3705,3726,3745,3765,3786,3806,3827,3847,3865,3886,3906,3926,3946,3966,3985,4005,4026,4046,4067,4087,4106,4125,4145,4166,4185,4205,4226,4245,4266,4285,4306,4326,4346,4365,4385,4405,4426,4445,4465,4486,4506,4526,4546,4566,4586,4606,4626,4646,4665,4686,4707,4725,4746,4765,4785,4806,4826,4845,4865,4886,4905,4926,4946,4965,4985,5005,5026,5045,5065,5086,5106,5125,5146,5166,5186],"xSR":741.5,"ySR":573.95,"xT1":424.9,"yT1":0,"xT2":1058.1,"yT2":0,"toosoon":0,"cond_shown":"Congruent","ratio_trial":200,"L_num":1,"L_den":2,"R_num":21,"R_den":30,"correct_side":2,"subjID":"Juan Pablo Garcia Gaitan26","gender":"0","school":"4","age":"9"},{"start_time":1552308852881,"click_time":1552308855957,"finger_time":1552308855138,"fix_duration":301.520342259111,"trial":29,"RT":2257,"MT":819,"sideResp":2,"stimulus":[],"xmouse":[823,823,823,823,823,823,823,823,823,823,823,823,823,823,823,823,823,823,823,823,823,823,823,823,823,823,823,823,823,823,823,823,823,823,823,823,823,823,823,823,823,823,823,823,823,823,823,823,823,823,823,823,823,823,823,823,823,823,823,823,823,823,823,823,823,823,823,823,823,823,823,823,823,823,823,823,823,823,823,823,823,823,823,823,823,823,823,823,823,823,823,823,823,823,823,823,823,823,823,823,823,823,823,823,823,823,823,823,823,824,826,835,885,937,992,1048,1095,1161,1186,1209,1231,1250,1270,1302,1325,1338,1350,1353,1357,1357,1354,1345,1324,1318,1311,1301,1294,1277,1267,1261,1255,1251,1241,1237,1233,1231,1229,1220,1216,1210,1198,1180,1165,1148],"ymouse":[626,626,626,626,626,626,626,626,626,626,626,626,626,626,626,626,626,626,626,626,626,626,626,626,626,626,626,626,626,626,626,626,626,626,626,626,626,626,626,626,626,626,626,626,626,626,626,626,626,626,626,626,626,626,626,626,626,626,626,626,626,626,626,626,626,626,626,626,626,626,626,626,626,626,626,626,626,626,626,626,626,626,626,626,626,626,626,626,626,626,626,626,626,626,626,626,626,626,626,626,626,626,626,626,626,626,626,626,626,624,622,612,585,563,540,520,505,482,472,458,445,429,411,364,318,284,243,208,145,119,96,74,43,37,31,25,22,17,15,14,14,14,13,13,13,13,13,13,12,11,11,11,9,15],"timestamp_mouse":[15,47,56,75,96,115,136,155,175,195,215,237,256,276,297,316,336,356,375,396,416,435,456,476,496,516,536,556,577,595,615,637,655,675,695,717,736,755,776,795,816,835,855,876,895,916,935,955,975,997,1015,1036,1057,1076,1095,1116,1135,1156,1176,1195,1216,1236,1257,1275,1295,1315,1335,1355,1375,1396,1415,1435,1456,1477,1496,1515,1537,1557,1576,1596,1615,1637,1656,1676,1695,1717,1736,1756,1776,1796,1815,1835,1855,1876,1896,1916,1935,1956,1977,1996,2016,2036,2055,2077,2095,2115,2136,2155,2175,2195,2216,2236,2257,2275,2296,2315,2335,2357,2375,2396,2415,2436,2455,2476,2495,2516,2536,2557,2575,2596,2617,2637,2657,2675,2696,2715,2735,2757,2775,2796,2815,2836,2857,2875,2896,2916,2935,2956,2975,2997,3015,3035,3055,3075],"xSR":741.5,"ySR":573.95,"xT1":424.9,"yT1":0,"xT2":1058.1,"yT2":0,"toosoon":0,"cond_shown":"Incongruent","ratio_trial":200,"L_num":9,"L_den":15,"R_num":8,"R_den":10,"correct_side":2,"subjID":"Juan Pablo Garcia Gaitan26","gender":"0","school":"4","age":"9"},{"start_time":1552308858217,"click_time":1552308860557,"finger_time":1552308859736,"fix_duration":718.3352610201568,"trial":30,"RT":1519,"MT":821,"sideResp":1,"stimulus":[],"xmouse":[791,791,791,791,791,791,791,791,791,791,791,791,791,791,791,791,791,791,791,791,791,791,791,791,791,791,791,791,791,791,791,791,791,791,791,791,791,791,791,791,791,791,791,791,791,791,791,791,791,791,791,791,791,791,791,791,791,791,791,791,791,791,791,791,791,791,791,791,791,792,793,794,796,798,800,801,801,802,802,790,782,770,753,744,737,730,721,705,695,680,664,612,517,461,419,396,386,383,383,383,383,381,378,377,375,375,374,374,375,376,377,378,378,379,381,393,409,464],"ymouse":[641,641,641,641,641,641,641,641,641,641,641,641,641,641,641,641,641,641,641,641,641,641,641,641,641,641,641,641,641,641,641,641,641,641,641,641,641,641,641,641,641,641,641,641,641,641,641,641,641,641,641,641,641,641,641,641,641,641,641,641,641,641,641,641,641,641,641,641,641,641,638,628,616,607,593,578,560,502,469,401,364,325,266,239,219,199,182,145,124,96,74,18,0,0,0,0,0,0,0,0,0,2,12,17,23,32,43,68,74,78,79,81,81,81,81,81,78,72],"timestamp_mouse":[1,20,41,60,80,100,121,139,160,180,201,220,240,260,281,300,319,339,359,380,399,421,439,459,479,500,519,541,561,580,600,619,640,661,680,700,719,741,759,779,800,820,840,859,880,899,920,941,960,980,1001,1019,1039,1060,1080,1101,1119,1139,1160,1180,1201,1219,1239,1261,1280,1299,1320,1339,1360,1379,1400,1420,1440,1460,1479,1499,1519,1540,1559,1579,1600,1620,1639,1660,1680,1700,1720,1740,1760,1780,1800,1823,1843,1859,1879,1900,1919,1940,1960,1980,1999,2019,2040,2059,2080,2100,2120,2139,2160,2180,2200,2221,2241,2260,2281,2300,2320,2340],"xSR":741.5,"ySR":573.95,"xT1":424.9,"yT1":0,"xT2":1058.1,"yT2":0,"toosoon":0,"cond_shown":"Congruent","ratio_trial":100,"L_num":10,"L_den":25,"R_num":3,"R_den":10,"correct_side":1,"subjID":"Juan Pablo Garcia Gaitan26","gender":"0","school":"4","age":"9"},{"start_time":1552308863374,"click_time":1552308865718,"finger_time":1552308864956,"fix_duration":674.0608030716529,"trial":31,"RT":1582,"MT":762,"sideResp":1,"stimulus":[],"xmouse":[820,820,820,820,820,820,820,819,818,818,818,818,818,818,818,818,818,818,818,818,818,818,818,818,818,818,818,818,818,818,818,818,818,818,818,818,818,818,818,818,818,818,818,818,818,818,818,818,818,818,818,818,818,818,818,818,818,818,818,818,818,818,818,818,818,818,818,818,818,818,818,818,818,818,818,817,813,810,804,793,788,781,768,743,687,660,631,611,596,583,581,576,571,567,552,546,542,541,541,541,541,541,541,541,541,541,541,541,541,541,541,541,541,541,539,533,527,516],"ymouse":[622,622,622,622,622,622,622,623,623,623,623,623,623,623,623,623,623,623,623,623,623,623,623,623,623,623,623,623,623,623,623,623,623,623,623,623,623,623,623,623,623,623,623,623,623,623,623,623,623,623,623,623,623,623,623,623,623,623,623,623,623,623,623,623,623,623,623,623,623,623,623,623,623,623,623,622,614,605,597,572,560,540,511,467,377,337,298,270,247,220,205,168,140,116,70,52,40,36,36,36,36,36,36,36,36,36,36,36,36,36,36,36,36,35,28,21,14,4],"timestamp_mouse":[9,22,44,62,83,103,123,143,164,183,203,223,242,263,284,303,323,343,362,382,403,423,442,462,482,502,522,542,562,582,604,623,643,663,682,706,723,743,764,783,803,823,843,863,882,903,922,943,963,983,1002,1022,1042,1063,1084,1102,1124,1143,1162,1183,1204,1222,1243,1264,1282,1303,1322,1342,1362,1382,1402,1422,1443,1464,1483,1503,1522,1542,1563,1582,1602,1622,1642,1662,1683,1703,1724,1744,1763,1782,1802,1822,1843,1862,1882,1904,1923,1942,1964,1982,2002,2022,2042,2062,2082,2103,2122,2142,2163,2182,2202,2223,2243,2262,2282,2303,2322,2344],"xSR":741.5,"ySR":573.95,"xT1":424.9,"yT1":0,"xT2":1058.1,"yT2":0,"toosoon":0,"cond_shown":"Congruent","ratio_trial":100,"L_num":15,"L_den":25,"R_num":13,"R_den":26,"correct_side":1,"subjID":"Juan Pablo Garcia Gaitan26","gender":"0","school":"4","age":"9"},{"start_time":1552308868606,"click_time":1552308872936,"finger_time":1552308871796,"fix_duration":968.6239377118762,"trial":32,"RT":3190,"MT":1140,"sideResp":1,"stimulus":[],"xmouse":[784,784,784,784,784,784,784,784,784,784,784,784,784,784,784,784,784,784,784,784,784,784,784,784,784,784,784,784,784,784,784,784,784,784,784,784,784,784,784,784,784,784,784,784,784,784,784,784,784,784,784,784,784,784,784,784,784,784,784,784,784,784,784,784,784,784,784,784,784,784,784,784,784,784,784,784,784,784,784,784,784,784,784,784,784,784,784,784,784,784,784,784,784,784,784,784,784,784,784,784,784,784,784,784,784,784,784,784,784,784,784,784,784,784,784,784,784,784,784,784,784,784,784,784,784,784,784,784,784,784,784,784,784,784,784,784,784,784,784,784,784,784,784,784,784,784,784,784,784,784,784,784,784,784,786,787,789,798,800,807,812,817,817,807,794,782,770,752,740,725,708,684,647,635,629,626,623,622,622,622,622,622,622,622,621,621,620,620,620,618,617,613,604,599,595,591,590,577,574,572,572,571,569,569,567,565,561,556,554,550,549,548,546,542,536,527,515],"ymouse":[630,630,630,630,630,630,630,630,630,630,630,630,630,630,630,630,630,630,630,630,630,630,630,630,630,630,630,630,630,630,630,630,630,630,630,630,630,630,630,630,630,630,630,630,630,630,630,630,630,630,630,630,630,630,630,630,630,630,630,630,630,630,630,630,630,630,630,630,630,630,630,630,630,630,630,630,630,630,630,630,630,630,630,630,630,630,630,630,630,630,630,630,630,630,630,630,630,630,630,630,630,630,630,630,630,630,630,630,630,630,630,630,630,630,630,630,630,630,630,630,630,630,630,630,630,630,630,630,630,630,630,630,630,630,630,630,630,630,630,630,630,630,630,630,630,630,630,630,630,630,630,630,630,629,629,626,622,596,589,556,526,433,376,318,274,240,214,179,154,130,105,78,42,32,27,24,21,20,20,20,20,20,20,20,20,20,20,20,20,20,20,20,20,20,20,20,20,27,29,31,31,34,37,38,39,41,45,47,48,50,51,51,51,51,51,49,46],"timestamp_mouse":[13,34,51,70,90,112,130,150,170,190,212,230,251,271,292,311,331,352,371,390,411,430,450,470,492,511,530,552,571,590,611,631,650,670,690,711,731,751,772,791,810,831,850,871,890,912,931,951,971,992,1011,1031,1051,1071,1091,1110,1130,1151,1171,1190,1210,1230,1251,1271,1291,1310,1332,1351,1371,1390,1411,1432,1452,1471,1490,1510,1530,1550,1571,1592,1612,1631,1651,1670,1692,1710,1732,1750,1771,1792,1810,1830,1851,1870,1890,1911,1930,1950,1971,1991,2011,2031,2050,2072,2092,2110,2130,2152,2170,2190,2211,2232,2251,2272,2291,2310,2331,2351,2372,2392,2411,2431,2451,2471,2491,2510,2531,2550,2570,2591,2610,2631,2652,2670,2691,2710,2732,2751,2770,2791,2812,2831,2851,2871,2891,2911,2931,2951,2970,2991,3011,3031,3050,3070,3091,3110,3131,3151,3171,3190,3210,3231,3250,3270,3291,3310,3330,3350,3370,3391,3411,3430,3451,3471,3491,3512,3532,3551,3570,3591,3611,3631,3650,3670,3690,3711,3730,3750,3770,3791,3812,3830,3850,3870,3890,3911,3930,3950,3971,3992,4010,4030,4051,4071,4090,4110,4132,4150,4171,4190,4211,4231,4250,4270,4291,4311,4330],"xSR":741.5,"ySR":573.95,"xT1":424.9,"yT1":0,"xT2":1058.1,"yT2":0,"toosoon":0,"cond_shown":"Congruent","ratio_trial":100,"L_num":1,"L_den":2,"R_num":3,"R_den":5,"correct_side":2,"subjID":"Juan Pablo Garcia Gaitan26","gender":"0","school":"4","age":"9"},{"start_time":1552308878146,"click_time":1552308882457,"finger_time":1552308879636,"fix_duration":309.82837134057974,"trial":33,"RT":1490,"MT":2821,"sideResp":2,"stimulus":[],"xmouse":[751,751,751,751,751,751,751,751,751,751,751,751,751,751,751,751,751,751,751,751,751,751,751,751,751,751,751,751,751,751,751,751,751,751,751,751,751,751,751,751,751,751,751,751,751,751,751,751,751,751,751,751,751,751,751,751,751,751,751,751,751,751,751,751,751,751,751,751,751,751,751,751,751,776,888,1217,1217,1217,1217,1217,1217,1217,1217,1217,1217,1217,1217,1217,1217,1217,1217,1217,1217,1217,1217,1217,1217,1217,1217,1217,1217,1217,1217,1217,1217,1217,1217,1217,1217,1217,1217,1217,1217,1217,1217,1217,1217,1217,1217,1217,1217,1217,1217,1217,1217,1217,1217,1217,1217,1217,1217,1217,1217,1217,1217,1217,1217,1217,1217,1217,1217,1217,1217,1217,1217,1217,1217,1217,1217,1575,1525,1511,1508,1508,1508,1509,1509,1509,1509,1509,1511,1511,1511,1511,1511,1511,1511,1510,1509,1509,1508,1509,1518,1531,1547,1575,1575,1575,1575,1575,1575,1575,1575,1575,1575,1575,1575,1575,1575,1556,1501,1487,1478,1474,1471,1464,1460,1457,1453,1448,1430,1411,1397,1384,1353,1341,1327,1311,1295,1278,1239,1219,1206,1195,1180,1151],"ymouse":[643,643,643,643,643,643,643,643,643,643,643,643,643,643,643,643,643,643,643,643,643,643,643,643,643,643,643,643,643,643,643,643,643,643,643,643,643,643,643,643,643,643,643,643,643,643,643,643,643,643,643,643,643,643,643,643,643,643,643,643,643,643,643,643,643,643,643,643,643,643,643,643,643,642,623,580,580,580,580,580,580,580,580,580,580,580,580,580,580,580,580,580,580,580,580,580,580,580,580,580,580,580,580,580,580,580,580,580,580,580,580,580,580,580,580,580,580,580,580,580,580,580,580,580,580,580,580,580,580,580,580,580,580,580,580,580,580,580,580,580,580,580,580,580,580,580,580,580,580,476,483,485,487,487,488,488,488,488,488,488,488,488,488,488,488,488,488,488,488,488,488,484,471,457,445,437,437,437,437,437,437,437,437,437,437,437,437,437,166,110,0,0,0,0,0,0,0,0,0,0,0,0,0,0,0,0,0,0,0,2,7,10,12,13,15,19],"timestamp_mouse":[10,44,50,72,91,111,131,151,172,191,212,231,250,271,290,311,332,351,371,391,410,431,451,471,492,511,530,550,570,591,611,631,650,670,691,710,730,750,772,791,810,832,850,871,892,912,931,951,970,991,1011,1031,1051,1071,1091,1110,1130,1151,1171,1190,1212,1231,1251,1272,1292,1310,1332,1352,1370,1391,1411,1431,1450,1470,1490,1511,1531,1551,1570,1592,1610,1631,1652,1671,1690,1710,1731,1751,1772,1792,1811,1830,1851,1872,1890,1911,1930,1950,1970,1991,2010,2030,2051,2070,2092,2111,2131,2151,2170,2191,2210,2230,2250,2270,2291,2311,2330,2351,2371,2391,2410,2431,2451,2471,2490,2510,2531,2552,2571,2590,2611,2630,2651,2671,2691,2710,2731,2751,2771,2791,2811,2831,2850,2872,2891,2911,2931,2950,2970,2991,3011,3031,3052,3071,3090,3110,3131,3151,3171,3190,3210,3231,3250,3271,3290,3310,3331,3351,3372,3391,3411,3431,3450,3471,3491,3510,3531,3551,3570,3592,3610,3630,3650,3671,3691,3710,3731,3750,3771,3790,3810,3830,3852,3871,3890,3910,3930,3950,3970,3992,4011,4030,4051,4072,4094,4112,4130,4150,4170,4192,4210,4231,4251,4270,4291,4311],"xSR":741.5,"ySR":573.95,"xT1":424.9,"yT1":0,"xT2":1058.1,"yT2":0,"toosoon":0,"cond_shown":"Congruent","ratio_trial":100,"L_num":6,"L_den":12,"R_num":15,"R_den":25,"correct_side":2,"subjID":"Juan Pablo Garcia Gaitan26","gender":"0","school":"4","age":"9"},{"start_time":1552308890106,"click_time":1552308892217,"finger_time":1552308891897,"fix_duration":265.16278201636345,"trial":34,"RT":1791,"MT":320,"sideResp":1,"stimulus":[],"xmouse":[815,815,815,814,814,814,814,814,814,814,813,810,810,810,810,810,810,810,810,810,810,810,810,810,810,810,810,810,810,810,810,810,810,810,810,810,810,810,810,810,810,810,810,810,810,810,810,810,810,810,810,810,810,810,810,810,810,810,810,810,810,810,810,810,810,810,810,810,810,810,810,810,810,810,810,810,810,810,810,810,810,810,810,810,810,810,810,810,829,867,889,881,836,769,748,670,610,534,516,504,496,491,479,463,451,439],"ymouse":[632,632,632,632,632,632,632,632,632,632,632,634,634,634,634,634,634,634,634,634,634,634,634,634,634,634,634,634,634,634,634,634,634,634,634,634,634,634,634,634,634,634,634,634,634,634,634,634,634,634,634,634,634,634,634,634,634,634,634,634,634,634,634,634,634,634,634,634,634,634,634,634,634,634,634,634,634,634,634,634,634,634,634,634,634,634,634,628,586,484,370,286,151,54,24,0,0,0,0,0,0,0,0,0,0,5],"timestamp_mouse":[11,44,51,71,91,113,133,151,172,193,213,233,252,271,291,311,332,352,371,392,413,432,452,472,492,511,532,551,571,592,613,632,652,671,692,713,732,753,771,791,811,832,851,871,892,912,932,952,971,993,1012,1032,1052,1072,1093,1112,1131,1152,1171,1192,1211,1231,1252,1271,1291,1311,1331,1351,1371,1391,1412,1431,1453,1471,1493,1512,1531,1551,1573,1591,1612,1633,1653,1672,1692,1712,1733,1752,1773,1791,1812,1832,1851,1871,1892,1912,1933,1952,1971,1992,2011,2031,2052,2072,2091,2111],"xSR":741.5,"ySR":573.95,"xT1":424.9,"yT1":0,"xT2":1058.1,"yT2":0,"toosoon":0,"cond_shown":"Incongruent","ratio_trial":200,"L_num":7,"L_den":10,"R_num":14,"R_den":28,"correct_side":1,"subjID":"Juan Pablo Garcia Gaitan26","gender":"0","school":"4","age":"9"},{"start_time":1552308894245,"click_time":1552308896979,"finger_time":1552308895638,"fix_duration":704.339839647