[{"start_time":1552309565618,"click_time":1552309567539,"finger_time":1552309565624,"fix_duration":255.7816415601155,"trial":0,"RT":6,"MT":1915,"sideResp":1,"stimulus":"img/900/randomdotsizeEA/R/13_Ratio_900_L_18_R_20.png","xmouse":[750,750,750,750,750,750,750,750,750,751,753,756,757,757,757,757,757,757,757,757,757,757,757,757,757,757,757,757,757,757,757,757,757,757,757,759,763,767,775,789,795,801,806,808,809,809,809,809,809,809,809,809,809,808,808,806,805,803,802,799,798,796,795,793,793,793,793,792,792,789,789,789,789,789,789,789,789,789,789,789,789,789,789,789,789,789,789,789,789,776,750,703,655,605,543,531,521],"ymouse":[575,575,575,575,575,575,575,575,575,575,575,575,575,575,575,575,575,575,575,575,575,575,575,575,575,575,575,575,575,575,575,575,575,575,575,574,572,570,563,550,543,532,522,513,505,504,502,501,501,501,501,501,501,501,501,501,501,501,501,501,501,501,501,501,501,501,501,502,502,503,503,503,503,503,503,503,503,503,503,503,503,503,503,503,503,503,503,503,503,488,448,385,314,246,126,96,77],"timestamp_mouse":[6,20,39,59,79,99,120,141,160,180,199,219,241,260,279,300,319,340,361,380,400,420,440,460,479,500,521,540,561,581,601,620,640,660,679,700,720,740,759,779,799,821,839,860,879,899,919,939,959,979,999,1021,1040,1060,1080,1100,1120,1140,1160,1180,1200,1220,1239,1261,1280,1300,1319,1341,1361,1380,1400,1420,1439,1460,1479,1501,1519,1539,1560,1581,1599,1621,1641,1660,1679,1700,1720,1739,1759,1779,1799,1819,1839,1859,1879,1900,1920],"xSR":741.5,"ySR":501.8,"xT1":424.9,"yT1":0,"xT2":1058.1,"yT2":0,"toosoon":0,"cond_shown":"randomdotsizeEA","ratio_trial":900,"smaller_num":"18","larger_num":"20","correct_side":2,"subjID":"Juan Pablo Garia Gaitan 26","gender":"4","age":"9","school":"9","test":{"fix_dur":[250,1500],"timestim":300,"targets_dim":[100,100],"targets_relative_coord":[0.3,0.7],"size_stim":[880,420],"start_dim":[100,100],"size_start":[300,300],"size_fix":60,"samplingrate":20,"img_types":["equaldotsize","equaldotanddens","randomdotsizeEA"],"ratios":[250,500,750,900],"rep_conds":9,"nTrials":120,"trials_to_rest":500,"Trials_order":[83,54,25,51,2,65,73,50,45,108,92,60,1,72,38,77,68,20,0,3,24,118,42,9,67,13,66,74,79,97,6,12,110,101,15,78,102,106,63,29,17,103,61,114,4,84,71,100,56,52,107,109,28,111,44,88,27,59,21,113,75,105,19,10,85,32,70,62,31,80,16,33,81,64,23,49,43,87,112,39,99,117,14,30,82,40,90,8,58,47,69,48,86,18,41,35,116,91,95,36,22,46,11,119,5,104,89,37,7,115,55,26,93,76,94,53,98,57,96,34],"cond_shown":["randomdotsizeEA","equaldotsize","equaldotanddens","equaldotsize","randomdotsizeEA","randomdotsizeEA","equaldotanddens","randomdotsizeEA","equaldotsize","equaldotsize","randomdotsizeEA","equaldotsize","equaldotanddens","equaldotsize","randomdotsizeEA","randomdotsizeEA","randomdotsizeEA","randomdotsizeEA","equaldotsize","equaldotsize","equaldotsize","equaldotanddens","equaldotsize","equaldotsize","equaldotanddens","equaldotanddens","equaldotsize","randomdotsizeEA","equaldotanddens","equaldotanddens","equaldotsize","equaldotsize","randomdotsizeEA","randomdotsizeEA","equaldotsize","equaldotsize","equaldotsize","equaldotanddens","equaldotsize","randomdotsizeEA","randomdotsizeEA","equaldotanddens","equaldotanddens","equaldotsize","equaldotanddens","equaldotsize","randomdotsizeEA","equaldotanddens","randomdotsizeEA","equaldotanddens","randomdotsizeEA","equaldotanddens","equaldotanddens","equaldotsize","randomdotsizeEA","equaldotanddens","equaldotsize","randomdotsizeEA","equaldotsize","randomdotsizeEA","equaldotsize","equaldotsize","equaldotanddens","equaldotanddens","equaldotanddens","randomdotsizeEA","equaldotanddens","randomdotsizeEA","equaldotanddens","randomdotsizeEA","equaldotanddens","equaldotsize","equaldotsize","equaldotanddens","randomdotsizeEA","equaldotanddens","equaldotanddens","equaldotsize","equaldotanddens","equaldotsize","equaldotsize","equaldotsize","randomdotsizeEA","equaldotsize","equaldotanddens","equaldotanddens","equaldotsize","randomdotsizeEA","equaldotanddens","randomdotsizeEA","equaldotsize","equaldotsize","randomdotsizeEA","equaldotsize","randomdotsizeEA","randomdotsizeEA","randomdotsizeEA","equaldotanddens","randomdotsizeEA","equaldotsize","equaldotanddens","equaldotanddens","randomdotsizeEA","randomdotsizeEA","randomdotsizeEA","randomdotsizeEA","randomdotsizeEA","equaldotanddens","equaldotanddens","equaldotanddens","equaldotanddens","randomdotsizeEA","equaldotsize","equaldotanddens","equaldotanddens","randomdotsizeEA","randomdotsizeEA","equaldotsize","equaldotsize","equaldotanddens"],"ratio_trial":[900,750,250,500,250,500,250,250,900,250,750,250,250,250,250,500,750,750,250,500,250,900,750,900,750,250,750,250,750,250,750,250,250,500,500,750,750,900,500,500,500,750,250,750,500,250,900,500,750,500,900,250,500,500,750,500,500,900,900,500,500,900,750,900,250,750,900,250,750,750,500,900,900,500,900,250,750,500,500,500,500,900,250,750,900,500,750,750,900,900,900,250,250,750,500,900,750,750,900,250,900,900,900,900,500,750,500,250,750,750,750,250,900,500,900,500,250,900,250,900],"smaller_num":["18","18","1","6","2","10","2","2","18","1","3","6","1","2","2","3","15","6","1","9","3","18","12","9","6","3","3","2","3","6","18","5","6","2","5","12","6","18","2","2","4","15","2","15","5","3","18","3","3","6","18","2","2","1","15","6","2","9","9","10","5","18","6","18","4","6","18","2","12","18","6","18","9","3","18","3","15","9","2","6","2","9","3","15","18","4","6","6","18","18","9","6","4","3","9","18","9","3","18","2","18","9","9","9","1","3","1","3","3","6","6","3","18","1","18","5","2","18","3","18"],"larger_num":["20","24","4","12","8","20","8","8","20","4","4","24","4","8","8","6","20","8","4","18","12","20","16","10","8","12","4","8","4","24","24","20","24","4","10","16","8","20","4","4","8","20","8","20","10","12","20","6","4","12","20","8","4","2","20","12","4","10","10","20","10","20","8","20","16","8","20","8","16","24","12","20","10","6","20","12","20","18","4","12","4","10","12","20","20","8","8","8","20","20","10","24","16","4","18","20","12","4","20","8","20","10","10","10","2","4","2","12","4","8","8","12","20","2","20","10","8","20","12","20"],"correct_side":[2,1,2,1,1,2,1,1,1,2,2,1,2,1,1,2,2,1,2,2,2,1,2,1,1,1,1,1,1,1,1,2,1,1,1,2,1,2,2,1,1,1,2,2,2,2,1,2,1,1,1,1,2,2,2,1,2,2,2,2,1,1,1,1,1,1,2,1,2,1,1,1,1,2,1,2,2,1,2,1,2,1,1,2,1,1,1,1,1,1,2,1,1,1,2,2,2,1,1,2,1,1,2,2,2,1,2,2,2,1,2,1,1,2,1,2,1,2,2,2],"img_shown":["img/900/randomdotsizeEA/R/13_Ratio_900_L_18_R_20.png","img/750/equaldotsize/L/6_Ratio_750_L_24_R_18.png","img/250/equaldotanddens/R/8_Ratio_250_L_1_R_4.png","img/500/equaldotsize/L/13_Ratio_500_L_12_R_6.png","img/250/randomdotsizeEA/L/7_Ratio_250_L_8_R_2.png","img/500/randomdotsizeEA/R/3_Ratio_500_L_10_R_20.png","img/250/equaldotanddens/L/7_Ratio_250_L_8_R_2.png","img/250/randomdotsizeEA/L/3_Ratio_250_L_8_R_2.png","img/900/equaldotsize/L/10_Ratio_900_L_20_R_18.png","img/250/equaldotsize/R/8_Ratio_250_L_1_R_4.png","img/750/randomdotsizeEA/R/12_Ratio_750_L_3_R_4.png","img/250/equaldotsize/L/5_Ratio_250_L_24_R_6.png","img/250/equaldotanddens/R/8_Ratio_250_L_1_R_4.png","img/250/equaldotsize/L/3_Ratio_250_L_8_R_2.png","img/250/randomdotsizeEA/L/3_Ratio_250_L_8_R_2.png","img/500/randomdotsizeEA/R/2_Ratio_500_L_3_R_6.png","img/750/randomdotsizeEA/R/3_Ratio_750_L_15_R_20.png","img/750/randomdotsizeEA/L/13_Ratio_750_L_8_R_6.png","img/250/equaldotsize/R/8_Ratio_250_L_1_R_4.png","img/500/equaldotsize/R/6_Ratio_500_L_9_R_18.png","img/250/equaldotsize/R/4_Ratio_250_L_3_R_12.png","img/900/equaldotanddens/L/4_Ratio_900_L_20_R_18.png","img/750/equaldotsize/R/11_Ratio_750_L_12_R_16.png","img/900/equaldotsize/L/1_Ratio_900_L_10_R_9.png","img/750/equaldotanddens/L/13_Ratio_750_L_8_R_6.png","img/250/equaldotanddens/L/14_Ratio_250_L_12_R_3.png","img/750/equaldotsize/L/10_Ratio_750_L_4_R_3.png","img/250/randomdotsizeEA/L/1_Ratio_250_L_8_R_2.png","img/750/equaldotanddens/L/10_Ratio_750_L_4_R_3.png","img/250/equaldotanddens/L/5_Ratio_250_L_24_R_6.png","img/750/equaldotsize/L/6_Ratio_750_L_24_R_18.png","img/250/equaldotsize/R/12_Ratio_250_L_5_R_20.png","img/250/randomdotsizeEA/L/5_Ratio_250_L_24_R_6.png","img/500/randomdotsizeEA/L/5_Ratio_500_L_4_R_2.png","img/500/equaldotsize/L/7_Ratio_500_L_10_R_5.png","img/750/equaldotsize/R/11_Ratio_750_L_12_R_16.png","img/750/equaldotsize/L/13_Ratio_750_L_8_R_6.png","img/900/equaldotanddens/R/12_Ratio_900_L_18_R_20.png","img/500/equaldotsize/R/9_Ratio_500_L_2_R_4.png","img/500/randomdotsizeEA/L/5_Ratio_500_L_4_R_2.png","img/500/randomdotsizeEA/L/8_Ratio_500_L_8_R_4.png","img/750/equaldotanddens/L/1_Ratio_750_L_20_R_15.png","img/250/equaldotanddens/R/13_Ratio_250_L_2_R_8.png","img/750/equaldotsize/R/5_Ratio_750_L_15_R_20.png","img/500/equaldotanddens/R/14_Ratio_500_L_5_R_10.png","img/250/equaldotsize/R/11_Ratio_250_L_3_R_12.png","img/900/randomdotsizeEA/L/8_Ratio_900_L_20_R_18.png","img/500/equaldotanddens/R/2_Ratio_500_L_3_R_6.png","img/750/randomdotsizeEA/L/10_Ratio_750_L_4_R_3.png","img/500/equaldotanddens/L/13_Ratio_500_L_12_R_6.png","img/900/randomdotsizeEA/L/10_Ratio_900_L_20_R_18.png","img/250/equaldotanddens/L/7_Ratio_250_L_8_R_2.png","img/500/equaldotanddens/R/9_Ratio_500_L_2_R_4.png","img/500/equaldotsize/R/12_Ratio_500_L_1_R_2.png","img/750/randomdotsizeEA/R/4_Ratio_750_L_15_R_20.png","img/500/equaldotanddens/L/11_Ratio_500_L_12_R_6.png","img/500/equaldotsize/R/9_Ratio_500_L_2_R_4.png","img/900/randomdotsizeEA/R/6_Ratio_900_L_9_R_10.png","img/900/equaldotsize/R/6_Ratio_900_L_9_R_10.png","img/500/randomdotsizeEA/R/3_Ratio_500_L_10_R_20.png","img/500/equaldotsize/L/7_Ratio_500_L_10_R_5.png","img/900/equaldotsize/L/8_Ratio_900_L_20_R_18.png","img/750/equaldotanddens/L/14_Ratio_750_L_8_R_6.png","img/900/equaldotanddens/L/4_Ratio_900_L_20_R_18.png","img/250/equaldotanddens/L/2_Ratio_250_L_16_R_4.png","img/750/randomdotsizeEA/L/13_Ratio_750_L_8_R_6.png","img/900/equaldotanddens/R/14_Ratio_900_L_18_R_20.png","img/250/randomdotsizeEA/L/7_Ratio_250_L_8_R_2.png","img/750/equaldotanddens/R/11_Ratio_750_L_12_R_16.png","img/750/randomdotsizeEA/L/6_Ratio_750_L_24_R_18.png","img/500/equaldotanddens/L/13_Ratio_500_L_12_R_6.png","img/900/equaldotsize/L/4_Ratio_900_L_20_R_18.png","img/900/equaldotsize/L/1_Ratio_900_L_10_R_9.png","img/500/equaldotanddens/R/2_Ratio_500_L_3_R_6.png","img/900/randomdotsizeEA/L/8_Ratio_900_L_20_R_18.png","img/250/equaldotanddens/R/11_Ratio_250_L_3_R_12.png","img/750/equaldotanddens/R/3_Ratio_750_L_15_R_20.png","img/500/equaldotsize/L/4_Ratio_500_L_18_R_9.png","img/500/equaldotanddens/R/9_Ratio_500_L_2_R_4.png","img/500/equaldotsize/L/13_Ratio_500_L_12_R_6.png","img/500/equaldotsize/R/9_Ratio_500_L_2_R_4.png","img/900/equaldotsize/L/1_Ratio_900_L_10_R_9.png","img/250/randomdotsizeEA/L/14_Ratio_250_L_12_R_3.png","img/750/equaldotsize/R/3_Ratio_750_L_15_R_20.png","img/900/equaldotanddens/L/4_Ratio_900_L_20_R_18.png","img/500/equaldotanddens/L/8_Ratio_500_L_8_R_4.png","img/750/equaldotsize/L/13_Ratio_750_L_8_R_6.png","img/750/randomdotsizeEA/L/14_Ratio_750_L_8_R_6.png","img/900/equaldotanddens/L/2_Ratio_900_L_20_R_18.png","img/900/randomdotsizeEA/L/8_Ratio_900_L_20_R_18.png","img/900/equaldotsize/R/3_Ratio_900_L_9_R_10.png","img/250/equaldotsize/L/5_Ratio_250_L_24_R_6.png","img/250/randomdotsizeEA/L/2_Ratio_250_L_16_R_4.png","img/750/equaldotsize/L/9_Ratio_750_L_4_R_3.png","img/500/randomdotsizeEA/R/6_Ratio_500_L_9_R_18.png","img/900/randomdotsizeEA/R/13_Ratio_900_L_18_R_20.png","img/750/randomdotsizeEA/R/15_Ratio_750_L_9_R_12.png","img/750/equaldotanddens/L/10_Ratio_750_L_4_R_3.png","img/900/randomdotsizeEA/L/2_Ratio_900_L_20_R_18.png","img/250/equaldotsize/R/13_Ratio_250_L_2_R_8.png","img/900/equaldotanddens/L/4_Ratio_900_L_20_R_18.png","img/900/equaldotanddens/L/1_Ratio_900_L_10_R_9.png","img/900/randomdotsizeEA/R/5_Ratio_900_L_9_R_10.png","img/900/randomdotsizeEA/R/15_Ratio_900_L_9_R_10.png","img/500/randomdotsizeEA/R/12_Ratio_500_L_1_R_2.png","img/750/randomdotsizeEA/L/10_Ratio_750_L_4_R_3.png","img/500/randomdotsizeEA/R/15_Ratio_500_L_1_R_2.png","img/250/equaldotanddens/R/4_Ratio_250_L_3_R_12.png","img/750/equaldotanddens/R/12_Ratio_750_L_3_R_4.png","img/750/equaldotanddens/L/13_Ratio_750_L_8_R_6.png","img/750/equaldotanddens/R/2_Ratio_750_L_6_R_8.png","img/250/randomdotsizeEA/L/15_Ratio_250_L_12_R_3.png","img/900/equaldotsize/L/8_Ratio_900_L_20_R_18.png","img/500/equaldotanddens/R/12_Ratio_500_L_1_R_2.png","img/900/equaldotanddens/L/4_Ratio_900_L_20_R_18.png","img/500/randomdotsizeEA/R/14_Ratio_500_L_5_R_10.png","img/250/randomdotsizeEA/L/1_Ratio_250_L_8_R_2.png","img/900/equaldotsize/R/11_Ratio_900_L_18_R_20.png","img/250/equaldotsize/R/9_Ratio_250_L_3_R_12.png","img/900/equaldotanddens/R/11_Ratio_900_L_18_R_20.png"],"Rat0":[["12_Ratio_0_L_9_R_0.png","13_Ratio_0_L_6_R_0.png","5_Ratio_0_L_2_R_0.png","6_Ratio_0_L_4_R_0.png","8_Ratio_0_L_6_R_0.png"],["1_Ratio_0_L_0_R_17.png","10_Ratio_0_L_0_R_22.png","11_Ratio_0_L_0_R_1.png","14_Ratio_0_L_0_R_24.png","15_Ratio_0_L_0_R_4.png","2_Ratio_0_L_0_R_5.png","3_Ratio_0_L_0_R_17.png","4_Ratio_0_L_0_R_7.png","7_Ratio_0_L_0_R_19.png","9_Ratio_0_L_0_R_15.png"]],"Rat250":[["1_Ratio_250_L_8_R_2.png","14_Ratio_250_L_12_R_3.png","15_Ratio_250_L_12_R_3.png","2_Ratio_250_L_16_R_4.png","3_Ratio_250_L_8_R_2.png","5_Ratio_250_L_24_R_6.png","7_Ratio_250_L_8_R_2.png"],["10_Ratio_250_L_4_R_16.png","11_Ratio_250_L_3_R_12.png","12_Ratio_250_L_5_R_20.png","13_Ratio_250_L_2_R_8.png","4_Ratio_250_L_3_R_12.png","6_Ratio_250_L_6_R_24.png","8_Ratio_250_L_1_R_4.png","9_Ratio_250_L_3_R_12.png"]],"Rat500":[["10_Ratio_500_L_4_R_2.png","11_Ratio_500_L_12_R_6.png","13_Ratio_500_L_12_R_6.png","4_Ratio_500_L_18_R_9.png","5_Ratio_500_L_4_R_2.png","7_Ratio_500_L_10_R_5.png","8_Ratio_500_L_8_R_4.png"],["1_Ratio_500_L_9_R_18.png","12_Ratio_500_L_1_R_2.png","14_Ratio_500_L_5_R_10.png","15_Ratio_500_L_1_R_2.png","2_Ratio_500_L_3_R_6.png","3_Ratio_500_L_10_R_20.png","6_Ratio_500_L_9_R_18.png","9_Ratio_500_L_2_R_4.png"]],"Rat750":[["1_Ratio_750_L_20_R_15.png","10_Ratio_750_L_4_R_3.png","13_Ratio_750_L_8_R_6.png","14_Ratio_750_L_8_R_6.png","6_Ratio_750_L_24_R_18.png","8_Ratio_750_L_4_R_3.png","9_Ratio_750_L_4_R_3.png"],["11_Ratio_750_L_12_R_16.png","12_Ratio_750_L_3_R_4.png","15_Ratio_750_L_9_R_12.png","2_Ratio_750_L_6_R_8.png","3_Ratio_750_L_15_R_20.png","4_Ratio_750_L_15_R_20.png","5_Ratio_750_L_15_R_20.png","7_Ratio_750_L_3_R_4.png"]],"Rat900":[["1_Ratio_900_L_10_R_9.png","10_Ratio_900_L_20_R_18.png","2_Ratio_900_L_20_R_18.png","4_Ratio_900_L_20_R_18.png","8_Ratio_900_L_20_R_18.png"],["11_Ratio_900_L_18_R_20.png","12_Ratio_900_L_18_R_20.png","13_Ratio_900_L_18_R_20.png","14_Ratio_900_L_18_R_20.png","15_Ratio_900_L_9_R_10.png","3_Ratio_900_L_9_R_10.png","5_Ratio_900_L_9_R_10.png","6_Ratio_900_L_9_R_10.png","7_Ratio_900_L_9_R_10.png","9_Ratio_900_L_18_R_20.png"]],"Rat1000":[["10_Ratio_1000_L_16_R_16.png","11_Ratio_1000_L_6_R_6.png","12_Ratio_1000_L_14_R_14.png","13_Ratio_1000_L_20_R_20.png","15_Ratio_1000_L_15_R_15.png","2_Ratio_1000_L_17_R_17.png","4_Ratio_1000_L_9_R_9.png","5_Ratio_1000_L_6_R_6.png","6_Ratio_1000_L_19_R_19.png","8_Ratio_1000_L_14_R_14.png","9_Ratio_1000_L_25_R_25.png"],["1_Ratio_1000_L_1_R_1.png","14_Ratio_1000_L_17_R_17.png","3_Ratio_1000_L_17_R_17.png","7_Ratio_1000_L_6_R_6.png"]]}},{"start_time":1552309571600,"click_time":1552309572698,"finger_time":1552309572378,"fix_duration":919.5160836503505,"trial":1,"RT":778,"MT":320,"sideResp":2,"stimulus":"img/750/equaldotsize/L/6_Ratio_750_L_24_R_18.png","xmouse":[781,781,781,781,781,781,781,781,781,781,781,781,781,781,781,781,781,781,781,781,781,781,781,781,781,781,781,781,781,781,781,781,781,781,781,784,788,802,893,926,943,953,958,960,962,963,966,971,982,1008,1019,1029,1045,1063,1094],"ymouse":[501,501,501,501,501,501,501,501,501,501,501,501,501,501,501,501,501,501,501,501,501,501,501,501,501,501,501,501,501,501,501,501,501,501,501,499,497,491,441,389,344,314,297,292,289,287,281,271,250,211,197,180,152,131,95],"timestamp_mouse":[17,37,73,78,97,117,137,158,177,199,218,238,257,279,298,317,338,358,377,398,418,437,458,479,498,519,538,557,578,598,618,637,658,679,698,718,737,757,778,797,818,838,858,877,897,918,937,958,978,997,1018,1038,1057,1078,1097],"xSR":741.5,"ySR":469.95,"xT1":424.9,"yT1":0,"xT2":1058.1,"yT2":0,"toosoon":0,"cond_shown":"equaldotsize","ratio_trial":750,"smaller_num":"18","larger_num":"24","correct_side":1,"subjID":"Juan Pablo Garia Gaitan 26","gender":"4","age":"9","school":"9"},{"start_time":1552309574790,"click_time":1552309575957,"finger_time":1552309575298,"fix_duration":989.1502519991525,"trial":2,"RT":508,"MT":659,"sideResp":2,"stimulus":"img/250/equaldotanddens/R/8_Ratio_250_L_1_R_4.png","xmouse":[802,802,802,802,802,802,802,802,802,802,802,802,802,802,802,802,802,802,802,802,802,802,802,803,803,790,779,768,762,760,760,760,760,760,760,774,813,869,936,954,1011,1027,1047,1077,1117,1169,1183,1193,1201,1209,1217,1217,1217,1214,1198,1190,1179,1168,1153],"ymouse":[483,483,483,483,483,483,483,483,483,483,483,483,483,483,483,483,483,483,483,483,483,483,483,483,482,466,459,453,451,451,451,451,451,451,451,449,440,421,389,379,335,317,294,266,236,201,189,181,171,157,129,114,102,92,69,60,54,50,44],"timestamp_mouse":[9,27,47,69,87,107,129,148,167,189,208,228,248,267,287,307,328,348,367,387,409,428,448,467,488,508,528,547,567,589,608,629,647,667,688,708,729,748,768,788,807,827,847,868,888,907,927,947,967,987,1007,1028,1047,1067,1089,1108,1128,1148,1167],"xSR":741.5,"ySR":469.95,"xT1":424.9,"yT1":0,"xT2":1058.1,"yT2":0,"toosoon":0,"cond_shown":"equaldotanddens","ratio_trial":250,"smaller_num":"1","larger_num":"4","correct_side":2,"subjID":"Juan Pablo Garia Gaitan 26","gender":"4","age":"9","school":"9"},{"start_time":1552309577952,"click_time":1552309578937,"finger_time":1552309578599,"fix_duration":790.1367006617652,"trial":3,"RT":647,"MT":338,"sideResp":1,"stimulus":"img/500/equaldotsize/L/13_Ratio_500_L_12_R_6.png","xmouse":[798,798,798,798,798,798,798,798,798,798,798,798,798,798,798,798,798,798,798,798,798,798,798,798,798,798,798,798,798,798,798,794,745,705,667,624,593,572,570,568,565,562,562,562,562,562,562,550,532,513],"ymouse":[534,534,534,534,534,534,534,534,534,534,534,534,534,534,534,534,534,534,534,534,534,534,534,534,534,534,534,534,534,534,533,519,428,358,292,229,185,141,130,121,108,82,64,62,62,62,62,53,40,25],"timestamp_mouse":[10,25,54,66,85,105,126,145,167,187,205,225,246,266,286,305,327,346,365,385,406,427,446,467,485,505,526,545,565,585,606,625,647,665,687,706,727,746,766,786,805,825,846,866,887,906,926,945,965,985],"xSR":741.5,"ySR":469.95,"xT1":424.9,"yT1":0,"xT2":1058.1,"yT2":0,"toosoon":0,"cond_shown":"equaldotsize","ratio_trial":500,"smaller_num":"6","larger_num":"12","correct_side":1,"subjID":"Juan Pablo Garia Gaitan 26","gender":"4","age":"9","school":"9"},{"start_time":1552309580189,"click_time":1552309581558,"finger_time":1552309581358,"fix_duration":250,"trial":4,"RT":1169,"MT":200,"sideResp":1,"stimulus":"img/250/randomdotsizeEA/L/7_Ratio_250_L_8_R_2.png","xmouse":[792,792,792,792,792,792,792,792,792,792,793,793,793,793,793,793,793,793,793,793,793,793,793,793,793,793,793,793,793,793,793,793,793,793,793,793,793,793,793,794,794,794,794,794,794,794,794,794,794,794,794,794,794,794,794,785,774,758,732,710,662,642,628,617,605,572,547,511,484],"ymouse":[547,547,547,547,547,547,546,546,545,545,544,544,544,544,544,544,544,544,544,544,544,544,544,544,544,544,544,544,544,544,544,544,544,544,544,544,544,544,542,540,539,538,536,536,536,536,536,536,536,536,536,536,536,536,533,520,508,490,464,444,403,388,376,366,354,301,242,159,84],"timestamp_mouse":[13,41,48,70,90,109,129,149,168,189,210,228,250,269,288,308,328,349,369,389,409,429,450,468,488,509,529,549,569,589,609,628,650,669,690,709,729,748,769,788,809,828,848,869,890,909,929,949,968,988,1009,1029,1048,1068,1088,1108,1129,1149,1169,1189,1208,1229,1250,1269,1288,1308,1329,1348,1369],"xSR":741.5,"ySR":469.95,"xT1":424.9,"yT1":0,"xT2":1058.1,"yT2":0,"toosoon":0,"cond_shown":"randomdotsizeEA","ratio_trial":250,"smaller_num":"2","larger_num":"8","correct_side":1,"subjID":"Juan Pablo Garia Gaitan 26","gender":"4","age":"9","school":"9"},{"start_time":1552309583487,"click_time":1552309584357,"finger_time":1552309584078,"fix_duration":787.0429376522703,"trial":5,"RT":591,"MT":279,"sideResp":2,"stimulus":"img/500/randomdotsizeEA/R/3_Ratio_500_L_10_R_20.png","xmouse":[785,785,785,785,785,785,785,785,785,785,785,785,785,785,785,785,785,785,785,785,785,785,785,785,785,785,785,785,792,798,852,890,933,988,1031,1038,1042,1045,1048,1053,1055,1056,1058,1060],"ymouse":[486,486,486,486,486,486,486,486,486,486,486,486,486,486,486,486,486,486,486,486,486,486,486,486,486,486,486,486,475,465,386,324,255,178,118,104,94,88,82,77,75,73,72,69],"timestamp_mouse":[13,30,51,76,92,111,130,150,170,192,211,231,250,271,290,311,331,350,372,391,411,431,452,471,491,510,530,552,570,591,610,632,652,671,692,710,731,750,770,792,811,831,850,870],"xSR":741.5,"ySR":469.95,"xT1":424.9,"yT1":0,"xT2":1058.1,"yT2":0,"toosoon":0,"cond_shown":"randomdotsizeEA","ratio_trial":500,"smaller_num":"10","larger_num":"20","correct_side":2,"subjID":"Juan Pablo Garia Gaitan 26","gender":"4","age":"9","school":"9"},{"start_time":1552309586968,"click_time":1552309588318,"finger_time":1552309587737,"fix_duration":1249.4738637368616,"trial":6,"RT":769,"MT":581,"sideResp":1,"stimulus":"img/250/equaldotanddens/L/7_Ratio_250_L_8_R_2.png","xmouse":[770,770,770,770,770,770,770,770,770,770,770,770,770,770,770,770,770,770,770,770,770,770,770,770,770,770,770,770,770,770,770,770,770,770,770,767,763,755,733,691,618,553,535,531,531,531,531,531,531,531,530,530,529,525,522,517,511,506,500,494,491,491,491,496,500,504,505,506],"ymouse":[508,508,508,508,508,508,508,508,508,508,508,508,508,508,508,508,508,508,508,508,508,508,508,508,508,508,508,508,508,508,508,508,508,508,505,494,485,472,448,417,359,288,263,249,238,232,228,226,226,225,225,224,221,215,207,198,176,163,154,146,142,138,132,123,115,105,100,97],"timestamp_mouse":[10,30,61,69,90,109,130,151,170,190,211,231,250,269,290,310,330,350,371,390,410,429,450,471,491,511,530,550,570,591,610,629,649,671,690,710,729,749,769,790,809,830,850,869,890,911,929,949,970,989,1010,1029,1051,1070,1090,1109,1129,1150,1169,1190,1210,1229,1249,1270,1289,1311,1330,1350],"xSR":741.5,"ySR":469.95,"xT1":424.9,"yT1":0,"xT2":1058.1,"yT2":0,"toosoon":0,"cond_shown":"equaldotanddens","ratio_trial":250,"smaller_num":"2","larger_num":"8","correct_side":1,"subjID":"Juan Pablo Garia Gaitan 26","gender":"4","age":"9","school":"9"},{"start_time":1552309589570,"click_time":1552309590538,"finger_time":1552309590178,"fix_duration":250,"trial":7,"RT":608,"MT":360,"sideResp":2,"stimulus":"img/250/randomdotsizeEA/L/3_Ratio_250_L_8_R_2.png","xmouse":[824,824,824,824,824,824,824,824,824,824,824,824,824,824,824,824,824,824,824,824,824,824,824,824,824,824,824,828,831,840,849,856,857,857,857,857,857,857,859,864,879,888,906,933,962,990,1061,1083,1097],"ymouse":[496,496,496,496,496,496,496,496,496,496,496,496,496,496,496,496,496,496,496,496,496,496,496,496,496,496,496,494,489,476,463,451,450,450,450,450,450,449,444,437,407,387,357,319,278,234,135,107,90],"timestamp_mouse":[8,44,47,67,89,107,129,149,168,187,207,228,247,268,289,308,328,347,368,387,409,429,449,468,488,509,527,547,567,589,608,627,648,668,687,708,727,747,768,788,810,828,847,867,888,907,927,948,968],"xSR":741.5,"ySR":469.95,"xT1":424.9,"yT1":0,"xT2":1058.1,"yT2":0,"toosoon":0,"cond_shown":"randomdotsizeEA","ratio_trial":250,"smaller_num":"2","larger_num":"8","correct_side":1,"subjID":"Juan Pablo Garia Gaitan 26","gender":"4","age":"9","school":"9"},{"start_time":1552309594354,"click_time":1552309595358,"finger_time":1552309594798,"fix_duration":654.9980089626924,"trial":8,"RT":444,"MT":560,"sideResp":1,"stimulus":"img/900/equaldotsize/L/10_Ratio_900_L_20_R_18.png","xmouse":[805,805,805,805,805,805,805,805,805,805,805,805,805,805,805,805,805,805,805,805,796,787,700,615,488,360,288,288,288,288,288,288,288,288,288,288,288,288,288,288,288,288,288,288,288,288,288,288,404,417,426],"ymouse":[532,532,532,532,532,532,532,532,532,532,532,532,532,532,532,532,532,532,532,532,527,520,427,345,224,96,8,8,8,8,8,8,8,8,8,8,8,8,8,8,8,8,8,8,8,8,8,8,11,40,57],"timestamp_mouse":[9,24,48,64,84,103,124,145,163,185,205,224,244,265,284,304,324,344,363,383,404,423,444,464,484,503,523,543,563,583,604,625,644,663,683,704,724,744,763,783,804,825,843,863,883,903,924,943,963,983,1004],"xSR":741.5,"ySR":469.95,"xT1":424.9,"yT1":0,"xT2":1058.1,"yT2":0,"toosoon":0,"cond_shown":"equaldotsize","ratio_trial":900,"smaller_num":"18","larger_num":"20","correct_side":1,"subjID":"Juan Pablo Garia Gaitan 26","gender":"4","age":"9","school":"9"},{"start_time":1552309596773,"click_time":1552309597498,"finger_time":1552309597257,"fix_duration":515.1826331755253,"trial":9,"RT":484,"MT":241,"sideResp":2,"stimulus":"img/250/equaldotsize/R/8_Ratio_250_L_1_R_4.png","xmouse":[807,807,807,807,807,807,807,807,807,807,807,807,807,807,807,807,807,807,807,807,807,813,821,829,838,849,872,889,907,925,944,976,1004,1037,1056,1068,1091],"ymouse":[523,523,523,523,523,523,523,523,523,523,523,523,523,523,523,523,523,523,523,520,519,504,490,479,463,449,416,392,365,335,307,255,216,173,147,130,92],"timestamp_mouse":[11,25,44,64,85,104,125,145,164,186,204,225,246,265,285,304,325,345,364,384,405,426,444,464,484,506,524,545,564,586,605,624,644,665,685,704,725],"xSR":741.5,"ySR":469.95,"xT1":424.9,"yT1":0,"xT2":1058.1,"yT2":0,"toosoon":0,"cond_shown":"equaldotsize","ratio_trial":250,"smaller_num":"1","larger_num":"4","correct_side":2,"subjID":"Juan Pablo Garia Gaitan 26","gender":"4","age":"9","school":"9"},{"start_time":1552309599029,"click_time":1552309599937,"finger_time":1552309599558,"fix_duration":250,"trial":10,"RT":529,"MT":379,"sideResp":1,"stimulus":"img/750/randomdotsizeEA/R/12_Ratio_750_L_3_R_4.png","xmouse":[775,775,775,775,775,775,775,775,775,775,775,775,775,775,775,775,775,775,775,775,775,775,775,772,761,742,700,680,565,529,495,472,443,433,426,421,419,418,418,418,419,421,423,431,437,450],"ymouse":[500,500,500,500,500,500,500,500,500,500,500,500,500,500,500,500,500,500,500,500,500,500,500,500,497,487,456,437,336,304,269,242,211,201,190,181,175,166,159,153,145,140,136,118,109,91],"timestamp_mouse":[9,29,50,70,88,108,130,148,168,189,210,228,248,268,288,309,330,348,368,390,408,428,449,468,489,508,529,549,568,589,609,628,650,668,688,709,728,750,768,789,809,829,850,868,888,908],"xSR":741.5,"ySR":469.95,"xT1":424.9,"yT1":0,"xT2":1058.1,"yT2":0,"toosoon":0,"cond_shown":"randomdotsizeEA","ratio_trial":750,"smaller_num":"3","larger_num":"4","correct_side":2,"subjID":"Juan Pablo Garia Gaitan 26","gender":"4","age":"9","school":"9"},{"start_time":1552309601230,"click_time":1552309602037,"finger_time":1552309601918,"fix_duration":250,"trial":11,"RT":688,"MT":119,"sideResp":1,"stimulus":"img/250/equaldotsize/L/5_Ratio_250_L_24_R_6.png","xmouse":[823,823,823,823,823,823,823,823,823,823,823,823,823,823,823,823,823,823,823,823,823,823,823,823,823,823,823,824,824,824,824,824,816,802,782,753,684,643,541,489,448],"ymouse":[507,507,507,507,507,507,507,507,507,507,507,507,507,507,507,507,507,507,507,507,507,507,507,507,507,507,507,507,505,503,500,497,484,471,453,431,381,345,236,167,98],"timestamp_mouse":[12,36,48,68,89,107,128,147,168,188,207,228,248,269,288,308,328,347,368,389,408,428,449,468,488,508,527,547,568,587,607,628,649,667,688,708,728,748,767,787,807],"xSR":741.5,"ySR":469.95,"xT1":424.9,"yT1":0,"xT2":1058.1,"yT2":0,"toosoon":0,"cond_shown":"equaldotsize","ratio_trial":250,"smaller_num":"6","larger_num":"24","correct_side":1,"subjID":"Juan Pablo Garia Gaitan 26","gender":"4","age":"9","school":"9"},{"start_time":1552309605814,"click_time":1552309607197,"finger_time":1552309606578,"fix_duration":954.4003442320147,"trial":12,"RT":764,"MT":619,"sideResp":2,"stimulus":"img/250/equaldotanddens/R/8_Ratio_250_L_1_R_4.png","xmouse":[780,780,780,780,780,780,780,780,780,780,780,780,780,780,780,780,780,780,780,780,780,780,780,780,780,780,780,780,780,780,780,780,780,780,780,780,793,810,879,891,902,912,919,924,934,939,944,950,956,970,977,986,993,1020,1035,1046,1049,1052,1055,1055,1055,1055,1055,1055,1055,1055,1055,1055,1058,1078],"ymouse":[517,517,517,517,517,517,517,517,517,517,517,517,517,517,517,517,517,517,517,517,517,517,517,517,517,517,517,517,517,517,517,517,517,517,517,517,501,487,424,402,376,353,329,310,274,256,240,220,192,144,128,115,107,90,80,72,69,67,65,65,65,65,65,65,65,65,65,65,64,62],"timestamp_mouse":[13,37,43,64,83,104,123,143,163,184,205,223,243,264,283,303,324,343,363,385,405,423,443,464,483,504,523,544,563,583,604,625,645,665,684,703,724,744,764,783,803,823,844,863,884,904,924,943,965,983,1003,1024,1043,1065,1083,1104,1124,1144,1164,1183,1205,1224,1245,1265,1283,1303,1324,1343,1363,1383],"xSR":741.5,"ySR":469.95,"xT1":424.9,"yT1":0,"xT2":1058.1,"yT2":0,"toosoon":0,"cond_shown":"equaldotanddens","ratio_trial":250,"smaller_num":"1","larger_num":"4","correct_side":2,"subjID":"Juan Pablo Garia Gaitan 26","gender":"4","age":"9","school":"9"},{"start_time":1552309608749,"click_time":1552309610039,"finger_time":1552309609478,"fix_duration":250,"trial":13,"RT":729,"MT":561,"sideResp":1,"stimulus":"img/250/equaldotsize/L/3_Ratio_250_L_8_R_2.png","xmouse":[788,788,788,788,788,788,788,788,788,788,788,788,788,788,788,788,788,788,788,788,788,788,788,788,788,788,788,788,788,788,788,788,784,778,770,762,752,715,691,671,655,644,629,627,622,613,586,560,524,469,410,345,321,321,321,321,321,332,346,359,374,383,405,418,428],"ymouse":[529,529,529,529,529,529,529,529,529,529,529,529,529,529,529,529,529,529,529,529,529,529,529,529,529,529,529,529,529,529,529,529,526,517,504,487,465,397,355,318,289,271,249,246,240,231,207,191,175,155,142,132,127,127,127,127,127,122,118,114,110,107,102,99,96],"timestamp_mouse":[12,42,49,70,88,110,129,149,168,189,208,228,249,269,289,308,328,348,368,388,409,428,450,468,488,508,530,548,568,588,609,629,648,668,688,709,729,748,770,789,808,828,848,869,888,909,930,948,969,988,1008,1029,1050,1070,1089,1110,1129,1148,1169,1189,1209,1228,1248,1269,1290],"xSR":741.5,"ySR":469.95,"xT1":424.9,"yT1":0,"xT2":1058.1,"yT2":0,"toosoon":0,"cond_shown":"equaldotsize","ratio_trial":250,"smaller_num":"2","larger_num":"8","correct_side":1,"subjID":"Juan Pablo Garia Gaitan 26","gender":"4","age":"9","school":"9"},{"start_time":1552309611409,"click_time":1552309612617,"finger_time":1552309612217,"fix_duration":250,"trial":14,"RT":808,"MT":400,"sideResp":1,"stimulus":"img/250/randomdotsizeEA/L/3_Ratio_250_L_8_R_2.png","xmouse":[799,799,799,799,799,799,799,799,799,799,799,799,799,799,799,799,799,799,799,799,799,799,799,799,799,799,799,799,799,799,799,799,799,799,799,799,799,799,798,760,723,689,673,669,667,661,652,633,611,580,578,576,570,564,539,528,519,517,517,514,513],"ymouse":[542,542,542,542,542,542,542,542,542,542,542,542,542,542,542,542,542,543,543,545,545,545,545,545,545,545,545,545,545,545,545,545,545,545,545,545,545,544,540,491,454,420,401,389,360,341,321,301,286,262,260,254,241,226,180,160,145,132,126,102,91],"timestamp_mouse":[12,34,49,70,88,109,130,149,169,188,210,229,249,270,288,308,328,348,368,388,410,429,449,468,488,509,530,549,570,590,610,628,649,668,689,709,729,748,769,790,808,828,848,870,888,909,929,949,968,988,1008,1028,1048,1068,1088,1109,1129,1149,1169,1188,1208],"xSR":741.5,"ySR":469.95,"xT1":424.9,"yT1":0,"xT2":1058.1,"yT2":0,"toosoon":0,"cond_shown":"randomdotsizeEA","ratio_trial":250,"smaller_num":"2","larger_num":"8","correct_side":1,"subjID":"Juan Pablo Garia Gaitan 26","gender":"4","age":"9","school":"9"},{"start_time":1552309613749,"click_time":1552309614957,"finger_time":1552309614517,"fix_duration":250,"trial":15,"RT":768,"MT":440,"sideResp":2,"stimulus":"img/500/randomdotsizeEA/R/2_Ratio_500_L_3_R_6.png","xmouse":[836,836,836,836,836,836,836,836,836,836,836,836,836,836,836,836,836,836,836,836,836,836,836,836,836,836,836,836,836,836,836,836,836,836,836,836,836,839,845,854,864,902,911,920,928,936,959,997,1056,1093,1123,1130,1153,1158,1160,1163,1166,1169,1169,1166,1158],"ymouse":[560,560,560,560,558,557,555,555,555,555,555,555,555,555,555,555,555,555,555,555,555,555,555,555,555,555,555,555,555,555,555,555,555,555,555,555,554,546,535,520,500,439,421,404,387,372,330,288,256,235,217,211,188,180,173,164,154,124,107,90,76],"timestamp_mouse":[11,28,48,68,89,108,129,148,169,189,209,229,248,270,289,310,329,348,370,389,410,429,450,469,489,508,529,548,570,590,609,628,649,669,690,710,729,748,768,788,810,830,848,868,888,909,930,949,969,990,1009,1029,1048,1069,1088,1109,1128,1148,1169,1188,1208],"xSR":741.5,"ySR":469.95,"xT1":424.9,"yT1":0,"xT2":1058.1,"yT2":0,"toosoon":0,"cond_shown":"randomdotsizeEA","ratio_trial":500,"smaller_num":"3","larger_num":"6","correct_side":2,"subjID":"Juan Pablo Garia Gaitan 26","gender":"4","age":"9","school":"9"},{"start_time":1552309617530,"click_time":1552309618698,"finger_time":1552309618137,"fix_duration":250,"trial":16,"RT":607,"MT":561,"sideResp":2,"stimulus":"img/750/randomdotsizeEA/R/3_Ratio_750_L_15_R_20.png","xmouse":[809,809,809,808,807,807,807,807,807,807,807,807,807,807,807,807,806,805,804,803,802,802,802,802,802,802,802,811,825,839,851,858,865,888,903,924,955,983,1042,1059,1073,1086,1099,1134,1140,1145,1145,1145,1145,1142,1136,1125,1104,1084,1080,1077,1075,1073,1073],"ymouse":[539,539,539,539,540,540,540,540,540,540,540,540,540,540,540,542,543,543,545,545,546,546,546,546,546,546,546,529,508,487,472,462,453,416,396,378,360,347,321,314,304,295,287,248,229,215,207,203,201,197,191,178,157,132,126,121,115,107,86],"timestamp_mouse":[9,39,48,67,87,107,128,147,167,188,209,229,247,267,287,308,327,348,367,387,409,429,448,468,488,508,527,549,567,589,607,628,649,667,687,707,728,747,767,788,808,827,848,867,888,907,928,949,967,987,1008,1027,1047,1067,1087,1107,1127,1147,1167],"xSR":741.5,"ySR":469.95,"xT1":424.9,"yT1":0,"xT2":1058.1,"yT2":0,"toosoon":0,"cond_shown":"randomdotsizeEA","ratio_trial":750,"smaller_num":"15","larger_num":"20","correct_side":2,"subjID":"Juan Pablo Garia Gaitan 26","gender":"4","age":"9","school":"9"},{"start_time":1552309620820,"click_time":1552309621937,"finger_time":1552309621639,"fix_duration":1100.8227943226748,"trial":17,"RT":819,"MT":298,"sideResp":1,"stimulus":"img/750/randomdotsizeEA/L/13_Ratio_750_L_8_R_6.png","xmouse":[782,782,782,782,782,782,782,782,782,782,782,782,782,782,782,782,782,782,782,782,782,782,782,782,782,782,782,782,782,782,782,782,782,782,782,783,788,810,824,825,823,812,762,732,705,688,671,634,616,595,575,558,544,529,526,524],"ymouse":[525,525,525,525,525,525,525,525,525,525,525,525,525,525,525,525,525,525,525,525,525,525,525,525,525,525,525,525,525,525,525,525,525,525,525,525,525,512,491,472,450,423,344,312,284,267,251,212,195,175,156,140,123,101,93,83],"timestamp_mouse":[18,43,58,79,98,119,138,157,178,197,219,239,258,277,297,318,337,358,377,398,418,439,458,478,498,518,538,559,578,597,619,638,657,677,698,717,737,757,778,798,819,837,859,877,897,917,938,959,977,998,1018,1037,1058,1077,1098,1117],"xSR":741.5,"ySR":469.95,"xT1":424.9,"yT1":0,"xT2":1058.1,"yT2":0,"toosoon":0,"cond_shown":"randomdotsizeEA","ratio_trial":750,"smaller_num":"6","larger_num":"8","correct_side":1,"subjID":"Juan Pablo Garia Gaitan 26","gender":"4","age":"9","school":"9"},{"start_time":1552309624479,"click_time":1552309625578,"finger_time":1552309625297,"fix_duration":1340.2491096604458,"trial":18,"RT":818,"MT":281,"sideResp":2,"stimulus":"img/250/equaldotsize/R/8_Ratio_250_L_1_R_4.png","xmouse":[798,798,798,798,798,798,798,798,798,798,798,798,798,798,798,798,798,798,798,798,798,798,798,798,798,798,798,798,798,798,798,798,798,798,798,798,798,803,810,820,844,853,864,879,900,935,945,956,966,981,986,991,999,1022,1107],"ymouse":[516,516,516,516,516,516,516,516,516,516,516,516,516,516,516,516,516,516,516,516,516,516,516,516,516,516,516,516,516,516,516,516,516,516,516,516,516,506,494,477,435,414,390,365,339,296,282,267,254,229,216,200,188,162,77],"timestamp_mouse":[18,38,59,79,99,118,138,159,179,199,218,238,258,278,299,318,338,357,378,397,418,438,459,479,499,518,539,559,579,597,617,638,659,677,697,719,738,758,778,798,818,838,858,877,898,918,938,957,979,999,1018,1037,1057,1079,1099],"xSR":741.5,"ySR":469.95,"xT1":424.9,"yT1":0,"xT2":1058.1,"yT2":0,"toosoon":0,"cond_shown":"equaldotsize","ratio_trial":250,"smaller_num":"1","larger_num":"4","correct_side":2,"subjID":"Juan Pablo Garia Gaitan 26","gender":"4","age":"9","school":"9"},{"start_time":1552309629287,"click_time":1552309630436,"finger_time":1552309629878,"fix_duration":446.8187446483736,"trial":19,"RT":591,"MT":558,"sideResp":2,"stimulus":"img/500/equaldotsize/R/6_Ratio_500_L_9_R_18.png","xmouse":[809,809,809,809,809,809,809,809,809,809,809,809,809,809,809,809,809,809,809,808,808,808,808,808,808,808,808,808,813,829,843,859,877,885,891,898,903,910,916,940,957,982,1003,1013,1016,1017,1017,1018,1020,1026,1027,1028,1029,1029,1029,1036,1050,1061],"ymouse":[477,477,477,477,477,477,477,477,477,477,477,477,477,477,477,477,477,477,477,477,477,477,477,477,477,477,477,477,474,464,450,419,361,309,264,246,240,232,226,195,169,122,69,33,19,18,18,17,17,15,15,15,15,15,15,15,21,31],"timestamp_mouse":[9,29,52,69,91,111,130,150,171,190,210,229,251,270,290,310,331,350,369,391,411,430,450,470,489,509,530,550,570,591,610,630,650,671,690,710,730,751,774,792,810,830,850,869,891,910,931,949,969,991,1010,1031,1050,1070,1089,1110,1129,1149],"xSR":741.5,"ySR":469.95,"xT1":424.9,"yT1":0,"xT2":1058.1,"yT2":0,"toosoon":0,"cond_shown":"equaldotsize","ratio_trial":500,"smaller_num":"9","larger_num":"18","correct_side":2,"subjID":"Juan Pablo Garia Gaitan 26","gender":"4","age":"9","school":"9"},{"start_time":1552309632884,"click_time":1552309634397,"finger_time":1552309633598,"fix_duration":1425.2061016117934,"trial":20,"RT":714,"MT":799,"sideResp":2,"stimulus":"img/250/equaldotsize/R/4_Ratio_250_L_3_R_12.png","xmouse":[790,790,790,790,790,790,790,790,790,790,790,790,790,790,790,790,790,790,790,790,790,790,790,790,790,791,793,794,795,800,802,806,810,814,819,892,938,964,985,1010,1022,1031,1039,1054,1140,1304,1304,1304,1304,1304,1304,1304,1304,1304,1304,1304,1304,1304,1304,1304,1304,1304,1304,1304,1304,1216,1209,1203,1199,1193,1184,1179,1172,1166,1165,1158],"ymouse":[514,513,513,513,513,513,513,513,513,513,513,513,513,512,512,512,512,512,512,512,512,512,512,511,511,508,507,506,504,500,498,495,492,489,485,438,408,389,370,337,318,301,281,257,154,19,19,19,19,19,19,19,19,19,19,19,19,19,19,19,19,19,19,19,19,7,11,15,18,22,27,30,34,38,39,44],"timestamp_mouse":[13,42,52,74,93,114,134,152,174,194,213,232,252,274,294,313,332,354,374,394,414,433,453,474,493,513,533,554,573,594,613,634,653,673,693,714,733,754,774,794,813,832,853,873,893,913,932,953,973,993,1014,1033,1052,1074,1094,1113,1133,1152,1173,1194,1213,1234,1253,1273,1292,1313,1332,1352,1372,1393,1413,1434,1453,1474,1492,1513],"xSR":741.5,"ySR":469.95,"xT1":424.9,"yT1":0,"xT2":1058.1,"yT2":0,"toosoon":0,"cond_shown":"equaldotsize","ratio_trial":250,"smaller_num":"3","larger_num":"12","correct_side":2,"subjID":"Juan Pablo Garia Gaitan 26","gender":"4","age":"9","school":"9"},{"start_time":1552309637806,"click_time":1552309638438,"finger_time":1552309638337,"fix_duration":708.4468490828854,"trial":21,"RT":531,"MT":101,"sideResp":1,"stimulus":"img/900/equaldotanddens/L/4_Ratio_900_L_20_R_18.png","xmouse":[781,781,781,781,781,781,781,781,781,781,781,781,781,781,781,781,781,781,781,781,781,781,781,781,781,759,714,646,485,454,439,429],"ymouse":[523,523,523,523,523,523,523,523,523,523,523,523,523,523,523,523,523,523,523,523,523,523,523,523,513,473,412,332,161,126,107,93],"timestamp_mouse":[11,32,52,70,91,111,130,150,172,191,211,231,252,272,291,311,332,376,377,391,411,430,450,472,491,511,531,552,572,591,611,632],"xSR":741.5,"ySR":469.95,"xT1":424.9,"yT1":0,"xT2":1058.1,"yT2":0,"toosoon":0,"cond_shown":"equaldotanddens","ratio_trial":900,"smaller_num":"18","larger_num":"20","correct_side":1,"subjID":"Juan Pablo Garia Gaitan 26","gender":"4","age":"9","school":"9"},{"start_time":1552309641527,"click_time":1552309642557,"finger_time":1552309642078,"fix_duration":1308.9932378097117,"trial":22,"RT":551,"MT":479,"sideResp":2,"stimulus":"img/750/equaldotsize/R/11_Ratio_750_L_12_R_16.png","xmouse":[794,794,794,794,794,794,794,794,794,794,794,794,794,794,794,794,794,794,794,794,794,794,794,797,802,808,815,837,850,869,887,898,909,926,930,935,941,946,956,963,977,997,1034,1045,1053,1063,1072,1081,1095,1101,1108,1113],"ymouse":[515,515,515,515,515,515,515,515,515,515,515,515,515,515,515,515,515,515,515,515,515,515,515,511,504,497,487,458,438,416,396,382,371,354,350,345,339,334,325,317,301,273,223,212,201,190,179,168,145,130,112,94],"timestamp_mouse":[10,31,51,71,91,111,131,150,171,190,209,230,251,270,291,311,331,350,369,391,411,430,449,469,490,510,530,551,570,590,610,631,650,669,689,710,730,749,769,790,809,830,851,870,890,911,930,951,969,991,1010,1030],"xSR":741.5,"ySR":469.95,"xT1":424.9,"yT1":0,"xT2":1058.1,"yT2":0,"toosoon":0,"cond_shown":"equaldotsize","ratio_trial":750,"smaller_num":"12","larger_num":"16","correct_side":2,"subjID":"Juan Pablo Garia Gaitan 26","gender":"4","age":"9","school":"9"},{"start_time":1552309644952,"click_time":1552309645737,"finger_time":1552309645496,"fix_duration":1353.259787996995,"trial":23,"RT":544,"MT":241,"sideResp":1,"stimulus":"img/900/equaldotsize/L/1_Ratio_900_L_10_R_9.png","xmouse":[790,790,790,790,790,790,790,790,790,790,790,790,790,790,790,790,790,790,790,790,790,790,790,790,790,790,774,749,710,661,614,563,523,516,509,500,492,476,468,463],"ymouse":[521,521,521,521,521,521,521,521,521,521,521,521,521,521,521,521,521,521,521,521,521,521,521,521,521,521,492,451,399,347,298,250,210,198,183,169,153,123,109,99],"timestamp_mouse":[10,25,44,66,85,104,126,145,166,185,205,225,244,265,284,304,325,346,365,384,405,425,446,466,485,505,526,544,565,584,606,625,645,665,685,705,725,745,765,784],"xSR":741.5,"ySR":469.95,"xT1":424.9,"yT1":0,"xT2":1058.1,"yT2":0,"toosoon":0,"cond_shown":"equaldotsize","ratio_trial":900,"smaller_num":"9","larger_num":"10","correct_side":1,"subjID":"Juan Pablo Garia Gaitan 26","gender":"4","age":"9","school":"9"},{"start_time":1552309646948,"click_time":1552309651458,"finger_time":1552309647297,"fix_duration":250,"trial":24,"RT":349,"MT":4161,"sideResp":1,"stimulus":"img/750/equaldotanddens/L/13_Ratio_750_L_8_R_6.png","xmouse":[772,769,768,768,768,768,768,768,768,768,768,768,768,768,763,754,743,732,732,732,732,732,732,732,732,732,732,732,732,732,732,732,732,732,732,732,732,732,732,732,732,732,732,732,732,732,732,732,732,732,732,732,732,732,732,732,732,732,732,732,732,732,732,732,732,733,735,736,737,744,758,767,773,774,774,774,774,774,775,776,776,776,776,776,777,777,777,777,777,777,777,777,777,777,777,777,777,777,777,777,777,777,777,777,777,777,777,777,777,777,777,777,777,777,777,777,777,777,777,777,777,777,777,777,777,777,777,777,777,777,780,796,831,837,838,838,838,838,838,838,838,838,838,838,838,834,833,832,832,831,830,824,819,816,816,816,816,816,813,812,811,811,811,811,810,809,806,805,804,804,802,801,798,796,795,795,795,795,795,795,795,795,795,795,795,795,795,795,795,795,795,795,795,795,795,795,795,795,795,795,795,795,795,795,795,795,793,787,776,757,731,632,605,590,585,582,581,577,574,571,569,566,555,544,530,514],"ymouse":[496,502,503,503,503,503,503,503,503,503,503,503,503,504,505,507,508,508,508,508,508,508,508,508,508,508,508,508,508,508,508,508,508,508,508,508,508,508,508,508,508,508,508,508,508,508,508,508,508,508,508,508,508,508,508,508,508,508,508,508,508,508,508,508,508,508,508,508,508,507,505,503,503,502,502,502,502,502,502,502,502,502,502,502,502,502,502,502,502,502,502,502,502,502,502,502,502,502,502,502,502,502,502,502,502,502,502,502,502,502,502,502,502,502,502,502,502,502,502,502,502,502,502,502,502,502,502,502,502,502,502,507,523,525,526,526,526,526,526,526,526,526,526,526,526,526,526,526,526,526,526,526,525,525,525,525,525,525,525,524,524,524,524,524,524,524,524,523,523,523,523,523,523,523,522,522,522,522,522,522,522,522,522,522,522,522,522,522,522,522,522,522,522,522,522,522,522,522,522,522,522,522,522,522,522,522,518,507,490,465,426,282,243,216,201,191,183,171,165,159,154,150,135,120,101,77],"timestamp_mouse":[10,29,60,70,90,108,130,150,170,189,208,229,250,269,289,308,329,349,369,389,409,430,449,468,490,510,529,550,568,589,609,630,649,669,690,709,730,748,769,788,809,829,850,869,890,909,929,950,969,989,1008,1029,1048,1070,1090,1109,1129,1149,1169,1190,1210,1229,1249,1270,1289,1308,1329,1350,1369,1389,1409,1430,1450,1469,1488,1508,1530,1550,1569,1588,1609,1629,1650,1670,1689,1708,1730,1750,1770,1790,1810,1828,1850,1870,1890,1909,1930,1950,1968,1990,2010,2030,2049,2068,2090,2110,2129,2150,2169,2188,2210,2230,2250,2269,2289,2309,2329,2350,2369,2390,2410,2428,2449,2469,2488,2510,2530,2548,2569,2589,2609,2628,2650,2669,2690,2710,2730,2750,2768,2789,2809,2830,2849,2869,2890,2910,2928,2949,2969,2988,3009,3030,3050,3070,3089,3109,3130,3149,3170,3190,3209,3230,3250,3270,3289,3309,3330,3348,3370,3389,3408,3429,3449,3469,3489,3509,3530,3549,3570,3590,3610,3629,3650,3668,3690,3708,3730,3750,3769,3788,3810,3829,3849,3870,3890,3908,3930,3949,3970,3989,4008,4028,4048,4070,4089,4109,4129,4149,4170,4189,4210,4230,4249,4269,4289,4309,4330,4349,4369,4388,4409,4428,4449,4469,4488,4510],"xSR":741.5,"ySR":469.95,"xT1":424.9,"yT1":0,"xT2":1058.1,"yT2":0,"toosoon":0,"cond_shown":"equaldotanddens","ratio_trial":750,"smaller_num":"6","larger_num":"8","correct_side":1,"subjID":"Juan Pablo Garia Gaitan 26","gender":"4","age":"9","school":"9"},{"start_time":1552309652709,"click_time":1552309653879,"finger_time":1552309653277,"fix_duration":250,"trial":25,"RT":568,"MT":602,"sideResp":1,"stimulus":"img/250/equaldotanddens/L/14_Ratio_250_L_12_R_3.png","xmouse":[803,803,803,803,803,803,803,803,803,803,803,803,803,803,803,803,803,803,803,803,803,803,803,803,801,793,776,748,714,641,612,585,567,552,538,538,539,539,539,539,539,539,539,539,539,539,539,539,539,539,539,539,539,539,539,539,539,539,493],"ymouse":[547,547,547,547,547,547,547,547,547,547,547,547,547,547,547,547,547,547,547,547,547,547,547,547,540,527,507,473,433,331,280,223,178,133,46,19,2,2,2,2,2,2,2,2,2,2,2,2,2,2,2,2,2,2,2,2,2,2,4],"timestamp_mouse":[10,29,48,68,88,108,128,147,169,187,209,229,249,268,287,308,327,349,368,388,407,429,447,469,488,507,527,549,568,587,608,628,649,669,687,708,728,747,767,787,808,828,848,869,888,909,929,948,968,988,1009,1028,1048,1067,1087,1107,1128,1149,1169],"xSR":741.5,"ySR":469.95,"xT1":424.9,"yT1":0,"xT2":1058.1,"yT2":0,"toosoon":0,"cond_shown":"equaldotanddens","ratio_trial":250,"smaller_num":"3","larger_num":"12","correct_side":1,"subjID":"Juan Pablo Garia Gaitan 26","gender":"4","age":"9","school":"9"},{"start_time":1552309655497,"click_time":1552309656357,"finger_time":1552309655877,"fix_duration":578.9979824846854,"trial":26,"RT":380,"MT":480,"sideResp":1,"stimulus":"img/750/equaldotsize/L/10_Ratio_750_L_4_R_3.png","xmouse":[798,798,798,798,798,798,798,798,798,798,798,798,798,798,798,798,798,794,784,765,698,665,631,614,601,591,585,577,565,555,541,540,540,540,540,540,540,540,540,540,540,537,534,522],"ymouse":[522,522,522,522,522,522,522,522,522,522,522,522,522,522,522,520,513,497,474,439,340,298,258,236,217,200,185,165,139,109,66,59,57,56,56,54,52,50,47,43,34,30,27,20],"timestamp_mouse":[9,20,40,60,81,101,122,140,161,180,199,219,239,260,279,299,319,339,360,380,399,419,440,461,480,500,520,539,560,580,600,620,639,660,680,699,720,740,760,780,799,819,839,859],"xSR":741.5,"ySR":469.95,"xT1":424.9,"yT1":0,"xT2":1058.1,"yT2":0,"toosoon":0,"cond_shown":"equaldotsize","ratio_trial":750,"smaller_num":"3","larger_num":"4","correct_side":1,"subjID":"Juan Pablo Garia Gaitan 26","gender":"4","age":"9","school":"9"},{"start_time":1552309657728,"click_time":1552309659437,"finger_time":1552309658397,"fix_duration":250,"trial":27,"RT":669,"MT":1040,"sideResp":1,"stimulus":"img/250/randomdotsizeEA/L/1_Ratio_250_L_8_R_2.png","xmouse":[763,763,763,763,763,763,763,763,763,763,763,763,763,763,763,763,763,763,763,763,763,763,763,763,763,765,766,769,771,773,775,784,805,895,924,962,989,1005,1021,1028,1035,1046,1052,1049,1045,1043,1037,1021,968,931,895,870,811,637,535,464,437,433,433,433,427,423,403,383,379,379,379,380,395,403,406,407,407,407,407,407,407,407,408,408,408,408,408,414,424,440],"ymouse":[511,511,511,511,511,511,511,511,511,511,511,511,511,511,511,511,511,511,511,511,511,511,511,511,511,508,506,504,502,501,501,497,488,435,405,366,330,303,252,226,198,163,115,85,79,78,78,78,95,107,118,128,146,185,194,194,194,194,191,184,159,147,100,53,39,35,33,32,31,31,31,31,31,31,31,31,31,32,33,33,33,33,33,40,51,67],"timestamp_mouse":[11,35,49,69,89,109,129,150,170,188,209,230,248,270,290,309,330,350,369,390,409,429,450,470,489,510,529,549,569,589,609,630,649,669,689,709,729,748,768,790,809,829,849,868,889,910,929,948,968,990,1009,1029,1049,1068,1088,1108,1129,1148,1168,1188,1209,1229,1250,1269,1288,1309,1330,1350,1369,1388,1410,1429,1450,1470,1488,1509,1529,1548,1568,1589,1609,1630,1650,1669,1689,1709],"xSR":741.5,"ySR":469.95,"xT1":424.9,"yT1":0,"xT2":1058.1,"yT2":0,"toosoon":0,"cond_shown":"randomdotsizeEA","ratio_trial":250,"smaller_num":"2","larger_num":"8","correct_side":1,"subjID":"Juan Pablo Garia Gaitan 26","gender":"4","age":"9","school":"9"},{"start_time":1552309662626,"click_time":1552309663516,"finger_time":1552309663157,"fix_duration":768.658299113632,"trial":28,"RT":531,"MT":359,"sideResp":1,"stimulus":"img/750/equaldotanddens/L/10_Ratio_750_L_4_R_3.png","xmouse":[764,764,764,764,764,764,764,764,764,764,764,764,764,764,764,764,764,764,764,764,764,764,764,765,758,743,715,690,655,647,644,643,641,639,635,629,626,622,620,618,616,610,600,536,487],"ymouse":[523,523,523,523,523,523,523,523,523,523,523,523,523,523,523,523,523,523,523,523,523,523,523,522,515,500,465,434,380,367,362,359,354,349,340,325,322,314,309,305,301,288,265,139,53],"timestamp_mouse":[11,38,52,71,91,111,131,152,170,191,212,231,252,272,290,311,330,351,371,391,412,430,452,470,492,511,531,551,570,590,610,630,652,671,691,711,730,750,771,791,810,832,851,871,890],"xSR":741.5,"ySR":469.95,"xT1":424.9,"yT1":0,"xT2":1058.1,"yT2":0,"toosoon":0,"cond_shown":"equaldotanddens","ratio_trial":750,"smaller_num":"3","larger_num":"4","correct_side":1,"subjID":"Juan Pablo Garia Gaitan 26","gender":"4","age":"9","school":"9"},{"start_time":1552309664967,"click_time":1552309665837,"finger_time":1552309665518,"fix_duration":648.4026876465908,"trial":29,"RT":551,"MT":319,"sideResp":1,"stimulus":"img/250/equaldotanddens/L/5_Ratio_250_L_24_R_6.png","xmouse":[789,789,789,789,789,789,789,789,789,789,789,789,789,789,789,789,789,789,789,789,789,789,789,789,787,772,758,738,717,693,687,660,639,619,609,604,602,602,602,601,597,562,541,521],"ymouse":[528,528,528,528,528,528,528,528,528,528,528,528,528,528,528,528,528,528,528,528,528,528,528,524,522,498,478,451,420,379,359,199,125,72,37,21,18,18,18,18,18,18,18,18],"timestamp_mouse":[10,30,60,70,90,109,130,151,170,191,209,231,250,271,290,310,330,349,371,391,410,429,451,470,491,511,530,551,570,590,610,630,650,669,690,710,730,750,771,790,809,829,850,870],"xSR":741.5,"ySR":469.95,"xT1":424.9,"yT1":0,"xT2":1058.1,"yT2":0,"toosoon":0,"cond_shown":"equaldotanddens","ratio_trial":250,"smaller_num":"6","larger_num":"24","correct_side":1,"subjID":"Juan Pablo Garia Gaitan 26","gender":"4","age":"9","school":"9"},{"start_time":1552309667091,"click_time":1552309669096,"finger_time":1552309668297,"fix_duration":250,"trial":30,"RT":1206,"MT":799,"sideResp":1,"stimulus":"img/750/equaldotsize/L/6_Ratio_750_L_24_R_18.png","xmouse":[783,783,783,783,783,783,783,783,783,783,783,783,783,783,783,783,783,783,783,783,783,783,784,784,784,784,784,784,784,784,784,784,784,784,784,784,784,784,784,784,784,784,784,784,784,784,784,784,784,784,784,784,784,784,784,784,784,785,785,785,780,776,773,771,770,770,770,770,770,770,770,770,770,770,770,769,769,773,783,807,811,811,811,811,811,811,811,811,811,811,811,811,811,810,808,768,735,694,644,596,522],"ymouse":[497,497,497,497,497,497,497,497,497,497,497,497,497,497,497,497,497,497,497,497,497,497,497,497,497,497,497,497,497,497,497,497,497,497,497,497,497,497,497,497,497,497,497,497,497,497,497,497,497,497,497,497,497,497,497,497,494,488,480,472,453,444,436,431,430,430,430,430,430,430,430,430,430,430,430,439,447,458,474,495,498,498,498,498,498,498,498,498,498,498,498,498,498,498,496,451,406,346,275,207,82],"timestamp_mouse":[14,41,46,66,86,107,126,147,165,186,207,225,247,267,286,306,326,346,366,387,406,426,447,466,486,506,526,547,566,585,607,627,647,666,685,707,726,747,765,787,806,827,847,867,886,907,927,946,967,986,1006,1025,1045,1067,1087,1107,1125,1146,1167,1185,1206,1226,1246,1266,1286,1306,1327,1346,1366,1387,1406,1426,1446,1465,1486,1506,1526,1546,1567,1587,1605,1626,1646,1666,1687,1706,1727,1745,1766,1786,1806,1825,1846,1866,1886,1906,1925,1945,1966,1986,2005],"xSR":741.5,"ySR":469.95,"xT1":424.9,"yT1":0,"xT2":1058.1,"yT2":0,"toosoon":0,"cond_shown":"equaldotsize","ratio_trial":750,"smaller_num":"18","larger_num":"24","correct_side":1,"subjID":"Juan Pablo Garia Gaitan 26","gender":"4","age":"9","school":"9"},{"start_time":1552309670950,"click_time":1552309671779,"finger_time":1552309671436,"fix_duration":771.5104071165196,"trial":31,"RT":486,"MT":343,"sideResp":2,"stimulus":"img/250/equaldotsize/R/12_Ratio_250_L_5_R_20.png","xmouse":[820,820,818,817,816,813,811,807,805,805,805,805,805,805,805,805,805,801,794,788,784,783,785,798,812,828,842,881,906,923,926,928,935,938,938,938,938,938,938,938,974,1080],"ymouse":[519,519,518,518,518,517,516,514,513,513,513,513,513,513,513,513,513,510,499,488,481,479,477,473,468,460,449,398,348,291,222,133,11,5,5,5,5,5,5,5,8,79],"timestamp_mouse":[9,27,46,67,88,107,127,146,167,188,207,228,246,267,286,308,328,347,367,387,407,426,447,467,486,506,527,547,567,587,607,627,646,667,686,707,726,748,768,786,806,829],"xSR":741.5,"ySR":469.95,"xT1":424.9,"yT1":0,"xT2":1058.1,"yT2":0,"toosoon":0,"cond_shown":"equaldotsize","ratio_trial":250,"smaller_num":"5","larger_num":"20","correct_side":2,"subjID":"Juan Pablo Garia Gaitan 26","gender":"4","age":"9","school":"9"},{"start_time":1552309673307,"click_time":1552309674378,"finger_time":1552309673998,"fix_duration":268.6598290501475,"trial":32,"RT":691,"MT":380,"sideResp":1,"stimulus":"img/250/randomdotsizeEA/L/5_Ratio_250_L_24_R_6.png","xmouse":[789,789,789,789,789,789,789,789,789,789,789,789,789,789,789,789,789,789,789,789,789,790,790,790,791,793,795,798,802,802,802,802,802,801,793,782,762,723,626,599,587,582,579,577,571,564,555,550,549,548,548,544,535,497],"ymouse":[518,518,518,518,518,518,518,518,518,518,518,518,518,518,518,518,518,518,518,518,518,517,517,517,514,512,510,505,500,498,496,493,490,483,464,440,406,353,240,210,195,189,185,180,169,161,156,151,150,150,145,132,115,62],"timestamp_mouse":[9,40,49,71,90,111,131,151,171,189,211,229,249,271,290,311,329,351,370,391,410,429,451,470,489,509,529,549,571,589,611,630,650,670,691,709,729,750,772,789,811,830,850,869,890,910,930,949,969,990,1009,1030,1050,1071],"xSR":741.5,"ySR":469.95,"xT1":424.9,"yT1":0,"xT2":1058.1,"yT2":0,"toosoon":0,"cond_shown":"randomdotsizeEA","ratio_trial":250,"smaller_num":"6","larger_num":"24","correct_side":1,"subjID":"Juan Pablo Garia Gaitan 26","gender":"4","age":"9","school":"9"},{"start_time":1552309676989,"click_time":1552309678137,"finger_time":1552309677717,"fix_duration":630.1025343016514,"trial":33,"RT":728,"MT":420,"sideResp":1,"stimulus":"img/500/randomdotsizeEA/L/5_Ratio_500_L_4_R_2.png","xmouse":[791,791,791,791,791,791,791,791,791,791,791,794,801,803,803,803,805,808,812,814,814,814,814,814,814,814,814,814,810,800,800,800,799,799,802,813,817,821,823,825,829,830,831,831,827,798,774,751,724,699,647,616,583,554,524,520,520,521],"ymouse":[530,530,530,530,530,530,530,530,530,530,530,530,527,526,526,526,524,520,510,507,507,507,507,507,507,507,507,506,500,492,492,492,490,487,484,470,464,459,456,452,445,437,423,406,386,333,300,275,252,236,210,188,164,140,110,103,101,98],"timestamp_mouse":[9,41,48,68,87,108,128,148,167,189,208,227,249,268,288,307,329,348,367,388,408,429,449,468,488,509,527,548,569,589,608,628,649,668,688,708,728,748,768,788,808,827,848,869,888,908,928,947,968,987,1007,1028,1047,1067,1089,1107,1129,1148],"xSR":741.5,"ySR":469.95,"xT1":424.9,"yT1":0,"xT2":1058.1,"yT2":0,"toosoon":0,"cond_shown":"randomdotsizeEA","ratio_trial":500,"smaller_num":"2","larger_num":"4","correct_side":1,"subjID":"Juan Pablo Garia Gaitan 26","gender":"4","age":"9","school":"9"},{"start_time":1552309680510,"click_time":1552309681657,"finger_time":1552309681056,"fix_duration":1292.698968300231,"trial":34,"RT":546,"MT":601,"sideResp":1,"stimulus":"img/500/equaldotsize/L/7_Ratio_500_L_10_R_5.png","xmouse":[792,792,792,792,792,792,792,792,792,792,792,792,792,792,792,792,792,792,792,792,792,792,792,792,789,776,758,738,717,677,664,656,651,642,639,637,636,634,625,618,612,604,593,553,548,548,548,548,548,548,548,548,547,545,539,532,523,517],"ymouse":[513,513,513,513,513,513,513,513,513,513,513,513,513,513,513,513,513,513,513,513,513,513,513,513,510,492,472,452,432,391,376,363,353,340,335,331,326,317,290,270,250,233,215,179,177,177,177,177,177,177,177,177,177,164,147,127,106,89],"timestamp_mouse":[9,26,47,66,87,108,128,146,168,188,207,228,247,268,287,308,328,347,366,387,408,427,448,468,488,506,527,546,567,586,607,627,647,668,687,707,728,747,768,787,808,827,848,868,887,907,927,947,967,986,1007,1027,1047,1069,1087,1107,1127,1147],"xSR":741.5,"ySR":469.95,"xT1":424.9,"yT1":0,"xT2":1058.1,"yT2":0,"toosoon":0,"cond_shown":"equaldotsize","ratio_trial":500,"smaller_num":"5","larger_num":"10","correct_side":1,"subjID":"Juan Pablo Garia Gaitan 26","gender":"4","age":"9","school":"9"},{"start_time":1552309684389,"click_time":1552309685396,"finger_time":1552309684915,"fix_duration":250,"trial":35,"RT":526,"MT":481,"sideResp":2,"stimulus":"img/750/equaldotsize/R/11_Ratio_750_L_12_R_16.png","xmouse":[806,806,806,806,806,806,806,806,806,806,806,806,806,806,806,806,806,806,806,806,806,806,806,806,809,832,851,870,884,896,944,980,1009,1028,1057,1063,1067,1073,1077,1085,1087,1088,1090,1090,1090,1091,1092,1093,1094,1095,1096],"ymouse":[494,494,494,494,494,494,494,494,494,494,494,494,494,494,494,494,494,494,494,494,494,494,494,494,493,479,468,458,450,443,401,366,336,314,267,247,232,217,201,165,155,147,141,137,134,129,126,117,110,106,97],"timestamp_mouse":[12,33,47,67,86,108,127,146,167,187,207,227,247,267,287,307,326,348,366,386,407,428,447,466,487,506,526,547,567,587,606,626,647,666,688,706,726,746,766,788,806,826,847,866,887,908,926,946,967,986,1006],"xSR":741.5,"ySR":469.95,"xT1":424.9,"yT1":0,"xT2":1058.1,"yT2":0,"toosoon":0,"cond_shown":"equaldotsize","ratio_trial":750,"smaller_num":"12","larger_num":"16","correct_side":2,"subjID":"Juan Pablo Garia Gaitan 26","gender":"4","age":"9","school":"9"},{"start_time":1552309686467,"click_time":1552309687515,"finger_time":1552309687135,"fix_duration":250,"trial":36,"RT":668,"MT":380,"sideResp":1,"stimulus":"img/750/equaldotsize/L/13_Ratio_750_L_8_R_6.png","xmouse":[782,782,782,782,782,782,782,782,782,782,782,782,782,782,782,782,782,782,782,782,782,782,782,782,782,782,782,782,782,782,782,779,771,759,753,734,707,701,695,690,678,669,658,646,633,595,586,575,565,555,546,515,496],"ymouse":[532,532,532,532,532,532,532,532,532,532,532,532,532,532,532,532,532,532,532,532,532,532,532,532,532,532,532,532,532,532,532,519,501,465,450,410,356,341,328,319,297,284,272,257,242,204,196,185,176,162,148,107,90],"timestamp_mouse":[12,39,49,68,90,109,129,148,169,190,209,229,249,269,289,308,330,348,368,389,409,428,449,468,489,508,530,549,569,589,608,628,649,668,689,708,728,748,768,788,809,828,850,869,890,910,928,949,968,989,1009,1028,1048],"xSR":741.5,"ySR":469.95,"xT1":424.9,"yT1":0,"xT2":1058.1,"yT2":0,"toosoon":0,"cond_shown":"equaldotsize","ratio_trial":750,"smaller_num":"6","larger_num":"8","correct_side":1,"subjID":"Juan Pablo Garia Gaitan 26","gender":"4","age":"9","school":"9"},{"start_time":1552309688882,"click_time":1552309690175,"finger_time":1552309689395,"fix_duration":606.9348117885432,"trial":37,"RT":513,"MT":780,"sideResp":2,"stimulus":"img/900/equaldotanddens/R/12_Ratio_900_L_18_R_20.png","xmouse":[820,820,820,820,820,820,820,820,820,820,820,820,820,820,820,820,820,820,820,820,820,821,825,832,839,867,888,907,927,940,966,978,988,996,1005,1011,1013,1016,1022,1026,1034,1037,1037,1038,1038,1051,1059,1069,1076,1084,1093,1093,1094,1094,1094,1094,1096,1097,1099,1102,1103,1104,1106,1108,1112],"ymouse":[504,504,504,504,504,504,504,504,504,504,504,504,504,504,504,504,504,504,504,504,504,500,494,484,475,431,403,377,351,333,293,270,250,234,217,198,190,181,172,169,162,160,160,160,160,152,147,141,134,128,122,122,122,121,121,121,118,117,114,109,108,107,104,102,98],"timestamp_mouse":[14,43,53,74,93,114,133,154,173,195,214,234,253,274,294,314,334,354,373,395,413,434,454,473,493,513,533,553,573,594,613,633,653,673,693,714,733,753,774,794,813,834,853,875,894,914,934,955,974,995,1013,1035,1054,1073,1093,1113,1134,1154,1174,1195,1213,1234,1254,1273,1293],"xSR":741.5,"ySR":469.95,"xT1":424.9,"yT1":0,"xT2":1058.1,"yT2":0,"toosoon":0,"cond_shown":"equaldotanddens","ratio_trial":900,"smaller_num":"18","larger_num":"20","correct_side":2,"subjID":"Juan Pablo Garia Gaitan 26","gender":"4","age":"9","school":"9"},{"start_time":1552309693077,"click_time":1552309694415,"finger_time":1552309693835,"fix_duration":660.638229586418,"trial":38,"RT":758,"MT":580,"sideResp":2,"stimulus":"img/500/equaldotsize/R/9_Ratio_500_L_2_R_4.png","xmouse":[797,797,797,797,797,797,797,797,797,797,797,797,797,797,797,797,797,797,797,797,797,797,797,797,797,797,797,797,797,797,797,797,797,797,799,802,812,842,882,1001,1053,1092,1121,1143,1150,1158,1159,1160,1161,1161,1167,1176,1184,1187,1187,1187,1187,1187,1187,1187,1187,1187,1187,1187,1187,1187,1124],"ymouse":[515,515,515,515,515,515,515,515,515,515,515,515,515,515,515,515,515,515,515,514,510,509,508,508,508,508,508,508,508,508,508,508,508,506,505,501,493,476,460,418,390,361,316,261,240,218,216,213,207,202,173,132,69,33,33,33,33,33,33,33,33,33,33,33,33,33,3],"timestamp_mouse":[19,39,60,79,100,119,139,159,178,199,219,239,260,280,299,318,339,360,379,400,420,439,458,479,498,519,539,559,579,600,618,639,658,679,698,718,738,758,778,800,818,839,858,879,898,919,938,958,979,998,1018,1038,1058,1078,1098,1119,1139,1159,1180,1199,1218,1238,1258,1278,1299,1320,1338],"xSR":741.5,"ySR":469.95,"xT1":424.9,"yT1":0,"xT2":1058.1,"yT2":0,"toosoon":0,"cond_shown":"equaldotsize","ratio_trial":500,"smaller_num":"2","larger_num":"4","correct_side":2,"subjID":"Juan Pablo Garia Gaitan 26","gender":"4","age":"9","school":"9"},{"start_time":1552309697638,"click_time":1552309700296,"finger_time":1552309699596,"fix_duration":340.85475956361597,"trial":39,"RT":1958,"MT":700,"sideResp":1,"stimulus":"img/500/randomdotsizeEA/L/5_Ratio_500_L_4_R_2.png","xmouse":[795,795,795,795,795,795,795,795,795,795,795,795,795,795,795,795,795,795,795,795,795,795,795,795,795,795,795,795,795,794,794,793,792,792,792,792,792,792,792,792,792,792,792,792,792,792,792,792,792,792,792,792,792,792,792,792,792,792,792,792,792,792,792,792,792,792,792,792,792,792,792,792,792,792,792,792,792,792,792,792,792,792,792,792,792,792,792,792,792,792,792,792,792,792,792,792,790,774,761,742,723,688,674,660,648,628,592,575,555,555,555,555,555,555,555,555,555,555,555,555,555,555,555,555,555,555,555,555,555,555,555,555,470],"ymouse":[548,548,548,548,548,548,548,548,548,548,548,548,548,548,548,548,548,548,548,548,548,548,548,548,548,548,548,548,546,543,539,533,531,528,527,527,527,527,527,527,527,527,527,527,527,527,527,527,527,527,527,527,527,527,527,527,527,527,527,527,527,527,527,527,527,527,527,527,527,527,527,527,527,527,527,527,527,527,527,527,527,527,527,527,527,527,527,527,527,527,527,527,527,527,527,514,492,425,379,333,299,249,232,215,198,170,100,60,16,16,16,16,16,16,16,16,16,16,16,16,16,16,16,16,16,16,16,16,16,16,16,16,1],"timestamp_mouse":[17,38,57,79,98,117,138,158,178,198,219,238,258,278,297,319,339,359,378,398,419,439,457,478,498,517,539,559,577,598,618,639,657,678,698,718,737,757,778,797,818,837,857,878,898,918,937,957,977,998,1019,1037,1059,1078,1097,1117,1139,1159,1177,1197,1218,1237,1258,1278,1299,1319,1338,1359,1378,1397,1418,1438,1458,1479,1498,1518,1539,1559,1577,1598,1619,1638,1658,1678,1697,1717,1738,1757,1778,1799,1818,1838,1858,1878,1897,1917,1938,1958,1977,1997,2018,2039,2057,2078,2097,2119,2139,2157,2177,2198,2217,2239,2257,2278,2298,2317,2337,2358,2377,2397,2417,2438,2458,2477,2498,2519,2538,2558,2578,2599,2618,2639,2658],"xSR":741.5,"ySR":469.95,"xT1":424.9,"yT1":0,"xT2":1058.1,"yT2":0,"toosoon":0,"cond_shown":"randomdotsizeEA","ratio_trial":500,"smaller_num":"2","larger_num":"4","correct_side":1,"subjID":"Juan Pablo Garia Gaitan 26","gender":"4","age":"9","school":"9"},{"start_time":1552309701369,"click_time":1552309703376,"finger_time":1552309702856,"fix_duration":250,"trial":40,"RT":1487,"MT":520,"sideResp":2,"stimulus":"img/500/randomdotsizeEA/L/8_Ratio_500_L_8_R_4.png","xmouse":[793,793,793,793,793,793,793,793,793,793,793,793,793,793,793,793,793,793,793,793,793,793,793,793,793,793,793,793,793,793,793,793,793,793,793,793,793,793,793,793,793,793,793,794,795,796,797,798,798,798,798,798,798,798,798,798,798,798,798,798,798,798,798,798,798,798,798,798,798,798,798,798,814,837,867,911,922,930,935,940,944,961,968,971,971,975,976,978,981,984,989,1002,1011,1018,1027,1034,1051,1057,1068,1074,1076],"ymouse":[560,560,560,560,560,560,560,560,560,560,560,560,560,560,560,560,560,560,560,560,560,560,560,560,560,560,560,560,560,560,560,560,560,560,560,560,560,560,560,560,560,560,558,556,552,549,542,538,534,533,531,531,531,530,528,527,524,523,523,523,523,523,523,523,523,523,523,523,523,523,523,522,509,492,470,434,420,410,405,399,392,357,342,325,316,298,291,285,277,268,251,222,210,199,191,182,164,154,136,113,81],"timestamp_mouse":[10,26,46,66,88,106,126,147,167,188,207,228,247,266,286,306,326,347,366,386,408,426,446,468,486,506,526,546,567,587,608,627,646,667,686,707,727,748,767,787,808,826,846,866,887,907,926,947,968,988,1006,1027,1046,1067,1086,1107,1126,1148,1166,1186,1208,1227,1248,1266,1287,1306,1327,1346,1367,1388,1407,1428,1446,1467,1487,1508,1526,1547,1567,1587,1606,1628,1646,1666,1686,1708,1726,1747,1767,1787,1806,1828,1847,1867,1887,1907,1926,1947,1966,1988,2007],"xSR":741.5,"ySR":469.95,"xT1":424.9,"yT1":0,"xT2":1058.1,"yT2":0,"toosoon":0,"cond_shown":"randomdotsizeEA","ratio_trial":500,"smaller_num":"4","larger_num":"8","correct_side":1,"subjID":"Juan Pablo Garia Gaitan 26","gender":"4","age":"9","school":"9"},{"start_time":1552309705465,"click_time":1552309706835,"finger_time":1552309706156,"fix_duration":1027.116282365438,"trial":41,"RT":691,"MT":679,"sideResp":1,"stimulus":"img/750/equaldotanddens/L/1_Ratio_750_L_20_R_15.png","xmouse":[787,787,787,787,787,787,787,787,787,787,787,787,787,787,787,787,787,787,788,788,788,787,787,786,784,782,780,779,777,777,777,776,776,783,795,810,837,849,860,863,851,836,819,803,786,759,736,733,731,724,713,673,646,618,587,557,524,524,524,524,524,524,524,524,524,524,524,454,450],"ymouse":[527,527,527,527,527,527,527,527,527,527,527,527,527,527,527,527,527,527,527,527,525,524,523,521,519,514,508,504,499,496,492,489,487,472,456,432,379,343,297,255,173,140,114,95,82,67,57,56,56,53,52,42,34,25,17,8,0,0,0,0,0,0,0,0,0,0,0,0,3],"timestamp_mouse":[11,32,61,71,91,111,131,151,170,192,210,232,251,271,290,311,332,351,370,391,412,430,450,470,490,511,532,550,571,590,611,630,651,671,691,711,730,750,771,790,812,830,850,870,891,912,930,951,971,991,1011,1030,1051,1071,1090,1111,1130,1151,1170,1190,1211,1230,1250,1270,1292,1310,1331,1351,1370],"xSR":741.5,"ySR":469.95,"xT1":424.9,"yT1":0,"xT2":1058.1,"yT2":0,"toosoon":0,"cond_shown":"equaldotanddens","ratio_trial":750,"smaller_num":"15","larger_num":"20","correct_side":1,"subjID":"Juan Pablo Garia Gaitan 26","gender":"4","age":"9","school":"9"},{"start_time":1552309709084,"click_time":1552309710196,"finger_time":1552309709775,"fix_duration":1146.8168050786553,"trial":42,"RT":691,"MT":421,"sideResp":2,"stimulus":"img/250/equaldotanddens/R/13_Ratio_250_L_2_R_8.png","xmouse":[821,821,821,821,821,821,821,821,821,821,821,821,821,821,821,821,821,821,821,821,821,821,821,821,821,821,821,821,821,821,821,826,832,841,856,886,902,914,927,943,975,992,1002,1010,1020,1032,1036,1043,1047,1053,1055,1056,1057,1059,1061,1074],"ymouse":[496,496,496,496,496,496,496,496,496,496,496,496,496,496,496,496,496,496,496,496,496,496,496,496,496,496,496,496,496,496,496,493,487,477,459,414,393,371,344,312,256,234,216,202,183,160,154,144,138,129,125,124,121,118,114,97],"timestamp_mouse":[13,45,53,71,93,111,131,153,173,192,213,233,252,271,292,311,332,351,372,392,412,431,452,472,493,513,531,551,572,592,611,631,652,672,691,712,731,752,772,791,811,832,852,871,891,911,931,951,971,992,1012,1032,1051,1071,1091,1112],"xSR":741.5,"ySR":469.95,"xT1":424.9,"yT1":0,"xT2":1058.1,"yT2":0,"toosoon":0,"cond_shown":"equaldotanddens","ratio_trial":250,"smaller_num":"2","larger_num":"8","correct_side":2,"subjID":"Juan Pablo Garia Gaitan 26","gender":"4","age":"9","school":"9"},{"start_time":1552309711421,"click_time":1552309712895,"finger_time":1552309712415,"fix_duration":363.069054451029,"trial":43,"RT":994,"MT":480,"sideResp":2,"stimulus":"img/750/equaldotsize/R/5_Ratio_750_L_15_R_20.png","xmouse":[762,762,762,762,762,762,762,762,762,762,762,762,762,762,762,762,762,762,762,762,762,762,762,762,762,762,762,762,762,762,762,762,762,762,762,764,765,766,766,766,766,766,766,766,766,766,766,767,792,826,869,911,956,1032,1055,1069,1081,1096,1122,1140,1157,1176,1185,1189,1189,1188,1186,1185,1184,1181,1177,1169,1160,1128],"ymouse":[509,509,509,509,509,509,509,509,509,509,509,509,509,509,509,509,509,509,509,509,509,509,509,509,509,509,509,509,509,509,509,509,509,509,509,509,508,508,508,508,508,508,508,508,508,508,508,506,489,459,413,364,315,258,246,237,231,220,199,180,156,127,106,74,62,53,50,48,47,47,45,44,43,42],"timestamp_mouse":[14,43,54,74,95,115,136,156,175,195,214,235,256,275,295,314,335,356,374,394,416,435,455,475,494,515,536,555,574,595,615,635,656,676,695,714,734,755,776,795,815,835,856,876,895,916,935,955,975,994,1015,1035,1055,1074,1094,1114,1134,1154,1174,1194,1216,1235,1255,1274,1294,1315,1334,1355,1375,1394,1415,1435,1455,1474],"xSR":741.5,"ySR":469.95,"xT1":424.9,"yT1":0,"xT2":1058.1,"yT2":0,"toosoon":0,"cond_shown":"equaldotsize","ratio_trial":750,"smaller_num":"15","larger_num":"20","correct_side":2,"subjID":"Juan Pablo Garia Gaitan 26","gender":"4","age":"9","school":"9"},{"start_time":1552309714883,"click_time":1552309715715,"finger_time":1552309715396,"fix_duration":1003.9228199293142,"trial":44,"RT":513,"MT":319,"sideResp":2,"stimulus":"img/500/equaldotanddens/R/14_Ratio_500_L_5_R_10.png","xmouse":[812,812,812,812,812,812,812,812,812,812,811,811,810,810,810,810,810,810,810,810,811,814,817,822,827,845,858,873,888,924,946,972,999,1021,1030,1046,1054,1061,1066,1070,1078,1083],"ymouse":[530,530,530,530,530,530,530,530,530,530,530,530,530,529,529,528,526,525,524,517,513,508,503,495,487,465,451,436,419,372,339,297,258,224,206,173,156,140,129,118,101,92],"timestamp_mouse":[12,41,54,74,93,114,134,153,173,192,213,234,253,273,293,312,332,353,373,393,412,433,452,474,493,513,532,552,572,594,612,632,653,673,692,712,732,753,772,792,813,832],"xSR":741.5,"ySR":469.95,"xT1":424.9,"yT1":0,"xT2":1058.1,"yT2":0,"toosoon":0,"cond_shown":"equaldotanddens","ratio_trial":500,"smaller_num":"5","larger_num":"10","correct_side":2,"subjID":"Juan Pablo Garia Gaitan 26","gender":"4","age":"9","school":"9"},{"start_time":1552309719508,"click_time":1552309720516,"finger_time":1552309720077,"fix_duration":250,"trial":45,"RT":569,"MT":439,"sideResp":2,"stimulus":"img/250/equaldotsize/R/11_Ratio_250_L_3_R_12.png","xmouse":[785,785,785,785,785,785,785,785,785,785,785,785,785,785,785,785,785,785,785,785,785,785,785,785,785,784,794,819,928,1003,1060,1094,1114,1130,1151,1156,1160,1164,1174,1175,1175,1175,1175,1175,1175,1174,1173,1169,1164,1161,1158],"ymouse":[506,506,506,506,506,506,506,506,506,506,506,506,506,506,506,506,506,506,506,506,506,506,506,506,506,504,496,478,403,342,290,250,227,199,161,143,129,120,106,101,99,96,93,83,72,72,72,70,70,70,69],"timestamp_mouse":[13,29,49,69,87,108,127,148,167,188,209,228,247,267,289,308,327,349,367,387,408,428,448,468,487,507,528,547,569,587,608,629,648,669,688,707,728,748,769,787,808,827,848,867,888,908,928,948,969,987,1008],"xSR":741.5,"ySR":469.95,"xT1":424.9,"yT1":0,"xT2":1058.1,"yT2":0,"toosoon":0,"cond_shown":"equaldotsize","ratio_trial":250,"smaller_num":"3","larger_num":"12","correct_side":2,"subjID":"Juan Pablo Garia Gaitan 26","gender":"4","age":"9","school":"9"},{"start_time":1552309722060,"click_time":1552309723677,"finger_time":1552309722756,"fix_duration":462.8474650285389,"trial":46,"RT":696,"MT":921,"sideResp":2,"stimulus":"img/900/randomdotsizeEA/L/8_Ratio_900_L_20_R_18.png","xmouse":[765,765,765,765,765,765,765,765,765,765,765,765,765,765,765,765,765,765,765,765,765,765,765,765,765,765,765,767,769,772,774,775,775,773,756,737,666,622,595,577,562,534,517,505,493,490,489,489,489,490,492,492,492,492,492,494,568,622,683,747,823,839,845,851,856,864,876,887,916,953,1018,1037,1046,1051,1052,1054,1058,1060,1065,1074,1095],"ymouse":[527,527,527,527,527,527,527,527,527,527,527,527,527,527,527,527,527,527,527,527,527,527,527,527,527,527,527,526,523,520,516,506,498,485,458,433,354,314,289,273,260,236,219,206,192,187,181,177,173,169,163,163,163,163,163,164,251,309,361,408,449,452,452,450,446,436,405,383,344,292,203,166,147,134,130,125,119,117,112,102,84],"timestamp_mouse":[16,35,63,76,96,116,137,155,176,196,216,237,256,276,296,317,336,355,376,396,416,436,456,476,495,516,537,555,575,595,616,635,656,675,696,716,736,756,775,796,817,835,855,875,895,916,937,956,976,996,1017,1035,1055,1075,1095,1115,1136,1155,1176,1196,1216,1235,1256,1275,1295,1315,1336,1356,1376,1397,1417,1436,1456,1477,1496,1517,1535,1555,1576,1595,1617],"xSR":741.5,"ySR":469.95,"xT1":424.9,"yT1":0,"xT2":1058.1,"yT2":0,"toosoon":0,"cond_shown":"randomdotsizeEA","ratio_trial":900,"smaller_num":"18","larger_num":"20","correct_side":1,"subjID":"Juan Pablo Garia Gaitan 26","gender":"4","age":"9","school":"9"},{"start_time":1552309725459,"click_time":1552309726737,"finger_time":1552309725957,"fix_duration":781.282741477217,"trial":47,"RT":498,"MT":780,"sideResp":2,"stimulus":"img/500/equaldotanddens/R/2_Ratio_500_L_3_R_6.png","xmouse":[797,798,798,798,798,800,803,803,805,805,805,805,805,805,805,805,805,805,805,805,804,798,794,792,791,791,791,791,791,791,791,791,791,791,791,791,791,791,791,791,793,805,831,868,903,951,964,973,984,992,1000,1013,1020,1025,1029,1033,1034,1034,1034,1036,1045,1053,1057,1059],"ymouse":[489,488,488,488,487,485,483,483,483,483,483,483,483,483,483,483,483,483,483,483,480,475,472,470,469,469,469,469,469,469,469,469,469,469,469,469,469,469,469,469,465,452,427,379,320,218,195,178,165,149,134,111,99,91,84,79,78,78,78,78,76,74,72,70],"timestamp_mouse":[16,43,57,77,97,117,137,156,176,198,217,237,257,277,297,318,337,357,377,396,417,436,457,476,498,517,537,557,578,596,617,636,657,677,697,717,736,756,778,796,817,836,856,877,898,918,937,957,977,997,1017,1036,1057,1076,1097,1116,1137,1156,1176,1196,1216,1237,1257,1278],"xSR":741.5,"ySR":469.95,"xT1":424.9,"yT1":0,"xT2":1058.1,"yT2":0,"toosoon":0,"cond_shown":"equaldotanddens","ratio_trial":500,"smaller_num":"3","larger_num":"6","correct_side":2,"subjID":"Juan Pablo Garia Gaitan 26","gender":"4","age":"9","school":"9"},{"start_time":1552309728673,"click_time":1552309731015,"finger_time":1552309729677,"fix_duration":916.688265175291,"trial":48,"RT":1004,"MT":1338,"sideResp":2,"stimulus":"img/750/randomdotsizeEA/L/10_Ratio_750_L_4_R_3.png","xmouse":[762,762,762,762,762,762,762,762,762,762,762,762,762,762,762,762,762,762,762,762,762,762,762,762,762,762,762,762,762,762,762,762,762,762,762,762,762,762,762,762,762,762,762,762,762,762,762,763,761,748,709,693,678,669,667,667,667,667,667,665,664,646,634,622,614,611,611,611,611,611,619,653,674,699,732,761,773,787,802,822,850,925,953,994,1045,1068,1110,1123,1132,1136,1139,1163,1184,1192,1196,1198,1198,1198,1198,1196,1189,1148,1105,1043,959,921,893,892,892,892,892,892,893,899,913,952,1032,1060],"ymouse":[521,521,521,521,521,521,521,521,521,521,521,521,521,521,521,521,521,521,521,521,521,521,521,521,521,521,521,521,521,521,521,521,521,521,521,521,521,521,521,521,521,521,521,521,521,521,521,513,502,483,448,436,426,421,418,418,418,418,418,417,416,400,392,386,382,381,381,381,381,381,381,391,397,404,410,410,410,410,410,405,396,363,353,342,326,316,298,292,288,285,279,215,181,162,148,139,135,134,133,131,127,114,101,84,62,51,47,47,47,47,47,47,47,47,50,66,91,94],"timestamp_mouse":[11,22,45,63,83,102,124,142,163,184,203,223,244,263,283,302,323,344,362,383,402,422,442,462,483,503,523,543,563,582,603,622,642,663,682,704,723,744,764,783,803,822,842,863,884,903,924,942,963,983,1004,1023,1043,1062,1082,1104,1123,1143,1163,1182,1202,1222,1242,1263,1283,1303,1322,1343,1362,1382,1404,1422,1442,1462,1482,1504,1523,1542,1562,1582,1603,1622,1642,1662,1683,1703,1722,1743,1762,1782,1802,1822,1843,1863,1883,1904,1922,1942,1963,1983,2003,2022,2043,2062,2083,2102,2122,2143,2163,2183,2204,2222,2242,2262,2282,2303,2324,2342],"xSR":741.5,"ySR":469.95,"xT1":424.9,"yT1":0,"xT2":1058.1,"yT2":0,"toosoon":0,"cond_shown":"randomdotsizeEA","ratio_trial":750,"smaller_num":"3","larger_num":"4","correct_side":1,"subjID":"Juan Pablo Garia Gaitan 26","gender":"4","age":"9","school":"9"},{"start_time":1552309733081,"click_time":1552309734177,"finger_time":1552309733796,"fix_duration":1104.9556101359974,"trial":49,"RT":715,"MT":381,"sideResp":1,"stimulus":"img/500/equaldotanddens/L/13_Ratio_500_L_12_R_6.png","xmouse":[776,776,776,776,776,776,776,776,776,776,776,776,776,776,776,776,776,776,776,776,776,776,776,776,776,776,776,776,776,776,776,776,775,775,775,759,741,719,689,663,623,608,597,590,585,585,584,581,575,569,553,545,537,529,523],"ymouse":[510,510,510,510,510,510,510,510,510,510,510,510,510,510,510,510,510,510,510,510,510,510,510,510,510,510,510,510,510,510,510,510,510,504,494,450,422,383,339,303,252,236,226,221,217,217,216,211,202,186,150,132,113,99,88],"timestamp_mouse":[15,35,62,76,95,114,135,155,176,195,215,236,256,274,295,314,334,355,374,394,414,435,456,476,495,514,535,555,575,594,614,635,654,675,694,715,734,754,775,796,814,835,854,874,896,915,935,956,975,995,1014,1034,1055,1075,1096],"xSR":741.5,"ySR":469.95,"xT1":424.9,"yT1":0,"xT2":1058.1,"yT2":0,"toosoon":0,"cond_shown":"equaldotanddens","ratio_trial":500,"smaller_num":"6","larger_num":"12","correct_side":1,"subjID":"Juan Pablo Garia Gaitan 26","gender":"4","age":"9","school":"9"},{"start_time":1552309737827,"click_time":1552309739135,"finger_time":1552309738476,"fix_duration":1327.3029140313026,"trial":50,"RT":649,"MT":659,"sideResp":2,"stimulus":"img/900/randomdotsizeEA/L/10_Ratio_900_L_20_R_18.png","xmouse":[822,822,822,822,822,822,822,822,822,822,822,822,822,822,822,822,822,822,822,822,822,822,822,822,822,822,822,822,822,822,825,829,856,884,927,969,1006,1042,1086,1102,1111,1115,1123,1126,1129,1132,1136,1142,1150,1150,1150,1147,1143,1139,1133,1128,1124,1119,1116,1112,1112,1112,1112,1112,1115,1118],"ymouse":[526,526,526,526,526,526,526,526,526,526,526,526,526,526,526,526,526,526,526,526,526,526,526,526,526,526,526,526,526,526,524,519,487,455,421,386,358,330,290,274,263,257,249,246,242,236,227,217,190,178,167,158,147,142,135,129,123,119,119,117,117,117,113,108,101,97],"timestamp_mouse":[9,42,50,69,89,109,128,150,169,189,209,229,248,270,290,309,328,349,369,389,409,429,449,468,489,510,530,550,568,589,609,629,649,668,689,708,729,750,769,788,808,829,850,868,890,908,930,949,970,988,1009,1029,1050,1068,1088,1108,1129,1150,1168,1189,1208,1229,1249,1268,1288,1308],"xSR":741.5,"ySR":469.95,"xT1":424.9,"yT1":0,"xT2":1058.1,"yT2":0,"toosoon":0,"cond_shown":"randomdotsizeEA","ratio_trial":900,"smaller_num":"18","larger_num":"20","correct_side":1,"subjID":"Juan Pablo Garia Gaitan 26","gender":"4","age":"9","school":"9"},{"start_time":1552309744728,"click_time":1552309745995,"finger_time":1552309745355,"fix_duration":552.0891784662231,"trial":51,"RT":627,"MT":640,"sideResp":1,"stimulus":"img/250/equaldotanddens/L/7_Ratio_250_L_8_R_2.png","xmouse":[801,801,801,801,801,801,801,801,801,801,801,801,801,801,801,801,801,801,801,801,801,801,801,801,801,802,802,805,806,798,781,762,732,660,627,600,586,569,562,555,547,539,516,508,504,503,506,523,534,542,549,554,555,555,555,555,555,555,555,555,549,539,528,509],"ymouse":[527,527,527,527,527,527,527,527,527,527,527,527,527,527,527,527,527,527,527,527,527,527,527,527,527,523,522,517,511,491,473,457,435,382,359,341,332,321,316,307,295,282,238,216,193,175,154,121,105,93,79,67,64,63,63,63,63,63,63,61,56,48,39,26],"timestamp_mouse":[12,37,46,66,86,106,127,146,168,186,207,227,247,267,287,306,327,347,367,387,407,427,447,468,486,507,526,548,566,586,606,627,646,666,686,706,727,747,766,786,806,827,848,866,886,907,926,948,966,988,1006,1027,1046,1068,1088,1107,1126,1147,1166,1186,1207,1227,1246,1266],"xSR":741.5,"ySR":469.95,"xT1":424.9,"yT1":0,"xT2":1058.1,"yT2":0,"toosoon":0,"cond_shown":"equaldotanddens","ratio_trial":250,"smaller_num":"2","larger_num":"8","correct_side":1,"subjID":"Juan Pablo Garia Gaitan 26","gender":"4","age":"9","school":"9"},{"start_time":1552309749949,"click_time":1552309751015,"finger_time":1552309750494,"fix_duration":653.177719879189,"trial":52,"RT":545,"MT":521,"sideResp":2,"stimulus":"img/500/equaldotanddens/R/9_Ratio_500_L_2_R_4.png","xmouse":[790,790,790,790,790,790,790,790,790,790,790,790,790,790,790,790,790,790,790,790,790,790,790,790,793,802,814,851,864,871,878,881,885,885,885,880,842,838,837,837,843,869,876,879,879,879,879,879,879,881,881,944,1033,1155],"ymouse":[558,558,558,558,558,558,558,558,558,558,558,558,558,558,558,558,558,558,558,558,558,558,558,558,555,548,536,505,493,488,481,477,465,461,456,448,434,433,433,430,425,414,413,412,412,412,412,412,412,412,412,407,292,52],"timestamp_mouse":[6,27,46,65,87,105,126,147,166,185,206,225,245,266,285,305,325,345,365,386,405,427,446,465,485,505,526,545,565,585,606,625,645,665,686,705,727,745,766,785,805,827,845,866,886,905,926,946,966,985,1005,1027,1045,1066],"xSR":741.5,"ySR":469.95,"xT1":424.9,"yT1":0,"xT2":1058.1,"yT2":0,"toosoon":0,"cond_shown":"equaldotanddens","ratio_trial":500,"smaller_num":"2","larger_num":"4","correct_side":2,"subjID":"Juan Pablo Garia Gaitan 26","gender":"4","age":"9","school":"9"},{"start_time":1552309755032,"click_time":1552309756414,"finger_time":1552309755755,"fix_duration":355.54222994477993,"trial":53,"RT":723,"MT":659,"sideResp":2,"stimulus":"img/500/equaldotsize/R/12_Ratio_500_L_1_R_2.png","xmouse":[774,774,774,775,775,775,775,775,775,775,775,775,775,775,775,775,775,775,775,775,775,775,775,775,775,775,775,775,775,776,778,783,803,812,824,836,862,901,970,993,1007,1012,1014,1025,1040,1060,1085,1118,1233,1253,1268,1274,1278,1278,1278,1278,1278,1278,1278,1278,1278,1278,1278,1278,1278,1278,1278,1278,1111,1108],"ymouse":[552,552,552,552,552,552,552,552,552,552,552,552,552,552,552,552,552,552,552,552,552,552,552,552,552,552,552,552,552,552,549,546,535,526,511,490,425,375,338,333,332,332,331,325,317,309,296,275,150,109,67,33,9,9,9,9,9,9,9,9,9,9,9,9,9,9,9,9,0,5],"timestamp_mouse":[10,22,43,62,83,104,122,143,162,182,203,224,244,263,282,302,324,343,363,384,403,423,443,462,482,502,522,543,563,583,603,622,642,663,683,704,723,742,762,782,802,823,844,862,884,903,922,943,962,982,1002,1022,1044,1062,1084,1103,1123,1144,1163,1183,1203,1222,1243,1263,1282,1302,1323,1343,1362,1382],"xSR":741.5,"ySR":469.95,"xT1":424.9,"yT1":0,"xT2":1058.1,"yT2":0,"toosoon":0,"cond_shown":"equaldotsize","ratio_trial":500,"smaller_num":"1","larger_num":"2","correct_side":2,"subjID":"Juan Pablo Garia Gaitan 26","gender":"4","age":"9","school":"9"},{"start_time":1552309757946,"click_time":1552309759295,"finger_time":1552309758814,"fix_duration":250,"trial":54,"RT":868,"MT":481,"sideResp":2,"stimulus":"img/750/randomdotsizeEA/R/4_Ratio_750_L_15_R_20.png","xmouse":[791,791,791,791,791,791,791,791,791,791,791,791,792,795,796,797,799,801,802,806,807,809,809,809,809,809,809,809,809,809,809,809,809,809,809,809,809,809,809,809,810,811,835,853,882,928,1069,1141,1193,1235,1267,1296,1304,1311,1319,1324,1324,1324,1324,1324,1324,1324,1324,1324,1324,1324,1324,1093],"ymouse":[517,517,517,517,517,517,517,517,517,517,517,517,518,521,521,522,523,524,526,529,531,535,535,535,535,535,535,535,535,535,535,535,535,535,535,535,535,535,535,535,536,536,532,524,506,467,331,259,198,152,112,64,48,33,18,8,8,8,8,8,8,8,8,8,8,8,8,16],"timestamp_mouse":[8,29,59,69,88,109,128,148,168,188,209,228,249,268,288,310,330,349,369,390,409,428,449,470,489,509,529,548,569,588,610,628,649,668,690,709,729,749,770,788,809,828,850,868,889,909,929,948,968,989,1008,1029,1048,1068,1088,1108,1128,1148,1168,1188,1209,1229,1248,1268,1289,1309,1329,1349],"xSR":741.5,"ySR":469.95,"xT1":424.9,"yT1":0,"xT2":1058.1,"yT2":0,"toosoon":0,"cond_shown":"randomdotsizeEA","ratio_trial":750,"smaller_num":"15","larger_num":"20","correct_side":2,"subjID":"Juan Pablo Garia Gaitan 26","gender":"4","age":"9","school":"9"},{"start_time":1552309762482,"click_time":1552309763294,"finger_time":1552309762974,"fix_duration":585.2269317439705,"trial":55,"RT":492,"MT":320,"sideResp":1,"stimulus":"img/500/equaldotanddens/L/11_Ratio_500_L_12_R_6.png","xmouse":[803,800,800,800,800,800,800,800,800,800,800,800,800,800,800,800,800,800,800,800,800,802,821,835,880,943,945,945,944,939,938,935,925,910,877,832,815,773,705,628,506],"ymouse":[512,512,512,512,512,512,512,512,512,512,512,512,512,512,512,512,512,512,512,512,512,508,490,475,421,295,268,247,228,210,207,205,200,194,183,166,159,142,112,80,26],"timestamp_mouse":[12,33,61,72,94,112,133,154,174,192,212,234,254,272,293,312,332,354,373,393,412,433,452,473,492,514,532,552,572,594,612,633,653,673,692,712,732,753,772,792,812],"xSR":741.5,"ySR":469.95,"xT1":424.9,"yT1":0,"xT2":1058.1,"yT2":0,"toosoon":0,"cond_shown":"equaldotanddens","ratio_trial":500,"smaller_num":"6","larger_num":"12","correct_side":1,"subjID":"Juan Pablo Garia Gaitan 26","gender":"4","age":"9","school":"9"},{"start_time":1552309766876,"click_time":1552309767935,"finger_time":1552309767555,"fix_duration":1098.5558549904254,"trial":56,"RT":679,"MT":380,"sideResp":2,"stimulus":"img/500/equaldotsize/R/9_Ratio_500_L_2_R_4.png","xmouse":[798,798,798,798,798,798,798,798,798,798,798,798,798,798,798,798,798,798,798,798,798,798,798,798,798,798,798,798,798,798,798,798,812,853,902,988,1009,1024,1037,1054,1059,1064,1071,1079,1087,1097,1104,1112,1119,1136,1143,1147,1151],"ymouse":[518,518,518,518,518,518,518,518,518,518,518,518,518,518,518,518,518,518,518,518,518,518,518,518,518,518,518,518,518,518,518,515,508,490,466,414,400,387,373,349,340,332,321,309,292,270,256,238,214,161,138,112,91],"timestamp_mouse":[20,43,58,78,98,120,138,159,179,199,218,240,259,278,299,318,339,359,378,399,419,439,459,480,499,518,538,559,579,599,618,638,659,679,698,718,739,760,778,799,818,839,858,879,900,919,938,959,978,999,1018,1039,1059],"xSR":741.5,"ySR":469.95,"xT1":424.9,"yT1":0,"xT2":1058.1,"yT2":0,"toosoon":0,"cond_shown":"equaldotsize","ratio_trial":500,"smaller_num":"2","larger_num":"4","correct_side":2,"subjID":"Juan Pablo Garia Gaitan 26","gender":"4","age":"9","school":"9"},{"start_time":1552309770622,"click_time":1552309771834,"finger_time":1552309771434,"fix_duration":606.7708622817848,"trial":57,"RT":812,"MT":400,"sideResp":1,"stimulus":"img/900/randomdotsizeEA/R/6_Ratio_900_L_9_R_10.png","xmouse":[785,785,785,784,783,783,783,783,783,783,783,783,784,788,790,792,793,796,797,799,800,800,800,801,801,801,801,801,801,801,801,801,801,801,801,801,801,803,817,823,824,823,817,807,803,799,792,739,719,703,683,655,624,584,574,568,564,554,516,497,489],"ymouse":[533,533,533,532,530,530,530,530,530,530,529,529,529,529,528,528,528,528,527,527,527,527,527,527,527,527,527,527,527,527,527,527,527,527,527,527,527,525,500,480,457,432,408,372,358,345,332,267,244,228,215,199,183,164,158,155,150,144,116,101,94],"timestamp_mouse":[13,48,53,74,92,113,132,153,172,192,213,234,254,274,292,313,333,353,373,394,414,433,452,472,493,512,533,553,572,593,612,632,653,672,694,713,732,753,773,792,812,832,854,873,892,912,933,954,972,993,1012,1033,1054,1072,1093,1113,1132,1153,1173,1192,1212],"xSR":741.5,"ySR":469.95,"xT1":424.9,"yT1":0,"xT2":1058.1,"yT2":0,"toosoon":0,"cond_shown":"randomdotsizeEA","ratio_trial":900,"smaller_num":"9","larger_num":"10","correct_side":2,"subjID":"Juan Pablo Garia Gaitan 26","gender":"4","age":"9","school":"9"},{"start_time":1552309776293,"click_time":1552309777394,"finger_time":1552309776774,"fix_duration":637.2747885273385,"trial":58,"RT":481,"MT":620,"sideResp":2,"stimulus":"img/900/equaldotsize/R/6_Ratio_900_L_9_R_10.png","xmouse":[795,795,795,795,795,795,795,795,795,795,795,795,795,795,795,795,795,795,795,795,795,799,804,823,863,926,955,993,1021,1113,1153,1187,1201,1201,1201,1201,1201,1201,1201,1201,1201,1201,1201,1201,1201,1201,1201,1201,1201,1201,1201,1201,1201,1201,1201,1071],"ymouse":[495,495,495,495,495,495,495,495,495,495,495,495,495,495,495,495,495,495,495,495,495,494,493,491,485,473,457,428,401,270,170,62,8,8,8,8,8,8,8,8,8,8,8,8,8,8,8,8,8,8,8,8,8,8,8,8],"timestamp_mouse":[9,21,41,71,83,102,122,142,161,181,201,221,242,261,283,301,321,341,362,382,401,422,442,461,481,501,522,542,561,583,601,621,641,663,683,701,721,741,761,782,801,821,842,861,882,902,921,941,961,981,1002,1021,1041,1062,1082,1101],"xSR":741.5,"ySR":469.95,"xT1":424.9,"yT1":0,"xT2":1058.1,"yT2":0,"toosoon":0,"cond_shown":"equaldotsize","ratio_trial":900,"smaller_num":"9","larger_num":"10","correct_side":2,"subjID":"Juan Pablo Garia Gaitan 26","gender":"4","age":"9","school":"9"},{"start_time":1552309781098,"click_time":1552309782376,"finger_time":1552309781834,"fix_duration":881.2275428446645,"trial":59,"RT":736,"MT":542,"sideResp":2,"stimulus":"img/500/randomdotsizeEA/R/3_Ratio_500_L_10_R_20.png","xmouse":[806,806,806,806,806,806,806,806,806,806,806,806,806,806,806,806,806,806,806,806,806,806,806,806,806,806,806,806,806,806,806,806,806,806,824,840,854,870,890,980,1013,1025,1027,1028,1033,1034,1038,1042,1047,1047,1047,1047,1047,1047,1047,1047,1048,1049,1052,1074,1085,1103,1120,1148],"ymouse":[534,534,534,534,534,534,534,534,534,534,534,534,534,534,534,534,534,534,534,534,534,534,534,534,534,534,534,534,534,534,534,534,534,534,514,499,485,473,460,422,406,398,396,393,382,376,364,351,322,308,290,273,257,225,216,208,200,192,183,151,137,120,108,85],"timestamp_mouse":[18,41,56,77,97,116,137,156,177,198,218,236,256,277,296,317,337,358,377,396,416,437,457,477,497,516,536,558,576,597,617,637,658,676,696,717,736,756,777,796,817,836,856,878,896,916,936,956,978,996,1017,1037,1056,1078,1096,1116,1136,1156,1177,1197,1218,1237,1257,1277],"xSR":741.5,"ySR":469.95,"xT1":424.9,"yT1":0,"xT2":1058.1,"yT2":0,"toosoon":0,"cond_shown":"randomdotsizeEA","ratio_trial":500,"smaller_num":"10","larger_num":"20","correct_side":2,"subjID":"Juan Pablo Garia Gaitan 26","gender":"4","age":"9","school":"9"},{"start_time":1552309784617,"click_time":1552309786176,"finger_time":1552309785275,"fix_duration":880.5567743898267,"trial":60,"RT":658,"MT":901,"sideResp":1,"stimulus":"img/500/equaldotsize/L/7_Ratio_500_L_10_R_5.png","xmouse":[812,812,812,812,812,812,812,812,812,812,812,812,812,812,812,812,812,812,812,812,812,812,812,812,812,812,812,812,811,803,792,773,733,721,717,716,715,713,694,682,671,665,660,659,658,655,649,642,632,631,628,625,620,612,609,607,603,599,580,571,568,568,568,568,568,568,568,568,561,546,533,528,526,527,527,527,527,522],"ymouse":[541,541,541,541,541,541,541,541,541,541,541,541,541,541,541,541,541,541,541,541,541,541,541,541,541,541,541,541,539,524,508,485,436,423,417,416,415,412,392,379,365,353,341,337,332,316,298,281,260,254,249,243,234,216,207,199,189,184,169,161,156,154,152,144,143,141,140,135,130,122,112,106,101,99,99,99,98,93],"timestamp_mouse":[18,39,57,79,98,117,137,158,178,198,217,238,259,277,297,318,337,357,377,398,419,438,458,479,499,517,538,557,577,597,617,637,658,677,697,717,738,757,777,797,817,838,860,877,897,917,938,957,978,997,1018,1038,1058,1078,1097,1118,1137,1157,1178,1197,1218,1237,1257,1277,1297,1318,1338,1358,1377,1397,1418,1439,1458,1477,1497,1517,1537,1559],"xSR":741.5,"ySR":469.95,"xT1":424.9,"yT1":0,"xT2":1058.1,"yT2":0,"toosoon":0,"cond_shown":"equaldotsize","ratio_trial":500,"smaller_num":"5","larger_num":"10","correct_side":1,"subjID":"Juan Pablo Garia Gaitan 26","gender":"4","age":"9","school":"9"},{"start_time":1552309788879,"click_time":1552309789714,"finger_time":1552309789475,"fix_duration":1243.6882549142865,"trial":61,"RT":596,"MT":239,"sideResp":2,"stimulus":"img/900/equaldotsize/L/8_Ratio_900_L_20_R_18.png","xmouse":[791,791,791,791,791,791,791,791,791,791,791,791,791,791,791,791,791,791,791,791,791,791,791,791,791,797,810,823,838,851,878,896,914,959,976,1022,1034,1051,1073,1096,1121,1127],"ymouse":[505,505,505,505,505,505,505,505,505,505,505,505,505,505,505,505,505,505,505,505,505,505,505,505,505,503,492,482,470,459,436,422,402,356,336,282,262,231,192,154,109,95],"timestamp_mouse":[16,35,64,75,95,116,135,157,175,196,215,235,256,277,296,315,335,356,377,396,415,436,456,476,495,516,535,557,575,596,615,635,655,676,696,715,735,756,775,797,816,835],"xSR":741.5,"ySR":469.95,"xT1":424.9,"yT1":0,"xT2":1058.1,"yT2":0,"toosoon":0,"cond_shown":"equaldotsize","ratio_trial":900,"smaller_num":"18","larger_num":"20","correct_side":1,"subjID":"Juan Pablo Garia Gaitan 26","gender":"4","age":"9","school":"9"},{"start_time":1552309792526,"click_time":1552309793614,"finger_time":1552309793214,"fix_duration":1408.8996107305347,"trial":62,"RT":688,"MT":400,"sideResp":1,"stimulus":"img/750/equaldotanddens/L/14_Ratio_750_L_8_R_6.png","xmouse":[807,807,807,807,807,807,807,807,807,807,807,807,807,807,807,807,807,807,807,807,807,807,807,807,807,807,807,807,807,807,807,807,805,797,785,758,721,672,655,646,640,637,635,631,627,621,612,604,592,585,577,564,545,530,516],"ymouse":[497,497,497,497,497,497,497,497,497,497,497,497,497,497,497,497,497,497,497,497,497,497,497,497,497,497,497,497,497,497,497,497,496,486,467,430,368,238,188,156,134,122,116,100,92,83,72,63,51,48,44,38,30,27,27],"timestamp_mouse":[10,38,49,70,89,108,129,149,169,189,209,228,248,269,290,310,328,349,369,389,408,430,449,469,490,509,528,548,569,588,609,629,649,669,688,708,728,749,768,789,808,828,849,868,888,908,928,949,968,988,1008,1028,1048,1069,1088],"xSR":741.5,"ySR":469.95,"xT1":424.9,"yT1":0,"xT2":1058.1,"yT2":0,"toosoon":0,"cond_shown":"equaldotanddens","ratio_trial":750,"smaller_num":"6","larger_num":"8","correct_side":1,"subjID":"Juan Pablo Garia Gaitan 26","gender":"4","age":"9","school":"9"},{"start_time":1552309796035,"click_time":1552309796876,"finger_time":1552309796676,"fix_duration":1379.929628005706,"trial":63,"RT":641,"MT":200,"sideResp":2,"stimulus":"img/900/equaldotanddens/L/4_Ratio_900_L_20_R_18.png","xmouse":[796,796,796,796,796,796,796,796,796,796,796,796,796,796,796,796,796,796,796,796,796,796,796,796,796,796,796,799,802,804,808,820,901,954,994,1025,1049,1064,1091,1104,1114,1118,1109],"ymouse":[520,520,520,520,520,520,520,520,520,520,520,520,520,520,520,520,520,520,520,520,520,520,520,520,520,520,520,519,518,518,515,507,461,434,416,401,384,369,317,287,241,162,28],"timestamp_mouse":[2,19,41,60,79,100,120,139,160,180,201,219,239,259,279,301,320,340,360,380,400,419,440,459,479,500,519,540,560,579,600,619,641,659,679,699,719,739,760,779,800,819,841],"xSR":741.5,"ySR":469.95,"xT1":424.9,"yT1":0,"xT2":1058.1,"yT2":0,"toosoon":0,"cond_shown":"equaldotanddens","ratio_trial":900,"smaller_num":"18","larger_num":"20","correct_side":1,"subjID":"Juan Pablo Garia Gaitan 26","gender":"4","age":"9","school":"9"},{"start_time":1552309798292,"click_time":1552309799676,"finger_time":1552309799134,"fix_duration":275.6007683735857,"trial":64,"RT":842,"MT":542,"sideResp":1,"stimulus":"img/250/equaldotanddens/L/2_Ratio_250_L_16_R_4.png","xmouse":[804,804,804,804,804,804,804,804,804,804,804,804,804,804,804,804,804,804,804,804,804,804,804,804,804,804,804,804,804,804,804,804,804,804,804,804,804,804,804,801,784,745,694,674,664,661,659,645,595,486,462,452,450,446,424,382,369,362,361,361,361,362,365,375,385,403,413,420,427,445],"ymouse":[517,517,517,517,517,517,517,517,517,517,517,517,517,517,517,517,517,517,517,517,517,517,517,517,517,517,517,517,517,517,517,517,517,517,517,517,517,517,517,517,512,495,462,444,431,424,420,411,382,298,273,258,253,248,231,191,170,158,153,153,153,151,148,141,137,126,119,112,105,86],"timestamp_mouse":[13,29,43,62,82,104,122,142,162,182,202,223,243,262,283,303,323,343,363,383,402,422,443,462,484,502,522,543,564,584,603,623,643,663,683,704,722,742,763,782,802,823,842,862,882,903,923,944,962,984,1002,1023,1043,1063,1082,1102,1122,1142,1163,1183,1202,1223,1242,1262,1282,1303,1322,1343,1362,1383],"xSR":741.5,"ySR":469.95,"xT1":424.9,"yT1":0,"xT2":1058.1,"yT2":0,"toosoon":0,"cond_shown":"equaldotanddens","ratio_trial":250,"smaller_num":"4","larger_num":"16","correct_side":1,"subjID":"Juan Pablo Garia Gaitan 26","gender":"4","age":"9","school":"9"},{"start_time":1552309802544,"click_time":1552309803315,"finger_time":1552309803034,"fix_duration":1426.7045650383475,"trial":65,"RT":490,"MT":281,"sideResp":2,"stimulus":"img/750/randomdotsizeEA/L/13_Ratio_750_L_8_R_6.png","xmouse":[821,821,821,821,821,821,821,821,821,821,821,821,821,821,821,821,821,821,821,821,821,821,830,840,848,855,862,871,877,885,898,965,992,1010,1020,1026,1043,1057,1069],"ymouse":[530,530,530,530,530,530,530,530,530,530,530,530,530,530,530,530,530,530,530,530,530,530,528,519,512,506,499,489,482,473,460,350,302,262,238,218,162,113,74],"timestamp_mouse":[12,37,51,70,90,112,131,151,171,190,211,230,251,271,291,310,332,351,372,391,410,431,450,470,490,510,530,550,570,590,610,631,650,670,691,710,732,750,771],"xSR":741.5,"ySR":469.95,"xT1":424.9,"yT1":0,"xT2":1058.1,"yT2":0,"toosoon":0,"cond_shown":"randomdotsizeEA","ratio_trial":750,"smaller_num":"6","larger_num":"8","correct_side":1,"subjID":"Juan Pablo Garia Gaitan 26","gender":"4","age":"9","school":"9"},{"start_time":1552309805009,"click_time":1552309807140,"finger_time":1552309806700,"fix_duration":467.2988492796981,"trial":66,"RT":1691,"MT":440,"sideResp":1,"stimulus":"img/900/equaldotanddens/R/14_Ratio_900_L_18_R_20.png","xmouse":[765,765,765,765,765,765,765,765,765,765,765,765,765,765,765,765,765,765,765,765,765,765,765,765,765,765,765,765,765,765,765,765,765,765,765,765,765,765,765,765,765,765,765,765,765,765,765,765,765,765,765,766,766,766,766,766,766,766,766,766,766,766,766,768,776,780,787,792,800,806,807,807,807,807,807,807,807,807,807,807,807,807,806,801,791,779,768,762,760,736,727,719,713,708,699,693,682,671,658,628,620,615,607,595,553,530,516],"ymouse":[519,519,519,519,519,519,519,519,519,519,519,519,519,519,519,519,519,519,519,519,519,519,519,519,519,519,519,519,519,519,519,519,519,519,519,519,519,519,519,519,519,519,519,519,519,519,519,519,519,519,519,519,519,519,519,519,519,519,519,519,519,519,519,519,518,516,515,515,515,515,515,515,515,515,515,515,515,515,515,515,515,513,506,491,445,405,357,298,221,94,76,65,59,57,55,55,52,49,46,43,43,45,50,58,80,88,93],"timestamp_mouse":[11,31,64,71,92,112,131,151,171,191,211,232,251,271,292,311,331,351,371,391,412,432,452,471,492,511,532,551,571,592,612,631,651,671,691,712,732,752,771,791,811,832,851,870,891,912,931,952,971,992,1011,1032,1052,1071,1091,1112,1132,1151,1171,1192,1211,1231,1252,1271,1291,1311,1331,1352,1372,1391,1411,1431,1452,1472,1491,1511,1531,1552,1572,1591,1611,1632,1651,1671,1691,1711,1731,1751,1771,1791,1811,1831,1851,1871,1891,1912,1931,1951,1971,1992,2011,2032,2051,2071,2091,2112,2131],"xSR":741.5,"ySR":469.95,"xT1":424.9,"yT1":0,"xT2":1058.1,"yT2":0,"toosoon":0,"cond_shown":"equaldotanddens","ratio_trial":900,"smaller_num":"18","larger_num":"20","correct_side":2,"subjID":"Juan Pablo Garia Gaitan 26","gender":"4","age":"9","school":"9"},{"start_time":1552309808877,"click_time":1552309810420,"finger_time":1552309809400,"fix_duration":274.69446951743083,"trial":67,"RT":523,"MT":1020,"s