[{"start_time":1552312962058,"click_time":1552312963462,"finger_time":1552312962963,"fix_duration":473.3845596505045,"trial":0,"RT":905,"MT":499,"sideResp":2,"stimulus":[],"xmouse":[765,765,765,765,765,765,765,765,765,765,765,765,765,765,765,765,765,765,765,765,765,765,765,765,765,765,765,765,765,765,765,765,765,765,765,765,765,765,765,765,765,765,765,764,758,732,690,704,749,772,784,786,786,786,786,787,787,836,871,907,919,943,987,1003,1018,1025,1028,1033,1033,1038,1061],"ymouse":[559,559,559,559,559,559,559,559,559,559,559,559,559,559,559,559,559,559,559,559,559,559,559,559,559,559,559,559,559,559,559,559,559,559,559,559,559,559,559,559,559,559,559,559,557,567,600,606,599,595,595,595,595,595,595,594,593,520,461,378,348,258,189,164,155,149,139,105,85,61,38],"timestamp_mouse":[3,25,43,63,85,105,125,144,164,184,205,225,245,265,285,304,325,344,364,385,404,424,445,463,485,505,524,544,564,584,605,624,643,664,685,705,723,744,764,785,804,823,844,864,883,905,924,944,964,983,1004,1024,1044,1063,1085,1104,1124,1144,1164,1184,1204,1223,1244,1264,1284,1304,1324,1343,1363,1384,1404],"xSR":741.5,"ySR":501.8,"xT1":424.9,"yT1":0,"xT2":1058.1,"yT2":0,"toosoon":0,"cond_shown":"Congruent","ratio_trial":200,"L_num":12,"L_den":20,"R_num":6,"R_den":15,"correct_side":1,"subjID":"lucianaduarte20","gender":"1","age":"9","school":"4","test":{"fix_dur":[250,1500],"timestim":1000,"targets_dim":[100,100],"targets_relative_coord":[0.3,0.7],"size_stim":[880,420],"start_dim":[100,100],"size_start":[300,300],"size_fix":60,"samplingrate":20,"img_types":["Congruent","Incongruent"],"ratios":[100,200,300],"rep_conds":19,"nTrials":120,"trials_to_rest":500,"Trials_order":[14,87,105,10,34,54,28,109,89,52,74,85,119,8,12,76,35,90,97,45,80,75,88,79,77,81,83,63,117,33,65,1,114,91,13,116,72,103,41,115,25,96,55,53,37,51,9,48,78,67,18,17,107,31,92,111,11,95,49,56,98,22,6,32,46,43,5,19,29,118,102,110,57,59,58,112,16,66,108,27,94,30,69,38,20,26,2,60,64,68,42,21,50,104,100,99,82,15,44,47,3,24,86,36,40,39,93,4,113,7,0,62,70,73,101,71,84,23,61,106],"cond_shown":["Congruent","Incongruent","Incongruent","Congruent","Congruent","Congruent","Congruent","Incongruent","Incongruent","Congruent","Congruent","Incongruent","Incongruent","Congruent","Congruent","Congruent","Incongruent","Congruent","Incongruent","Incongruent","Congruent","Incongruent","Congruent","Incongruent","Incongruent","Incongruent","Incongruent","Incongruent","Incongruent","Incongruent","Incongruent","Incongruent","Congruent","Incongruent","Incongruent","Congruent","Congruent","Incongruent","Incongruent","Incongruent","Incongruent","Congruent","Incongruent","Incongruent","Incongruent","Incongruent","Incongruent","Congruent","Congruent","Incongruent","Congruent","Incongruent","Incongruent","Incongruent","Congruent","Incongruent","Incongruent","Incongruent","Incongruent","Congruent","Congruent","Congruent","Congruent","Congruent","Congruent","Incongruent","Incongruent","Incongruent","Incongruent","Congruent","Congruent","Congruent","Incongruent","Incongruent","Congruent","Congruent","Congruent","Congruent","Congruent","Incongruent","Congruent","Congruent","Incongruent","Congruent","Congruent","Congruent","Congruent","Congruent","Congruent","Congruent","Congruent","Incongruent","Congruent","Congruent","Congruent","Incongruent","Congruent","Incongruent","Congruent","Incongruent","Incongruent","Congruent","Congruent","Congruent","Congruent","Incongruent","Incongruent","Congruent","Incongruent","Incongruent","Congruent","Congruent","Congruent","Incongruent","Incongruent","Incongruent","Congruent","Incongruent","Incongruent","Congruent"],"ratio_trial":[200,200,200,300,300,100,300,100,300,300,200,100,300,200,100,300,300,100,100,200,200,200,300,100,300,200,300,200,200,200,300,100,100,100,100,200,100,100,300,100,100,100,100,300,100,200,200,100,100,100,100,300,300,100,200,200,300,300,100,200,200,300,100,200,300,100,300,100,300,300,100,200,200,300,300,300,300,100,100,200,300,100,200,200,200,200,200,100,300,200,100,200,200,200,300,200,300,200,200,300,200,100,200,100,300,200,200,300,300,100,100,200,300,100,300,300,100,300,100,300],"left_num":[12,7,7,3,20,4,24,6,2,2,8,6,1,12,6,11,4,1,1,4,6,7,8,9,1,14,13,6,14,1,4,4,3,8,6,3,10,8,4,2,12,2,3,4,8,11,4,10,15,6,1,4,13,10,15,4,1,1,11,9,3,11,2,7,20,10,13,9,2,3,1,9,14,4,1,4,2,4,10,7,8,10,7,20,3,9,16,10,3,21,4,7,14,6,8,7,1,7,9,8,1,6,3,9,1,7,3,11,4,13,15,9,8,3,3,13,6,3,3,1],"right_num":[6,4,6,2,14,15,2,7,6,10,7,3,2,6,15,4,6,3,8,1,7,8,10,20,2,6,12,3,6,2,2,8,2,1,3,14,3,1,2,8,2,6,11,2,1,3,1,3,13,7,18,2,12,9,4,14,3,2,9,4,11,1,11,18,13,9,12,6,6,4,18,13,12,2,11,13,12,6,3,12,10,3,12,9,7,13,9,3,2,2,15,12,6,11,10,14,6,4,13,9,3,5,7,8,6,8,11,1,8,12,13,13,1,7,4,12,15,4,7,6],"left_den":[20,15,15,6,25,10,30,10,4,20,15,12,2,20,12,22,5,2,2,30,12,10,15,10,2,30,26,20,30,3,20,8,6,20,12,10,25,20,20,4,30,5,5,20,20,20,30,25,25,10,2,20,26,25,25,6,2,2,22,20,10,22,5,15,25,25,26,18,4,6,2,30,30,20,5,20,10,8,25,10,15,25,10,25,10,30,30,25,6,30,10,10,28,20,15,10,5,15,30,10,2,20,10,15,5,10,4,22,5,26,25,30,16,9,6,26,12,6,9,5],"right_den":[15,6,9,10,28,30,4,14,30,25,21,5,10,15,25,20,12,5,20,3,10,16,12,25,10,9,15,6,9,15,4,20,5,2,5,28,10,2,4,20,4,12,22,4,2,4,3,10,26,14,30,4,15,18,10,30,15,10,15,16,22,5,22,27,26,18,15,10,30,5,30,26,18,4,22,26,24,10,10,24,12,10,24,15,14,26,27,10,10,4,30,24,20,22,12,28,12,6,26,18,10,25,14,16,12,16,20,5,16,20,26,26,5,30,20,15,25,20,30,12],"correct_side":[1,2,2,1,1,2,1,1,1,2,1,2,1,1,2,1,1,2,1,2,2,1,2,1,1,2,2,2,2,1,2,1,1,2,2,2,1,2,2,1,2,2,1,2,2,2,2,1,1,1,2,2,2,2,1,1,1,1,2,1,2,1,2,2,1,2,2,2,1,2,2,2,2,2,2,2,2,2,1,1,2,1,1,1,2,2,1,1,1,1,2,1,1,2,2,1,2,2,2,1,1,1,2,1,2,1,1,1,1,2,1,2,1,1,1,2,2,1,1,2],"img_shown":["img2/200/Congruent/L/C_Dist_200_LN_12_LD_20_RN_6_RD_15_0.png","img2/200/Incongruent/R/I_Dist_200_LN_7_LD_15_RN_4_RD_6_1.png","img2/200/Incongruent/R/I_Dist_200_LN_7_LD_15_RN_6_RD_9_1.png","img2/300/Congruent/L/C_Dist_300_LN_3_LD_6_RN_2_RD_10_0.png","img2/300/Congruent/L/C_Dist_300_LN_20_LD_25_RN_14_RD_28_0.png","img2/100/Congruent/R/C_Dist_100_LN_4_LD_10_RN_15_RD_30_1.png","img2/300/Congruent/L/C_Dist_300_LN_24_LD_30_RN_2_RD_4_0.png","img2/100/Incongruent/L/I_Dist_100_LN_6_LD_10_RN_7_RD_14_0.png","img2/300/Incongruent/L/I_Dist_300_LN_2_LD_4_RN_6_RD_30_0.png","img2/300/Congruent/R/C_Dist_300_LN_2_LD_20_RN_10_RD_25_1.png","img2/200/Congruent/L/C_Dist_200_LN_8_LD_15_RN_7_RD_21_0.png","img2/100/Incongruent/R/I_Dist_100_LN_6_LD_12_RN_3_RD_5_1.png","img2/300/Incongruent/L/I_Dist_300_LN_1_LD_2_RN_2_RD_10_0.png","img2/200/Congruent/L/C_Dist_200_LN_12_LD_20_RN_6_RD_15_0.png","img2/100/Congruent/R/C_Dist_100_LN_6_LD_12_RN_15_RD_25_1.png","img2/300/Congruent/L/C_Dist_300_LN_11_LD_22_RN_4_RD_20_0.png","img2/300/Incongruent/L/I_Dist_300_LN_4_LD_5_RN_6_RD_12_0.png","img2/100/Congruent/R/C_Dist_100_LN_1_LD_2_RN_3_RD_5_1.png","img2/100/Incongruent/L/I_Dist_100_LN_1_LD_2_RN_8_RD_20_0.png","img2/200/Incongruent/R/I_Dist_200_LN_4_LD_30_RN_1_RD_3_1.png","img2/200/Congruent/R/C_Dist_200_LN_6_LD_12_RN_7_RD_10_1.png","img2/200/Incongruent/L/I_Dist_200_LN_7_LD_10_RN_8_RD_16_0.png","img2/300/Congruent/R/C_Dist_300_LN_8_LD_15_RN_10_RD_12_1.png","img2/100/Incongruent/L/I_Dist_100_LN_9_LD_10_RN_20_RD_25_0.png","img2/300/Incongruent/L/I_Dist_300_LN_1_LD_2_RN_2_RD_10_0.png","img2/200/Incongruent/R/I_Dist_200_LN_14_LD_30_RN_6_RD_9_1.png","img2/300/Incongruent/R/I_Dist_300_LN_13_LD_26_RN_12_RD_15_1.png","img2/200/Incongruent/R/I_Dist_200_LN_6_LD_20_RN_3_RD_6_1.png","img2/200/Incongruent/R/I_Dist_200_LN_14_LD_30_RN_6_RD_9_1.png","img2/200/Incongruent/L/I_Dist_200_LN_1_LD_3_RN_2_RD_15_0.png","img2/300/Incongruent/R/I_Dist_300_LN_4_LD_20_RN_2_RD_4_1.png","img2/100/Incongruent/L/I_Dist_100_LN_4_LD_8_RN_8_RD_20_0.png","img2/100/Congruent/L/C_Dist_100_LN_3_LD_6_RN_2_RD_5_0.png","img2/100/Incongruent/R/I_Dist_100_LN_8_LD_20_RN_1_RD_2_1.png","img2/100/Incongruent/R/I_Dist_100_LN_6_LD_12_RN_3_RD_5_1.png","img2/200/Congruent/R/C_Dist_200_LN_3_LD_10_RN_14_RD_28_1.png","img2/100/Congruent/L/C_Dist_100_LN_10_LD_25_RN_3_RD_10_0.png","img2/100/Incongruent/R/I_Dist_100_LN_8_LD_20_RN_1_RD_2_1.png","img2/300/Incongruent/R/I_Dist_300_LN_4_LD_20_RN_2_RD_4_1.png","img2/100/Incongruent/L/I_Dist_100_LN_2_LD_4_RN_8_RD_20_0.png","img2/100/Incongruent/R/I_Dist_100_LN_12_LD_30_RN_2_RD_4_1.png","img2/100/Congruent/R/C_Dist_100_LN_2_LD_5_RN_6_RD_12_1.png","img2/100/Incongruent/L/I_Dist_100_LN_3_LD_5_RN_11_RD_22_0.png","img2/300/Incongruent/R/I_Dist_300_LN_4_LD_20_RN_2_RD_4_1.png","img2/100/Incongruent/R/I_Dist_100_LN_8_LD_20_RN_1_RD_2_1.png","img2/200/Incongruent/R/I_Dist_200_LN_11_LD_20_RN_3_RD_4_1.png","img2/200/Incongruent/R/I_Dist_200_LN_4_LD_30_RN_1_RD_3_1.png","img2/100/Congruent/L/C_Dist_100_LN_10_LD_25_RN_3_RD_10_0.png","img2/100/Congruent/L/C_Dist_100_LN_15_LD_25_RN_13_RD_26_0.png","img2/100/Incongruent/L/I_Dist_100_LN_6_LD_10_RN_7_RD_14_0.png","img2/100/Congruent/R/C_Dist_100_LN_1_LD_2_RN_18_RD_30_1.png","img2/300/Incongruent/R/I_Dist_300_LN_4_LD_20_RN_2_RD_4_1.png","img2/300/Incongruent/R/I_Dist_300_LN_13_LD_26_RN_12_RD_15_1.png","img2/100/Incongruent/R/I_Dist_100_LN_10_LD_25_RN_9_RD_18_1.png","img2/200/Congruent/L/C_Dist_200_LN_15_LD_25_RN_4_RD_10_0.png","img2/200/Incongruent/L/I_Dist_200_LN_4_LD_6_RN_14_RD_30_0.png","img2/300/Incongruent/L/I_Dist_300_LN_1_LD_2_RN_3_RD_15_0.png","img2/300/Incongruent/L/I_Dist_300_LN_1_LD_2_RN_2_RD_10_0.png","img2/100/Incongruent/R/I_Dist_100_LN_11_LD_22_RN_9_RD_15_1.png","img2/200/Congruent/L/C_Dist_200_LN_9_LD_20_RN_4_RD_16_0.png","img2/200/Congruent/R/C_Dist_200_LN_3_LD_10_RN_11_RD_22_1.png","img2/300/Congruent/L/C_Dist_300_LN_11_LD_22_RN_1_RD_5_0.png","img2/100/Congruent/R/C_Dist_100_LN_2_LD_5_RN_11_RD_22_1.png","img2/200/Congruent/R/C_Dist_200_LN_7_LD_15_RN_18_RD_27_1.png","img2/300/Congruent/L/C_Dist_300_LN_20_LD_25_RN_13_RD_26_0.png","img2/100/Incongruent/R/I_Dist_100_LN_10_LD_25_RN_9_RD_18_1.png","img2/300/Incongruent/R/I_Dist_300_LN_13_LD_26_RN_12_RD_15_1.png","img2/100/Incongruent/R/I_Dist_100_LN_9_LD_18_RN_6_RD_10_1.png","img2/300/Incongruent/L/I_Dist_300_LN_2_LD_4_RN_6_RD_30_0.png","img2/300/Congruent/R/C_Dist_300_LN_3_LD_6_RN_4_RD_5_1.png","img2/100/Congruent/R/C_Dist_100_LN_1_LD_2_RN_18_RD_30_1.png","img2/200/Congruent/R/C_Dist_200_LN_9_LD_30_RN_13_RD_26_1.png","img2/200/Incongruent/R/I_Dist_200_LN_14_LD_30_RN_12_RD_18_1.png","img2/300/Incongruent/R/I_Dist_300_LN_4_LD_20_RN_2_RD_4_1.png","img2/300/Congruent/R/C_Dist_300_LN_1_LD_5_RN_11_RD_22_1.png","img2/300/Congruent/R/C_Dist_300_LN_4_LD_20_RN_13_RD_26_1.png","img2/300/Congruent/R/C_Dist_300_LN_2_LD_10_RN_12_RD_24_1.png","img2/100/Congruent/R/C_Dist_100_LN_4_LD_8_RN_6_RD_10_1.png","img2/100/Congruent/L/C_Dist_100_LN_10_LD_25_RN_3_RD_10_0.png","img2/200/Incongruent/L/I_Dist_200_LN_7_LD_10_RN_12_RD_24_0.png","img2/300/Congruent/R/C_Dist_300_LN_8_LD_15_RN_10_RD_12_1.png","img2/100/Congruent/L/C_Dist_100_LN_10_LD_25_RN_3_RD_10_0.png","img2/200/Incongruent/L/I_Dist_200_LN_7_LD_10_RN_12_RD_24_0.png","img2/200/Congruent/L/C_Dist_200_LN_20_LD_25_RN_9_RD_15_0.png","img2/200/Congruent/R/C_Dist_200_LN_3_LD_10_RN_7_RD_14_1.png","img2/200/Congruent/R/C_Dist_200_LN_9_LD_30_RN_13_RD_26_1.png","img2/200/Congruent/L/C_Dist_200_LN_16_LD_30_RN_9_RD_27_0.png","img2/100/Congruent/L/C_Dist_100_LN_10_LD_25_RN_3_RD_10_0.png","img2/300/Congruent/L/C_Dist_300_LN_3_LD_6_RN_2_RD_10_0.png","img2/200/Congruent/L/C_Dist_200_LN_21_LD_30_RN_2_RD_4_0.png","img2/100/Congruent/R/C_Dist_100_LN_4_LD_10_RN_15_RD_30_1.png","img2/200/Incongruent/L/I_Dist_200_LN_7_LD_10_RN_12_RD_24_0.png","img2/200/Congruent/L/C_Dist_200_LN_14_LD_28_RN_6_RD_20_0.png","img2/200/Congruent/R/C_Dist_200_LN_6_LD_20_RN_11_RD_22_1.png","img2/300/Congruent/R/C_Dist_300_LN_8_LD_15_RN_10_RD_12_1.png","img2/200/Incongruent/L/I_Dist_200_LN_7_LD_10_RN_14_RD_28_0.png","img2/300/Congruent/R/C_Dist_300_LN_1_LD_5_RN_6_RD_12_1.png","img2/200/Incongruent/R/I_Dist_200_LN_7_LD_15_RN_4_RD_6_1.png","img2/200/Congruent/R/C_Dist_200_LN_9_LD_30_RN_13_RD_26_1.png","img2/300/Incongruent/L/I_Dist_300_LN_8_LD_10_RN_9_RD_18_0.png","img2/200/Incongruent/L/I_Dist_200_LN_1_LD_2_RN_3_RD_10_0.png","img2/100/Congruent/L/C_Dist_100_LN_6_LD_20_RN_5_RD_25_0.png","img2/200/Congruent/R/C_Dist_200_LN_3_LD_10_RN_7_RD_14_1.png","img2/100/Congruent/L/C_Dist_100_LN_9_LD_15_RN_8_RD_16_0.png","img2/300/Congruent/R/C_Dist_300_LN_1_LD_5_RN_6_RD_12_1.png","img2/200/Incongruent/L/I_Dist_200_LN_7_LD_10_RN_8_RD_16_0.png","img2/200/Incongruent/L/I_Dist_200_LN_3_LD_4_RN_11_RD_20_0.png","img2/300/Congruent/L/C_Dist_300_LN_11_LD_22_RN_1_RD_5_0.png","img2/300/Incongruent/L/I_Dist_300_LN_4_LD_5_RN_8_RD_16_0.png","img2/100/Incongruent/R/I_Dist_100_LN_13_LD_26_RN_12_RD_20_1.png","img2/100/Congruent/L/C_Dist_100_LN_15_LD_25_RN_13_RD_26_0.png","img2/200/Congruent/R/C_Dist_200_LN_9_LD_30_RN_13_RD_26_1.png","img2/300/Congruent/L/C_Dist_300_LN_8_LD_16_RN_1_RD_5_0.png","img2/100/Incongruent/L/I_Dist_100_LN_3_LD_9_RN_7_RD_30_0.png","img2/300/Incongruent/L/I_Dist_300_LN_3_LD_6_RN_4_RD_20_0.png","img2/300/Incongruent/R/I_Dist_300_LN_13_LD_26_RN_12_RD_15_1.png","img2/100/Congruent/R/C_Dist_100_LN_6_LD_12_RN_15_RD_25_1.png","img2/300/Incongruent/L/I_Dist_300_LN_3_LD_6_RN_4_RD_20_0.png","img2/100/Incongruent/L/I_Dist_100_LN_3_LD_9_RN_7_RD_30_0.png","img2/300/Congruent/R/C_Dist_300_LN_1_LD_5_RN_6_RD_12_1.png"],"dist100_C":[["C_Dist_100_LN_10_LD_25_RN_3_RD_10_0.png","C_Dist_100_LN_11_LD_22_RN_4_RD_10_0.png","C_Dist_100_LN_11_LD_22_RN_6_RD_15_0.png","C_Dist_100_LN_15_LD_25_RN_13_RD_26_0.png","C_Dist_100_LN_3_LD_6_RN_2_RD_5_0.png","C_Dist_100_LN_6_LD_20_RN_5_RD_25_0.png","C_Dist_100_LN_8_LD_16_RN_2_RD_5_0.png","C_Dist_100_LN_9_LD_15_RN_8_RD_16_0.png"],["C_Dist_100_LN_1_LD_2_RN_18_RD_30_1.png","C_Dist_100_LN_1_LD_2_RN_3_RD_5_1.png","C_Dist_100_LN_12_LD_30_RN_13_RD_26_1.png","C_Dist_100_LN_2_LD_5_RN_11_RD_22_1.png","C_Dist_100_LN_2_LD_5_RN_6_RD_12_1.png","C_Dist_100_LN_3_LD_20_RN_4_RD_16_1.png","C_Dist_100_LN_4_LD_10_RN_15_RD_30_1.png","C_Dist_100_LN_4_LD_8_RN_6_RD_10_1.png","C_Dist_100_LN_6_LD_12_RN_15_RD_25_1.png","C_Dist_100_LN_7_LD_14_RN_15_RD_25_1.png","C_Dist_100_LN_7_LD_14_RN_9_RD_15_1.png"]],"dist100_I":[["I_Dist_100_LN_1_LD_2_RN_8_RD_20_0.png","I_Dist_100_LN_2_LD_4_RN_6_RD_15_0.png","I_Dist_100_LN_2_LD_4_RN_8_RD_20_0.png","I_Dist_100_LN_3_LD_5_RN_11_RD_22_0.png","I_Dist_100_LN_3_LD_5_RN_8_RD_16_0.png","I_Dist_100_LN_3_LD_6_RN_4_RD_10_0.png","I_Dist_100_LN_3_LD_9_RN_7_RD_30_0.png","I_Dist_100_LN_4_LD_8_RN_8_RD_20_0.png","I_Dist_100_LN_6_LD_10_RN_11_RD_22_0.png","I_Dist_100_LN_6_LD_10_RN_13_RD_26_0.png","I_Dist_100_LN_6_LD_10_RN_7_RD_14_0.png","I_Dist_100_LN_9_LD_10_RN_20_RD_25_0.png","I_Dist_100_LN_9_LD_15_RN_13_RD_26_0.png","I_Dist_100_LN_9_LD_15_RN_14_RD_28_0.png"],["I_Dist_100_LN_10_LD_25_RN_8_RD_16_1.png","I_Dist_100_LN_10_LD_25_RN_9_RD_18_1.png","I_Dist_100_LN_11_LD_22_RN_9_RD_15_1.png","I_Dist_100_LN_12_LD_24_RN_9_RD_15_1.png","I_Dist_100_LN_12_LD_30_RN_2_RD_4_1.png","I_Dist_100_LN_13_LD_26_RN_12_RD_20_1.png","I_Dist_100_LN_13_LD_26_RN_6_RD_10_1.png","I_Dist_100_LN_17_LD_30_RN_10_RD_15_1.png","I_Dist_100_LN_6_LD_12_RN_3_RD_5_1.png","I_Dist_100_LN_8_LD_16_RN_6_RD_10_1.png","I_Dist_100_LN_8_LD_20_RN_1_RD_2_1.png","I_Dist_100_LN_9_LD_18_RN_6_RD_10_1.png"]],"dist100_S":[["E_Dist_100_LN_2_LD_12_RN_2_RD_30_0.png","E_Dist_100_LN_6_LD_10_RN_6_RD_12_0.png"],["E_Dist_100_LN_6_LD_12_RN_6_RD_10_1.png"]],"dist200_C":[["C_Dist_200_LN_11_LD_22_RN_3_RD_10_0.png","C_Dist_200_LN_12_LD_15_RN_6_RD_10_0.png","C_Dist_200_LN_12_LD_20_RN_6_RD_15_0.png","C_Dist_200_LN_14_LD_28_RN_6_RD_20_0.png","C_Dist_200_LN_15_LD_25_RN_4_RD_10_0.png","C_Dist_200_LN_16_LD_20_RN_12_RD_20_0.png","C_Dist_200_LN_16_LD_30_RN_9_RD_27_0.png","C_Dist_200_LN_20_LD_25_RN_9_RD_15_0.png","C_Dist_200_LN_21_LD_30_RN_2_RD_4_0.png","C_Dist_200_LN_4_LD_10_RN_3_RD_15_0.png","C_Dist_200_LN_4_LD_8_RN_3_RD_10_0.png","C_Dist_200_LN_6_LD_15_RN_3_RD_15_0.png","C_Dist_200_LN_7_LD_21_RN_2_RD_15_0.png","C_Dist_200_LN_8_LD_15_RN_2_RD_6_0.png","C_Dist_200_LN_8_LD_15_RN_3_RD_9_0.png","C_Dist_200_LN_8_LD_15_RN_7_RD_21_0.png","C_Dist_200_LN_9_LD_20_RN_4_RD_16_0.png"],["C_Dist_200_LN_1_LD_2_RN_21_RD_30_1.png","C_Dist_200_LN_13_LD_26_RN_14_RD_20_1.png","C_Dist_200_LN_3_LD_10_RN_11_RD_22_1.png","C_Dist_200_LN_3_LD_10_RN_14_RD_28_1.png","C_Dist_200_LN_3_LD_10_RN_7_RD_14_1.png","C_Dist_200_LN_3_LD_12_RN_9_RD_20_1.png","C_Dist_200_LN_3_LD_6_RN_14_RD_20_1.png","C_Dist_200_LN_5_LD_10_RN_14_RD_20_1.png","C_Dist_200_LN_6_LD_12_RN_7_RD_10_1.png","C_Dist_200_LN_6_LD_20_RN_11_RD_22_1.png","C_Dist_200_LN_7_LD_15_RN_18_RD_27_1.png","C_Dist_200_LN_9_LD_30_RN_13_RD_26_1.png"]],"dist200_I":[["I_Dist_200_LN_1_LD_2_RN_3_RD_10_0.png","I_Dist_200_LN_1_LD_3_RN_2_RD_15_0.png","I_Dist_200_LN_3_LD_4_RN_11_RD_20_0.png","I_Dist_200_LN_4_LD_5_RN_6_RD_10_0.png","I_Dist_200_LN_4_LD_6_RN_14_RD_30_0.png","I_Dist_200_LN_7_LD_10_RN_12_RD_24_0.png","I_Dist_200_LN_7_LD_10_RN_14_RD_28_0.png","I_Dist_200_LN_7_LD_10_RN_8_RD_16_0.png"],["I_Dist_200_LN_11_LD_20_RN_3_RD_4_1.png","I_Dist_200_LN_14_LD_30_RN_12_RD_18_1.png","I_Dist_200_LN_14_LD_30_RN_6_RD_9_1.png","I_Dist_200_LN_3_LD_10_RN_1_RD_2_1.png","I_Dist_200_LN_4_LD_30_RN_1_RD_3_1.png","I_Dist_200_LN_6_LD_20_RN_3_RD_6_1.png","I_Dist_200_LN_7_LD_15_RN_4_RD_6_1.png","I_Dist_200_LN_7_LD_15_RN_6_RD_9_1.png","I_Dist_200_LN_9_LD_15_RN_8_RD_10_1.png"]],"dist200_S":[["E_Dist_200_LN_3_LD_6_RN_3_RD_10_0.png"],["E_Dist_200_LN_3_LD_10_RN_3_RD_6_1.png"]],"dist300_C":[["C_Dist_300_LN_11_LD_22_RN_1_RD_5_0.png","C_Dist_300_LN_11_LD_22_RN_2_RD_10_0.png","C_Dist_300_LN_11_LD_22_RN_4_RD_20_0.png","C_Dist_300_LN_12_LD_24_RN_2_RD_10_0.png","C_Dist_300_LN_18_LD_20_RN_9_RD_15_0.png","C_Dist_300_LN_20_LD_25_RN_13_RD_26_0.png","C_Dist_300_LN_20_LD_25_RN_14_RD_28_0.png","C_Dist_300_LN_20_LD_25_RN_5_RD_10_0.png","C_Dist_300_LN_20_LD_25_RN_8_RD_16_0.png","C_Dist_300_LN_20_LD_25_RN_9_RD_18_0.png","C_Dist_300_LN_24_LD_30_RN_2_RD_4_0.png","C_Dist_300_LN_24_LD_30_RN_8_RD_16_0.png","C_Dist_300_LN_3_LD_6_RN_2_RD_10_0.png","C_Dist_300_LN_4_LD_10_RN_1_RD_10_0.png","C_Dist_300_LN_4_LD_5_RN_2_RD_4_0.png","C_Dist_300_LN_8_LD_16_RN_1_RD_5_0.png","C_Dist_300_LN_9_LD_10_RN_3_RD_5_0.png"],["C_Dist_300_LN_1_LD_20_RN_7_RD_20_1.png","C_Dist_300_LN_1_LD_3_RN_19_RD_30_1.png","C_Dist_300_LN_1_LD_30_RN_8_RD_24_1.png","C_Dist_300_LN_1_LD_5_RN_11_RD_22_1.png","C_Dist_300_LN_1_LD_5_RN_3_RD_6_1.png","C_Dist_300_LN_1_LD_5_RN_6_RD_12_1.png","C_Dist_300_LN_2_LD_10_RN_12_RD_24_1.png","C_Dist_300_LN_2_LD_20_RN_10_RD_25_1.png","C_Dist_300_LN_3_LD_12_RN_11_RD_20_1.png","C_Dist_300_LN_3_LD_6_RN_4_RD_5_1.png","C_Dist_300_LN_4_LD_20_RN_13_RD_26_1.png","C_Dist_300_LN_5_LD_25_RN_6_RD_12_1.png","C_Dist_300_LN_5_LD_25_RN_7_RD_14_1.png","C_Dist_300_LN_7_LD_14_RN_20_RD_25_1.png","C_Dist_300_LN_8_LD_15_RN_10_RD_12_1.png"]],"dist300_I":[["I_Dist_300_LN_1_LD_2_RN_2_RD_10_0.png","I_Dist_300_LN_1_LD_2_RN_3_RD_15_0.png","I_Dist_300_LN_2_LD_4_RN_6_RD_30_0.png","I_Dist_300_LN_3_LD_6_RN_4_RD_20_0.png","I_Dist_300_LN_4_LD_5_RN_6_RD_12_0.png","I_Dist_300_LN_4_LD_5_RN_8_RD_16_0.png","I_Dist_300_LN_7_LD_10_RN_8_RD_20_0.png","I_Dist_300_LN_8_LD_10_RN_14_RD_28_0.png","I_Dist_300_LN_8_LD_10_RN_9_RD_18_0.png"],["I_Dist_300_LN_13_LD_26_RN_12_RD_15_1.png","I_Dist_300_LN_4_LD_20_RN_2_RD_4_1.png"]],"dist300_S":[["E_Dist_300_LN_9_LD_12_RN_9_RD_20_0.png"],["E_Dist_300_LN_18_LD_30_RN_18_RD_20_1.png","E_Dist_300_LN_3_LD_10_RN_3_RD_5_1.png","E_Dist_300_LN_9_LD_20_RN_9_RD_12_1.png"]],"dist500_C":[["C_Dist_500_LN_10_LD_13_RN_7_RD_26_0.png","C_Dist_500_LN_10_LD_15_RN_4_RD_24_0.png","C_Dist_500_LN_12_LD_16_RN_3_RD_12_0.png","C_Dist_500_LN_12_LD_18_RN_4_RD_24_0.png","C_Dist_500_LN_15_LD_18_RN_5_RD_15_0.png","C_Dist_500_LN_15_LD_20_RN_1_RD_4_0.png","C_Dist_500_LN_18_LD_27_RN_1_RD_6_0.png","C_Dist_500_LN_20_LD_24_RN_1_RD_3_0.png","C_Dist_500_LN_20_LD_24_RN_3_RD_9_0.png","C_Dist_500_LN_20_LD_24_RN_7_RD_21_0.png","C_Dist_500_LN_20_LD_28_RN_3_RD_14_0.png","C_Dist_500_LN_21_LD_28_RN_6_RD_24_0.png","C_Dist_500_LN_22_LD_28_RN_2_RD_7_0.png","C_Dist_500_LN_25_LD_30_RN_9_RD_27_0.png","C_Dist_500_LN_4_LD_6_RN_1_RD_6_0.png","C_Dist_500_LN_5_LD_6_RN_2_RD_6_0.png","C_Dist_500_LN_6_LD_9_RN_1_RD_6_0.png","C_Dist_500_LN_7_LD_10_RN_1_RD_5_0.png","C_Dist_500_LN_8_LD_12_RN_1_RD_6_0.png","C_Dist_500_LN_8_LD_12_RN_4_RD_24_0.png"],["C_Dist_500_LN_1_LD_4_RN_12_RD_16_1.png","C_Dist_500_LN_1_LD_4_RN_9_RD_12_1.png","C_Dist_500_LN_1_LD_9_RN_11_RD_18_1.png","C_Dist_500_LN_10_LD_24_RN_22_RD_24_1.png","C_Dist_500_LN_2_LD_12_RN_10_RD_15_1.png","C_Dist_500_LN_2_LD_12_RN_12_RD_18_1.png","C_Dist_500_LN_2_LD_12_RN_4_RD_6_1.png","C_Dist_500_LN_2_LD_24_RN_7_RD_12_1.png","C_Dist_500_LN_2_LD_5_RN_18_RD_20_1.png","C_Dist_500_LN_2_LD_5_RN_9_RD_10_1.png","C_Dist_500_LN_2_LD_8_RN_12_RD_16_1.png","C_Dist_500_LN_2_LD_8_RN_21_RD_28_1.png","C_Dist_500_LN_3_LD_10_RN_4_RD_5_1.png","C_Dist_500_LN_3_LD_12_RN_15_RD_20_1.png","C_Dist_500_LN_3_LD_30_RN_6_RD_10_1.png","C_Dist_500_LN_3_LD_8_RN_14_RD_16_1.png","C_Dist_500_LN_4_LD_16_RN_15_RD_20_1.png","C_Dist_500_LN_4_LD_24_RN_12_RD_18_1.png","C_Dist_500_LN_5_LD_14_RN_6_RD_7_1.png","C_Dist_500_LN_7_LD_21_RN_20_RD_24_1.png","C_Dist_500_LN_7_LD_28_RN_12_RD_16_1.png","C_Dist_500_LN_7_LD_28_RN_9_RD_12_1.png","C_Dist_500_LN_9_LD_27_RN_20_RD_24_1.png"]],"dist500_I":[["I_Dist_500_LN_2_LD_3_RN_4_RD_24_0.png","I_Dist_500_LN_5_LD_6_RN_6_RD_18_0.png","I_Dist_500_LN_7_LD_8_RN_9_RD_24_0.png"],["I_Dist_500_LN_7_LD_21_RN_5_RD_6_1.png"]],"dist500_S":[["E_Dist_500_LN_6_LD_8_RN_6_RD_24_0.png"],["E_Dist_500_LN_2_LD_12_RN_2_RD_3_1.png","E_Dist_500_LN_6_LD_24_RN_6_RD_8_1.png"]]}},{"start_time":1552312965780,"click_time":1552312967503,"finger_time":1552312967221,"fix_duration":877.466638786727,"trial":1,"RT":1441,"MT":282,"sideResp":1,"stimulus":[],"xmouse":[775,775,775,775,775,775,775,775,775,775,775,775,775,775,775,774,774,774,774,774,774,774,774,774,774,774,774,774,774,774,774,774,774,774,774,774,774,774,774,774,774,774,774,774,774,774,774,774,774,774,774,774,774,774,774,774,774,774,774,774,774,774,774,774,774,774,774,774,774,774,774,773,752,729,705,679,623,600,575,558,541,532,532,532,529,526,520],"ymouse":[541,541,541,541,541,541,541,541,541,541,541,541,541,541,542,546,547,547,547,547,547,547,547,547,547,547,547,547,547,547,547,547,547,547,547,547,547,547,547,547,547,547,547,547,547,547,547,547,547,547,547,547,547,547,547,547,547,547,547,547,547,547,547,547,547,546,546,545,544,543,541,535,447,361,269,187,89,62,43,31,21,17,17,17,17,17,17],"timestamp_mouse":[4,22,43,62,82,103,123,141,163,182,203,222,243,263,283,302,323,342,363,383,402,422,442,463,481,503,522,543,562,583,603,622,642,662,682,702,722,741,761,782,801,821,842,863,883,902,922,941,961,983,1002,1022,1043,1061,1081,1102,1122,1143,1162,1181,1203,1222,1243,1261,1281,1303,1322,1342,1363,1382,1401,1422,1441,1461,1483,1502,1522,1542,1562,1582,1601,1622,1643,1662,1682,1701,1723],"xSR":741.5,"ySR":469.95,"xT1":424.9,"yT1":0,"xT2":1058.1,"yT2":0,"toosoon":0,"cond_shown":"Incongruent","ratio_trial":200,"L_num":7,"L_den":15,"R_num":4,"R_den":6,"correct_side":2,"subjID":"lucianaduarte20","gender":"1","school":"4","age":"9"},{"start_time":1552312969307,"click_time":1552312970402,"finger_time":1552312970042,"fix_duration":424.26584106062916,"trial":2,"RT":735,"MT":360,"sideResp":2,"stimulus":[],"xmouse":[790,790,790,790,790,790,790,790,790,790,790,790,790,790,790,790,790,789,787,786,786,786,786,786,786,786,786,786,786,784,784,784,785,785,788,796,809,836,874,935,1116,1170,1209,1219,1239,1240,1240,1240,1240,1234,1217,1200,1181,1164,1150],"ymouse":[499,499,499,499,499,499,499,499,499,499,499,499,499,499,499,499,499,499,499,499,499,499,499,499,499,499,499,499,499,499,499,499,493,491,484,473,459,435,399,343,198,164,136,127,100,96,94,94,93,92,90,88,86,85,84],"timestamp_mouse":[17,36,55,74,94,116,135,155,175,196,216,236,254,274,296,316,334,354,375,394,414,436,456,476,494,514,536,556,574,595,615,634,655,676,695,714,735,756,775,794,814,835,855,875,896,915,935,956,976,996,1015,1035,1055,1074,1094],"xSR":741.5,"ySR":469.95,"xT1":424.9,"yT1":0,"xT2":1058.1,"yT2":0,"toosoon":0,"cond_shown":"Incongruent","ratio_trial":200,"L_num":7,"L_den":15,"R_num":6,"R_den":9,"correct_side":2,"subjID":"lucianaduarte20","gender":"1","school":"4","age":"9"},{"start_time":1552312971912,"click_time":1552312973722,"finger_time":1552312973442,"fix_duration":307.371660503849,"trial":3,"RT":1530,"MT":280,"sideResp":1,"stimulus":[],"xmouse":[775,775,775,775,775,775,775,775,775,775,775,775,775,775,775,775,775,775,775,775,775,775,775,774,774,774,774,774,774,774,774,774,774,774,774,774,774,774,774,774,774,774,774,774,774,774,774,774,774,774,774,774,774,774,774,774,774,774,774,774,772,772,771,771,771,771,771,771,771,771,771,771,771,771,770,761,748,731,696,662,631,617,608,603,603,599,595,581,563,543,496],"ymouse":[506,506,506,506,506,506,507,507,507,507,507,507,507,507,507,507,507,507,507,507,507,507,507,507,507,507,507,507,507,507,507,507,507,507,507,507,507,507,507,507,507,507,507,507,507,507,507,507,507,507,507,507,507,507,507,507,507,507,507,507,507,507,506,506,506,506,506,506,506,506,506,506,506,506,504,489,464,419,338,255,170,152,141,135,135,131,126,114,107,100,79],"timestamp_mouse":[12,30,50,71,91,110,131,151,171,191,211,229,251,270,291,310,329,350,371,391,410,431,450,470,491,511,530,549,571,591,610,629,650,671,690,710,730,750,770,790,810,830,849,871,890,911,929,949,970,990,1010,1029,1050,1071,1089,1109,1129,1149,1170,1189,1211,1230,1251,1269,1291,1311,1330,1351,1369,1390,1410,1430,1450,1471,1490,1510,1530,1550,1569,1591,1610,1630,1649,1670,1690,1709,1729,1751,1770,1790,1810],"xSR":741.5,"ySR":469.95,"xT1":424.9,"yT1":0,"xT2":1058.1,"yT2":0,"toosoon":0,"cond_shown":"Congruent","ratio_trial":300,"L_num":3,"L_den":6,"R_num":2,"R_den":10,"correct_side":1,"subjID":"lucianaduarte20","gender":"1","school":"4","age":"9"},{"start_time":1552312975592,"click_time":1552312976743,"finger_time":1552312976383,"fix_duration":868.5695362258247,"trial":4,"RT":791,"MT":360,"sideResp":1,"stimulus":[],"xmouse":[795,795,795,795,795,795,795,795,795,795,795,795,795,795,795,795,795,795,795,795,795,795,795,795,795,795,795,795,795,795,795,795,795,795,795,795,793,786,781,772,764,747,713,668,623,623,623,623,623,623,623,623,623,623,623,537,525,511],"ymouse":[531,531,531,531,531,531,531,531,531,531,531,531,531,531,531,531,531,531,531,531,531,531,531,531,531,531,531,531,531,531,531,531,531,531,531,531,528,507,488,464,442,354,251,131,23,23,23,23,23,23,23,23,23,23,23,7,26,63],"timestamp_mouse":[9,30,51,70,90,109,130,151,169,189,211,230,250,271,291,309,329,351,371,390,409,430,450,469,490,511,530,550,571,591,609,630,651,669,690,711,730,749,770,791,811,830,849,870,891,910,930,951,969,990,1009,1030,1050,1070,1091,1111,1130,1151],"xSR":741.5,"ySR":469.95,"xT1":424.9,"yT1":0,"xT2":1058.1,"yT2":0,"toosoon":0,"cond_shown":"Congruent","ratio_trial":300,"L_num":20,"L_den":25,"R_num":14,"R_den":28,"correct_side":1,"subjID":"lucianaduarte20","gender":"1","school":"4","age":"9"},{"start_time":1552312978304,"click_time":1552312979242,"finger_time":1552312978783,"fix_duration":582.5632385546786,"trial":5,"RT":479,"MT":459,"sideResp":2,"stimulus":[],"xmouse":[810,810,810,810,810,810,810,810,810,810,810,810,810,810,810,810,810,810,810,811,816,828,839,856,877,904,965,987,1005,1033,1060,1072,1079,1086,1090,1094,1100,1103,1106,1107,1107,1107,1107,1107,1107,1107,1115],"ymouse":[543,543,543,543,543,543,543,543,543,543,543,543,543,543,543,543,543,543,543,543,543,536,529,515,491,446,356,331,311,287,270,263,255,239,225,210,179,163,144,138,122,121,117,114,108,102,85],"timestamp_mouse":[19,39,58,78,98,119,137,159,179,199,219,239,258,279,299,318,339,359,378,397,418,437,458,479,499,518,538,558,578,597,619,638,658,679,698,717,738,758,778,799,819,838,858,877,899,918,938],"xSR":741.5,"ySR":469.95,"xT1":424.9,"yT1":0,"xT2":1058.1,"yT2":0,"toosoon":0,"cond_shown":"Congruent","ratio_trial":100,"L_num":4,"L_den":10,"R_num":15,"R_den":30,"correct_side":2,"subjID":"lucianaduarte20","gender":"1","school":"4","age":"9"},{"start_time":1552312981191,"click_time":1552312982202,"finger_time":1552312981822,"fix_duration":949.0051278720907,"trial":6,"RT":631,"MT":380,"sideResp":1,"stimulus":[],"xmouse":[803,803,801,798,796,794,794,793,793,793,793,793,793,793,793,793,793,793,793,793,793,793,793,793,793,793,793,793,789,779,759,726,656,639,627,618,610,583,574,566,561,559,559,559,559,559,559,556,551,541,522],"ymouse":[538,538,537,534,531,530,530,529,529,529,529,529,529,529,529,529,529,529,529,529,529,529,529,529,529,529,529,529,523,507,473,403,294,271,249,229,196,116,94,81,70,64,59,59,59,59,59,59,59,59,59],"timestamp_mouse":[11,31,51,71,91,111,131,152,171,191,212,231,252,271,292,312,331,351,372,391,411,430,451,472,491,511,531,551,570,592,611,631,650,671,691,711,732,750,771,791,810,830,851,871,892,912,931,950,971,991,1011],"xSR":741.5,"ySR":469.95,"xT1":424.9,"yT1":0,"xT2":1058.1,"yT2":0,"toosoon":0,"cond_shown":"Congruent","ratio_trial":300,"L_num":24,"L_den":30,"R_num":2,"R_den":4,"correct_side":1,"subjID":"lucianaduarte20","gender":"1","school":"4","age":"9"},{"start_time":1552312985589,"click_time":1552312987343,"finger_time":1552312986282,"fix_duration":787.8099869541355,"trial":7,"RT":693,"MT":1061,"sideResp":1,"stimulus":[],"xmouse":[769,769,769,769,769,769,769,769,769,769,769,769,769,769,769,769,770,772,776,778,782,786,796,798,798,798,798,798,798,798,798,798,798,803,814,853,915,965,1030,1035,1036,1036,1036,1036,1036,1036,1036,1036,1036,1036,1036,1036,1034,1033,1031,1028,1025,1020,1010,1004,997,987,943,916,887,857,829,794,785,779,770,750,694,617,583,573,572,572,567,556,548,540,538,538,537,532,527,522],"ymouse":[526,526,526,526,526,526,526,526,526,526,526,526,526,526,526,526,525,523,512,507,501,493,483,481,481,481,481,481,481,481,481,481,481,479,467,442,407,378,344,341,339,339,339,339,339,339,339,339,339,339,339,339,340,340,341,343,343,343,343,343,338,329,289,269,247,228,207,181,173,166,157,148,124,94,85,83,83,82,78,71,64,58,57,57,56,49,42,38],"timestamp_mouse":[13,33,53,73,93,112,134,154,174,192,212,234,253,272,292,314,333,353,373,394,413,433,453,472,493,514,533,552,572,594,614,632,653,673,693,714,734,754,773,793,812,834,854,874,894,914,934,952,973,994,1013,1033,1054,1073,1093,1112,1133,1153,1173,1193,1214,1234,1254,1274,1293,1313,1334,1354,1373,1393,1413,1432,1453,1473,1493,1514,1533,1554,1573,1593,1613,1633,1654,1673,1692,1713,1733,1753],"xSR":741.5,"ySR":469.95,"xT1":424.9,"yT1":0,"xT2":1058.1,"yT2":0,"toosoon":0,"cond_shown":"Incongruent","ratio_trial":100,"L_num":6,"L_den":10,"R_num":7,"R_den":14,"correct_side":1,"subjID":"lucianaduarte20","gender":"1","school":"4","age":"9"},{"start_time":1552312988553,"click_time":1552312991262,"finger_time":1552312990842,"fix_duration":250,"trial":8,"RT":2289,"MT":420,"sideResp":2,"stimulus":[],"xmouse":[775,775,775,775,775,775,775,775,775,775,771,770,770,770,770,770,770,770,770,770,770,770,770,770,770,770,770,770,772,772,774,774,775,775,775,775,775,775,775,775,775,775,775,775,775,775,775,775,775,775,775,775,775,775,775,775,775,775,775,775,775,775,775,775,775,775,775,775,775,775,775,775,775,775,775,775,775,775,775,775,778,783,786,786,786,786,786,786,786,786,786,787,787,787,786,785,784,782,780,778,777,776,776,776,776,776,776,776,776,776,779,784,805,825,849,887,904,918,929,939,968,984,1010,1047,1061,1071,1074,1081,1091,1097,1106,1112,1117,1120,1122,1123],"ymouse":[498,498,498,498,498,498,498,498,498,499,503,504,504,504,504,504,504,504,504,504,504,504,504,504,504,504,504,504,503,503,502,501,500,500,500,500,500,500,500,500,500,500,500,500,500,500,500,500,500,500,500,500,500,500,500,500,500,500,500,500,500,500,500,500,500,500,500,500,500,500,500,500,500,500,500,500,500,500,500,499,495,492,491,491,491,491,491,491,491,491,491,493,494,501,505,513,517,520,524,528,530,530,530,530,530,530,531,531,531,531,531,528,522,513,503,478,459,440,420,402,358,337,308,273,260,248,242,229,211,196,176,159,148,134,116,77],"timestamp_mouse":[12,28,49,69,89,109,129,150,170,190,208,229,249,269,289,309,329,349,369,389,409,429,449,470,488,509,529,549,568,588,609,629,649,668,690,710,729,749,770,790,810,829,849,870,890,910,930,949,969,990,1010,1029,1049,1069,1089,1108,1129,1150,1170,1189,1209,1230,1250,1270,1290,1310,1330,1350,1369,1389,1410,1429,1449,1469,1490,1509,1529,1549,1568,1590,1609,1629,1648,1670,1689,1709,1730,1748,1769,1789,1809,1829,1850,1869,1889,1909,1929,1949,1968,1990,2008,2030,2050,2070,2088,2109,2130,2150,2170,2190,2209,2229,2249,2269,2289,2308,2329,2349,2369,2389,2409,2429,2449,2469,2488,2508,2529,2548,2569,2589,2609,2628,2649,2669,2689,2709],"xSR":741.5,"ySR":469.95,"xT1":424.9,"yT1":0,"xT2":1058.1,"yT2":0,"toosoon":0,"cond_shown":"Incongruent","ratio_trial":300,"L_num":2,"L_den":4,"R_num":6,"R_den":30,"correct_side":1,"subjID":"lucianaduarte20","gender":"1","school":"4","age":"9"},{"start_time":1552312993813,"click_time":1552312996023,"finger_time":1552312995682,"fix_duration":1190.2521359046507,"trial":9,"RT":1869,"MT":341,"sideResp":2,"stimulus":[],"xmouse":[778,778,778,778,778,778,778,778,778,778,778,778,778,778,778,778,778,778,778,778,778,778,778,778,778,778,778,778,778,778,778,778,778,778,778,778,778,778,778,778,778,778,778,778,778,778,778,778,778,778,778,779,779,779,779,779,779,779,779,779,779,779,779,779,779,779,779,779,779,779,779,779,779,779,779,779,779,779,779,779,779,780,780,780,780,780,780,780,780,780,781,786,803,841,861,883,907,937,995,1008,1019,1027,1034,1049,1054,1060,1064,1072,1084,1090,1097],"ymouse":[509,509,509,509,509,509,509,509,509,509,509,509,509,509,509,509,509,509,509,509,509,509,509,509,509,509,509,509,509,509,509,509,509,509,509,509,509,509,509,509,509,509,509,509,509,509,509,509,509,509,509,509,509,509,509,509,509,509,509,509,509,509,509,509,509,509,509,509,509,509,509,509,509,509,509,509,509,509,509,508,508,508,508,508,508,508,508,508,508,508,506,502,489,464,449,436,425,410,375,358,337,316,297,246,222,194,170,140,113,105,97],"timestamp_mouse":[9,29,50,69,89,110,129,149,169,190,209,230,249,270,289,309,329,348,368,389,410,430,448,470,490,510,528,550,570,589,610,629,649,669,689,710,728,749,769,790,810,830,849,868,889,909,930,949,969,989,1009,1030,1049,1070,1090,1110,1128,1148,1168,1190,1210,1230,1249,1269,1289,1310,1329,1349,1368,1390,1409,1430,1449,1469,1490,1510,1529,1550,1568,1590,1610,1630,1650,1670,1689,1709,1730,1749,1770,1789,1810,1829,1849,1869,1890,1909,1930,1950,1969,1989,2010,2029,2048,2069,2089,2110,2129,2150,2169,2189,2210],"xSR":741.5,"ySR":469.95,"xT1":424.9,"yT1":0,"xT2":1058.1,"yT2":0,"toosoon":0,"cond_shown":"Congruent","ratio_trial":300,"L_num":2,"L_den":20,"R_num":10,"R_den":25,"correct_side":2,"subjID":"lucianaduarte20","gender":"1","school":"4","age":"9"},{"start_time":1552312998194,"click_time":1552313000021,"finger_time":1552312999583,"fix_duration":731.3503535939761,"trial":10,"RT":1389,"MT":438,"sideResp":1,"stimulus":[],"xmouse":[774,774,774,774,774,774,774,774,774,774,774,774,774,774,774,774,774,774,774,774,774,774,774,774,774,774,774,774,774,774,774,774,774,774,774,774,774,774,774,774,774,774,774,774,774,774,774,774,774,774,774,774,774,774,774,774,774,774,774,774,774,774,774,774,774,774,775,775,775,766,759,752,748,746,728,706,674,645,635,622,615,607,597,587,575,569,566,563,557,541,531,520],"ymouse":[523,523,523,523,523,523,523,523,523,523,523,523,523,523,523,523,523,523,523,523,523,523,523,523,523,523,523,523,523,523,523,523,523,523,523,523,523,523,523,523,523,523,523,523,523,523,523,523,523,523,523,523,523,523,523,523,523,523,523,523,523,523,523,523,523,523,522,520,509,466,442,426,417,412,395,377,350,316,292,246,220,193,166,143,118,111,109,108,108,108,104,99],"timestamp_mouse":[8,28,48,67,88,109,127,147,169,187,209,229,248,268,289,308,328,348,368,388,408,429,448,469,488,509,527,549,568,588,609,629,649,668,688,707,728,749,768,789,808,829,847,869,889,908,928,948,969,989,1008,1029,1047,1069,1089,1108,1127,1148,1168,1189,1209,1228,1249,1268,1288,1309,1328,1348,1369,1389,1408,1429,1448,1467,1488,1508,1528,1548,1567,1588,1608,1628,1648,1668,1687,1708,1729,1748,1768,1788,1808,1827],"xSR":741.5,"ySR":469.95,"xT1":424.9,"yT1":0,"xT2":1058.1,"yT2":0,"toosoon":0,"cond_shown":"Congruent","ratio_trial":200,"L_num":8,"L_den":15,"R_num":7,"R_den":21,"correct_side":1,"subjID":"lucianaduarte20","gender":"1","school":"4","age":"9"},{"start_time":1552313003695,"click_time":1552313004903,"finger_time":1552313004601,"fix_duration":992.8738449124954,"trial":11,"RT":906,"MT":302,"sideResp":1,"stimulus":[],"xmouse":[841,841,841,841,841,841,841,841,841,841,841,841,841,841,841,837,830,821,810,793,774,774,774,774,774,774,774,774,771,769,769,769,769,769,769,769,769,769,769,769,769,769,768,765,757,741,737,731,721,696,644,613,588,570,552,519,513,510,510,510,510],"ymouse":[561,561,561,561,561,561,561,561,561,561,561,561,561,561,561,559,557,553,547,535,517,516,514,511,510,510,508,507,502,499,499,499,499,499,499,499,499,499,499,499,499,499,497,493,479,447,437,427,414,390,345,321,299,277,252,189,169,149,131,119,83],"timestamp_mouse":[7,27,48,68,87,107,128,146,166,188,208,226,246,268,288,307,328,348,367,387,406,427,447,467,486,507,528,547,567,588,608,627,648,668,688,708,726,748,767,787,807,827,847,867,887,906,928,947,967,987,1007,1027,1048,1067,1086,1107,1128,1146,1167,1188,1208],"xSR":741.5,"ySR":469.95,"xT1":424.9,"yT1":0,"xT2":1058.1,"yT2":0,"toosoon":0,"cond_shown":"Incongruent","ratio_trial":100,"L_num":6,"L_den":12,"R_num":3,"R_den":5,"correct_side":2,"subjID":"lucianaduarte20","gender":"1","school":"4","age":"9"},{"start_time":1552313006871,"click_time":1552313008624,"finger_time":1552313008424,"fix_duration":286.04770101502675,"trial":12,"RT":1553,"MT":200,"sideResp":2,"stimulus":[],"xmouse":[823,823,823,823,822,821,820,820,820,820,820,820,820,820,820,820,820,820,820,820,820,820,819,819,819,819,818,817,816,816,815,815,815,814,814,814,811,811,811,811,811,811,811,811,811,811,811,810,809,808,808,807,807,807,807,807,807,807,807,807,807,807,807,807,807,807,807,807,807,807,807,807,807,807,807,807,808,817,838,861,893,973,1026,1064,1083,1090,1092,1093],"ymouse":[534,534,534,534,534,534,534,534,534,534,534,534,534,534,534,534,534,534,534,534,534,534,534,533,533,532,529,527,525,524,523,522,522,521,521,521,518,517,517,517,517,517,517,517,517,517,517,517,516,515,514,513,513,513,513,513,513,513,513,513,513,513,513,513,513,513,513,513,513,513,513,512,511,507,504,500,485,462,421,386,339,241,186,151,133,121,107,99],"timestamp_mouse":[13,34,53,73,93,113,133,153,173,194,213,233,254,274,294,313,334,354,373,394,413,434,453,474,493,513,533,552,574,594,613,634,653,673,693,713,733,753,773,793,813,833,854,873,893,913,934,954,973,994,1014,1033,1053,1074,1093,1113,1133,1153,1172,1192,1212,1233,1254,1274,1293,1313,1334,1353,1374,1394,1414,1433,1453,1474,1493,1513,1533,1553,1573,1594,1612,1633,1653,1674,1694,1714,1733,1753],"xSR":741.5,"ySR":469.95,"xT1":424.9,"yT1":0,"xT2":1058.1,"yT2":0,"toosoon":0,"cond_shown":"Incongruent","ratio_trial":300,"L_num":1,"L_den":2,"R_num":2,"R_den":10,"correct_side":1,"subjID":"lucianaduarte20","gender":"1","school":"4","age":"9"},{"start_time":1552313011342,"click_time":1552313012785,"finger_time":1552313012364,"fix_duration":875.1520605114217,"trial":13,"RT":1022,"MT":421,"sideResp":1,"stimulus":[],"xmouse":[805,805,804,804,804,804,804,804,804,804,804,804,804,804,804,804,804,804,804,804,804,804,804,804,804,804,804,804,804,804,804,804,804,804,804,804,804,804,804,804,804,804,804,804,804,803,803,802,798,790,782,767,755,741,698,682,665,649,631,621,614,606,602,602,594,585,575,565,557,543,536,528,518],"ymouse":[542,542,542,542,542,542,542,542,542,542,542,542,542,542,542,542,542,542,542,542,542,542,542,542,542,542,542,542,542,542,542,542,542,542,542,542,542,542,542,542,542,542,542,542,542,542,542,541,523,500,473,438,404,369,288,260,226,199,172,162,157,152,150,149,145,136,124,109,94,60,42,25,3],"timestamp_mouse":[4,22,42,62,81,103,123,143,162,183,202,222,243,262,282,303,323,342,363,383,403,422,442,463,483,502,523,542,563,582,602,622,642,662,683,702,722,743,762,783,803,822,843,862,882,903,923,943,962,982,1003,1021,1043,1062,1082,1102,1122,1142,1163,1182,1202,1223,1242,1263,1282,1302,1323,1342,1362,1382,1403,1422,1443],"xSR":741.5,"ySR":469.95,"xT1":424.9,"yT1":0,"xT2":1058.1,"yT2":0,"toosoon":0,"cond_shown":"Congruent","ratio_trial":200,"L_num":12,"L_den":20,"R_num":6,"R_den":15,"correct_side":1,"subjID":"lucianaduarte20","gender":"1","school":"4","age":"9"},{"start_time":1552313014156,"click_time":1552313015485,"finger_time":1552313015164,"fix_duration":250,"trial":14,"RT":1008,"MT":321,"sideResp":2,"stimulus":[],"xmouse":[790,790,790,790,790,790,790,790,790,790,790,790,790,790,790,790,790,790,790,790,790,790,790,790,790,790,790,790,790,790,790,790,790,790,790,790,790,791,791,793,795,796,796,796,796,796,796,797,804,820,841,874,903,957,987,1012,1025,1034,1047,1051,1058,1070,1077,1088,1092,1094,1095],"ymouse":[525,525,525,525,525,525,525,525,525,525,525,525,525,525,525,525,525,525,525,525,525,525,525,525,525,525,525,525,525,525,525,525,525,525,525,525,525,525,525,523,517,515,515,515,515,515,515,513,501,478,454,415,380,316,283,256,234,214,179,165,153,140,133,121,113,104,94],"timestamp_mouse":[7,28,49,68,88,108,128,148,168,189,209,228,248,268,287,307,328,348,369,387,408,428,448,469,489,508,528,548,569,589,609,628,648,668,688,708,729,749,768,788,809,828,848,869,887,908,928,949,968,989,1007,1028,1048,1069,1088,1109,1128,1148,1168,1188,1209,1228,1249,1268,1288,1307,1329],"xSR":741.5,"ySR":469.95,"xT1":424.9,"yT1":0,"xT2":1058.1,"yT2":0,"toosoon":0,"cond_shown":"Congruent","ratio_trial":100,"L_num":6,"L_den":12,"R_num":15,"R_den":25,"correct_side":2,"subjID":"lucianaduarte20","gender":"1","school":"4","age":"9"},{"start_time":1552313019896,"click_time":1552313021005,"finger_time":1552313020585,"fix_duration":250,"trial":15,"RT":689,"MT":420,"sideResp":1,"stimulus":[],"xmouse":[769,769,769,769,769,769,769,769,769,769,769,769,769,769,769,769,769,769,769,769,769,769,769,769,769,769,770,770,770,770,770,770,763,757,746,736,715,703,687,676,662,657,646,641,636,631,627,622,617,609,602,577,564,546,528,511],"ymouse":[522,522,522,522,522,522,522,522,522,522,522,522,522,522,522,522,522,522,522,522,522,522,522,522,522,522,521,520,519,518,516,512,489,471,440,405,347,313,280,248,215,207,182,175,167,162,158,156,154,152,147,133,127,119,108,97],"timestamp_mouse":[9,29,48,69,89,108,128,148,168,188,208,228,248,268,289,308,328,348,368,388,408,428,448,468,489,508,528,549,568,588,609,628,647,668,689,708,728,748,768,788,808,829,848,868,888,908,929,948,969,988,1008,1029,1048,1068,1089,1109],"xSR":741.5,"ySR":469.95,"xT1":424.9,"yT1":0,"xT2":1058.1,"yT2":0,"toosoon":0,"cond_shown":"Congruent","ratio_trial":300,"L_num":11,"L_den":22,"R_num":4,"R_den":20,"correct_side":1,"subjID":"lucianaduarte20","gender":"1","school":"4","age":"9"},{"start_time":1552313023608,"click_time":1552313026644,"finger_time":1552313024844,"fix_duration":1322.2947100932497,"trial":16,"RT":1236,"MT":1800,"sideResp":1,"stimulus":[],"xmouse":[780,780,780,780,780,780,780,780,780,780,780,780,781,781,781,781,781,781,781,781,781,781,781,781,781,781,781,781,781,781,781,781,781,781,781,781,781,781,781,781,781,781,781,781,781,781,781,781,781,781,781,781,781,781,781,781,781,778,776,773,771,769,764,756,731,700,629,607,601,600,600,600,600,600,600,600,600,600,600,600,600,600,600,600,600,600,600,600,600,601,618,707,742,780,791,793,793,793,793,793,793,788,778,775,760,744,708,691,679,664,654,625,620,612,610,614,666,713,758,798,828,891,910,932,945,957,971,974,975,976,976,976,976,976,963,939,846,807,773,753,733,709,672,654,635,613,575,560,552,545,538,514],"ymouse":[518,518,518,518,518,518,518,518,518,518,518,518,518,518,518,518,518,518,518,518,518,518,518,518,518,518,518,518,518,518,518,518,518,518,518,518,518,518,518,518,518,518,518,518,518,518,518,518,518,518,518,518,518,518,518,516,502,494,486,479,474,469,463,452,417,369,261,221,206,201,200,200,200,200,200,200,200,200,200,200,200,200,200,200,200,200,200,200,199,199,192,175,174,174,174,175,175,175,175,175,177,176,172,170,162,153,131,121,112,103,97,89,88,85,85,85,85,85,86,96,106,124,127,128,128,124,114,111,109,108,106,105,105,104,102,102,94,87,77,67,59,49,33,28,26,22,22,22,22,22,22,22],"timestamp_mouse":[17,36,56,76,97,117,136,157,176,197,217,236,256,276,297,317,336,357,377,396,416,436,457,476,496,516,537,557,577,597,617,635,656,676,696,716,736,757,776,796,816,836,857,877,897,916,936,957,976,997,1016,1036,1057,1077,1096,1116,1136,1156,1176,1196,1216,1236,1256,1277,1296,1317,1335,1356,1376,1396,1417,1436,1457,1477,1497,1517,1536,1555,1576,1596,1616,1636,1657,1676,1697,1717,1736,1757,1776,1796,1816,1836,1856,1876,1897,1916,1936,1956,1977,1996,2016,2036,2057,2077,2096,2116,2136,2156,2176,2197,2216,2236,2256,2276,2296,2316,2336,2356,2376,2395,2417,2436,2456,2476,2496,2516,2536,2556,2576,2596,2616,2637,2656,2676,2696,2716,2736,2756,2777,2796,2816,2836,2856,2876,2897,2916,2936,2956,2976,2997,3016,3036],"xSR":741.5,"ySR":469.95,"xT1":424.9,"yT1":0,"xT2":1058.1,"yT2":0,"toosoon":0,"cond_shown":"Incongruent","ratio_trial":300,"L_num":4,"L_den":5,"R_num":6,"R_den":12,"correct_side":1,"subjID":"lucianaduarte20","gender":"1","school":"4","age":"9"},{"start_time":1552313028799,"click_time":1552313030604,"finger_time":1552313030324,"fix_duration":1094.037602739357,"trial":17,"RT":1525,"MT":280,"sideResp":1,"stimulus":[],"xmouse":[767,767,767,767,767,767,767,767,767,767,767,767,767,767,767,767,767,767,767,767,767,767,767,767,767,767,767,767,767,767,767,767,767,767,767,767,767,767,767,767,767,767,767,767,767,767,767,767,767,767,767,767,767,767,767,767,767,767,767,767,767,767,767,767,767,767,767,767,767,768,768,768,768,768,768,771,775,775,773,762,740,712,692,685,687,687,687,670,629,561,507],"ymouse":[486,486,486,486,486,486,486,486,486,486,486,486,486,486,486,486,486,486,486,486,486,486,486,486,486,486,486,486,486,486,486,486,486,486,486,486,486,486,486,486,486,486,486,486,486,486,486,486,486,486,486,486,486,486,486,486,486,486,486,486,486,486,486,486,486,486,486,486,486,486,486,486,486,486,486,478,457,429,360,316,258,193,130,29,14,9,7,6,6,6,6],"timestamp_mouse":[5,25,45,65,86,106,125,146,166,185,205,225,245,265,285,306,326,346,366,386,405,426,445,465,485,505,525,545,566,586,605,626,646,665,685,706,726,746,766,785,805,825,845,866,885,905,926,946,966,985,1005,1025,1045,1065,1086,1105,1125,1146,1165,1185,1206,1225,1245,1266,1286,1305,1326,1345,1365,1386,1404,1426,1446,1466,1485,1506,1525,1545,1565,1585,1605,1626,1646,1665,1685,1705,1726,1746,1765,1785,1805],"xSR":741.5,"ySR":469.95,"xT1":424.9,"yT1":0,"xT2":1058.1,"yT2":0,"toosoon":0,"cond_shown":"Congruent","ratio_trial":100,"L_num":1,"L_den":2,"R_num":3,"R_den":5,"correct_side":2,"subjID":"lucianaduarte20","gender":"1","school":"4","age":"9"},{"start_time":1552313033538,"click_time":1552313034464,"finger_time":1552313034025,"fix_duration":273.63982269431364,"trial":18,"RT":487,"MT":439,"sideResp":2,"stimulus":[],"xmouse":[754,751,749,748,748,748,748,748,745,743,742,742,742,742,742,742,742,742,742,742,742,742,754,784,828,868,900,909,919,930,941,958,978,985,1001,1005,1007,1007,1007,1009,1014,1023,1031,1034,1048,1061,1092],"ymouse":[499,499,500,500,500,500,500,501,505,512,514,516,516,516,516,516,516,516,516,516,516,516,508,487,456,426,390,371,354,335,315,286,260,251,228,217,207,201,192,184,176,157,144,140,125,115,93],"timestamp_mouse":[6,29,46,66,86,106,126,146,166,186,207,226,246,267,286,307,327,346,367,387,405,427,447,466,487,506,526,546,566,587,607,626,646,667,687,706,726,746,766,786,806,826,846,866,887,906,926],"xSR":741.5,"ySR":469.95,"xT1":424.9,"yT1":0,"xT2":1058.1,"yT2":0,"toosoon":0,"cond_shown":"Incongruent","ratio_trial":100,"L_num":1,"L_den":2,"R_num":8,"R_den":20,"correct_side":1,"subjID":"lucianaduarte20","gender":"1","school":"4","age":"9"},{"start_time":1552313035959,"click_time":1552313038384,"finger_time":1552313037465,"fix_duration":394.77667873010694,"trial":19,"RT":1506,"MT":919,"sideResp":1,"stimulus":[],"xmouse":[773,773,773,773,773,773,773,773,773,773,773,773,773,773,773,773,773,773,773,773,773,773,773,773,773,773,773,773,773,773,773,773,773,773,773,773,773,773,772,772,770,770,770,770,770,770,770,770,770,770,771,771,771,771,771,772,774,776,776,776,776,776,776,776,776,776,776,776,777,778,779,783,785,787,795,837,861,891,927,962,1007,1012,1013,1014,1014,1014,1014,1013,1012,1012,1011,1008,1004,1000,995,990,989,988,988,986,980,945,919,888,852,823,798,792,790,790,790,790,790,790,790,786,777,758,730,690,620,493],"ymouse":[533,533,533,533,533,533,533,533,533,533,533,533,533,533,533,533,533,533,533,533,533,533,533,533,533,533,533,533,533,533,533,533,533,533,533,533,533,533,533,533,532,532,532,532,532,532,532,532,532,532,532,532,532,532,532,532,530,529,529,529,529,529,529,529,529,529,529,529,528,528,525,519,517,514,503,455,428,395,354,316,261,252,249,248,248,248,247,246,246,246,246,247,249,250,252,254,254,254,254,254,252,242,234,224,212,197,181,177,175,175,175,175,175,175,175,173,167,159,147,130,107,62],"timestamp_mouse":[5,26,46,65,86,105,125,145,166,185,206,226,246,266,286,306,326,345,366,386,406,425,446,466,486,504,526,546,565,586,605,625,644,665,685,705,726,746,765,785,805,825,846,865,886,905,925,946,966,985,1005,1026,1046,1066,1084,1106,1125,1145,1165,1185,1204,1226,1245,1266,1286,1306,1326,1346,1365,1385,1405,1426,1445,1466,1485,1506,1525,1546,1566,1586,1606,1625,1645,1664,1685,1706,1725,1745,1766,1786,1805,1826,1845,1865,1885,1906,1925,1945,1966,1985,2006,2025,2045,2065,2091,2105,2125,2147,2164,2184,2206,2226,2245,2266,2285,2306,2325,2345,2365,2386,2406,2425],"xSR":741.5,"ySR":469.95,"xT1":424.9,"yT1":0,"xT2":1058.1,"yT2":0,"toosoon":0,"cond_shown":"Incongruent","ratio_trial":200,"L_num":4,"L_den":30,"R_num":1,"R_den":3,"correct_side":2,"subjID":"lucianaduarte20","gender":"1","school":"4","age":"9"},{"start_time":1552313041003,"click_time":1552313043124,"finger_time":1552313042404,"fix_duration":1277.0237988781514,"trial":20,"RT":1401,"MT":720,"sideResp":2,"stimulus":[],"xmouse":[790,790,792,792,792,792,792,792,792,792,792,792,792,792,792,792,792,792,792,792,792,792,792,792,792,792,792,792,792,792,792,793,793,793,792,792,791,790,790,790,788,787,787,786,784,782,780,780,780,780,780,780,780,780,781,781,781,781,781,781,781,781,781,781,781,781,781,781,781,781,776,765,745,715,659,637,631,621,621,621,621,621,621,620,620,619,622,637,657,740,807,884,968,1047,1174,1205,1221,1223,1227,1231,1232,1232,1228,1223,1204,1190,1153],"ymouse":[521,521,522,522,522,522,522,522,522,522,522,522,522,522,522,522,522,522,522,522,522,522,522,522,522,522,522,522,522,522,522,522,522,522,522,522,521,521,521,521,520,519,519,519,517,516,516,515,515,515,515,516,516,516,517,517,517,517,517,517,517,517,517,517,517,517,517,510,502,474,453,425,377,311,222,195,187,178,178,178,178,178,178,178,178,178,180,185,191,204,211,214,214,214,211,201,190,185,176,156,144,134,124,118,104,94,78],"timestamp_mouse":[1,21,41,61,81,101,122,142,161,182,201,221,242,261,281,301,321,341,361,381,401,422,441,462,481,502,521,541,561,582,602,621,641,661,682,702,722,742,762,781,801,821,841,861,881,901,921,941,961,982,1001,1021,1041,1061,1082,1102,1122,1141,1161,1181,1202,1221,1241,1262,1282,1302,1321,1341,1361,1381,1401,1422,1441,1461,1481,1502,1521,1542,1562,1581,1602,1622,1642,1661,1681,1701,1721,1741,1760,1781,1801,1821,1841,1862,1881,1901,1921,1940,1962,1981,2001,2021,2041,2060,2081,2101,2121],"xSR":741.5,"ySR":469.95,"xT1":424.9,"yT1":0,"xT2":1058.1,"yT2":0,"toosoon":0,"cond_shown":"Congruent","ratio_trial":200,"L_num":6,"L_den":12,"R_num":7,"R_den":10,"correct_side":2,"subjID":"lucianaduarte20","gender":"1","school":"4","age":"9"},{"start_time":1552313045698,"click_time":1552313046704,"finger_time":1552313046345,"fix_duration":1413.806573379709,"trial":21,"RT":647,"MT":359,"sideResp":2,"stimulus":[],"xmouse":[772,772,772,772,772,772,772,772,772,772,772,772,772,772,772,772,772,772,772,772,772,772,772,772,772,772,774,774,776,779,802,820,844,872,899,931,939,951,961,990,1011,1023,1033,1039,1049,1056,1062,1069,1069,1069,1069],"ymouse":[505,505,505,505,505,505,505,505,505,505,505,505,505,505,505,505,505,505,505,505,505,505,505,505,505,505,505,505,505,504,486,474,456,436,413,385,374,360,352,328,305,285,264,249,223,205,184,160,140,124,98],"timestamp_mouse":[7,27,47,67,86,106,127,146,167,186,206,226,246,266,286,306,326,346,366,386,407,426,446,466,486,507,527,546,567,586,606,625,647,667,687,706,726,746,765,787,806,826,846,866,887,906,927,945,966,986,1006],"xSR":741.5,"ySR":469.95,"xT1":424.9,"yT1":0,"xT2":1058.1,"yT2":0,"toosoon":0,"cond_shown":"Incongruent","ratio_trial":200,"L_num":7,"L_den":10,"R_num":8,"R_den":16,"correct_side":1,"subjID":"lucianaduarte20","gender":"1","school":"4","age":"9"},{"start_time":1552313051203,"click_time":1552313053285,"finger_time":1552313052964,"fix_duration":1456.395005156125,"trial":22,"RT":1761,"MT":321,"sideResp":2,"stimulus":[],"xmouse":[786,786,786,786,786,786,786,786,786,786,786,786,786,786,786,786,786,786,786,786,786,786,786,786,786,786,786,786,786,786,786,786,786,786,786,786,786,786,786,786,786,786,786,786,786,786,786,786,786,786,786,786,786,786,786,786,786,786,786,785,782,776,773,771,769,768,767,767,765,760,750,746,745,745,745,745,745,745,745,745,745,745,744,744,744,744,744,744,748,756,814,878,929,969,994,1008,1033,1045,1069,1094,1134,1142,1148,1149,1150],"ymouse":[522,522,522,522,522,522,522,522,522,522,522,522,522,522,522,522,522,522,522,522,522,522,522,522,522,522,522,522,522,522,522,522,522,522,522,522,522,522,522,522,522,522,522,522,522,522,522,522,522,522,522,522,522,522,522,522,522,522,522,521,518,508,504,499,497,495,495,493,492,486,475,472,471,471,471,471,471,471,471,471,471,470,470,470,470,470,470,470,467,462,425,366,311,267,236,221,199,188,171,156,128,119,107,101,93],"timestamp_mouse":[7,22,42,61,81,101,122,142,162,182,201,221,242,262,282,301,321,342,362,380,401,421,441,462,481,501,521,542,561,581,601,621,642,662,682,701,721,741,761,781,801,821,842,861,881,901,921,942,961,981,1000,1022,1041,1061,1082,1101,1121,1142,1161,1182,1201,1221,1241,1261,1282,1301,1321,1341,1362,1382,1401,1422,1442,1461,1482,1502,1521,1542,1562,1582,1601,1622,1642,1661,1681,1701,1721,1741,1761,1781,1801,1821,1841,1862,1881,1901,1921,1940,1962,1981,2001,2021,2041,2061,2082],"xSR":741.5,"ySR":469.95,"xT1":424.9,"yT1":0,"xT2":1058.1,"yT2":0,"toosoon":0,"cond_shown":"Congruent","ratio_trial":300,"L_num":8,"L_den":15,"R_num":10,"R_den":12,"correct_side":2,"subjID":"lucianaduarte20","gender":"1","school":"4","age":"9"},{"start_time":1552313056570,"click_time":1552313057704,"finger_time":1552313057324,"fix_duration":764.164450340086,"trial":23,"RT":754,"MT":380,"sideResp":1,"stimulus":[],"xmouse":[799,799,799,799,799,799,799,799,799,799,799,799,799,799,799,799,799,799,799,799,799,799,799,799,799,799,799,799,799,799,799,799,799,799,793,775,749,688,651,610,552,533,524,524,524,525,527,528,528,525,518,506,499,498,498,498,498],"ymouse":[528,529,529,529,529,529,529,529,529,529,529,529,529,529,529,529,529,529,529,529,529,529,529,529,529,529,529,529,529,529,529,529,529,528,524,517,503,459,427,391,343,325,294,282,271,259,244,215,203,192,182,165,142,131,119,106,93],"timestamp_mouse":[15,35,54,74,95,114,134,155,175,195,214,235,254,274,295,314,334,355,374,395,415,434,455,474,494,514,534,554,574,594,615,634,654,674,694,714,734,754,774,794,814,835,855,874,894,915,935,954,974,995,1014,1034,1054,1074,1094,1115,1134],"xSR":741.5,"ySR":469.95,"xT1":424.9,"yT1":0,"xT2":1058.1,"yT2":0,"toosoon":0,"cond_shown":"Incongruent","ratio_trial":100,"L_num":9,"L_den":10,"R_num":20,"R_den":25,"correct_side":1,"subjID":"lucianaduarte20","gender":"1","school":"4","age":"9"},{"start_time":1552313060089,"click_time":1552313062844,"finger_time":1552313061544,"fix_duration":1223.3293247856473,"trial":24,"RT":1455,"MT":1300,"sideResp":2,"stimulus":[],"xmouse":[795,795,795,795,796,796,796,796,796,796,796,796,796,796,796,796,796,796,796,796,796,796,796,796,796,796,796,796,796,796,796,796,796,796,796,796,796,796,796,796,796,796,796,796,796,796,796,796,796,796,796,796,796,796,796,796,796,796,796,796,796,796,796,796,796,796,796,796,796,796,800,824,846,877,898,914,935,942,950,956,961,976,981,981,981,981,981,981,981,981,981,981,981,981,981,981,981,981,983,986,994,1021,1034,1039,1045,1051,1051,1052,1052,1052,1052,1055,1056,1057,1057,1057,1057,1057,1058,1059,1063,1071,1072,1072,1072,1072,1072,1072,1073,1074,1076,1083,1086,1088,1090,1093,1101,1102],"ymouse":[515,515,515,515,515,515,515,515,515,515,515,515,515,515,515,515,515,515,515,515,515,515,515,515,515,515,515,515,515,515,515,515,515,515,515,515,515,515,515,515,515,515,515,515,515,515,515,515,515,515,515,515,515,515,515,515,515,515,515,515,515,515,515,515,515,515,515,515,515,514,507,487,469,446,426,413,401,397,391,386,382,371,368,368,368,368,368,368,368,368,368,368,368,368,368,368,368,368,366,362,352,312,281,264,248,241,239,237,236,230,224,214,210,209,209,209,209,209,208,205,196,169,157,156,156,156,156,156,154,154,151,142,137,132,128,121,100,92],"timestamp_mouse":[15,35,55,75,96,115,135,156,176,195,215,235,255,276,296,315,336,355,375,395,415,435,456,475,495,515,535,556,575,596,615,636,655,675,695,715,735,755,776,795,815,835,855,875,896,915,935,955,976,996,1015,1036,1055,1075,1096,1116,1135,1156,1176,1196,1216,1236,1255,1276,1296,1315,1334,1355,1375,1395,1415,1435,1455,1475,1495,1515,1535,1555,1575,1595,1615,1635,1656,1675,1695,1716,1735,1756,1775,1795,1816,1836,1856,1875,1895,1915,1936,1956,1975,1995,2015,2035,2055,2075,2095,2115,2135,2156,2175,2195,2215,2235,2255,2275,2295,2314,2336,2356,2375,2395,2416,2435,2455,2475,2495,2515,2535,2556,2575,2595,2616,2636,2656,2675,2695,2715,2736,2755],"xSR":741.5,"ySR":469.95,"xT1":424.9,"yT1":0,"xT2":1058.1,"yT2":0,"toosoon":0,"cond_shown":"Incongruent","ratio_trial":300,"L_num":1,"L_den":2,"R_num":2,"R_den":10,"correct_side":1,"subjID":"lucianaduarte20","gender":"1","school":"4","age":"9"},{"start_time":1552313067697,"click_time":1552313069625,"finger_time":1552313069345,"fix_duration":390.50966559473324,"trial":25,"RT":1648,"MT":280,"sideResp":2,"stimulus":[],"xmouse":[770,770,770,770,770,770,770,770,770,770,770,770,770,770,770,770,770,770,770,770,770,770,770,770,770,770,770,770,770,770,770,770,770,770,770,770,770,770,770,770,770,770,770,770,770,770,770,770,770,770,770,770,770,770,770,770,770,770,770,770,770,770,770,770,770,770,770,770,770,770,770,770,770,770,770,770,771,778,782,790,798,814,886,963,1031,1071,1085,1089,1089,1089,1089,1085,1082,1084,1088,1092,1095],"ymouse":[533,533,533,533,533,533,533,533,533,533,533,533,533,533,533,533,533,533,533,533,533,533,533,533,533,533,533,533,533,533,533,533,533,533,533,533,533,533,533,533,533,533,533,533,533,533,533,533,533,533,533,533,533,533,533,533,533,533,533,533,533,533,533,533,533,533,533,533,533,533,533,533,533,533,533,533,533,525,520,512,505,492,441,394,364,340,324,293,274,237,212,191,154,139,125,110,98],"timestamp_mouse":[10,29,49,69,89,109,128,148,168,189,209,229,248,268,289,308,328,348,368,388,408,429,448,468,489,509,528,549,568,589,610,628,649,668,689,710,728,749,769,789,808,828,848,868,888,910,928,949,968,989,1009,1030,1048,1069,1089,1110,1129,1148,1170,1188,1208,1229,1248,1269,1288,1309,1329,1350,1368,1389,1409,1428,1449,1468,1488,1508,1528,1548,1569,1588,1608,1629,1648,1668,1690,1709,1728,1748,1768,1788,1808,1829,1849,1868,1888,1909,1928],"xSR":741.5,"ySR":469.95,"xT1":424.9,"yT1":0,"xT2":1058.1,"yT2":0,"toosoon":0,"cond_shown":"Incongruent","ratio_trial":200,"L_num":14,"L_den":30,"R_num":6,"R_den":9,"correct_side":2,"subjID":"lucianaduarte20","gender":"1","school":"4","age":"9"},{"start_time":1552313073543,"click_time":1552313074965,"finger_time":1552313074545,"fix_duration":1276.5229697569346,"trial":26,"RT":1002,"MT":420,"sideResp":2,"stimulus":[],"xmouse":[789,789,789,789,789,789,789,789,789,789,789,789,789,789,789,789,789,789,789,789,789,789,789,789,789,789,789,789,789,789,789,789,789,789,789,789,789,789,789,789,789,789,789,789,789,789,789,789,793,801,817,847,860,873,884,908,952,962,967,970,971,973,974,974,976,978,988,1001,1013,1017,1029,1064],"ymouse":[507,507,507,507,507,507,507,507,507,507,507,507,507,507,507,507,507,507,507,507,507,507,507,507,507,507,507,507,507,507,507,507,507,507,507,507,507,507,507,507,507,507,507,507,507,507,507,507,501,490,462,416,397,376,352,307,247,230,219,210,203,193,187,179,167,158,141,131,123,112,108,88],"timestamp_mouse":[4,25,42,62,82,103,123,143,163,183,203,222,242,262,282,303,324,343,362,382,403,423,442,462,483,502,522,543,562,582,602,622,642,663,682,703,724,742,763,783,802,822,842,862,882,902,923,942,964,983,1002,1022,1042,1063,1082,1102,1123,1142,1163,1182,1203,1222,1243,1263,1283,1303,1323,1342,1362,1383,1402,1422],"xSR":741.5,"ySR":469.95,"xT1":424.9,"yT1":0,"xT2":1058.1,"yT2":0,"toosoon":0,"cond_shown":"Incongruent","ratio_trial":300,"L_num":13,"L_den":26,"R_num":12,"R_den":15,"correct_side":2,"subjID":"lucianaduarte20","gender":"1","school":"4","age":"9"},{"start_time":1552313077485,"click_time":1552313079766,"finger_time":1552313079185,"fix_duration":1418.1900193868328,"trial":27,"RT":1700,"MT":581,"sideResp":2,"stimulus":[],"xmouse":[762,762,762,762,762,762,762,762,762,762,762,762,762,762,762,762,762,762,762,762,762,762,762,762,762,762,762,762,762,762,762,762,762,762,762,762,762,762,762,762,762,762,762,762,762,762,762,762,762,762,762,762,762,762,762,762,762,762,762,762,762,762,762,762,762,762,762,762,762,762,762,762,762,762,762,762,762,762,762,762,762,766,769,774,779,779,779,780,784,807,826,847,867,884,904,926,994,1073,1131,1184,1193,1195,1195,1195,1195,1196,1197,1197,1197,1192,1186,1181,1174,1165,1158],"ymouse":[505,505,505,505,505,505,505,505,505,505,505,505,505,505,505,505,505,505,505,505,505,505,505,505,505,505,505,505,505,505,505,505,505,505,505,505,505,505,505,505,505,505,505,505,505,505,505,505,505,505,505,505,505,505,505,505,505,505,505,505,505,505,505,505,505,505,505,505,505,505,505,505,505,505,505,505,505,505,505,505,503,494,488,479,470,468,467,465,458,435,419,405,391,381,355,310,246,186,144,97,85,82,81,81,79,77,74,73,72,68,66,63,59,53,50],"timestamp_mouse":[1,20,40,61,80,100,121,141,161,181,201,220,240,261,281,300,321,340,360,380,400,420,441,461,482,501,520,541,562,580,600,620,640,661,681,701,721,740,761,780,800,821,841,860,880,901,920,941,960,980,1001,1020,1040,1060,1080,1102,1120,1140,1160,1180,1201,1220,1240,1262,1280,1301,1320,1342,1362,1380,1401,1422,1440,1460,1480,1500,1521,1540,1561,1581,1600,1621,1641,1660,1681,1700,1720,1741,1760,1781,1800,1821,1841,1861,1880,1900,1920,1941,1961,1981,2000,2021,2041,2060,2081,2101,2120,2141,2160,2181,2200,2221,2241,2262,2281],"xSR":741.5,"ySR":469.95,"xT1":424.9,"yT1":0,"xT2":1058.1,"yT2":0,"toosoon":0,"cond_shown":"Incongruent","ratio_trial":200,"L_num":6,"L_den":20,"R_num":3,"R_den":6,"correct_side":2,"subjID":"lucianaduarte20","gender":"1","school":"4","age":"9"},{"start_time":1552313082144,"click_time":1552313084005,"finger_time":1552313083466,"fix_duration":1179.3712171987577,"trial":28,"RT":1322,"MT":539,"sideResp":2,"stimulus":[],"xmouse":[786,786,786,786,786,786,786,786,786,786,786,786,786,786,786,786,786,786,786,786,786,786,786,786,786,786,786,786,786,786,786,786,786,786,786,786,786,786,786,786,786,786,786,786,786,786,786,786,786,786,786,786,786,786,786,786,786,786,786,786,786,786,784,781,774,761,696,656,632,620,612,610,610,610,610,610,610,610,610,609,609,609,609,609,609,612,634,745,816,877,962,1000,1049,1063],"ymouse":[508,508,508,508,508,508,508,508,508,508,508,508,508,508,508,508,508,508,508,508,508,508,508,508,508,508,508,508,508,508,508,508,508,508,508,508,508,508,508,508,508,508,508,508,508,508,508,508,508,508,508,508,508,508,508,508,508,508,508,508,508,508,507,505,496,472,353,286,246,223,212,209,209,209,209,209,209,209,209,209,209,209,209,209,209,210,210,195,184,169,143,126,102,93],"timestamp_mouse":[3,22,42,62,82,101,122,141,163,181,201,222,241,262,282,301,322,341,362,381,403,422,442,463,481,502,523,542,562,581,601,623,641,661,681,701,721,742,761,783,802,822,842,861,883,903,921,942,961,982,1001,1021,1042,1061,1081,1103,1121,1142,1163,1182,1201,1221,1241,1261,1281,1301,1322,1342,1361,1382,1403,1421,1441,1461,1481,1501,1521,1541,1561,1582,1603,1622,1641,1661,1681,1702,1722,1741,1761,1782,1802,1822,1841,1861],"xSR":741.5,"ySR":469.95,"xT1":424.9,"yT1":0,"xT2":1058.1,"yT2":0,"toosoon":0,"cond_shown":"Incongruent","ratio_trial":200,"L_num":14,"L_den":30,"R_num":6,"R_den":9,"correct_side":2,"subjID":"lucianaduarte20","gender":"1","school":"4","age":"9"},{"start_time":1552313085716,"click_time":1552313087586,"finger_time":1552313087246,"fix_duration":729.3116351670221,"trial":29,"RT":1530,"MT":340,"sideResp":1,"stimulus":[],"xmouse":[800,800,800,800,800,800,800,800,800,800,800,800,800,800,800,800,800,800,800,800,800,800,800,800,800,800,800,800,800,800,800,800,800,800,800,800,800,800,800,800,800,800,800,800,800,800,800,800,800,800,800,799,798,798,798,798,798,798,798,798,798,798,798,798,798,798,798,798,798,798,798,798,798,798,794,792,782,772,738,714,699,689,678,657,650,645,633,614,568,536,523,515,510,501],"ymouse":[527,527,527,527,527,527,527,527,527,527,527,527,527,527,527,527,527,527,527,527,527,527,527,527,527,527,527,527,527,527,527,527,527,527,527,527,527,527,527,527,527,527,527,527,527,527,527,527,527,527,527,526,526,526,526,526,526,526,526,526,526,526,526,526,526,526,526,526,526,526,526,526,526,526,511,479,421,363,271,230,212,197,184,170,167,163,158,150,135,121,113,106,101,88],"timestamp_mouse":[10,30,51,69,90,109,129,150,170,189,210,229,249,269,290,309,329,350,369,390,409,430,449,469,489,509,531,550,570,590,611,630,650,670,690,709,730,750,771,789,809,830,849,869,890,910,929,949,969,989,1010,1029,1050,1071,1090,1109,1130,1149,1171,1190,1210,1230,1250,1270,1289,1310,1330,1350,1370,1389,1411,1430,1450,1469,1489,1510,1530,1549,1569,1590,1609,1629,1649,1669,1689,1709,1729,1750,1769,1790,1809,1829,1849,1870],"xSR":741.5,"ySR":469.95,"xT1":424.9,"yT1":0,"xT2":1058.1,"yT2":0,"toosoon":0,"cond_shown":"Incongruent","ratio_trial":200,"L_num":1,"L_den":3,"R_num":2,"R_den":15,"correct_side":1,"subjID":"lucianaduarte20","gender":"1","school":"4","age":"9"},{"start_time":1552313091193,"click_time":1552313092946,"finger_time":1552313092605,"fix_duration":1146.121487249547,"trial":30,"RT":1412,"MT":341,"sideResp":2,"stimulus":[],"xmouse":[780,780,780,780,780,780,780,780,780,780,780,780,780,780,780,780,780,780,780,780,780,780,780,780,780,780,780,780,780,780,780,780,780,780,780,780,780,780,780,780,780,780,780,780,780,780,780,780,780,780,780,780,780,780,780,780,780,780,780,780,780,780,780,782,783,795,805,819,832,841,879,904,924,944,971,1003,1012,1019,1024,1029,1037,1042,1055,1062,1083,1113,1133,1153],"ymouse":[522,522,522,522,522,522,522,522,522,522,522,522,522,522,522,522,522,522,522,522,522,522,522,522,522,522,522,522,522,522,522,522,522,522,522,522,522,522,522,522,522,522,522,522,522,522,522,522,522,522,522,522,522,522,522,522,522,522,522,522,522,522,522,521,520,513,506,495,485,476,448,426,404,382,355,318,305,292,279,265,238,221,193,182,155,122,104,90],"timestamp_mouse":[15,32,52,72,93,113,132,153,172,193,212,232,252,272,292,313,332,352,372,392,413,434,453,472,492,514,532,553,573,592,612,633,653,673,693,713,734,753,772,793,813,832,853,872,892,912,932,952,972,992,1012,1032,1053,1074,1092,1112,1133,1152,1173,1194,1212,1232,1252,1273,1292,1313,1332,1352,1372,1392,1412,1433,1453,1473,1493,1512,1532,1553,1572,1593,1612,1633,1652,1674,1692,1713,1732,1753],"xSR":741.5,"ySR":469.95,"xT1":424.9,"yT1":0,"xT2":1058.1,"yT2":0,"toosoon":0,"cond_shown":"Incongruent","ratio_trial":300,"L_num":4,"L_den":20,"R_num":2,"R_den":4,"correct_side":2,"subjID":"lucianaduarte20","gender":"1","school":"4","age":"9"},{"start_time":1552313096370,"click_time":1552313097605,"finger_time":1552313097005,"fix_duration":844.2135493117441,"trial":31,"RT":635,"MT":600,"sideResp":1,"stimulus":[],"xmouse":[800,800,800,800,800,800,800,800,800,800,800,800,800,800,800,800,800,800,800,800,800,800,800,800,800,801,816,825,834,836,839,842,844,845,845,845,845,845,839,829,818,789,764,744,721,705,696,683,674,659,633,610,596,588,577,566,549,543,539,535,532,519],"ymouse":[514,514,514,514,514,514,514,514,514,514,514,514,514,514,514,514,514,514,514,514,514,514,514,514,514,511,499,490,484,482,479,475,473,473,473,472,472,468,459,448,434,397,364,339,314,292,278,250,234,213,183,158,142,135,126,118,105,99,95,90,85,68],"timestamp_mouse":[16,36,55,75,96,115,136,156,177,195,215,235,255,276,296,315,335,356,375,395,415,436,455,475,495,515,535,555,575,595,615,635,655,675,696,715,735,755,776,796,815,835,855,875,896,915,936,955,975,995,1015,1036,1055,1075,1095,1115,1136,1155,1176,1196,1216,1235],"xSR":741.5,"ySR":469.95,"xT1":424.9,"yT1":0,"xT2":1058.1,"yT2":0,"toosoon":0,"cond_shown":"Incongruent","ratio_trial":100,"L_num":4,"L_den":8,"R_num":8,"R_den":20,"correct_side":1,"subjID":"lucianaduarte20","gender":"1","school":"4","age":"9"},{"start_time":1552313100258,"click_time":1552313103125,"finger_time":1552313102325,"fix_duration":431.7708587472432,"trial":32,"RT":2067,"MT":800,"sideResp":2,"stimulus":[],"xmouse":[787,787,787,787,787,787,787,787,787,787,787,787,787,787,787,787,787,787,787,787,787,787,787,787,787,787,787,787,787,787,787,787,787,787,787,787,787,787,787,786,786,786,786,786,786,786,786,786,786,786,786,786,786,786,786,786,786,786,786,786,786,786,786,786,786,786,786,786,786,786,786,786,786,786,786,786,787,788,791,794,796,798,801,802,802,802,802,801,799,797,793,791,790,790,790,790,790,790,790,790,790,790,788,785,782,779,776,776,776,776,776,776,786,834,886,950,975,992,1007,1008,1011,1013,1016,1026,1028,1030,1033,1036,1040,1042,1048,1057,1069,1091,1100,1103,1103,1103,1096,1092,1092,1091,1091,1091],"ymouse":[563,563,563,563,563,563,563,563,563,563,563,563,562,556,553,550,548,548,548,548,548,548,548,548,548,548,548,548,548,548,548,548,548,548,548,548,548,548,548,547,547,547,547,547,547,547,547,547,547,547,547,547,547,547,547,547,547,547,547,547,547,547,547,547,547,547,547,547,546,546,546,546,546,546,546,546,546,544,541,537,533,527,522,516,513,510,507,505,504,500,494,488,486,482,481,479,476,475,475,475,475,475,471,459,451,448,444,444,444,444,444,443,442,436,428,415,402,387,365,360,353,347,340,320,313,306,295,286,272,265,257,242,222,185,162,149,138,131,115,108,105,103,101,96],"timestamp_mouse":[7,27,47,67,89,108,128,147,168,188,207,228,247,267,287,308,328,347,368,388,409,427,448,468,488,507,528,548,568,588,608,627,647,668,688,708,727,749,767,788,807,828,848,867,888,908,929,948,967,988,1008,1028,1049,1068,1087,1107,1127,1147,1167,1189,1208,1227,1248,1267,1287,1309,1328,1348,1368,1388,1409,1428,1447,1468,1488,1508,1528,1548,1567,1587,1608,1628,1647,1667,1688,1707,1728,1747,1767,1787,1808,1827,1847,1868,1887,1907,1929,1947,1968,1987,2007,2027,2048,2067,2087,2107,2128,2147,2168,2187,2208,2227,2248,2267,2288,2307,2328,2347,2367,2387,2408,2428,2447,2467,2488,2508,2527,2548,2567,2587,2608,2628,2647,2667,2688,2707,2727,2747,2767,2787,2808,2828,2848,2867],"xSR":741.5,"ySR":469.95,"xT1":424.9,"yT1":0,"xT2":1058.1,"yT2":0,"toosoon":0,"cond_shown":"Congruent","ratio_trial":100,"L_num":3,"L_den":6,"R_num":2,"R_den":5,"correct_side":1,"subjID":"lucianaduarte20","gender":"1","school":"4","age":"9"},{"start_time":1552313106096,"click_time":1552313107505,"finger_time":1552313107346,"fix_duration":250,"trial":33,"RT":1250,"MT":159,"sideResp":2,"stimulus":[],"xmouse":[746,746,746,746,746,746,746,746,746,746,746,746,746,746,746,746,746,746,746,746,746,746,746,746,746,746,746,746,746,746,746,746,746,746,746,746,746,746,746,746,746,746,746,746,746,746,746,744,743,743,743,743,743,743,743,743,744,745,745,745,746,759,819,842,873,926,1036,1076,1108,1125,1136],"ymouse":[531,531,531,531,531,531,531,531,531,531,531,531,531,531,531,531,531,531,531,531,531,531,532,532,532,532,532,532,532,532,532,532,532,532,533,533,533,533,533,533,533,533,533,533,533,533,533,532,532,532,532,532,532,532,532,532,533,533,533,533,532,508,420,387,352,290,192,160,131,113,94],"timestamp_mouse":[11,30,49,70,90,109,129,150,169,189,210,230,250,269,289,309,329,349,370,390,409,429,450,471,490,510,530,549,571,589,609,631,649,669,689,710,729,750,769,789,809,829,849,869,890,910,929,950,971,989,1010,1029,1050,1069,1089,1109,1130,1149,1169,1189,1209,1229,1250,1269,1289,1310,1330,1349,1369,1390,1409],"xSR":741.5,"ySR":469.95,"xT1":424.9,"yT1":0,"xT2":1058.1,"yT2":0,"toosoon":0,"cond_shown":"Incongruent","ratio_trial":100,"L_num":8,"L_den":20,"R_num":1,"R_den":2,"correct_side":2,"subjID":"lucianaduarte20","gender":"1","school":"4","age":"9"},{"start_time":1552313108757,"click_time":1552313110245,"finger_time":1552313109405,"fix_duration":250,"trial":34,"RT":648,"MT":840,"sideResp":2,"stimulus":[],"xmouse":[766,766,766,766,766,766,766,766,766,766,766,766,766,766,766,766,766,766,766,766,766,766,766,766,766,766,766,766,766,767,760,751,731,709,682,675,668,668,668,668,668,668,668,670,674,678,682,684,686,689,691,693,698,705,730,741,754,775,790,828,852,889,912,938,976,989,1010,1016,1033,1054,1067,1077,1085,1090,1102],"ymouse":[516,516,516,516,516,516,516,516,516,516,516,516,516,516,516,516,516,516,516,516,516,516,516,516,516,516,516,516,516,516,516,516,509,500,487,482,478,478,478,478,478,478,477,476,474,471,468,467,466,464,463,461,457,453,442,437,432,425,419,400,386,364,350,327,281,259,222,212,186,160,150,139,128,120,98],"timestamp_mouse":[10,28,48,68,90,108,128,148,168,188,208,228,248,268,289,309,328,349,368,388,408,428,448,469,489,509,528,548,569,590,608,628,648,668,688,708,728,748,768,788,808,828,848,868,888,908,928,948,969,988,1008,1029,1048,1069,1088,1108,1129,1148,1168,1188,1208,1228,1248,1269,1288,1308,1328,1348,1368,1388,1408,1428,1448,1468,1488],"xSR":741.5,"ySR":469.95,"xT1":424.9,"yT1":0,"xT2":1058.1,"yT2":0,"toosoon":0,"cond_shown":"Incongruent","ratio_trial":100,"L_num":6,"L_den":12,"R_num":3,"R_den":5,"correct_side":2,"subjID":"lucianaduarte20","gender":"1","school":"4","age":"9"},{"start_time":1552313116516,"click_time":1552313118187,"finger_time":1552313117765,"fix_duration":788.3509512804316,"trial":35,"RT":1249,"MT":422,"sideResp":1,"stimulus":[],"xmouse":[809,809,809,809,809,809,809,809,809,809,809,809,809,809,809,809,809,809,809,809,809,809,809,809,809,809,809,809,809,809,809,810,810,810,810,810,810,810,810,810,810,810,810,810,810,810,810,810,810,810,810,810,810,810,810,810,810,809,806,802,799,796,786,770,740,692,597,583,575,569,564,562,558,557,556,556,556,551,544,537,534,532,529,524],"ymouse":[518,518,518,518,518,518,518,518,518,518,518,518,518,518,518,518,518,518,518,518,518,518,518,518,518,518,518,518,518,518,518,517,517,517,517,517,517,517,517,517,517,517,517,517,517,517,517,517,517,517,517,517,517,517,517,517,516,503,494,485,479,473,455,429,380,312,161,132,114,99,89,80,66,63,62,62,62,62,62,62,62,61,59,57],"timestamp_mouse":[10,30,49,69,89,110,130,150,171,189,209,230,249,270,290,310,329,349,371,389,410,429,449,471,489,510,530,550,569,590,609,630,650,670,690,710,730,749,769,790,809,830,850,870,889,910,930,951,969,990,1009,1030,1050,1071,1089,1109,1130,1150,1169,1189,1209,1230,1249,1270,1289,1310,1330,1349,1369,1389,1409,1429,1449,1470,1490,1509,1531,1550,1569,1590,1610,1630,1649,1671],"xSR":741.5,"ySR":469.95,"xT1":424.9,"yT1":0,"xT2":1058.1,"yT2":0,"toosoon":0,"cond_shown":"Congruent","ratio_trial":200,"L_num":3,"L_den":10,"R_num":14,"R_den":28,"correct_side":2,"subjID":"lucianaduarte20","gender":"1","school":"4","age":"9"},{"start_time":1552313120729,"click_time":1552313122165,"finger_time":1552313121726,"fix_duration":1062.952179593964,"trial":36,"RT":997,"MT":439,"sideResp":2,"stimulus":[],"xmouse":[781,781,781,781,781,781,781,781,781,781,781,781,781,781,781,781,781,781,781,781,781,781,781,781,781,781,781,781,781,781,781,781,781,781,781,781,781,781,781,781,781,781,781,781,781,781,795,809,820,835,853,910,952,1004,1029,1041,1048,1048,1048,1048,1048,1049,1053,1064,1072,1080,1089,1092,1095,1097,1098,1104],"ymouse":[509,509,509,509,509,509,509,509,509,509,509,509,509,509,509,509,509,509,509,509,509,509,509,509,509,509,509,509,509,509,509,509,509,509,509,509,509,509,509,509,509,509,509,509,509,509,497,486,476,463,441,374,324,261,236,227,223,223,223,223,223,220,215,198,187,174,153,144,132,122,112,92],"timestamp_mouse":[17,37,56,76,97,116,137,157,176,196,216,236,256,277,298,316,337,357,376,396,417,437,456,477,497,517,538,557,576,597,616,637,656,676,696,717,736,758,777,797,816,838,856,876,897,916,936,956,976,997,1018,1036,1056,1076,1097,1117,1136,1156,1177,1196,1217,1236,1256,1276,1296,1317,1336,1356,1377,1397,1416,1436],"xSR":741.5,"ySR":469.95,"xT1":424.9,"yT1":0,"xT2":1058.1,"yT2":0,"toosoon":0,"cond_shown":"Congruent","ratio_trial":100,"L_num":10,"L_den":25,"R_num":3,"R_den":10,"correct_side":1,"subjID":"lucianaduarte20","gender":"1","school":"4","age":"9"},{"start_time":1552313124229,"click_time":1552313125405,"finger_time":1552313125185,"fix_duration":1022.5973036633973,"trial":37,"RT":956,"MT":220,"sideResp":2,"stimulus":[],"xmouse":[797,797,797,797,797,797,797,797,797,797,797,797,797,797,797,797,797,797,797,797,797,797,797,797,797,797,797,797,797,797,797,797,797,797,797,797,797,797,797,797,797,797,797,797,797,799,827,847,864,880,902,968,1032,1092,1121,1133,1145,1145,1141],"ymouse":[518,518,518,518,518,518,518,518,518,518,518,518,518,518,518,518,518,518,518,518,518,518,518,518,518,518,518,518,518,518,518,518,518,518,518,518,518,518,518,518,518,518,518,518,518,518,484,459,441,425,407,337,257,194,170,160,126,111,94],"timestamp_mouse":[17,37,58,76,97,117,136,156,177,198,216,237,257,277,296,316,337,356,377,397,418,437,456,476,496,517,537,557,576,597,617,637,657,677,696,717,737,756,777,797,817,837,857,876,897,917,936,956,976,997,1017,1038,1056,1076,1097,1117,1137,1157,1176],"xSR":741.5,"ySR":469.95,"xT1":424.9,"yT1":0,"xT2":1058.1,"yT2":0,"toosoon":0,"cond_shown":"Incongruent","ratio_trial":100,"L_num":8,"L_den":20,"R_num":1,"R_den":2,"correct_side":2,"subjID":"lucianaduarte20","gender":"1","school":"4","age":"9"},{"start_time":1552313129997,"click_time":1552313131186,"finger_time":1552313130787,"fix_duration":1048.2107985569512,"trial":38,"RT":790,"MT":399,"sideResp":2,"stimulus":[],"xmouse":[785,785,785,785,785,785,785,785,785,785,785,785,785,785,785,785,785,786,787,787,787,787,787,787,787,787,787,787,787,787,787,787,787,790,803,820,829,836,840,848,853,862,877,898,932,948,955,960,961,962,965,969,973,978,999,1025,1044,1063,1083,1123],"ymouse":[533,533,533,533,533,533,533,533,533,533,533,533,533,533,533,533,534,535,535,535,535,535,535,535,535,535,535,535,535,535,535,535,535,533,524,513,506,501,498,485,472,452,421,387,331,295,278,266,262,259,254,247,240,233,212,193,176,157,134,82],"timestamp_mouse":[12,29,49,69,89,109,129,150,169,190,209,230,249,269,290,309,330,350,369,389,410,430,450,470,489,509,529,549,569,589,610,629,649,670,689,709,729,750,770,790,809,829,849,870,889,909,929,949,970,989,1009,1030,1050,1069,1089,1109,1129,1149,1169,1189],"xSR":741.5,"ySR":469.95,"xT1":424.9,"yT1":0,"xT2":1058.1,"yT2":0,"toosoon":0,"cond_shown":"Incongruent","ratio_trial":300,"L_num":4,"L_den":20,"R_num":2,"R_den":4,"correct_side":2,"subjID":"lucianaduarte20","gender":"1","school":"4","age":"9"},{"start_time":1552313132824,"click_time":1552313134307,"finger_time":1552313133666,"fix_duration":617.678306791901,"trial":39,"RT":842,"MT":641,"sideResp":1,"stimulus":[],"xmouse":[787,787,787,787,787,787,790,793,798,801,802,802,802,802,803,803,803,803,803,803,803,803,803,803,803,804,806,808,809,810,810,810,810,810,804,792,779,765,745,745,743,742,741,741,741,741,741,741,741,741,741,741,729,716,684,677,671,666,658,646,645,645,645,645,645,645,645,645,645,642,636,623,608,571,516],"ymouse":[512,512,512,512,512,512,509,504,490,486,483,483,483,483,482,482,482,482,482,482,482,482,482,482,482,482,482,482,484,484,484,484,484,484,484,484,486,491,500,500,500,500,500,500,500,500,500,500,500,500,498,493,458,431,360,343,330,316,302,284,282,282,282,282,282,282,282,282,282,277,263,241,217,164,82],"timestamp_mouse":[3,22,43,62,82,102,123,142,162,182,203,222,242,263,283,302,322,342,362,382,403,423,443,462,482,503,522,542,562,583,602,622,642,663,682,702,723,742,762,782,802,822,842,863,883,903,923,942,962,983,1003,1023,1042,1063,1082,1102,1123,1142,1162,1182,1202,1222,1242,1262,1283,1302,1323,1342,1363,1382,1403,1423,1443,1463,1483],"xSR":741.5,"ySR":469.95,"xT1":424.9,"yT1":0,"xT2":1058.1,"yT2":0,"toosoon":0,"cond_shown":"Incongruent","ratio_trial":100,"L_num":2,"L_den":4,"R_num":8,"R_den":20,"correct_side":1,"subjID":"lucianaduarte20","gender":"1","school":"4","age":"9"},{"start_time":1552313136524,"click_time":1552313137987,"finger_time":1552313137666,"fix_duration":1237.7298535063492,"trial":40,"RT":1142,"MT":321,"sideResp":2,"stimulus":[],"xmouse":[774,774,774,774,774,774,774,774,774,774,774,774,774,774,774,774,774,774,774,774,774,774,774,774,774,774,774,774,774,774,774,774,774,774,774,774,774,774,774,774,774,774,774,774,774,774,774,774,774,774,774,774,774,775,792,806,831,851,873,928,963,993,1024,1059,1115,1138,1153,1158,1158,1150,1146,1143,1139,1135],"ymouse":[539,539,539,539,539,540,540,540,540,540,540,540,540,540,540,540,540,540,540,540,540,540,540,540,540,540,540,540,540,540,540,540,540,540,540,540,540,540,540,540,540,540,540,540,540,540,540,540,540,540,540,540,540,540,534,528,513,498,484,442,413,380,339,289,211,187,168,152,143,129,123,115,101,87],"timestamp_mouse":[4,23,43,62,82,102,123,144,162,182,202,223,242,262,283,302,324,342,362,383,402,422,442,463,482,502,522,542,562,582,602,624,643,662,682,702,722,742,762,782,802,822,842,862,883,903,922,942,963,983,1002,1022,1043,1062,1082,1103,1122,1142,1163,1182,1202,1222,1242,1263,1282,1302,1323,1342,1362,1382,1402,1423,1442,1463],"xSR":741.5,"ySR":469.95,"xT1":424.9,"yT1":0,"xT2":1058.1,"yT2":0,"toosoon":0,"cond_shown":"Incongruent","ratio_trial":100,"L_num":12,"L_den":30,"R_num":2,"R_den":4,"correct_side":2,"subjID":"lucianaduarte20","gender":"1","school":"4","age":"9"},{"start_time":1552313140004,"click_time":1552313142046,"finger_time":1552313141526,"fix_duration":478.1359293057312,"trial":41,"RT":1522,"MT":520,"sideResp":2,"stimulus":[],"xmouse":[769,768,768,768,768,768,768,768,768,768,768,768,768,768,768,768,768,766,765,764,763,763,763,763,763,763,766,772,777,779,780,781,781,781,781,781,781,781,781,781,781,781,781,781,781,781,781,781,781,781,781,781,781,781,781,781,781,781,781,781,781,781,781,781,781,781,781,781,781,781,781,780,774,769,761,753,740,739,737,737,737,737,737,737,737,737,737,737,737,737,737,748,754,760,773,793,860,906,950,990,1047,1112,1128],"ymouse":[503,503,503,503,503,503,503,503,503,503,503,503,503,503,503,503,503,505,509,510,512,512,512,512,512,512,512,510,508,507,506,506,506,506,506,506,506,506,506,506,506,506,506,506,506,506,506,506,506,506,506,506,506,506,506,506,506,506,506,506,506,506,506,506,506,506,506,506,506,506,506,505,504,501,495,484,468,466,464,464,464,464,464,464,464,464,464,464,464,464,464,466,466,466,460,444,394,353,304,256,185,103,82],"timestamp_mouse":[3,23,42,63,83,103,123,143,163,182,203,223,243,263,283,302,322,342,362,382,403,423,443,462,482,502,522,542,563,582,602,622,642,663,682,703,722,742,762,782,802,822,842,862,883,902,922,943,963,982,1002,1022,1042,1062,1082,1102,1122,1142,1162,1182,1202,1223,1242,1262,1282,1302,1322,1344,1363,1382,1402,1422,1442,1463,1482,1502,1522,1542,1562,1582,1603,1622,1642,1663,1683,1703,1723,1743,1762,1783,1802,1823,1842,1862,1882,1902,1923,1942,1962,1982,2002,2022,2042],"xSR":741.5,"ySR":469.95,"xT1":424.9,"yT1":0,"xT2":1058.1,"yT2":0,"toosoon":0,"cond_shown":"Congruent","ratio_trial":100,"L_num":2,"L_den":5,"R_num":6,"R_den":12,"correct_side":2,"subjID":"lucianaduarte20","gender":"1","school":"4","age":"9"},{"start_time":1552313144467,"click_time":1552313146306,"finger_time":1552313145446,"fix_duration":1459.4631463065302,"trial":42,"RT":979,"MT":860,"sideResp":1,"stimulus":[],"xmouse":[822,822,822,822,822,822,822,822,822,822,822,822,822,822,822,822,822,822,822,822,822,822,822,822,822,822,822,822,822,822,822,822,822,822,822,822,820,813,778,763,755,755,755,755,754,754,754,754,745,736,733,733,732,732,732,732,732,732,733,735,736,736,736,736,737,737,737,738,739,740,738,725,709,675,663,638,614,597,586,586,586,586,585,572,554,550,540,534,522,514,507,504,499],"ymouse":[528,528,528,528,528,528,528,528,528,528,528,528,528,528,528,528,528,528,528,528,528,528,528,528,528,528,528,528,528,528,528,528,528,528,528,528,528,528,525,523,522,522,522,522,522,522,522,522,520,519,518,518,518,518,518,518,518,517,516,514,513,513,513,512,511,511,511,507,485,459,431,394,361,307,282,225,190,171,160,160,160,160,157,136,121,117,112,110,107,104,102,100,96],"timestamp_mouse":[1,23,40,60,79,99,119,140,160,180,199,220,239,260,280,300,320,339,360,379,400,419,439,459,479,499,519,540,559,580,599,620,640,659,680,699,719,739,759,779,801,820,840,860,879,899,920,939,959,979,999,1020,1041,1059,1080,1099,1120,1139,1159,1179,1199,1219,1239,1259,1280,1299,1320,1339,1360,1379,1399,1419,1439,1459,1479,1499,1520,1540,1559,1580,1599,1619,1639,1659,1679,1700,1719,1739,1759,1779,1801,1820,1839],"xSR":741.5,"ySR":469.95,"xT1":424.9,"yT1":0,"xT2":1058.1,"yT2":0,"toosoon":0,"cond_shown":"Incongruent","ratio_trial":100,"L_num":3,"L_den":5,"R_num":11,"R_den":22,"correct_side":1,"subjID":"lucianaduarte20","gender":"1","school":"4","age":"9"},{"start_time":1552313148483,"click_time":1552313149727,"finger_time":1552313149226,"fix_duration":1055.7595095319318,"trial":43,"RT":743,"MT":501,"sideResp":2,"stimulus":[],"xmouse":[742,742,742,742,742,742,742,742,742,742,742,744,745,748,749,750,751,751,751,751,751,751,751,751,751,751,751,751,751,751,752,753,757,758,760,765,772,799,820,844,876,907,957,990,1000,1006,1013,1022,1024,1024,1024,1024,1022,1022,1026,1030,1035,1046,1050,1054,1055,1057,1059],"ymouse":[501,501,501,501,501,501,501,501,501,501,501,503,505,509,509,510,510,510,510,510,510,510,510,510,510,510,510,510,510,510,510,509,502,494,490,485,478,461,450,434,410,379,305,235,202,183,166,136,126,119,110,103,84,77,69,64,60,55,53,53,52,51,51],"timestamp_mouse":[4,23,44,65,84,103,123,143,164,184,203,224,243,264,283,303,324,343,363,383,404,423,443,464,483,503,524,543,563,584,603,624,643,664,683,704,723,743,763,784,803,823,844,864,883,903,923,944,963,983,1003,1024,1044,1064,1083,1103,1123,1143,1163,1183,1204,1223,1244],"xSR":741.5,"ySR":469.95,"xT1":424.9,"yT1":0,"xT2":1058.1,"yT2":0,"toosoon":0,"cond_shown":"Incongruent","ratio_trial":300,"L_num":4,"L_den":20,"R_num":2,"R_den":4,"correct_side":2,"subjID":"lucianaduarte20","gender":"1","school":"4","age":"9"},{"start_time":1552313151565,"click_time":1552313153527,"finger_time":1552313152307,"fix_duration":555.9970875164347,"trial":44,"RT":742,"MT":1220,"sideResp":2,"stimulus":[],"xmouse":[780,780,780,780,780,780,780,780,780,780,780,780,780,780,780,780,780,780,780,780,780,780,780,780,780,780,780,780,780,780,780,780,780,776,770,764,758,749,733,725,718,709,701,689,667,658,646,631,623,618,618,617,616,613,602,592,580,570,554,549,549,549,549,549,549,549,549,549,549,546,546,545,545,545,546,564,585,622,642,660,661,669,691,732,833,872,906,958,958,958,958,958,958,958,958,958,958,958,1089],"ymouse":[506,506,506,506,506,506,506,506,506,506,506,506,506,506,506,506,506,506,506,506,506,506,506,506,506,506,506,506,506,506,506,506,506,504,499,489,474,442,396,376,363,350,339,329,311,301,287,265,252,242,240,238,235,230,212,197,177,163,142,134,134,134,134,134,134,134,134,134,132,125,123,122,122,122,122,129,137,152,164,171,171,165,147,118,72,50,32,5,5,5,5,5,5,5,5,5,5,5,5],"timestamp_mouse":[6,22,41,61,81,102,121,141,162,182,201,222,241,262,281,302,322,341,362,382,402,422,442,461,483,502,521,542,562,581,601,621,641,662,681,701,721,742,762,782,801,822,841,861,881,903,922,941,961,981,1001,1021,1041,1061,1081,1101,1121,1142,1161,1182,1201,1221,1242,1262,1281,1301,1321,1342,1361,1381,1401,1421,1442,1461,1481,1501,1521,1541,1561,1582,1601,1621,1641,1662,1681,1701,1721,1742,1761,1782,1801,1822,1841,1862,1882,1901,1922,1941,1962],"xSR":741.5,"ySR":469.95,"xT1":424.9,"yT1":0,"xT2":1058.1,"yT2":0,"toosoon":0,"cond_shown":"Incongruent","ratio_trial":100,"L_num":8,"L_den":20,"R_num":1,"R_den":2,"correct_side":2,"subjID":"lucianaduarte20","gender":"1","school":"4","age":"9"},{"start_time":1552313154957,"click_time":1552313156146,"finger_time":1552313155546,"fix_duration":250,"trial":45,"RT":589,"MT":600,"sideResp":2,"stimulus":[],"xmouse":[786,786,786,786,786,786,786,786,786,786,786,786,786,786,786,786,786,786,786,786,786,786,786,786,786,787,789,798,812,851,872,892,908,926,960,971,980,985,990,992,992,992,992,992,992,992,996,1002,1010,1030,1041,1052,1061,1068,1084,1097,1105,1114,1120,1125],"ymouse":[520,520,520,520,520,520,520,520,520,520,520,520,520,520,520,520,520,520,520,520,520,520,520,520,520,519,518,515,509,485,469,455,441,424,385,369,354,347,340,337,337,337,337,337,337,336,330,314,297,262,241,225,213,201,176,154,133,114,101,89],"timestamp_mouse":[9,29,49,69,90,109,130,150,170,190,210,230,249,270,290,309,330,350,369,389,409,430,450,470,490,510,529,549,569,589,609,629,649,670,689,709,729,750,769,789,809,829,850,869,889,909,929,950,969,989,1009,1030,1049,1070,1089,1110,1129,1150,1169,1189],"xSR":741.5,"ySR":469.95,"xT1":424.9,"yT1":0,"xT2":1058.1,"yT2":0,"toosoon":0,"cond_shown":"Incongruent","ratio_trial":200,"L_num":11,"L_den":20,"R_num":3,"R_den":4,"correct_side":2,"subjID":"lucianaduarte20","gender":"1","school":"4","age":"9"},{"start_time":1552313158464,"click_time":1552313162366,"finger_time":1552313159486,"fix_duration":1335.4460548654354,"trial":46,"RT":1022,"MT":2880,"sideResp":1,"stimulus":[],"xmouse":[808,808,808,808,808,808,808,808,808,808,808,808,807,807,806,806,805,804,801,794,775,773,773,773,772,772,772,772,772,772,772,768,766,765,765,765,765,765,765,765,765,765,765,765,765,765,765,765,765,769,809,841,871,890,905,906,907,907,907,907,907,907,907,907,907,907,907,907,907,907,917,922,925,926,927,927,927,927,927,927,927,927,925,925,920,888,846,791,748,702,702,701,689,679,673,673,677,686,696,708,724,729,730,732,733,738,742,749,751,752,752,752,754,756,760,767,770,772,773,776,776,776,777,778,779,787,791,794,796,796,796,796,796,796,796,796,796,796,796,796,796,796,796,796,796,796,796,796,796,796,796,796,796,796,796,796,796,796,796,796,796,796,796,796,796,796,796,789,786,769,746,739,733,728,717,706,685,673,638,610,576,568,562,559,558,555,553,551,547,541,528,520,513,507,503,498],"ymouse":[514,514,514,514,514,514,514,514,514,514,514,514,514,514,514,514,514,514,514,516,516,516,516,516,516,516,516,516,516,516,516,515,514,514,514,514,514,514,514,514,514,514,514,514,514,514,514,514,514,511,485,457,431,414,396,394,392,392,392,392,392,392,392,392,392,392,392,392,392,392,385,380,376,374,374,374,374,374,374,374,374,374,374,374,375,383,393,401,406,414,414,417,440,463,486,491,494,498,503,508,517,520,520,520,520,520,519,517,516,516,516,516,515,514,513,511,511,510,510,510,510,510,510,510,510,511,511,512,513,513,513,513,513,513,513,513,513,513,513,513,513,513,513,513,513,513,513,513,513,513,513,513,513,513,513,513,513,513,513,513,513,513,513,513,513,513,513,510,509,495,470,457,445,436,421,410,391,378,326,281,218,201,188,181,179,172,167,163,156,148,134,124,115,107,101,91],"timestamp_mouse":[3,24,42,63,83,102,122,143,162,183,203,222,242,262,283,303,322,343,362,383,402,422,443,462,482,503,522,542,562,583,603,622,643,662,682,702,723,743,763,782,802,822,842,862,883,902,922,942,963,982,1002,1022,1042,1062,1083,1102,1122,1143,1163,1183,1202,1222,1242,1263,1283,1303,1322,1342,1362,1382,1402,1422,1443,1462,1482,1503,1523,1543,1563,1583,1603,1623,1642,1663,1683,1702,1722,1742,1763,1782,1802,1822,1843,1862,1882,1902,1922,1942,1962,1983,2002,2022,2042,2062,2082,2102,2122,2142,2162,2183,2203,2222,2243,2262,2283,2302,2322,2342,2362,2383,2402,2422,2442,2462,2483,2502,2523,2542,2563,2582,2602,2622,2643,2662,2682,2702,2722,2742,2763,2782,2803,2822,2843,2863,2883,2903,2922,2942,2963,2982,3002,3022,3042,3062,3082,3102,3122,3142,3162,3183,3202,3222,3242,3263,3284,3303,3322,3342,3362,3382,3403,3422,3442,3462,3483,3502,3523,3543,3563,3582,3602,3622,3643,3662,3682,3702,3723,3742,3762,3782,3803,3822,3842,3862,3884,3902],"xSR":741.5,"ySR":469.95,"xT1":424.9,"yT1":0,"xT2":1058.1,"yT2":0,"toosoon":0,"cond_shown":"Incongruent","ratio_trial":200,"L_num":4,"L_den":30,"R_num":1,"R_den":3,"correct_side":2,"subjID":"lucianaduarte20","gender":"1","school":"4","age":"9"},{"start_time":1552313164239,"click_time":1552313165486,"finger_time":1552313165366,"fix_duration":791.3767357707128,"trial":47,"RT":1127,"MT":120,"sideResp":2,"stimulus":[],"xmouse":[839,839,839,839,839,835,823,812,796,787,785,785,785,785,785,785,785,785,786,786,787,789,791,794,796,797,799,799,799,799,798,798,798,798,798,798,798,798,798,798,797,797,797,797,795,794,794,794,794,794,794,794,794,804,811,829,855,928,993,1027,1057,1117,1129],"ymouse":[550,550,550,550,551,551,550,547,540,537,537,537,536,536,536,536,536,534,532,531,529,526,524,521,517,516,514,513,513,513,512,512,512,512,512,512,512,512,512,512,512,512,512,512,513,514,514,514,514,514,514,514,514,514,514,514,499,447,393,353,292,120,79],"timestamp_mouse":[7,27,47,67,87,107,127,147,167,188,208,228,247,268,287,307,327,347,367,387,408,428,447,468,487,508,527,548,568,587,607,627,648,667,688,708,729,747,768,788,808,827,847,868,887,907,928,947,967,988,1007,1028,1047,1067,1087,1107,1127,1147,1167,1188,1207,1227,1247],"xSR":741.5,"ySR":469.95,"xT1":424.9,"yT1":0,"xT2":1058.1,"yT2":0,"toosoon":0,"cond_shown":"Congruent","ratio_trial":100,"L_num":10,"L_den":25,"R_num":3,"R_den":10,"correct_side":1,"subjID":"lucianaduarte20","gender":"1","school":"4","age":"9"},{"start_time":1552313167715,"click_time":1552313169227,"finger_time":1552313168826,"fix_duration":1287.9017734600773,"trial":48,"RT":1111,"MT":401,"sideResp":1,"stimulus":[],"xmouse":[768,768,768,768,768,768,768,768,768,768,768,768,768,768,768,768,768,768,768,768,768,768,768,768,768,768,768,768,768,768,768,768,768,768,768,768,768,768,768,768,768,768,768,768,768,768,768,768,768,768,768,768,768,767,765,763,759,758,746,733,714,695,669,629,611,597,589,589,589,589,589,589,589,589,589,487],"ymouse":[519,519,519,519,519,519,519,519,519,519,519,519,519,519,519,519,519,519,519,519,519,519,519,519,519,519,519,519,519,519,519,519,519,519,519,519,519,519,519,519,519,519,519,519,519,519,519,519,519,519,519,519,519,490,477,466,453,437,365,301,238,183,125,56,30,12,3,3,3,3,3,3,3,3,3,10],"timestamp_mouse":[12,32,51,73,92,112,131,151,171,192,212,232,252,271,291,311,332,352,371,392,411,432,451,472,491,512,532,551,572,592,612,631,651,671,692,711,732,751,771,791,812,831,851,871,892,912,931,952,971,992,1012,1032,1052,1071,1091,1111,1131,1151,1171,1191,1212,1231,1252,1271,1291,1312,1331,1352,1372,1391,1411,1431,1452,1471,1491,1512],"xSR":741.5,"ySR":469.95,"xT1":424.9,"yT1":0,"xT2":1058.1,"yT2":0,"toosoon":0,"cond_shown":"Congruent","ratio_trial":100,"L_num":15,"L_den":25,"R_num":13,"R_den":26,"correct_side":1,"subjID":"lucianaduarte20","gender":"1","school":"4","age":"9"},{"start_time":1552313171704,"click_time":1552313173647,"finger_time":1552313172886,"fix_duration":976.1095007392927,"trial":49,"RT":1182,"MT":761,"sideResp":2,"stimulus":[],"xmouse":[760,760,760,760,760,760,760,760,760,760,760,760,760,760,760,760,760,760,760,760,760,760,760,760,760,760,760,760,760,760,760,760,760,760,760,760,760,760,760,760,760,761,761,761,761,761,761,761,761,762,762,762,762,762,762,763,763,763,763,763,763,762,759,758,758,758,758,758,758,758,758,758,758,762,777,783,784,787,789,805,824,870,917,960,1006,1015,1021,1027,1031,1043,1050,1053,1055,1056,1056,1056,1057,1059],"ymouse":[501,501,501,501,501,501,501,501,501,501,501,501,501,501,501,501,501,501,501,501,501,501,501,501,501,501,501,501,501,501,501,501,501,501,501,501,501,501,501,501,501,501,501,501,501,501,501,501,501,501,501,501,501,501,501,501,500,493,489,450,444,424,415,413,412,412,412,412,412,412,412,414,418,425,451,458,458,458,458,445,420,359,302,249,179,160,143,124,108,78,66,60,55,54,54,54,53,53],"timestamp_mouse":[4,22,42,63,83,103,123,142,162,182,202,223,243,262,283,302,322,343,362,382,402,423,442,462,482,502,522,543,563,582,603,622,642,662,682,702,722,742,762,782,802,823,842,862,882,902,922,943,962,982,1003,1022,1043,1062,1082,1102,1122,1142,1162,1182,1202,1222,1243,1263,1282,1302,1323,1342,1362,1382,1402,1422,1442,1462,1482,1503,1523,1543,1562,1582,1602,1622,1643,1663,1682,1702,1722,1742,1762,1782,1802,1822,1843,1862,1882,1903,1923,1942],"xSR":741.5,"ySR":469.95,"xT1":424.9,"yT1":0,"xT2":1058.1,"yT2":0,"toosoon":0,"cond_shown":"Incongruent","ratio_trial":100,"L_num":6,"L_den":10,"R_num":7,"R_den":14,"correct_side":1,"subjID":"lucianaduarte20","gender":"1","school":"4","age":"9"},{"start_time":1552313176278,"click_time":1552313178388,"finger_time":1552313177906,"fix_duration":250,"trial":50,"RT":1628,"MT":482,"sideResp":1,"stimulus":[],"xmouse":[793,794,795,795,795,795,795,795,795,795,795,795,795,795,795,795,795,795,795,795,795,795,795,795,795,795,795,795,795,795,795,795,795,795,796,796,797,797,797,797,796,795,795,795,795,794,794,794,794,794,794,794,794,794,794,794,794,794,794,794,794,794,794,794,794,794,794,794,794,794,794,795,796,796,796,797,797,798,801,803,803,804,804,796,788,776,736,708,681,660,635,626,624,621,618,613,602,598,596,590,585,570,556,542,527,519],"ymouse":[508,514,517,519,520,520,520,520,520,520,520,520,520,520,520,520,520,520,520,520,520,520,520,520,520,520,520,520,520,520,520,520,520,520,520,520,520,520,520,518,518,516,516,515,515,515,515,515,515,515,515,515,515,515,515,515,515,515,515,515,515,515,515,514,514,514,513,513,513,513,512,507,504,503,501,501,501,499,491,485,477,464,457,442,420,394,300,244,192,153,121,108,107,104,102,98,89,86,85,84,81,74,68,64,61,58],"timestamp_mouse":[8,29,48,69,89,108,128,149,169,189,209,228,249,268,289,309,329,349,368,389,409,428,449,469,489,509,529,549,568,589,609,629,649,669,689,710,729,748,768,788,808,829,848,869,889,908,928,949,969,988,1008,1029,1048,1068,1089,1108,1129,1149,1169,1189,1208,1228,1248,1269,1289,1308,1329,1348,1368,1389,1408,1428,1448,1469,1488,1508,1528,1548,1568,1588,1609,1628,1648,1668,1688,1709,1728,1749,1769,1789,1808,1829,1848,1868,1888,1909,1928,1948,1968,1988,2009,2029,2048,2068,2088,2109],"xSR":741.5,"ySR":469.95,"xT1":424.9,"yT1":0,"xT2":1058.1,"yT2":0,"toosoon":0,"cond_shown":"Congruent","ratio_trial":100,"L_num":1,"L_den":2,"R_num":18,"R_den":30,"correct_side":2,"subjID":"lucianaduarte20","gender":"1","school":"4","age":"9"},{"start_time":1552313179680,"click_time":1552313181306,"finger_time":1552313180686,"fix_duration":492.5514441798637,"trial":51,"RT":1006,"MT":620,"sideResp":2,"stimulus":[],"xmouse":[787,787,787,787,787,787,787,787,788,789,789,790,790,790,790,790,790,790,790,790,790,790,790,790,790,790,790,790,789,789,789,789,789,789,789,789,789,789,789,789,789,790,792,796,797,800,802,805,811,821,841,910,948,984,1027,1077,1164,1186,1197,1200,1202,1202,1202,1197,1190,1182,1173,1173,1173,1173,1173,1173,1173,1173,1173,1173,1173,1173,1173,1173,1173,1088],"ymouse":[497,497,497,497,497,497,497,497,497,497,496,495,495,495,495,495,495,495,495,495,495,495,495,495,495,495,495,495,495,495,495,495,495,495,495,495,495,495,495,495,495,495,495,493,492,490,488,487,482,477,467,431,406,378,334,266,133,91,61,49,42,33,30,23,13,5,1,1,1,1,1,1,1,1,1,1,1,1,1,1,1,22],"timestamp_mouse":[6,26,46,67,87,106,127,146,167,186,206,226,246,267,287,307,326,346,367,386,406,426,447,466,487,506,526,547,567,586,607,626,646,666,686,706,726,746,766,786,806,826,846,866,886,907,926,947,966,987,1006,1026,1046,1067,1086,1106,1126,1146,1166,1186,1206,1227,1246,1266,1286,1306,1326,1346,1366,1387,1406,1426,1446,1466,1487,1506,1526,1546,1567,1586,1606,1626],"xSR":741.5,"ySR":469.95,"xT1":424.9,"yT1":0,"xT2":1058.1,"yT2":0,"toosoon":0,"cond_shown":"Incongruent","ratio_trial":300,"L_num":4,"L_den":20,"R_num":2,"R_den":4,"correct_side":2,"subjID":"lucianaduarte20","gender":"1","school":"4","age":"9"},{"start_time":1552313182949,"click_time":1552313184107,"finger_time":1552313183786,"fix_duration":342.59272875293647,"trial":52,"RT":837,"MT":321,"sideResp":2,"stimulus":[],"xmouse":[806,806,806,806,806,806,806,806,806,806,807,807,808,808,808,808,808,808,808,808,808,808,808,808,808,808,808,808,808,808,808,808,808,808,808,808,808,808,808,808,811,823,842,852,859,873,889,936,959,982,1002,1024,1035,1042,1045,1049,1053,1066],"ymouse":[507,507,507,507,507,507,507,507,507,507,506,506,505,505,505,505,505,505,505,505,505,505,502,501,501,501,501,501,501,501,501,501,501,501,501,501,501,501,501,496,489,467,435,422,414,400,383,338,307,269,237,201,174,153,141,127,117,98],"timestamp_mouse":[19,37,57,77,98,117,137,157,177,198,218,