[{"start_time":1552313515455,"click_time":1552313516588,"finger_time":1552313515474,"fix_duration":1066.9329643600004,"trial":0,"RT":19,"MT":1114,"sideResp":2,"stimulus":"img/250/equaldotsize/R/13_Ratio_250_L_2_R_8.png","xmouse":[804,804,804,804,804,804,804,804,804,804,804,804,804,804,804,804,804,804,804,804,804,804,804,804,804,804,804,804,804,804,804,804,804,802,802,801,797,795,793,792,791,791,791,791,791,791,791,791,791,805,903,955,997,1039,1055,1063,1079],"ymouse":[530,530,530,530,530,530,530,530,530,530,530,530,530,530,530,530,530,530,530,530,530,530,530,530,530,530,530,530,530,530,530,530,530,530,532,534,543,550,556,560,562,562,562,562,562,562,562,563,563,555,470,408,341,243,173,116,68],"timestamp_mouse":[19,33,51,71,93,112,132,151,172,191,211,231,252,271,292,312,332,353,371,391,412,432,451,471,491,511,531,553,572,592,611,632,651,673,692,711,732,752,772,792,812,832,852,872,892,911,932,952,971,992,1012,1031,1052,1072,1092,1112,1133],"xSR":741.5,"ySR":501.8,"xT1":424.9,"yT1":0,"xT2":1058.1,"yT2":0,"toosoon":0,"cond_shown":"equaldotsize","ratio_trial":250,"smaller_num":"2","larger_num":"8","correct_side":2,"subjID":"lucianaduarte20","gender":"1","age":"9","school":"4","test":{"fix_dur":[250,1500],"timestim":300,"targets_dim":[100,100],"targets_relative_coord":[0.3,0.7],"size_stim":[880,420],"start_dim":[100,100],"size_start":[300,300],"size_fix":60,"samplingrate":20,"img_types":["equaldotsize","equaldotanddens","randomdotsizeEA"],"ratios":[250,500,750,900],"rep_conds":9,"nTrials":120,"trials_to_rest":500,"Trials_order":[96,16,105,27,55,100,110,74,91,51,80,88,60,73,83,113,15,84,116,59,115,65,30,50,40,2,10,117,112,23,22,71,81,57,37,20,9,76,49,24,98,35,32,85,92,87,82,28,36,47,77,8,12,29,5,118,18,93,108,31,104,53,38,14,103,19,89,44,6,1,78,13,58,102,41,4,0,26,43,64,79,95,21,67,56,94,69,34,63,107,61,101,54,66,39,52,111,46,99,109,17,7,48,68,114,3,45,90,75,70,11,62,119,42,86,97,33,25,72,106],"cond_shown":["equaldotsize","equaldotanddens","equaldotsize","equaldotsize","equaldotanddens","equaldotanddens","randomdotsizeEA","randomdotsizeEA","equaldotanddens","equaldotsize","randomdotsizeEA","equaldotanddens","equaldotsize","equaldotanddens","randomdotsizeEA","randomdotsizeEA","equaldotsize","equaldotsize","randomdotsizeEA","randomdotsizeEA","equaldotanddens","randomdotsizeEA","equaldotsize","randomdotsizeEA","equaldotanddens","randomdotsizeEA","equaldotanddens","equaldotsize","equaldotanddens","randomdotsizeEA","equaldotanddens","randomdotsizeEA","equaldotsize","equaldotsize","equaldotanddens","randomdotsizeEA","equaldotsize","equaldotanddens","equaldotanddens","equaldotsize","randomdotsizeEA","randomdotsizeEA","randomdotsizeEA","equaldotanddens","randomdotsizeEA","equaldotsize","equaldotanddens","equaldotanddens","equaldotsize","randomdotsizeEA","randomdotsizeEA","randomdotsizeEA","equaldotsize","randomdotsizeEA","randomdotsizeEA","equaldotanddens","equaldotsize","equaldotsize","equaldotsize","equaldotanddens","randomdotsizeEA","randomdotsizeEA","randomdotsizeEA","randomdotsizeEA","equaldotanddens","equaldotanddens","randomdotsizeEA","randomdotsizeEA","equaldotsize","equaldotanddens","equaldotsize","equaldotanddens","equaldotanddens","equaldotsize","randomdotsizeEA","equaldotanddens","equaldotsize","randomdotsizeEA","equaldotanddens","equaldotanddens","equaldotanddens","randomdotsizeEA","equaldotsize","equaldotanddens","randomdotsizeEA","equaldotanddens","equaldotsize","equaldotanddens","equaldotsize","randomdotsizeEA","equaldotanddens","randomdotsizeEA","equaldotsize","equaldotsize","equaldotsize","equaldotanddens","equaldotsize","equaldotanddens","equaldotsize","equaldotanddens","randomdotsizeEA","equaldotanddens","equaldotsize","randomdotsizeEA","equaldotsize","equaldotsize","equaldotsize","equaldotsize","equaldotsize","equaldotanddens","randomdotsizeEA","randomdotsizeEA","randomdotsizeEA","equaldotsize","randomdotsizeEA","equaldotanddens","equaldotsize","equaldotanddens","equaldotsize","equaldotanddens"],"ratio_trial":[250,500,900,500,750,500,250,250,750,500,750,500,250,250,900,500,500,250,750,900,750,500,750,250,500,250,900,900,500,900,900,900,900,900,250,750,900,500,250,250,250,900,750,250,750,500,900,500,250,900,500,750,250,500,500,900,750,900,250,750,750,500,250,250,750,750,500,750,750,250,750,250,900,750,500,500,250,250,750,500,750,900,900,750,750,900,900,900,500,900,250,500,750,750,500,500,500,900,500,250,500,750,250,750,750,500,900,750,500,900,900,250,900,750,250,250,900,250,250,900],"smaller_num":["2","9","18","5","15","2","6","3","15","9","18","9","1","2","18","2","5","3","15","9","3","3","3","3","9","4","9","9","9","18","18","9","18","9","3","12","18","5","6","6","2","18","15","3","3","1","9","2","3","9","4","15","2","1","5","18","3","18","3","15","3","1","2","2","3","18","6","9","3","3","6","3","9","6","2","9","2","2","6","2","18","9","18","15","3","9","18","9","6","18","2","6","3","3","2","2","9","9","3","2","2","15","3","3","3","3","18","9","5","9","9","3","9","3","3","3","18","2","4","9"],"larger_num":["8","18","20","10","20","4","24","12","20","18","24","18","4","8","20","4","10","12","20","10","4","6","4","12","18","16","10","10","18","20","20","10","20","10","12","16","20","10","24","24","8","20","20","12","4","2","10","4","12","10","8","20","8","2","10","20","4","20","12","20","4","2","8","8","4","24","12","12","4","12","8","12","10","8","4","18","8","8","8","4","24","10","20","20","4","10","20","10","12","20","8","12","4","4","4","4","18","10","6","8","4","20","12","4","4","6","20","12","10","10","10","12","10","4","12","12","20","8","16","10"],"correct_side":[2,2,2,2,2,1,1,1,2,2,1,1,2,1,1,1,1,2,2,1,2,2,1,2,2,1,2,2,2,1,1,2,2,2,2,2,1,1,1,1,1,1,2,2,2,2,2,1,1,2,1,2,1,2,1,1,1,1,2,1,2,2,1,1,1,1,1,2,2,2,2,2,2,1,1,2,2,1,1,1,1,2,1,1,1,2,2,2,1,1,2,1,2,2,1,1,2,2,2,2,1,2,2,2,2,2,2,2,2,2,1,2,2,1,2,2,1,1,2,2],"img_shown":["img/250/equaldotsize/R/13_Ratio_250_L_2_R_8.png","img/500/equaldotanddens/R/1_Ratio_500_L_9_R_18.png","img/900/equaldotsize/R/14_Ratio_900_L_18_R_20.png","img/500/equaldotsize/R/14_Ratio_500_L_5_R_10.png","img/750/equaldotanddens/R/5_Ratio_750_L_15_R_20.png","img/500/equaldotanddens/L/5_Ratio_500_L_4_R_2.png","img/250/randomdotsizeEA/L/5_Ratio_250_L_24_R_6.png","img/250/randomdotsizeEA/L/14_Ratio_250_L_12_R_3.png","img/750/equaldotanddens/R/5_Ratio_750_L_15_R_20.png","img/500/equaldotsize/R/1_Ratio_500_L_9_R_18.png","img/750/randomdotsizeEA/L/6_Ratio_750_L_24_R_18.png","img/500/equaldotanddens/L/4_Ratio_500_L_18_R_9.png","img/250/equaldotsize/R/8_Ratio_250_L_1_R_4.png","img/250/equaldotanddens/L/1_Ratio_250_L_8_R_2.png","img/900/randomdotsizeEA/L/8_Ratio_900_L_20_R_18.png","img/500/randomdotsizeEA/L/10_Ratio_500_L_4_R_2.png","img/500/equaldotsize/L/7_Ratio_500_L_10_R_5.png","img/250/equaldotsize/R/11_Ratio_250_L_3_R_12.png","img/750/randomdotsizeEA/R/4_Ratio_750_L_15_R_20.png","img/900/randomdotsizeEA/L/1_Ratio_900_L_10_R_9.png","img/750/equaldotanddens/R/12_Ratio_750_L_3_R_4.png","img/500/randomdotsizeEA/R/2_Ratio_500_L_3_R_6.png","img/750/equaldotsize/L/10_Ratio_750_L_4_R_3.png","img/250/randomdotsizeEA/R/9_Ratio_250_L_3_R_12.png","img/500/equaldotanddens/R/1_Ratio_500_L_9_R_18.png","img/250/randomdotsizeEA/L/2_Ratio_250_L_16_R_4.png","img/900/equaldotanddens/R/3_Ratio_900_L_9_R_10.png","img/900/equaldotsize/R/7_Ratio_900_L_9_R_10.png","img/500/equaldotanddens/R/6_Ratio_500_L_9_R_18.png","img/900/randomdotsizeEA/L/4_Ratio_900_L_20_R_18.png","img/900/equaldotanddens/L/8_Ratio_900_L_20_R_18.png","img/900/randomdotsizeEA/R/15_Ratio_900_L_9_R_10.png","img/900/equaldotsize/R/11_Ratio_900_L_18_R_20.png","img/900/equaldotsize/R/5_Ratio_900_L_9_R_10.png","img/250/equaldotanddens/R/9_Ratio_250_L_3_R_12.png","img/750/randomdotsizeEA/R/11_Ratio_750_L_12_R_16.png","img/900/equaldotsize/L/8_Ratio_900_L_20_R_18.png","img/500/equaldotanddens/L/7_Ratio_500_L_10_R_5.png","img/250/equaldotanddens/L/5_Ratio_250_L_24_R_6.png","img/250/equaldotsize/L/5_Ratio_250_L_24_R_6.png","img/250/randomdotsizeEA/L/3_Ratio_250_L_8_R_2.png","img/900/randomdotsizeEA/L/10_Ratio_900_L_20_R_18.png","img/750/randomdotsizeEA/R/3_Ratio_750_L_15_R_20.png","img/250/equaldotanddens/R/9_Ratio_250_L_3_R_12.png","img/750/randomdotsizeEA/R/7_Ratio_750_L_3_R_4.png","img/500/equaldotsize/R/12_Ratio_500_L_1_R_2.png","img/900/equaldotanddens/R/7_Ratio_900_L_9_R_10.png","img/500/equaldotanddens/L/10_Ratio_500_L_4_R_2.png","img/250/equaldotsize/L/14_Ratio_250_L_12_R_3.png","img/900/randomdotsizeEA/R/6_Ratio_900_L_9_R_10.png","img/500/randomdotsizeEA/L/8_Ratio_500_L_8_R_4.png","img/750/randomdotsizeEA/R/4_Ratio_750_L_15_R_20.png","img/250/equaldotsize/L/7_Ratio_250_L_8_R_2.png","img/500/randomdotsizeEA/R/15_Ratio_500_L_1_R_2.png","img/500/randomdotsizeEA/L/7_Ratio_500_L_10_R_5.png","img/900/equaldotanddens/L/10_Ratio_900_L_20_R_18.png","img/750/equaldotsize/L/9_Ratio_750_L_4_R_3.png","img/900/equaldotsize/L/8_Ratio_900_L_20_R_18.png","img/250/equaldotsize/R/9_Ratio_250_L_3_R_12.png","img/750/equaldotanddens/L/1_Ratio_750_L_20_R_15.png","img/750/randomdotsizeEA/R/12_Ratio_750_L_3_R_4.png","img/500/randomdotsizeEA/R/15_Ratio_500_L_1_R_2.png","img/250/randomdotsizeEA/L/1_Ratio_250_L_8_R_2.png","img/250/randomdotsizeEA/L/7_Ratio_250_L_8_R_2.png","img/750/equaldotanddens/L/8_Ratio_750_L_4_R_3.png","img/750/equaldotanddens/L/6_Ratio_750_L_24_R_18.png","img/500/randomdotsizeEA/L/11_Ratio_500_L_12_R_6.png","img/750/randomdotsizeEA/R/15_Ratio_750_L_9_R_12.png","img/750/equaldotsize/R/12_Ratio_750_L_3_R_4.png","img/250/equaldotanddens/R/11_Ratio_250_L_3_R_12.png","img/750/equaldotsize/R/2_Ratio_750_L_6_R_8.png","img/250/equaldotanddens/R/11_Ratio_250_L_3_R_12.png","img/900/equaldotanddens/R/6_Ratio_900_L_9_R_10.png","img/750/equaldotsize/L/14_Ratio_750_L_8_R_6.png","img/500/randomdotsizeEA/L/5_Ratio_500_L_4_R_2.png","img/500/equaldotanddens/R/1_Ratio_500_L_9_R_18.png","img/250/equaldotsize/R/13_Ratio_250_L_2_R_8.png","img/250/randomdotsizeEA/L/1_Ratio_250_L_8_R_2.png","img/750/equaldotanddens/L/14_Ratio_750_L_8_R_6.png","img/500/equaldotanddens/L/10_Ratio_500_L_4_R_2.png","img/750/equaldotanddens/L/6_Ratio_750_L_24_R_18.png","img/900/randomdotsizeEA/R/7_Ratio_900_L_9_R_10.png","img/900/equaldotsize/L/8_Ratio_900_L_20_R_18.png","img/750/equaldotanddens/L/1_Ratio_750_L_20_R_15.png","img/750/randomdotsizeEA/L/10_Ratio_750_L_4_R_3.png","img/900/equaldotanddens/R/6_Ratio_900_L_9_R_10.png","img/900/equaldotsize/R/9_Ratio_900_L_18_R_20.png","img/900/equaldotanddens/R/7_Ratio_900_L_9_R_10.png","img/500/equaldotsize/L/13_Ratio_500_L_12_R_6.png","img/900/randomdotsizeEA/L/4_Ratio_900_L_20_R_18.png","img/250/equaldotanddens/R/13_Ratio_250_L_2_R_8.png","img/500/randomdotsizeEA/L/13_Ratio_500_L_12_R_6.png","img/750/equaldotsize/R/7_Ratio_750_L_3_R_4.png","img/750/equaldotsize/R/12_Ratio_750_L_3_R_4.png","img/500/equaldotsize/L/10_Ratio_500_L_4_R_2.png","img/500/equaldotanddens/L/5_Ratio_500_L_4_R_2.png","img/500/equaldotsize/R/1_Ratio_500_L_9_R_18.png","img/900/equaldotanddens/R/5_Ratio_900_L_9_R_10.png","img/500/equaldotsize/R/2_Ratio_500_L_3_R_6.png","img/250/equaldotanddens/R/13_Ratio_250_L_2_R_8.png","img/500/randomdotsizeEA/L/10_Ratio_500_L_4_R_2.png","img/750/equaldotanddens/R/3_Ratio_750_L_15_R_20.png","img/250/equaldotsize/R/9_Ratio_250_L_3_R_12.png","img/750/randomdotsizeEA/R/12_Ratio_750_L_3_R_4.png","img/750/equaldotsize/R/7_Ratio_750_L_3_R_4.png","img/500/equaldotsize/R/2_Ratio_500_L_3_R_6.png","img/900/equaldotsize/R/14_Ratio_900_L_18_R_20.png","img/750/equaldotsize/R/15_Ratio_750_L_9_R_12.png","img/500/equaldotsize/R/14_Ratio_500_L_5_R_10.png","img/900/equaldotanddens/R/5_Ratio_900_L_9_R_10.png","img/900/randomdotsizeEA/L/1_Ratio_900_L_10_R_9.png","img/250/randomdotsizeEA/R/9_Ratio_250_L_3_R_12.png","img/900/randomdotsizeEA/R/15_Ratio_900_L_9_R_10.png","img/750/equaldotsize/L/9_Ratio_750_L_4_R_3.png","img/250/randomdotsizeEA/R/9_Ratio_250_L_3_R_12.png","img/250/equaldotanddens/R/4_Ratio_250_L_3_R_12.png","img/900/equaldotsize/L/2_Ratio_900_L_20_R_18.png","img/250/equaldotanddens/L/3_Ratio_250_L_8_R_2.png","img/250/equaldotsize/R/10_Ratio_250_L_4_R_16.png","img/900/equaldotanddens/R/6_Ratio_900_L_9_R_10.png"],"Rat0":[["12_Ratio_0_L_9_R_0.png","13_Ratio_0_L_6_R_0.png","5_Ratio_0_L_2_R_0.png","6_Ratio_0_L_4_R_0.png","8_Ratio_0_L_6_R_0.png"],["1_Ratio_0_L_0_R_17.png","10_Ratio_0_L_0_R_22.png","11_Ratio_0_L_0_R_1.png","14_Ratio_0_L_0_R_24.png","15_Ratio_0_L_0_R_4.png","2_Ratio_0_L_0_R_5.png","3_Ratio_0_L_0_R_17.png","4_Ratio_0_L_0_R_7.png","7_Ratio_0_L_0_R_19.png","9_Ratio_0_L_0_R_15.png"]],"Rat250":[["1_Ratio_250_L_8_R_2.png","14_Ratio_250_L_12_R_3.png","15_Ratio_250_L_12_R_3.png","2_Ratio_250_L_16_R_4.png","3_Ratio_250_L_8_R_2.png","5_Ratio_250_L_24_R_6.png","7_Ratio_250_L_8_R_2.png"],["10_Ratio_250_L_4_R_16.png","11_Ratio_250_L_3_R_12.png","12_Ratio_250_L_5_R_20.png","13_Ratio_250_L_2_R_8.png","4_Ratio_250_L_3_R_12.png","6_Ratio_250_L_6_R_24.png","8_Ratio_250_L_1_R_4.png","9_Ratio_250_L_3_R_12.png"]],"Rat500":[["10_Ratio_500_L_4_R_2.png","11_Ratio_500_L_12_R_6.png","13_Ratio_500_L_12_R_6.png","4_Ratio_500_L_18_R_9.png","5_Ratio_500_L_4_R_2.png","7_Ratio_500_L_10_R_5.png","8_Ratio_500_L_8_R_4.png"],["1_Ratio_500_L_9_R_18.png","12_Ratio_500_L_1_R_2.png","14_Ratio_500_L_5_R_10.png","15_Ratio_500_L_1_R_2.png","2_Ratio_500_L_3_R_6.png","3_Ratio_500_L_10_R_20.png","6_Ratio_500_L_9_R_18.png","9_Ratio_500_L_2_R_4.png"]],"Rat750":[["1_Ratio_750_L_20_R_15.png","10_Ratio_750_L_4_R_3.png","13_Ratio_750_L_8_R_6.png","14_Ratio_750_L_8_R_6.png","6_Ratio_750_L_24_R_18.png","8_Ratio_750_L_4_R_3.png","9_Ratio_750_L_4_R_3.png"],["11_Ratio_750_L_12_R_16.png","12_Ratio_750_L_3_R_4.png","15_Ratio_750_L_9_R_12.png","2_Ratio_750_L_6_R_8.png","3_Ratio_750_L_15_R_20.png","4_Ratio_750_L_15_R_20.png","5_Ratio_750_L_15_R_20.png","7_Ratio_750_L_3_R_4.png"]],"Rat900":[["1_Ratio_900_L_10_R_9.png","10_Ratio_900_L_20_R_18.png","2_Ratio_900_L_20_R_18.png","4_Ratio_900_L_20_R_18.png","8_Ratio_900_L_20_R_18.png"],["11_Ratio_900_L_18_R_20.png","12_Ratio_900_L_18_R_20.png","13_Ratio_900_L_18_R_20.png","14_Ratio_900_L_18_R_20.png","15_Ratio_900_L_9_R_10.png","3_Ratio_900_L_9_R_10.png","5_Ratio_900_L_9_R_10.png","6_Ratio_900_L_9_R_10.png","7_Ratio_900_L_9_R_10.png","9_Ratio_900_L_18_R_20.png"]],"Rat1000":[["10_Ratio_1000_L_16_R_16.png","11_Ratio_1000_L_6_R_6.png","12_Ratio_1000_L_14_R_14.png","13_Ratio_1000_L_20_R_20.png","15_Ratio_1000_L_15_R_15.png","2_Ratio_1000_L_17_R_17.png","4_Ratio_1000_L_9_R_9.png","5_Ratio_1000_L_6_R_6.png","6_Ratio_1000_L_19_R_19.png","8_Ratio_1000_L_14_R_14.png","9_Ratio_1000_L_25_R_25.png"],["1_Ratio_1000_L_1_R_1.png","14_Ratio_1000_L_17_R_17.png","3_Ratio_1000_L_17_R_17.png","7_Ratio_1000_L_6_R_6.png"]]}},{"start_time":1552313519571,"click_time":1552313520587,"finger_time":1552313520266,"fix_duration":523.5970837769626,"trial":1,"RT":695,"MT":321,"sideResp":2,"stimulus":"img/500/equaldotanddens/R/1_Ratio_500_L_9_R_18.png","xmouse":[782,782,782,782,782,782,782,782,782,782,782,782,782,782,782,782,782,782,782,782,782,782,784,786,788,788,788,788,788,788,788,792,803,825,866,938,980,999,1009,1016,1030,1035,1042,1047,1050,1051,1051,1051,1051,1053,1060],"ymouse":[617,617,617,617,617,617,617,617,617,617,617,617,617,617,617,617,617,617,617,617,617,618,618,616,614,614,614,614,614,614,614,611,601,581,543,457,341,253,182,133,80,65,52,44,40,39,39,39,39,38,35],"timestamp_mouse":[18,37,55,76,97,116,135,156,177,196,217,237,255,276,297,315,336,357,375,396,417,437,456,475,496,517,537,555,576,595,616,636,656,675,695,715,736,757,775,795,816,836,855,875,896,916,937,957,975,997,1016],"xSR":741.5,"ySR":573.95,"xT1":424.9,"yT1":0,"xT2":1058.1,"yT2":0,"toosoon":0,"cond_shown":"equaldotanddens","ratio_trial":500,"smaller_num":"9","larger_num":"18","correct_side":2,"subjID":"lucianaduarte20","gender":"1","age":"9","school":"4"},{"start_time":1552313522254,"click_time":1552313523407,"finger_time":1552313523168,"fix_duration":706.8008452313593,"trial":2,"RT":914,"MT":239,"sideResp":2,"stimulus":"img/900/equaldotsize/R/14_Ratio_900_L_18_R_20.png","xmouse":[791,791,791,791,791,791,791,791,791,791,791,791,791,791,791,791,791,791,791,791,791,791,791,791,791,791,791,791,791,791,791,791,791,791,791,791,791,791,791,791,791,795,804,816,826,832,839,847,862,892,945,957,971,971,977,984,1034,1063],"ymouse":[621,621,621,621,621,621,621,621,621,621,621,621,621,621,621,621,621,621,621,621,621,621,621,621,621,621,621,621,621,621,621,621,621,621,621,621,621,621,621,621,621,614,600,586,575,566,555,541,516,467,362,332,239,217,196,176,115,91],"timestamp_mouse":[13,34,52,72,94,114,132,153,173,192,213,234,252,273,294,312,332,353,373,392,413,432,452,474,493,512,534,554,573,592,612,633,653,672,693,712,734,754,773,792,813,832,854,872,893,914,933,954,974,992,1012,1032,1052,1073,1093,1113,1132,1152],"xSR":741.5,"ySR":573.95,"xT1":424.9,"yT1":0,"xT2":1058.1,"yT2":0,"toosoon":0,"cond_shown":"equaldotsize","ratio_trial":900,"smaller_num":"18","larger_num":"20","correct_side":2,"subjID":"lucianaduarte20","gender":"1","age":"9","school":"4"},{"start_time":1552313524741,"click_time":1552313525707,"finger_time":1552313525306,"fix_duration":273.16815735538614,"trial":3,"RT":565,"MT":401,"sideResp":2,"stimulus":"img/500/equaldotsize/R/14_Ratio_500_L_5_R_10.png","xmouse":[800,800,800,800,800,800,800,800,800,800,800,800,800,800,800,800,800,800,800,800,800,800,800,800,800,805,809,825,844,846,847,849,849,849,849,851,859,874,906,935,978,1025,1104,1126,1143,1149,1154,1155,1155],"ymouse":[603,603,603,603,603,603,603,603,603,603,603,603,603,603,603,603,603,603,603,603,603,603,603,603,603,603,601,594,581,579,578,577,577,577,577,575,568,558,526,496,450,387,243,195,157,135,111,105,96],"timestamp_mouse":[7,26,47,65,85,107,126,145,165,186,206,225,245,266,285,306,326,345,365,387,405,426,447,465,485,505,526,546,565,587,605,626,646,666,686,706,725,746,766,785,806,826,846,865,885,906,926,945,966],"xSR":741.5,"ySR":573.95,"xT1":424.9,"yT1":0,"xT2":1058.1,"yT2":0,"toosoon":0,"cond_shown":"equaldotsize","ratio_trial":500,"smaller_num":"5","larger_num":"10","correct_side":2,"subjID":"lucianaduarte20","gender":"1","age":"9","school":"4"},{"start_time":1552313528204,"click_time":1552313529326,"finger_time":1552313529028,"fix_duration":1476.730882811523,"trial":4,"RT":824,"MT":298,"sideResp":2,"stimulus":"img/750/equaldotanddens/R/5_Ratio_750_L_15_R_20.png","xmouse":[808,808,808,808,808,808,808,808,808,808,808,808,808,808,808,808,808,808,808,808,808,808,808,808,808,808,808,808,808,808,808,808,808,808,808,808,808,808,813,817,829,832,834,836,836,842,850,860,870,881,910,935,962,985,1006,1067,1086],"ymouse":[616,616,616,616,616,616,616,616,616,616,616,616,616,616,616,616,616,616,616,616,616,616,616,616,616,616,616,616,616,616,616,616,616,616,616,616,616,616,613,608,586,570,563,558,556,548,539,526,507,483,416,353,296,242,196,108,88],"timestamp_mouse":[3,25,44,63,83,104,122,142,164,184,203,222,242,262,284,303,324,342,362,384,404,424,442,464,484,502,524,544,562,583,602,623,644,664,684,703,723,743,763,784,804,824,842,863,882,903,923,944,963,983,1003,1023,1043,1063,1082,1103,1122],"xSR":741.5,"ySR":573.95,"xT1":424.9,"yT1":0,"xT2":1058.1,"yT2":0,"toosoon":0,"cond_shown":"equaldotanddens","ratio_trial":750,"smaller_num":"15","larger_num":"20","correct_side":2,"subjID":"lucianaduarte20","gender":"1","age":"9","school":"4"},{"start_time":1552313530400,"click_time":1552313531608,"finger_time":1552313531227,"fix_duration":250,"trial":5,"RT":827,"MT":381,"sideResp":1,"stimulus":"img/500/equaldotanddens/L/5_Ratio_500_L_4_R_2.png","xmouse":[772,772,772,772,772,772,772,772,772,772,772,772,773,773,774,775,775,775,775,776,776,776,776,777,777,777,777,777,777,777,777,778,778,779,780,780,780,780,780,778,772,747,730,699,668,603,580,568,563,559,542,525,513,507,505,508,511,514,515,515,515],"ymouse":[653,653,653,653,653,653,653,653,653,653,653,653,654,654,654,653,652,652,652,652,650,649,649,649,649,649,649,649,649,649,646,642,640,639,638,638,638,638,632,627,614,558,521,453,376,232,202,189,183,180,177,173,169,166,163,147,140,132,125,118,98],"timestamp_mouse":[10,27,47,68,86,108,127,147,168,188,206,226,247,268,287,306,326,347,368,386,406,427,448,468,486,506,528,547,568,587,606,626,646,668,686,708,728,748,766,787,807,827,848,868,886,906,926,946,968,988,1006,1027,1047,1068,1088,1108,1126,1146,1166,1187,1208],"xSR":741.5,"ySR":573.95,"xT1":424.9,"yT1":0,"xT2":1058.1,"yT2":0,"toosoon":0,"cond_shown":"equaldotanddens","ratio_trial":500,"smaller_num":"2","larger_num":"4","correct_side":1,"subjID":"lucianaduarte20","gender":"1","age":"9","school":"4"},{"start_time":1552313533040,"click_time":1552313534708,"finger_time":1552313534126,"fix_duration":433.69293107628016,"trial":6,"RT":1086,"MT":582,"sideResp":1,"stimulus":"img/250/randomdotsizeEA/L/5_Ratio_250_L_24_R_6.png","xmouse":[794,794,794,794,794,794,794,794,794,794,794,794,794,794,794,794,794,794,794,794,794,794,794,794,794,794,794,794,794,794,794,794,794,794,794,794,794,794,794,794,794,794,794,794,794,794,794,794,794,794,794,795,796,796,796,796,796,794,781,774,766,758,747,719,700,675,644,597,460,445,437,429,420,411,390,388,386,389,399,403,406,412,419,428],"ymouse":[586,586,586,586,586,586,586,586,586,586,586,586,586,586,586,586,586,586,586,586,586,586,586,586,586,586,586,586,586,586,586,586,586,586,586,586,586,586,586,586,586,586,586,586,586,586,586,586,586,586,584,582,580,578,571,566,560,549,515,482,435,375,319,240,206,168,133,85,0,0,0,0,0,0,0,0,2,15,37,47,53,60,68,74],"timestamp_mouse":[8,27,48,68,87,108,127,146,168,187,208,228,247,267,287,308,328,346,366,387,408,428,447,467,487,506,528,546,566,587,608,628,647,668,686,707,727,747,767,787,808,827,847,867,887,906,926,947,968,987,1008,1027,1046,1067,1086,1108,1127,1147,1166,1187,1206,1227,1248,1266,1287,1306,1326,1347,1366,1386,1407,1427,1446,1466,1487,1508,1526,1548,1567,1586,1607,1628,1648,1668],"xSR":741.5,"ySR":573.95,"xT1":424.9,"yT1":0,"xT2":1058.1,"yT2":0,"toosoon":0,"cond_shown":"randomdotsizeEA","ratio_trial":250,"smaller_num":"6","larger_num":"24","correct_side":1,"subjID":"lucianaduarte20","gender":"1","age":"9","school":"4"},{"start_time":1552313536542,"click_time":1552313537767,"finger_time":1552313537427,"fix_duration":713.8211445327094,"trial":7,"RT":885,"MT":340,"sideResp":1,"stimulus":"img/250/randomdotsizeEA/L/14_Ratio_250_L_12_R_3.png","xmouse":[784,784,784,784,784,784,784,784,784,784,784,784,784,784,784,784,784,784,784,784,784,784,784,784,784,784,784,784,784,784,784,784,784,785,787,787,787,787,787,787,787,787,789,791,793,793,787,756,715,637,605,573,561,548,536,534,533,532,531,528,525,523],"ymouse":[615,615,615,615,615,613,613,613,613,613,613,613,613,613,613,613,613,613,613,613,613,613,613,613,613,613,613,613,613,613,613,613,613,609,607,607,607,607,607,607,606,601,593,576,515,431,348,272,210,127,105,87,80,75,67,64,61,57,54,50,49,49],"timestamp_mouse":[5,26,44,65,86,105,126,145,164,186,204,225,245,265,284,304,325,346,366,385,406,426,445,466,485,505,525,545,566,585,604,626,644,666,685,705,725,745,764,786,806,826,845,864,885,904,925,945,966,986,1004,1025,1045,1065,1084,1105,1124,1144,1165,1184,1205,1225],"xSR":741.5,"ySR":573.95,"xT1":424.9,"yT1":0,"xT2":1058.1,"yT2":0,"toosoon":0,"cond_shown":"randomdotsizeEA","ratio_trial":250,"smaller_num":"3","larger_num":"12","correct_side":1,"subjID":"lucianaduarte20","gender":"1","age":"9","school":"4"},{"start_time":1552313539797,"click_time":1552313541307,"finger_time":1552313540587,"fix_duration":1029.5528073696375,"trial":8,"RT":790,"MT":720,"sideResp":2,"stimulus":"img/750/equaldotanddens/R/5_Ratio_750_L_15_R_20.png","xmouse":[814,814,814,814,814,814,814,814,814,814,814,814,814,814,814,814,814,814,814,814,814,814,814,814,814,814,814,814,814,814,814,814,814,814,814,814,813,810,807,803,797,784,751,743,739,739,739,739,739,739,739,739,739,740,746,757,793,804,813,823,829,839,844,849,853,858,916,957,998,1029,1050,1064,1079,1084,1086,1088],"ymouse":[616,616,616,616,616,616,616,616,616,616,616,616,616,616,616,616,616,616,616,616,616,616,616,616,616,616,616,616,616,616,616,616,616,614,613,609,598,589,580,564,543,514,439,418,408,405,404,404,404,404,404,404,404,403,400,396,386,383,378,372,367,351,337,323,310,297,263,250,233,217,201,181,134,116,103,91],"timestamp_mouse":[10,29,50,70,90,110,130,150,170,189,209,229,249,269,290,310,330,351,369,391,411,429,451,471,489,510,531,550,570,590,610,631,649,671,691,710,729,751,769,790,811,829,850,870,889,909,931,951,969,990,1010,1031,1050,1069,1089,1110,1129,1150,1169,1189,1209,1231,1250,1270,1289,1310,1329,1349,1371,1390,1409,1429,1449,1471,1491,1510],"xSR":741.5,"ySR":573.95,"xT1":424.9,"yT1":0,"xT2":1058.1,"yT2":0,"toosoon":0,"cond_shown":"equaldotanddens","ratio_trial":750,"smaller_num":"15","larger_num":"20","correct_side":2,"subjID":"lucianaduarte20","gender":"1","age":"9","school":"4"},{"start_time":1552313543192,"click_time":1552313544246,"finger_time":1552313543847,"fix_duration":964.5009844024976,"trial":9,"RT":655,"MT":399,"sideResp":2,"stimulus":"img/500/equaldotsize/R/1_Ratio_500_L_9_R_18.png","xmouse":[806,806,806,806,806,806,806,806,806,806,806,806,806,806,806,806,806,806,806,806,806,806,806,806,806,806,806,807,807,808,813,825,878,904,935,946,966,976,983,991,999,1008,1038,1056,1070,1084,1093,1095,1096,1096,1096,1098,1105],"ymouse":[637,637,637,637,637,637,637,637,637,637,637,637,637,637,637,637,637,637,637,637,637,637,637,637,637,637,637,637,637,637,630,611,525,470,401,375,340,321,306,289,269,249,212,201,192,180,164,152,141,131,118,108,90],"timestamp_mouse":[14,35,55,76,96,114,134,155,176,194,214,234,255,275,294,314,336,356,374,396,416,435,454,474,496,515,534,555,575,595,616,635,655,674,694,714,735,755,775,796,816,836,855,876,894,916,935,955,976,994,1014,1035,1054],"xSR":741.5,"ySR":573.95,"xT1":424.9,"yT1":0,"xT2":1058.1,"yT2":0,"toosoon":0,"cond_shown":"equaldotsize","ratio_trial":500,"smaller_num":"9","larger_num":"18","correct_side":2,"subjID":"lucianaduarte20","gender":"1","age":"9","school":"4"},{"start_time":1552313546608,"click_time":1552313547566,"finger_time":1552313547266,"fix_duration":1479.459816112398,"trial":10,"RT":658,"MT":300,"sideResp":1,"stimulus":"img/750/randomdotsizeEA/L/6_Ratio_750_L_24_R_18.png","xmouse":[802,802,802,802,802,802,802,802,802,802,802,802,802,802,802,802,803,803,803,804,804,804,804,804,804,804,804,804,804,804,804,801,783,770,753,731,690,678,667,653,637,569,539,522,514,511,509,506],"ymouse":[619,619,619,619,619,619,619,619,619,619,619,619,619,619,619,619,617,614,613,611,611,611,611,611,611,611,611,611,611,610,609,605,572,548,513,473,410,385,361,333,307,219,184,163,148,138,111,96],"timestamp_mouse":[20,40,58,80,98,119,139,160,178,200,218,239,259,278,300,319,338,359,379,398,419,438,459,480,499,520,539,558,578,599,619,638,658,678,699,719,740,759,779,799,819,838,859,878,898,918,939,958],"xSR":741.5,"ySR":573.95,"xT1":424.9,"yT1":0,"xT2":1058.1,"yT2":0,"toosoon":0,"cond_shown":"randomdotsizeEA","ratio_trial":750,"smaller_num":"18","larger_num":"24","correct_side":1,"subjID":"lucianaduarte20","gender":"1","age":"9","school":"4"},{"start_time":1552313550086,"click_time":1552313551046,"finger_time":1552313550627,"fix_duration":1438.8230462195618,"trial":11,"RT":541,"MT":419,"sideResp":1,"stimulus":"img/500/equaldotanddens/L/4_Ratio_500_L_18_R_9.png","xmouse":[779,779,779,779,779,779,779,779,779,780,783,786,790,793,797,800,804,810,821,825,825,825,825,825,825,825,824,822,813,808,795,777,753,697,668,655,645,638,620,612,604,601,597,594,583,572,560,544,494],"ymouse":[605,605,605,605,605,605,605,605,605,605,603,602,600,600,598,596,595,593,590,588,588,588,588,588,584,578,575,570,549,527,482,425,361,231,186,161,144,131,110,103,99,98,96,96,89,83,75,65,41],"timestamp_mouse":[4,21,42,62,80,102,121,140,161,181,200,222,242,261,280,300,322,342,360,381,400,422,441,460,480,501,521,541,560,580,601,621,641,660,680,700,720,741,760,781,800,820,842,861,881,901,922,942,960],"xSR":741.5,"ySR":573.95,"xT1":424.9,"yT1":0,"xT2":1058.1,"yT2":0,"toosoon":0,"cond_shown":"equaldotanddens","ratio_trial":500,"smaller_num":"9","larger_num":"18","correct_side":1,"subjID":"lucianaduarte20","gender":"1","age":"9","school":"4"},{"start_time":1552313553408,"click_time":1552313554906,"finger_time":1552313554187,"fix_duration":1439.1311978174692,"trial":12,"RT":779,"MT":719,"sideResp":2,"stimulus":"img/250/equaldotsize/R/8_Ratio_250_L_1_R_4.png","xmouse":[801,801,801,801,801,801,801,801,801,801,801,801,801,801,801,801,801,801,801,800,800,801,801,801,801,801,801,802,803,803,803,803,803,803,803,803,805,808,835,849,861,863,865,866,868,870,872,877,899,928,986,1020,1041,1073,1085,1097,1114,1135,1160,1165,1167,1168,1169,1169,1169,1169,1169,1169,1165,1165,1165,1164,1164,1160,1160,1158],"ymouse":[597,597,597,597,597,597,597,597,597,597,597,597,597,597,597,597,597,597,597,595,594,594,593,593,593,593,593,592,591,591,591,591,591,591,591,591,589,587,575,568,560,558,554,551,545,536,523,506,464,443,409,390,374,325,296,266,231,196,152,137,124,120,115,110,99,88,74,62,44,43,43,43,43,43,43,43],"timestamp_mouse":[0,19,44,59,78,98,119,139,160,179,199,218,238,258,278,298,319,339,359,378,398,419,439,460,479,499,518,539,559,579,600,619,639,658,678,698,719,739,758,779,798,819,839,859,878,898,920,939,959,979,998,1019,1039,1060,1079,1098,1118,1138,1158,1179,1198,1220,1239,1258,1280,1298,1319,1339,1359,1379,1399,1419,1438,1459,1479,1498],"xSR":741.5,"ySR":573.95,"xT1":424.9,"yT1":0,"xT2":1058.1,"yT2":0,"toosoon":0,"cond_shown":"equaldotsize","ratio_trial":250,"smaller_num":"1","larger_num":"4","correct_side":2,"subjID":"lucianaduarte20","gender":"1","age":"9","school":"4"},{"start_time":1552313558874,"click_time":1552313559766,"finger_time":1552313559427,"fix_duration":1385.988560880932,"trial":13,"RT":553,"MT":339,"sideResp":1,"stimulus":"img/250/equaldotanddens/L/1_Ratio_250_L_8_R_2.png","xmouse":[784,785,786,786,786,786,786,786,786,786,786,786,787,787,787,787,787,787,787,787,787,787,787,787,788,786,778,761,734,678,663,653,645,635,603,579,571,566,564,561,557,548,534,517,497],"ymouse":[630,630,630,630,630,630,630,630,630,630,630,630,630,630,629,629,629,629,629,629,629,629,629,629,629,619,601,570,520,396,361,337,320,306,264,232,215,202,192,180,171,160,141,116,84],"timestamp_mouse":[16,33,53,73,94,114,133,153,173,193,213,233,252,274,293,312,333,354,372,394,413,432,453,473,493,514,534,553,573,593,613,633,653,674,693,714,732,752,773,793,813,832,852,872,892],"xSR":741.5,"ySR":573.95,"xT1":424.9,"yT1":0,"xT2":1058.1,"yT2":0,"toosoon":0,"cond_shown":"equaldotanddens","ratio_trial":250,"smaller_num":"2","larger_num":"8","correct_side":1,"subjID":"lucianaduarte20","gender":"1","age":"9","school":"4"},{"start_time":1552313563061,"click_time":1552313564107,"finger_time":1552313563787,"fix_duration":772.817610100517,"trial":14,"RT":726,"MT":320,"sideResp":2,"stimulus":"img/900/randomdotsizeEA/L/8_Ratio_900_L_20_R_18.png","xmouse":[787,788,788,788,789,790,792,792,792,792,792,792,792,792,792,792,792,792,792,793,793,793,793,793,793,793,793,793,793,793,793,793,793,793,796,807,844,881,931,984,1030,1093,1120,1165,1174,1180,1181,1179,1174,1166,1149,1141,1137],"ymouse":[638,638,638,638,638,637,637,637,637,637,637,637,637,637,637,637,637,637,637,636,635,635,635,635,635,634,634,634,634,634,634,634,634,631,628,619,587,559,521,476,435,353,315,254,239,221,206,197,185,171,132,110,89],"timestamp_mouse":[5,25,45,66,86,105,125,145,167,187,207,225,245,265,286,306,325,345,367,387,407,426,447,467,485,505,525,546,567,587,605,625,645,667,686,707,726,746,766,786,806,826,845,867,887,905,926,946,966,987,1006,1026,1045],"xSR":741.5,"ySR":573.95,"xT1":424.9,"yT1":0,"xT2":1058.1,"yT2":0,"toosoon":0,"cond_shown":"randomdotsizeEA","ratio_trial":900,"smaller_num":"18","larger_num":"20","correct_side":1,"subjID":"lucianaduarte20","gender":"1","age":"9","school":"4"},{"start_time":1552313566036,"click_time":1552313567708,"finger_time":1552313566987,"fix_duration":1008.4097522427269,"trial":15,"RT":951,"MT":721,"sideResp":1,"stimulus":"img/500/randomdotsizeEA/L/10_Ratio_500_L_4_R_2.png","xmouse":[796,796,795,795,795,795,795,795,795,795,795,795,795,795,795,795,795,795,795,795,795,795,795,795,795,795,795,795,795,795,795,795,795,795,794,793,793,793,793,793,793,793,794,796,797,797,797,797,798,799,801,803,806,806,805,801,797,792,791,791,791,791,788,786,782,777,768,734,717,704,694,688,683,680,676,672,668,661,657,652,647,637,571,519],"ymouse":[626,626,627,627,627,627,627,627,627,627,627,627,627,627,627,627,627,627,627,627,627,627,627,627,627,627,627,627,627,627,627,627,624,622,613,610,609,609,609,608,607,606,602,598,590,584,578,571,569,567,564,562,552,541,529,515,502,485,482,476,468,454,427,416,400,383,364,317,298,282,266,257,239,230,213,195,177,143,133,123,115,104,61,36],"timestamp_mouse":[12,32,50,70,91,111,130,150,172,191,210,231,251,270,292,311,330,351,370,392,412,430,451,471,492,511,530,551,571,592,612,630,650,672,692,711,731,752,771,792,812,832,850,871,891,911,930,951,970,991,1012,1031,1050,1070,1090,1111,1130,1150,1170,1191,1212,1231,1251,1271,1291,1311,1331,1351,1370,1392,1410,1431,1451,1471,1491,1511,1532,1552,1570,1591,1612,1631,1650,1672],"xSR":741.5,"ySR":573.95,"xT1":424.9,"yT1":0,"xT2":1058.1,"yT2":0,"toosoon":0,"cond_shown":"randomdotsizeEA","ratio_trial":500,"smaller_num":"2","larger_num":"4","correct_side":1,"subjID":"lucianaduarte20","gender":"1","age":"9","school":"4"},{"start_time":1552313569647,"click_time":1552313571086,"finger_time":1552313570507,"fix_duration":959.0291168928461,"trial":16,"RT":860,"MT":579,"sideResp":1,"stimulus":"img/500/equaldotsize/L/7_Ratio_500_L_10_R_5.png","xmouse":[824,824,824,824,824,824,824,824,824,824,824,824,824,823,821,818,816,814,814,814,814,814,814,814,814,814,814,814,814,814,814,814,814,814,814,814,814,814,814,814,814,814,815,815,815,815,815,807,795,780,769,759,724,708,694,682,668,644,639,637,637,637,637,637,637,634,625,594,587,581,571,558,522],"ymouse":[630,630,630,630,630,630,630,630,630,630,630,630,630,630,630,629,628,627,627,627,627,627,627,627,627,627,627,627,627,627,627,627,627,627,627,627,627,627,627,627,622,617,583,565,544,518,487,406,367,332,310,293,245,223,202,185,167,131,126,124,124,124,124,124,123,123,123,119,116,111,102,92,71],"timestamp_mouse":[0,19,40,60,81,101,119,141,160,181,200,219,240,260,281,300,320,339,359,380,399,419,440,461,479,499,520,539,559,579,601,621,640,660,680,700,719,740,760,779,801,821,839,860,880,901,921,939,960,980,999,1019,1040,1061,1080,1099,1121,1140,1160,1180,1200,1220,1240,1260,1279,1300,1320,1339,1359,1381,1401,1421,1439],"xSR":741.5,"ySR":573.95,"xT1":424.9,"yT1":0,"xT2":1058.1,"yT2":0,"toosoon":0,"cond_shown":"equaldotsize","ratio_trial":500,"smaller_num":"5","larger_num":"10","correct_side":1,"subjID":"lucianaduarte20","gender":"1","age":"9","school":"4"},{"start_time":1552313573258,"click_time":1552313574727,"finger_time":1552313573707,"fix_duration":851.8587864221836,"trial":17,"RT":449,"MT":1020,"sideResp":2,"stimulus":"img/250/equaldotsize/R/11_Ratio_250_L_3_R_12.png","xmouse":[799,799,799,800,801,802,802,803,803,804,804,805,807,811,817,822,828,834,834,836,837,839,842,845,846,849,851,856,858,863,870,880,904,923,946,967,981,1000,1001,1001,1005,1010,1021,1026,1032,1036,1043,1062,1068,1075,1083,1089,1091,1092,1092,1092,1092,1092,1092,1092,1092,1092,1093,1094,1094,1095,1095,1095,1095,1095,1095,1095,1096,1099],"ymouse":[623,623,623,623,622,621,620,619,618,617,616,615,613,611,608,607,605,604,603,603,603,602,601,600,598,596,594,589,584,571,554,532,483,454,423,393,362,304,285,269,254,240,210,193,175,160,147,129,127,122,117,114,111,111,111,111,111,111,111,110,109,109,107,105,104,103,103,103,103,103,103,102,100,90],"timestamp_mouse":[9,30,49,70,89,110,130,150,170,189,209,229,248,269,289,308,329,349,368,389,410,429,449,469,488,509,528,549,568,588,609,630,648,669,689,709,728,748,768,789,808,828,848,868,889,908,928,949,969,988,1008,1029,1049,1068,1088,1108,1128,1148,1169,1189,1209,1228,1248,1270,1288,1309,1328,1349,1370,1389,1408,1429,1448,1469],"xSR":741.5,"ySR":573.95,"xT1":424.9,"yT1":0,"xT2":1058.1,"yT2":0,"toosoon":0,"cond_shown":"equaldotsize","ratio_trial":250,"smaller_num":"3","larger_num":"12","correct_side":2,"subjID":"lucianaduarte20","gender":"1","age":"9","school":"4"},{"start_time":1552313577104,"click_time":1552313577946,"finger_time":1552313577646,"fix_duration":1374.4738421157992,"trial":18,"RT":542,"MT":300,"sideResp":1,"stimulus":"img/750/randomdotsizeEA/R/4_Ratio_750_L_15_R_20.png","xmouse":[762,762,762,762,762,762,764,764,764,764,764,765,765,765,765,766,766,766,766,766,766,766,765,765,765,765,764,761,752,741,732,715,707,698,675,633,612,595,581,571,552,543,523],"ymouse":[600,600,600,600,600,600,600,600,600,600,600,599,599,599,599,598,598,598,598,598,597,595,592,590,587,585,579,570,553,533,510,458,429,398,316,185,138,107,89,75,52,39,13],"timestamp_mouse":[10,25,42,63,84,104,122,142,163,183,203,223,243,262,283,303,324,343,363,382,402,422,443,463,483,502,522,542,562,582,602,622,643,662,683,703,722,742,762,784,803,824,842],"xSR":741.5,"ySR":573.95,"xT1":424.9,"yT1":0,"xT2":1058.1,"yT2":0,"toosoon":0,"cond_shown":"randomdotsizeEA","ratio_trial":750,"smaller_num":"15","larger_num":"20","correct_side":2,"subjID":"lucianaduarte20","gender":"1","age":"9","school":"4"},{"start_time":1552313579533,"click_time":1552313580747,"finger_time":1552313579907,"fix_duration":746.2944421125987,"trial":19,"RT":374,"MT":840,"sideResp":1,"stimulus":"img/900/randomdotsizeEA/L/1_Ratio_900_L_10_R_9.png","xmouse":[811,811,811,811,811,811,811,811,811,811,811,811,811,811,811,814,823,831,840,849,850,850,850,850,850,850,850,851,851,851,851,852,853,853,853,853,853,853,853,853,853,850,847,845,845,845,841,838,834,805,779,751,717,683,604,574,557,546,540,536,522],"ymouse":[581,581,581,581,581,581,581,581,581,581,581,581,581,581,581,579,577,575,571,567,567,567,567,567,567,567,567,567,567,567,567,567,567,567,567,567,567,567,567,567,567,567,566,565,557,544,529,517,503,436,386,341,291,244,144,107,80,60,46,39,27],"timestamp_mouse":[13,33,54,73,94,113,135,155,174,194,214,234,255,273,293,313,334,354,374,393,415,434,453,473,493,513,534,554,573,593,613,633,654,674,694,713,733,753,773,793,813,834,854,873,894,913,933,953,973,993,1013,1033,1053,1074,1093,1113,1134,1153,1173,1193,1214],"xSR":741.5,"ySR":573.95,"xT1":424.9,"yT1":0,"xT2":1058.1,"yT2":0,"toosoon":0,"cond_shown":"randomdotsizeEA","ratio_trial":900,"smaller_num":"9","larger_num":"10","correct_side":1,"subjID":"lucianaduarte20","gender":"1","age":"9","school":"4"},{"start_time":1552313581797,"click_time":1552313583087,"finger_time":1552313582646,"fix_duration":250,"trial":20,"RT":849,"MT":441,"sideResp":2,"stimulus":"img/750/equaldotanddens/R/12_Ratio_750_L_3_R_4.png","xmouse":[783,783,783,783,783,783,783,783,783,783,783,783,783,783,783,784,785,785,785,785,785,785,785,785,785,785,785,786,786,787,788,789,790,790,790,790,790,792,792,794,798,840,893,950,999,1036,1079,1073,1043,1003,958,914,912,915,924,934,966,975,979,982,984,998,1019,1044,1068],"ymouse":[653,653,653,653,653,653,653,653,653,653,653,653,653,653,653,653,653,653,653,653,653,653,652,652,652,652,651,650,649,647,645,643,642,642,642,642,639,637,634,632,628,605,588,570,556,535,436,392,339,289,226,114,82,58,42,28,0,0,0,0,0,0,6,18,33],"timestamp_mouse":[9,29,49,71,89,110,131,149,169,189,209,230,249,270,290,309,329,350,369,389,409,430,450,469,489,510,529,550,569,590,609,630,651,670,689,709,729,749,770,790,811,829,849,869,889,909,929,950,971,990,1009,1029,1050,1071,1089,1109,1129,1151,1169,1189,1209,1229,1250,1270,1290],"xSR":741.5,"ySR":573.95,"xT1":424.9,"yT1":0,"xT2":1058.1,"yT2":0,"toosoon":0,"cond_shown":"equaldotanddens","ratio_trial":750,"smaller_num":"3","larger_num":"4","correct_side":2,"subjID":"lucianaduarte20","gender":"1","age":"9","school":"4"},{"start_time":1552313585047,"click_time":1552313586467,"finger_time":1552313585727,"fix_duration":800.5726873222576,"trial":21,"RT":680,"MT":740,"sideResp":2,"stimulus":"img/500/randomdotsizeEA/R/2_Ratio_500_L_3_R_6.png","xmouse":[830,830,830,827,825,824,823,821,821,821,821,821,821,821,821,821,821,821,821,821,821,821,821,821,821,822,823,824,825,827,828,829,832,840,844,848,852,857,866,890,899,907,912,912,898,890,885,883,882,874,868,860,849,849,849,849,849,850,864,916,949,992,1039,1053,1068,1074,1081,1086,1091,1095,1095],"ymouse":[578,578,580,586,588,591,594,595,596,596,596,596,596,596,596,596,596,596,596,596,596,596,596,596,596,595,594,592,591,588,586,583,578,566,561,555,551,545,535,503,484,466,436,415,372,358,351,346,344,326,312,299,284,284,284,284,283,283,288,300,302,299,274,256,209,190,177,164,145,108,90],"timestamp_mouse":[20,39,59,80,101,120,140,161,180,200,219,240,259,279,301,319,339,359,380,399,420,440,460,479,501,519,540,559,580,601,621,639,660,680,699,720,740,761,781,799,819,839,860,879,900,919,940,961,980,999,1019,1039,1059,1080,1100,1119,1139,1160,1179,1199,1220,1239,1259,1279,1300,1319,1341,1359,1379,1399,1420],"xSR":741.5,"ySR":573.95,"xT1":424.9,"yT1":0,"xT2":1058.1,"yT2":0,"toosoon":0,"cond_shown":"randomdotsizeEA","ratio_trial":500,"smaller_num":"3","larger_num":"6","correct_side":2,"subjID":"lucianaduarte20","gender":"1","age":"9","school":"4"},{"start_time":1552313587558,"click_time":1552313588827,"finger_time":1552313588468,"fix_duration":250,"trial":22,"RT":910,"MT":359,"sideResp":1,"stimulus":"img/750/equaldotsize/L/10_Ratio_750_L_4_R_3.png","xmouse":[772,772,772,772,772,772,772,772,772,772,772,772,772,772,772,772,772,772,772,772,772,772,772,772,772,772,772,772,772,772,772,772,772,772,772,772,772,772,772,772,773,774,774,774,771,763,746,730,721,700,693,686,677,665,635,623,602,592,583,558,546,537,527,521],"ymouse":[612,612,612,612,612,612,612,612,612,612,612,612,612,612,612,612,612,612,612,612,612,612,612,612,612,612,612,612,612,612,612,612,612,612,612,612,612,612,613,613,613,611,609,604,589,567,515,465,433,385,369,355,340,319,268,244,209,188,171,134,116,101,86,76],"timestamp_mouse":[9,29,49,69,88,109,130,149,168,188,208,228,248,268,288,308,329,348,368,388,409,429,448,468,488,508,530,548,568,588,609,628,649,669,688,708,728,748,768,789,808,828,849,870,888,910,929,949,969,989,1008,1029,1048,1069,1089,1109,1130,1149,1169,1188,1208,1228,1248,1269],"xSR":741.5,"ySR":573.95,"xT1":424.9,"yT1":0,"xT2":1058.1,"yT2":0,"toosoon":0,"cond_shown":"equaldotsize","ratio_trial":750,"smaller_num":"3","larger_num":"4","correct_side":1,"subjID":"lucianaduarte20","gender":"1","age":"9","school":"4"},{"start_time":1552313590293,"click_time":1552313591128,"finger_time":1552313590968,"fix_duration":625.3986922309783,"trial":23,"RT":675,"MT":160,"sideResp":1,"stimulus":"img/250/randomdotsizeEA/R/9_Ratio_250_L_3_R_12.png","xmouse":[808,808,808,808,808,808,808,808,808,808,808,808,808,808,808,808,808,810,813,814,814,816,817,818,819,820,820,820,820,820,820,820,823,823,823,820,807,781,640,575,523,484],"ymouse":[644,644,644,644,644,644,644,644,644,644,644,644,644,644,644,644,644,638,632,630,629,627,623,619,617,614,612,611,609,608,607,605,588,569,545,514,460,396,233,171,127,95],"timestamp_mouse":[15,33,54,74,94,114,134,154,174,193,214,233,253,274,294,313,334,355,373,393,414,434,454,473,494,514,533,553,574,593,614,633,653,675,694,715,733,753,773,793,814,835],"xSR":741.5,"ySR":573.95,"xT1":424.9,"yT1":0,"xT2":1058.1,"yT2":0,"toosoon":0,"cond_shown":"randomdotsizeEA","ratio_trial":250,"smaller_num":"3","larger_num":"12","correct_side":2,"subjID":"lucianaduarte20","gender":"1","age":"9","school":"4"},{"start_time":1552313593401,"click_time":1552313594266,"finger_time":1552313593947,"fix_duration":1154.0786710395673,"trial":24,"RT":546,"MT":319,"sideResp":2,"stimulus":"img/500/equaldotanddens/R/1_Ratio_500_L_9_R_18.png","xmouse":[791,791,791,791,791,791,791,791,791,791,792,793,795,797,798,800,801,816,822,828,830,831,831,831,833,834,837,852,860,870,879,895,930,960,990,1018,1038,1049,1070,1078,1084,1087,1092,1093],"ymouse":[620,620,620,620,620,620,620,620,620,620,619,619,618,617,617,617,616,612,610,609,607,607,607,607,603,601,596,574,562,546,529,494,418,367,321,284,260,246,217,202,186,171,117,89],"timestamp_mouse":[6,25,46,65,86,105,125,146,165,186,205,226,245,265,285,305,326,345,365,385,406,425,446,466,485,505,526,546,565,586,605,626,645,666,685,706,726,746,767,785,805,826,845,865],"xSR":741.5,"ySR":573.95,"xT1":424.9,"yT1":0,"xT2":1058.1,"yT2":0,"toosoon":0,"cond_shown":"equaldotanddens","ratio_trial":500,"smaller_num":"9","larger_num":"18","correct_side":2,"subjID":"lucianaduarte20","gender":"1","age":"9","school":"4"},{"start_time":1552313595661,"click_time":1552313596766,"finger_time":1552313596388,"fix_duration":414.3293935241666,"trial":25,"RT":727,"MT":378,"sideResp":1,"stimulus":"img/250/randomdotsizeEA/L/2_Ratio_250_L_16_R_4.png","xmouse":[801,801,801,801,802,802,802,802,802,802,802,802,802,802,802,802,802,802,802,801,801,800,797,793,789,780,780,779,779,779,779,779,779,777,777,772,768,761,756,748,716,697,678,662,649,634,627,615,598,581,549,539,536,533,528,510],"ymouse":[609,609,609,609,608,608,608,608,608,608,608,608,608,608,608,608,608,608,608,607,607,605,603,601,597,590,590,589,589,589,589,589,589,589,587,577,566,541,517,487,425,393,359,319,270,194,163,145,129,117,102,97,96,92,88,74],"timestamp_mouse":[11,25,45,66,86,106,125,145,165,185,205,227,246,266,287,305,325,345,365,386,406,425,446,466,486,505,525,545,565,586,606,626,646,666,685,706,727,745,765,787,806,825,845,865,886,907,926,946,966,985,1006,1025,1046,1067,1085,1105],"xSR":741.5,"ySR":573.95,"xT1":424.9,"yT1":0,"xT2":1058.1,"yT2":0,"toosoon":0,"cond_shown":"randomdotsizeEA","ratio_trial":250,"smaller_num":"4","larger_num":"16","correct_side":1,"subjID":"lucianaduarte20","gender":"1","age":"9","school":"4"},{"start_time":1552313598807,"click_time":1552313600086,"finger_time":1552313599528,"fix_duration":1058.8281538490833,"trial":26,"RT":721,"MT":558,"sideResp":2,"stimulus":"img/900/equaldotanddens/R/3_Ratio_900_L_9_R_10.png","xmouse":[789,789,789,789,789,789,785,784,775,773,772,772,772,772,772,772,772,772,772,772,772,772,772,772,770,769,762,758,754,754,754,754,754,753,752,747,743,738,731,730,738,750,768,795,808,822,840,866,929,992,1019,1029,1032,1039,1043,1045,1048,1050,1051,1051,1051,1052,1053,1058,1064],"ymouse":[615,615,615,615,615,615,612,611,603,601,601,601,601,601,601,601,601,601,601,601,601,601,601,601,601,600,595,592,590,590,590,589,589,588,583,574,563,550,517,495,482,470,459,445,434,422,401,372,290,227,203,193,188,172,158,142,129,118,107,106,105,102,100,92,85],"timestamp_mouse":[0,20,40,59,79,99,119,139,159,179,200,220,239,260,279,300,321,340,359,380,400,419,440,459,479,501,521,540,560,580,599,620,640,660,680,699,721,740,759,780,799,820,839,859,879,900,919,940,959,981,1001,1020,1039,1059,1079,1099,1119,1140,1160,1179,1200,1219,1239,1259,1279],"xSR":741.5,"ySR":573.95,"xT1":424.9,"yT1":0,"xT2":1058.1,"yT2":0,"toosoon":0,"cond_shown":"equaldotanddens","ratio_trial":900,"smaller_num":"9","larger_num":"10","correct_side":2,"subjID":"lucianaduarte20","gender":"1","age":"9","school":"4"},{"start_time":1552313602428,"click_time":1552313603287,"finger_time":1552313603027,"fix_duration":1360.5609123071356,"trial":27,"RT":599,"MT":260,"sideResp":2,"stimulus":"img/900/equaldotsize/R/7_Ratio_900_L_9_R_10.png","xmouse":[819,819,819,819,819,819,819,819,819,819,819,819,819,819,819,819,819,819,819,819,819,819,819,819,819,819,819,822,836,848,862,880,891,907,928,964,989,1011,1022,1034,1049,1062,1105],"ymouse":[617,617,617,617,617,617,617,617,617,617,617,617,617,617,617,617,617,617,617,617,617,617,617,617,617,617,617,609,587,564,540,497,471,434,388,326,295,245,219,190,160,131,65],"timestamp_mouse":[19,39,60,78,99,118,139,160,179,198,219,238,260,278,300,319,339,359,379,399,418,438,458,478,500,519,538,559,580,599,618,639,658,679,698,718,738,758,779,799,818,839,858],"xSR":741.5,"ySR":573.95,"xT1":424.9,"yT1":0,"xT2":1058.1,"yT2":0,"toosoon":0,"cond_shown":"equaldotsize","ratio_trial":900,"smaller_num":"9","larger_num":"10","correct_side":2,"subjID":"lucianaduarte20","gender":"1","age":"9","school":"4"},{"start_time":1552313605878,"click_time":1552313606787,"finger_time":1552313606467,"fix_duration":1391.933028379099,"trial":28,"RT":589,"MT":320,"sideResp":2,"stimulus":"img/500/equaldotanddens/R/6_Ratio_500_L_9_R_18.png","xmouse":[812,812,812,812,812,812,812,812,812,812,812,812,812,812,812,812,812,812,811,811,811,811,811,811,811,812,816,821,827,841,893,896,896,896,900,911,920,935,946,956,963,980,987,999,1021,1117],"ymouse":[644,644,644,644,644,644,644,644,644,644,644,644,644,644,644,644,644,644,644,644,644,644,644,644,643,637,625,605,578,524,317,254,221,208,200,187,178,168,158,147,135,117,114,113,110,87],"timestamp_mouse":[8,28,48,69,88,108,128,149,170,188,208,228,248,270,289,309,328,349,368,390,410,429,449,469,489,508,529,550,569,589,609,628,648,668,689,708,728,748,770,790,808,830,848,869,889,909],"xSR":741.5,"ySR":573.95,"xT1":424.9,"yT1":0,"xT2":1058.1,"yT2":0,"toosoon":0,"cond_shown":"equaldotanddens","ratio_trial":500,"smaller_num":"9","larger_num":"18","correct_side":2,"subjID":"lucianaduarte20","gender":"1","age":"9","school":"4"},{"start_time":1552313609407,"click_time":1552313610367,"finger_time":1552313610107,"fix_duration":1321.8546315177568,"trial":29,"RT":700,"MT":260,"sideResp":1,"stimulus":"img/900/randomdotsizeEA/L/4_Ratio_900_L_20_R_18.png","xmouse":[819,819,819,819,819,819,819,819,819,819,819,819,819,819,819,819,819,819,819,819,819,819,819,819,819,819,819,819,819,819,819,819,820,810,783,761,724,698,647,634,619,606,584,567,540,526,516,510],"ymouse":[619,619,619,619,619,619,619,619,619,619,619,619,619,619,619,619,619,619,619,619,619,619,619,619,619,619,619,619,619,619,619,618,617,598,549,512,460,424,334,302,271,245,213,193,154,132,109,93],"timestamp_mouse":[19,39,59,79,100,121,139,160,179,199,220,240,260,279,300,319,340,361,379,400,419,439,459,480,500,520,539,559,580,599,619,639,660,679,700,719,739,760,779,800,820,840,859,879,899,920,939,960],"xSR":741.5,"ySR":573.95,"xT1":424.9,"yT1":0,"xT2":1058.1,"yT2":0,"toosoon":0,"cond_shown":"randomdotsizeEA","ratio_trial":900,"smaller_num":"18","larger_num":"20","correct_side":1,"subjID":"lucianaduarte20","gender":"1","age":"9","school":"4"},{"start_time":1552313612091,"click_time":1552313613287,"finger_time":1552313612787,"fix_duration":1005.7648399531638,"trial":30,"RT":696,"MT":500,"sideResp":2,"stimulus":"img/900/equaldotanddens/L/8_Ratio_900_L_20_R_18.png","xmouse":[772,772,772,772,772,772,772,772,772,772,772,772,772,772,772,772,772,772,772,772,772,772,772,772,772,779,784,790,795,799,803,805,808,810,822,832,843,859,867,919,1049,1121,1168,1192,1200,1209,1213,1214,1221,1224,1228,1228,1228,1227,1225,1219,1212,1198,1186,1155],"ymouse":[606,606,606,606,606,606,606,606,606,606,606,606,606,606,606,606,606,606,606,606,606,606,606,606,607,603,599,595,593,591,587,584,580,577,560,547,532,506,493,422,283,220,186,168,157,139,129,124,115,110,99,94,91,88,86,85,85,85,85,83],"timestamp_mouse":[19,35,55,76,95,116,135,156,176,195,216,237,255,275,295,315,335,356,375,396,415,435,456,476,495,515,535,557,576,596,615,637,656,675,696,715,735,756,776,797,816,836,856,875,895,915,935,956,975,996,1015,1035,1056,1075,1096,1115,1135,1155,1176,1196],"xSR":741.5,"ySR":573.95,"xT1":424.9,"yT1":0,"xT2":1058.1,"yT2":0,"toosoon":0,"cond_shown":"equaldotanddens","ratio_trial":900,"smaller_num":"18","larger_num":"20","correct_side":1,"subjID":"lucianaduarte20","gender":"1","age":"9","school":"4"},{"start_time":1552313616008,"click_time":1552313617147,"finger_time":1552313616326,"fix_duration":800.084488486734,"trial":31,"RT":318,"MT":821,"sideResp":2,"stimulus":"img/900/randomdotsizeEA/R/15_Ratio_900_L_9_R_10.png","xmouse":[789,789,789,789,789,789,789,789,789,789,789,789,789,790,791,791,786,782,779,774,773,771,770,768,764,761,759,756,755,755,761,768,778,793,824,845,870,891,917,932,934,936,938,940,947,951,960,971,983,1014,1022,1027,1034,1041,1056,1065,1072],"ymouse":[615,615,615,615,615,615,615,615,615,615,615,611,609,599,576,563,547,534,523,497,486,477,470,459,427,407,390,373,365,354,348,343,335,323,292,270,247,226,197,174,170,167,163,158,148,144,141,139,136,125,120,117,113,110,104,100,96],"timestamp_mouse":[20,39,59,78,99,119,139,160,179,198,219,238,258,279,298,318,339,358,378,398,419,438,459,478,498,518,540,560,579,598,619,639,659,680,698,718,739,758,779,798,819,838,859,878,899,918,939,959,980,999,1019,1039,1059,1079,1099,1118,1139],"xSR":741.5,"ySR":573.95,"xT1":424.9,"yT1":0,"xT2":1058.1,"yT2":0,"toosoon":0,"cond_shown":"randomdotsizeEA","ratio_trial":900,"smaller_num":"9","larger_num":"10","correct_side":2,"subjID":"lucianaduarte20","gender":"1","age":"9","school":"4"},{"start_time":1552313618686,"click_time":1552313619608,"finger_time":1552313619306,"fix_duration":538.3723625877103,"trial":32,"RT":620,"MT":302,"sideResp":1,"stimulus":"img/900/equaldotsize/R/11_Ratio_900_L_18_R_20.png","xmouse":[782,782,782,783,783,783,785,785,785,785,785,785,785,785,785,785,786,786,786,786,786,788,789,791,791,792,794,796,799,804,811,814,811,784,736,705,702,704,707,708,706,642,588,539,489,480,472],"ymouse":[649,649,648,648,648,648,648,648,648,648,648,648,648,648,648,648,648,648,648,648,648,647,646,646,645,645,643,639,633,621,603,540,455,350,252,196,178,160,154,144,121,0,0,0,0,0,5],"timestamp_mouse":[2,21,40,60,80,101,120,142,160,181,201,221,242,260,281,300,321,341,360,381,400,420,441,462,482,500,521,540,560,582,601,620,640,662,680,701,721,741,762,780,800,821,841,860,881,900,922],"xSR":741.5,"ySR":573.95,"xT1":424.9,"yT1":0,"xT2":1058.1,"yT2":0,"toosoon":0,"cond_shown":"equaldotsize","ratio_trial":900,"smaller_num":"18","larger_num":"20","correct_side":2,"subjID":"lucianaduarte20","gender":"1","age":"9","school":"4"},{"start_time":1552313621637,"click_time":1552313622907,"finger_time":1552313621726,"fix_duration":670.2431969283917,"trial":33,"RT":89,"MT":1181,"sideResp":1,"stimulus":"img/900/equaldotsize/R/5_Ratio_900_L_9_R_10.png","xmouse":[832,833,834,835,845,848,854,862,865,870,870,871,871,871,871,871,871,871,871,871,871,871,871,871,870,858,853,849,846,844,842,840,834,823,813,813,813,813,813,813,813,813,812,812,809,800,785,769,756,747,747,747,742,731,705,690,675,675,673,654,633,599,556,521],"ymouse":[604,604,604,604,604,604,604,607,608,611,611,612,612,612,612,612,612,612,612,612,612,612,612,612,613,616,618,620,620,620,620,620,620,620,620,620,620,620,620,620,620,620,619,617,596,543,481,424,363,261,209,152,112,84,53,42,34,33,33,38,44,51,57,60],"timestamp_mouse":[11,30,49,70,89,110,130,149,169,189,209,230,250,270,290,309,330,350,371,390,410,429,449,470,490,510,531,549,569,590,611,629,650,670,689,709,729,749,770,789,810,830,849,870,889,910,929,949,970,989,1009,1031,1050,1070,1090,1109,1129,1150,1169,1190,1209,1230,1249,1270],"xSR":741.5,"ySR":573.95,"xT1":424.9,"yT1":0,"xT2":1058.1,"yT2":0,"toosoon":0,"cond_shown":"equaldotsize","ratio_trial":900,"smaller_num":"9","larger_num":"10","correct_side":2,"subjID":"lucianaduarte20","gender":"1","age":"9","school":"4"},{"start_time":1552313624779,"click_time":1552313625928,"finger_time":1552313625507,"fix_duration":1012.5858522863891,"trial":34,"RT":728,"MT":421,"sideResp":2,"stimulus":"img/250/equaldotanddens/R/9_Ratio_250_L_3_R_12.png","xmouse":[784,784,787,788,789,790,790,790,790,791,791,792,792,793,793,793,793,793,793,793,793,793,793,793,793,793,793,793,793,793,793,793,793,794,795,801,834,925,1073,1199,1308,1359,1371,1351,1331,1319,1310,1300,1294,1283,1270,1251,1225,1179,1164,1157,1154,1143],"ymouse":[587,587,587,587,587,587,587,587,587,587,587,587,587,587,587,587,587,587,587,587,587,587,587,587,587,587,587,587,587,587,587,587,587,585,584,582,573,551,491,419,335,261,140,82,39,11,0,0,0,0,0,0,0,0,0,0,0,8],"timestamp_mouse":[10,27,48,68,89,107,127,148,168,187,208,227,248,268,288,307,328,348,368,387,408,429,448,468,488,508,528,548,567,588,608,627,648,669,687,707,728,748,767,789,807,827,848,867,888,909,928,948,967,987,1007,1027,1048,1067,1087,1108,1127,1149],"xSR":741.5,"ySR":573.95,"xT1":424.9,"yT1":0,"xT2":1058.1,"yT2":0,"toosoon":0,"cond_shown":"equaldotanddens","ratio_trial":250,"smaller_num":"3","larger_num":"12","correct_side":2,"subjID":"lucianaduarte20","gender":"1","age":"9","school":"4"},{"start_time":1552313627277,"click_time":1552313628647,"finger_time":1552313628107,"fix_duration":250,"trial":35,"RT":830,"MT":540,"sideResp":1,"stimulus":"img/750/randomdotsizeEA/R/11_Ratio_750_L_12_R_16.png","xmouse":[770,770,770,770,770,770,770,770,770,770,770,770,770,770,770,770,770,770,770,770,770,770,770,770,772,773,775,776,776,776,777,777,777,777,779,780,782,782,783,786,788,792,789,735,707,678,660,644,637,637,636,636,636,621,611,600,591,578,577,576,576,574,572,556,551,546,541,535,508],"ymouse":[621,621,621,621,621,621,621,621,621,621,621,621,621,621,621,621,621,621,621,621,621,621,621,621,621,621,621,620,620,620,620,620,620,620,618,617,615,613,608,592,582,532,474,357,318,290,273,265,260,260,257,248,226,189,166,147,128,99,90,83,82,80,79,74,71,71,70,68,62],"timestamp_mouse":[10,30,50,70,90,111,130,149,169,190,211,229,250,269,290,310,330,350,370,390,409,430,449,469,489,509,529,550,570,590,610,631,649,670,689,710,729,749,770,790,810,830,849,869,890,909,930,949,970,989,1010,1029,1050,1069,1089,1110,1131,1149,1170,1189,1210,1229,1249,1270,1291,1310,1330,1349,1369],"xSR":741.5,"ySR":573.95,"xT1":424.9,"yT1":0,"xT2":1058.1,"yT2":0,"toosoon":0,"cond_shown":"randomdotsizeEA","ratio_trial":750,"smaller_num":"12","larger_num":"16","correct_side":2,"subjID":"lucianaduarte20","gender":"1","age":"9","school":"4"},{"start_time":1552313631112,"click_time":1552313631947,"finger_time":1552313631667,"fix_duration":1365.4955143086675,"trial":36,"RT":555,"MT":280,"sideResp":2,"stimulus":"img/900/equaldotsize/L/8_Ratio_900_L_20_R_18.png","xmouse":[818,818,818,818,818,818,818,818,818,818,818,818,818,818,818,818,818,818,819,820,823,828,829,829,829,831,839,842,843,843,843,847,855,867,877,891,916,937,960,993,1026,1085],"ymouse":[597,597,597,597,597,597,597,597,597,597,597,597,597,597,597,597,597,597,598,598,597,596,595,595,595,594,588,586,585,584,583,578,563,538,501,455,368,297,238,177,128,65],"timestamp_mouse":[15,35,54,74,95,115,134,155,176,195,215,234,255,276,294,314,334,354,374,395,416,434,454,474,494,514,534,555,574,594,614,634,654,675,694,715,734,755,775,795,815,835],"xSR":741.5,"ySR":573.95,"xT1":424.9,"yT1":0,"xT2":1058.1,"yT2":0,"toosoon":0,"cond_shown":"equaldotsize","ratio_trial":900,"smaller_num":"18","larger_num":"20","correct_side":1,"subjID":"lucianaduarte20","gender":"1","age":"9","school":"4"},{"start_time":1552313634575,"click_time":1552313635726,"finger_time":1552313635307,"fix_duration":1268.8921218109947,"trial":37,"RT":732,"MT":419,"sideResp":1,"stimulus":"img/500/equaldotanddens/L/7_Ratio_500_L_10_R_5.png","xmouse":[787,787,788,788,788,788,788,788,788,788,788,788,788,788,788,788,788,788,788,788,788,788,788,788,788,788,788,788,789,789,789,789,789,792,794,796,796,787,714,669,636,622,622,622,621,620,620,620,613,609,604,597,591,573,565,552,536,521],"ymouse":[637,637,637,637,637,637,637,637,637,637,637,637,637,637,637,637,637,637,637,637,637,637,637,637,637,637,637,637,637,637,637,637,637,633,623,601,563,502,313,200,71,0,0,0,0,0,0,0,4,10,17,27,39,61,63,63,58,54],"timestamp_mouse":[11,31,51,71,92,111,131,152,172,192,211,231,252,272,292,312,331,352,371,391,411,431,452,471,491,511,531,552,572,591,611,630,651,670,691,711,732,751,771,791,811,832,852,871,891,911,932,951,971,991,1011,1031,1052,1071,1092,1111,1131,1150],"xSR":741.5,"ySR":573.95,"xT1":424.9,"yT1":0,"xT2":1058.1,"yT2":0,"toosoon":0,"cond_shown":"equaldotanddens","ratio_trial":500,"smaller_num":"5","larger_num":"10","correct_side":1,"subjID":"lucianaduarte20","gender":"1","age":"9","school":"4"},{"start_time":1552313637843,"click_time":1552313638766,"finger_time":1552313638466,"fix_duration":995.2940216846978,"trial":38,"RT":623,"MT":300,"sideResp":1,"stimulus":"img/250/equaldotanddens/L/5_Ratio_250_L_24_R_6.png","xmouse":[754,752,750,750,750,750,750,750,750,750,750,750,750,750,750,750,750,750,750,750,750,750,750,750,750,750,751,752,753,755,760,771,771,761,733,700,656,647,644,625,615,593,579,564,544,522,489],"ymouse":[619,617,616,615,615,615,615,615,614,614,613,613,613,613,612,612,612,612,612,612,612,612,611,610,610,610,610,609,607,599,580,450,320,170,65,0,0,0,0,0,2,0,0,0,0,0,13],"timestamp_mouse":[4,26,43,63,84,104,124,143,163,183,203,223,243,262,283,303,324,342,364,384,403,423,444,463,482,503,523,542,564,583,603,623,643,663,683,704,723,744,764,784,805,823,843,864,883,903,923],"xSR":741.5,"ySR":573.95,"xT1":424.9,"yT1":0,"xT2":1058.1,"yT2":0,"toosoon":0,"cond_shown":"equaldotanddens","ratio_trial":250,"smaller_num":"6","larger_num":"24","correct_side":1,"subjID":"lucianaduarte20","gender":"1","age":"9","school":"4"},{"start_time":1552313640117,"click_time":1552313641267,"finger_time":1552313640806,"fix_duration":250,"trial":39,"RT":689,"MT":461,"sideResp":1,"stimulus":"img/250/equaldotsize/L/5_Ratio_250_L_24_R_6.png","xmouse":[800,802,803,804,805,806,807,808,809,809,810,810,813,814,815,816,816,818,818,818,818,818,818,818,818,819,820,820,820,820,820,820,818,813,799,787,774,748,740,730,721,707,659,648,637,630,623,608,597,589,582,577,569,564,559,553,546,523],"ymouse":[626,624,621,620,618,618,616,614,614,613,612,611,608,606,605,604,604,602,602,602,602,602,602,602,601,601,599,597,596,596,594,592,587,577,553,526,493,430,406,383,360,329,233,215,198,186,174,145,129,113,99,88,76,70,67,62,54,37],"timestamp_mouse":[9,30,49,69,90,110,129,150,169,190,210,230,249,270,290,310,329,349,370,389,410,428,449,469,489,510,529,549,570,590,609,630,650,669,689,709,729,749,769,789,810,829,849,870,889,909,930,950,969,989,1009,1030,1049,1070,1089,1109,1129,1149],"xSR":741.5,"ySR":573.95,"xT1":424.9,"yT1":0,"xT2":1058.1,"yT2":0,"toosoon":0,"cond_shown":"equaldotsize","ratio_trial":250,"smaller_num":"6","larger_num":"24","correct_side":1,"subjID":"lucianaduarte20","gender":"1","age":"9","school":"4"},{"start_time":1552313642477,"click_time":1552313643566,"finger_time":1552313643186,"fix_duration":250,"trial":40,"RT":709,"MT":380,"sideResp":1,"stimulus":"img/250/randomdotsizeEA/L/3_Ratio_250_L_8_R_2.png","xmouse":[812,812,812,812,812,813,814,814,814,814,814,814,814,814,814,814,814,814,814,814,814,814,814,814,810,806,803,800,799,797,796,796,795,795,783,776,762,747,725,680,661,646,631,615,607,606,605,604,602,591,580,563,546,528,496],"ymouse":[650,650,650,650,649,647,646,644,644,644,644,644,644,644,644,644,644,644,644,644,644,644,640,639,633,628,624,621,620,619,617,617,616,614,575,547,508,461,415,331,297,270,244,213,194,190,187,184,180,161,144,121,96,74,35],"timestamp_mouse":[15,30,49,70,90,110,129,150,170,190,210,230,250,270,290,309,329,349,369,389,409,430,449,469,488,510,530,550,569,590,610,628,650,669,688,709,729,749,769,788,809,828,848,869,889,909,929,950,969,990,1009,1030,1049,1069,1089],"xSR":741.5,"ySR":573.95,"xT1":424.9,"yT1":0,"xT2":1058.1,"yT2":0,"toosoon":0,"cond_shown":"randomdotsizeEA","ratio_trial":250,"smaller_num":"2","larger_num":"8","correct_side":1,"subjID":"lucianaduarte20","gender":"1","age":"9","school":"4"},{"start_time":1552313646039,"click_time":1552313647567,"finger_time":1552313646787,"fix_duration":1471.5161635347415,"trial":41,"RT":748,"MT":780,"sideResp":1,"stimulus":"img/900/randomdotsizeEA/L/10_Ratio_900_L_20_R_18.png","xmouse":[782,782,784,785,785,786,787,787,788,788,788,789,791,791,791,791,791,791,791,791,791,791,791,791,791,791,791,791,791,791,791,791,791,794,796,807,812,815,815,813,808,804,814,836,866,907,928,931,933,933,933,927,926,926,925,917,875,813,731,626,520,417,337,333,333,333,333,332,332,337,340,342,350,361,380,398,431],"ymouse":[599,599,599,599,599,599,599,599,600,600,600,600,600,601,601,601,601,601,601,601,601,601,601,601,601,601,601,601,601,601,601,601,601,601,601,592,583,554,531,503,471,441,400,383,369,351,340,337,333,326,313,285,267,254,243,229,210,191,167,137,101,57,13,11,11,11,11,10,8,6,5,5,6,14,28,41,61],"timestamp_mouse":[8,27,48,68,87,107,128,148,167,188,207,227,247,267,287,307,327,347,368,387,407,427,448,468,486,507,528,547,567,588,607,628,648,668,688,707,726,748,767,787,808,827,848,867,887,908,928,947,967,987,1008,1027,1048,1068,1088,1107,1127,1147,1168,1188,1208,1227,1247,1267,1287,1307,1327,1348,1367,1387,1407,1428,1448,1467,1487,1508,1527],"xSR":741.5,"ySR":573.95,"xT1":424.9,"yT1":0,"xT2":1058.1,"yT2":0,"toosoon":0,"cond_shown":"randomdotsizeEA","ratio_trial":900,"smaller_num":"18","larger_num":"20","correct_side":1,"subjID":"lucianaduarte20","gender":"1","age":"9","school":"4"},{"start_time":1552313648978,"click_time":1552313650206,"finger_time":1552313649686,"fix_duration":250,"trial":42,"RT":708,"MT":520,"sideResp":1,"stimulus":"img/750/randomdotsizeEA/R/3_Ratio_750_L_15_R_20.png","xmouse":[777,777,777,777,777,777,777,777,777,777,777,777,777,777,777,777,777,777,777,777,777,777,777,777,777,777,778,778,778,778,779,779,779,779,779,776,770,752,735,715,690,686,684,682,680,672,663,644,632,622,597,583,568,553,544,532,530,529,529,528,526,524],"ymouse":[596,596,596,596,596,596,596,596,596,596,596,596,596,596,596,596,596,596,596,596,596,596,596,596,596,596,596,596,596,596,596,596,595,594,589,565,541,483,442,406,355,337,322,312,301,266,242,208,189,174,140,120,103,85,70,50,48,47,47,47,47,47],"timestamp_mouse":[8,29,49,68,89,108,128,148,168,189,208,228,248,269,289,308,329,348,369,389,409,428,448,469,489,508,528,548,569,588,609,629,649,668,688,708,728,748,768,788,808,828,848,868,889,908,928,948,968,989,1009,1028,1048,1068,1088,1108,1128,1149,1168,1188,1208,1228],"xSR":741.5,"ySR":573.95,"xT1":424.9,"yT1":0,"xT2":1058.1,"yT2":0,"toosoon":0,"cond_shown":"randomdotsizeEA","ratio_trial":750,"smaller_num":"15","larger_num":"20","correct_side":2,"subjID":"lucianaduarte20","gender":"1","age":"9","school":"4"},{"start_time":1552313652123,"click_time":1552313653086,"finger_time":1552313652607,"fix_duration":1036.4476506603746,"trial":43,"RT":484,"MT":479,"sideResp":2,"stimulus":"img/250/equaldotanddens/R/9_Ratio_250_L_3_R_12.png","xmouse":[771,771,771,771,771,771,771,771,771,771,772,775,777,781,783,786,788,790,792,792,793,793,795,800,803,803,805,806,830,853,883,913,939,1000,1029,1087,1152,1206,1242,1243,1245,1245,1245,1244,1242,1237,1220,1191,1119],"ymouse":[608,608,608,608,608,608,608,608,608,608,606,603,602,599,598,595,593,591,590,589,588,588,584,576,572,571,569,566,544,524,487,441,404,319,275,211,149,100,50,48,44,43,43,39,37,33,29,22,12],"timestamp_mouse":[3,24,43,64,84,104,123,144,163,183,203,224,243,262,284,303,324,342,362,384,403,424,444,463,484,504,523,542,563,583,603,624,644,663,683,703,723,743,764,783,803,823,844,862,883,904,923,944,962],"xSR":741.5,"ySR":573.95,"xT1":424.9,"yT1":0,"xT2":1058.1,"yT2":0,"toosoon":0,"cond_shown":"equaldotanddens","ratio_trial":250,"smaller_num":"3","larger_num":"12","correct_side":2,"subjID":"lucianaduarte20","gender":"1","age":"9","school":"4"},{"start_time":1552313655193,"click_time":1552313656288,"finger_time":1552313655647,"fix_duration":1105.7287033976081,"trial":44,"RT":454,"MT":641,"sideResp":1,"stimulus":"img/750/randomdotsizeEA/R/7_Ratio_750_L_3_R_4.png","xmouse":[822,823,823,823,822,818,817,817,817,817,817,817,817,817,817,817,817,817,817,818,822,833,847,868,903,909,911,912,913,914,914,916,920,925,928,930,926,919,908,899,854,804,784,734,658,627,605,587,574,566,556,552,541,529,518],"ymouse":[590,590,590,590,590,590,590,590,590,590,590,590,590,590,590,590,590,590,590,590,590,586,579,563,508,484,469,461,459,456,452,447,438,418,407,380,367,352,340,327,272,210,187,129,52,28,13,5,0,0,0,0,4,10,18],"timestamp_mouse":[17,32,54,73,92,112,134,152,174,194,213,234,253,274,294,313,334,353,372,393,413,433,454,473,493,513,533,553,573,593,613,634,654,673,693,713,734,753,773,793,814,833,853,873,893,913,934,953,973,993,1013,1034,1053,1073,1094],"xSR":741.5,"ySR":573.95,"xT1":424.9,"yT1":0,"xT2":1058.1,"yT2":0,"toosoon":0,"cond_shown":"randomdotsizeEA","ratio_trial":750,"smaller_num":"3","larger_num":"4","correct_side":2,"subjID":"lucianaduarte20","gender":"1","age":"9","school":"4"},{"start_time":1552313659382,"click_time":1552313660526,"finger_time":1552313660126,"fix_duration":554.082280554045,"trial":45,"RT":744,"MT":400,"sideResp":2,"stimulus":"img/500/equaldotsize/R/12_Ratio_500_L_1_R_2.png","xmouse":[796,796,796,796,796,796,796,796,796,796,796,796,796,796,796,796,796,796,796,796,796,796,796,796,796,796,796,796,796,796,796,796,796,796,796,796,802,810,822,847,871,964,993,1010,1021,1029,1040,1044,1046,1047,1047,1061,1070,1076,1080,1083,1088,1090],"ymouse":[606,606,606,606,606,606,606,606,606,606,606,606,606,606,606,606,606,606,606,606,606,606,606,606,606,606,606,606,606,606,606,606,606,606,605,603,586,570,549,504,464,361,332,311,297,284,261,253,246,240,233,203,188,173,157,140,111,96],"timestamp_mouse":[3,24,45,65,84,105,125,143,165,184,205,225,244,275,285,304,324,345,364,384,405,425,445,463,485,504,524,543,564,584,604,624,644,663,684,705,724,744,765,784,805,825,844,865,884,904,925,944,964,985,1003,1025,1044,1065,1084,1104,1124,1144],"xSR":741.5,"ySR":573.95,"xT1":424.9,"yT1":0,"xT2":1058.1,"yT2":0,"toosoon":0,"cond_shown":"equaldotsize","ratio_trial":500,"smaller_num":"1","larger_num":"2","correct_side":2,"subjID":"lucianaduarte20","gender":"1","age":"9","school":"4"},{"start_time":1552313662520,"click_time":1552313663807,"finger_time":1552313663406,"fix_duration":1254.2722554637346,"trial":46,"RT":886,"MT":401,"sideResp":2,"stimulus":"img/900/equaldotanddens/R/7_Ratio_900_L_9_R_10.png","xmouse":[788,788,788,788,788,788,788,788,788,788,788,788,788,788,789,791,792,793,794,795,796,796,797,798,799,801,802,802,802,802,802,802,802,802,800,797,794,794,794,794,796,805,816,836,868,908,924,939,964,1004,1082,1113,1135,1147,1150,1152,1155,1160,1165,1167,1168,1168,1167,1166,1156],"ymouse":[617,617,617,617,617,617,617,617,617,617,617,617,617,617,617,616,615,614,612,610,609,608,608,607,605,600,599,599,599,599,599,599,598,598,598,598,598,598,598,598,596,593,587,579,560,529,510,484,432,366,249,215,194,178,168,154,144,134,122,113,103,99,96,93,83],"timestamp_mouse":[6,26,47,66,86,106,126,146,166,186,206,227,247,267,285,306,327,345,366,386,406,427,446,466,486,507,527,547,566,587,607,627,646,666,687,707,726,745,766,787,807,827,847,866,886,906,926,946,966,986,1006,1027,1047,1067,1085,1106,1127,1146,1167,1186,1206,1226,1246,1267,1287],"xSR":741.5,"ySR":573.95,"xT1":424.9,"yT1":0,"xT2":1058.1,"yT2":0,"toosoon":0,"cond_shown":"equaldotanddens","ratio_trial":900,"smaller_num":"9","larger_num":"10","correct_side":2,"subjID":"lucianaduarte20","gender":"1","age":"9","school":"4"},{"start_time":1552313665668,"click_time":1552313666747,"finger_time":1552313666386,"fix_duration":999.2550253526698,"trial":47,"RT":718,"MT":361,"sideResp":1,"stimulus":"img/500/equaldotanddens/L/10_Ratio_500_L_4_R_2.png","xmouse":[817,817,817,817,817,817,818,818,818,818,818,818,818,818,818,818,818,818,818,818,818,818,818,818,818,818,818,818,818,819,820,820,815,808,790,743,658,633,623,621,620,621,621,618,612,605,595,571,563,551,539,528,514,510],"ymouse":[657,657,657,657,657,657,657,657,657,657,657,657,657,657,657,657,657,657,657,657,657,657,657,657,657,657,657,657,657,656,654,651,628,617,588,515,394,347,309,288,276,261,256,247,237,225,211,178,164,146,132,120,107,99],"timestamp_mouse":[18,38,58,78,98,118,138,159,177,198,218,238,258,278,298,318,338,358,378,399,418,439,459,479,499,519,539,559,579,599,619,639,659,678,699,718,739,758,778,798,819,839,859,878,898,918,938,958,978,998,1018,1039,1058,1079],"xSR":741.5,"ySR":573.95,"xT1":424.9,"yT1":0,"xT2":1058.1,"yT2":0,"toosoon":0,"cond_shown":"equaldotanddens","ratio_trial":500,"smaller_num":"2","larger_num":"4","correct_side":1,"subjID":"lucianaduarte20","gender":"1","age":"9","school":"4"},{"start_time":1552313670599,"click_time":1552313671747,"finger_time":1552313671306,"fix_duration":1471.8869182551414,"trial":48,"RT":707,"MT":441,"sideResp":1,"stimulus":"img/250/equaldotsize/L/14_Ratio_250_L_12_R_3.png","xmouse":[808,808,808,808,808,808,808,808,808,808,808,808,808,808,808,808,808,808,808,808,808,808,808,808,808,808,808,808,808,808,807,807,805,803,793,779,735,714,699,691,688,677,669,659,648,635,610,606,601,595,585,563,549,539,534,533,530,509],"ymouse":[642,642,642,642,642,642,642,642,642,642,642,642,642,642,642,642,642,642,642,642,642,642,642,642,642,642,642,642,642,642,642,642,640,630,597,565,492,468,453,447,446,435,418,396,369,342,276,249,216,182,145,68,26,7,2,1,7,42],"timestamp_mouse":[7,27,47,66,87,107,128,147,167,188,207,227,246,268,287,307,327,347,368,387,407,426,447,468,487,507,528,547,568,588,608,628,647,668,687,707,727,747,767,787,807,826,848,867,887,907,928,947,967,987,1007,1026,1047,1067,1087,1106,1127,1148],"xSR":741.5,"ySR":573.95,"xT1":424.9,"yT1":0,"xT2":1058.1,"yT2":0,"toosoon":0,"cond_shown":"equaldotsize","ratio_trial":250,"smaller_num":"3","larger_num":"12","correct_side":1,"subjID":"lucianaduarte20","gender":"1","age":"9","school":"4"},{"start_time":1552313673686,"click_time":1552313674946,"finger_time":1552313674527,"fix_duration":939.3808171089638,"trial":49,"RT":841,"MT":419,"sideResp":1,"stimulus":"img/900/randomdotsizeEA/R/6_Ratio_900_L_9_R_10.png","xmouse":[794,794,794,794,794,794,794,794,794,794,794,794,794,794,794,794,794,794,794,794,794,794,794,794,794,794,794,794,794,794,794,794,794,794,794,794,794,794,794,794,795,795,795,774,758,732,701,671,629,621,618,618,618,615,610,605,599,589,571,557,550,542,536,522],"ymouse":[592,592,592,592,592,592,592,592,592,592,592,592,592,592,592,592,592,592,592,592,592,592,592,592,592,592,592,592,592,592,592,592,592,592,592,592,592,592,592,592,591,587,565,469,415,350,280,218,151,142,140,140,140,139,138,137,135,128,113,98,87,75,65,51],"timestamp_mouse":[2,21,40,60,80,100,120,140,161,181,200,220,240,260,280,299,321,341,360,381,400,420,441,460,481,501,519,541,560,580,600,621,641,661,680,701,721,741,760,781,800,821,841,860,881,901,920,940,960,980,1000,1021,1041,1060,1080,1101,1121,1141,1161,1180,1199,1220,1241,1260],"xSR":741.5,"ySR":573.95,"xT1":424.9,"yT1":0,"xT2":1058.1,"yT2":0,"toosoon":0,"cond_shown":"randomdotsizeEA","ratio_trial":900,"smaller_num":"9","larger_num":"10","correct_side":2,"subjID":"lucianaduarte20","gender":"1","age":"9","school":"4"},{"start_time":1552313677159,"click_time":1552313678146,"finger_time":1552313677746,"fix_duration":1312.6492617209028,"trial":50,"RT":587,"MT":400,"sideResp":2,"stimulus":"img/500/randomdotsizeEA/L/8_Ratio_500_L_8_R_4.png","xmouse":[793,793,793,793,793,793,794,794,794,794,794,794,794,794,794,794,794,794,794,794,794,794,794,794,794,794,794,795,798,805,809,813,818,825,856,874,903,950,994,1064,1076,1084,1090,1092,1095,1095,1093,1086,1079,1068],"ymouse":[578,578,578,578,578,578,578,578,578,578,578,578,578,578,578,578,578,578,578,578,578,578,578,578,578,578,578,577,576,570,566,563,558,551,511,491,459,407,354,262,243,229,218,211,184,167,149,127,105,63],"timestamp_mouse":[8,27,47,67,88,107,127,147,167,188,207,227,247,268,287,307,327,347,367,387,407,427,447,468,487,507,527,548,568,587,608,628,647,667,688,707,727,747,768,787,807,828,848,868,886,907,927,947,966,987],"xSR":741.5,"ySR":573.95,"xT1":424.9,"yT1":0,"xT2":1058.1,"yT2":0,"toosoon":0,"cond_shown":"randomdotsizeEA","ratio_trial":500,"smaller_num":"4","larger_num":"8","correct_side":1,"subjID":"lucianaduarte20","gender":"1","age":"9","school":"4"},{"start_time":1552313679838,"click_time":1552313680827,"finger_time":1552313680567,"fix_duration":650.8382293005432,"trial":51,"RT":729,"MT":260,"sideResp":1,"stimulus":"img/750/randomdotsizeEA/R/4_Ratio_750_L_15_R_20.png","xmouse":[835,835,835,835,835,835,835,835,835,835,835,835,835,835,835,835,835,835,835,835,835,835,835,835,835,835,835,835,835,835,835,835,835,835,835,836,836,836,820,805,787,760,747,738,727,713,629,578,517,458],"ymouse":[602,602,602,602,602,602,602,602,602,602,602,602,602,602,602,602,602,602,602,602,602,602,602,602,602,602,602,602,602,602,602,602,601,599,592,579,543,516,470,446,426,403,388,372,352,328,219,165,104,46],"timestamp_mouse":[14,28,49,67,88,109,128,148,167,188,208,228,249,269,288,308,328,348,369,388,409,429,448,468,488,508,528,548,568,589,609,628,648,668,688,708,729,748,768,789,809,828,848,868,888,908,927,948,968,989],"xSR":741.5,"ySR":573.95,"xT1":424.9,"yT1":0,"xT2":1058.1,"yT2":0,"toosoon":0,"cond_shown":"randomdotsizeEA","ratio_trial":750,"smaller_num":"15","larger_num":"20","correct_side":2,"subjID":"lucianaduarte20","gender":"1","age":"9","school":"4"},{"start_time":1552313682687,"click_time":1552313683846,"finger_time":1552313683306,"fix_duration":1079.6850114021995,"trial":52,"RT":619,"MT":540,"sideResp":1,"stimulus":"img/250/equaldotsize/L/7_Ratio_250_L_8_R_2.png","xmouse":[816,816,816,816,816,816,816,816,816,816,816,816,816,816,816,816,816,816,816,816,816,816,816,816,816,816,816,818,820,830,837,843,847,847,836,819,804,784,759,651,573,500,443,410,391,387,383,380,370,363,363,363,364,366,381,390,403,415,429],"ymouse":[643,643,643,643,643,643,643,643,643,643,643,643,643,643,643,643,643,643,643,643,643,643,643,643,643,643,644,644,643,631,615,595,571,544,493,455,429,401,373,298,242,183,129,85,42,25,12,5,0,0,0,0,0,0,3,8,19,30,42],"timestamp_mouse":[1,20,39,59,80,99,120,140,159,178,199,220,240,260,280,300,319,339,360,380,399,420,440,460,480,499,518,540,560,579,599,619,639,660,678,699,719,740,759,780,799,819,840,860,879,899,918,940,959,979,1000,1019,1039,1059,1080,1099,1118,1140,1159],"xSR":741.5,"ySR":573.95,"xT1":424.9,"yT1":0,"xT2":1058.1,"yT2":0,"toosoon":0,"cond_shown":"equaldotsize","ratio_trial":250,"smaller_num":"2","larger_num":"8","correct_side":1,"subjID":"lucianaduarte20","gender":"1","age":"9","school":"4"},{"start_time":1552313685571,"click_time":1552313687266,"finger_time":1552313686266,"fix_duration":822.3329822491258,"trial":53,"RT":695,"MT":1000,"sideResp":2,"stimulus":"img/500/randomdotsizeEA/R/15_Ratio_500_L_1_R_2.png","xmouse":[772,772,772,772,772,772,772,772,772,773,773,774,775,776,779,780,780,781,781,781,781,781,781,781,781,782,783,785,786,787,787,787,787,787,787,782,775,765,754,727,710,695,680,671,669,669,669,669,669,680,694,717,760,803,892,934,973,1005,1030,1072,1088,1107,1121,1131,1145,1148,1150,1151,1151,1150,1148,1147,1144,1144,1143,1143,1143,1143,1142,1142,1139,1135,1126,1110,1083],"ymouse":[607,608,608,610,610,610,610,610,610,612,614,616,618,620,625,627,628,629,629,629,629,629,629,629,629,628,627,624,622,615,610,604,595,580,535,512,488,466,445,397,375,356,341,335,334,334,334,334,334,336,339,346,358,369,379,380,380,377,367,326,297,270,248,234,214,207,199,191,180,154,145,135,128,123,121,121,121,121,120,120,119,119,116,110,89],"timestamp_mouse":[19,35,55,76,95,116,135,156,176,196,216,236,255,275,296,315,336,355,376,395,415,435,455,475,496,515,536,555,575,594,615,635,655,675,695,715,736,755,775,796,816,836,855,875,894,915,935,956,975,996,1016,1035,1055,1076,1095,1115,1135,1156,1176,1194,1215,1236,1254,1276,1295,1314,1335,1356,1375,1395,1415,1435,1456,1475,1495,1515,1535,1556,1575,1595,1615,1636,1656,1675,1695],"xSR":741.5,"ySR":573.95,"xT1":424.9,"yT1":0,"xT2":1058.1,"yT2":0,"toosoon":0,"cond_shown":"randomdotsizeEA","ratio_trial":500,"smaller_num":"1","larger_num":"2","correct_side":2,"subjID":"lucianaduarte20","gender":"1","age":"9","school":"4"},{"start_time":1552313690516,"click_time":1552313691806,"finger_time":1552313691307,"fix_duration":250,"trial":54,"RT":791,"MT":499,"sideResp":1,"stimulus":"img/500/randomdotsizeEA/L/7_Ratio_500_L_10_R_5.png","xmouse":[784,784,784,784,784,784,784,784,784,784,784,784,784,784,784,784,784,784,784,784,786,786,786,786,786,786,786,786,786,786,786,786,786,786,787,787,789,795,800,807,809,809,809,793,783,773,760,730,713,696,673,663,654,636,621,605,585,567,545,543,543,541,538,527,524],"ymouse":[631,631,631,631,631,631,631,631,631,631,631,631,631,631,631,631,631,631,631,631,631,631,631,631,631,631,631,631,631,631,631,631,631,631,630,629,624,606,587,548,511,476,447,371,342,320,295,257,240,223,195,181,168,147,137,125,112,99,76,69,67,64,59,46,41],"timestamp_mouse":[10,30,50,70,90,110,130,151,170,190,210,230,251,270,291,310,331,350,370,390,410,431,449,471,491,510,531,551,571,591,611,631,650,670,690,711,731,750,771,791,810,830,850,870,890,911,930,950,970,990,1011,1031,1050,1070,1090,1110,1131,1150,1171,1191,1210,1230,1250,1270,1290],"xSR":741.5,"ySR":573.95,"xT1":424.9,"yT1":0,"xT2":1058.1,"yT2":0,"toosoon":0,"cond_shown":"randomdotsizeEA","ratio_trial":500,"smaller_num":"5","larger_num":"10","correct_side":1,"subjID":"lucianaduarte20","gender":"1","age":"9","school":"4"},{"start_time":1552313693540,"click_time":1552313694726,"finger_time":1552313694227,"fix_duration":954.9765216382096,"trial":55,"RT":687,"MT":499,"sideResp":1,"stimulus":"img/900/equaldotanddens/L/10_Ratio_900_L_20_R_18.png","xmouse":[796,796,796,796,796,796,796,796,796,796,796,796,796,796,796,796,796,796,796,796,796,796,796,796,796,796,796,796,796,796,796,797,799,799,793,781,762,735,713,704,695,690,675,664,653,641,626,597,589,581,572,565,547,538,533,529,527,527,527,523],"ymouse":[629,629,629,629,629,629,629,629,629,629,629,629,629,629,629,629,629,629,629,629,629,629,629,629,629,629,629,629,629,629,629,627,605,586,563,535,503,456,418,394,366,342,292,268,241,216,191,142,129,117,106,96,76,67,61,57,55,55,55,55],"timestamp_mouse":[6,26,46,66,86,107,125,146,166,187,206,226,246,266,287,306,326,346,366,386,406,427,446,466,486,507,526,546,567,587,606,625,646,667,687,706,725,746,766,786,806,827,846,866,887,907,925,946,966,987,1006,1027,1046,1066,1086,1106,1126,1146,1166,1186],"xSR":741.5,"ySR":573.95,"xT1":424.9,"yT1":0,"xT2":1058.1,"yT2":0,"toosoon":0,"cond_shown":"equaldotanddens","ratio_trial":900,"smaller_num":"18","larger_num":"20","correct_side":1,"subjID":"lucianaduarte20","gender":"1","age":"9","school":"4"},{"start_time":1552313696495,"click_time":1552313698046,"finger_time":1552313697366,"fix_duration":787.2357115045758,"trial":56,"RT":871,"MT":680,"sideResp":1,"stimulus":"img/750/equaldotsize/L/9_Ratio_750_L_4_R_3.png","xmouse":[808,808,808,808,808,808,808,808,808,808,808,808,808,808,808,808,808,808,808,808,808,808,808,808,808,808,808,808,808,808,808,808,808,809,809,810,810,810,810,810,813,819,829,838,858,867,874,879,881,882,882,882,882,881,871,862,854,847,836,788,751,711,669,638,591,570,548,518,455,415,377,377,377,377,383,400,414,429],"ymouse":[620,620,620,620,620,620,620,620,620,620,620,620,620,620,620,620,620,620,620,620,620,620,620,620,620,620,620,620,620,620,620,620,620,619,618,613,608,608,608,607,602,591,574,553,508,488,469,455,450,445,445,445,444,444,444,439,432,422,406,337,285,222,167,123,52,24,0,0,0,0,0,0,0,0,4,29,49,69],"timestamp_mouse":[13,32,51,71,92,111,132,152,170,191,212,232,252,272,290,311,331,352,372,391,412,432,451,470,492,511,531,551,571,591,611,631,650,671,690,710,730,750,770,791,812,832,851,871,892,911,931,952,970,992,1011,1031,1052,1071,1091,1111,1131,1151,1171,1192,1211,1231,1251,1272,1292,1311,1331,1352,1371,1392,1411,1431,1452,1471,1490,1510,1531,1551],"xSR":741.5,"ySR":573.95,"xT1":424.9,"yT1":0,"xT2":1058.1,"yT2":0,"toosoon":0,"cond_shown":"equaldotsize","ratio_trial":750,"smaller_num":"3","larger_num":"4","correct_side":1,"subjID":"lucianaduarte20","gender":"1","age":"9","school":"4"},{"start_time":1552313699737,"click_time":1552313700826,"finger_time":1552313700507,"fix_duration":250,"trial":57,"RT":770,"MT":319,"sideResp":2,"stimulus":"img/900/equaldotsize/L/8_Ratio_900_L_20_R_18.png","xmouse":[775,775,775,775,775,775,775,775,775,775,775,775,775,775,775,775,776,776,776,776,776,776,776,776,776,776,776,776,776,776,774,771,770,770,770,770,771,777,820,850,883,910,937,987,1002,1015,1024,1029,1034,1035,1036,1038,1043,1057,1072],"ymouse":[617,617,617,617,617,617,617,617,617,617,617,617,617,617,617,617,617,617,617,617,617,617,617,617,617,617,617,617,617,618,618,618,618,618,618,618,617,612,563,522,475,434,393,308,276,244,224,209,184,173,160,144,126,87,65],"timestamp_mouse":[9,30,49,70,90,110,129,149,170,189,208,230,250,270,290,308,330,349,369,389,410,430,448,470,490,510,529,549,569,589,610,629,649,670,690,710,730,749,770,789,809,829,848,869,889,909,929,950,970,988,1009,1029,1048,1068,1088],"xSR":741.5,"ySR":573.95,"xT1":424.9,"yT1":0,"xT2":1058.1,"yT2":0,"toosoon":0,"cond_shown":"equaldotsize","ratio_trial":900,"smaller_num":"18","larger_num":"20","correct_side":1,"subjID":"lucianaduarte20","gender":"1","age":"9","school":"4"},{"start_time":1552313702805,"click_time":1552313703707,"finger_time":1552313703385,"fix_duration":1117.3018992715865,"trial":58,"RT":580,"MT":322,"sideResp":2,"stimulus":"img/250/equaldotsize/R/9_Ratio_250_L_3_R_12.png","xmouse":[812,812,812,812,812,812,812,812,812,812,812,812,812,812,812,812,812,812,812,812,812,812,812,812,812,812,817,821,833,851,1015,1083,1122,1145,1159,1171,1184,1187,1188,1189,1189,1185,1179,1171,1164,1150],"ymouse":[592,592,592,592,592,592,592,592,592,592,592,592,592,592,592,592,592,592,592,592,592,592,592,592,592,592,592,590,586,577,470,424,387,354,323,298,263,251,240,227,173,147,124,105,91,69],"timestamp_mouse":[3,20,42,62,81,101,121,141,162,181,202,222,242,260,281,302,322,341,362,380,402,420,442,461,482,501,522,542,562,580,601,621,641,662,681,701,722,741,760,781,800,821,840,861,882,902],"xSR":741.5,"ySR":573.95,"xT1":424.9,"yT1":0,"xT2":1058.1,"yT2":0,"toosoon":0,"cond_shown":"equaldotsize","ratio_trial":250,"smaller_num":"3","larger_num":"12","correct_side":2,"subjID":"lucianaduarte20","gender":"1","age":"9","school":"4"},{"start_time":1552313706208,"click_time":1552313707126,"finger_time":1552313706787,"fix_duration":1439.395919170677,"trial":59,"RT":579,"MT":339,"sideResp":1,"stimulus":"img/750/equaldotanddens/L/1_Ratio_750_L_20_R_15.png","xmouse":[834,835,835,835,835,835,835,835,835,835,835,835,834,833,831,830,830,828,827,827,827,827,827,826,824,821,817,815,814,814,819,821,815,804,795,762,727,709,657,541,525,520,520,520,519,505],"ymouse":[585,584,584,584,584,584,584,584,584,584,584,584,584,584,584,585,585,585,585,585,585,585,585,585,586,586,586,583,566,534,402,341,300,262,229,137,59,30,0,0,0,0,0,0,0,4],"timestamp_mouse":[21,38,58,79,97,117,138,158,179,199,218,239,258,279,298,318,338,358,378,397,419,438,459,477,498,518,538,557,579,599,619,639,659,678,698,719,738,758,779,800,818,839,859,878,898,918],"xSR":741.5,"ySR":573.95,"xT1":424.9,"yT1":0,"xT2":1058.1,"yT2":0,"toosoon":0,"cond_shown":"equaldotanddens","ratio_trial":750,"smaller_num":"15","larger_num":"20","correct_side":1,"subjID":"lucianaduarte20","gender":"1","age":"9","school":"4"},{"start_time":1552313708458,"click_time":1552313709826,"finger_time":1552313709227,"fix_duration":250,"trial":60,"RT":769,"MT":599,"sideResp":1,"stimulus":"img/750/randomdotsizeEA/R/12_Ratio_750_L_3_R_4.png","xmouse":[789,789,789,790,792,796,797,797,797,797,797,797,797,797,797,797,797,797,797,797,797,799,801,808,811,815,817,817,817,817,817,817,817,817,818,822,827,836,846,848,848,849,850,853,853,853,853,849,791,734,667,606,551,482,469,460,452,441,427,423,421,421,420,416,416,416,416,419,428],"ymouse":[658,658,658,657,657,657,657,657,657,657,657,657,657,657,657,657,657,657,657,657,656,655,655,652,650,648,648,647,647,647,647,647,647,647,646,643,637,623,599,591,587,582,577,554,526,501,476,447,323,234,139,55,0,0,0,0,0,0,0,0,0,0,0,1,4,7,10,15,26],"timestamp_mouse":[8,27,47,69,88,108,128,147,168,188,209,229,248,268,287,308,328,349,368,388,407,428,448,469,489,509,528,548,569,587,609,628,649,667,689,709,729,749,769,787,808,828,848,867,888,907,928,948,968,988,1009,1028,1047,1068,1088,1108,1128,1148,1169,1188,1208,1228,1249,1269,1289,1308,1329,1348,1368],"xSR":741.5,"ySR":573.95,"xT1":424.9,"yT1":0,"xT2":1058.1,"yT2":0,"toosoon":0,"cond_shown":"randomdotsizeEA","ratio_trial":750,"smaller_num":"3","larger_num":"4","correct_side":2,"subjID":"lucianaduarte20","gender":"1","age":"9","school":"4"},{"start_time":1552313711518,"click_time":1552313712686,"finger_time":1552313712206,"fix_duration":250,"trial":61,"RT":688,"MT":480,"sideResp":2,"stimulus":"img/500/randomdotsizeEA/R/15_Ratio_500_L_1_R_2.png","xmouse":[747,747,747,747,747,747,747,747,747,747,747,747,747,747,747,748,749,749,749,749,749,749,749,749,750,751,751,751,752,753,760,773,794,817,850,913,938,956,970,979,979,971,968,971,980,992,995,999,1007,1018,1040,1043,1044,1044,1044,1050,1062,1082,1115],"ymouse":[630,630,630,630,630,630,630,630,630,630,630,630,630,630,630,630,630,630,630,630,630,630,630,630,630,630,629,629,629,629,627,623,618,611,601,573,553,532,500,453,302,244,202,178,162,150,150,149,147,144,140,138,138,138,138,134,124,108,80],"timestamp_mouse":[12,28,48,68,89,108,129,147,167,189,209,228,248,268,288,309,328,348,367,389,409,427,449,469,488,508,528,549,568,589,607,628,649,668,688,707,728,749,768,788,809,828,849,869,888,908,928,949,968,988,1007,1028,1049,1068,1088,1107,1128,1148,1168],"xSR":741.5,"ySR":573.95,"xT1":424.9,"yT1":0,"xT2":1058.1,"yT2":0,"toosoon":0,"cond_shown":"randomdotsizeEA","ratio_trial":500,"smaller_num":"1","larger_num":"2","correct_side":2,"subjID":"lucianaduarte20","gender":"1","age":"9","school":"4"},{"start_time":1552313715357,"click_time":1552313716746,"finger_time":1552313716326,"fix_duration":250,"trial":62,"RT":969,"MT":420,"sideResp":2,"stimulus":"img/250/randomdotsizeEA/L/1_Ratio_250_L_8_R_2.png","xmouse":[753,753,753,753,753,753,753,753,753,753,753,753,754,758,762,768,774,779,780,782,782,782,782,782,782,782,782,782,782,782,782,782,782,782,783,782,780,780,795,806,814,817,818,819,821,826,828,838,851,891,925,958,980,993,1012,1022,1034,1050,1058,1061,1062,1062,1063,1066,1087,1100,1112,1119,1133,1142],"ymouse":[673,673,673,673,673,673,673,673,673,673,673,673,673,673,673,673,673,673,673,673,673,673,673,673,673,673,673,673,673,673,673,673,673,673,673,672,667,658,626,611,600,596,595,593,593,589,587,575,561,523,490,456,430,406,359,331,290,240,219,209,207,203,199,193,173,160,148,134,103,80],"timestamp_mouse":[11,29,50,69,89,109,129,150,169,189,209,229,248,269,289,309,329,349,369,389,410,429,450,469,489,508,530,549,570,590,609,630,649,670,689,710,728,749,769,789,810,829,850,870,890,910,929,949,969,989,1009,1029,1050,1069,1090,1109,1130,1150,1168,1189,1208,1229,1249,1269,1289,1309,1329,1349,1369,1389],"xSR":741.5,"ySR":573.95,"xT1":424.9,"yT1":0,"xT2":1058.1,"yT2":0,"toosoon":0,"cond_shown":"randomdotsizeEA","ratio_trial":250,"smaller_num":"2","larger_num":"8","correct_side":1,"subjID":"lucianaduarte20","gender":"1","age":"9","school":"4"},{"start_time":1552313718832,"click_time":1552313720646,"finger_time":1552313719846,"fix_duration":964.6206321218697,"trial":63,"RT":1014,"MT":800,"sideResp":1,"stimulus":"img/250/randomdotsizeEA/L/7_Ratio_250_L_8_R_2.png","xmouse":[778,778,778,778,778,778,778,778,778,778,778,778,778,778,778,778,778,778,778,778,778,778,778,778,778,778,778,778,778,778,778,778,778,778,778,778,778,778,778,778,778,778,778,778,778,778,781,785,797,814,849,860,872,888,903,925,928,929,929,929,929,929,928,927,921,907,901,892,879,856,787,751,720,694,674,645,632,619,610,602,584,574,560,549,541,529,526,525,525,525,524],"ymouse":[610,610,610,610,610,610,610,610,610,610,610,610,610,610,610,610,610,610,610,610,610,610,610,610,610,610,610,610,610,610,610,610,610,610,610,610,610,610,610,610,610,610,610,610,610,610,609,609,605,598,579,571,558,541,523,496,492,491,491,491,491,491,490,489,484,464,447,426,389,340,182,113,55,17,0,0,0,0,0,0,0,5,12,19,23,30,33,34,34,34,34],"timestamp_mouse":[13,34,55,75,94,113,134,155,175,194,214,233,255,274,294,314,334,354,373,394,413,435,455,474,495,515,535,553,574,594,614,635,655,675,693,715,735,755,774,795,814,835,855,873,895,915,934,955,973,994,1014,1035,1054,1074,1094,1114,1133,1154,1174,1193,1214,1235,1254,1275,1294,1314,1334,1354,1374,1394,1414,1435,1455,1474,1494,1515,1534,1554,1573,1595,1615,1634,1654,1674,1694,1715,1734,1754,1774,1793,1814],"xSR":741.5,"ySR":573.95,"xT1":424.9,"yT1":0,"xT2":1058.1,"yT2":0,"toosoon":0,"cond_shown":"randomdotsizeEA","ratio_trial":250,"smaller_num":"2","larger_num":"8","correct_side":1,"subjID":"lucianaduarte20","gender":"1","age":"9","school":"4"},{"start_time":1552313723541,"click_time":1552313724566,"finger_time":1552313724267,"fix_duration":1154.917979463569,"trial":64,"RT":726,"MT":299,"sideResp":1,"stimulus":"img/750/equaldotanddens/L/8_Ratio_750_L_4_R_3.png","xmouse":[773,773,773,773,773,773,773,773,773,773,773,773,773,773,773,774,775,778,781,787,792,792,793,793,793,793,793,793,793,793,793,793,793,794,799,807,812,811,797,779,750,665,607,523,486,475,472,472,472,470,470,468],"ymouse":[600,600,600,600,600,600,600,600,600,600,600,600,600,600,600,600,600,600,600,599,598,598,598,598,598,598,598,598,598,598,598,598,598,595,590,577,534,500,456,396,324,127,18,0,0,0,0,0,0,0,0,2],"timestamp_mouse":[6,25,45,65,85,105,126,146,164,186,206,225,244,265,286,306,325,346,365,386,405,426,444,465,486,506,524,546,566,585,606,624,646,665,686,705,726,745,765,784,805,825,845,866,885,905,925,945,965,985,1006,1025],"xSR":741.5,"ySR":573.95,"xT1":424.9,"yT1":0,"xT2":1058.1,"yT2":0,"toosoon":0,"cond_shown":"equaldotanddens","ratio_trial":750,"smaller_num":"3","larger_num":"4","correct_side":1,"subjID":"lucianaduarte20","gender":"1","age":"9","school":"4"},{"start_time":1552313726276,"click_time":1552313727507,"finger_time":1552313727166,"fix_duration":510.6439971939801,"trial":65,"RT":890,"MT":341,"sideResp":1,"stimulus":"img/750/equaldotanddens/L/6_Ratio_750_L_24_R_18.png","xmouse":[773,773,773,773,773,773,773,773,773,773,773,773,773,773,773,773,773,773,773,773,773,773,773,773,773,773,773,773,773,773,774,775,777,778,781,781,782,782,783,783,784,784,784,786,788,789,789,787,771,703,657,614,577,550,511,503,503,503,503,503,502,500],"ymouse":[588,588,588,588,588,588,588,588,588,588,588,588,588,588,588,588,588,588,588,588,588,588,588,588,588,588,588,588,588,588,588,588,586,586,584,584,584,584,583,583,582,581,580,577,564,540,515,480,426,299,217,142,78,30,0,0,0,0,0,0,0,1],"timestamp_mouse":[10,31,50,70,91,111,130,151,170,190,210,231,249,271,291,310,329,350,371,391,410,431,449,471,489,511,529,550,570,589,610,631,651,671,690,710,730,751,771,790,809,831,850,870,890,910,930,950,970,991,1010,1031,1049,1071,1090,1110,1130,1150,1171,1190,1210,1231],"xSR":741.5,"ySR":573.95,"xT1":424.9,"yT1":0,"xT2":1058.1,"yT2":0,"toosoon":0,"cond_shown":"equaldotanddens","ratio_trial":750,"smaller_num":"18","larger_num":"24","correct_side":1,"subjID":"lucianaduarte20","gender":"1","age":"9","school":"4"},{"start_time":1552313729653,"click_time":1552313731026,"finger_time":1552313730407,"fix_duration":926.9138658759413,"trial":66,"RT":754,"MT":619,"sideResp":2,"stimulus":"img/500/randomdotsizeEA/L/11_Ratio_500_L_12_R_6.png","xmouse":[760,760,760,760,760,760,760,760,760,760,760,760,760,760,760,760,762,766,769,771,776,776,777,777,777,778,780,780,780,780,782,786,791,796,801,822,831,843,854,871,912,939,975,1013,1055,1085,1096,1104,1112,1118,1126,1126,1126,1126,1126,1126,1126,1127,1136,1147,1168,1169,1169,1169,1169,1167,1157,1148,1141],"ymouse":[609,609,609,609,609,609,609,609,609,609,609,609,609,609,609,609,608,607,607,605,604,604,604,604,603,603,603,603,603,603,602,601,599,597,595,582,575,566,556,542,512,493,467,442,412,378,366,354,337,319,281,258,232,211,183,158,146,140,133,124,105,101,101,101,101,101,101,101,97],"timestamp_mouse":[17,33,53,72,94,113,133,153,173,193,213,233,254,273,294,314,332,353,373,393,412,433,454,474,494,512,534,554,573,593,614,634,653,673,693,714,733,754,773,793,812,832,853,874,893,912,933,954,973,993,1013,1033,1054,1074,1093,1112,1133,1153,1173,1192,1213,1233,1254,1274,1293,1313,1333,1353,1373],"xSR":741.5,"ySR":573.95,"xT1":424.9,"yT1":0,"xT2":1058.1,"yT2":0,"toosoon":0,"cond_shown":"randomdotsizeEA","ratio_trial":500,"smaller_num":"6","larger_num":"12","correct_side":1,"subjID":"lucianaduarte20","gender":"1","age":"9","school":"4"},{"start_time":1552313732477,"click_time":1552313733726,"finger_time":1552313733266,"fix_duration":250,"trial":67,"RT":789,"MT":460,"sideResp":1,"stimulus":"img/750/randomdotsizeEA/R/15_Ratio_750_L_9_R_12.png","xmouse":[820,820,820,820,820,820,820,820,820,820,820,821,821,821,821,821,822,822,822,822,822,822,822,822,822,822,822,822,822,822,822,822,823,823,824,824,824,825,826,828,828,828,819,787,754,690,665,650,639,632,619,604,598,580,574,573,572,569,563,552,531,527,522],"ymouse":[619,619,619,619,619,619,619,619,619,619,619,619,619,619,619,619,619,619,619,619,619,619,619,619,619,619,619,619,619,619,619,618,614,611,607,598,592,585,575,554,538,517,486,412,351,249,211,182,159,137,92,55,43,17,11,10,10,13,16,18,18,18,21],"timestamp_mouse":[12,29,49,69,88,110,130,149,169,190,209,229,250,269,290,309,330,348,369,390,409,428,450,469,489,509,530,549,569,590,610,630,649,670,690,709,729,749,770,789,809,828,849,869,889,909,930,950,968,989,1009,1030,1049,1069,1090,1108,1129,1149,1169,1189,1210,1229,1249],"xSR":741.5,"ySR":573.95,"xT1":424.9,"yT1":0,"xT2":1058.1,"yT2":0,"toosoon":0,"cond_shown":"randomdotsizeEA","ratio_trial":750,"smaller_num":"9","larger_num":"12","correct_side":2,"subjID":"lucianaduarte20","gender":"1","age":"9","school":"4"},{"start_time":1552313734953,"click_time":1552313736806,"finger_time":1552313735906,"fix_duration":385.06399975387404,"trial":68,"RT":953,"MT":900,"sideResp":2,"stimulus":"img/750/equaldotsize/R/12_Ratio_750_L_3_R_4.png","xmouse":[812,812,812,812,812,812,812,812,812,812,812,812,812,812,812,812,812,812,812,812,812,812,812,812,812,812,812,812,812,812,812,812,812,814,814,815,817,818,820,820,821,822,824,824,827,831,835,835,830,824,810,799,788,773,756,734,680,647,629,616,604,580,566,556,550,548,547,547,547,547,547,551,565,581,600,621,682,745,797,838,882,953,984,1008,1028,1048,1074,1083,1085,1085,1086,1088,1088],"ymouse":[611,611,611,611,611,611,611,611,611,611,611,611,611,611,611,611,611,611,611,611,611,611,611,611,611,611,611,611,611,611,611,611,611,611,610,610,609,609,609,609,608,608,608,607,606,602,584,566,521,480,415,390,371,352,333,309,261,230,210,191,175,144,131,122,117,116,116,116,116,116,116,117,123,132,144,154,175,187,193,199,199,197,191,182,170,159,135,121,116,114,113,101,92],"timestamp_mouse":[13,32,53,74,94,113,133,153,173,193,213,234,254,273,293,314,334,354,374,392,413,434,453,474,493,513,533,553,573,593,613,633,652,674,694,712,734,754,773,793,813,833,853,873,894,914,934,953,974,993,1014,1034,1053,1073,1093,1113,1134,1153,1173,1194,1213,1234,1253,1274,1294,1313,1334,1353,1374,1393,1413,1433,1452,1474,1493,1514,1532,1553,1574,1593,1614,1633,1653,1674,1694,1714,1733,1754,1774,1793,1813,1833,1853],"xSR":741.5,"ySR":573.95,"xT1":424.9,"yT1":0,"xT2":1058.1,"yT2":0,"toosoon":0,"cond_shown":"equaldotsize","ratio_trial":750,"smaller_num":"3","larger_num":"4","correct_side":2,"subjID":"lucianaduarte20","gender":"1","age":"9","school":"4"},{"start_time":1552313740603,"click_time":1552313742006,"finger_time":1552313741207,"fix_duration":1437.6442562186244,"trial":69,"RT":604,"MT":799,"sideResp":2,"stimulus":"img/250/equaldotanddens/R/11_Ratio_250_L_3_R_12.png","xmouse":[787,787,787,787,787,787,787,787,787,787,787,787,787,787,787,787,787,787,787,787,789,790,791,791,791,791,791,796,799,822,846,872,897,929,970,986,1005,1023,1038,1051,1096,1125,1163,1237,1293,1390,1427,1450,1464,1474,1488,1490,1491,1483,1438,1384,1335,1299,1285,1284,1282,1278,1267,1250,1226,1219,1213,1208,1204,1165,1140],"ymouse":[636,636,636,636,636,636,636,636,636,636,636,636,636,636,636,636,636,636,636,636,636,636,636,636,636,636,636,635,635,631,621,610,599,580,551,538,525,513,504,493,462,444,419,367,325,240,194,159,131,105,56,35,14,0,0,0,0,0,0,0,0,0,2,11,25,27,28,28,30,32,31],"timestamp_mouse":[4,24,44,63,84,104,122,143,163,184,204,222,244,263,284,303,323,343,364,383,403,422,443,464,483,504,522,542,564,584,604,623,644,662,683,703,723,743,763,783,803,822,844,863,882,903,924,943,964,982,1003,1023,1043,1063,1084,1102,1123,1144,1164,1184,1203,1222,1242,1263,1283,1303,1323,1343,1364,1385,1403],"xSR":741.5,"ySR":573.95,"xT1":424.9,"yT1":0,"xT2":1058.1,"yT2":0,"toosoon":0,"cond_shown":"equaldotanddens","ratio_trial":250,"smaller_num":"3","larger_num":"12","correct_side":2,"subjID":"lucianaduarte20","gender":"1","age":"9","school":"4"},{"start_time":1552313743658,"click_time":1552313745086,"finger_time":1552313744426,"fix_duration":250,"trial":70,"RT":768,"MT":660,"sideResp":2,"stimulus":"img/750/equaldotsize/R/2_Ratio_750_L_6_R_8.png","xmouse":[754,754,754,754,754,754,754,754,754,754,754,754,754,754,754,754,754,754,754,754,754,754,754,755,755,757,757,757,757,757,757,757,766,773,778,780,782,785,791,799,815,834,868,885,904,925,949,1056,1112,1157,1196,1222,1274,1289,1303,1309,1311,1307,1301,1294,1289,1287,1285,1265,1240,1220,1199,1180,1179,1174,1159,112