[{"start_time":1552054911387,"click_time":1552054914440,"finger_time":1552054911426,"fix_duration":280.05898433304,"trial":0,"RT":39,"MT":3014,"sideResp":1,"stimulus":"img/750/randomdotsizeEA/L/8_Ratio_750_L_4_R_3.png","xmouse":[796,796,796,796,796,796,796,796,796,796,796,796,796,796,796,796,796,796,796,796,796,796,796,796,796,796,796,796,796,796,796,796,796,796,796,796,796,796,796,796,796,796,796,796,796,796,796,796,796,796,796,796,796,796,796,796,796,796,796,796,796,796,796,796,796,796,796,796,796,796,796,796,796,796,796,796,796,796,796,796,796,796,796,796,796,795,795,795,795,795,795,795,795,795,795,795,795,795,795,795,795,795,795,795,795,795,796,801,802,803,803,803,803,803,803,803,803,803,803,803,803,803,803,803,803,803,803,803,803,798,790,767,675,608,539,539,390,368,355,355,355,355,355,355,355,355,358,382,399,411,420,428],"ymouse":[545,545,545,545,545,545,545,545,545,545,545,545,545,545,545,545,545,545,545,545,545,545,545,545,545,545,545,545,545,545,545,545,545,545,545,545,545,545,545,545,545,545,545,545,545,545,545,545,545,545,545,545,545,545,545,545,545,545,545,545,545,545,545,545,545,545,545,545,545,545,545,545,545,545,545,545,545,545,545,545,545,545,545,545,545,545,545,545,545,545,545,545,545,545,545,545,545,545,545,545,545,545,545,545,545,547,554,589,600,606,610,613,619,620,620,620,620,620,620,620,620,620,620,620,620,620,620,620,602,573,516,439,262,152,39,39,0,0,0,0,0,0,0,0,0,0,0,7,11,15,19,21],"timestamp_mouse":[39,53,73,94,114,133,153,173,194,214,233,253,273,293,313,332,354,373,394,414,433,452,473,494,514,534,553,574,594,613,634,654,674,693,713,733,753,773,793,813,834,854,873,894,913,933,953,974,994,1014,1034,1054,1073,1094,1113,1132,1154,1174,1194,1213,1234,1253,1274,1293,1313,1333,1353,1373,1393,1414,1434,1454,1474,1494,1513,1533,1553,1573,1594,1613,1634,1654,1673,1693,1713,1734,1754,1774,1793,1814,1834,1854,1874,1893,1913,1933,1953,1974,1993,2013,2032,2054,2074,2094,2114,2132,2153,2173,2192,2213,2233,2254,2273,2294,2312,2333,2354,2374,2394,2414,2434,2453,2473,2493,2514,2533,2554,2574,2593,2614,2633,2653,2673,2693,2713,2734,2753,2773,2792,2812,2834,2854,2874,2893,2913,2934,2953,2973,2992,3014,3033,3052],"xSR":741.5,"ySR":490.1,"xT1":424.9,"yT1":0,"xT2":1058.1,"yT2":0,"toosoon":0,"cond_shown":"randomdotsizeEA","ratio_trial":750,"smaller_num":"3","larger_num":"4","correct_side":1,"subjID":"CarlosLeón12","gender":"0","age":"9","school":"4","test":{"fix_dur":[250,1500],"timestim":300,"targets_dim":[100,100],"targets_relative_coord":[0.3,0.7],"size_stim":[880,420],"start_dim":[100,100],"size_start":[300,300],"size_fix":60,"samplingrate":20,"img_types":["equaldotsize","equaldotanddens","randomdotsizeEA"],"ratios":[250,500,750,900],"rep_conds":9,"nTrials":120,"trials_to_rest":500,"Trials_order":[44,91,9,72,58,92,113,112,67,33,102,56,17,4,78,93,114,79,99,75,63,27,64,8,59,22,96,12,45,86,82,34,46,31,87,6,18,53,106,29,13,88,101,36,69,7,94,81,108,77,70,10,1,23,60,109,118,84,62,30,24,11,110,73,74,38,52,28,21,2,42,80,117,65,5,50,95,66,97,55,98,41,48,111,49,54,3,68,15,61,115,51,90,83,0,35,71,116,119,16,40,37,14,25,105,57,43,39,107,103,19,47,85,104,26,76,20,100,89,32],"cond_shown":["randomdotsizeEA","equaldotanddens","equaldotsize","equaldotsize","equaldotanddens","randomdotsizeEA","randomdotsizeEA","equaldotanddens","equaldotanddens","equaldotsize","equaldotsize","randomdotsizeEA","randomdotsizeEA","equaldotanddens","equaldotsize","equaldotsize","equaldotsize","equaldotanddens","equaldotsize","equaldotsize","equaldotsize","equaldotsize","equaldotanddens","randomdotsizeEA","randomdotsizeEA","equaldotanddens","equaldotsize","equaldotsize","equaldotsize","randomdotsizeEA","equaldotanddens","equaldotanddens","equaldotanddens","equaldotanddens","equaldotsize","equaldotsize","equaldotsize","randomdotsizeEA","equaldotanddens","randomdotsizeEA","equaldotanddens","equaldotanddens","randomdotsizeEA","equaldotsize","equaldotsize","equaldotanddens","equaldotanddens","equaldotsize","equaldotsize","randomdotsizeEA","equaldotanddens","equaldotanddens","equaldotanddens","randomdotsizeEA","equaldotsize","equaldotanddens","equaldotanddens","equaldotsize","randomdotsizeEA","equaldotsize","equaldotsize","randomdotsizeEA","randomdotsizeEA","equaldotanddens","randomdotsizeEA","randomdotsizeEA","equaldotanddens","equaldotanddens","equaldotsize","randomdotsizeEA","equaldotsize","randomdotsizeEA","equaldotsize","randomdotsizeEA","randomdotsizeEA","randomdotsizeEA","randomdotsizeEA","equaldotsize","equaldotanddens","equaldotanddens","randomdotsizeEA","randomdotsizeEA","equaldotsize","equaldotsize","equaldotanddens","equaldotsize","equaldotsize","randomdotsizeEA","equaldotsize","equaldotanddens","equaldotanddens","equaldotsize","equaldotsize","randomdotsizeEA","equaldotsize","randomdotsizeEA","randomdotsizeEA","randomdotsizeEA","randomdotsizeEA","equaldotanddens","equaldotanddens","equaldotanddens","randomdotsizeEA","equaldotanddens","equaldotsize","equaldotsize","equaldotanddens","equaldotsize","randomdotsizeEA","equaldotanddens","equaldotanddens","randomdotsizeEA","equaldotanddens","randomdotsizeEA","randomdotsizeEA","equaldotanddens","randomdotsizeEA","equaldotanddens","randomdotsizeEA","randomdotsizeEA"],"ratio_trial":[750,750,900,250,900,750,500,500,750,900,750,750,500,500,750,900,750,750,500,500,500,500,500,750,900,900,250,250,900,250,900,900,900,750,500,750,750,500,900,500,250,500,500,250,900,750,900,900,250,500,900,900,250,900,250,250,900,250,250,750,250,900,250,250,250,250,500,500,900,250,750,750,900,500,500,250,900,750,250,750,250,500,250,500,250,750,500,750,500,250,750,500,750,900,250,900,900,750,900,500,500,250,250,250,900,900,750,500,900,750,750,900,250,750,250,500,750,500,500,750],"smaller_num":["3","6","18","4","9","6","6","9","18","18","6","9","9","6","3","9","3","15","2","6","5","6","1","3","18","18","6","2","18","6","9","18","9","15","5","15","9","3","9","1","3","2","9","2","9","6","18","18","2","1","18","18","6","9","3","1","9","5","3","6","3","18","2","2","5","3","2","9","9","3","15","15","18","9","9","1","9","15","3","15","3","1","2","9","6","3","9","6","2","6","12","9","3","9","4","18","18","3","18","6","3","3","3","3","18","18","9","9","18","6","3","18","4","12","3","1","12","6","6","15"],"larger_num":["4","8","20","16","10","8","12","18","24","20","8","12","18","12","4","10","4","20","4","12","10","12","2","4","20","20","24","8","20","24","10","20","10","20","10","20","12","6","10","2","12","4","18","8","10","8","20","20","8","2","20","20","24","10","12","4","10","20","12","8","12","20","8","8","20","12","4","18","10","12","20","20","20","18","18","4","10","20","12","20","12","2","8","18","24","4","18","8","4","24","16","18","4","10","16","20","20","4","20","12","6","12","12","12","20","20","12","18","20","8","4","20","16","16","12","2","16","12","12","20"],"correct_side":[1,1,2,1,1,1,1,2,1,2,1,2,2,1,2,2,1,1,1,1,2,1,2,1,2,2,1,1,2,2,1,2,1,2,1,1,2,2,2,2,2,1,2,1,2,2,2,1,1,2,2,1,1,2,1,2,2,2,1,1,2,1,1,1,2,1,1,1,1,1,2,2,2,1,2,2,2,1,1,2,1,2,1,2,2,1,2,1,1,2,2,2,1,2,2,1,2,2,1,1,2,1,1,2,1,1,2,2,1,1,1,1,1,2,2,2,2,1,1,2],"img_shown":["img/750/randomdotsizeEA/L/8_Ratio_750_L_4_R_3.png","img/750/equaldotanddens/L/13_Ratio_750_L_8_R_6.png","img/900/equaldotsize/R/11_Ratio_900_L_18_R_20.png","img/250/equaldotsize/L/2_Ratio_250_L_16_R_4.png","img/900/equaldotanddens/L/1_Ratio_900_L_10_R_9.png","img/750/randomdotsizeEA/L/13_Ratio_750_L_8_R_6.png","img/500/randomdotsizeEA/L/13_Ratio_500_L_12_R_6.png","img/500/equaldotanddens/R/6_Ratio_500_L_9_R_18.png","img/750/equaldotanddens/L/6_Ratio_750_L_24_R_18.png","img/900/equaldotsize/R/11_Ratio_900_L_18_R_20.png","img/750/equaldotsize/L/13_Ratio_750_L_8_R_6.png","img/750/randomdotsizeEA/R/15_Ratio_750_L_9_R_12.png","img/500/randomdotsizeEA/R/1_Ratio_500_L_9_R_18.png","img/500/equaldotanddens/L/11_Ratio_500_L_12_R_6.png","img/750/equaldotsize/R/12_Ratio_750_L_3_R_4.png","img/900/equaldotsize/R/7_Ratio_900_L_9_R_10.png","img/750/equaldotsize/L/10_Ratio_750_L_4_R_3.png","img/750/equaldotanddens/L/1_Ratio_750_L_20_R_15.png","img/500/equaldotsize/L/10_Ratio_500_L_4_R_2.png","img/500/equaldotsize/L/13_Ratio_500_L_12_R_6.png","img/500/equaldotsize/R/14_Ratio_500_L_5_R_10.png","img/500/equaldotsize/L/11_Ratio_500_L_12_R_6.png","img/500/equaldotanddens/R/12_Ratio_500_L_1_R_2.png","img/750/randomdotsizeEA/L/10_Ratio_750_L_4_R_3.png","img/900/randomdotsizeEA/R/12_Ratio_900_L_18_R_20.png","img/900/equaldotanddens/R/9_Ratio_900_L_18_R_20.png","img/250/equaldotsize/L/5_Ratio_250_L_24_R_6.png","img/250/equaldotsize/L/3_Ratio_250_L_8_R_2.png","img/900/equaldotsize/R/13_Ratio_900_L_18_R_20.png","img/250/randomdotsizeEA/R/6_Ratio_250_L_6_R_24.png","img/900/equaldotanddens/L/1_Ratio_900_L_10_R_9.png","img/900/equaldotanddens/R/13_Ratio_900_L_18_R_20.png","img/900/equaldotanddens/L/1_Ratio_900_L_10_R_9.png","img/750/equaldotanddens/R/4_Ratio_750_L_15_R_20.png","img/500/equaldotsize/L/7_Ratio_500_L_10_R_5.png","img/750/equaldotsize/L/1_Ratio_750_L_20_R_15.png","img/750/equaldotsize/R/15_Ratio_750_L_9_R_12.png","img/500/randomdotsizeEA/R/2_Ratio_500_L_3_R_6.png","img/900/equaldotanddens/R/3_Ratio_900_L_9_R_10.png","img/500/randomdotsizeEA/R/15_Ratio_500_L_1_R_2.png","img/250/equaldotanddens/R/4_Ratio_250_L_3_R_12.png","img/500/equaldotanddens/L/5_Ratio_500_L_4_R_2.png","img/500/randomdotsizeEA/R/6_Ratio_500_L_9_R_18.png","img/250/equaldotsize/L/1_Ratio_250_L_8_R_2.png","img/900/equaldotsize/R/3_Ratio_900_L_9_R_10.png","img/750/equaldotanddens/R/2_Ratio_750_L_6_R_8.png","img/900/equaldotanddens/R/12_Ratio_900_L_18_R_20.png","img/900/equaldotsize/L/8_Ratio_900_L_20_R_18.png","img/250/equaldotsize/L/3_Ratio_250_L_8_R_2.png","img/500/randomdotsizeEA/R/12_Ratio_500_L_1_R_2.png","img/900/equaldotanddens/R/11_Ratio_900_L_18_R_20.png","img/900/equaldotanddens/L/10_Ratio_900_L_20_R_18.png","img/250/equaldotanddens/L/5_Ratio_250_L_24_R_6.png","img/900/randomdotsizeEA/R/7_Ratio_900_L_9_R_10.png","img/250/equaldotsize/L/15_Ratio_250_L_12_R_3.png","img/250/equaldotanddens/R/8_Ratio_250_L_1_R_4.png","img/900/equaldotanddens/R/6_Ratio_900_L_9_R_10.png","img/250/equaldotsize/R/12_Ratio_250_L_5_R_20.png","img/250/randomdotsizeEA/L/15_Ratio_250_L_12_R_3.png","img/750/equaldotsize/L/13_Ratio_750_L_8_R_6.png","img/250/equaldotsize/R/9_Ratio_250_L_3_R_12.png","img/900/randomdotsizeEA/L/10_Ratio_900_L_20_R_18.png","img/250/randomdotsizeEA/L/3_Ratio_250_L_8_R_2.png","img/250/equaldotanddens/L/1_Ratio_250_L_8_R_2.png","img/250/randomdotsizeEA/R/12_Ratio_250_L_5_R_20.png","img/250/randomdotsizeEA/L/15_Ratio_250_L_12_R_3.png","img/500/equaldotanddens/L/5_Ratio_500_L_4_R_2.png","img/500/equaldotanddens/L/4_Ratio_500_L_18_R_9.png","img/900/equaldotsize/L/1_Ratio_900_L_10_R_9.png","img/250/randomdotsizeEA/L/14_Ratio_250_L_12_R_3.png","img/750/equaldotsize/R/3_Ratio_750_L_15_R_20.png","img/750/randomdotsizeEA/R/4_Ratio_750_L_15_R_20.png","img/900/equaldotsize/R/12_Ratio_900_L_18_R_20.png","img/500/randomdotsizeEA/L/4_Ratio_500_L_18_R_9.png","img/500/randomdotsizeEA/R/1_Ratio_500_L_9_R_18.png","img/250/randomdotsizeEA/R/8_Ratio_250_L_1_R_4.png","img/900/randomdotsizeEA/R/5_Ratio_900_L_9_R_10.png","img/750/equaldotsize/L/1_Ratio_750_L_20_R_15.png","img/250/equaldotanddens/L/14_Ratio_250_L_12_R_3.png","img/750/equaldotanddens/R/4_Ratio_750_L_15_R_20.png","img/250/randomdotsizeEA/L/15_Ratio_250_L_12_R_3.png","img/500/randomdotsizeEA/R/15_Ratio_500_L_1_R_2.png","img/250/equaldotsize/L/3_Ratio_250_L_8_R_2.png","img/500/equaldotsize/R/1_Ratio_500_L_9_R_18.png","img/250/equaldotanddens/R/6_Ratio_250_L_6_R_24.png","img/750/equaldotsize/L/8_Ratio_750_L_4_R_3.png","img/500/equaldotsize/R/1_Ratio_500_L_9_R_18.png","img/750/randomdotsizeEA/L/14_Ratio_750_L_8_R_6.png","img/500/equaldotsize/L/10_Ratio_500_L_4_R_2.png","img/250/equaldotanddens/R/6_Ratio_250_L_6_R_24.png","img/750/equaldotanddens/R/11_Ratio_750_L_12_R_16.png","img/500/equaldotsize/R/1_Ratio_500_L_9_R_18.png","img/750/equaldotsize/L/8_Ratio_750_L_4_R_3.png","img/900/randomdotsizeEA/R/6_Ratio_900_L_9_R_10.png","img/250/equaldotsize/R/10_Ratio_250_L_4_R_16.png","img/900/randomdotsizeEA/L/10_Ratio_900_L_20_R_18.png","img/900/randomdotsizeEA/R/14_Ratio_900_L_18_R_20.png","img/750/randomdotsizeEA/R/7_Ratio_750_L_3_R_4.png","img/900/randomdotsizeEA/L/10_Ratio_900_L_20_R_18.png","img/500/equaldotanddens/L/11_Ratio_500_L_12_R_6.png","img/500/equaldotanddens/R/2_Ratio_500_L_3_R_6.png","img/250/equaldotanddens/L/14_Ratio_250_L_12_R_3.png","img/250/randomdotsizeEA/L/14_Ratio_250_L_12_R_3.png","img/250/equaldotanddens/R/4_Ratio_250_L_3_R_12.png","img/900/equaldotsize/L/8_Ratio_900_L_20_R_18.png","img/900/equaldotsize/L/10_Ratio_900_L_20_R_18.png","img/750/equaldotanddens/R/15_Ratio_750_L_9_R_12.png","img/500/equaldotsize/R/1_Ratio_500_L_9_R_18.png","img/900/randomdotsizeEA/L/8_Ratio_900_L_20_R_18.png","img/750/equaldotanddens/L/14_Ratio_750_L_8_R_6.png","img/750/equaldotanddens/L/8_Ratio_750_L_4_R_3.png","img/900/randomdotsizeEA/L/8_Ratio_900_L_20_R_18.png","img/250/equaldotanddens/L/2_Ratio_250_L_16_R_4.png","img/750/randomdotsizeEA/R/11_Ratio_750_L_12_R_16.png","img/250/randomdotsizeEA/R/11_Ratio_250_L_3_R_12.png","img/500/equaldotanddens/R/15_Ratio_500_L_1_R_2.png","img/750/randomdotsizeEA/R/11_Ratio_750_L_12_R_16.png","img/500/equaldotanddens/L/11_Ratio_500_L_12_R_6.png","img/500/randomdotsizeEA/L/13_Ratio_500_L_12_R_6.png","img/750/randomdotsizeEA/R/3_Ratio_750_L_15_R_20.png"],"Rat0":[["12_Ratio_0_L_9_R_0.png","13_Ratio_0_L_6_R_0.png","5_Ratio_0_L_2_R_0.png","6_Ratio_0_L_4_R_0.png","8_Ratio_0_L_6_R_0.png"],["1_Ratio_0_L_0_R_17.png","10_Ratio_0_L_0_R_22.png","11_Ratio_0_L_0_R_1.png","14_Ratio_0_L_0_R_24.png","15_Ratio_0_L_0_R_4.png","2_Ratio_0_L_0_R_5.png","3_Ratio_0_L_0_R_17.png","4_Ratio_0_L_0_R_7.png","7_Ratio_0_L_0_R_19.png","9_Ratio_0_L_0_R_15.png"]],"Rat250":[["1_Ratio_250_L_8_R_2.png","14_Ratio_250_L_12_R_3.png","15_Ratio_250_L_12_R_3.png","2_Ratio_250_L_16_R_4.png","3_Ratio_250_L_8_R_2.png","5_Ratio_250_L_24_R_6.png","7_Ratio_250_L_8_R_2.png"],["10_Ratio_250_L_4_R_16.png","11_Ratio_250_L_3_R_12.png","12_Ratio_250_L_5_R_20.png","13_Ratio_250_L_2_R_8.png","4_Ratio_250_L_3_R_12.png","6_Ratio_250_L_6_R_24.png","8_Ratio_250_L_1_R_4.png","9_Ratio_250_L_3_R_12.png"]],"Rat500":[["10_Ratio_500_L_4_R_2.png","11_Ratio_500_L_12_R_6.png","13_Ratio_500_L_12_R_6.png","4_Ratio_500_L_18_R_9.png","5_Ratio_500_L_4_R_2.png","7_Ratio_500_L_10_R_5.png","8_Ratio_500_L_8_R_4.png"],["1_Ratio_500_L_9_R_18.png","12_Ratio_500_L_1_R_2.png","14_Ratio_500_L_5_R_10.png","15_Ratio_500_L_1_R_2.png","2_Ratio_500_L_3_R_6.png","3_Ratio_500_L_10_R_20.png","6_Ratio_500_L_9_R_18.png","9_Ratio_500_L_2_R_4.png"]],"Rat750":[["1_Ratio_750_L_20_R_15.png","10_Ratio_750_L_4_R_3.png","13_Ratio_750_L_8_R_6.png","14_Ratio_750_L_8_R_6.png","6_Ratio_750_L_24_R_18.png","8_Ratio_750_L_4_R_3.png","9_Ratio_750_L_4_R_3.png"],["11_Ratio_750_L_12_R_16.png","12_Ratio_750_L_3_R_4.png","15_Ratio_750_L_9_R_12.png","2_Ratio_750_L_6_R_8.png","3_Ratio_750_L_15_R_20.png","4_Ratio_750_L_15_R_20.png","5_Ratio_750_L_15_R_20.png","7_Ratio_750_L_3_R_4.png"]],"Rat900":[["1_Ratio_900_L_10_R_9.png","10_Ratio_900_L_20_R_18.png","2_Ratio_900_L_20_R_18.png","4_Ratio_900_L_20_R_18.png","8_Ratio_900_L_20_R_18.png"],["11_Ratio_900_L_18_R_20.png","12_Ratio_900_L_18_R_20.png","13_Ratio_900_L_18_R_20.png","14_Ratio_900_L_18_R_20.png","15_Ratio_900_L_9_R_10.png","3_Ratio_900_L_9_R_10.png","5_Ratio_900_L_9_R_10.png","6_Ratio_900_L_9_R_10.png","7_Ratio_900_L_9_R_10.png","9_Ratio_900_L_18_R_20.png"]],"Rat1000":[["10_Ratio_1000_L_16_R_16.png","11_Ratio_1000_L_6_R_6.png","12_Ratio_1000_L_14_R_14.png","13_Ratio_1000_L_20_R_20.png","15_Ratio_1000_L_15_R_15.png","2_Ratio_1000_L_17_R_17.png","4_Ratio_1000_L_9_R_9.png","5_Ratio_1000_L_6_R_6.png","6_Ratio_1000_L_19_R_19.png","8_Ratio_1000_L_14_R_14.png","9_Ratio_1000_L_25_R_25.png"],["1_Ratio_1000_L_1_R_1.png","14_Ratio_1000_L_17_R_17.png","3_Ratio_1000_L_17_R_17.png","7_Ratio_1000_L_6_R_6.png"]]}},{"start_time":1552054916160,"click_time":1552054917281,"finger_time":1552054917121,"fix_duration":958.2002182474669,"trial":1,"RT":961,"MT":160,"sideResp":2,"stimulus":"img/750/equaldotanddens/L/13_Ratio_750_L_8_R_6.png","xmouse":[775,775,775,775,775,775,775,775,775,775,775,775,775,775,775,775,775,775,775,775,775,775,775,775,775,775,775,775,775,775,775,775,775,775,775,775,775,775,775,775,775,775,775,775,776,779,797,815,838,859,881,936,976,1006,1031,1061,1065],"ymouse":[649,649,649,649,649,649,649,649,649,649,649,649,649,649,649,649,649,649,649,649,649,649,649,649,649,649,649,649,649,649,649,649,649,649,649,649,649,649,649,649,649,649,649,649,649,646,625,599,563,516,467,346,261,196,161,110,96],"timestamp_mouse":[11,20,40,61,80,100,121,140,160,180,201,220,241,261,280,301,321,341,360,380,400,421,440,460,481,500,520,540,560,581,601,621,641,661,681,700,721,741,761,781,800,821,841,860,881,900,921,940,961,980,1000,1020,1040,1060,1080,1100,1120],"xSR":741.5,"ySR":573.95,"xT1":424.9,"yT1":0,"xT2":1058.1,"yT2":0,"toosoon":0,"cond_shown":"equaldotanddens","ratio_trial":750,"smaller_num":"6","larger_num":"8","correct_side":1,"subjID":"CarlosLeón12","gender":"0","age":"9","school":"4"},{"start_time":1552054919561,"click_time":1552054920800,"finger_time":1552054920480,"fix_duration":999.63107438452,"trial":2,"RT":919,"MT":320,"sideResp":2,"stimulus":"img/900/equaldotsize/R/11_Ratio_900_L_18_R_20.png","xmouse":[828,828,828,828,828,828,828,828,828,828,828,828,828,828,828,828,828,828,828,828,828,828,828,828,828,828,828,828,828,828,828,828,828,828,828,828,828,828,828,828,828,828,828,828,836,850,894,931,962,1006,1032,1052,1063,1066,1070,1071,1074,1074,1075,1092,1102,1108],"ymouse":[634,634,634,634,634,634,634,634,634,634,634,634,634,634,634,634,634,634,634,634,634,634,634,634,634,634,634,634,634,634,634,634,634,634,634,634,634,634,634,634,634,634,634,633,619,603,557,521,483,418,368,317,281,261,232,224,211,201,190,151,117,73],"timestamp_mouse":[20,39,59,80,99,119,140,160,178,200,220,240,259,279,299,320,339,359,380,400,420,440,459,479,499,520,539,558,579,600,618,639,660,680,699,718,739,759,779,799,820,838,860,880,899,919,939,960,979,999,1019,1039,1059,1079,1099,1120,1140,1159,1179,1198,1220,1239],"xSR":741.5,"ySR":573.95,"xT1":424.9,"yT1":0,"xT2":1058.1,"yT2":0,"toosoon":0,"cond_shown":"equaldotsize","ratio_trial":900,"smaller_num":"18","larger_num":"20","correct_side":2,"subjID":"CarlosLeón12","gender":"0","age":"9","school":"4"},{"start_time":1552054923551,"click_time":1552054924860,"finger_time":1552054924520,"fix_duration":250,"trial":3,"RT":969,"MT":340,"sideResp":1,"stimulus":"img/250/equaldotsize/L/2_Ratio_250_L_16_R_4.png","xmouse":[797,797,797,797,797,797,797,797,797,797,797,797,797,797,797,797,797,797,797,797,797,797,797,797,797,797,797,797,797,797,797,797,797,797,797,797,797,797,797,797,797,797,797,797,797,797,797,797,794,756,660,612,580,563,554,548,548,546,545,544,544,533,525,515,505,481],"ymouse":[621,621,621,621,621,621,621,621,621,621,621,621,621,621,621,621,621,621,621,621,621,621,621,621,621,621,621,621,621,621,621,621,621,621,621,621,621,621,621,621,621,621,621,621,621,621,621,617,539,407,181,88,23,0,0,0,0,0,0,0,0,0,0,0,0,9],"timestamp_mouse":[21,44,49,69,88,109,129,148,169,189,209,230,250,270,290,309,330,350,370,390,408,429,449,468,489,509,530,549,569,590,609,629,650,670,689,709,729,750,770,789,808,828,850,870,890,910,929,949,969,989,1008,1029,1050,1070,1090,1109,1130,1148,1169,1190,1209,1228,1250,1270,1289,1309],"xSR":741.5,"ySR":573.95,"xT1":424.9,"yT1":0,"xT2":1058.1,"yT2":0,"toosoon":0,"cond_shown":"equaldotsize","ratio_trial":250,"smaller_num":"4","larger_num":"16","correct_side":1,"subjID":"CarlosLeón12","gender":"0","age":"9","school":"4"},{"start_time":1552054926372,"click_time":1552054927800,"finger_time":1552054927121,"fix_duration":250,"trial":4,"RT":749,"MT":679,"sideResp":2,"stimulus":"img/900/equaldotanddens/L/1_Ratio_900_L_10_R_9.png","xmouse":[778,778,778,778,778,778,778,778,778,778,778,778,778,778,778,778,778,778,778,778,778,778,778,778,778,778,778,778,778,778,778,778,778,781,788,798,810,836,875,1020,1104,1183,1256,1308,1354,1359,1360,1360,1360,1359,1355,1349,1337,1317,1264,1225,1202,1185,1172,1163,1163,1163,1163,1163,1162,1162,1162,1162,1162,1162,1162,1155],"ymouse":[619,619,619,619,619,619,619,619,619,619,619,619,619,619,619,619,619,619,619,619,619,619,619,619,619,619,619,619,619,619,619,619,619,619,614,603,587,549,484,276,149,38,0,0,0,0,0,0,0,0,0,0,0,0,11,25,35,40,44,47,47,47,47,47,48,48,48,48,48,48,48,48],"timestamp_mouse":[13,39,48,68,89,109,129,148,169,188,209,228,248,269,289,309,328,348,369,389,409,428,449,468,489,509,528,549,569,588,608,627,648,668,688,709,728,749,769,788,808,828,848,869,888,909,929,949,968,988,1007,1029,1048,1068,1089,1108,1128,1149,1169,1188,1209,1229,1249,1269,1288,1308,1328,1348,1368,1388,1407,1428],"xSR":741.5,"ySR":573.95,"xT1":424.9,"yT1":0,"xT2":1058.1,"yT2":0,"toosoon":0,"cond_shown":"equaldotanddens","ratio_trial":900,"smaller_num":"9","larger_num":"10","correct_side":1,"subjID":"CarlosLeón12","gender":"0","age":"9","school":"4"},{"start_time":1552054929418,"click_time":1552054930940,"finger_time":1552054930500,"fix_duration":656.6507772953024,"trial":5,"RT":1082,"MT":440,"sideResp":2,"stimulus":"img/750/randomdotsizeEA/L/13_Ratio_750_L_8_R_6.png","xmouse":[797,797,797,797,797,797,797,797,797,797,797,797,797,797,797,797,797,797,797,797,797,797,797,797,797,797,797,797,797,797,797,797,797,797,797,797,797,797,797,797,797,797,797,797,797,797,797,797,797,797,797,797,797,805,822,849,889,1012,1066,1103,1120,1132,1137,1144,1154,1159,1163,1167,1167,1167,1167,1167,1168,1168,1166,1161,1157],"ymouse":[607,607,607,607,607,607,607,607,607,607,607,607,607,607,607,607,607,607,607,607,607,607,607,607,607,607,607,607,607,607,607,607,607,607,607,607,607,607,607,607,607,607,607,607,607,607,607,607,607,607,607,607,607,601,571,502,393,74,0,0,0,0,0,0,0,0,0,0,0,0,0,0,0,1,4,7,11],"timestamp_mouse":[15,38,41,62,83,102,121,142,162,181,203,222,242,261,283,301,323,343,363,383,401,421,443,463,482,501,522,543,563,581,602,622,642,663,683,702,723,742,763,783,803,823,843,863,883,903,923,943,963,983,1003,1022,1042,1062,1082,1102,1122,1142,1161,1183,1202,1223,1242,1262,1282,1302,1322,1342,1363,1383,1402,1422,1442,1462,1481,1502,1521],"xSR":741.5,"ySR":573.95,"xT1":424.9,"yT1":0,"xT2":1058.1,"yT2":0,"toosoon":0,"cond_shown":"randomdotsizeEA","ratio_trial":750,"smaller_num":"6","larger_num":"8","correct_side":1,"subjID":"CarlosLeón12","gender":"0","age":"9","school":"4"},{"start_time":1552054932413,"click_time":1552054933482,"finger_time":1552054933201,"fix_duration":250,"trial":6,"RT":788,"MT":281,"sideResp":1,"stimulus":"img/500/randomdotsizeEA/L/13_Ratio_500_L_12_R_6.png","xmouse":[822,822,822,822,822,822,822,822,822,822,822,822,822,822,822,822,822,822,822,822,822,822,822,822,822,822,822,822,822,822,822,822,822,822,822,822,822,822,816,804,793,781,758,747,736,700,667,624,616,610,604,591,525,477],"ymouse":[597,597,597,597,597,597,597,597,597,597,597,597,597,597,597,597,597,597,597,597,597,597,597,597,597,597,597,597,597,597,597,597,597,597,597,597,597,597,586,565,547,530,497,481,460,396,336,238,218,201,183,157,64,8],"timestamp_mouse":[12,37,47,67,87,107,128,147,168,187,207,228,247,266,288,307,327,347,368,388,407,428,448,468,487,507,528,548,567,588,608,628,647,668,688,707,728,747,767,788,807,828,846,868,887,907,927,947,967,987,1007,1027,1047,1068],"xSR":741.5,"ySR":573.95,"xT1":424.9,"yT1":0,"xT2":1058.1,"yT2":0,"toosoon":0,"cond_shown":"randomdotsizeEA","ratio_trial":500,"smaller_num":"6","larger_num":"12","correct_side":1,"subjID":"CarlosLeón12","gender":"0","age":"9","school":"4"},{"start_time":1552054942989,"click_time":1552054944040,"finger_time":1552054943721,"fix_duration":1067.7905788025082,"trial":7,"RT":732,"MT":319,"sideResp":2,"stimulus":"img/500/equaldotanddens/R/6_Ratio_500_L_9_R_18.png","xmouse":[832,832,832,832,832,832,832,832,832,832,832,832,832,832,832,832,832,832,832,832,832,832,832,832,832,832,832,832,832,832,832,832,832,832,832,832,861,905,1004,1035,1059,1073,1085,1092,1092,1092,1092,1092,1099,1103,1106,1108,1109],"ymouse":[626,626,626,626,626,626,626,626,626,626,626,626,626,626,626,626,626,626,626,626,626,626,626,626,626,626,626,626,626,626,626,626,626,626,626,625,587,531,394,327,263,209,175,137,134,134,134,134,128,120,111,103,98],"timestamp_mouse":[24,33,51,72,91,112,132,151,170,192,211,231,252,271,292,311,332,351,371,392,412,431,451,471,491,511,531,552,572,592,612,631,652,671,692,711,732,751,771,791,811,831,851,871,891,911,931,951,971,991,1011,1032,1050],"xSR":741.5,"ySR":573.95,"xT1":424.9,"yT1":0,"xT2":1058.1,"yT2":0,"toosoon":0,"cond_shown":"equaldotanddens","ratio_trial":500,"smaller_num":"9","larger_num":"18","correct_side":2,"subjID":"CarlosLeón12","gender":"0","age":"9","school":"4"},{"start_time":1552054946007,"click_time":1552054947000,"finger_time":1552054946740,"fix_duration":306.14007504242613,"trial":8,"RT":733,"MT":260,"sideResp":1,"stimulus":"img/750/equaldotanddens/L/6_Ratio_750_L_24_R_18.png","xmouse":[799,799,799,799,799,799,799,799,799,799,799,799,799,799,799,799,799,799,799,799,799,799,799,799,799,799,799,799,799,799,799,799,799,799,799,798,777,578,491,481,481,481,481,480,480,480,480,491,499,504],"ymouse":[594,594,594,594,594,594,594,594,594,594,594,594,594,594,594,594,594,594,594,594,594,594,594,594,594,594,594,594,594,594,594,594,594,594,594,593,573,331,197,181,181,181,181,139,118,113,112,106,101,98],"timestamp_mouse":[14,37,53,72,94,112,134,154,173,193,213,233,254,273,292,313,333,353,374,393,413,434,454,473,493,512,534,554,574,593,613,634,652,674,692,714,733,752,773,793,814,833,853,874,893,914,933,953,974,993],"xSR":741.5,"ySR":573.95,"xT1":424.9,"yT1":0,"xT2":1058.1,"yT2":0,"toosoon":0,"cond_shown":"equaldotanddens","ratio_trial":750,"smaller_num":"18","larger_num":"24","correct_side":1,"subjID":"CarlosLeón12","gender":"0","age":"9","school":"4"},{"start_time":1552054950778,"click_time":1552054952000,"finger_time":1552054951660,"fix_duration":994.5486550086131,"trial":9,"RT":882,"MT":340,"sideResp":2,"stimulus":"img/900/equaldotsize/R/11_Ratio_900_L_18_R_20.png","xmouse":[780,780,780,780,780,780,780,780,780,780,780,780,780,780,780,780,780,780,780,780,780,780,780,780,780,780,780,780,780,780,780,780,780,780,780,780,780,780,780,780,780,780,795,832,1004,1089,1184,1223,1244,1263,1267,1267,1267,1262,1258,1257,1255,1245,1229,1182,1164,1152],"ymouse":[651,651,651,651,651,651,651,651,651,651,651,651,651,651,651,651,651,651,651,651,651,651,651,651,651,651,651,651,651,651,651,651,651,651,651,651,651,651,651,651,651,651,643,625,511,445,345,271,206,137,122,112,102,91,76,70,66,53,43,27,24,23],"timestamp_mouse":[11,37,41,63,83,103,122,142,162,183,203,222,242,263,281,301,322,343,363,383,402,423,441,463,482,503,523,543,564,582,602,623,643,662,683,702,722,743,763,782,803,822,842,863,882,903,922,942,962,981,1001,1022,1042,1062,1082,1103,1122,1142,1162,1182,1203,1222],"xSR":741.5,"ySR":573.95,"xT1":424.9,"yT1":0,"xT2":1058.1,"yT2":0,"toosoon":0,"cond_shown":"equaldotsize","ratio_trial":900,"smaller_num":"18","larger_num":"20","correct_side":2,"subjID":"CarlosLeón12","gender":"0","age":"9","school":"4"},{"start_time":1552054955647,"click_time":1552054957281,"finger_time":1552054956560,"fix_duration":604.791740874722,"trial":10,"RT":913,"MT":721,"sideResp":2,"stimulus":"img/750/equaldotsize/L/13_Ratio_750_L_8_R_6.png","xmouse":[795,795,795,795,795,795,795,795,795,795,795,795,795,795,795,795,795,795,795,795,795,795,795,795,795,795,795,795,795,795,795,795,795,795,795,795,795,795,795,795,795,795,795,796,804,807,807,807,807,807,807,807,807,807,807,807,807,807,807,807,812,853,898,948,1052,1148,1212,1249,1320,1350,1367,1368,1368,1368,1368,1359,1323,1298,1262,1229,1199,1151],"ymouse":[615,615,615,615,615,615,615,615,615,615,615,615,615,615,615,615,615,615,615,615,615,615,615,615,615,615,615,615,615,615,615,615,615,615,615,615,615,615,615,615,615,615,615,608,575,542,542,542,542,542,542,542,542,542,542,542,542,542,542,542,539,506,412,336,239,122,53,19,0,0,0,0,0,0,0,0,0,0,0,0,0,8],"timestamp_mouse":[19,37,52,73,94,112,134,153,173,194,214,234,254,273,293,313,333,354,373,394,414,434,453,473,494,514,533,553,573,593,612,633,653,674,694,714,734,754,772,794,813,834,852,873,894,913,933,954,973,993,1012,1034,1053,1073,1094,1113,1133,1154,1173,1193,1213,1233,1253,1273,1293,1313,1333,1353,1373,1394,1413,1432,1453,1472,1493,1513,1533,1553,1572,1594,1613,1634],"xSR":741.5,"ySR":573.95,"xT1":424.9,"yT1":0,"xT2":1058.1,"yT2":0,"toosoon":0,"cond_shown":"equaldotsize","ratio_trial":750,"smaller_num":"6","larger_num":"8","correct_side":1,"subjID":"CarlosLeón12","gender":"0","age":"9","school":"4"},{"start_time":1552054960185,"click_time":1552054961381,"finger_time":1552054960841,"fix_duration":1264.5807159945748,"trial":11,"RT":656,"MT":540,"sideResp":1,"stimulus":"img/750/randomdotsizeEA/R/15_Ratio_750_L_9_R_12.png","xmouse":[806,806,806,806,806,805,804,802,800,800,800,800,800,800,800,800,800,800,799,794,791,785,782,777,776,776,776,776,776,776,776,773,771,753,720,706,659,618,510,471,448,437,436,436,436,436,436,436,436,436,436,436,436,436,436,436,435,434,434,434],"ymouse":[598,598,598,598,598,597,597,599,604,605,605,605,605,605,605,605,605,605,606,606,603,598,592,582,579,579,579,579,579,579,579,575,566,511,429,393,272,175,0,0,0,0,0,0,0,0,0,0,0,0,0,0,0,0,0,0,0,0,0,1],"timestamp_mouse":[16,38,55,76,95,115,135,156,175,195,215,235,255,275,296,315,335,355,375,395,415,434,456,475,496,515,536,555,576,595,615,635,656,675,695,715,735,755,776,795,815,836,855,875,895,916,936,956,976,995,1015,1036,1055,1075,1095,1115,1136,1156,1175,1196],"xSR":741.5,"ySR":573.95,"xT1":424.9,"yT1":0,"xT2":1058.1,"yT2":0,"toosoon":0,"cond_shown":"randomdotsizeEA","ratio_trial":750,"smaller_num":"9","larger_num":"12","correct_side":2,"subjID":"CarlosLeón12","gender":"0","age":"9","school":"4"},{"start_time":1552054962951,"click_time":1552054964681,"finger_time":1552054963900,"fix_duration":250,"trial":12,"RT":949,"MT":781,"sideResp":2,"stimulus":"img/500/randomdotsizeEA/R/1_Ratio_500_L_9_R_18.png","xmouse":[750,750,750,750,750,750,750,750,750,750,750,750,750,750,750,750,750,750,750,750,750,750,750,750,750,750,750,750,750,750,750,750,750,750,750,750,750,750,750,750,750,750,750,750,750,759,761,767,774,782,810,830,854,882,906,946,958,962,965,969,982,989,992,995,997,999,1007,1015,1020,1022,1023,1023,1025,1027,1029,1034,1036,1036,1036,1038,1043,1047,1051,1053,1054,1056,1068],"ymouse":[608,608,608,608,608,608,608,608,608,608,608,608,608,608,608,608,608,608,608,608,608,608,608,608,608,608,608,608,608,608,608,608,608,608,608,608,608,608,608,608,608,608,608,606,601,578,575,563,551,537,483,434,376,308,247,146,114,101,94,87,72,65,62,60,59,57,53,49,47,46,45,45,45,44,43,42,42,42,42,41,40,40,40,40,40,40,40],"timestamp_mouse":[21,43,50,70,90,109,129,149,170,190,209,229,250,269,290,309,329,350,369,390,409,429,449,470,489,509,530,550,570,590,609,630,648,668,690,709,730,750,769,790,809,829,850,869,888,909,930,949,970,989,1009,1029,1049,1069,1090,1109,1129,1149,1169,1189,1209,1229,1249,1269,1290,1308,1329,1349,1369,1390,1409,1429,1449,1469,1489,1509,1529,1549,1569,1589,1609,1629,1649,1669,1689,1709,1730],"xSR":741.5,"ySR":573.95,"xT1":424.9,"yT1":0,"xT2":1058.1,"yT2":0,"toosoon":0,"cond_shown":"randomdotsizeEA","ratio_trial":500,"smaller_num":"9","larger_num":"18","correct_side":2,"subjID":"CarlosLeón12","gender":"0","age":"9","school":"4"},{"start_time":1552054965970,"click_time":1552054967060,"finger_time":1552054966659,"fix_duration":289.69536663865114,"trial":13,"RT":689,"MT":401,"sideResp":1,"stimulus":"img/500/equaldotanddens/L/11_Ratio_500_L_12_R_6.png","xmouse":[829,829,829,829,829,829,829,829,829,829,829,829,829,829,829,829,829,829,829,829,829,829,829,829,829,829,829,829,829,829,828,821,818,814,789,752,720,685,652,603,588,576,567,561,548,540,537,531,528,526,526,527,527,527,521],"ymouse":[628,628,628,628,628,628,628,628,628,628,628,628,628,628,628,628,628,628,628,628,628,628,628,628,628,628,628,628,628,628,628,622,618,613,565,489,436,377,333,281,269,260,252,243,226,209,204,186,172,144,128,115,106,98,82],"timestamp_mouse":[12,37,50,71,91,110,130,151,170,190,211,231,251,271,291,309,330,350,370,390,409,431,450,471,491,510,531,549,570,590,610,631,651,671,689,710,730,751,769,790,810,830,851,871,890,910,931,951,971,990,1010,1031,1050,1070,1089],"xSR":741.5,"ySR":573.95,"xT1":424.9,"yT1":0,"xT2":1058.1,"yT2":0,"toosoon":0,"cond_shown":"equaldotanddens","ratio_trial":500,"smaller_num":"6","larger_num":"12","correct_side":1,"subjID":"CarlosLeón12","gender":"0","age":"9","school":"4"},{"start_time":1552054969097,"click_time":1552054970280,"finger_time":1552054969460,"fix_duration":636.6856675678428,"trial":14,"RT":363,"MT":820,"sideResp":2,"stimulus":"img/750/equaldotsize/R/12_Ratio_750_L_3_R_4.png","xmouse":[793,793,793,793,793,793,793,793,793,793,793,793,793,793,793,793,796,821,859,878,882,886,886,886,886,886,886,886,886,886,886,886,886,886,886,884,882,874,860,853,845,843,843,853,864,875,891,908,955,983,997,1011,1021,1034,1039,1044,1049,1057,1071,1116],"ymouse":[634,634,634,634,634,634,634,634,634,634,634,634,634,634,634,634,632,625,620,617,616,616,616,616,616,616,616,616,616,616,616,616,616,616,616,616,616,616,610,600,564,506,430,262,192,136,81,26,0,0,0,0,0,0,0,0,0,0,0,6],"timestamp_mouse":[20,28,45,62,83,104,124,142,164,184,204,224,243,264,284,302,324,342,363,383,403,424,444,464,483,504,523,544,563,582,604,624,644,665,683,704,723,742,763,782,803,823,843,863,883,903,923,943,963,983,1003,1023,1044,1063,1084,1103,1122,1144,1163,1183],"xSR":741.5,"ySR":573.95,"xT1":424.9,"yT1":0,"xT2":1058.1,"yT2":0,"toosoon":0,"cond_shown":"equaldotsize","ratio_trial":750,"smaller_num":"3","larger_num":"4","correct_side":2,"subjID":"CarlosLeón12","gender":"0","age":"9","school":"4"},{"start_time":1552054974610,"click_time":1552054976300,"finger_time":1552054975900,"fix_duration":1328.9923117105318,"trial":15,"RT":1290,"MT":400,"sideResp":1,"stimulus":"img/900/equaldotsize/R/7_Ratio_900_L_9_R_10.png","xmouse":[765,765,765,765,765,765,765,765,765,765,765,765,765,765,765,765,765,765,765,765,765,765,765,765,769,770,771,771,771,771,771,771,771,771,771,771,771,771,771,771,771,771,771,771,771,771,771,771,771,771,771,771,771,771,771,771,771,771,771,771,771,771,771,762,719,669,628,581,560,547,537,533,533,533,533,533,533,533,533,533,533,533,533,531,524],"ymouse":[625,625,625,625,625,625,625,625,625,625,625,625,625,625,625,625,625,625,625,625,625,625,625,625,611,605,601,599,599,599,599,599,599,599,599,599,599,599,599,599,599,599,599,599,599,599,599,599,599,599,599,599,599,599,599,599,599,599,599,599,599,599,599,593,551,477,403,258,182,111,45,0,0,0,0,0,0,0,0,0,0,0,0,5,20],"timestamp_mouse":[13,36,50,70,91,111,131,149,171,190,209,229,249,270,291,311,331,350,371,391,409,430,450,470,490,510,529,550,570,589,610,630,651,671,690,711,731,750,770,791,811,829,850,871,890,911,930,950,970,990,1010,1030,1051,1069,1090,1111,1131,1151,1170,1190,1210,1231,1250,1270,1290,1311,1331,1350,1370,1389,1409,1430,1450,1470,1489,1510,1530,1550,1569,1590,1610,1631,1650,1669,1690],"xSR":741.5,"ySR":573.95,"xT1":424.9,"yT1":0,"xT2":1058.1,"yT2":0,"toosoon":0,"cond_shown":"equaldotsize","ratio_trial":900,"smaller_num":"9","larger_num":"10","correct_side":2,"subjID":"CarlosLeón12","gender":"0","age":"9","school":"4"},{"start_time":1552054977696,"click_time":1552054979260,"finger_time":1552054979120,"fix_duration":273.5081857460349,"trial":16,"RT":1424,"MT":140,"sideResp":1,"stimulus":"img/750/equaldotsize/L/10_Ratio_750_L_4_R_3.png","xmouse":[804,804,804,804,804,804,804,804,804,804,804,804,804,804,804,804,804,804,804,804,804,804,804,804,804,804,804,804,804,804,804,804,804,804,804,804,804,804,804,804,804,804,804,804,804,804,804,804,804,804,804,804,804,804,804,804,804,804,804,804,804,804,804,804,804,804,804,804,804,801,777,737,694,602,561,533,512,493,450],"ymouse":[608,608,608,608,608,608,608,608,608,608,608,608,608,608,608,608,608,608,608,608,608,608,608,608,608,608,608,608,608,608,608,608,608,608,608,608,608,608,608,608,608,608,608,608,608,608,608,608,608,608,608,608,608,608,608,608,608,608,608,608,608,608,608,608,608,608,608,608,608,605,578,537,499,418,382,346,300,239,85],"timestamp_mouse":[12,32,44,65,84,103,125,145,165,184,204,225,243,264,285,305,325,345,365,385,404,423,444,465,484,505,524,544,564,583,605,625,644,664,685,705,725,745,765,785,805,825,845,863,885,904,925,945,965,984,1005,1024,1045,1064,1084,1105,1125,1144,1163,1185,1204,1224,1245,1264,1285,1304,1324,1343,1363,1385,1403,1424,1444,1463,1484,1504,1525,1544,1564],"xSR":741.5,"ySR":573.95,"xT1":424.9,"yT1":0,"xT2":1058.1,"yT2":0,"toosoon":0,"cond_shown":"equaldotsize","ratio_trial":750,"smaller_num":"3","larger_num":"4","correct_side":1,"subjID":"CarlosLeón12","gender":"0","age":"9","school":"4"},{"start_time":1552054982512,"click_time":1552054984820,"finger_time":1552054983680,"fix_duration":1170.1206994452461,"trial":17,"RT":1168,"MT":1140,"sideResp":1,"stimulus":"img/750/equaldotanddens/L/1_Ratio_750_L_20_R_15.png","xmouse":[785,785,785,785,785,785,785,785,785,785,785,785,785,785,785,785,785,785,785,785,785,785,785,785,785,785,785,785,785,785,785,785,785,785,785,785,785,785,785,785,785,785,785,785,785,785,785,785,785,785,785,785,785,785,785,785,785,779,727,645,546,502,468,467,467,467,467,467,467,467,467,467,467,467,467,467,467,467,467,467,467,467,467,467,467,467,467,467,467,467,467,467,467,467,467,467,467,467,467,467,467,467,467,467,467,467,467,467,467,467,467,467,467,467,467,467],"ymouse":[658,658,658,658,658,658,658,658,658,658,658,658,658,658,658,658,658,658,658,658,658,658,658,658,658,658,658,658,658,658,658,658,658,658,658,658,658,658,658,658,658,658,658,658,658,658,658,658,658,658,658,658,658,658,658,658,657,621,438,97,0,0,0,0,0,0,0,0,0,0,0,0,0,0,0,0,0,0,0,0,0,0,0,0,0,0,0,0,0,0,0,0,0,0,0,0,0,0,0,0,0,0,0,0,0,0,0,0,0,0,0,0,0,0,0,1],"timestamp_mouse":[12,35,49,68,89,108,128,148,169,188,208,229,249,269,289,309,328,348,369,388,408,429,449,467,489,509,528,548,569,588,608,628,648,668,688,709,728,749,768,789,808,829,847,868,889,908,929,948,969,989,1009,1027,1049,1069,1089,1109,1129,1148,1168,1187,1207,1228,1248,1268,1287,1308,1328,1348,1369,1388,1408,1429,1448,1469,1488,1509,1529,1547,1568,1588,1607,1628,1649,1669,1689,1708,1729,1748,1767,1787,1809,1828,1848,1869,1888,1910,1929,1948,1968,1989,2009,2029,2048,2067,2089,2109,2128,2148,2169,2189,2207,2228,2248,2267,2289,2308],"xSR":741.5,"ySR":573.95,"xT1":424.9,"yT1":0,"xT2":1058.1,"yT2":0,"toosoon":0,"cond_shown":"equaldotanddens","ratio_trial":750,"smaller_num":"15","larger_num":"20","correct_side":1,"subjID":"CarlosLeón12","gender":"0","age":"9","school":"4"},{"start_time":1552054988619,"click_time":1552054990541,"finger_time":1552054989481,"fix_duration":417.6263137009951,"trial":18,"RT":862,"MT":1060,"sideResp":1,"stimulus":"img/500/equaldotsize/L/10_Ratio_500_L_4_R_2.png","xmouse":[790,790,790,790,790,790,790,790,790,790,790,790,790,790,790,790,790,790,790,790,790,790,790,790,790,790,790,790,790,790,790,790,790,790,790,790,790,790,790,790,790,790,782,734,646,454,325,79,4,0,0,0,0,0,0,0,0,0,0,0,0,0,0,0,0,0,0,0,0,6,17,41,70,80,91,104,113,115,115,115,115,115,115,115,115,115,115,115,115,115,115,115,120,163,296,383,470],"ymouse":[662,662,662,662,662,662,662,662,662,662,662,662,662,662,662,662,662,662,662,662,662,662,662,662,662,662,662,662,662,662,662,662,662,662,662,662,662,662,662,662,662,662,622,462,185,0,0,0,0,0,0,0,0,0,0,0,0,0,0,0,0,0,0,0,0,0,0,0,0,2,10,32,57,66,78,92,100,100,100,100,100,100,100,100,100,100,100,100,100,100,100,100,100,82,55,42,29],"timestamp_mouse":[10,22,41,61,80,101,122,141,162,180,201,222,241,262,281,301,321,342,361,381,402,421,440,462,482,502,522,542,561,582,602,621,642,661,682,701,721,740,762,781,802,820,841,862,881,901,921,942,962,981,1002,1023,1042,1060,1081,1101,1122,1142,1161,1181,1201,1222,1240,1261,1281,1300,1322,1341,1362,1382,1400,1420,1441,1462,1481,1500,1521,1542,1560,1581,1601,1622,1641,1662,1681,1701,1721,1741,1762,1780,1802,1821,1841,1862,1882,1901,1922],"xSR":741.5,"ySR":573.95,"xT1":424.9,"yT1":0,"xT2":1058.1,"yT2":0,"toosoon":0,"cond_shown":"equaldotsize","ratio_trial":500,"smaller_num":"2","larger_num":"4","correct_side":1,"subjID":"CarlosLeón12","gender":"0","age":"9","school":"4"},{"start_time":1552054994333,"click_time":1552054995660,"finger_time":1552054995281,"fix_duration":250,"trial":19,"RT":948,"MT":379,"sideResp":1,"stimulus":"img/500/equaldotsize/L/13_Ratio_500_L_12_R_6.png","xmouse":[768,768,768,768,768,768,768,768,777,787,791,791,791,791,791,791,791,791,791,791,791,791,791,791,791,791,791,791,791,791,791,791,791,791,791,791,791,791,791,791,791,791,789,789,789,789,779,740,718,699,677,640,626,615,607,604,602,599,590,583,574,553,542,535,533,530,524],"ymouse":[652,652,652,652,652,652,652,652,655,655,655,655,655,655,655,655,655,655,655,655,655,655,655,655,655,655,655,655,655,655,655,655,655,655,655,655,655,655,655,655,655,658,660,660,660,661,634,501,427,384,347,283,260,241,226,218,209,192,174,159,144,115,101,93,89,86,75],"timestamp_mouse":[26,41,47,68,88,107,126,148,167,187,206,227,248,267,288,308,326,347,368,386,406,428,448,466,487,508,526,546,567,588,607,628,648,666,687,707,727,748,768,787,807,827,848,867,887,907,927,948,967,987,1006,1027,1047,1066,1086,1106,1126,1147,1167,1187,1207,1227,1247,1267,1287,1307,1326],"xSR":741.5,"ySR":573.95,"xT1":424.9,"yT1":0,"xT2":1058.1,"yT2":0,"toosoon":0,"cond_shown":"equaldotsize","ratio_trial":500,"smaller_num":"6","larger_num":"12","correct_side":1,"subjID":"CarlosLeón12","gender":"0","age":"9","school":"4"},{"start_time":1552054997060,"click_time":1552054998021,"finger_time":1552054997920,"fix_duration":338.58721476354316,"trial":20,"RT":860,"MT":101,"sideResp":2,"stimulus":"img/500/equaldotsize/R/14_Ratio_500_L_5_R_10.png","xmouse":[794,794,794,794,794,794,794,794,794,794,794,794,794,794,794,794,794,794,794,794,794,794,794,794,794,794,794,794,794,794,794,794,794,794,794,794,794,794,794,794,794,799,811,873,918,1009,1042,1070,1093],"ymouse":[660,660,660,660,660,660,660,660,660,660,660,660,660,660,660,660,660,660,660,660,660,660,660,660,660,660,660,660,660,660,660,660,660,660,660,660,660,660,660,660,660,655,632,521,441,283,213,145,92],"timestamp_mouse":[9,36,40,60,80,100,121,141,159,181,199,220,240,260,280,301,320,341,360,380,401,421,440,461,481,499,521,541,561,581,600,620,641,661,680,701,721,741,761,780,801,820,840,860,880,899,919,940,960],"xSR":741.5,"ySR":573.95,"xT1":424.9,"yT1":0,"xT2":1058.1,"yT2":0,"toosoon":0,"cond_shown":"equaldotsize","ratio_trial":500,"smaller_num":"5","larger_num":"10","correct_side":2,"subjID":"CarlosLeón12","gender":"0","age":"9","school":"4"},{"start_time":1552054999372,"click_time":1552055000541,"finger_time":1552055000159,"fix_duration":250,"trial":21,"RT":787,"MT":382,"sideResp":1,"stimulus":"img/500/equaldotsize/L/11_Ratio_500_L_12_R_6.png","xmouse":[794,794,794,794,794,794,794,794,794,794,794,794,794,794,794,794,794,794,794,794,794,794,794,794,794,794,794,794,794,794,794,794,794,794,794,794,794,794,794,778,768,761,751,738,697,677,662,642,632,602,583,561,539,519,481,466,464,460,460],"ymouse":[616,616,616,616,616,616,616,616,616,616,616,616,616,616,616,616,616,616,616,616,616,616,616,616,616,616,616,616,616,616,616,616,616,616,616,616,616,611,593,479,413,364,333,304,233,212,200,190,187,177,172,166,157,149,130,118,116,106,94],"timestamp_mouse":[19,54,54,68,89,109,129,148,167,188,208,228,247,269,289,309,328,348,368,388,409,428,448,469,487,508,528,548,569,587,609,629,649,669,688,708,727,747,768,787,808,828,848,868,888,909,928,949,968,988,1007,1028,1047,1068,1088,1108,1128,1147,1168],"xSR":741.5,"ySR":573.95,"xT1":424.9,"yT1":0,"xT2":1058.1,"yT2":0,"toosoon":0,"cond_shown":"equaldotsize","ratio_trial":500,"smaller_num":"6","larger_num":"12","correct_side":1,"subjID":"CarlosLeón12","gender":"0","age":"9","school":"4"},{"start_time":1552055002345,"click_time":1552055003460,"finger_time":1552055003020,"fix_duration":864.9878638981082,"trial":22,"RT":675,"MT":440,"sideResp":2,"stimulus":"img/500/equaldotanddens/R/12_Ratio_500_L_1_R_2.png","xmouse":[800,800,800,800,800,800,800,800,800,800,800,800,800,800,800,800,800,800,800,800,800,800,800,800,800,800,800,800,800,800,800,809,829,855,883,945,970,984,1009,1024,1039,1045,1047,1048,1049,1049,1050,1050,1050,1050,1050,1050,1050,1051,1051,1064],"ymouse":[615,615,615,615,615,615,615,615,615,615,615,615,615,615,615,615,615,615,615,615,615,615,615,615,615,615,615,615,615,615,615,607,578,535,470,327,268,217,122,63,11,0,0,0,0,0,0,0,0,0,0,0,0,0,0,9],"timestamp_mouse":[15,37,56,76,95,115,134,156,175,195,216,235,254,276,295,315,335,354,376,396,416,435,455,475,496,516,535,554,574,595,616,634,656,675,696,715,736,755,776,795,815,835,855,875,895,915,935,955,976,995,1015,1035,1056,1074,1096,1115],"xSR":741.5,"ySR":573.95,"xT1":424.9,"yT1":0,"xT2":1058.1,"yT2":0,"toosoon":0,"cond_shown":"equaldotanddens","ratio_trial":500,"smaller_num":"1","larger_num":"2","correct_side":2,"subjID":"CarlosLeón12","gender":"0","age":"9","school":"4"},{"start_time":1552055005739,"click_time":1552055006600,"finger_time":1552055006281,"fix_duration":1216.6151908195222,"trial":23,"RT":542,"MT":319,"sideResp":1,"stimulus":"img/750/randomdotsizeEA/L/10_Ratio_750_L_4_R_3.png","xmouse":[799,799,799,799,799,799,799,799,799,799,799,799,799,799,799,799,799,799,799,799,799,799,799,799,799,799,799,798,790,783,778,766,757,740,713,686,628,612,600,589,577,550,535,519],"ymouse":[584,584,584,584,584,584,584,584,584,584,584,584,584,584,584,584,584,584,584,584,584,584,584,584,584,584,584,572,524,494,470,432,410,376,330,283,187,163,145,129,113,72,54,36],"timestamp_mouse":[10,26,41,62,81,101,120,141,162,182,201,220,241,260,282,301,320,342,361,380,402,421,441,461,482,501,520,542,561,581,601,621,640,661,681,702,720,742,761,781,801,821,840,861],"xSR":741.5,"ySR":573.95,"xT1":424.9,"yT1":0,"xT2":1058.1,"yT2":0,"toosoon":0,"cond_shown":"randomdotsizeEA","ratio_trial":750,"smaller_num":"3","larger_num":"4","correct_side":1,"subjID":"CarlosLeón12","gender":"0","age":"9","school":"4"},{"start_time":1552055009232,"click_time":1552055010360,"finger_time":1552055010059,"fix_duration":409.43143898898006,"trial":24,"RT":827,"MT":301,"sideResp":2,"stimulus":"img/900/randomdotsizeEA/R/12_Ratio_900_L_18_R_20.png","xmouse":[832,832,831,831,831,829,829,827,826,826,824,824,823,823,823,823,823,823,823,823,823,823,823,823,823,823,823,823,823,823,823,823,823,823,823,823,823,823,826,833,895,940,992,1012,1022,1030,1032,1035,1038,1039,1045,1050,1055,1060,1067,1083],"ymouse":[646,636,632,628,626,621,616,613,609,607,602,601,601,600,599,599,599,599,599,599,599,599,599,599,599,599,599,599,599,599,599,599,599,599,599,599,599,599,592,577,468,403,327,290,266,226,212,201,193,187,174,163,152,140,123,86],"timestamp_mouse":[31,48,68,89,107,128,148,169,187,209,228,248,268,289,309,328,348,367,389,409,429,447,467,489,508,528,549,568,588,609,628,648,669,687,709,728,749,768,788,807,827,847,868,888,908,928,948,969,988,1008,1028,1048,1068,1089,1108,1128],"xSR":741.5,"ySR":573.95,"xT1":424.9,"yT1":0,"xT2":1058.1,"yT2":0,"toosoon":0,"cond_shown":"randomdotsizeEA","ratio_trial":900,"smaller_num":"18","larger_num":"20","correct_side":2,"subjID":"CarlosLeón12","gender":"0","age":"9","school":"4"},{"start_time":1552055012651,"click_time":1552055022959,"finger_time":1552055013459,"fix_duration":1249.3453398748366,"trial":25,"RT":808,"MT":9500,"sideResp":1,"stimulus":"img/900/equaldotanddens/R/9_Ratio_900_L_18_R_20.png","xmouse":[771,771,771,771,771,771,771,771,771,771,771,771,771,771,771,771,771,771,771,771,771,771,771,771,771,771,771,771,771,771,771,771,771,771,771,771,771,771,766,763,722,689,677,655,646,632,625,620,616,614,612,612,612,622,628,630,627,621,617,615,613,611,611,611,611,611,611,611,612,614,626,633,644,659,666,675,678,679,680,681,681,681,681,681,681,681,681,683,683,683,683,683,683,683,683,683,683,683,683,683,683,683,683,683,683,683,683,683,683,683,683,683,683,683,683,683,683,683,683,683,683,683,683,683,683,683,683,683,683,683,683,683,683,683,683,683,683,683,683,683,683,683,683,683,683,683,683,683,683,683,683,683,683,683,683,683,683,683,683,683,683,683,683,683,683,683,683,683,683,683,683,683,683,683,683,683,683,683,683,683,683,683,683,683,683,683,683,683,683,683,683,683,683,683,683,683,683,683,683,683,683,683,683,683,683,681,679,676,672,667,663,663,663,663,663,663,663,663,663,663,663,663,663,663,663,663,663,663,663,663,663,663,663,663,663,663,663,663,663,663,663,663,663,663,663,663,663,663,663,663,663,663,663,663,663,663,663,663,663,663,663,663,663,663,662,660,658,657,656,654,650,650,649,649,649,649,649,649,649,649,649,649,649,649,649,649,649,649,649,649,649,649,649,649,649,649,649,649,649,649,649,649,649,649,649,649,649,649,649,649,649,649,649,649,649,649,649,649,649,649,649,649,649,649,649,649,649,649,649,649,649,649,649,649,649,649,649,649,649,649,649,649,649,649,649,649,649,649,649,649,649,649,649,649,649,649,649,649,649,649,649,649,649,649,649,649,649,649,649,649,649,649,649,649,649,649,649,649,649,649,649,649,649,649,649,649,649,649,649,649,649,649,649,649,649,649,649,649,649,649,649,649,649,649,649,649,649,649,649,649,649,649,649,649,649,677,777,909,1032,1110,1165,1168,1168,1168,1168,1168,1168,1169,1169,1169,1169,1169,1169,1169,1169,1169,1169,1169,1169,1169,1169,1169,1169,1169,1169,1169,1169,1169,1169,1169,1169,1169,1169,1169,1169,1169,1169,1169,1169,1169,1169,1169,1169,1169,1169,1169,1169,1169,1169,1169,1169,1169,1169,1169,1169,1169,1169,1169,1169,1169,1169,1169,1169,1169,1169,1168,1136,1050,936,802,598,547,537,531,523,498,486,473,460,445,400,386,373,361,355,352,352,352,352,357,379,388,398,405,419,434],"ymouse":[600,600,600,600,600,600,600,600,600,600,600,600,600,600,600,600,600,600,600,600,600,600,600,600,600,600,600,600,600,600,600,600,600,600,600,600,600,600,588,578,515,485,474,451,437,411,400,389,381,377,353,334,326,298,279,245,230,216,207,202,197,195,195,195,195,195,195,196,197,205,219,226,233,242,246,252,253,254,254,255,256,257,257,257,257,257,257,257,257,257,257,257,257,257,257,257,257,257,257,257,257,257,257,257,257,257,257,257,257,257,257,257,257,257,257,257,257,257,257,257,257,257,257,257,257,257,257,257,257,257,257,257,257,257,257,257,257,257,257,257,257,257,257,257,257,257,257,257,257,257,257,257,257,257,257,257,257,257,257,257,257,257,257,257,257,257,257,257,257,257,257,257,257,257,257,257,257,257,257,257,257,257,257,257,257,257,257,257,257,257,257,257,257,257,257,257,257,257,257,257,257,257,257,257,256,263,265,268,273,280,283,283,283,283,283,283,283,283,283,283,283,283,283,283,283,283,283,283,283,283,283,283,283,283,283,283,283,283,283,283,283,283,283,283,283,283,283,283,283,283,283,283,283,283,283,283,283,283,283,283,283,283,283,283,283,291,293,295,298,301,308,309,310,310,310,310,310,310,310,310,310,310,310,310,310,310,310,310,310,310,310,310,310,310,310,310,310,310,310,310,310,310,310,310,310,310,310,310,310,310,310,310,310,310,310,310,310,310,310,310,310,310,310,310,310,310,310,310,310,310,310,310,310,310,310,310,310,310,310,310,310,310,310,310,310,310,310,310,310,310,310,310,310,310,310,310,310,310,310,310,310,310,310,310,310,310,310,310,310,310,310,310,310,310,310,310,310,310,310,310,310,310,310,310,310,310,310,310,310,310,310,310,310,310,310,310,310,310,310,310,310,310,310,310,310,310,310,310,310,310,310,310,310,310,310,309,293,274,254,232,213,211,211,211,211,210,208,206,205,205,205,205,205,205,205,205,205,205,205,205,205,205,205,205,205,205,205,205,205,205,205,205,205,205,205,205,205,205,205,205,205,205,205,205,205,205,205,205,205,205,205,205,205,205,205,205,205,205,205,205,205,205,205,205,205,203,181,133,75,17,0,0,0,0,0,0,0,0,0,0,0,0,0,0,2,3,3,6,9,16,31,35,37,39,43,48],"timestamp_mouse":[12,38,49,69,89,109,129,149,170,190,208,228,248,270,290,309,329,349,369,389,410,430,450,469,488,510,530,548,568,590,610,629,650,669,689,710,730,749,768,790,808,829,849,869,889,909,929,949,969,990,1008,1028,1048,1069,1089,1109,1129,1149,1169,1188,1208,1230,1249,1269,1288,1309,1329,1349,1369,1389,1408,1429,1448,1469,1489,1509,1529,1549,1568,1589,1608,1630,1648,1669,1689,1709,1728,1749,1770,1790,1808,1830,1849,1869,1889,1909,1929,1948,1968,1989,2009,2029,2049,2068,2090,2110,2129,2150,2169,2189,2209,2230,2248,2268,2290,2309,2329,2349,2370,2390,2410,2429,2450,2470,2489,2509,2529,2549,2569,2588,2609,2630,2649,2669,2689,2708,2729,2750,2770,2789,2810,2829,2849,2870,2890,2909,2929,2949,2968,2990,3009,3029,3049,3069,3088,3109,3129,3150,3169,3190,3208,3229,3249,3269,3289,3310,3328,3348,3369,3389,3410,3429,3449,3468,3490,3509,3530,3548,3569,3589,3608,3630,3650,3670,3689,3709,3729,3749,3769,3790,3810,3829,3850,3870,3889,3910,3929,3950,3969,3989,4008,4030,4049,4069,4089,4108,4129,4149,4169,4189,4208,4230,4249,4269,4290,4308,4329,4349,4369,4389,4409,4429,4449,4470,4489,4509,4530,4549,4569,4588,4610,4630,4648,4668,4690,4709,4729,4748,4769,4789,4809,4830,4849,4868,4890,4909,4930,4948,4970,4989,5009,5030,5049,5069,5088,5110,5129,5150,5168,5190,5209,5230,5250,5268,5288,5309,5329,5349,5369,5389,5408,5428,5449,5469,5490,5510,5529,5550,5569,5590,5610,5628,5649,5670,5689,5710,5728,5748,5769,5790,5810,5835,5849,5869,5889,5909,5929,5948,5969,5989,6010,6029,6050,6069,6090,6110,6129,6149,6169,6190,6210,6230,6249,6268,6289,6310,6330,6349,6368,6390,6409,6430,6449,6469,6489,6510,6528,6549,6569,6589,6610,6630,6649,6669,6689,6709,6730,6749,6770,6790,6809,6830,6849,6868,6890,6910,6929,6949,6968,6990,7009,7029,7050,7069,7090,7110,7129,7150,7168,7190,7209,7229,7249,7269,7289,7310,7330,7348,7369,7389,7410,7430,7448,7470,7489,7509,7529,7550,7569,7590,7608,7630,7649,7669,7690,7708,7730,7749,7770,7789,7810,7829,7849,7869,7889,7910,7929,7950,7970,7990,8009,8030,8050,8070,8089,8108,8130,8149,8169,8189,8210,8230,8249,8269,8290,8310,8329,8350,8369,8390,8408,8428,8449,8469,8489,8510,8529,8549,8569,8589,8609,8630,8649,8669,8690,8708,8729,8749,8769,8790,8810,8828,8850,8869,8890,8910,8929,8950,8969,8990,9009,9029,9049,9069,9089,9110,9128,9149,9170,9190,9210,9229,9248,9269,9290,9309,9329,9348,9370,9389,9409,9429,9450,9469,9490,9509,9529,9549,9569,9589,9609,9628,9648,9670,9689,9709,9730,9750,9769,9789,9809,9830,9850,9869,9890,9909,9929,9949,9969,9990,10009,10030,10048,10069,10089,10109,10129,10149,10168,10189,10208,10229,10248,10270,10290,10308],"xSR":741.5,"ySR":573.95,"xT1":424.9,"yT1":0,"xT2":1058.1,"yT2":0,"toosoon":0,"cond_shown":"equaldotanddens","ratio_trial":900,"smaller_num":"18","larger_num":"20","correct_side":2,"subjID":"CarlosLeón12","gender":"0","age":"9","school":"4"},{"start_time":1552055026493,"click_time":1552055029240,"finger_time":1552055029099,"fix_duration":1191.889171277902,"trial":26,"RT":2606,"MT":141,"sideResp":1,"stimulus":"img/250/equaldotsize/L/5_Ratio_250_L_24_R_6.png","xmouse":[806,806,806,806,806,806,806,806,806,806,806,806,806,806,806,806,806,806,806,806,806,806,806,806,806,806,806,806,806,806,806,806,806,806,806,806,806,806,806,806,806,806,806,806,806,806,806,806,806,806,806,806,806,806,806,806,806,806,806,806,806,806,806,806,806,806,806,806,806,806,806,806,806,806,806,806,806,806,806,806,806,806,806,806,806,806,806,806,806,806,806,806,806,806,806,806,806,806,806,806,806,806,806,806,806,806,806,806,806,806,806,806,806,806,806,806,806,806,806,806,806,806,806,806,806,806,806,806,806,804,782,745,704,630,592,548,495,448],"ymouse":[639,639,639,639,639,639,639,639,639,639,639,639,639,639,639,639,639,639,639,639,639,639,639,639,639,639,639,639,639,639,639,639,639,639,639,639,639,639,639,639,639,639,639,639,639,639,639,639,639,639,639,639,639,639,639,639,639,639,639,639,639,639,639,639,639,639,639,639,639,639,639,639,639,639,639,639,639,639,639,639,639,639,639,639,639,639,639,639,639,639,639,639,639,639,639,639,639,639,639,639,639,639,639,639,639,639,639,639,639,639,639,639,639,639,639,639,639,639,639,639,639,639,639,639,639,639,639,639,639,633,567,491,428,322,265,200,121,51],"timestamp_mouse":[8,27,46,67,87,107,127,146,167,187,207,228,248,267,287,308,327,346,366,386,408,426,446,467,488,507,527,548,567,588,607,626,648,668,687,708,726,748,767,786,807,828,847,867,887,907,928,947,968,987,1007,1028,1047,1067,1088,1108,1127,1148,1166,1188,1208,1228,1248,1268,1287,1307,1328,1348,1368,1388,1408,1427,1446,1468,1488,1506,1528,1547,1567,1588,1608,1627,1646,1666,1688,1708,1728,1748,1767,1788,1808,1827,1847,1868,1888,1908,1928,1946,1967,1987,2007,2027,2048,2066,2087,2107,2128,2148,2168,2187,2207,2227,2248,2268,2288,2306,2328,2348,2368,2386,2408,2427,2447,2468,2487,2508,2528,2548,2566,2587,2606,2627,2646,2666,2686,2707,2727,2747],"xSR":741.5,"ySR":573.95,"xT1":424.9,"yT1":0,"xT2":1058.1,"yT2":0,"toosoon":0,"cond_shown":"equaldotsize","ratio_trial":250,"smaller_num":"6","larger_num":"24","correct_side":1,"subjID":"CarlosLeón12","gender":"0","age":"9","school":"4"},{"start_time":1552055031002,"click_time":1552055037699,"finger_time":1552055037520,"fix_duration":400.1842174580975,"trial":27,"RT":6518,"MT":179,"sideResp":2,"stimulus":"img/250/equaldotsize/L/3_Ratio_250_L_8_R_2.png","xmouse":[757,757,757,757,757,757,757,757,757,757,757,757,757,757,757,757,757,757,757,757,757,757,757,757,757,757,757,757,757,757,757,757,757,757,757,757,757,757,757,757,757,757,757,757,757,757,757,757,757,757,757,757,757,757,757,757,757,757,757,757,757,757,757,757,757,757,757,757,757,757,757,757,757,757,757,757,757,757,757,757,757,757,757,757,757,757,757,757,757,757,757,757,757,757,757,757,757,757,757,757,757,757,757,757,757,757,757,757,757,757,757,757,757,757,757,757,757,757,757,757,757,757,757,757,757,757,757,757,757,757,757,757,757,757,757,757,757,757,757,757,757,757,757,757,757,757,757,757,757,757,757,757,757,757,757,757,757,757,757,757,757,757,757,757,757,757,757,757,757,757,757,757,757,757,757,757,757,757,757,757,757,757,757,757,757,757,757,757,757,757,757,757,757,757,757,757,757,757,757,757,757,757,757,757,757,757,757,757,757,757,757,757,757,757,757,757,757,757,757,757,757,757,757,757,757,757,757,757,757,757,757,757,757,757,757,757,757,757,757,757,757,757,757,757,757,757,757,757,757,757,757,757,757,757,757,757,757,757,757,757,757,757,757,757,757,757,757,757,757,757,757,757,757,757,757,757,757,757,757,757,757,757,757,757,757,757,757,757,757,757,757,757,757,757,757,757,757,757,757,757,757,757,757,757,757,757,757,757,757,757,757,757,757,757,757,757,757,757,757,757,757,757,757,760,759,761,777,829,865,893,914,938,1012,1060,1070],"ymouse":[630,630,630,630,630,630,630,630,630,630,630,630,630,630,630,630,630,630,630,630,630,630,630,630,630,630,630,630,630,630,630,630,630,630,630,630,630,630,630,630,630,630,630,630,630,630,630,630,630,630,630,630,630,630,630,630,630,630,630,630,630,630,630,630,630,630,630,630,630,630,630,630,630,630,630,630,630,630,630,630,630,630,630,630,630,630,630,630,630,630,630,630,630,630,630,630,630,630,630,630,630,630,630,630,630,630,630,630,630,630,630,630,630,630,630,630,630,630,630,630,630,630,630,630,630,630,630,630,630,630,630,630,630,630,630,630,630,630,630,630,630,630,630,630,630,630,630,630,630,630,630,630,630,630,630,630,630,630,630,630,630,630,630,630,630,630,630,630,630,630,630,630,630,630,630,630,630,630,630,630,630,630,630,630,630,630,630,630,630,630,630,630,630,630,630,630,630,630,630,630,630,630,630,630,630,630,630,630,630,630,630,630,630,630,630,630,630,630,630,630,630,630,630,630,630,630,630,630,630,630,630,630,630,630,630,630,630,630,630,630,630,630,630,630,630,630,630,630,630,630,630,630,630,630,630,630,630,630,630,630,630,630,630,630,630,630,630,630,630,630,630,630,630,630,630,630,630,630,630,630,630,630,630,630,630,630,630,630,630,630,630,630,630,630,630,630,630,630,630,630,630,630,630,630,630,630,630,630,630,630,630,630,630,630,630,630,630,630,630,630,630,630,630,620,605,566,527,428,378,341,314,279,172,106,92],"timestamp_mouse":[20,37,58,79,98,118,137,158,177,198,217,239,259,279,298,317,338,358,378,398,419,438,457,477,499,519,539,558,578,598,619,637,659,677,699,717,737,757,777,798,819,838,859,877,898,917,938,957,977,998,1018,1038,1058,1078,1098,1117,1137,1157,1178,1198,1218,1237,1257,1279,1299,1318,1337,1358,1379,1399,1418,1438,1457,1478,1499,1518,1537,1558,1578,1598,1618,1637,1658,1677,1697,1717,1737,1759,1779,1798,1817,1837,1858,1879,1899,1919,1939,1959,1979,1998,2017,2037,2057,2078,2099,2118,2138,2159,2178,2198,2219,2238,2259,2278,2297,2318,2338,2357,2378,2399,2418,2438,2457,2478,2497,2518,2538,2558,2578,2598,2617,2637,2659,2679,2697,2717,2738,2759,2779,2798,2817,2837,2858,2877,2899,2918,2939,2959,2978,2997,3018,3037,3059,3078,3097,3117,3139,3159,3177,3198,3218,3237,3258,3278,3298,3317,3337,3358,3378,3398,3417,3439,3457,3477,3497,3518,3538,3557,3578,3598,3618,3637,3658,3679,3698,3717,3738,3759,3779,3798,3817,3839,3858,3877,3898,3917,3939,3957,3979,3999,4018,4037,4058,4077,4098,4118,4139,4158,4178,4198,4218,4238,4257,4278,4297,4317,4338,4357,4378,4398,4419,4437,4458,4478,4498,4519,4537,4557,4578,4597,4617,4637,4657,4679,4699,4719,4737,4758,4778,4797,4817,4837,4858,4877,4899,4919,4937,4958,4978,4998,5017,5037,5059,5078,5097,5118,5137,5159,5177,5197,5217,5239,5258,5277,5298,5318,5339,5358,5377,5397,5417,5437,5458,5479,5497,5519,5538,5557,5577,5598,5618,5637,5659,5677,5698,5717,5738,5757,5779,5797,5818,5837,5858,5878,5897,5918,5938,5958,5978,5999,6017,6038,6057,6079,6099,6117,6137,6157,6179,6198,6217,6237,6258,6279,6298,6318,6337,6358,6378,6398,6418,6439,6457,6478,6498,6518,6538,6557,6577,6599,6618,6638,6657,6679,6697],"xSR":741.5,"ySR":573.95,"xT1":424.9,"yT1":0,"xT2":1058.1,"yT2":0,"toosoon":0,"cond_shown":"equaldotsize","ratio_trial":250,"smaller_num":"2","larger_num":"8","correct_side":1,"subjID":"CarlosLeón12","gender":"0","age":"9","school":"4"},{"start_time":1552055039992,"click_time":1552055041240,"finger_time":1552055040880,"fix_duration":250,"trial":28,"RT":888,"MT":360,"sideResp":1,"stimulus":"img/900/equaldotsize/R/13_Ratio_900_L_18_R_20.png","xmouse":[768,768,768,768,768,768,768,768,768,768,768,768,768,768,768,768,768,768,768,768,768,768,768,768,768,768,768,768,768,768,768,768,768,768,768,768,768,768,768,768,768,768,768,766,729,691,637,591,540,530,525,521,513,497,495,495,495,495,495,494,494,493,493],"ymouse":[633,633,633,633,633,633,633,633,633,633,633,633,633,633,633,633,633,633,633,633,633,633,633,633,633,633,633,633,633,633,633,633,633,633,633,633,633,633,633,633,633,633,633,629,498,360,213,90,0,0,0,0,0,0,0,0,0,0,0,0,0,0,2],"timestamp_mouse":[14,28,48,68,88,109,127,148,167,187,208,227,249,268,287,308,327,349,368,388,408,427,448,468,489,509,527,549,567,588,607,628,648,668,687,708,729,748,768,788,808,828,849,867,888,907,928,947,968,987,1007,1028,1047,1068,1088,1108,1127,1147,1168,1188,1208,1229,1248],"xSR":741.5,"ySR":573.95,"xT1":424.9,"yT1":0,"xT2":1058.1,"yT2":0,"toosoon":0,"cond_shown":"equaldotsize","ratio_trial":900,"smaller_num":"18","larger_num":"20","correct_side":2,"subjID":"CarlosLeón12","gender":"0","age":"9","school":"4"},{"start_time":1552055046047,"click_time":1552055047901,"finger_time":1552055047059,"fix_duration":1067.8619980107849,"trial":29,"RT":1012,"MT":842,"sideResp":2,"stimulus":"img/250/randomdotsizeEA/R/6_Ratio_250_L_6_R_24.png","xmouse":[763,763,763,763,763,763,763,763,763,763,763,763,763,763,763,763,763,763,763,763,763,763,763,763,763,763,763,763,763,763,763,763,763,763,763,763,763,763,763,763,763,763,763,763,763,763,763,763,763,763,707,675,640,627,616,601,595,591,583,578,564,554,549,544,539,520,519,518,518,518,549,617,750,827,895,974,987,987,987,987,987,988,990,992,995,999,1001,1003,1006,1009,1027,1046,1063],"ymouse":[659,659,659,659,659,659,659,659,659,659,659,659,659,659,659,659,659,659,659,659,659,659,659,659,659,659,659,659,659,659,659,659,659,659,659,659,659,659,659,659,659,659,659,659,659,659,659,659,660,658,561,515,456,428,405,342,301,250,201,157,89,59,42,21,12,0,0,0,0,0,6,27,81,108,131,154,158,158,158,158,158,151,134,115,98,75,68,62,58,52,37,29,25],"timestamp_mouse":[19,43,52,72,92,113,133,152,174,193,213,232,252,274,292,312,332,353,372,394,414,433,452,472,492,512,533,553,573,592,613,633,654,673,692,714,734,752,773,793,812,832,853,873,894,914,933,953,972,993,1012,1033,1052,1072,1092,1112,1132,1153,1173,1192,1213,1232,1252,1274,1293,1313,1333,1353,1373,1392,1413,1433,1452,1473,1493,1512,1534,1553,1573,1593,1613,1632,1652,1673,1692,1713,1733,1752,1772,1794,1812,1833,1854],"xSR":741.5,"ySR":573.95,"xT1":424.9,"yT1":0,"xT2":1058.1,"yT2":0,"toosoon":0,"cond_shown":"randomdotsizeEA","ratio_trial":250,"smaller_num":"6","larger_num":"24","correct_side":2,"subjID":"CarlosLeón12","gender":"0","age":"9","school":"4"},{"start_time":1552055050899,"click_time":1552055052060,"finger_time":1552055051719,"fix_duration":1437.3566215684737,"trial":30,"RT":820,"MT":341,"sideResp":1,"stimulus":"img/900/equaldotanddens/L/1_Ratio_900_L_10_R_9.png","xmouse":[808,808,808,808,808,808,808,808,808,808,808,808,808,808,808,808,808,808,808,808,808,808,808,808,808,808,808,808,808,808,808,808,808,808,808,808,808,808,808,808,806,783,749,678,652,633,623,614,588,571,558,546,538,533,533,533,533,531,514],"ymouse":[621,621,621,621,621,621,621,621,621,621,621,621,621,621,621,621,621,621,621,621,621,621,621,621,621,621,621,621,621,621,621,621,621,621,621,621,621,621,621,621,612,558,475,219,104,39,14,0,0,0,0,0,0,0,0,0,0,0,22],"timestamp_mouse":[10,20,43,61,80,100,122,141,160,180,201,221,240,261,281,300,320,341,362,380,401,422,440,460,482,501,520,540,562,580,602,620,641,662,680,700,720,741,761,781,800,820,841,860,881,901,921,940,960,980,1000,1021,1041,1061,1081,1102,1122,1141,1160],"xSR":741.5,"ySR":573.95,"xT1":424.9,"yT1":0,"xT2":1058.1,"yT2":0,"toosoon":0,"cond_shown":"equaldotanddens","ratio_trial":900,"smaller_num":"9","larger_num":"10","correct_side":1,"subjID":"CarlosLeón12","gender":"0","age":"9","school":"4"},{"start_time":1552055061037,"click_time":1552055062160,"finger_time":1552055061779,"fix_duration":1417.9827482028365,"trial":31,"RT":742,"MT":381,"sideResp":1,"stimulus":"img/900/equaldotanddens/R/13_Ratio_900_L_18_R_20.png","xmouse":[774,774,774,774,774,774,774,774,774,774,774,774,774,774,774,774,774,774,774,774,774,774,774,774,774,774,774,774,774,774,774,774,774,774,774,774,759,722,679,636,586,464,443,391,373,365,363,363,363,364,368,375,379,381,388,404,445],"ymouse":[651,651,651,651,651,651,651,651,651,651,651,651,651,651,651,651,651,651,651,651,651,651,651,651,651,651,651,651,651,651,651,651,651,651,651,651,625,570,505,430,362,195,162,74,38,17,0,0,0,0,0,0,0,0,0,2,16],"timestamp_mouse":[13,36,42,63,84,103,123,143,162,183,203,224,243,263,282,303,324,343,363,384,403,422,444,464,483,503,524,542,563,583,604,623,642,664,682,702,722,742,763,783,803,822,843,862,884,903,923,942,963,983,1002,1022,1042,1062,1083,1103,1123],"xSR":741.5,"ySR":573.95,"xT1":424.9,"yT1":0,"xT2":1058.1,"yT2":0,"toosoon":0,"cond_shown":"equaldotanddens","ratio_trial":900,"smaller_num":"18","larger_num":"20","correct_side":2,"subjID":"CarlosLeón12","gender":"0","age":"9","school":"4"},{"start_time":1552055064401,"click_time":1552055065580,"finger_time":1552055065199,"fix_duration":819.1842218645695,"trial":32,"RT":798,"MT":381,"sideResp":2,"stimulus":"img/900/equaldotanddens/L/1_Ratio_900_L_10_R_9.png","xmouse":[806,806,806,806,806,806,806,806,806,806,806,806,806,806,806,806,806,806,806,806,805,804,803,803,803,803,803,803,803,803,803,803,803,803,803,803,803,803,803,803,803,803,809,871,904,943,971,988,1004,1016,1025,1029,1037,1045,1046,1049,1053,1055,1059,1062],"ymouse":[648,648,648,648,648,648,648,648,648,648,648,648,648,648,648,648,648,648,648,648,637,623,615,613,613,613,613,613,613,613,613,613,613,613,613,613,613,613,613,598,557,495,435,262,183,114,66,37,7,0,0,0,0,0,0,0,0,0,0,1],"timestamp_mouse":[1,20,38,58,79,100,118,139,159,178,199,219,238,258,278,300,319,338,358,378,398,418,439,459,478,498,519,538,559,579,598,618,638,660,678,698,719,738,759,778,798,819,839,859,880,898,920,939,959,978,999,1018,1039,1059,1079,1098,1120,1139,1158,1179],"xSR":741.5,"ySR":573.95,"xT1":424.9,"yT1":0,"xT2":1058.1,"yT2":0,"toosoon":0,"cond_shown":"equaldotanddens","ratio_trial":900,"smaller_num":"9","larger_num":"10","correct_side":1,"subjID":"CarlosLeón12","gender":"0","age":"9","school":"4"},{"start_time":1552055067871,"click_time":1552055069379,"finger_time":1552055068379,"fix_duration":250,"trial":33,"RT":508,"MT":1000,"sideResp":2,"stimulus":"img/750/equaldotanddens/R/4_Ratio_750_L_15_R_20.png","xmouse":[783,783,783,783,783,783,783,782,782,782,782,782,782,782,782,782,782,782,782,782,782,782,782,782,765,741,716,693,674,646,634,618,607,599,590,590,590,590,590,590,590,590,590,590,590,590,590,604,614,614,608,607,612,618,622,629,641,659,677,735,748,779,799,814,842,865,887,901,906,918,926,947,968,991,1052,1095],"ymouse":[655,655,655,655,655,655,655,655,655,655,655,655,655,655,655,655,655,655,655,655,655,655,655,655,655,652,649,645,642,639,637,634,630,628,625,625,625,625,625,625,625,625,625,625,625,625,623,575,528,452,406,376,362,349,312,291,267,243,224,203,203,203,203,198,183,173,167,161,158,154,150,148,148,145,118,94],"timestamp_mouse":[13,35,49,68,89,110,128,149,170,189,208,229,248,269,289,309,328,348,368,389,409,429,448,468,488,508,529,548,570,588,609,628,648,668,688,708,728,749,769,790,809,828,849,868,889,909,930,948,968,988,1010,1029,1049,1068,1088,1108,1129,1149,1170,1189,1209,1229,1249,1268,1288,1308,1329,1349,1369,1388,1409,1428,1448,1468,1488,1508],"xSR":741.5,"ySR":573.95,"xT1":424.9,"yT1":0,"xT2":1058.1,"yT2":0,"toosoon":0,"cond_shown":"equaldotanddens","ratio_trial":750,"smaller_num":"15","larger_num":"20","correct_side":2,"subjID":"CarlosLeón12","gender":"0","age":"9","school":"4"},{"start_time":1552055074041,"click_time":1552055074980,"finger_time":1552055074899,"fix_duration":719.350074475758,"trial":34,"RT":858,"MT":81,"sideResp":1,"stimulus":"img/500/equaldotsize/L/7_Ratio_500_L_10_R_5.png","xmouse":[770,770,770,770,770,770,770,770,770,770,770,770,770,770,770,770,770,770,770,770,770,770,770,770,770,770,770,770,770,770,770,770,770,770,770,770,770,770,770,770,770,770,757,722,674,537,474],"ymouse":[603,603,603,603,603,603,603,603,603,603,603,603,603,603,603,603,603,603,603,603,603,603,603,603,603,603,603,603,603,603,603,603,603,603,603,603,603,603,603,603,603,600,564,481,375,155,55],"timestamp_mouse":[19,39,60,79,98,119,139,160,179,199,219,240,259,280,298,319,340,360,378,399,418,438,459,480,498,518,540,559,579,599,618,638,660,678,699,718,738,760,779,798,818,838,858,880,899,919,938],"xSR":741.5,"ySR":573.95,"xT1":424.9,"yT1":0,"xT2":1058.1,"yT2":0,"toosoon":0,"cond_shown":"equaldotsize","ratio_trial":500,"smaller_num":"5","larger_num":"10","correct_side":1,"subjID":"CarlosLeón12","gender":"0","age":"9","school":"4"},{"start_time":1552055078071,"click_time":1552055081720,"finger_time":1552055078859,"fix_duration":1431.5739627774644,"trial":35,"RT":788,"MT":2861,"sideResp":1,"stimulus":"img/750/equaldotsize/L/1_Ratio_750_L_20_R_15.png","xmouse":[797,797,797,797,797,797,797,797,797,797,797,797,797,797,797,797,797,797,797,797,797,797,797,797,797,797,797,797,797,797,797,797,797,797,797,797,797,797,797,778,733,606,560,434,332,304,294,294,294,294,294,294,294,294,294,294,294,294,294,294,294,294,294,294,294,294,294,294,300,373,478,597,622,629,630,630,630,630,630,630,630,630,630,630,630,630,630,630,630,630,630,630,630,630,630,630,630,630,630,630,630,630,630,630,630,630,630,630,630,630,630,630,630,630,630,630,630,630,630,630,630,630,630,630,630,630,630,625,571,332,229,192,192,192,192,192,192,192,192,192,192,192,192,192,192,192,192,192,192,192,192,192,192,192,198,239,324,404,446,457,457,457,457,457,457,457,457,457,457,457,457,457,457,457,457,457,457,457,457,457,459,467,478],"ymouse":[582,582,582,582,582,582,582,582,582,582,582,582,582,582,582,582,582,582,582,582,582,582,582,582,582,582,582,582,582,582,582,582,582,582,582,582,582,582,579,529,417,135,26,0,0,0,0,0,0,0,0,0,0,0,0,0,0,0,0,0,0,0,0,0,0,0,0,0,0,0,0,7,17,20,21,21,21,21,21,21,21,21,21,21,21,21,21,21,21,21,21,21,21,21,21,21,21,21,21,21,21,21,21,21,21,21,21,21,21,21,21,21,21,21,21,21,21,21,21,21,21,21,21,21,21,21,21,21,29,37,51,57,57,57,57,57,57,57,57,57,57,57,57,57,57,57,57,57,57,57,57,57,57,57,59,70,98,132,155,159,159,159,159,159,159,159,159,159,159,159,159,159,159,159,159,159,159,159,159,159,156,127,88],"timestamp_mouse":[12,34,49,70,88,108,128,150,168,188,208,229,248,269,289,309,330,350,369,388,408,430,448,469,489,510,529,548,568,589,610,630,648,669,689,710,728,750,769,788,808,828,849,869,888,910,929,950,969,989,1009,1028,1049,1068,1088,1108,1130,1149,1170,1190,1208,1230,1249,1270,1289,1309,1329,1348,1368,1389,1409,1428,1449,1468,1488,1509,1528,1548,1569,1590,1609,1629,1655,1668,1688,1708,1729,1748,1769,1789,1809,1829,1849,1868,1888,1908,1929,1949,1969,1989,2010,2029,2049,2069,2088,2109,2129,2150,2169,2188,2209,2228,2248,2268,2289,2310,2329,2349,2368,2388,2408,2429,2449,2470,2489,2509,2528,2548,2569,2589,2609,2628,2649,2669,2688,2708,2730,2750,2769,2788,2809,2828,2848,2869,2888,2910,2929,2949,2970,2988,3009,3028,3049,3068,3088,3108,3129,3149,3169,3188,3209,3229,3249,3270,3290,3309,3330,3348,3369,3389,3410,3430,3450,3468,3489,3509,3529,3549,3570,3589,3609,3628,3649],"xSR":741.5,"ySR":573.95,"xT1":424.9,"yT1":0,"xT2":1058.1,"yT2":0,"toosoon":0,"cond_shown":"equaldotsize","ratio_trial":750,"smaller_num":"15","larger_num":"20","correct_side":1,"subjID":"CarlosLeón12","gender":"0","age":"9","school":"4"},{"start_time":1552055084514,"click_time":1552055089180,"finger_time":1552055086359,"fix_duration":1032.2878798931627,"trial":36,"RT":1845,"MT":2821,"sideResp":2,"stimulus":"img/750/equaldotsize/R/15_Ratio_750_L_9_R_12.png","xmouse":[775,775,775,775,775,775,775,775,775,775,775,775,775,775,775,775,775,775,775,775,775,775,775,775,775,775,775,775,775,775,775,775,775,775,775,775,775,775,775,775,775,775,775,775,775,775,775,775,775,775,775,775,775,775,775,775,775,775,775,775,775,775,775,775,775,775,775,775,775,775,775,775,775,775,775,775,775,775,775,775,775,775,775,775,775,775,775,775,775,775,777,791,913,1014,1131,1258,1382,1570,1570,1570,1570,1570,1570,1570,1570,1570,1570,1570,1570,1570,1570,1570,1570,1570,1570,1570,1570,1570,1570,1570,1570,1570,1549,1526,1510,1502,1497,1491,1491,1491,1491,1491,1491,1491,1491,1491,1491,1491,1491,1483,1461,1432,1392,1388,1388,1388,1388,1388,1388,1388,1388,1388,1388,1388,1388,1388,1387,1373,1297,1262,1195,1194,1194,1194,1194,1194,1194,1194,1194,1194,1194,1194,1194,1194,1194,1194,1194,1194,1194,1194,1194,1194,1194,1170,1065,902,763,675,675,674,674,674,674,674,674,674,674,674,674,674,674,674,674,674,674,674,674,674,674,674,674,675,694,698,698,698,698,698,698,698,698,698,698,698,698,698,698,698,698,700,703,737,967,1085],"ymouse":[641,641,641,641,641,641,641,641,641,641,641,641,641,641,641,641,641,641,641,641,641,641,641,641,641,641,641,641,641,641,641,641,641,641,641,641,641,641,641,641,641,641,641,641,641,641,641,641,641,641,641,641,641,641,641,641,641,641,641,641,641,641,641,641,641,641,641,641,641,641,641,641,641,641,641,641,641,641,641,641,641,641,641,641,641,641,641,641,641,641,639,627,520,416,299,172,63,0,0,0,0,0,0,0,0,0,0,0,0,0,0,0,0,0,0,0,0,0,0,0,0,0,0,0,0,0,0,0,0,0,0,0,0,0,0,0,0,0,0,0,0,0,0,0,0,0,0,0,0,0,0,0,0,0,0,0,0,0,18,26,49,50,50,50,50,50,50,50,50,50,50,50,50,50,50,50,50,50,50,50,50,50,50,14,0,0,0,14,14,15,15,15,15,15,15,15,15,15,15,15,15,15,15,15,15,15,15,15,15,15,15,15,15,16,16,16,16,16,16,16,16,16,16,16,16,16,16,16,16,17,17,3,18,63],"timestamp_mouse":[12,26,46,66,85,107,125,145,165,186,206,225,245,265,286,306,326,345,366,385,406,427,447,466,485,505,527,545,566,587,606,627,646,666,687,705,726,746,765,787,807,826,845,865,886,907,926,946,966,985,1007,1027,1046,1065,1087,1106,1126,1145,1165,1187,1206,1225,1245,1265,1287,1305,1325,1347,1365,1387,1406,1425,1446,1465,1486,1506,1525,1545,1567,1585,1606,1626,1646,1665,1686,1706,1725,1746,1765,1786,1806,1825,1845,1865,1885,1905,1925,1947,1966,1986,2006,2026,2045,2065,2085,2105,2125,2145,2166,2186,2205,2226,2245,2265,2285,2305,2327,2346,2366,2385,2405,2425,2445,2466,2485,2505,2525,2545,2565,2586,2605,2626,2645,2665,2685,2705,2726,2746,2765,2785,2806,2825,2845,2865,2886,2906,2927,2947,2966,2985,3005,3027,3047,3065,3086,3105,3125,3146,3166,3186,3206,3227,3246,3265,3285,3306,3326,3346,3367,3387,3406,3425,3446,3467,3486,3506,3525,3545,3565,3586,3605,3626,3645,3665,3687,3706,3726,3746,3766,3787,3806,3825,3845,3865,3887,3905,3925,3946,3967,3986,4005,4026,4045,4067,4086,4106,4126,4145,4166,4185,4205,4226,4245,4266,4285,4307,4327,4347,4367,4386,4405,4426,4445,4466,4486,4506,4526,4546,4566,4585,4606,4626,4645,4666],"xSR":741.5,"ySR":573.95,"xT1":424.9,"yT1":0,"xT2":1058.1,"yT2":0,"toosoon":0,"cond_shown":"equaldotsize","ratio_trial":750,"smaller_num":"9","larger_num":"12","correct_side":2,"subjID":"CarlosLeón12","gender":"0","age":"9","school":"4"},{"start_time":1552055092913,"click_time":1552055094259,"finger_time":1552055093939,"fix_duration":991.3133252271894,"trial":37,"RT":1026,"MT":320,"sideResp":2,"stimulus":"img/500/randomdotsizeEA/R/2_Ratio_500_L_3_R_6.png","xmouse":[799,799,799,799,799,799,799,799,799,799,799,799,799,799,799,799,799,799,799,799,799,799,799,799,799,799,799,799,799,799,799,799,799,799,799,799,799,799,799,799,799,799,799,799,799,799,799,799,799,801,807,837,932,974,1011,1031,1044,1068,1084,1107,1133,1146,1151,1149,1147,1147,1146,1142],"ymouse":[604,604,604,604,604,604,604,604,604,604,604,604,604,604,604,604,604,604,604,604,604,604,604,604,604,604,604,604,604,604,604,604,604,604,604,604,604,604,604,604,604,604,604,604,604,604,604,604,604,601,595,566,471,421,382,365,354,323,301,268,232,205,157,136,123,117,112,96],"timestamp_mouse":[17,27,46,66,86,107,126,147,167,187,206,226,246,266,287,307,327,347,366,386,407,427,446,467,486,507,526,547,567,587,607,628,646,666,686,707,726,747,766,787,806,826,847,867,887,907,926,948,967,987,1007,1026,1047,1066,1086,1106,1126,1146,1166,1186,1206,1226,1246,1266,1286,1307,1326,1346],"xSR":741.5,"ySR":573.95,"xT1":424.9,"yT1":0,"xT2":1058.1,"yT2":0,"toosoon":0,"cond_shown":"randomdotsizeEA","ratio_trial":500,"smaller_num":"3","larger_num":"6","correct_side":2,"subjID":"CarlosLeón12","gender":"0","age":"9","school":"4"},{"start_time":1552055095843,"click_time":1552055098661,"finger_time":1552055098299,"fix_duration":520.6078750955306,"trial":38,"RT":2456,"MT":362,"sideResp":1,"stimulus":"img/900/equaldotanddens/R/3_Ratio_900_L_9_R_10.png","xmouse":[801,801,801,801,801,801,801,801,801,801,801,801,801,801,801,801,801,801,801,801,801,801,801,801,801,801,801,801,801,801,801,801,801,801,801,801,801,801,801,801,801,801,801,801,801,801,801,801,801,801,801,801,801,801,801,801,801,801,801,801,801,801,801,801,801,801,801,801,801,801,801,801,801,801,801,801,801,801,801,801,801,801,801,801,801,801,801,801,801,801,801,801,801,801,801,801,801,801,801,801,801,801,801,801,801,801,801,801,801,801,801,801,801,801,801,801,801,801,801,801,801,795,776,708,644,514,468,439,419,401,377,369,368,368,368,368,368,370,375,386,435],"ymouse":[621,621,621,621,621,621,621,621,621,621,621,621,621,621,621,621,621,621,621,621,621,621,621,621,621,621,621,621,621,621,621,621,621,621,621,621,621,621,621,621,621,621,621,621,621,621,621,621,621,621,621,621,621,621,621,621,621,621,621,621,621,621,621,621,621,621,621,621,621,621,621,621,621,621,621,621,621,621,621,621,621,621,621,621,621,621,621,621,621,621,621,621,621,621,621,621,621,621,621,621,621,621,621,621,621,621,621,621,621,621,621,621,621,621,621,621,621,621,621,621,621,603,570,464,375,207,149,110,87,62,23,4,0,0,0,0,0,0,0,0,1],"timestamp_mouse":[17,36,57,77,97,117,136,156,177,197,217,238,257,277,296,316,336,357,378,396,417,436,456,477,496,516,537,556,577,596,616,637,658,676,697,717,737,756,777,797,817,836,856,877,896,917,936,956,976,997,1016,1037,1057,1076,1096,1118,1136,1157,1177,1196,1216,1236,1257,1276,1296,1317,1337,1356,1377,1396,1417,1436,1456,1476,1498,1517,1536,1556,1577,1596,1616,1637,1657,1676,1697,1717,1737,1757,1777,1796,1817,1837,1857,1877,1898,1918,1937,1957,1976,1996,2016,2037,2058,2077,2097,2117,2136,2157,2176,2197,2216,2237,2257,2276,2297,2317,2336,2356,2377,2396,2416,2436,2456,2476,2496,2516,2536,2556,2576,2596,2616,2637,2657,2677,2697,2717,2737,2756,2776,2796,2818],"xSR":741.5,"ySR":573.95,"xT1":424.9,"yT1":0,"xT2":1058.1,"yT2":0,"toosoon":0,"cond_shown":"equaldotanddens","ratio_trial":900,"smaller_num":"9","larger_num":"10","correct_side":2,"subjID":"CarlosLeón12","gender":"0","age":"9","school":"4"},{"start_time":1552055100213,"click_time":1552055100999,"finger_time":1552055100699,"fix_duration":250,"trial":39,"RT":486,"MT":300,"sideResp":1,"stimulus":"img/500/randomdotsizeEA/R/15_Ratio_500_L_1_R_2.png","xmouse":[818,818,818,818,818,818,818,818,818,818,818,818,818,818,818,818,818,818,818,818,818,818,817,814,785,769,756,733,721,714,704,692,663,638,613,583,551,492,471,455],"ymouse":[617,617,617,617,617,617,617,617,617,617,617,617,617,617,617,617,617,617,617,617,617,617,617,608,550,522,501,472,460,451,439,427,393,362,331,294,254,160,118,71],"timestamp_mouse":[20,38,46,67,86,106,127,147,167,186,207,226,247,266,288,307,327,346,367,386,407,426,447,467,486,506,526,546,566,586,606,626,646,667,686,706,726,746,766,786],"xSR":741.5,"ySR":573.95,"xT1":424.9,"yT1":0,"xT2":1058.1,"yT2":0,"toosoon":0,"cond_shown":"randomdotsizeEA","ratio_trial":500,"smaller_num":"1","larger_num":"2","correct_side":2,"subjID":"CarlosLeón12","gender":"0","age":"9","school":"4"},{"start_time":1552055103038,"click_time":1552055104040,"finger_time":1552055103539,"fix_duration":755.155374743129,"trial":40,"RT":501,"MT":501,"sideResp":2,"stimulus":"img/250/equaldotanddens/R/4_Ratio_250_L_3_R_12.png","xmouse":[783,783,783,783,783,783,783,783,783,783,783,783,783,783,783,783,783,783,783,783,783,783,783,780,774,766,742,736,736,736,738,746,750,752,755,757,761,764,770,770,770,854,879,888,896,910,950,982,1018,1045,1068],"ymouse":[635,635,635,635,635,635,635,635,635,635,635,635,635,635,635,635,635,635,635,635,635,635,635,625,601,557,386,304,247,208,161,107,76,61,44,29,3,0,0,0,0,0,0,0,0,4,16,23,32,37,40],"timestamp_mouse":[9,30,42,61,81,101,121,142,161,181,203,222,242,261,281,301,322,341,362,381,401,421,441,461,482,501,521,541,561,581,603,622,642,661,681,702,722,741,762,783,802,821,841,861,881,901,921,941,961,982,1002],"xSR":741.5,"ySR":573.95,"xT1":424.9,"yT1":0,"xT2":1058.1,"yT2":0,"toosoon":0,"cond_shown":"equaldotanddens","ratio_trial":250,"smaller_num":"3","larger_num":"12","correct_side":2,"subjID":"CarlosLeón12","gender":"0","age":"9","school":"4"},{"start_time":1552055106361,"click_time":1552055107759,"finger_time":1552055107099,"fix_duration":501.4670468231205,"trial":41,"RT":738,"MT":660,"sideResp":1,"stimulus":"img/500/equaldotanddens/L/5_Ratio_500_L_4_R_2.png","xmouse":[775,775,775,775,775,775,775,775,775,775,775,775,775,775,775,775,775,775,775,775,775,775,775,775,776,776,777,777,777,777,777,777,777,777,776,773,735,680,616,476,415,374,340,319,303,301,300,300,300,300,300,301,308,330,380,400,418,420,420,420,420,420,420,420,420,420,420,420,422,440],"ymouse":[617,617,617,617,617,617,617,617,617,617,617,617,617,617,617,617,617,617,617,617,617,617,617,617,617,618,618,618,618,618,618,618,618,618,618,613,556,482,402,252,189,150,118,91,60,50,42,40,39,39,39,38,38,42,48,52,54,54,54,54,54,54,54,54,54,54,54,54,55,58],"timestamp_mouse":[19,38,60,78,98,118,139,158,180,199,219,238,258,278,298,319,338,360,378,398,418,438,458,478,498,518,538,559,579,599,619,639,659,679,698,719,738,758,778,798,819,838,858,879,898,919,938,959,978,998,1019,1039,1058,1079,1098,1118,1138,1159,1178,1198,1219,1239,1258,1280,1298,1319,1339,1359,1378,1398],"xSR":741.5,"ySR":573.95,"xT1":424.9,"yT1":0,"xT2":1058.1,"yT2":0,"toosoon":0,"cond_shown":"equaldotanddens","ratio_trial":500,"smaller_num":"2","larger_num":"4","correct_side":1,"subjID":"CarlosLeón12","gender":"0","age":"9","school":"4"},{"start_time":1552055110332,"click_time":1552055111039,"finger_time":1552055110759,"fix_duration":250,"trial":42,"RT":427,"MT":280,"sideResp":2,"stimulus":"img/500/randomdotsizeEA/R/6_Ratio_500_L_9_R_18.png","xmouse":[772,772,772,772,772,772,772,772,772,772,772,772,772,772,772,772,772,772,772,772,773,775,783,800,821,845,889,895,916,939,963,1014,1030,1047,1061,1093],"ymouse":[648,648,648,648,648,648,648,648,648,648,648,648,648,648,648,648,648,648,648,646,622,564,524,477,435,400,343,334,304,278,251,196,173,146,111,48],"timestamp_mouse":[12,40,47,68,88,107,127,147,167,187,207,227,247,268,288,307,328,348,369,388,407,427,447,468,487,508,527,548,567,587,608,627,647,667,687,707],"xSR":741.5,"ySR":573.95,"xT1":424.9,"yT1":0,"xT2":1058.1,"yT2":0,"toosoon":0,"cond_shown":"randomdotsizeEA","ratio_trial":500,"smaller_num":"9","larger_num":"18","correct_side":2,"subjID":"CarlosLeón12","gender":"0","age":"9","school":"4"},{"start_time":1552055116671,"click_time":1552055118299,"finger_time":1552055117579,"fix_duration":250,"trial":43,"RT":908,"MT":720,"sideResp":1,"stimulus":"img/250/equaldotsize/L/1_Ratio_250_L_8_R_2.png","xmouse":[792,792,792,792,792,792,792,792,792,792,792,792,792,792,792,792,792,792,792,792,792,792,792,792,792,792,792,792,792,792,792,792,792,792,792,792,792,792,792,792,792,792,791,789,778,769,758,747,737,712,701,684,674,664,648,638,631,623,617,606,600,591,584,576,565,558,549,539,530,522,521,520,520,519,517,515,514,513,512,508,506,500],"ymouse":[625,625,625,625,625,625,625,625,625,625,625,625,625,625,625,625,625,625,625,625,625,625,625,625,625,625,625,625,625,625,625,625,625,625,625,625,625,625,625,625,625,625,625,621,594,571,548,524,502,456,431,394,372,351,312,290,273,256,242,219,206,190,181,171,158,152,144,138,133,129,128,128,128,127,122,119,117,116,115,109,105,97],"timestamp_mouse":[13,38,48,68,89,108,128,148,168,189,209,229,249,268,290,308,329,348,368,389,408,430,449,469,489,508,529,548,569,588,609,628,648,668,689,708,728,748,768,788,808,828,849,868,888,908,928,948,968,988,1008,1028,1048,1068,1088,1108,1128,1148,1168,1188,1208,1228,1248,1268,1289,1308,1328,1348,1368,1388,1408,1429,1448,1468,1488,1508,1528,1549,1568,1588,1609,1628],"xSR":741.5,"ySR":573.95,"xT1":424.9,"yT1":0,"xT2":1058.1,"yT2":0,"toosoon":0,"cond_shown":"equaldotsize","ratio_trial":250,"smaller_num":"2","larger_num":"8","correct_side":1,"subjID":"CarlosLeón12","gender":"0","age":"9","school":"4"},{"start_time":1552055119867,"click_time":1552055121559,"finger_time":1552055120879,"fix_duration":726.557614303013,"trial":44,"RT":1012,"MT":680,"sideResp":2,"stimulus":"img/900/equaldotsize/R/3_Ratio_900_L_9_R_10.png","xmouse":[775,775,775,775,775,775,775,775,775,775,775,775,775,775,775,775,775,775,775,775,775,775,775,775,775,775,775,775,775,775,775,775,775,775,776,776,777,778,782,785,785,785,785,785,785,785,785,786,790,808,833,840,860,871,893,908,921,936,948,970,977,982,984,986,990,992,995,999,1002,1010,1012,1013,1014,1014,1015,1016,1019,1022,1026,1032,1035,1041,1046,1051,1060],"ymouse":[622,622,622,622,622,622,622,622,622,622,622,622,622,622,622,622,622,622,622,622,622,622,622,622,622,622,622,622,622,622,622,622,625,626,628,629,629,630,631,631,631,631,631,631,631,631,631,631,628,598,561,550,513,492,452,426,396,361,334,297,284,266,251,235,204,189,174,161,150,133,130,128,126,126,125,122,118,114,109,102,97,91,84,79,73],"timestamp_mouse":[13,38,53,72,92,112,132,153,173,192,214,233,253,272,292,312,332,352,373,392,413,432,453,472,493,512,532,553,573,592,613,632,652,672,693,712,733,752,772,792,813,833,853,873,892,913,933,952,973,992,1012,1032,1052,1072,1092,1113,1132,1152,1172,1192,1213,1232,1252,1272,1292,1312,1333,1352,1373,1392,1413,1432,1452,1472,1492,1512,1532,1552,1572,1592,1612,1632,1653,1672,1692],"xSR":741.5,"ySR":573.95,"xT1":424.9,"yT1":0,"xT2":1058.1,"yT2":0,"toosoon":0,"cond_shown":"equaldotsize","ratio_trial":900,"smaller_num":"9","larger_num":"10","correct_side":2,"subjID":"CarlosLeón12","gender":"0","age":"9","school":"4"},{"start_time":1552055124046,"click_time":1552055125639,"finger_time":1552055125079,"fix_duration":1405.6276574437509,"trial":45,"RT":1033,"MT":560,"sideResp":2,"stimulus":"img/750/equaldotanddens/R/2_Ratio_750_L_6_R_8.png","xmouse":[810,810,810,810,810,810,810,810,810,810,810,810,810,810,810,810,810,810,810,810,810,810,810,810,810,810,810,810,810,810,810,810,810,810,810,810,810,810,810,810,810,810,810,810,810,813,815,818,819,822,825,828,829,829,829,801,784,779,778,778,780,782,788,798,812,833,843,854,866,880,914,933,948,967,980,1008,1024,1042,1058,1077],"ymouse":[628,628,628,628,628,628,628,628,628,628,628,628,628,628,628,628,628,628,628,628,628,628,628,628,628,628,628,628,628,628,628,628,628,628,628,628,628,628,628,628,628,628,628,628,627,621,617,613,609,604,588,559,545,472,402,245,178,139,117,102,85,80,72,67,61,55,52,50,50,50,54,55,57,57,57,56,53,47,42,32],"timestamp_mouse":[13,43,53,73,93,113,134,153,174,193,214,234,255,273,294,313,334,354,374,394,414,434,454,474,493,513,534,554,574,593,613,635,654,674,693,714,734,753,775,794,814,833,854,874,893,913,933,954,973,994,1013,1033,1054,1073,1093,1113,1134,1153,1173,1193,1214,1233,1253,1273,1293,1313,1333,1353,1373,1394,1413,1433,1454,1473,1493,1513,1533,1554,1573,1593],"xSR":741.5,"ySR":573.95,"xT1":424.9,"yT1":0,"xT2":1058.1,"yT2":0,"toosoon":0,"cond_shown":"equaldotanddens","ratio_trial":750,"smaller_num":"6","larger_num":"8","correct_side":2,"subjID":"CarlosLeón12","gender":"0","age":"9","school":"4"},{"start_time":1552055127501,"click_time":1552055129699,"finger_time":1552055128800,"fix_duration":819.8009356499339,"trial":46,"RT":1299,"MT":899,"sideResp":1,"stimulus":"img/900/equaldotanddens/R/12_Ratio_900_L_18_R_20.png","xmouse":[800,800,800,800,800,800,800,800,800,800,800,800,800,800,800,800,800,800,800,800,800,800,800,800,800,800,800,800,800,800,800,800,800,800,800,800,800,800,800,800,800,800,800,800,800,800,800,800,800,800,800,800,800,800,800,800,800,800,800,800,800,800,800,797,794,791,788,771,701,661,477,347,179,144,124,112,103,96,95,96,102,111,140,161,177,189,202,242,283,306,324,333,337,337,340,348,356,367,368,375,388,402,421,422,422,423,423,423,423,425],"ymouse":[618,618,618,618,618,618,618,618,618,618,618,618,618,618,618,618,618,618,618,618,618,618,618,618,618,618,618,618,618,618,618,618,618,618,618,618,618,618,618,618,618,618,618,618,618,618,618,618,618,618,618,618,618,618,618,618,618,618,618,618,614,610,587,577,568,560,555,534,498,475,375,305,210,183,163,141,121,87,63,48,31,14,0,0,0,0,0,0,0,0,0,0,0,0,0,0,3,5,5,7,11,15,20,20,20,20,20,20,20,22],"timestamp_mouse":[18,38,59,78,98,118,139,158,179,198,219,239,258,278,299,318,339,358,379,399,418,438,458,478,498,518,538,558,578,599,618,640,659,678,699,719,739,758,779,799,818,838,858,879,899,918,939,958,980,998,1019,1038,1059,1079,1098,1118,1138,1159,1178,1199,1218,1238,1258,1278,1299,1318,1338,1358,1380,1398,1418,1438,1458,1478,1498,1518,1539,1558,1579,1598,1619,1639,1659,1678,1698,1718,1738,1758,1779,1798,1818,1839,1859,1879,1899,1919,1939,1958,1978,1998,2018,2040,2058,2078,2098,2118,2139,2158,2178,2198],"xSR":741.5,"ySR":573.95,"xT1":424.9,"yT1":0,"xT2":1058.1,"yT2":0,"toosoon":0,"cond_shown":"equaldotanddens","ratio_trial":900,"smaller_num":"18","larger_num":"20","correct_side":2,"subjID":"CarlosLeón12","gender":"0","age":"9","school":"4"},{"start_time":1552055133844,"click_time":1552055134759,"finger_time":1552055134559,"fix_duration":903.1755097379611,"trial":47,"RT":715,"MT":200,"sideResp":2,"stimulus":"img/900/equaldotsize/L/8_Ratio_900_L_20_R_18.png","xmouse":[806,806,806,806,806,806,806,806,806,806,806,806,806,806,806,806,806,806,806,806,806,806,806,806,806,806,806,806,806,806,806,806,806,806,808,863,938,1023,1097,1147,1180,1181,1181,1175,1168,1148],"ymouse":[602,602,602,602,602,602,602,602,602,602,602,602,602,602,602,602,602,602,602,602,602,602,602,602,602,602,602,602,602,602,602,602,602,602,602,568,518,460,398,330,204,174,156,133,118,85],"timestamp_mouse":[16,36,55,75,96,115,135,155,175,195,215,236,256,276,297,315,335,355,375,396,416,436,455,475,495,516,536,556,576,595,616,636,656,676,695,715,735,755,775,796,815,835,856,876,895,915],"xSR":741.5,"ySR":573.95,"xT1":424.9,"yT1":0,"xT2":1058.1,"yT2":0,"toosoon":0,"cond_shown":"equaldotsize","ratio_trial":900,"smaller_num":"18","larger_num":"20","correct_side":1,"subjID":"CarlosLeón12","gender":"0","age":"9","school":"4"},{"start_time":1552055137127,"click_time":1552055138080,"finger_time":1552055137959,"fix_duration":1046.0006638515924,"trial":48,"RT":832,"MT":121,"sideResp":2,"stimulus":"img/250/equaldotsize/L/3_Ratio_250_L_8_R_2.png","xmouse":[809,809,809,809,809,809,809,809,809,809,809,809,809,809,809,809,809,809,809,809,809,809,809,809,809,809,809,809,809,809,809,809,809,809,809,809,809,809,809,809,812,845,881,917,954,994,1049,1069],"ymouse":[619,619,619,619,619,619,619,619,619,619,619,619,619,619,619,619,619,619,619,619,619,619,619,619,619,619,619,619,619,619,619,619,619,619,619,619,619,619,619,619,612,575,528,461,365,258,89,41],"timestamp_mouse":[12,33,52,73,93,113,133,153,172,192,212,233,252,272,292,313,332,352,373,392,413,432,453,472,493,512,533,552,572,593,612,633,652,672,692,713,732,753,773,793,812,832,853,872,892,912,932,953],"xSR":741.5,"ySR":573.95,"xT1":424.9,"yT1":0,"xT2":1058.1,"yT2":0,"toosoon":0,"cond_shown":"equaldotsize","ratio_trial":250,"smaller_num":"2","larger_num":"8","correct_side":1,"subjID":"CarlosLeón12","gender":"0","age":"9","school":"4"},{"start_time":1552055139472,"click_time":1552055140600,"finger_time":1552055140539,"fix_duration":431.6569052480131,"trial":49,"RT":1067,"MT":61,"sideResp":2,"stimulus":"img/500/randomdotsizeEA/R/12_Ratio_500_L_1_R_2.png","xmouse":[775,775,775,775,775,775,775,775,775,775,775,775,775,775,775,775,775,775,775,775,775,775,775,775,775,775,775,775,775,775,775,775,775,775,775,775,775,775,775,775,775,775,775,775,775,775,775,775,775,775,775,778,802,847,990,1059,1108],"ymouse":[618,618,618,618,618,618,618,618,618,618,618,618,618,618,618,618,618,618,618,618,618,618,618,618,618,618,618,618,618,618,618,618,618,618,618,618,618,618,618,618,618,618,618,618,618,618,618,618,618,618,618,611,578,513,264,121,13],"timestamp_mouse":[16,33,47,67,87,108,128,147,167,188,209,227,248,268,287,308,327,348,368,387,408,427,447,467,488,508,527,547,567,588,608,628,648,667,687,708,728,748,767,789,807,828,848,869,888,908,928,947,968,988,1008,1027,1048,1067,1087,1107,1128],"xSR":741.5,"ySR":573.95,"xT1":424.9,"yT1":0,"xT2":1058.1,"yT2":0,"toosoon":0,"cond_shown":"randomdotsizeEA","ratio_trial":500,"smaller_num":"1","larger_num":"2","correct_side":2,"subjID":"CarlosLeón12","gender":"0","age":"9","school":"4"},{"start_time":1552055144983,"click_time":1552055146699,"finger_time":1552055146660,"fix_duration":1281.3619892424726,"trial":50,"RT":1677,"MT":39,"sideResp":1,"stimulus":"img/900/equaldotanddens/R/11_Ratio_900_L_18_R_20.png","xmouse":[767,767,767,767,767,767,767,767,767,767,767,767,767,767,767,767,767,767,767,767,767,767,767,767,767,767,767,767,767,767,767,767,767,767,767,767,767,767,767,767,767,767,768,769,769,771,771,771,771,771,771,771,771,771,771,771,771,771,771,771,771,771,771,771,771,771,771,771,771,771,771,771,771,771,771,771,771,771,771,771,771,771,762,664,600,515],"ymouse":[658,658,658,658,658,658,658,658,658,658,658,658,658,658,658,658,658,658,658,658,658,658,658,658,658,658,658,658,658,658,658,658,658,658,658,658,658,658,658,658,658,658,657,647,645,638,635,634,633,633,633,633,633,633,633,633,633,633,633,633,633,633,633,633,633,633,633,633,633,633,633,633,633,633,633,633,633,633,633,633,633,615,580,346,231,99],"timestamp_mouse":[17,38,56,76,97,117,136,156,176,196,217,236,256,277,296,317,336,356,377,397,417,436,456,477,497,517,538,557,577,597,617,636,657,676,696,716,737,757,776,797,816,836,856,876,896,916,936,956,977,997,1016,1037,1058,1077,1096,1116,1136,1157,1176,1196,1216,1236,1256,1277,1298,1318,1336,1357,1377,1396,1417,1436,1457,1477,1497,1516,1537,1556,1576,1597,1616,1636,1657,1677,1696,1716],"xSR":741.5,"ySR":573.95,"xT1":424.9,"yT1":0,"xT2":1058.1,"yT2":0,"toosoon":0,"cond_shown":"equaldotanddens","ratio_trial":900,"smaller_num":"18","larger_num":"20","correct_side":2,"subjID":"CarlosLeón12","gender":"0","age":"9","school":"4"},{"start_time":1552055148150,"click_time":1552055149720,"finger_time":1552055149059,"fix_duration":250,"trial":51,"RT":909,"MT":661,"sideResp":2,"stimulus":"img/900/equaldotanddens/L/10_Ratio_900_L_20_R_18.png","xmouse":[804,799,799,790,785,780,775,774,769,767,764,763,762,761,759,758,758,757,755,755,755,755,755,755,755,755,755,755,755,755,755,755,755,755,755,755,755,755,755,755,755,755,755,756,763,826,886,917,945,959,973,974,976,976,978,980,983,991,996,1004,1006,1011,1017,1025,1032,1041,1044,1045,1046,1046,1049,1051,1053,1055,1056,1056,1056,1057,1060],"ymouse":[638,638,638,638,638,638,637,637,637,637,636,636,636,636,636,636,637,637,638,639,639,639,639,639,639,639,639,639,639,639,639,639,639,639,639,639,639,639,639,639,639,639,639,631,616,476,327,229,147,90,47,43,40,39,37,34,32,28,25,21,21,21,21,22,23,23,23,23,23,23,23,23,23,23,23,23,23,22,20],"timestamp_mouse":[16,44,49,69,89,109,130,149,170,189,209,229,249,270,290,309,330,349,370,390,410,429,450,469,490,509,529,550,570,589,609,630,649,670,690,709,730,750,770,790,810,830,849,869,890,909,930,949,970,989,1010,1029,1050,1069,1090,1109,1129,1149,1170,1191,1209,1229,1249,1270,1290,1309,1329,1349,1370,1389,1410,1430,1450,1470,1489,1509,1530,1549,1569],"xSR":741.5,"ySR":573.95,"xT1":424.9,"yT1":0,"xT2":1058.1,"yT2":0,"toosoon":0,"cond_shown":"equaldotanddens","ratio_trial":900,"smaller_num":"18","larger_num":"20","correct_side":1,"subjID":"CarlosLeón12","gender":"0","age":"9","school":"4"},{"start_time":1552055151352,"click_time":1552055152560,"finger_time":1552055152138,"fix_duration":250,"trial":52,"RT":786,"MT":422,"sideResp":1,"stimulus":"img/250/equaldotanddens/L/5_Ratio_250_L_24_R_6.png","xmouse":[768,768,768,768,768,768,768,768,768,768,768,768,768,768,768,766,766,762,760,760,760,760,760,760,760,760,760,760,760,760,760,760,760,760,760,760,760,759,757,751,718,693,662,634,614,597,595,594,594,594,593,591,589,588,587,587,583,563,549,536,520],"ymouse":[604,604,604,604,604,604,604,604,604,604,604,604,604,601,598,588,586,582,580,580,580,580,580,580,580,580,580,580,580,580,580,580,580,580,580,580,580,579,574,553,433,336,246,181,135,87,68,35,13,0,0,0,0,0,0,0,0,0,4,10,21],"timestamp_mouse":[12,37,48,67,87,108,127,147,167,187,207,227,248,267,288,308,328,347,368,387,408,427,447,468,487,507,528,546,566,588,608,628,647,668,686,707,728,747,767,786,806,828,848,866,887,906,927,947,967,988,1009,1027,1048,1068,1088,1107,1126,1147,1166,1187,1207],"xSR":741.5,"ySR":573.95,"xT1":424.9,"yT1":0,"xT2":1058.1,"yT2":0,"toosoon":0,"cond_shown":"equaldotanddens","ratio_trial":250,"smaller_num":"6","larger_num":"24","correct_side":1,"subjID":"CarlosLeón12","gender":"0","age":"9","school":"4"},{"start_time":1552055154130,"click_time":1552055155280,"finger_time":1552055154879,"fix_duration":369.7203743937837,"trial":53,"RT":749,"MT":401,"sideResp":2,"stimulus":"img/900/randomdotsizeEA/R/7_Ratio_900_L_9_R_10.png","xmouse":[803,803,803,803,803,803,803,803,803,803,803,803,803,803,803,803,803,803,803,803,803,803,803,803,803,803,803,803,803,803,803,803,803,803,803,809,825,852,874,917,972,1085,1122,1151,1165,1175,1182,1184,1187,1188,1188,1188,1186,1183,1177,1171,1159,1158],"ymouse":[594,594,594,594,594,594,594,594,594,594,594,594,594,594,594,594,594,594,594,594,594,594,594,594,594,594,594,594,594,594,594,594,594,594,594,590,579,557,540,514,474,356,292,234,192,161,116,101,81,73,67,60,56,53,52,50,46,46],"timestamp_mouse":[13,44,48,70,90,109,130,150,169,189,209,230,249,270,289,310,330,349,370,390,410,428,449,470,490,509,530,550,568,588,610,629,649,670,690,709,728,749,768,790,809,829,848,868,889,908,929,950,969,989,1009,1028,1048,1068,1088,1109,1128,1150],"xSR":741.5,"ySR":573.95,"xT1":424.9,"yT1":0,"xT2":1058.1,"yT2":0,"toosoon":0,"cond_shown":"randomdotsizeEA","ratio_trial":900,"smaller_num":"9","larger_num":"10","correct_side":2,"subjID":"CarlosLeón12","gender":"0","age":"9","school":"4"},{"start_time":1552055158144,"click_time":1552055159440,"finger_time":1552055159119,"fix_duration":623.5420166134425,"trial":54,"RT":975,"MT":321,"sideResp":1,"stimulus":"img/250/equaldotsize/L/15_Ratio_250_L_12_R_3.png","xmouse":[787,787,787,787,787,787,787,787,787,787,787,787,787,787,787,787,787,787,787,787,787,787,787,787,787,787,787,787,787,787,787,787,787,787,787,787,787,787,787,787,787,787,787,787,787,787,787,768,739,717,674,653,637,629,622,611,609,607,605,601,589,576,556,528,504],"ymouse":[652,652,652,652,652,652,652,652,652,652,652,652,652,652,652,652,652,652,652,652,652,652,652,652,652,652,652,652,652,652,652,652,652,652,652,652,652,652,652,652,652,652,652,652,652,652,648,634,609,582,