[{"start_time":1552054122596,"click_time":1552054125522,"finger_time":1552054123160,"fix_duration":250,"trial":0,"RT":564,"MT":2362,"sideResp":1,"stimulus":[],"xmouse":[791,791,791,791,791,791,791,791,790,790,790,790,790,790,789,786,784,783,781,779,778,773,770,767,765,758,754,747,743,737,733,733,733,733,729,722,711,696,678,656,651,650,646,637,600,573,541,508,483,460,464,486,529,579,656,669,670,670,670,671,683,701,721,736,746,748,748,748,748,748,753,757,763,770,778,785,790,795,797,797,797,797,797,797,797,797,797,797,795,783,755,732,707,679,643,545,493,446,405,354,276,220,176,138,112,74,65,60,59,63,76,93,110,124,137,160,173,185,199,210,235,245,252,258,261,261,261,261,261,263,281,296,313,326,335,342,346,353,363,375,381,381,382,385,397,423,430],"ymouse":[599,599,599,599,599,599,599,598,598,598,598,598,598,598,598,601,605,609,614,619,623,630,637,641,648,659,664,671,674,677,678,678,678,678,678,678,678,680,683,687,688,689,691,697,715,728,753,775,795,823,826,825,812,801,784,783,783,783,783,783,778,770,762,754,749,748,748,748,748,748,745,742,736,728,709,694,676,663,656,655,655,655,655,655,655,655,655,655,657,667,689,703,721,738,756,783,793,799,806,807,810,814,814,814,814,802,795,786,769,689,597,535,473,419,375,303,274,248,222,197,134,112,97,86,83,83,83,83,83,83,81,78,77,75,74,74,72,72,70,68,65,64,64,63,61,51,49],"timestamp_mouse":[9,41,44,65,86,105,124,144,165,185,204,226,245,265,286,304,325,345,365,385,405,425,444,464,484,505,524,546,564,585,604,625,646,665,685,705,724,745,766,785,804,825,844,865,885,904,924,946,964,985,1004,1024,1045,1065,1086,1104,1125,1145,1165,1185,1204,1224,1245,1264,1284,1305,1324,1345,1365,1386,1404,1425,1445,1464,1485,1504,1524,1545,1564,1585,1604,1625,1645,1665,1684,1704,1724,1745,1764,1786,1806,1824,1845,1865,1885,1904,1925,1945,1965,1984,2004,2025,2044,2066,2084,2104,2124,2145,2164,2186,2204,2226,2245,2264,2285,2305,2326,2344,2364,2385,2405,2425,2445,2465,2485,2505,2524,2546,2565,2585,2605,2625,2645,2665,2685,2704,2724,2744,2764,2785,2804,2825,2844,2866,2884,2905,2924],"xSR":741.5,"ySR":501.8,"xT1":424.9,"yT1":0,"xT2":1058.1,"yT2":0,"toosoon":0,"cond_shown":"Incongruent","ratio_trial":100,"L_num":17,"L_den":30,"R_num":10,"R_den":15,"correct_side":2,"subjID":"CHEILYNESPITIAYEPES33","gender":"1","age":"9","school":"4","test":{"fix_dur":[250,1500],"timestim":1000,"targets_dim":[100,100],"targets_relative_coord":[0.3,0.7],"size_stim":[880,420],"start_dim":[100,100],"size_start":[300,300],"size_fix":60,"samplingrate":20,"img_types":["Congruent","Incongruent"],"ratios":[100,200,300],"rep_conds":19,"nTrials":120,"trials_to_rest":500,"Trials_order":[25,91,32,4,54,46,48,11,13,96,95,84,107,34,37,15,112,30,115,116,52,45,1,106,87,94,56,65,29,119,31,24,22,82,105,103,21,81,39,78,51,109,72,18,66,85,68,12,67,80,71,36,108,75,90,63,118,47,101,76,16,113,20,55,60,83,92,73,53,50,102,117,38,88,7,69,114,14,17,93,5,23,98,64,42,70,77,41,0,59,6,9,28,79,57,33,100,8,27,62,26,44,61,89,40,58,74,86,104,10,2,19,111,99,49,43,3,97,35,110],"cond_shown":["Incongruent","Incongruent","Congruent","Congruent","Congruent","Congruent","Congruent","Incongruent","Incongruent","Congruent","Incongruent","Congruent","Incongruent","Congruent","Incongruent","Incongruent","Congruent","Congruent","Incongruent","Congruent","Congruent","Incongruent","Incongruent","Congruent","Incongruent","Congruent","Congruent","Incongruent","Incongruent","Incongruent","Incongruent","Congruent","Congruent","Congruent","Incongruent","Incongruent","Incongruent","Incongruent","Incongruent","Congruent","Incongruent","Incongruent","Congruent","Congruent","Congruent","Incongruent","Congruent","Congruent","Incongruent","Congruent","Incongruent","Congruent","Congruent","Incongruent","Congruent","Incongruent","Congruent","Incongruent","Incongruent","Congruent","Congruent","Incongruent","Congruent","Incongruent","Congruent","Incongruent","Congruent","Incongruent","Incongruent","Congruent","Congruent","Incongruent","Congruent","Congruent","Incongruent","Incongruent","Congruent","Congruent","Incongruent","Incongruent","Incongruent","Incongruent","Congruent","Congruent","Congruent","Congruent","Incongruent","Incongruent","Congruent","Incongruent","Congruent","Incongruent","Congruent","Incongruent","Incongruent","Incongruent","Congruent","Congruent","Incongruent","Congruent","Congruent","Congruent","Incongruent","Incongruent","Congruent","Congruent","Congruent","Congruent","Congruent","Congruent","Congruent","Incongruent","Incongruent","Incongruent","Incongruent","Incongruent","Incongruent","Incongruent","Incongruent","Congruent"],"ratio_trial":[100,100,200,300,100,300,100,300,100,100,300,100,300,300,100,200,300,100,100,200,300,200,100,300,200,300,200,300,300,300,100,100,300,300,200,100,200,200,200,100,200,100,100,100,100,100,200,100,100,200,300,100,100,200,100,200,300,300,300,300,300,300,200,100,100,300,200,100,300,200,100,200,200,300,100,200,100,200,300,200,300,300,200,300,100,300,300,300,100,300,100,200,300,100,200,200,300,200,200,200,200,200,100,300,300,300,200,200,200,300,200,100,200,200,100,100,200,100,300,200],"left_num":[17,13,12,20,6,1,2,4,4,8,4,2,1,1,2,9,2,6,17,8,4,7,10,8,1,8,21,8,4,1,8,2,11,18,7,13,3,1,3,11,4,10,3,11,12,2,6,6,12,7,4,9,4,11,15,1,24,8,13,24,3,13,11,6,4,2,15,9,13,8,8,11,16,5,8,7,9,3,1,1,4,8,11,20,7,11,4,4,8,7,11,7,7,17,7,11,4,12,11,8,8,3,3,3,3,4,15,3,3,24,3,10,7,3,10,10,7,12,4,12],"right_num":[10,12,6,9,5,11,6,2,8,2,2,6,2,8,6,8,10,5,10,2,1,12,8,1,3,1,2,14,2,3,6,6,2,9,6,6,1,3,1,6,6,9,2,4,13,8,3,5,2,2,2,8,6,3,13,2,2,14,12,2,4,12,3,11,15,6,4,6,12,3,2,3,9,7,6,12,8,7,2,3,2,14,3,14,15,2,2,8,2,8,6,6,20,10,14,3,2,6,3,2,2,14,11,4,11,13,4,14,7,8,7,9,6,11,8,8,12,9,8,6],"left_den":[30,26,20,25,20,5,5,20,8,16,20,5,2,30,4,15,20,20,30,15,10,10,25,16,2,16,30,10,20,2,16,5,22,20,15,26,10,2,10,22,5,25,6,22,30,4,15,20,30,21,20,15,8,20,25,3,30,10,26,30,6,26,22,10,10,4,25,18,26,15,16,20,30,25,16,10,15,10,2,2,20,10,22,25,14,22,20,5,16,10,22,15,14,30,10,20,5,20,20,15,15,6,5,6,12,20,25,6,10,30,10,25,15,4,25,25,10,24,5,20],"right_den":[15,20,15,18,25,22,12,4,20,5,4,12,10,24,15,10,25,25,15,6,10,24,16,5,10,5,4,28,4,15,10,12,10,15,9,10,2,10,2,15,10,18,5,10,26,20,15,25,4,15,4,16,10,4,26,15,4,28,15,4,5,15,10,22,30,30,10,10,15,9,5,4,27,14,10,24,16,14,10,10,4,28,10,28,25,10,4,16,5,20,15,9,25,15,28,4,4,15,4,6,6,20,22,20,20,26,10,20,14,16,14,18,9,20,16,16,24,15,16,15],"correct_side":[2,2,1,1,1,2,2,2,1,1,2,2,1,2,1,2,2,1,2,1,1,1,2,1,1,1,1,1,2,1,2,2,1,1,2,2,2,1,2,1,1,2,1,1,2,1,1,1,2,1,2,1,2,2,1,1,1,1,2,1,2,2,1,1,2,1,1,2,2,1,1,2,1,2,2,1,1,2,1,1,2,1,1,1,2,1,2,1,1,1,1,2,2,2,1,2,1,1,2,1,1,2,1,1,2,2,1,2,2,1,2,2,2,1,2,2,1,2,1,1],"img_shown":["img2/100/Incongruent/R/I_Dist_100_LN_17_LD_30_RN_10_RD_15_1.png","img2/100/Incongruent/R/I_Dist_100_LN_13_LD_26_RN_12_RD_20_1.png","img2/200/Congruent/L/C_Dist_200_LN_12_LD_20_RN_6_RD_15_0.png","img2/300/Congruent/L/C_Dist_300_LN_20_LD_25_RN_9_RD_18_0.png","img2/100/Congruent/L/C_Dist_100_LN_6_LD_20_RN_5_RD_25_0.png","img2/300/Congruent/R/C_Dist_300_LN_1_LD_5_RN_11_RD_22_1.png","img2/100/Congruent/R/C_Dist_100_LN_2_LD_5_RN_6_RD_12_1.png","img2/300/Incongruent/R/I_Dist_300_LN_4_LD_20_RN_2_RD_4_1.png","img2/100/Incongruent/L/I_Dist_100_LN_4_LD_8_RN_8_RD_20_0.png","img2/100/Congruent/L/C_Dist_100_LN_8_LD_16_RN_2_RD_5_0.png","img2/300/Incongruent/R/I_Dist_300_LN_4_LD_20_RN_2_RD_4_1.png","img2/100/Congruent/R/C_Dist_100_LN_2_LD_5_RN_6_RD_12_1.png","img2/300/Incongruent/L/I_Dist_300_LN_1_LD_2_RN_2_RD_10_0.png","img2/300/Congruent/R/C_Dist_300_LN_1_LD_30_RN_8_RD_24_1.png","img2/100/Incongruent/L/I_Dist_100_LN_2_LD_4_RN_6_RD_15_0.png","img2/200/Incongruent/R/I_Dist_200_LN_9_LD_15_RN_8_RD_10_1.png","img2/300/Congruent/R/C_Dist_300_LN_2_LD_20_RN_10_RD_25_1.png","img2/100/Congruent/L/C_Dist_100_LN_6_LD_20_RN_5_RD_25_0.png","img2/100/Incongruent/R/I_Dist_100_LN_17_LD_30_RN_10_RD_15_1.png","img2/200/Congruent/L/C_Dist_200_LN_8_LD_15_RN_2_RD_6_0.png","img2/300/Congruent/L/C_Dist_300_LN_4_LD_10_RN_1_RD_10_0.png","img2/200/Incongruent/L/I_Dist_200_LN_7_LD_10_RN_12_RD_24_0.png","img2/100/Incongruent/R/I_Dist_100_LN_10_LD_25_RN_8_RD_16_1.png","img2/300/Congruent/L/C_Dist_300_LN_8_LD_16_RN_1_RD_5_0.png","img2/200/Incongruent/L/I_Dist_200_LN_1_LD_2_RN_3_RD_10_0.png","img2/300/Congruent/L/C_Dist_300_LN_8_LD_16_RN_1_RD_5_0.png","img2/200/Congruent/L/C_Dist_200_LN_21_LD_30_RN_2_RD_4_0.png","img2/300/Incongruent/L/I_Dist_300_LN_8_LD_10_RN_14_RD_28_0.png","img2/300/Incongruent/R/I_Dist_300_LN_4_LD_20_RN_2_RD_4_1.png","img2/300/Incongruent/L/I_Dist_300_LN_1_LD_2_RN_3_RD_15_0.png","img2/100/Incongruent/R/I_Dist_100_LN_8_LD_16_RN_6_RD_10_1.png","img2/100/Congruent/R/C_Dist_100_LN_2_LD_5_RN_6_RD_12_1.png","img2/300/Congruent/L/C_Dist_300_LN_11_LD_22_RN_2_RD_10_0.png","img2/300/Congruent/L/C_Dist_300_LN_18_LD_20_RN_9_RD_15_0.png","img2/200/Incongruent/R/I_Dist_200_LN_7_LD_15_RN_6_RD_9_1.png","img2/100/Incongruent/R/I_Dist_100_LN_13_LD_26_RN_6_RD_10_1.png","img2/200/Incongruent/R/I_Dist_200_LN_3_LD_10_RN_1_RD_2_1.png","img2/200/Incongruent/L/I_Dist_200_LN_1_LD_2_RN_3_RD_10_0.png","img2/200/Incongruent/R/I_Dist_200_LN_3_LD_10_RN_1_RD_2_1.png","img2/100/Congruent/L/C_Dist_100_LN_11_LD_22_RN_6_RD_15_0.png","img2/200/Incongruent/L/I_Dist_200_LN_4_LD_5_RN_6_RD_10_0.png","img2/100/Incongruent/R/I_Dist_100_LN_10_LD_25_RN_9_RD_18_1.png","img2/100/Congruent/L/C_Dist_100_LN_3_LD_6_RN_2_RD_5_0.png","img2/100/Congruent/L/C_Dist_100_LN_11_LD_22_RN_4_RD_10_0.png","img2/100/Congruent/R/C_Dist_100_LN_12_LD_30_RN_13_RD_26_1.png","img2/100/Incongruent/L/I_Dist_100_LN_2_LD_4_RN_8_RD_20_0.png","img2/200/Congruent/L/C_Dist_200_LN_6_LD_15_RN_3_RD_15_0.png","img2/100/Congruent/L/C_Dist_100_LN_6_LD_20_RN_5_RD_25_0.png","img2/100/Incongruent/R/I_Dist_100_LN_12_LD_30_RN_2_RD_4_1.png","img2/200/Congruent/L/C_Dist_200_LN_7_LD_21_RN_2_RD_15_0.png","img2/300/Incongruent/R/I_Dist_300_LN_4_LD_20_RN_2_RD_4_1.png","img2/100/Congruent/L/C_Dist_100_LN_9_LD_15_RN_8_RD_16_0.png","img2/100/Congruent/R/C_Dist_100_LN_4_LD_8_RN_6_RD_10_1.png","img2/200/Incongruent/R/I_Dist_200_LN_11_LD_20_RN_3_RD_4_1.png","img2/100/Congruent/L/C_Dist_100_LN_15_LD_25_RN_13_RD_26_0.png","img2/200/Incongruent/L/I_Dist_200_LN_1_LD_3_RN_2_RD_15_0.png","img2/300/Congruent/L/C_Dist_300_LN_24_LD_30_RN_2_RD_4_0.png","img2/300/Incongruent/L/I_Dist_300_LN_8_LD_10_RN_14_RD_28_0.png","img2/300/Incongruent/R/I_Dist_300_LN_13_LD_26_RN_12_RD_15_1.png","img2/300/Congruent/L/C_Dist_300_LN_24_LD_30_RN_2_RD_4_0.png","img2/300/Congruent/R/C_Dist_300_LN_3_LD_6_RN_4_RD_5_1.png","img2/300/Incongruent/R/I_Dist_300_LN_13_LD_26_RN_12_RD_15_1.png","img2/200/Congruent/L/C_Dist_200_LN_11_LD_22_RN_3_RD_10_0.png","img2/100/Incongruent/L/I_Dist_100_LN_6_LD_10_RN_11_RD_22_0.png","img2/100/Congruent/R/C_Dist_100_LN_4_LD_10_RN_15_RD_30_1.png","img2/300/Incongruent/L/I_Dist_300_LN_2_LD_4_RN_6_RD_30_0.png","img2/200/Congruent/L/C_Dist_200_LN_15_LD_25_RN_4_RD_10_0.png","img2/100/Incongruent/R/I_Dist_100_LN_9_LD_18_RN_6_RD_10_1.png","img2/300/Incongruent/R/I_Dist_300_LN_13_LD_26_RN_12_RD_15_1.png","img2/200/Congruent/L/C_Dist_200_LN_8_LD_15_RN_3_RD_9_0.png","img2/100/Congruent/L/C_Dist_100_LN_8_LD_16_RN_2_RD_5_0.png","img2/200/Incongruent/R/I_Dist_200_LN_11_LD_20_RN_3_RD_4_1.png","img2/200/Congruent/L/C_Dist_200_LN_16_LD_30_RN_9_RD_27_0.png","img2/300/Congruent/R/C_Dist_300_LN_5_LD_25_RN_7_RD_14_1.png","img2/100/Incongruent/R/I_Dist_100_LN_8_LD_16_RN_6_RD_10_1.png","img2/200/Incongruent/L/I_Dist_200_LN_7_LD_10_RN_12_RD_24_0.png","img2/100/Congruent/L/C_Dist_100_LN_9_LD_15_RN_8_RD_16_0.png","img2/200/Congruent/R/C_Dist_200_LN_3_LD_10_RN_7_RD_14_1.png","img2/300/Incongruent/L/I_Dist_300_LN_1_LD_2_RN_2_RD_10_0.png","img2/200/Incongruent/L/I_Dist_200_LN_1_LD_2_RN_3_RD_10_0.png","img2/300/Incongruent/R/I_Dist_300_LN_4_LD_20_RN_2_RD_4_1.png","img2/300/Incongruent/L/I_Dist_300_LN_8_LD_10_RN_14_RD_28_0.png","img2/200/Congruent/L/C_Dist_200_LN_11_LD_22_RN_3_RD_10_0.png","img2/300/Congruent/L/C_Dist_300_LN_20_LD_25_RN_14_RD_28_0.png","img2/100/Congruent/R/C_Dist_100_LN_7_LD_14_RN_15_RD_25_1.png","img2/300/Congruent/L/C_Dist_300_LN_11_LD_22_RN_2_RD_10_0.png","img2/300/Incongruent/R/I_Dist_300_LN_4_LD_20_RN_2_RD_4_1.png","img2/300/Incongruent/L/I_Dist_300_LN_4_LD_5_RN_8_RD_16_0.png","img2/100/Congruent/L/C_Dist_100_LN_8_LD_16_RN_2_RD_5_0.png","img2/300/Incongruent/L/I_Dist_300_LN_7_LD_10_RN_8_RD_20_0.png","img2/100/Congruent/L/C_Dist_100_LN_11_LD_22_RN_6_RD_15_0.png","img2/200/Incongruent/R/I_Dist_200_LN_7_LD_15_RN_6_RD_9_1.png","img2/300/Congruent/R/C_Dist_300_LN_7_LD_14_RN_20_RD_25_1.png","img2/100/Incongruent/R/I_Dist_100_LN_17_LD_30_RN_10_RD_15_1.png","img2/200/Incongruent/L/I_Dist_200_LN_7_LD_10_RN_14_RD_28_0.png","img2/200/Incongruent/R/I_Dist_200_LN_11_LD_20_RN_3_RD_4_1.png","img2/300/Congruent/L/C_Dist_300_LN_4_LD_5_RN_2_RD_4_0.png","img2/200/Congruent/L/C_Dist_200_LN_12_LD_20_RN_6_RD_15_0.png","img2/200/Incongruent/R/I_Dist_200_LN_11_LD_20_RN_3_RD_4_1.png","img2/200/Congruent/L/C_Dist_200_LN_8_LD_15_RN_2_RD_6_0.png","img2/200/Congruent/L/C_Dist_200_LN_8_LD_15_RN_2_RD_6_0.png","img2/200/Congruent/R/C_Dist_200_LN_3_LD_6_RN_14_RD_20_1.png","img2/100/Incongruent/L/I_Dist_100_LN_3_LD_5_RN_11_RD_22_0.png","img2/300/Incongruent/L/I_Dist_300_LN_3_LD_6_RN_4_RD_20_0.png","img2/300/Congruent/R/C_Dist_300_LN_3_LD_12_RN_11_RD_20_1.png","img2/300/Congruent/R/C_Dist_300_LN_4_LD_20_RN_13_RD_26_1.png","img2/200/Congruent/L/C_Dist_200_LN_15_LD_25_RN_4_RD_10_0.png","img2/200/Congruent/R/C_Dist_200_LN_3_LD_6_RN_14_RD_20_1.png","img2/200/Congruent/R/C_Dist_200_LN_3_LD_10_RN_7_RD_14_1.png","img2/300/Congruent/L/C_Dist_300_LN_24_LD_30_RN_8_RD_16_0.png","img2/200/Congruent/R/C_Dist_200_LN_3_LD_10_RN_7_RD_14_1.png","img2/100/Incongruent/R/I_Dist_100_LN_10_LD_25_RN_9_RD_18_1.png","img2/200/Incongruent/R/I_Dist_200_LN_7_LD_15_RN_6_RD_9_1.png","img2/200/Incongruent/L/I_Dist_200_LN_3_LD_4_RN_11_RD_20_0.png","img2/100/Incongruent/R/I_Dist_100_LN_10_LD_25_RN_8_RD_16_1.png","img2/100/Incongruent/R/I_Dist_100_LN_10_LD_25_RN_8_RD_16_1.png","img2/200/Incongruent/L/I_Dist_200_LN_7_LD_10_RN_12_RD_24_0.png","img2/100/Incongruent/R/I_Dist_100_LN_12_LD_24_RN_9_RD_15_1.png","img2/300/Incongruent/L/I_Dist_300_LN_4_LD_5_RN_8_RD_16_0.png","img2/200/Congruent/L/C_Dist_200_LN_12_LD_20_RN_6_RD_15_0.png"],"dist100_C":[["C_Dist_100_LN_10_LD_25_RN_3_RD_10_0.png","C_Dist_100_LN_11_LD_22_RN_4_RD_10_0.png","C_Dist_100_LN_11_LD_22_RN_6_RD_15_0.png","C_Dist_100_LN_15_LD_25_RN_13_RD_26_0.png","C_Dist_100_LN_3_LD_6_RN_2_RD_5_0.png","C_Dist_100_LN_6_LD_20_RN_5_RD_25_0.png","C_Dist_100_LN_8_LD_16_RN_2_RD_5_0.png","C_Dist_100_LN_9_LD_15_RN_8_RD_16_0.png"],["C_Dist_100_LN_1_LD_2_RN_18_RD_30_1.png","C_Dist_100_LN_1_LD_2_RN_3_RD_5_1.png","C_Dist_100_LN_12_LD_30_RN_13_RD_26_1.png","C_Dist_100_LN_2_LD_5_RN_11_RD_22_1.png","C_Dist_100_LN_2_LD_5_RN_6_RD_12_1.png","C_Dist_100_LN_3_LD_20_RN_4_RD_16_1.png","C_Dist_100_LN_4_LD_10_RN_15_RD_30_1.png","C_Dist_100_LN_4_LD_8_RN_6_RD_10_1.png","C_Dist_100_LN_6_LD_12_RN_15_RD_25_1.png","C_Dist_100_LN_7_LD_14_RN_15_RD_25_1.png","C_Dist_100_LN_7_LD_14_RN_9_RD_15_1.png"]],"dist100_I":[["I_Dist_100_LN_1_LD_2_RN_8_RD_20_0.png","I_Dist_100_LN_2_LD_4_RN_6_RD_15_0.png","I_Dist_100_LN_2_LD_4_RN_8_RD_20_0.png","I_Dist_100_LN_3_LD_5_RN_11_RD_22_0.png","I_Dist_100_LN_3_LD_5_RN_8_RD_16_0.png","I_Dist_100_LN_3_LD_6_RN_4_RD_10_0.png","I_Dist_100_LN_3_LD_9_RN_7_RD_30_0.png","I_Dist_100_LN_4_LD_8_RN_8_RD_20_0.png","I_Dist_100_LN_6_LD_10_RN_11_RD_22_0.png","I_Dist_100_LN_6_LD_10_RN_13_RD_26_0.png","I_Dist_100_LN_6_LD_10_RN_7_RD_14_0.png","I_Dist_100_LN_9_LD_10_RN_20_RD_25_0.png","I_Dist_100_LN_9_LD_15_RN_13_RD_26_0.png","I_Dist_100_LN_9_LD_15_RN_14_RD_28_0.png"],["I_Dist_100_LN_10_LD_25_RN_8_RD_16_1.png","I_Dist_100_LN_10_LD_25_RN_9_RD_18_1.png","I_Dist_100_LN_11_LD_22_RN_9_RD_15_1.png","I_Dist_100_LN_12_LD_24_RN_9_RD_15_1.png","I_Dist_100_LN_12_LD_30_RN_2_RD_4_1.png","I_Dist_100_LN_13_LD_26_RN_12_RD_20_1.png","I_Dist_100_LN_13_LD_26_RN_6_RD_10_1.png","I_Dist_100_LN_17_LD_30_RN_10_RD_15_1.png","I_Dist_100_LN_6_LD_12_RN_3_RD_5_1.png","I_Dist_100_LN_8_LD_16_RN_6_RD_10_1.png","I_Dist_100_LN_8_LD_20_RN_1_RD_2_1.png","I_Dist_100_LN_9_LD_18_RN_6_RD_10_1.png"]],"dist100_S":[["E_Dist_100_LN_2_LD_12_RN_2_RD_30_0.png","E_Dist_100_LN_6_LD_10_RN_6_RD_12_0.png"],["E_Dist_100_LN_6_LD_12_RN_6_RD_10_1.png"]],"dist200_C":[["C_Dist_200_LN_11_LD_22_RN_3_RD_10_0.png","C_Dist_200_LN_12_LD_15_RN_6_RD_10_0.png","C_Dist_200_LN_12_LD_20_RN_6_RD_15_0.png","C_Dist_200_LN_14_LD_28_RN_6_RD_20_0.png","C_Dist_200_LN_15_LD_25_RN_4_RD_10_0.png","C_Dist_200_LN_16_LD_20_RN_12_RD_20_0.png","C_Dist_200_LN_16_LD_30_RN_9_RD_27_0.png","C_Dist_200_LN_20_LD_25_RN_9_RD_15_0.png","C_Dist_200_LN_21_LD_30_RN_2_RD_4_0.png","C_Dist_200_LN_4_LD_10_RN_3_RD_15_0.png","C_Dist_200_LN_4_LD_8_RN_3_RD_10_0.png","C_Dist_200_LN_6_LD_15_RN_3_RD_15_0.png","C_Dist_200_LN_7_LD_21_RN_2_RD_15_0.png","C_Dist_200_LN_8_LD_15_RN_2_RD_6_0.png","C_Dist_200_LN_8_LD_15_RN_3_RD_9_0.png","C_Dist_200_LN_8_LD_15_RN_7_RD_21_0.png","C_Dist_200_LN_9_LD_20_RN_4_RD_16_0.png"],["C_Dist_200_LN_1_LD_2_RN_21_RD_30_1.png","C_Dist_200_LN_13_LD_26_RN_14_RD_20_1.png","C_Dist_200_LN_3_LD_10_RN_11_RD_22_1.png","C_Dist_200_LN_3_LD_10_RN_14_RD_28_1.png","C_Dist_200_LN_3_LD_10_RN_7_RD_14_1.png","C_Dist_200_LN_3_LD_12_RN_9_RD_20_1.png","C_Dist_200_LN_3_LD_6_RN_14_RD_20_1.png","C_Dist_200_LN_5_LD_10_RN_14_RD_20_1.png","C_Dist_200_LN_6_LD_12_RN_7_RD_10_1.png","C_Dist_200_LN_6_LD_20_RN_11_RD_22_1.png","C_Dist_200_LN_7_LD_15_RN_18_RD_27_1.png","C_Dist_200_LN_9_LD_30_RN_13_RD_26_1.png"]],"dist200_I":[["I_Dist_200_LN_1_LD_2_RN_3_RD_10_0.png","I_Dist_200_LN_1_LD_3_RN_2_RD_15_0.png","I_Dist_200_LN_3_LD_4_RN_11_RD_20_0.png","I_Dist_200_LN_4_LD_5_RN_6_RD_10_0.png","I_Dist_200_LN_4_LD_6_RN_14_RD_30_0.png","I_Dist_200_LN_7_LD_10_RN_12_RD_24_0.png","I_Dist_200_LN_7_LD_10_RN_14_RD_28_0.png","I_Dist_200_LN_7_LD_10_RN_8_RD_16_0.png"],["I_Dist_200_LN_11_LD_20_RN_3_RD_4_1.png","I_Dist_200_LN_14_LD_30_RN_12_RD_18_1.png","I_Dist_200_LN_14_LD_30_RN_6_RD_9_1.png","I_Dist_200_LN_3_LD_10_RN_1_RD_2_1.png","I_Dist_200_LN_4_LD_30_RN_1_RD_3_1.png","I_Dist_200_LN_6_LD_20_RN_3_RD_6_1.png","I_Dist_200_LN_7_LD_15_RN_4_RD_6_1.png","I_Dist_200_LN_7_LD_15_RN_6_RD_9_1.png","I_Dist_200_LN_9_LD_15_RN_8_RD_10_1.png"]],"dist200_S":[["E_Dist_200_LN_3_LD_6_RN_3_RD_10_0.png"],["E_Dist_200_LN_3_LD_10_RN_3_RD_6_1.png"]],"dist300_C":[["C_Dist_300_LN_11_LD_22_RN_1_RD_5_0.png","C_Dist_300_LN_11_LD_22_RN_2_RD_10_0.png","C_Dist_300_LN_11_LD_22_RN_4_RD_20_0.png","C_Dist_300_LN_12_LD_24_RN_2_RD_10_0.png","C_Dist_300_LN_18_LD_20_RN_9_RD_15_0.png","C_Dist_300_LN_20_LD_25_RN_13_RD_26_0.png","C_Dist_300_LN_20_LD_25_RN_14_RD_28_0.png","C_Dist_300_LN_20_LD_25_RN_5_RD_10_0.png","C_Dist_300_LN_20_LD_25_RN_8_RD_16_0.png","C_Dist_300_LN_20_LD_25_RN_9_RD_18_0.png","C_Dist_300_LN_24_LD_30_RN_2_RD_4_0.png","C_Dist_300_LN_24_LD_30_RN_8_RD_16_0.png","C_Dist_300_LN_3_LD_6_RN_2_RD_10_0.png","C_Dist_300_LN_4_LD_10_RN_1_RD_10_0.png","C_Dist_300_LN_4_LD_5_RN_2_RD_4_0.png","C_Dist_300_LN_8_LD_16_RN_1_RD_5_0.png","C_Dist_300_LN_9_LD_10_RN_3_RD_5_0.png"],["C_Dist_300_LN_1_LD_20_RN_7_RD_20_1.png","C_Dist_300_LN_1_LD_3_RN_19_RD_30_1.png","C_Dist_300_LN_1_LD_30_RN_8_RD_24_1.png","C_Dist_300_LN_1_LD_5_RN_11_RD_22_1.png","C_Dist_300_LN_1_LD_5_RN_3_RD_6_1.png","C_Dist_300_LN_1_LD_5_RN_6_RD_12_1.png","C_Dist_300_LN_2_LD_10_RN_12_RD_24_1.png","C_Dist_300_LN_2_LD_20_RN_10_RD_25_1.png","C_Dist_300_LN_3_LD_12_RN_11_RD_20_1.png","C_Dist_300_LN_3_LD_6_RN_4_RD_5_1.png","C_Dist_300_LN_4_LD_20_RN_13_RD_26_1.png","C_Dist_300_LN_5_LD_25_RN_6_RD_12_1.png","C_Dist_300_LN_5_LD_25_RN_7_RD_14_1.png","C_Dist_300_LN_7_LD_14_RN_20_RD_25_1.png","C_Dist_300_LN_8_LD_15_RN_10_RD_12_1.png"]],"dist300_I":[["I_Dist_300_LN_1_LD_2_RN_2_RD_10_0.png","I_Dist_300_LN_1_LD_2_RN_3_RD_15_0.png","I_Dist_300_LN_2_LD_4_RN_6_RD_30_0.png","I_Dist_300_LN_3_LD_6_RN_4_RD_20_0.png","I_Dist_300_LN_4_LD_5_RN_6_RD_12_0.png","I_Dist_300_LN_4_LD_5_RN_8_RD_16_0.png","I_Dist_300_LN_7_LD_10_RN_8_RD_20_0.png","I_Dist_300_LN_8_LD_10_RN_14_RD_28_0.png","I_Dist_300_LN_8_LD_10_RN_9_RD_18_0.png"],["I_Dist_300_LN_13_LD_26_RN_12_RD_15_1.png","I_Dist_300_LN_4_LD_20_RN_2_RD_4_1.png"]],"dist300_S":[["E_Dist_300_LN_9_LD_12_RN_9_RD_20_0.png"],["E_Dist_300_LN_18_LD_30_RN_18_RD_20_1.png","E_Dist_300_LN_3_LD_10_RN_3_RD_5_1.png","E_Dist_300_LN_9_LD_20_RN_9_RD_12_1.png"]],"dist500_C":[["C_Dist_500_LN_10_LD_13_RN_7_RD_26_0.png","C_Dist_500_LN_10_LD_15_RN_4_RD_24_0.png","C_Dist_500_LN_12_LD_16_RN_3_RD_12_0.png","C_Dist_500_LN_12_LD_18_RN_4_RD_24_0.png","C_Dist_500_LN_15_LD_18_RN_5_RD_15_0.png","C_Dist_500_LN_15_LD_20_RN_1_RD_4_0.png","C_Dist_500_LN_18_LD_27_RN_1_RD_6_0.png","C_Dist_500_LN_20_LD_24_RN_1_RD_3_0.png","C_Dist_500_LN_20_LD_24_RN_3_RD_9_0.png","C_Dist_500_LN_20_LD_24_RN_7_RD_21_0.png","C_Dist_500_LN_20_LD_28_RN_3_RD_14_0.png","C_Dist_500_LN_21_LD_28_RN_6_RD_24_0.png","C_Dist_500_LN_22_LD_28_RN_2_RD_7_0.png","C_Dist_500_LN_25_LD_30_RN_9_RD_27_0.png","C_Dist_500_LN_4_LD_6_RN_1_RD_6_0.png","C_Dist_500_LN_5_LD_6_RN_2_RD_6_0.png","C_Dist_500_LN_6_LD_9_RN_1_RD_6_0.png","C_Dist_500_LN_7_LD_10_RN_1_RD_5_0.png","C_Dist_500_LN_8_LD_12_RN_1_RD_6_0.png","C_Dist_500_LN_8_LD_12_RN_4_RD_24_0.png"],["C_Dist_500_LN_1_LD_4_RN_12_RD_16_1.png","C_Dist_500_LN_1_LD_4_RN_9_RD_12_1.png","C_Dist_500_LN_1_LD_9_RN_11_RD_18_1.png","C_Dist_500_LN_10_LD_24_RN_22_RD_24_1.png","C_Dist_500_LN_2_LD_12_RN_10_RD_15_1.png","C_Dist_500_LN_2_LD_12_RN_12_RD_18_1.png","C_Dist_500_LN_2_LD_12_RN_4_RD_6_1.png","C_Dist_500_LN_2_LD_24_RN_7_RD_12_1.png","C_Dist_500_LN_2_LD_5_RN_18_RD_20_1.png","C_Dist_500_LN_2_LD_5_RN_9_RD_10_1.png","C_Dist_500_LN_2_LD_8_RN_12_RD_16_1.png","C_Dist_500_LN_2_LD_8_RN_21_RD_28_1.png","C_Dist_500_LN_3_LD_10_RN_4_RD_5_1.png","C_Dist_500_LN_3_LD_12_RN_15_RD_20_1.png","C_Dist_500_LN_3_LD_30_RN_6_RD_10_1.png","C_Dist_500_LN_3_LD_8_RN_14_RD_16_1.png","C_Dist_500_LN_4_LD_16_RN_15_RD_20_1.png","C_Dist_500_LN_4_LD_24_RN_12_RD_18_1.png","C_Dist_500_LN_5_LD_14_RN_6_RD_7_1.png","C_Dist_500_LN_7_LD_21_RN_20_RD_24_1.png","C_Dist_500_LN_7_LD_28_RN_12_RD_16_1.png","C_Dist_500_LN_7_LD_28_RN_9_RD_12_1.png","C_Dist_500_LN_9_LD_27_RN_20_RD_24_1.png"]],"dist500_I":[["I_Dist_500_LN_2_LD_3_RN_4_RD_24_0.png","I_Dist_500_LN_5_LD_6_RN_6_RD_18_0.png","I_Dist_500_LN_7_LD_8_RN_9_RD_24_0.png"],["I_Dist_500_LN_7_LD_21_RN_5_RD_6_1.png"]],"dist500_S":[["E_Dist_500_LN_6_LD_8_RN_6_RD_24_0.png"],["E_Dist_500_LN_2_LD_12_RN_2_RD_3_1.png","E_Dist_500_LN_6_LD_24_RN_6_RD_8_1.png"]]}},{"start_time":1552054134092,"click_time":1552054143242,"finger_time":1552054135801,"fix_duration":868.2742161771555,"trial":1,"RT":1709,"MT":7441,"sideResp":1,"stimulus":[],"xmouse":[786,786,786,786,786,786,786,786,786,786,786,786,786,786,786,786,786,786,786,786,786,786,786,786,786,786,786,786,786,786,786,786,786,786,786,786,786,786,786,786,786,786,786,786,786,786,786,786,786,786,786,786,786,786,786,786,786,786,786,786,786,786,786,786,786,786,786,786,786,786,786,786,786,786,785,782,770,768,768,768,767,761,757,753,747,738,721,709,694,679,661,639,629,624,620,618,614,612,610,609,608,615,620,627,630,632,633,633,633,633,637,657,667,675,679,683,686,686,686,686,684,681,681,681,681,680,673,663,650,649,647,639,628,616,599,587,561,550,540,537,537,537,537,537,537,537,537,537,537,537,537,537,537,537,537,537,537,537,537,537,537,537,537,537,537,537,537,537,537,537,537,537,537,537,537,537,537,537,537,537,537,537,537,537,537,537,537,537,537,537,537,537,537,537,537,537,537,537,537,537,537,537,537,537,537,537,537,537,537,537,537,537,537,537,537,537,537,537,537,537,537,537,537,537,537,537,537,537,537,537,537,537,537,537,537,537,537,537,537,537,537,537,537,537,537,537,537,537,537,537,537,537,537,537,537,537,537,537,537,537,537,554,615,700,808,938,1210,1298,1343,1347,1345,1335,1333,1328,1319,1317,1306,1284,1206,1108,1004,885,874,874,874,872,846,778,735,672,672,672,672,672,672,672,672,672,672,672,672,672,672,672,672,672,672,672,672,672,672,672,672,672,672,672,672,672,672,672,672,672,672,672,672,672,672,672,672,672,672,672,672,672,672,672,672,672,672,672,672,672,672,672,672,672,672,672,672,672,672,672,672,672,672,672,672,672,672,672,672,672,672,672,672,672,690,695,695,696,675,530,420,412,412,412,412,412,412,412,412,412,412,412,412,412,412,416,426,434,440,441,442,442,443,444,444,444,444,444,444,444,444,444,444,444,444,444,444,444,444,444,444,444,460,499,541,676,724,746,806,844,919,951,977,992,1000,1000,995,978,945,896,809,775,754,739,731,726,724,723,718,714,702,695,690,684,676,648,629,612,597,587,572,562,553,543,530,518],"ymouse":[638,637,637,637,637,637,637,637,637,637,637,637,637,637,637,637,637,637,637,637,637,637,637,637,637,637,637,637,637,637,637,637,637,637,637,637,637,637,637,637,637,637,637,637,637,637,637,637,637,637,637,637,637,637,637,637,637,637,637,637,637,637,637,637,637,638,641,642,643,643,643,643,643,641,637,625,609,606,606,606,606,606,606,606,606,606,602,597,590,584,572,557,551,548,546,544,538,534,531,529,526,523,521,515,501,482,431,406,382,358,324,270,247,225,202,178,137,121,105,89,70,58,56,56,56,56,56,56,56,56,56,56,55,51,46,41,36,35,35,35,35,35,35,35,35,35,35,35,35,35,35,35,35,35,35,35,35,35,35,35,35,35,35,35,35,35,35,35,35,35,35,35,35,35,35,35,35,35,35,35,35,35,35,35,35,35,35,35,35,35,35,35,35,35,35,35,35,35,35,35,35,35,35,35,35,35,35,35,35,35,35,35,35,35,35,35,35,35,35,35,35,35,35,35,35,35,35,35,35,35,35,35,35,35,35,35,35,35,35,35,35,35,35,35,35,35,35,35,35,35,35,35,35,35,35,35,35,35,35,35,35,37,46,67,97,130,226,262,282,285,287,287,287,290,293,293,296,300,317,332,338,337,336,336,335,327,311,306,304,304,304,304,304,304,304,304,304,304,304,304,304,304,304,304,304,304,304,304,304,304,304,304,304,304,304,304,304,304,304,304,304,304,304,304,304,304,304,304,304,304,304,304,304,304,304,304,304,304,304,304,304,304,304,304,304,304,304,304,304,304,304,304,304,304,304,304,304,304,304,304,304,304,304,304,304,304,304,303,303,307,346,470,513,513,513,513,513,513,513,513,513,513,513,513,513,513,513,504,464,422,383,354,340,336,331,330,330,330,330,330,330,330,330,330,330,330,330,330,330,330,330,330,330,330,309,274,232,92,36,11,0,0,0,0,0,0,0,0,0,7,15,23,28,28,28,30,32,33,33,33,35,36,39,40,41,42,43,44,44,44,44,44,45,45,45,45,45,45],"timestamp_mouse":[12,39,49,69,88,108,130,150,169,188,208,228,248,268,288,309,329,348,368,388,408,428,448,469,488,508,528,549,569,589,609,630,649,668,688,710,729,749,769,788,808,828,849,868,889,909,928,948,970,988,1009,1028,1049,1068,1089,1110,1130,1150,1169,1188,1209,1228,1248,1268,1289,1310,1328,1348,1368,1389,1409,1428,1449,1469,1489,1508,1528,1550,1569,1589,1609,1628,1649,1668,1689,1709,1729,1750,1769,1789,1810,1829,1849,1869,1888,1909,1929,1949,1969,1988,2010,2029,2050,2068,2089,2108,2129,2149,2169,2189,2208,2228,2249,2269,2289,2308,2329,2349,2369,2388,2409,2428,2448,2469,2489,2509,2529,2549,2569,2589,2610,2628,2649,2668,2689,2708,2728,2748,2768,2788,2808,2830,2849,2869,2888,2908,2929,2948,2968,2989,3009,3028,3049,3069,3088,3108,3129,3149,3168,3189,3208,3228,3250,3268,3289,3308,3329,3348,3368,3390,3409,3428,3449,3468,3489,3508,3529,3549,3569,3588,3609,3628,3648,3669,3688,3708,3728,3748,3768,3789,3808,3828,3849,3869,3889,3908,3928,3949,3968,3989,4008,4029,4048,4068,4089,4110,4129,4149,4168,4188,4208,4230,4249,4268,4288,4309,4329,4348,4368,4389,4409,4428,4449,4469,4488,4509,4529,4548,4568,4588,4609,4628,4649,4669,4690,4709,4728,4749,4768,4789,4810,4829,4848,4869,4889,4909,4928,4949,4969,4989,5008,5029,5048,5069,5088,5110,5129,5150,5168,5188,5209,5229,5248,5268,5288,5309,5329,5348,5368,5388,5410,5429,5448,5468,5488,5510,5529,5548,5568,5588,5608,5629,5648,5669,5688,5708,5729,5748,5768,5788,5809,5828,5849,5868,5890,5908,5929,5948,5969,5988,6010,6029,6049,6068,6088,6109,6129,6149,6169,6188,6209,6230,6248,6269,6288,6309,6328,6348,6368,6389,6408,6428,6448,6468,6489,6509,6529,6548,6569,6588,6608,6629,6649,6670,6689,6709,6729,6748,6769,6789,6809,6830,6848,6868,6888,6909,6929,6948,6968,6990,7009,7028,7048,7068,7088,7109,7130,7148,7169,7189,7209,7228,7248,7269,7289,7309,7330,7348,7368,7389,7408,7429,7448,7468,7489,7509,7528,7548,7568,7588,7609,7630,7648,7668,7689,7708,7729,7750,7768,7788,7809,7830,7848,7869,7889,7910,7928,7949,7969,7988,8009,8028,8049,8069,8089,8110,8128,8148,8169,8188,8209,8229,8248,8269,8290,8308,8329,8348,8368,8388,8408,8428,8450,8469,8490,8508,8529,8548,8569,8588,8609,8629,8649,8669,8689,8708,8729,8749,8769,8789,8809,8830,8849,8868,8888,8908,8929,8949,8970,8988,9009,9028,9049,9069,9089,9109,9129,9150],"xSR":741.5,"ySR":573.95,"xT1":424.9,"yT1":0,"xT2":1058.1,"yT2":0,"toosoon":0,"cond_shown":"Incongruent","ratio_trial":100,"L_num":13,"L_den":26,"R_num":12,"R_den":20,"correct_side":2,"subjID":"CHEILYNESPITIAYEPES33","gender":"1","school":"4","age":"9"},{"start_time":1552054145553,"click_time":1552054156181,"finger_time":1552054146701,"fix_duration":250,"trial":2,"RT":1148,"MT":9480,"sideResp":1,"stimulus":[],"xmouse":[772,772,772,772,772,772,772,772,772,772,772,772,772,772,772,772,772,772,772,772,772,772,772,772,772,772,772,772,772,772,772,772,772,772,772,772,772,772,772,772,772,772,772,772,772,772,772,772,772,772,772,772,772,772,772,769,756,731,699,664,623,615,615,614,611,603,594,589,583,582,586,616,645,669,683,700,704,708,711,715,716,716,716,714,708,706,705,703,694,679,679,678,672,666,645,632,618,604,594,589,589,589,589,589,589,589,589,589,589,589,589,589,589,589,589,589,589,589,589,589,589,589,589,589,589,589,589,589,589,589,589,589,589,589,589,589,589,589,589,589,589,589,589,589,589,589,589,589,589,589,589,589,589,589,589,589,589,589,589,589,589,589,589,589,589,589,589,589,589,589,589,589,589,589,589,589,589,589,589,589,589,589,589,589,589,589,589,589,589,589,589,589,589,589,589,589,589,589,589,589,589,589,589,589,589,589,589,589,589,589,589,589,589,591,672,836,926,1028,1136,1226,1301,1302,1302,1292,1284,1254,1235,1212,1188,1158,1094,1065,1038,1017,1001,986,983,981,978,965,947,935,917,896,849,848,848,848,848,848,848,848,848,848,848,848,848,848,848,848,848,848,848,848,848,848,848,848,848,848,848,848,848,848,848,848,848,848,848,848,848,848,848,848,848,884,911,936,978,1027,1115,1119,1119,1119,1119,1104,1094,1081,1067,1047,984,954,924,900,881,880,880,880,880,880,880,880,880,880,880,880,880,880,880,880,880,880,880,880,880,880,880,880,887,1123,1312,1372,1381,1381,1381,1381,1363,1315,1220,987,700,700,700,700,700,700,700,700,700,700,700,700,700,700,700,700,700,700,700,700,700,700,700,712,774,816,816,816,816,816,805,791,771,742,711,711,711,711,711,711,711,711,711,711,711,711,711,711,711,711,711,711,711,711,711,711,711,711,711,711,711,810,933,1062,1216,1541,1541,1541,1541,1541,1541,1541,1541,1541,1541,1541,1541,1541,1541,1541,1541,1541,1541,1541,1541,1541,1541,1541,1541,1541,1541,1541,1541,1541,1541,1541,1541,1541,1541,1541,1541,1541,1541,1541,1541,1541,1541,1541,1541,1541,1541,1541,1541,1541,1522,1250,1073,896,735,538,425,244,180,148,136,134,134,143,151,153,154,165,180,202,232,319,348,369,388,396,410,446,462,472,477,477,478,480,480,480,482,483,484,484,484,484,484,483,476,470,466,465,464,464,465,465,465,465,465,465,465,465,465,465,464,463,462,462,462,463,467,472,473,473,473,473,474,476,480,483,489,493],"ymouse":[642,642,642,642,642,642,642,642,642,642,642,642,642,642,642,642,642,642,642,642,642,642,642,642,642,642,642,642,642,642,642,642,642,642,642,642,642,642,642,642,642,642,642,642,642,642,642,642,642,642,642,642,642,642,642,641,635,625,610,601,588,583,583,583,579,567,553,542,527,490,445,342,265,209,176,133,118,106,95,81,78,77,76,75,74,73,73,73,70,65,65,65,65,62,60,58,56,54,52,52,52,52,52,52,52,52,52,52,52,52,52,52,52,52,52,52,52,52,52,52,52,52,52,52,52,52,52,52,52,52,52,52,52,52,52,52,52,52,52,52,52,52,52,52,52,52,52,52,52,52,52,52,52,52,52,52,52,52,52,52,52,52,52,52,52,52,52,52,52,52,52,52,52,52,52,52,52,52,52,52,52,52,52,52,52,52,52,52,52,52,52,52,52,52,52,52,52,52,52,52,52,52,52,52,52,52,52,52,52,52,52,52,52,52,76,116,143,171,201,227,250,250,250,251,251,250,245,238,231,224,204,198,194,190,190,190,190,190,190,194,199,202,204,207,210,210,210,210,210,210,210,210,210,210,210,210,210,210,210,210,210,210,210,210,210,210,210,210,210,210,210,210,210,210,210,210,210,210,210,210,210,210,210,210,210,216,221,224,236,250,271,272,272,272,272,272,274,275,275,275,273,268,265,260,257,257,257,257,257,257,257,257,257,257,257,257,257,257,257,257,257,257,257,257,257,257,257,257,259,327,377,387,388,388,388,388,388,388,374,326,261,261,261,261,261,261,261,261,261,261,261,261,261,261,261,261,261,261,261,261,261,261,261,265,289,308,308,308,308,308,308,307,304,300,296,296,296,296,296,296,296,296,296,296,296,296,296,296,296,296,296,296,296,296,296,296,296,296,296,296,296,314,338,376,417,520,520,520,520,520,520,520,520,520,520,520,520,520,520,520,520,520,520,520,520,520,520,520,520,520,520,520,520,520,520,520,520,520,520,520,520,520,520,520,520,520,520,520,520,520,520,520,520,520,814,670,595,531,462,403,375,352,354,363,366,366,359,347,334,331,330,330,327,318,309,292,287,284,278,275,266,246,236,229,224,223,219,216,216,212,201,194,187,183,181,181,180,179,172,165,159,157,153,151,148,148,148,148,148,148,148,148,148,148,148,148,147,147,146,145,140,136,135,135,135,135,134,131,125,122,110,97],"timestamp_mouse":[12,35,47,68,88,107,129,148,168,187,207,227,248,269,288,307,327,349,367,387,407,427,449,468,487,508,528,548,567,587,608,627,647,667,687,707,727,747,767,789,807,827,848,868,887,907,927,947,968,987,1008,1028,1049,1068,1087,1107,1127,1148,1168,1187,1208,1227,1247,1268,1287,1308,1327,1347,1368,1387,1407,1427,1448,1467,1487,1508,1527,1548,1568,1587,1607,1628,1648,1668,1687,1708,1727,1747,1767,1788,1807,1827,1847,1867,1888,1908,1929,1947,1968,1987,2007,2027,2048,2068,2087,2107,2127,2149,2168,2188,2207,2228,2247,2267,2288,2307,2328,2348,2367,2387,2407,2428,2447,2468,2488,2507,2527,2548,2567,2588,2608,2628,2647,2668,2687,2709,2729,2747,2767,2788,2808,2828,2847,2868,2887,2907,2927,2949,2969,2988,3008,3028,3048,3069,3089,3108,3127,3147,3167,3187,3207,3228,3247,3267,3288,3307,3328,3348,3369,3388,3408,3427,3447,3467,3489,3507,3528,3548,3568,3588,3608,3628,3648,3667,3688,3707,3728,3749,3769,3787,3807,3828,3847,3868,3888,3907,3928,3947,3969,3988,4008,4027,4048,4068,4088,4108,4129,4147,4168,4189,4209,4228,4247,4267,4287,4308,4328,4347,4367,4387,4408,4429,4449,4468,4488,4508,4527,4548,4567,4587,4607,4629,4649,4667,4687,4708,4728,4749,4769,4789,4807,4827,4848,4867,4889,4907,4927,4948,4968,4988,5008,5028,5047,5069,5089,5108,5127,5147,5168,5189,5207,5227,5249,5268,5288,5308,5328,5347,5367,5389,5407,5428,5448,5468,5487,5507,5528,5548,5568,5589,5607,5628,5648,5668,5687,5707,5727,5748,5768,5787,5808,5827,5849,5868,5888,5907,5928,5947,5968,5987,6008,6028,6047,6068,6088,6109,6128,6147,6167,6187,6208,6227,6248,6268,6288,6307,6327,6348,6368,6389,6407,6427,6447,6468,6489,6508,6528,6547,6569,6589,6607,6628,6647,6669,6688,6708,6729,6748,6767,6788,6808,6828,6847,6867,6888,6907,6927,6948,6967,6987,7008,7028,7047,7067,7088,7109,7129,7148,7167,7187,7207,7228,7247,7267,7287,7307,7328,7349,7368,7388,7407,7428,7448,7468,7487,7508,7527,7548,7568,7588,7607,7627,7647,7669,7688,7708,7728,7748,7767,7788,7808,7827,7847,7867,7889,7907,7927,7948,7968,7989,8007,8028,8048,8067,8087,8107,8127,8147,8169,8189,8208,8229,8247,8268,8288,8309,8329,8347,8367,8388,8407,8429,8447,8469,8488,8508,8527,8548,8567,8588,8607,8629,8648,8668,8687,8709,8728,8748,8768,8788,8808,8827,8847,8868,8887,8909,8928,8949,8968,8987,9007,9028,9048,9067,9088,9107,9127,9148,9167,9189,9207,9228,9248,9267,9288,9307,9327,9348,9369,9387,9407,9428,9448,9467,9488,9508,9528,9549,9567,9587,9607,9628,9648,9667,9688,9708,9728,9748,9768,9788,9808,9827,9848,9868,9887,9908,9927,9948,9968,9987,10007,10028,10049,10069,10087,10108,10129,10147,10168,10189,10207,10227,10247,10267,10289,10308,10328,10347,10367,10387,10407,10428,10447,10468,10488,10507,10527,10548,10567,10588,10607,10628],"xSR":741.5,"ySR":573.95,"xT1":424.9,"yT1":0,"xT2":1058.1,"yT2":0,"toosoon":0,"cond_shown":"Congruent","ratio_trial":200,"L_num":12,"L_den":20,"R_num":6,"R_den":15,"correct_side":1,"subjID":"CHEILYNESPITIAYEPES33","gender":"1","school":"4","age":"9"},{"start_time":1552054159831,"click_time":1552054162102,"finger_time":1552054161281,"fix_duration":786.294242453167,"trial":3,"RT":1450,"MT":821,"sideResp":1,"stimulus":[],"xmouse":[751,751,751,751,751,751,751,751,751,751,751,751,751,751,751,751,751,751,751,751,751,751,751,751,751,751,751,751,751,751,751,751,751,751,751,751,751,751,751,751,751,751,751,751,751,751,751,751,751,751,751,751,751,751,751,751,751,751,751,751,751,751,751,751,751,751,751,751,751,751,751,750,733,723,713,704,698,691,687,684,682,671,664,656,646,639,630,605,581,541,510,495,486,486,485,485,484,484,484,484,484,494,507,515,518,520,521,521,521,521,521,521,492,480],"ymouse":[610,610,610,610,610,610,610,610,610,610,610,610,610,610,610,610,610,610,610,610,610,610,610,610,610,610,610,610,610,610,610,610,610,610,610,610,610,610,610,610,610,610,610,610,610,610,610,610,610,610,610,610,610,610,610,610,610,610,610,610,610,610,610,610,610,610,610,610,610,610,609,585,501,463,430,407,391,374,367,365,363,351,336,318,300,287,271,249,240,225,216,213,207,207,207,207,206,206,206,206,206,203,197,190,184,179,176,176,176,176,173,165,114,95],"timestamp_mouse":[19,30,51,71,90,110,130,150,169,189,210,229,250,270,289,310,331,351,369,389,410,431,450,470,489,510,531,550,570,590,609,629,651,669,689,710,730,750,771,791,810,830,850,869,890,909,929,949,969,989,1011,1030,1050,1069,1090,1109,1131,1149,1169,1190,1211,1231,1249,1269,1291,1311,1331,1350,1369,1390,1411,1430,1450,1469,1490,1510,1530,1549,1569,1590,1610,1631,1649,1670,1690,1710,1730,1750,1769,1789,1809,1830,1850,1870,1890,1910,1930,1950,1970,1989,2009,2031,2049,2070,2090,2110,2131,2151,2170,2190,2209,2229,2249,2271],"xSR":741.5,"ySR":573.95,"xT1":424.9,"yT1":0,"xT2":1058.1,"yT2":0,"toosoon":0,"cond_shown":"Congruent","ratio_trial":300,"L_num":20,"L_den":25,"R_num":9,"R_den":18,"correct_side":1,"subjID":"CHEILYNESPITIAYEPES33","gender":"1","school":"4","age":"9"},{"start_time":1552054164642,"click_time":1552054167581,"finger_time":1552054166580,"fix_duration":739.3298089474506,"trial":4,"RT":1938,"MT":1001,"sideResp":1,"stimulus":[],"xmouse":[783,783,783,783,783,783,783,783,783,783,783,783,783,783,783,783,783,783,783,783,783,783,783,783,783,783,783,783,783,783,783,783,783,783,783,783,783,783,783,783,783,783,783,783,783,783,783,783,783,783,783,783,783,783,783,783,783,783,783,783,783,783,783,783,783,783,783,783,783,783,783,783,783,783,783,783,783,783,783,783,783,783,783,783,783,783,783,783,783,783,783,783,783,783,783,783,741,708,674,648,639,627,625,620,614,611,606,602,601,598,597,595,590,586,580,577,564,555,544,534,524,504,490,478,476,476,476,476,476,475,477,492,497,500,502,502,502,502,502,502,501,501,501,501,501,501,500],"ymouse":[652,652,652,652,652,652,652,652,652,652,652,652,652,652,652,652,652,652,652,652,652,652,652,652,652,652,652,652,652,652,652,652,652,652,652,652,652,652,652,652,652,652,652,652,652,652,652,652,652,652,652,652,652,652,652,652,652,652,652,652,652,652,652,652,652,652,652,652,652,652,652,652,652,652,652,652,652,652,652,652,652,652,652,652,652,652,652,652,652,652,652,652,652,652,651,648,609,577,545,509,488,452,437,407,387,372,342,322,320,301,293,280,257,243,233,227,207,201,185,179,172,165,160,156,156,156,156,156,156,150,142,127,122,119,116,115,115,113,110,107,104,104,104,104,103,102,88],"timestamp_mouse":[19,38,58,80,100,119,138,158,180,200,219,239,258,278,298,319,338,359,379,400,418,439,460,479,499,520,539,559,579,600,619,639,660,680,700,718,738,760,780,799,819,840,858,879,898,920,938,959,980,999,1018,1039,1060,1079,1098,1120,1139,1159,1178,1200,1219,1239,1259,1278,1299,1319,1338,1358,1379,1400,1419,1439,1459,1479,1499,1520,1539,1559,1579,1599,1619,1638,1660,1678,1698,1720,1739,1759,1779,1800,1818,1839,1859,1880,1899,1919,1938,1959,1979,1998,2018,2038,2058,2079,2099,2119,2138,2158,2179,2198,2219,2239,2259,2278,2298,2318,2339,2360,2380,2398,2419,2438,2458,2478,2498,2519,2540,2559,2579,2598,2618,2638,2658,2678,2699,2718,2738,2759,2779,2798,2820,2839,2858,2878,2899,2918,2938],"xSR":741.5,"ySR":573.95,"xT1":424.9,"yT1":0,"xT2":1058.1,"yT2":0,"toosoon":0,"cond_shown":"Congruent","ratio_trial":100,"L_num":6,"L_den":20,"R_num":5,"R_den":25,"correct_side":1,"subjID":"CHEILYNESPITIAYEPES33","gender":"1","school":"4","age":"9"},{"start_time":1552054174095,"click_time":1552054176720,"finger_time":1552054175380,"fix_duration":1233.7665226175068,"trial":5,"RT":1285,"MT":1340,"sideResp":2,"stimulus":[],"xmouse":[819,819,819,819,819,819,819,819,819,819,819,819,819,819,819,819,819,819,819,819,819,819,819,819,819,819,819,819,819,819,819,819,819,819,819,819,819,819,819,819,819,819,819,819,819,819,819,819,819,819,819,819,819,819,819,819,819,819,820,821,821,821,829,837,880,924,1036,1105,1171,1229,1284,1294,1296,1298,1301,1325,1340,1353,1367,1374,1380,1389,1393,1397,1400,1404,1405,1408,1417,1432,1489,1507,1525,1563,1563,1563,1563,1563,1563,1579,1563,1528,1512,1496,1481,1467,1452,1448,1444,1441,1434,1433,1431,1429,1428,1424,1363,1309,1267,1242,1232,1230,1230,1230,1230,1230,1230,1230,1230,1227,1210,1139],"ymouse":[612,612,612,612,612,612,612,612,612,612,612,612,612,612,612,612,612,612,612,612,612,612,612,612,612,612,612,612,612,612,612,612,612,612,612,612,612,612,612,612,612,612,612,612,612,612,612,612,612,612,612,612,612,612,612,612,612,614,615,616,616,616,616,617,617,617,619,624,626,627,628,628,628,628,628,623,619,614,608,604,589,572,561,552,544,534,529,525,517,510,490,477,447,218,218,218,218,218,218,0,0,0,0,0,0,0,0,0,0,0,0,0,0,0,0,0,0,0,0,0,0,0,0,0,0,0,0,0,0,1,3,13],"timestamp_mouse":[11,31,46,67,85,105,126,145,166,187,205,226,245,266,285,306,326,347,366,386,406,426,445,467,486,506,526,546,565,586,605,626,645,666,685,705,727,747,767,786,806,825,845,866,886,906,925,945,966,985,1007,1025,1045,1065,1085,1105,1125,1146,1165,1186,1206,1225,1245,1266,1285,1305,1325,1346,1366,1386,1405,1426,1446,1465,1486,1506,1526,1546,1566,1586,1606,1627,1646,1665,1686,1705,1727,1746,1766,1785,1806,1826,1846,1865,1887,1906,1925,1945,1965,1985,2007,2026,2046,2066,2086,2106,2125,2145,2165,2186,2207,2226,2246,2265,2286,2305,2326,2345,2367,2385,2405,2426,2445,2465,2485,2506,2525,2547,2566,2586,2605,2625],"xSR":741.5,"ySR":573.95,"xT1":424.9,"yT1":0,"xT2":1058.1,"yT2":0,"toosoon":0,"cond_shown":"Congruent","ratio_trial":300,"L_num":1,"L_den":5,"R_num":11,"R_den":22,"correct_side":2,"subjID":"CHEILYNESPITIAYEPES33","gender":"1","school":"4","age":"9"},{"start_time":1552054182496,"click_time":1552054184361,"finger_time":1552054183722,"fix_duration":1293.065604386119,"trial":6,"RT":1226,"MT":639,"sideResp":2,"stimulus":[],"xmouse":[799,799,799,799,799,799,799,799,799,799,799,799,799,799,799,799,799,799,799,799,799,799,799,799,799,799,799,799,799,799,799,799,799,799,799,799,799,799,799,799,799,799,799,799,799,801,802,803,804,804,805,806,809,811,813,814,816,817,819,822,829,862,888,916,944,979,1006,1081,1111,1139,1173,1202,1227,1230,1230,1230,1230,1231,1235,1238,1238,1238,1238,1238,1236,1234,1230,1228,1222,1212,1199,1186,1162,1155],"ymouse":[620,620,620,620,620,620,620,620,620,620,620,620,620,620,620,620,620,620,620,620,620,620,620,620,620,620,620,620,620,620,620,620,620,620,620,620,620,620,620,620,620,620,620,620,620,623,624,625,626,626,627,628,631,632,635,637,639,641,641,642,642,642,642,642,635,623,609,545,504,453,383,313,196,164,144,124,104,39,13,0,0,0,0,0,0,0,0,0,0,0,0,1,7,7],"timestamp_mouse":[11,38,45,65,84,105,125,144,165,186,206,226,244,266,286,306,325,346,364,386,405,424,445,466,484,505,526,546,564,586,606,625,645,666,686,705,726,745,765,786,806,826,845,865,886,905,925,945,966,985,1005,1026,1046,1065,1086,1106,1126,1144,1166,1186,1205,1226,1245,1265,1286,1306,1325,1345,1366,1386,1406,1425,1446,1465,1485,1504,1524,1545,1566,1585,1606,1626,1645,1664,1685,1705,1726,1746,1765,1785,1806,1827,1846,1864],"xSR":741.5,"ySR":573.95,"xT1":424.9,"yT1":0,"xT2":1058.1,"yT2":0,"toosoon":0,"cond_shown":"Congruent","ratio_trial":100,"L_num":2,"L_den":5,"R_num":6,"R_den":12,"correct_side":2,"subjID":"CHEILYNESPITIAYEPES33","gender":"1","school":"4","age":"9"},{"start_time":1552054187713,"click_time":1552054189481,"finger_time":1552054187902,"fix_duration":250,"trial":7,"RT":189,"MT":1579,"sideResp":1,"stimulus":[],"xmouse":[834,834,834,833,830,819,793,784,776,774,774,774,774,775,775,773,767,764,758,749,744,729,713,689,669,643,625,623,623,623,625,640,648,651,654,654,654,654,654,654,652,640,635,628,617,611,595,589,582,571,554,489,453,420,396,391,374,366,361,358,356,354,354,354,354,354,354,354,354,354,357,366,368,371,372,373,374,377,378,382,384,391,395,397,398,401,412,423,434],"ymouse":[614,614,614,614,616,621,648,660,670,674,674,670,664,660,659,659,665,667,674,679,684,684,684,685,688,694,710,714,715,715,706,669,656,651,650,650,650,650,652,655,657,660,660,657,649,643,615,588,533,454,366,188,102,32,0,0,0,0,0,0,0,0,0,0,0,0,0,0,0,1,8,20,23,25,26,27,28,29,30,31,33,36,36,37,37,38,41,42,45],"timestamp_mouse":[11,27,47,69,89,109,127,149,169,189,208,228,247,268,289,308,328,348,368,388,409,428,449,469,488,508,528,549,568,589,609,629,647,669,688,709,729,747,768,788,809,828,847,868,888,908,927,948,968,988,1008,1028,1048,1067,1088,1107,1128,1149,1168,1188,1208,1229,1248,1268,1287,1309,1327,1348,1368,1388,1409,1430,1449,1468,1487,1509,1528,1547,1567,1588,1609,1628,1648,1668,1689,1708,1729,1749,1768],"xSR":741.5,"ySR":573.95,"xT1":424.9,"yT1":0,"xT2":1058.1,"yT2":0,"toosoon":0,"cond_shown":"Incongruent","ratio_trial":300,"L_num":4,"L_den":20,"R_num":2,"R_den":4,"correct_side":2,"subjID":"CHEILYNESPITIAYEPES33","gender":"1","school":"4","age":"9"},{"start_time":1552054194132,"click_time":1552054196340,"finger_time":1552054195582,"fix_duration":1369.7381818942736,"trial":8,"RT":1450,"MT":758,"sideResp":2,"stimulus":[],"xmouse":[775,775,775,775,775,775,775,775,775,775,775,775,775,775,775,775,775,775,775,775,775,775,775,775,775,775,775,775,775,775,775,775,775,775,775,775,775,775,775,775,775,775,775,775,775,775,775,775,775,775,775,775,775,775,775,775,775,775,777,778,778,779,780,780,782,786,797,804,810,815,822,841,862,887,919,954,1031,1067,1107,1142,1177,1197,1206,1216,1224,1232,1241,1247,1250,1256,1264,1271,1275,1277,1278,1279,1279,1279,1279,1277,1274,1270,1268,1264,1261,1256,1234,1217,1196,1170,1152],"ymouse":[587,587,587,587,587,587,587,587,587,587,587,587,587,587,587,587,587,587,587,587,587,587,587,587,587,587,587,587,587,587,587,587,587,587,587,587,587,587,587,587,587,587,587,587,587,587,587,587,587,587,587,587,587,587,587,587,588,591,593,595,596,597,598,598,599,602,606,608,609,610,611,611,609,604,594,584,553,535,511,491,460,427,408,385,365,347,315,294,274,253,230,194,178,160,141,124,94,83,75,68,65,62,62,60,60,59,59,59,59,59,59],"timestamp_mouse":[11,40,50,69,88,109,129,148,170,189,210,229,249,270,290,309,329,348,368,389,408,429,449,469,488,509,529,550,569,588,610,629,648,670,690,709,728,749,769,789,810,829,850,869,889,909,929,950,970,988,1010,1029,1049,1069,1089,1108,1129,1150,1170,1189,1209,1229,1249,1269,1289,1310,1329,1349,1370,1390,1410,1429,1450,1470,1489,1509,1530,1550,1570,1588,1609,1629,1649,1668,1689,1708,1729,1749,1768,1788,1809,1829,1850,1869,1890,1910,1929,1950,1969,1989,2010,2029,2050,2069,2089,2110,2129,2150,2170,2189,2208],"xSR":741.5,"ySR":573.95,"xT1":424.9,"yT1":0,"xT2":1058.1,"yT2":0,"toosoon":0,"cond_shown":"Incongruent","ratio_trial":100,"L_num":4,"L_den":8,"R_num":8,"R_den":20,"correct_side":1,"subjID":"CHEILYNESPITIAYEPES33","gender":"1","school":"4","age":"9"},{"start_time":1552054204582,"click_time":1552054206222,"finger_time":1552054205861,"fix_duration":1378.8945640938646,"trial":9,"RT":1279,"MT":361,"sideResp":1,"stimulus":[],"xmouse":[775,775,775,775,775,775,775,775,775,775,775,775,775,775,775,775,775,775,775,775,775,775,775,775,775,775,775,775,775,775,775,775,775,775,775,775,775,775,775,775,775,775,775,775,775,775,775,775,775,775,775,775,775,775,775,775,775,775,775,775,775,772,766,757,731,713,672,655,638,627,610,606,604,600,597,585,575,567,556,541,517,449,428],"ymouse":[641,641,641,641,641,641,641,641,641,641,641,641,641,641,641,641,641,641,641,641,641,641,641,641,641,641,641,641,641,641,641,641,641,641,641,641,641,641,641,641,641,641,641,641,641,641,641,641,641,641,641,641,641,641,641,641,641,641,641,641,642,641,637,629,613,602,577,562,544,528,500,476,435,406,363,286,251,224,202,182,157,100,81],"timestamp_mouse":[1,30,39,58,80,99,119,139,160,179,199,219,239,259,279,299,318,339,360,379,399,418,440,459,480,502,520,540,559,580,600,619,640,658,680,700,720,738,760,779,799,819,839,860,880,898,920,939,959,979,1000,1019,1040,1060,1079,1100,1119,1139,1159,1179,1199,1219,1240,1259,1279,1298,1319,1340,1360,1380,1400,1420,1439,1459,1479,1499,1519,1540,1560,1580,1598,1619,1639],"xSR":741.5,"ySR":573.95,"xT1":424.9,"yT1":0,"xT2":1058.1,"yT2":0,"toosoon":0,"cond_shown":"Congruent","ratio_trial":100,"L_num":8,"L_den":16,"R_num":2,"R_den":5,"correct_side":1,"subjID":"CHEILYNESPITIAYEPES33","gender":"1","school":"4","age":"9"},{"start_time":1552054208679,"click_time":1552054210302,"finger_time":1552054208941,"fix_duration":854.7047062673896,"trial":10,"RT":262,"MT":1361,"sideResp":1,"stimulus":[],"xmouse":[791,791,791,791,791,791,791,791,791,791,792,792,792,792,792,792,792,792,792,792,792,792,792,792,792,792,792,792,792,792,792,792,792,792,792,792,792,792,792,792,792,792,792,792,792,792,792,792,792,792,779,765,747,728,706,666,646,636,625,616,602,597,594,589,584,549,513,495,478,468,447,439,433,429,426,424,424,423,423,423,423,425],"ymouse":[592,592,592,592,591,590,588,587,585,584,579,577,575,573,571,570,567,566,566,565,565,565,565,565,565,565,565,565,565,565,565,565,565,565,565,565,565,565,565,565,565,565,565,565,565,565,565,565,565,564,560,555,547,534,518,495,486,480,475,472,467,464,462,458,450,392,342,316,291,266,216,197,179,163,151,129,120,113,108,104,99,89],"timestamp_mouse":[9,32,42,62,82,102,123,141,163,182,202,223,243,262,283,302,323,342,361,381,403,422,442,462,481,503,523,543,563,583,602,621,642,663,683,703,722,741,762,782,803,822,842,861,881,901,922,943,963,982,1003,1022,1042,1063,1082,1102,1121,1143,1163,1181,1203,1223,1242,1263,1282,1302,1322,1342,1363,1383,1402,1421,1441,1461,1481,1503,1522,1542,1562,1583,1603,1623],"xSR":741.5,"ySR":573.95,"xT1":424.9,"yT1":0,"xT2":1058.1,"yT2":0,"toosoon":0,"cond_shown":"Incongruent","ratio_trial":300,"L_num":4,"L_den":20,"R_num":2,"R_den":4,"correct_side":2,"subjID":"CHEILYNESPITIAYEPES33","gender":"1","school":"4","age":"9"},{"start_time":1552054214391,"click_time":1552054217502,"finger_time":1552054215842,"fix_duration":1488.5357947826342,"trial":11,"RT":1451,"MT":1660,"sideResp":2,"stimulus":[],"xmouse":[794,794,794,794,796,797,797,797,797,797,797,797,797,797,797,797,797,797,797,797,797,797,797,797,797,797,797,797,797,797,797,797,797,797,797,797,797,797,797,797,797,797,797,797,797,797,797,797,797,797,797,797,797,797,797,797,797,797,797,797,797,797,797,797,797,797,797,797,797,800,824,841,860,874,879,887,909,960,999,1029,1062,1064,1065,1071,1077,1093,1106,1146,1174,1204,1253,1273,1296,1324,1360,1399,1402,1405,1411,1416,1420,1421,1421,1421,1421,1421,1420,1419,1417,1416,1414,1408,1406,1404,1400,1398,1396,1392,1390,1386,1381,1376,1369,1358,1347,1310,1292,1278,1276,1276,1276,1276,1276,1276,1272,1248,1226,1205,1202,1202,1202,1202,1199,1192,1189,1188,1188,1186,1186,1186,1186,1186,1186,1184,1168,1114],"ymouse":[650,650,650,650,648,647,646,646,646,646,646,646,646,646,646,646,646,646,646,646,646,646,646,646,646,646,646,646,646,646,646,646,646,646,646,646,646,646,646,646,646,646,646,646,646,646,646,646,646,646,646,646,646,646,646,646,646,646,646,646,646,646,646,646,646,646,646,646,646,645,635,628,621,617,616,614,607,599,592,585,576,574,573,571,569,560,552,526,505,484,448,430,407,379,345,307,306,303,283,264,236,221,213,210,209,207,201,200,196,196,196,191,190,190,188,187,186,185,184,183,182,180,176,171,168,156,150,148,147,147,147,147,147,147,146,133,123,116,116,116,116,116,113,109,107,106,106,105,105,105,105,105,104,102,96,85],"timestamp_mouse":[16,32,51,70,89,109,130,150,170,190,210,229,251,270,291,310,329,351,371,391,409,430,450,470,491,510,530,550,570,590,609,630,651,671,690,710,730,749,770,791,810,830,850,870,890,911,929,951,971,990,1010,1031,1050,1071,1091,1111,1129,1151,1171,1191,1211,1230,1250,1271,1291,1311,1331,1350,1370,1390,1409,1431,1451,1471,1491,1510,1530,1550,1571,1591,1610,1630,1649,1671,1691,1710,1731,1751,1770,1789,1810,1829,1850,1870,1889,1910,1930,1951,1970,1989,2010,2030,2050,2071,2090,2109,2130,2151,2170,2189,2210,2230,2249,2270,2291,2311,2330,2350,2370,2390,2410,2429,2450,2470,2490,2510,2530,2550,2570,2590,2610,2630,2651,2670,2690,2711,2729,2751,2770,2790,2810,2831,2850,2869,2890,2910,2931,2949,2970,2989,3011,3030,3051,3070,3090,3111],"xSR":741.5,"ySR":573.95,"xT1":424.9,"yT1":0,"xT2":1058.1,"yT2":0,"toosoon":0,"cond_shown":"Congruent","ratio_trial":100,"L_num":2,"L_den":5,"R_num":6,"R_den":12,"correct_side":2,"subjID":"CHEILYNESPITIAYEPES33","gender":"1","school":"4","age":"9"},{"start_time":1552054220639,"click_time":1552054223261,"finger_time":1552054221621,"fix_duration":936.5737326503031,"trial":12,"RT":982,"MT":1640,"sideResp":2,"stimulus":[],"xmouse":[799,799,799,799,799,799,799,799,799,799,799,799,799,799,799,799,800,801,801,801,801,801,801,801,801,801,801,801,801,801,801,801,801,801,801,801,801,801,801,801,802,803,805,809,811,813,818,826,835,860,871,878,883,884,884,885,893,907,922,938,940,941,941,945,982,997,1011,1016,1019,1025,1030,1041,1052,1065,1083,1092,1101,1111,1120,1137,1144,1153,1168,1179,1185,1187,1188,1188,1188,1188,1191,1192,1192,1192,1192,1192,1192,1192,1197,1203,1211,1228,1241,1250,1260,1261,1263,1264,1264,1265,1265,1265,1265,1265,1261,1259,1253,1252,1249,1245,1243,1242,1240,1236,1224,1219,1214,1208,1202,1186,1168,1142],"ymouse":[645,645,645,645,645,645,645,645,645,645,645,645,645,645,645,645,645,644,644,644,644,644,644,644,644,644,644,644,644,644,644,644,644,644,644,644,644,644,644,644,644,644,644,644,645,645,645,645,645,645,645,645,645,645,645,645,645,642,639,637,636,635,635,634,621,615,611,608,607,604,600,587,574,561,538,526,513,499,486,463,451,434,411,396,388,386,386,386,386,386,380,379,377,376,376,376,376,376,369,361,352,282,204,166,126,123,112,110,106,97,92,89,87,87,82,81,79,78,77,77,77,77,77,77,77,77,77,77,77,77,77,77],"timestamp_mouse":[8,30,41,61,82,102,121,141,162,182,201,223,243,261,283,303,323,343,362,382,402,422,443,463,482,501,523,543,562,582,601,623,642,663,681,702,723,742,763,782,801,822,843,862,883,903,922,942,963,981,1002,1023,1042,1063,1082,1103,1122,1142,1162,1181,1202,1223,1243,1263,1281,1302,1323,1342,1362,1381,1402,1421,1442,1462,1483,1503,1521,1541,1561,1582,1602,1621,1641,1663,1683,1703,1722,1742,1761,1782,1801,1822,1842,1867,1882,1903,1922,1942,1961,1982,2002,2023,2043,2063,2083,2102,2122,2142,2163,2182,2202,2222,2242,2262,2283,2302,2323,2342,2362,2382,2403,2422,2442,2462,2482,2502,2521,2542,2563,2582,2602,2622],"xSR":741.5,"ySR":573.95,"xT1":424.9,"yT1":0,"xT2":1058.1,"yT2":0,"toosoon":0,"cond_shown":"Incongruent","ratio_trial":300,"L_num":1,"L_den":2,"R_num":2,"R_den":10,"correct_side":1,"subjID":"CHEILYNESPITIAYEPES33","gender":"1","school":"4","age":"9"},{"start_time":1552054227650,"click_time":1552054230022,"finger_time":1552054228901,"fix_duration":406.7729532305767,"trial":13,"RT":1251,"MT":1121,"sideResp":2,"stimulus":[],"xmouse":[772,772,772,772,772,772,772,772,772,772,772,772,772,772,772,772,772,772,772,772,772,772,772,772,772,772,772,772,772,772,772,772,772,772,772,772,772,772,772,772,772,772,772,772,772,772,772,772,772,772,772,772,772,772,772,772,772,772,772,772,773,802,868,952,1067,1086,1141,1219,1369,1438,1463,1476,1483,1485,1485,1485,1483,1480,1474,1471,1467,1462,1457,1450,1378,1294,1188,1102,994,982,982,980,969,937,929,929,929,929,929,931,938,944,951,957,965,973,985,999,1003,1004,1004,1004,1004,1011,1020,1028,1033,1038,1062],"ymouse":[650,650,650,650,650,650,650,650,650,650,650,650,650,650,650,650,650,650,650,650,650,650,650,650,650,650,650,650,650,650,650,650,650,650,650,650,650,650,650,650,650,650,650,650,650,650,650,650,650,650,650,650,650,650,650,650,650,650,650,650,650,651,651,653,628,610,587,553,475,415,384,360,345,338,325,316,303,292,270,259,253,247,242,239,224,212,196,171,139,134,134,132,127,120,117,117,117,117,116,107,99,92,86,82,74,67,58,48,46,45,45,45,45,44,43,43,43,43,45],"timestamp_mouse":[12,34,51,72,92,112,131,151,172,192,212,231,250,272,291,311,332,351,371,392,410,431,451,471,491,512,531,551,572,591,611,631,651,672,692,711,732,751,771,790,812,832,851,870,892,912,932,951,970,992,1012,1032,1052,1070,1090,1112,1131,1150,1171,1191,1211,1231,1251,1270,1291,1311,1332,1352,1372,1391,1410,1431,1451,1471,1492,1511,1530,1550,1572,1591,1612,1631,1652,1671,1692,1712,1732,1751,1773,1791,1812,1832,1850,1872,1891,1912,1931,1951,1972,1991,2012,2032,2051,2071,2091,2111,2131,2151,2172,2191,2211,2231,2251,2272,2290,2311,2331,2351,2372],"xSR":741.5,"ySR":573.95,"xT1":424.9,"yT1":0,"xT2":1058.1,"yT2":0,"toosoon":0,"cond_shown":"Congruent","ratio_trial":300,"L_num":1,"L_den":30,"R_num":8,"R_den":24,"correct_side":2,"subjID":"CHEILYNESPITIAYEPES33","gender":"1","school":"4","age":"9"},{"start_time":1552054233333,"click_time":1552054235141,"finger_time":1552054234261,"fix_duration":1291.6687969409713,"trial":14,"RT":928,"MT":880,"sideResp":2,"stimulus":[],"xmouse":[794,794,794,794,794,794,794,794,794,794,794,794,794,794,794,794,794,794,794,794,794,794,794,794,794,794,794,794,794,794,794,794,794,794,794,794,794,794,794,794,794,794,794,794,799,835,867,900,924,938,959,975,996,1027,1074,1121,1139,1155,1169,1182,1205,1217,1224,1230,1233,1235,1235,1235,1235,1235,1232,1230,1225,1223,1218,1215,1211,1208,1207,1206,1200,1196,1186,1184,1181,1179,1178,1168,1152,1137,1123],"ymouse":[594,594,594,594,594,594,594,594,594,594,594,594,594,594,594,594,594,594,594,594,594,594,594,594,594,594,594,594,594,594,594,594,594,594,594,594,594,594,594,594,594,594,594,594,593,583,576,571,566,561,545,533,515,494,460,419,400,381,360,338,286,257,228,193,175,159,156,155,155,153,151,149,147,147,146,144,142,141,139,139,135,131,127,125,124,120,119,114,109,104,99],"timestamp_mouse":[11,36,48,68,97,108,128,148,168,188,207,227,248,269,288,308,329,348,369,389,409,428,448,467,489,508,528,548,568,589,608,629,648,667,687,709,729,749,769,789,808,829,848,869,889,908,928,948,968,987,1009,1029,1048,1068,1089,1107,1129,1148,1169,1188,1208,1229,1248,1267,1287,1308,1329,1348,1369,1388,1408,1429,1449,1469,1488,1507,1529,1548,1568,1588,1608,1628,1648,1668,1688,1708,1729,1748,1767,1787,1808],"xSR":741.5,"ySR":573.95,"xT1":424.9,"yT1":0,"xT2":1058.1,"yT2":0,"toosoon":0,"cond_shown":"Incongruent","ratio_trial":100,"L_num":2,"L_den":4,"R_num":6,"R_den":15,"correct_side":1,"subjID":"CHEILYNESPITIAYEPES33","gender":"1","school":"4","age":"9"},{"start_time":1552054238858,"click_time":1552054241922,"finger_time":1552054240901,"fix_duration":814.0236278572967,"trial":15,"RT":2043,"MT":1021,"sideResp":1,"stimulus":[],"xmouse":[757,757,757,757,757,757,757,757,757,757,757,757,757,757,757,757,757,757,757,757,757,757,757,757,757,757,757,757,757,757,757,757,757,757,757,757,757,755,754,754,753,753,753,753,753,753,753,753,753,752,751,750,750,750,749,749,749,749,749,749,749,749,749,749,749,749,749,749,749,749,749,749,749,749,749,748,748,748,748,746,743,745,749,751,751,751,751,751,751,751,751,751,751,751,751,751,751,755,758,761,763,772,779,770,733,645,589,529,475,422,335,315,300,288,277,265,265,265,265,265,265,265,267,274,279,279,279,280,281,285,294,295,295,295,296,306,315,323,333,345,380,392,396,396,396,396,396,396,396,396,397,401,414,436],"ymouse":[599,599,599,599,599,599,599,599,599,599,599,599,599,599,599,599,599,599,599,599,599,599,599,599,599,599,599,599,599,599,599,599,599,599,599,599,599,599,599,599,599,599,599,599,599,599,599,599,599,599,599,599,599,599,600,600,600,600,600,600,600,600,600,600,600,600,600,600,600,600,600,600,600,600,600,600,600,600,600,600,602,610,620,630,639,641,641,641,641,641,641,641,641,641,641,641,641,642,642,642,642,626,559,457,364,245,211,185,162,140,101,86,63,45,32,23,23,23,23,23,23,21,21,18,17,17,17,17,17,17,17,17,17,17,17,17,19,21,24,26,32,34,35,35,35,35,35,35,35,35,35,35,39,45],"timestamp_mouse":[10,29,44,64,82,104,123,142,164,183,202,224,243,263,283,304,322,343,363,383,402,422,444,464,483,503,523,542,562,584,602,622,644,663,683,703,722,744,764,782,804,824,842,862,883,903,923,943,963,983,1002,1023,1042,1063,1083,1104,1123,1144,1164,1183,1204,1223,1244,1263,1283,1303,1322,1344,1363,1383,1402,1424,1443,1464,1483,1503,1522,1543,1564,1583,1603,1623,1644,1663,1683,1704,1723,1742,1764,1783,1803,1822,1844,1863,1884,1903,1924,1943,1963,1984,2004,2023,2043,2063,2083,2104,2124,2142,2163,2182,2203,2222,2243,2263,2283,2302,2322,2343,2363,2384,2403,2422,2443,2464,2484,2503,2523,2542,2564,2582,2602,2623,2643,2664,2683,2704,2723,2743,2763,2782,2803,2822,2843,2863,2883,2902,2924,2944,2963,2984,3002,3022,3043,3064],"xSR":741.5,"ySR":573.95,"xT1":424.9,"yT1":0,"xT2":1058.1,"yT2":0,"toosoon":0,"cond_shown":"Incongruent","ratio_trial":200,"L_num":9,"L_den":15,"R_num":8,"R_den":10,"correct_side":2,"subjID":"CHEILYNESPITIAYEPES33","gender":"1","school":"4","age":"9"},{"start_time":1552054244779,"click_time":1552054246482,"finger_time":1552054245881,"fix_duration":936.1210249067451,"trial":16,"RT":1102,"MT":601,"sideResp":2,"stimulus":[],"xmouse":[791,791,791,791,791,791,791,791,791,791,791,791,791,791,791,791,791,791,791,791,791,791,791,791,791,791,791,791,791,791,791,791,791,791,791,791,791,791,791,791,791,791,791,791,791,791,791,791,791,791,791,791,791,791,813,880,963,1047,1139,1187,1201,1217,1236,1261,1332,1367,1407,1419,1421,1419,1400,1387,1369,1351,1315,1308,1304,1304,1304,1304,1304,1300,1286,1261,1174,1130],"ymouse":[622,622,622,622,622,622,622,622,622,622,622,622,622,622,622,622,622,622,622,622,622,622,622,622,622,622,622,622,622,622,622,622,622,622,622,622,622,622,622,622,622,622,622,622,622,622,622,622,622,622,622,622,622,622,607,590,573,562,539,516,503,485,463,434,351,299,228,191,167,148,122,112,105,100,90,88,87,87,87,87,87,87,81,76,67,65],"timestamp_mouse":[10,30,42,62,81,101,123,141,163,182,201,223,242,263,282,301,323,343,362,383,401,422,442,462,483,502,523,541,561,583,603,621,641,662,682,701,722,743,763,783,801,821,841,862,882,903,921,943,961,983,1001,1022,1042,1062,1082,1102,1122,1142,1162,1181,1201,1223,1242,1263,1282,1301,1323,1342,1361,1382,1402,1421,1443,1463,1482,1501,1522,1542,1561,1582,1603,1621,1641,1661,1682,1703],"xSR":741.5,"ySR":573.95,"xT1":424.9,"yT1":0,"xT2":1058.1,"yT2":0,"toosoon":0,"cond_shown":"Congruent","ratio_trial":300,"L_num":2,"L_den":20,"R_num":10,"R_den":25,"correct_side":2,"subjID":"CHEILYNESPITIAYEPES33","gender":"1","school":"4","age":"9"},{"start_time":1552054248471,"click_time":1552054250781,"finger_time":1552054250481,"fix_duration":588.7183984530908,"trial":17,"RT":2010,"MT":300,"sideResp":2,"stimulus":[],"xmouse":[771,771,771,771,771,771,771,771,771,771,771,771,771,771,771,771,771,771,771,771,771,771,771,771,771,771,771,771,771,771,771,771,771,771,771,771,771,771,771,771,771,771,771,771,771,771,771,771,771,771,771,771,771,771,771,771,771,771,771,771,771,771,771,771,771,771,771,771,771,771,771,771,771,771,771,771,771,771,771,771,771,771,771,771,771,771,771,771,771,771,771,771,771,771,771,771,771,782,789,831,852,861,871,886,900,946,978,1015,1049,1089,1112,1119,1124,1130,1135,1135],"ymouse":[652,652,652,652,652,652,652,652,652,652,652,652,652,652,652,652,652,652,652,652,652,652,652,652,652,652,652,652,652,652,652,652,652,652,652,652,652,652,652,652,652,652,652,652,652,652,652,652,652,652,652,652,652,652,652,652,652,652,652,652,652,652,652,652,652,652,652,652,652,652,652,652,652,652,652,652,652,652,652,652,652,652,652,652,652,652,652,652,652,652,652,652,652,652,652,652,652,643,638,615,605,598,589,576,562,508,472,429,389,329,269,245,220,187,113,85],"timestamp_mouse":[11,36,50,70,89,109,129,151,171,190,210,231,251,271,290,311,329,349,371,390,410,431,449,469,491,511,531,551,570,589,610,630,651,670,691,710,729,751,770,790,811,831,850,870,889,910,930,951,970,990,1010,1030,1049,1071,1090,1110,1130,1150,1169,1190,1211,1231,1250,1269,1290,1310,1329,1351,1370,1390,1410,1430,1451,1470,1490,1510,1530,1550,1570,1591,1609,1631,1651,1671,1690,1709,1730,1750,1770,1790,1811,1830,1850,1869,1890,1911,1931,1949,1969,1990,2010,2031,2050,2071,2090,2111,2130,2151,2170,2189,2209,2231,2250,2270,2291,2309],"xSR":741.5,"ySR":573.95,"xT1":424.9,"yT1":0,"xT2":1058.1,"yT2":0,"toosoon":0,"cond_shown":"Congruent","ratio_trial":100,"L_num":6,"L_den":20,"R_num":5,"R_den":25,"correct_side":1,"subjID":"CHEILYNESPITIAYEPES33","gender":"1","school":"4","age":"9"},{"start_time":1552054252536,"click_time":1552054254201,"finger_time":1552054253821,"fix_duration":532.0740277795567,"trial":18,"RT":1285,"MT":380,"sideResp":1,"stimulus":[],"xmouse":[767,767,767,767,767,767,767,767,767,767,767,767,767,767,767,767,767,767,767,767,767,767,767,767,767,767,767,767,767,767,767,767,767,767,767,767,767,767,767,767,767,767,767,767,767,767,767,767,767,767,767,767,767,767,767,767,767,764,761,759,758,757,756,752,741,722,691,657,569,533,498,473,454,433,431,430,430,430,431,433,437,443,448,465],"ymouse":[608,608,608,608,608,608,608,608,608,608,608,608,608,608,608,608,608,608,608,608,608,608,608,608,608,608,608,608,608,608,608,608,608,608,608,608,608,608,608,608,608,608,608,608,608,608,608,608,608,608,608,608,608,608,608,608,608,608,608,608,608,608,608,608,600,584,560,535,459,419,374,338,302,252,239,231,225,218,200,187,171,151,132,71],"timestamp_mouse":[10,32,45,66,86,105,126,145,166,184,206,225,246,266,285,305,325,346,365,386,406,425,446,466,485,506,526,546,564,585,605,626,645,664,686,706,725,745,765,785,806,825,846,865,886,906,925,946,965,985,1005,1025,1046,1066,1085,1105,1124,1145,1166,1184,1206,1225,1245,1264,1285,1306,1324,1345,1365,1384,1405,1424,1444,1465,1485,1506,1526,1544,1565,1585,1606,1625,1645,1664],"xSR":741.5,"ySR":573.95,"xT1":424.9,"yT1":0,"xT2":1058.1,"yT2":0,"toosoon":0,"cond_shown":"Incongruent","ratio_trial":100,"L_num":17,"L_den":30,"R_num":10,"R_den":15,"correct_side":2,"subjID":"CHEILYNESPITIAYEPES33","gender":"1","school":"4","age":"9"},{"start_time":1552054257214,"click_time":1552054258742,"finger_time":1552054258061,"fix_duration":511.5328837133816,"trial":19,"RT":847,"MT":681,"sideResp":1,"stimulus":[],"xmouse":[806,806,806,806,806,806,806,806,806,806,806,806,806,806,806,806,806,806,806,806,806,806,806,806,806,806,806,806,806,806,806,806,806,806,806,806,806,805,804,794,775,755,717,683,634,622,617,612,607,590,577,563,551,542,529,526,523,519,517,513,509,505,505,505,506,506,506,506,505,504,503,500,494,488,476,468,460],"ymouse":[637,637,637,637,637,637,637,637,637,637,637,637,637,637,637,637,637,637,637,637,637,637,637,637,637,637,637,637,637,637,637,637,637,637,637,637,637,637,637,636,620,604,583,564,540,532,528,526,522,513,505,495,486,477,460,450,437,414,396,345,307,269,240,212,175,166,162,159,158,157,154,147,136,126,109,100,90],"timestamp_mouse":[11,31,48,68,86,107,127,148,166,188,207,227,246,268,288,306,328,347,368,387,406,426,446,467,488,506,527,548,567,588,606,628,647,668,688,707,726,748,768,787,807,827,847,867,887,907,927,946,966,986,1006,1027,1048,1068,1087,1106,1128,1147,1166,1186,1208,1227,1247,1267,1287,1308,1328,1346,1368,1387,1407,1428,1447,1466,1487,1508,1528],"xSR":741.5,"ySR":573.95,"xT1":424.9,"yT1":0,"xT2":1058.1,"yT2":0,"toosoon":0,"cond_shown":"Congruent","ratio_trial":200,"L_num":8,"L_den":15,"R_num":2,"R_den":6,"correct_side":1,"subjID":"CHEILYNESPITIAYEPES33","gender":"1","school":"4","age":"9"},{"start_time":1552054263797,"click_time":1552054265562,"finger_time":1552054264641,"fix_duration":1274.3627856892301,"trial":20,"RT":844,"MT":921,"sideResp":1,"stimulus":[],"xmouse":[798,798,798,798,798,798,798,798,798,798,798,798,798,798,798,798,798,798,798,798,798,798,798,798,798,798,798,798,798,798,798,798,798,798,793,790,785,780,775,770,761,742,732,723,713,700,661,648,636,626,621,619,619,619,619,611,567,554,543,532,518,494,489,488,488,488,488,488,488,488,487,486,485,484,482,481,474,470,463,458,451,443,439,435,431,425,424,424,425],"ymouse":[596,596,596,596,596,596,596,596,596,596,596,596,596,596,596,596,596,596,596,596,596,596,596,596,596,596,596,596,596,596,596,596,597,597,601,604,607,609,611,612,615,620,623,626,629,632,635,631,625,619,616,615,615,615,614,604,581,576,572,565,553,517,494,468,446,415,379,366,354,345,335,317,307,297,289,273,250,238,222,208,192,163,148,132,118,100,82,77,72],"timestamp_mouse":[12,36,45,64,84,105,124,143,163,183,205,224,243,265,283,305,324,345,363,384,405,424,444,464,484,503,524,543,564,585,604,625,644,664,684,705,724,743,764,783,805,825,844,864,883,905,924,944,963,984,1003,1023,1045,1064,1085,1103,1123,1144,1164,1183,1204,1223,1245,1263,1283,1305,1325,1344,1363,1383,1403,1423,1444,1465,1484,1503,1525,1545,1564,1583,1603,1623,1644,1665,1684,1703,1723,1744,1765],"xSR":741.5,"ySR":573.95,"xT1":424.9,"yT1":0,"xT2":1058.1,"yT2":0,"toosoon":0,"cond_shown":"Congruent","ratio_trial":300,"L_num":4,"L_den":10,"R_num":1,"R_den":10,"correct_side":1,"subjID":"CHEILYNESPITIAYEPES33","gender":"1","school":"4","age":"9"},{"start_time":1552054268340,"click_time":1552054269541,"finger_time":1552054268824,"fix_duration":1018.3115208798132,"trial":21,"RT":484,"MT":717,"sideResp":2,"stimulus":[],"xmouse":[791,791,791,791,791,791,791,791,791,791,791,791,791,791,791,791,791,791,791,791,791,791,791,791,788,788,788,788,788,788,788,788,788,788,788,788,788,788,788,788,788,791,798,805,837,887,909,984,1030,1094,1103,1107,1107,1108,1110,1110,1110,1110,1110,1110,1110],"ymouse":[636,636,636,636,636,636,636,636,636,636,636,636,636,636,636,636,636,636,636,636,636,636,654,662,679,679,679,679,679,679,679,679,679,679,679,679,679,679,679,679,676,665,649,631,556,437,387,205,82,0,0,0,0,0,0,0,0,0,0,0,5],"timestamp_mouse":[9,31,41,61,81,100,121,141,161,180,201,221,241,261,281,301,321,340,361,380,402,420,440,461,484,502,521,541,561,581,602,621,640,660,682,700,720,741,762,780,800,820,841,860,881,900,922,941,961,982,1001,1020,1041,1062,1081,1101,1121,1141,1161,1180,1201],"xSR":741.5,"ySR":573.95,"xT1":424.9,"yT1":0,"xT2":1058.1,"yT2":0,"toosoon":0,"cond_shown":"Incongruent","ratio_trial":200,"L_num":7,"L_den":10,"R_num":12,"R_den":24,"correct_side":1,"subjID":"CHEILYNESPITIAYEPES33","gender":"1","school":"4","age":"9"},{"start_time":1552054276893,"click_time":1552054278101,"finger_time":1552054277661,"fix_duration":250,"trial":22,"RT":768,"MT":440,"sideResp":1,"stimulus":[],"xmouse":[812,812,812,812,812,812,812,812,812,812,812,812,812,812,812,812,812,812,812,812,812,812,812,812,812,812,812,812,812,812,812,812,812,812,812,809,798,759,741,724,713,704,695,690,685,685,685,685,683,677,662,638,608,510,476,446,425,415,422,437,453],"ymouse":[607,607,607,607,607,607,607,607,607,607,607,607,607,607,607,607,607,607,607,607,607,607,607,607,607,607,607,607,607,607,607,607,607,607,607,607,607,600,595,590,588,584,575,567,561,561,561,561,561,557,543,520,487,375,333,307,291,250,192,108,28],"timestamp_mouse":[11,33,48,68,89,108,128,148,167,187,208,228,249,267,289,309,329,348,369,387,408,428,447,468,489,507,529,549,568,589,608,627,647,669,689,708,728,748,768,788,809,828,848,868,888,909,928,947,968,987,1008,1028,1047,1067,1088,1108,1129,1149,1167,1188,1208],"xSR":741.5,"ySR":573.95,"xT1":424.9,"yT1":0,"xT2":1058.1,"yT2":0,"toosoon":0,"cond_shown":"Incongruent","ratio_trial":100,"L_num":10,"L_den":25,"R_num":8,"R_den":16,"correct_side":2,"subjID":"CHEILYNESPITIAYEPES33","gender":"1","school":"4","age":"9"},{"start_time":1552054282014,"click_time":1552054283501,"finger_time":1552054283041,"fix_duration":1092.714142411603,"trial":23,"RT":1027,"MT":460,"sideResp":1,"stimulus":[],"xmouse":[798,798,798,798,798,798,798,798,798,798,798,798,798,798,798,798,798,798,798,798,798,798,798,798,798,798,798,798,798,798,798,798,798,798,798,798,798,798,798,797,797,796,796,796,796,795,794,784,774,764,751,734,682,655,639,628,613,597,588,580,569,553,514,491,473,455,448,437,434,433,431,431,431,431,431],"ymouse":[640,640,637,636,635,635,635,635,635,635,635,635,635,635,635,635,635,635,635,635,635,635,635,635,635,635,635,635,635,635,635,635,635,635,635,635,635,632,631,630,630,628,628,627,627,627,627,623,618,606,575,525,384,324,299,291,290,290,288,281,270,248,211,198,191,186,182,169,162,153,144,135,113,101,88],"timestamp_mouse":[11,30,47,67,88,107,127,148,167,186,208,227,246,266,287,306,328,348,368,386,407,427,448,466,488,507,527,547,568,588,606,628,647,666,688,707,726,746,768,788,807,826,847,866,887,907,927,947,968,987,1008,1027,1046,1067,1087,1107,1128,1147,1167,1187,1208,1227,1247,1266,1287,1307,1328,1346,1368,1386,1407,1427,1447,1468,1487],"xSR":741.5,"ySR":573.95,"xT1":424.9,"yT1":0,"xT2":1058.1,"yT2":0,"toosoon":0,"cond_shown":"Congruent","ratio_trial":300,"L_num":8,"L_den":16,"R_num":1,"R_den":5,"correct_side":1,"subjID":"CHEILYNESPITIAYEPES33","gender":"1","school":"4","age":"9"},{"start_time":1552054288381,"click_time":1552054289940,"finger_time":1552054289341,"fix_duration":1097.8941830408316,"trial":24,"RT":960,"MT":599,"sideResp":2,"stimulus":[],"xmouse":[773,773,773,773,773,773,773,773,773,773,773,773,773,773,773,773,773,773,773,773,773,773,773,773,773,773,773,773,773,773,773,773,773,773,773,773,773,773,773,773,773,773,773,774,775,790,810,832,853,871,895,904,910,915,919,945,959,976,991,1034,1057,1085,1105,1113,1115,1115,1115,1115,1115,1115,1115,1115,1113,1112,1112,1109,1109,1108,1107],"ymouse":[615,615,615,615,615,615,615,615,615,615,615,615,615,615,615,615,615,615,615,615,615,615,615,615,615,615,615,615,615,615,615,615,615,615,615,615,615,615,615,615,615,615,615,615,615,614,608,602,596,591,582,578,576,574,573,559,551,541,530,480,443,390,344,313,293,242,225,209,195,179,148,132,125,114,113,106,105,102,99],"timestamp_mouse":[9,31,41,61,79,100,120,140,159,179,200,221,240,259,281,299,321,341,359,380,401,421,440,460,480,499,519,540,560,579,601,621,641,660,681,701,720,739,760,781,800,819,840,861,879,900,921,939,960,979,1000,1021,1041,1059,1079,1099,1120,1141,1160,1180,1200,1220,1240,1260,1279,1299,1321,1340,1359,1380,1400,1420,1441,1460,1480,1499,1520,1539,1559],"xSR":741.5,"ySR":573.95,"xT1":424.9,"yT1":0,"xT2":1058.1,"yT2":0,"toosoon":0,"cond_shown":"Incongruent","ratio_trial":200,"L_num":1,"L_den":2,"R_num":3,"R_den":10,"correct_side":1,"subjID":"CHEILYNESPITIAYEPES33","gender":"1","school":"4","age":"9"},{"start_time":1552054291923,"click_time":1552054293362,"finger_time":1552054292780,"fix_duration":261.5301969326209,"trial":25,"RT":857,"MT":582,"sideResp":1,"stimulus":[],"xmouse":[814,814,814,814,814,814,814,814,814,814,814,814,814,814,814,814,814,814,814,814,814,814,814,814,814,814,814,814,814,814,814,814,814,814,814,814,814,814,811,805,793,749,605,539,491,458,441,435,434,434,431,428,419,415,412,410,410,410,410,412,414,416,421,425,432,437,441,443,444,445,446,448],"ymouse":[643,643,643,643,643,643,643,643,643,643,643,643,643,643,643,643,643,643,643,643,643,643,643,643,643,643,643,643,643,643,643,643,643,643,643,643,643,643,643,643,643,599,502,464,437,415,398,387,384,381,373,363,332,316,299,279,267,245,234,222,209,197,173,159,143,127,118,112,108,106,103,99],"timestamp_mouse":[18,38,58,79,98,119,137,159,179,199,218,238,258,279,299,318,339,357,378,398,419,438,459,479,498,519,538,558,579,599,619,637,658,678,698,718,739,758,778,799,818,838,857,879,897,918,938,958,978,998,1018,1038,1057,1078,1099,1118,1138,1158,1178,1199,1218,1238,1258,1278,1298,1318,1337,1357,1379,1397,1418,1439],"xSR":741.5,"ySR":573.95,"xT1":424.9,"yT1":0,"xT2":1058.1,"yT2":0,"toosoon":0,"cond_shown":"Congruent","ratio_trial":300,"L_num":8,"L_den":16,"R_num":1,"R_den":5,"correct_side":1,"subjID":"CHEILYNESPITIAYEPES33","gender":"1","school":"4","age":"9"},{"start_time":1552054299383,"click_time":1552054301202,"finger_time":1552054300741,"fix_duration":300.319689840819,"trial":26,"RT":1358,"MT":461,"sideResp":1,"stimulus":[],"xmouse":[783,783,783,783,783,783,783,783,783,783,783,783,783,783,783,783,783,783,783,783,783,783,783,783,783,783,783,783,783,783,783,783,783,783,783,783,783,783,783,783,783,783,783,783,783,783,783,783,783,783,783,783,783,783,783,783,783,783,783,783,783,783,783,783,783,781,768,736,674,509,417,399,394,392,390,385,380,376,373,371,369,369,369,369,371,378,387,400,410,418,433],"ymouse":[632,632,632,632,632,632,632,632,632,632,632,632,632,632,632,632,632,632,632,632,632,632,630,629,628,628,628,628,628,628,628,628,628,628,628,628,628,628,628,628,628,628,628,628,628,628,628,628,628,628,628,628,628,627,627,627,627,627,627,627,627,627,627,627,623,604,579,539,485,393,357,349,346,345,341,335,329,324,320,318,314,310,305,300,296,290,284,277,200,137,12],"timestamp_mouse":[30,37,58,78,97,118,137,157,178,199,217,238,259,277,298,319,338,358,378,397,419,437,457,479,498,517,539,558,578,598,619,639,658,677,699,719,739,757,779,798,819,838,857,879,898,918,937,959,978,997,1017,1038,1059,1078,1098,1119,1138,1159,1179,1199,1218,1237,1257,1278,1298,1318,1337,1358,1378,1399,1418,1437,1457,1478,1499,1519,1538,1559,1577,1599,1618,1638,1658,1679,1697,1717,1739,1758,1779,1799,1819],"xSR":741.5,"ySR":573.95,"xT1":424.9,"yT1":0,"xT2":1058.1,"yT2":0,"toosoon":0,"cond_shown":"Congruent","ratio_trial":200,"L_num":21,"L_den":30,"R_num":2,"R_den":4,"correct_side":1,"subjID":"CHEILYNESPITIAYEPES33","gender":"1","school":"4","age":"9"},{"start_time":1552054303856,"click_time":1552054306560,"finger_time":1552054305641,"fix_duration":1253.2105719849703,"trial":27,"RT":1785,"MT":919,"sideResp":2,"stimulus":[],"xmouse":[757,757,757,757,757,757,757,757,757,757,756,756,756,756,756,756,756,756,756,755,755,754,754,753,753,753,753,753,753,753,753,753,753,752,751,751,751,751,751,751,751,751,751,751,751,751,751,751,751,751,751,751,751,751,751,751,751,751,751,751,751,751,751,751,751,751,751,751,751,751,751,751,751,752,752,753,753,753,753,753,753,753,753,753,753,754,755,760,766,778,793,828,873,894,904,911,918,923,926,927,928,929,932,935,936,939,941,948,950,951,952,954,956,979,989,995,999,1000,1000,1000,1000,1000,1000,1000,1000,1000,1003,1009,1027,1037,1043,1050,1054,1056,1057,1059],"ymouse":[655,655,655,655,655,655,655,653,652,648,646,645,644,643,643,643,642,641,639,637,635,633,628,627,626,626,626,626,626,626,626,624,623,619,618,617,617,617,617,617,617,617,617,617,617,617,617,617,617,617,615,615,615,615,615,615,615,615,615,615,615,615,615,615,615,615,615,615,615,615,615,615,615,614,614,613,613,613,613,613,613,613,613,611,611,607,605,594,583,568,557,498,432,401,384,367,353,338,334,330,326,322,312,308,306,304,302,258,255,253,251,247,238,190,169,152,142,141,141,141,141,140,140,140,140,139,135,130,112,102,96,91,88,87,86,85],"timestamp_mouse":[11,32,45,66,86,104,125,146,165,185,205,225,245,265,286,305,325,344,365,386,405,425,446,466,485,504,525,546,564,584,605,625,644,665,686,705,725,745,764,784,804,824,846,866,885,906,925,944,964,986,1005,1026,1046,1065,1085,1106,1126,1146,1166,1185,1204,1225,1245,1266,1285,1306,1325,1345,1366,1384,1405,1424,1444,1464,1485,1505,1526,1546,1564,1585,1606,1626,1645,1666,1685,1704,1725,1745,1765,1785,1806,1825,1845,1865,1885,1904,1925,1946,1964,1985,2006,2024,2046,2065,2086,2105,2126,2146,2165,2185,2205,2225,2244,2264,2285,2304,2324,2345,2364,2384,2405,2424,2446,2465,2484,2504,2525,2545,2565,2585,2606,2625,2644,2664,2685,2704],"xSR":741.5,"ySR":573.95,"xT1":424.9,"yT1":0,"xT2":1058.1,"yT2":0,"toosoon":0,"cond_shown":"Incongruent","ratio_trial":300,"L_num":8,"L_den":10,"R_num":14,"R_den":28,"correct_side":1,"subjID":"CHEILYNESPITIAYEPES33","gender":"1","school":"4","age":"9"},{"start_time":1552054310642,"click_time":1552054313801,"finger_time":1552054313261,"fix_duration":900.8160694233874,"trial":28,"RT":2619,"MT":540,"sideResp":2,"stimulus":[],"xmouse":[810,810,810,810,810,810,810,810,810,810,810,810,810,810,810,810,810,810,810,810,810,810,810,810,810,810,810,810,810,810,810,810,810,810,810,810,810,810,810,810,810,810,810,810,810,806,804,802,802,802,802,801,801,801,801,801,801,801,801,801,801,801,801,801,801,802,803,804,805,806,806,806,807,807,807,807,807,807,807,807,807,808,808,809,809,809,809,810,810,810,810,811,811,811,811,811,811,812,812,812,812,813,813,813,813,813,813,813,813,813,813,813,813,813,813,813,813,813,813,813,813,813,813,813,813,813,813,813,816,836,857,884,917,987,1014,1035,1049,1054,1061,1048,1045,1038,1033,1028,1027,1027,1027,1027,1027,1027,1027,1027,1027,1035,1040,1047,1054,1063],"ymouse":[627,627,627,627,627,627,627,627,627,627,627,627,627,627,627,627,627,627,627,627,627,627,627,627,627,627,627,627,627,627,627,627,627,627,627,627,627,627,627,627,627,627,627,627,627,627,624,623,623,623,623,622,622,622,622,622,622,622,622,622,622,622,622,622,621,618,618,617,615,615,615,614,614,614,614,614,614,614,614,613,613,612,612,611,611,610,610,608,608,608,607,607,607,606,606,605,605,604,604,604,604,602,602,602,602,602,602,602,602,602,602,602,602,602,602,602,602,602,602,602,602,602,602,602,602,602,602,602,602,597,588,576,553,468,411,355,308,273,160,100,89,64,51,42,40,39,39,39,39,39,39,39,38,39,39,39,39,39],"timestamp_mouse":[20,39,59,80,99,118,140,160,180,199,219,239,259,280,299,318,340,359,379,399,418,439,459,478,500,519,540,558,578,600,618,640,659,680,698,719,738,759,779,799,820,839,858,878,898,920,939,959,978,999,1019,1040,1059,1080,1099,1119,1138,1158,1179,1198,1218,1238,1260,1280,1298,1318,1339,1360,1379,1398,1420,1439,1459,1480,1500,1520,1539,1559,1579,1600,1620,1639,1659,1680,1699,1720,1739,1758,1780,1800,1819,1839,1858,1878,1900,1918,1939,1959,1980,1998,2019,2039,2060,2080,2098,2119,2140,2160,2179,2200,2219,2238,2259,2280,2298,2319,2338,2360,2379,2400,2420,2438,2460,2480,2500,2518,2539,2559,2579,2599,2619,2639,2659,2679,2698,2718,2739,2760,2779,2798,2818,2839,2859,2878,2899,2920,2939,2959,2980,2999,3020,3040,3060,3078,3098,3119,3140,3159],"xSR":741.5,"ySR":573.95,"xT1":424.9,"yT1":0,"xT2":1058.1,"yT2":0,"toosoon":0,"cond_shown":"Incongruent","ratio_trial":300,"L_num":4,"L_den":20,"R_num":2,"R_den":4,"correct_side":2,"subjID":"CHEILYNESPITIAYEPES33","gender":"1","school":"4","age":"9"},{"start_time":1552054317368,"click_time":1552054319222,"finger_time":1552054318801,"fix_duration":666.3891433715703,"trial":29,"RT":1433,"MT":421,"sideResp":1,"stimulus":[],"xmouse":[784,784,784,785,785,785,785,786,786,786,787,787,787,787,787,787,787,787,787,787,787,787,786,786,786,786,786,786,785,785,784,784,784,784,784,784,784,784,784,784,784,784,784,784,784,784,784,784,784,784,784,784,784,784,784,784,784,784,784,784,784,784,784,784,784,784,784,784,784,784,784,783,781,771,765,759,752,743,723,713,705,695,681,664,654,643,630,607,560,543,523,501,489],"ymouse":[642,640,639,638,636,635,634,632,629,626,622,619,612,602,598,594,593,593,592,591,591,591,591,591,591,591,591,591,591,596,602,607,611,611,611,611,611,611,611,611,611,611,611,611,611,611,611,611,611,611,611,611,611,611,611,611,611,611,611,611,611,611,611,611,611,611,611,608,604,597,588,561,545,513,501,489,476,460,423,400,378,358,334,305,289,269,248,216,160,141,120,100,91],"timestamp_mouse":[13,34,53,72,93,113,133,154,173,193,214,233,252,272,293,312,333,353,374,392,412,433,453,473,493,514,533,553,573,593,614,634,654,673,692,714,734,753,774,793,812,833,854,873,893,912,933,953,972,993,1012,1033,1054,1073,1092,1113,1132,1153,1174,1193,1214,1233,1252,1272,1294,1314,1333,1354,1372,1392,1414,1433,1453,1472,1493,1512,1532,1553,1572,1592,1613,1633,1653,1673,1693,1712,1733,1753,1773,1793,1813,1832,1853],"xSR":741.5,"ySR":573.95,"xT1":424.9,"yT1":0,"xT2":1058.1,"yT2":0,"toosoon":0,"cond_shown":"Incongruent","ratio_trial":300,"L_num":1,"L_den":2,"R_num":3,"R_den":15,"correct_side":1,"subjID":"CHEILYNESPITIAYEPES33","gender":"1","school":"4","age":"9"},{"start_time":1552054324699,"click_time":1552054327321,"finger_time":1552054326580,"fix_duration":296.5396381508776,"trial":30,"RT":1881,"MT":741,"sideResp":2,"stimulus":[],"xmouse":[827,827,827,827,827,827,827,827,827,827,827,827,827,827,827,825,825,825,823,822,822,821,821,820,820,820,820,820,820,820,820,820,820,820,820,820,820,820,820,820,820,820,820,820,820,820,820,820,820,820,820,821,821,821,821,821,821,821,821,821,821,821,821,821,821,821,821,821,821,821,821,821,821,821,821,821,821,821,821,821,821,821,821,821,821,821,821,821,821,821,821,821,824,838,856,871,883,893,906,917,927,939,951,965,997,1011,1022,1030,1037,1039,1039,1039,1039,1039,1039,1039,1039,1039,1039,1039,1041,1044,1044,1044,1044,1044,1044,1044,1044,1047,1052,1063],"ymouse":[627,627,627,627,627,627,627,627,627,627,627,627,627,627,627,625,624,623,619,619,617,617,616,615,615,615,615,615,615,615,615,615,615,615,615,615,615,615,615,615,615,615,615,615,615,615,615,615,615,615,618,619,620,620,620,620,620,620,620,620,620,620,620,620,620,620,620,620,620,620,620,620,620,620,620,620,620,620,620,620,620,620,620,620,620,620,620,620,620,620,620,620,616,589,560,530,506,476,384,336,291,243,214,182,102,72,49,34,19,16,16,16,16,16,16,16,16,16,16,16,15,15,15,15,15,15,15,15,15,15,17,19],"timestamp_mouse":[10,22,42,62,82,101,123,142,161,183,202,221,242,263,283,302,321,342,362,383,402,421,441,461,483,501,521,543,563,583,603,622,643,663,682,701,721,742,762,782,801,822,843,862,883,902,922,942,963,983,1002,1021,1043,1061,1082,1103,1122,1142,1163,1182,1203,1223,1242,1262,1283,1303,1323,1341,1363,1383,1401,1422,1442,1461,1483,1501,1522,1541,1563,1583,1601,1621,1643,1662,1682,1703,1722,1741,1763,1783,1802,1822,1842,1861,1881,1901,1922,1942,1962,1982,2003,2022,2043,2061,2082,2102,2123,2143,2163,2182,2201,2223,2242,2263,2281,2301,2322,2343,2363,2382,2402,2422,2442,2461,2482,2503,2522,2542,2562,2581,2601,2622],"xSR":741.5,"ySR":573.95,"xT1":424.9,"yT1":0,"xT2":1058.1,"yT2":0,"toosoon":0,"cond_shown":"Incongruent","ratio_trial":100,"L_num":8,"L_den":16,"R_num":6,"R_den":10,"correct_side":2,"subjID":"CHEILYNESPITIAYEPES33","gender":"1","school":"4","age":"9"},{"start_time":1552054329153,"click_time":1552054330580,"finger_time":1552054330401,"fix_duration":870.4198913216871,"trial":31,"RT":1248,"MT":179,"sideResp":1,"stimulus":[],"xmouse":[780,780,780,780,780,780,780,780,780,780,780,780,780,780,780,780,780,780,780,780,780,780,780,780,780,780,780,780,780,780,780,780,780,780,780,780,780,780,780,780,780,780,780,780,780,780,780,780,780,780,780,780,780,780,780,780,780,780,780,780,779,775,768,760,747,706,682,637,612,584,553,493],"ymouse":[602,602,602,602,602,602,602,602,602,602,602,602,602,602,602,602,602,602,602,602,602,602,602,602,602,602,602,602,602,602,602,602,602,602,602,602,602,602,602,602,602,602,602,602,602,602,602,602,602,602,602,602,602,602,602,602,602,602,602,602,594,581,560,530,483,372,316,219,172,131,89,6],"timestamp_mouse":[11,37,47,69,88,108,127,147,169,189,208,228,248,267,288,308,328,349,368,388,408,428,447,468,487,509,528,549,569,588,607,627,648,668,689,709,728,748,768,789,809,829,848,869,888,908,928,948,968,988,1008,1029,1049,1067,1087,1107,1128,1147,1168,1189,1208,1228,1248,1267,1289,1308,1328,1348,1368,1387,1407,1427],"xSR":741.5,"ySR":573.95,"xT1":424.9,"yT1":0,"xT2":1058.1,"yT2":0,"toosoon":0,"cond_shown":"Congruent","ratio_trial":100,"L_num":2,"L_den":5,"R_num":6,"R_den":12,"correct_side":2,"subjID":"CHEILYNESPITIAYEPES33","gender":"1","school":"4","age":"9"},{"start_time":1552054336395,"click_time":1552054338581,"finger_time":1552054337281,"fix_duration":1272.5757653209632,"trial":32,"RT":886,"MT":1300,"sideResp":2,"stimulus":[],"xmouse":[765,765,765,765,765,765,765,765,765,765,765,765,765,765,765,765,765,765,765,765,765,765,765,765,765,765,765,765,765,765,765,765,765,765,765,765,765,765,765,765,765,767,779,800,870,908,937,963,988,1042,1097,1135,1154,1169,1173,1176,1177,1179,1184,1200,1212,1229,1239,1244,1246,1247,1247,1247,1245,1239,1234,1229,1226,1221,1216,1216,1219,1222,1224,1226,1227,1227,1227,1226,1202,1183,1170,1161,1160,1160,1160,1159,1154,1148,1137,1137,1136,1136,1135,1133,1130,1125,1125,1125,1124,1123,1122,1115,1109,1102],"ymouse":[641,641,641,641,641,641,641,641,641,641,641,641,641,641,641,641,641,641,641,641,641,641,641,641,641,641,641,641,641,641,641,641,641,641,641,641,641,641,641,641,641,640,628,615,580,563,551,540,530,505,472,450,438,430,426,424,422,420,414,395,379,355,341,333,325,324,322,321,319,317,316,313,312,307,271,255,243,232,222,208,206,202,202,202,202,202,202,200,200,198,197,196,195,192,186,185,185,184,181,179,179,174,174,174,168,166,154,137,117,73],"timestamp_mouse":[10,31,47,65,86,105,126,146,166,186,206,226,246,266,287,306,327,346,367,387,405,427,447,467,485,506,527,546,565,585,606,626,647,666,687,705,726,747,766,785,806,826,846,866,886,906,925,946,965,985,1006,1026,1046,1066,1086,1106,1127,1146,1165,1186,1205,1226,1245,1266,1286,1307,1326,1345,1367,1386,1407,1426,1446,1466,1486,1505,1526,1547,1566,1586,1605,1626,1647,1666,1686,1705,1725,1746,1766,1786,1805,1826,1845,1866,1886,1905,1927,1946,1967,1986,2006,2027,2047,2066,2086,2105,2126,2146,2165,2185],"xSR":741.5,"ySR":573.95,"xT1":424.9,"yT1":0,"xT2":1058.1,"yT2":0,"toosoon":0,"cond_shown":"Congruent","ratio_trial":300,"L_num":11,"L_den":22,"R_num":2,"R_den":10,"correct_side":1,"subjID":"CHEILYNESPITIAYEPES33","gender":"1","school":"4","age":"9"},{"start_time":1552054344027,"click_time":1552054345201,"finger_time":1552054344860,"fix_duration":1004.6719732903618,"trial":33,"RT":833,"MT":341,"sideResp":1,"stimulus":[],"xmouse":[816,816,816,816,816,816,816,816,816,816,816,816,816,816,816,816,816,816,816,816,816,816,816,816,816,816,816,816,816,816,816,816,816,816,816,816,816,816,816,816,816,816,816,805,791,758,747,722,700,688,675,665,652,620,585,574,544,532,513],"ymouse":[626,626,626,626,626,626,626,626,626,626,626,626,626,626,626,626,626,626,626,626,626,626,626,626,626,626,626,626,626,626,626,626,626,626,626,626,626,626,619,599,581,560,534,474,414,333,307,249,200,179,162,148,137,117,97,90,77,72,67],"timestamp_mouse":[14,36,55,75,93,114,135,154,175,193,214,233,253,275,294,314,335,354,374,394,415,435,454,473,494,514,534,555,574,594,613,634,654,675,695,715,734,754,773,794,814,833,854,873,895,914,934,954,973,995,1014,1034,1055,1073,1094,1114,1133,1154,1174],"xSR":741.5,"ySR":573.95,"xT1":424.9,"yT1":0,"xT2":1058.1,"yT2":0,"toosoon":0,"cond_shown":"Congruent","ratio_trial":300,"L_num":18,"L_den":20,"R_num":9,"R_den":15,"correct_side":1,"subjID":"CHEILYNESPITIAYEPES33","gender":"1","school":"4","age":"9"},{"start_time":1552054347782,"click_time":1552054349902,"finger_time":1552054349381,"fix_duration":900.3115156622372,"trial":34,"RT":1599,"MT":521,"sideResp":1,"stimulus":[],"xmouse":[762,762,762,762,762,762,762,762,762,762,762,761,761,761,761,761,761,761,761,761,761,761,761,761,761,761,761,761,761,761,761,761,761,761,761,761,761,761,761,761,761,761,761,761,761,761,761,761,761,761,761,761,761,761,761,761,761,761,761,761,761,761,761,761,761,761,761,761,761,761,761,761,761,761,761,761,765,767,768,765,751,743,732,699,658,624,539,502,463,434,419,404,398,395,395,395,395,395,395,395,395,397,411,428,447,477],"ymouse":[634,634,634,634,634,634,634,634,634,634,634,633,631,630,630,630,630,630,630,630,630,630,630,630,630,630,630,630,630,630,630,630,630,630,630,630,630,630,630,630,630,630,630,630,630,630,630,630,630,630,630,630,630,630,630,630,630,630,630,630,630,630,630,630,630,630,630,630,630,630,630,630,630,630,630,629,615,598,574,547,505,485,462,417,371,342,277,249,220,197,182,155,142,137,134,131,131,131,131,131,130,124,119,115,110,98],"timestamp_mouse":[19,38,59,79,100,120,140,158,179,200,220,239,260,278,299,320,340,360,380,399,418,440,459,478,499,518,540,559,579,599,620,640,658,680,699,718,738,760,780,800,819,838,858,879,900,919,940,959,979,998,1018,1038,1059,1079,1100,1120,1138,1158,1180,1200,1220,1239,1259,1279,1299,1320,1339,1359,1378,1399,1419,1438,1459,1479,1500,1518,1539,1558,1579,1599,1619,1638,1659,1680,1700,1718,1739,1759,1778,1799,1819,1839,1858,1879,1898,1919,1939,1959,1980,1999,2020,2039,2058,2078,2098,2120],"xSR":741.5,"ySR":573.95,"xT1":424.9,"yT1":0,"xT2":1058.1,"yT2":0,"toosoon":0,"cond_shown":"Incongruent","ratio_trial":200,"L_num":7,"L_den":15,"R_num":6,"R_den":9,"correct_side":2,"subjID":"CHEILYNESPITIAYEPES33","gender":"1","school":"4","age":"9"},{"start_time":1552054358280,"click_time":1552054360982,"finger_time":1552054360160,"fix_duration":1496.4764793874347,"trial":35,"RT":1880,"MT":822,"sideResp":2,"stimulus":[],"xmouse":[803,803,803,803,803,803,803,803,803,803,803,803,803,803,803,803,803,803,803,803,803,803,803,803,803,803,803,803,803,803,803,803,803,803,803,803,803,803,803,803,803,803,803,803,803,803,803,803,803,803,803,803,803,803,803,803,803,803,803,803,803,803,803,803,803,803,803,803,803,803,803,803,803,803,803,803,803,803,803,803,803,803,803,803,806,809,811,813,816,816,816,816,821,836,856,883,923,997,1046,1061,1075,1086,1097,1118,1130,1141,1151,1161,1180,1188,1196,1206,1210,1219,1219,1217,1210,1205,1205,1205,1198,1191,1184,1177,1176,1175,1175,1175,1174,1173,1173,1173,1173,1167,1160,1148],"ymouse":[621,621,621,621,621,621,621,621,621,621,621,621,621,621,621,621,621,621,621,621,621,621,621,621,621,621,621,621,621,621,621,621,621,621,621,621,621,621,621,621,621,621,621,621,621,621,621,621,621,621,621,621,621,621,621,621,621,621,621,621,621,621,621,621,621,621,621,621,621,621,621,621,621,621,621,621,621,621,621,621,621,621,621,619,615,609,605,599,595,595,595,595,590,578,566,552,529,485,451,438,428,418,406,376,358,342,326,303,220,168,102,29,0,0,0,0,0,0,0,4,12,22,31,42,43,45,45,46,49,50,50,50,50,51,54,58],"timestamp_mouse":[8,22,41,62,80,100,122,140,162,182,200,222,241,261,281,301,322,341,361,382,401,422,441,461,481,502,522,542,561,581,602,620,642,662,681,702,722,741,761,781,801,822,842,861,880,901,922,942,961,980,1000,1022,1041,1061,1081,1102,1121,1142,1161,1182,1201,1220,1241,1261,1282,1302,1321,1341,1362,1382,1401,1422,1442,1461,1482,1500,1521,1541,1562,1581,1600,1621,1641,1661,1681,1701,1721,1740,1762,1780,1800,1821,1841,1861,1880,1901,1920,1942,1960,1980,2001,2021,2040,2061,2081,2101,2121,2141,2161,2181,2201,2220,2240,2260,2280,2301,2321,2340,2361,2381,2401,2422,2442,2462,2482,2501,2522,2542,2561,2580,2601,2620,2640,2660,2681,2702],"xSR":741.5,"ySR":573.95,"xT1":424.9,"yT1":0,"xT2":1058.1,"yT2":0,"toosoon":0,"cond_shown":"Incongruent","ratio_trial":100,"L_num":13,"L_den":26,"R_num":6,"R_den":10,"correct_side":2,"subjID":"CHEILYNESPITIAYEPES33","gender":"1","school":"4","age":"9"},{"start_time":1552054364311,"click_time":1552054366201,"finger_time":1552054365261,"fix_duration":250,"trial":36,"RT":950,"MT":940,"sideResp":1,"stimulus":[],"xmouse":[822,822,822,822,822,822,822,822,822,822,822,822,822,822,822,822,822,822,822,822,822,822,822,822,822,822,822,822,822,822,822,822,822,822,822,822,822,822,822,822,822,822,822,822,816,797,749,732,722,716,713,709,693,684,671,658,618,584,542,501,463,433,345,303,272,247,233,231,231,231,231,231,234,237,243,254,269,299,308,313,313,313,313,314,315,316,318,325,338,353,366,373,404,420,435],"ymouse":[637,637,637,637,637,637,637,637,637,637,637,637,637,637,637,637,637,637,637,637,637,637,637,637,637,637,637,637,637,637,637,637,637,637,637,637,637,637,637,637,637,637,637,637,637,640,641,641,639,635,632,626,607,598,586,569,514,470,425,388,354,327,198,128,65,11,0,0,0,0,0,0,0,0,0,1,2,2,2,2,2,2,2,2,2,2,2,2,2,4,4,5,9,9,9],"timestamp_mouse":[12,30,50,71,90,110,130,151,171,190,210,230,251,269,290,310,331,351,370,390,410,429,450,471,489,510,529,551,571,589,609,630,650,670,689,711,730,749,770,790,811,830,849,870,890,910,930,950,971,989,1009,1029,1050,1070,1090,1111,1130,1150,1170,1189,1210,1230,1249,1270,1290,1309,1329,1349,1369,1389,1410,1432,1450,1469,1490,1510,1530,1550,1570,1590,1610,1631,1651,1669,1690,1709,1729,1749,1769,1790,1811,1830,1849,1870,1889],"xSR":741.5,"ySR":573.95,"xT1":424.9,"yT1":0,"xT2":1058.1,"yT2":0,"toosoon":0,"cond_shown":"Incongruent","ratio_trial":200,"L_num":3,"L_den":10,"R_num":1,"R_den":2,"correct_side":2,"subjID":"CHEILYNESPITIAYEPES33","gender":"1","school":"4","age":"9"},{"start_time":1552054370404,"click_time":1552054371280,"finger_time":1552054371081,"fix_duration":341.91314530166017,"trial":37,"RT":677,"MT":199,"sideResp":1,"stimulus":[],"xmouse":[789,789,789,789,789,789,789,789,789,789,789,789,789,789,789,789,789,789,789,789,789,789,789,789,789,789,789,789,789,789,789,786,772,761,746,710,679,604,573,548,525,505,482,474],"ymouse":[630,630,630,630,630,630,630,630,630,630,630,630,630,630,630,630,630,630,630,630,630,630,630,630,630,630,630,630,630,630,630,621,596,573,539,478,436,348,308,270,230,187,112,85],"timestamp_mouse":[17,37,57,76,97,118,137,157,176,197,217,236,257,276,298,317,336,358,376,396,417,438,457,477,498,516,537,558,577,596,617,637,656,677,697,718,737,756,778,798,818,837,857,876],"xSR":741.5,"ySR":573.95,"xT1":424.9,"yT1":0,"xT2":1058.1,"yT2":0,"toosoon":0,"cond_shown":"Incongruent","ratio_trial":200,"L_num":1,"L_den":2,"R_num":3,"R_den":10,"correct_side":1,"subjID":"CHEILYNESPITIAYEPES33","gender":"1","school":"4","age":"9"},{"start_time":1552054373621,"click_time":1552054374661,"finger_time":1552054374461,"fix_duration":880.7912258275943,"trial":38,"RT":840,"MT":200,"sideResp":2,"stimulus":[],"xmouse":[795,795,795,795,795,795,795,795,795,795,795,795,795,795,795,795,795,795,795,795,795,795,795,795,795,795,795,795,795,795,795,795,795,795,795,797,799,800,804,810,822,881,944,970,1008,1035,1054,1074,1082,1089,1099,1119],"ymouse":[639,639,639,639,639,639,639,639,639,639,639,639,639,639,639,639,639,639,639,639,639,639,639,639,639,639,639,639,639,639,639,639,639,639,638,636,633,630,627,618,605,539,448,406,339,279,236,191,171,149,127,82],"timestamp_mouse":[20,40,60,79,100,119,140,160,180,201,219,239,259,279,300,321,339,361,380,400,420,440,461,480,500,520,540,561,580,599,619,641,660,680,700,721,740,759,779,799,821,840,859,880,900,921,939,960,979,999,1019,1040],"xSR":741.5,"ySR":573.95,"xT1":424.9,"yT1":0,"xT2":1058.1,"yT2":0,"toosoon":0,"cond_shown":"Incongruent","ratio_trial":200,"L_num":3,"L_den":10,"R_num":1,"R_den":2,"correct_side":2,"subjID":"CHEILYNESPITIAYEPES33","gender":"1","school":"4","age":"9"},{"start_time":1552054377537,"click_time":1552054380042,"finger_time":1552054377941,"fix_duration":1254.2814869157155,"trial":39,"RT":404,"MT":2101,"sideResp":1,"stimulus":[],"xmouse":[772,772,772,772,772,772,772,772,772,772,771,770,769,769,769,769,764,756,751,747,740,732,712,703,698,698,698,698,698,698,698,698,698,698,698,698,698,698,699,699,699,699,699,701,705,709,718,727,730,733,737,741,749,751,751,752,752,752,752,752,752,752,752,752,752,752,752,752,752,752,752,752,752,752,752,752,752,752,752,752,752,752,752,752,752,752,752,753,757,760,764,767,773,776,777,778,782,785,787,788,788,788,788,785,780,751,695,641,632,627,627,627,627,627,627,622,614,597,590,585,576,565,542,532,525,521],"ymouse":[610,610,610,610,610,610,610,610,610,610,611,612,613,614,614,614,619,628,636,646,661,678,726,747,764,765,765,765,765,765,765,765,765,765,765,765,765,760,757,755,755,755,753,747,735,718,689,656,641,623,608,594,569,562,560,559,559,559,559,559,559,559,559,559,559,559,559,559,559,559,559,559,559,559,559,559,559,559,559,559,559,559,559,559,559,559,559,559,559,560,562,564,569,571,572,574,577,582,585,587,588,588,588,581,570,509,396,301,280,267,265,265,265,265,264,255,242,212,199,183,168,149,121,110,90,77],"timestamp_mouse":[3,29,44,65,84,104,123,144,163,183,204,223,243,263,285,304,323,343,364,383,404,425,444,464,484,504,523,543,564,585,605,624,643,664,684,704,723,743,765,784,804,825,844,864,883,904,923,945,964,983,1003,1025,1044,1063,1083,1104,1123,1143,1164,1184,1203,1223,1244,1263,1283,1304,1324,1344,1364,1383,1404,1424,1444,1465,1485,1503,1524,1543,1563,1584,1603,1624,1644,1664,1684,1703,1725,1744,1764,1784,1803,1824,1844,1872,1884,1904,1923,1944,1964,1983,2003,2024,2044,2064,2085,2104,2124,2144,2164,2184,2203,2223,2243,2264,2283,2303,2324,2344,2363,2383,2405,2423,2444,2465,2491,2505],"xSR":741.5,"ySR":573.95,"xT1":424.9,"yT1":0,"xT2":1058.1,"yT2":0,"toosoon":0,"cond_shown":"Congruent","ratio_trial":100,"L_num":11,"L_den":22,"R_num":6,"R_den":15,"correct_side":1,"subjID":"CHEILYNESPITIAYEPES33","gender":"1","school":"4","age":"9"},{"start_time":1552054383059,"click_time":1552054384521,"finger_time":1552054384161,"fix_duration":976.2493196437155,"trial":40,"RT":1102,"MT":360,"sideResp":1,"stimulus":[],"xmouse":[779,779,779,779,779,779,779,779,779,779,779,779,779,779,779,779,779,779,779,779,779,779,779,779,779,779,779,779,779,779,779,779,779,779,779,779,779,779,779,779,779,779,779,779,779,779,779,779,779,779,779,779,779,779,779,772,757,751,748,747,746,745,744,744,742,738,714,674,642,608,579,561,533,524],"ymouse":[588,588,588,588,588,588,588,588,588,588,588,588,588,588,588,588,588,588,588,588,588,588,588,588,588,588,588,588,588,588,588,588,588,588,588,588,