[{"start_time":1552055089173,"click_time":1552055092284,"finger_time":1552055090324,"fix_duration":503.89515752762736,"trial":0,"RT":1151,"MT":1960,"sideResp":1,"stimulus":"img/750/randomdotsizeEA/L/1_Ratio_750_L_20_R_15.png","xmouse":[783,783,783,783,783,783,783,783,783,783,783,783,783,783,783,783,783,783,783,783,783,783,783,783,783,783,783,783,783,783,783,783,783,783,783,783,783,783,783,783,783,783,783,783,783,783,783,783,783,783,783,783,783,783,783,783,783,782,782,782,782,782,782,782,782,782,782,782,782,782,782,782,782,782,782,782,782,782,782,782,782,782,782,782,782,782,782,782,782,782,782,782,782,782,781,773,765,757,750,745,741,738,736,733,728,721,718,713,708,703,700,700,700,700,700,700,700,700,700,700,700,691,683,678,671,667,664,659,651,643,616,595,570,526,495,439,420,408,401,399,398,398,396,396,396,396,396,398,401,405,408,409,410,415,422,435],"ymouse":[568,568,568,568,568,568,568,568,568,568,568,568,568,568,568,568,568,568,568,568,568,568,568,568,568,568,568,568,568,568,568,568,568,568,568,568,568,568,568,568,568,568,568,568,568,568,568,568,568,568,568,568,568,568,568,568,569,570,570,570,570,570,570,570,570,570,570,570,570,570,570,570,570,570,570,570,570,570,570,570,570,570,570,570,570,570,570,570,570,570,570,570,570,570,570,556,546,536,526,521,512,507,504,500,493,484,477,468,460,453,448,447,447,447,447,447,447,447,447,447,445,437,431,428,424,420,417,410,399,389,355,333,312,279,258,220,204,193,186,181,175,172,167,163,162,159,155,148,140,132,123,122,121,115,108,95],"timestamp_mouse":[9,39,50,71,91,110,129,151,171,191,211,231,251,271,291,310,330,350,371,391,410,431,450,471,491,510,530,551,571,590,610,631,651,670,691,711,730,751,771,790,810,831,851,871,890,910,930,950,971,990,1010,1030,1051,1070,1090,1110,1130,1151,1171,1191,1210,1231,1250,1271,1290,1310,1330,1350,1370,1391,1410,1430,1451,1470,1490,1510,1531,1550,1571,1591,1610,1630,1651,1671,1690,1711,1730,1750,1770,1791,1810,1830,1850,1870,1890,1910,1930,1950,1971,1990,2010,2030,2050,2071,2090,2110,2131,2150,2171,2191,2210,2230,2250,2270,2290,2310,2330,2349,2370,2391,2410,2431,2450,2471,2490,2511,2530,2550,2570,2590,2610,2631,2651,2671,2690,2710,2731,2750,2770,2791,2810,2830,2850,2870,2891,2910,2930,2950,2970,2991,3010,3030,3050,3070,3090,3111],"xSR":741.5,"ySR":500.5,"xT1":424.9,"yT1":0,"xT2":1058.1,"yT2":0,"toosoon":0,"cond_shown":"randomdotsizeEA","ratio_trial":750,"smaller_num":"15","larger_num":"20","correct_side":1,"subjID":"9","gender":"1","age":"9","school":"4","test":{"fix_dur":[250,1500],"timestim":300,"targets_dim":[100,100],"targets_relative_coord":[0.3,0.7],"size_stim":[880,420],"start_dim":[100,100],"size_start":[300,300],"size_fix":60,"samplingrate":20,"img_types":["equaldotsize","equaldotanddens","randomdotsizeEA"],"ratios":[250,500,750,900],"rep_conds":9,"nTrials":120,"trials_to_rest":500,"Trials_order":[68,24,41,33,118,90,99,13,83,25,2,100,1,29,94,34,10,104,35,88,64,39,113,66,80,61,31,81,58,52,22,105,49,11,107,75,32,43,0,60,97,92,51,91,116,71,108,86,103,40,30,36,67,78,62,37,114,27,95,89,19,5,42,45,117,69,18,6,106,59,84,48,44,23,119,112,85,14,77,73,98,111,87,101,50,55,54,20,28,74,3,72,9,102,110,46,76,8,70,109,26,56,16,4,47,79,21,96,63,7,12,57,15,17,53,82,93,65,38,115],"cond_shown":["randomdotsizeEA","equaldotsize","randomdotsizeEA","equaldotsize","equaldotanddens","equaldotsize","equaldotsize","equaldotanddens","randomdotsizeEA","equaldotanddens","randomdotsizeEA","equaldotanddens","equaldotanddens","randomdotsizeEA","equaldotanddens","equaldotanddens","equaldotanddens","randomdotsizeEA","randomdotsizeEA","equaldotanddens","equaldotanddens","equaldotsize","randomdotsizeEA","equaldotsize","randomdotsizeEA","equaldotanddens","equaldotanddens","equaldotsize","equaldotanddens","equaldotanddens","equaldotanddens","equaldotsize","equaldotanddens","randomdotsizeEA","randomdotsizeEA","equaldotsize","randomdotsizeEA","equaldotanddens","equaldotsize","equaldotsize","equaldotanddens","randomdotsizeEA","equaldotsize","equaldotanddens","randomdotsizeEA","randomdotsizeEA","equaldotsize","randomdotsizeEA","equaldotanddens","equaldotanddens","equaldotsize","equaldotsize","equaldotanddens","equaldotsize","randomdotsizeEA","equaldotanddens","equaldotsize","equaldotsize","randomdotsizeEA","randomdotsizeEA","equaldotanddens","randomdotsizeEA","equaldotsize","equaldotsize","equaldotsize","equaldotsize","equaldotsize","equaldotsize","equaldotanddens","randomdotsizeEA","equaldotsize","equaldotsize","randomdotsizeEA","randomdotsizeEA","randomdotsizeEA","equaldotanddens","equaldotanddens","randomdotsizeEA","randomdotsizeEA","equaldotanddens","randomdotsizeEA","equaldotsize","equaldotsize","randomdotsizeEA","randomdotsizeEA","equaldotanddens","equaldotsize","randomdotsizeEA","equaldotanddens","randomdotsizeEA","equaldotsize","equaldotsize","equaldotsize","equaldotsize","randomdotsizeEA","equaldotanddens","equaldotanddens","randomdotsizeEA","equaldotanddens","equaldotanddens","randomdotsizeEA","randomdotsizeEA","equaldotanddens","equaldotanddens","randomdotsizeEA","equaldotanddens","equaldotsize","equaldotsize","equaldotsize","equaldotanddens","equaldotsize","equaldotsize","equaldotsize","randomdotsizeEA","randomdotsizeEA","equaldotanddens","equaldotsize","randomdotsizeEA","randomdotsizeEA","equaldotanddens"],"ratio_trial":[750,250,500,900,900,750,500,250,900,250,250,500,250,500,900,900,900,750,900,500,500,500,500,750,750,250,750,900,900,500,900,900,250,900,900,500,750,750,250,250,250,750,500,750,750,900,250,250,750,500,750,250,750,750,250,250,750,500,900,500,750,500,750,900,900,900,750,750,900,900,250,250,750,900,900,500,250,250,500,250,250,500,500,500,250,750,750,750,500,250,500,250,900,750,250,900,500,750,900,250,250,750,500,500,900,750,900,250,500,750,250,900,500,500,500,900,900,500,250,750],"smaller_num":["15","6","3","18","9","3","6","3","18","2","6","10","2","5","18","18","18","15","18","5","2","6","9","15","12","2","12","18","18","9","18","18","2","18","9","6","15","9","6","3","6","3","9","3","15","18","3","3","3","6","12","3","15","6","6","2","15","6","18","9","15","1","15","18","9","18","6","3","18","18","2","3","15","18","18","9","2","3","6","2","6","2","9","6","2","3","15","15","5","3","10","1","18","6","3","18","3","3","18","6","3","15","5","5","18","3","18","3","4","3","3","18","2","1","2","9","9","2","2","3"],"larger_num":["20","24","6","20","10","4","12","12","20","8","24","20","8","10","20","20","20","20","20","10","4","12","18","20","16","8","16","20","20","18","20","20","8","20","10","12","20","12","24","12","24","4","18","4","20","20","12","12","4","12","16","12","20","8","24","8","20","12","20","18","20","2","20","20","10","20","8","4","20","20","8","12","20","20","20","18","8","12","12","8","24","4","18","12","8","4","20","20","10","12","20","4","20","8","12","20","6","4","20","24","12","20","10","10","20","4","20","12","8","4","12","20","4","2","4","10","10","4","8","4"],"correct_side":[1,1,2,2,2,1,1,2,1,2,2,2,1,1,2,1,2,2,1,2,1,1,2,2,2,1,2,1,1,2,1,1,1,1,2,1,2,2,1,1,2,1,2,1,1,1,1,1,1,1,2,2,1,2,2,1,2,1,2,1,2,2,2,2,2,2,1,2,1,2,1,2,2,1,2,2,2,2,1,1,1,2,2,1,2,2,2,2,1,2,2,2,1,1,2,2,2,2,1,1,2,2,1,1,1,2,1,1,1,1,2,1,1,2,1,2,1,2,1,1],"img_shown":["img/750/randomdotsizeEA/L/1_Ratio_750_L_20_R_15.png","img/250/equaldotsize/L/5_Ratio_250_L_24_R_6.png","img/500/randomdotsizeEA/R/2_Ratio_500_L_3_R_6.png","img/900/equaldotsize/R/14_Ratio_900_L_18_R_20.png","img/900/equaldotanddens/R/15_Ratio_900_L_9_R_10.png","img/750/equaldotsize/L/9_Ratio_750_L_4_R_3.png","img/500/equaldotsize/L/11_Ratio_500_L_12_R_6.png","img/250/equaldotanddens/R/11_Ratio_250_L_3_R_12.png","img/900/randomdotsizeEA/L/10_Ratio_900_L_20_R_18.png","img/250/equaldotanddens/R/13_Ratio_250_L_2_R_8.png","img/250/randomdotsizeEA/R/6_Ratio_250_L_6_R_24.png","img/500/equaldotanddens/R/3_Ratio_500_L_10_R_20.png","img/250/equaldotanddens/L/1_Ratio_250_L_8_R_2.png","img/500/randomdotsizeEA/L/7_Ratio_500_L_10_R_5.png","img/900/equaldotanddens/R/13_Ratio_900_L_18_R_20.png","img/900/equaldotanddens/L/2_Ratio_900_L_20_R_18.png","img/900/equaldotanddens/R/13_Ratio_900_L_18_R_20.png","img/750/randomdotsizeEA/R/4_Ratio_750_L_15_R_20.png","img/900/randomdotsizeEA/L/10_Ratio_900_L_20_R_18.png","img/500/equaldotanddens/R/14_Ratio_500_L_5_R_10.png","img/500/equaldotanddens/L/10_Ratio_500_L_4_R_2.png","img/500/equaldotsize/L/13_Ratio_500_L_12_R_6.png","img/500/randomdotsizeEA/R/1_Ratio_500_L_9_R_18.png","img/750/equaldotsize/R/4_Ratio_750_L_15_R_20.png","img/750/randomdotsizeEA/R/11_Ratio_750_L_12_R_16.png","img/250/equaldotanddens/L/1_Ratio_250_L_8_R_2.png","img/750/equaldotanddens/R/11_Ratio_750_L_12_R_16.png","img/900/equaldotsize/L/10_Ratio_900_L_20_R_18.png","img/900/equaldotanddens/L/2_Ratio_900_L_20_R_18.png","img/500/equaldotanddens/R/6_Ratio_500_L_9_R_18.png","img/900/equaldotanddens/L/2_Ratio_900_L_20_R_18.png","img/900/equaldotsize/L/10_Ratio_900_L_20_R_18.png","img/250/equaldotanddens/L/7_Ratio_250_L_8_R_2.png","img/900/randomdotsizeEA/L/8_Ratio_900_L_20_R_18.png","img/900/randomdotsizeEA/R/6_Ratio_900_L_9_R_10.png","img/500/equaldotsize/L/11_Ratio_500_L_12_R_6.png","img/750/randomdotsizeEA/R/3_Ratio_750_L_15_R_20.png","img/750/equaldotanddens/R/15_Ratio_750_L_9_R_12.png","img/250/equaldotsize/L/5_Ratio_250_L_24_R_6.png","img/250/equaldotsize/L/15_Ratio_250_L_12_R_3.png","img/250/equaldotanddens/R/6_Ratio_250_L_6_R_24.png","img/750/randomdotsizeEA/L/8_Ratio_750_L_4_R_3.png","img/500/equaldotsize/R/6_Ratio_500_L_9_R_18.png","img/750/equaldotanddens/L/9_Ratio_750_L_4_R_3.png","img/750/randomdotsizeEA/L/1_Ratio_750_L_20_R_15.png","img/900/randomdotsizeEA/L/4_Ratio_900_L_20_R_18.png","img/250/equaldotsize/L/14_Ratio_250_L_12_R_3.png","img/250/randomdotsizeEA/L/14_Ratio_250_L_12_R_3.png","img/750/equaldotanddens/L/10_Ratio_750_L_4_R_3.png","img/500/equaldotanddens/L/11_Ratio_500_L_12_R_6.png","img/750/equaldotsize/R/11_Ratio_750_L_12_R_16.png","img/250/equaldotsize/R/4_Ratio_250_L_3_R_12.png","img/750/equaldotanddens/L/1_Ratio_750_L_20_R_15.png","img/750/equaldotsize/R/2_Ratio_750_L_6_R_8.png","img/250/randomdotsizeEA/R/6_Ratio_250_L_6_R_24.png","img/250/equaldotanddens/L/3_Ratio_250_L_8_R_2.png","img/750/equaldotsize/R/3_Ratio_750_L_15_R_20.png","img/500/equaldotsize/L/13_Ratio_500_L_12_R_6.png","img/900/randomdotsizeEA/R/13_Ratio_900_L_18_R_20.png","img/500/randomdotsizeEA/L/4_Ratio_500_L_18_R_9.png","img/750/equaldotanddens/R/5_Ratio_750_L_15_R_20.png","img/500/randomdotsizeEA/R/15_Ratio_500_L_1_R_2.png","img/750/equaldotsize/R/5_Ratio_750_L_15_R_20.png","img/900/equaldotsize/R/12_Ratio_900_L_18_R_20.png","img/900/equaldotsize/R/3_Ratio_900_L_9_R_10.png","img/900/equaldotsize/R/14_Ratio_900_L_18_R_20.png","img/750/equaldotsize/L/13_Ratio_750_L_8_R_6.png","img/750/equaldotsize/R/12_Ratio_750_L_3_R_4.png","img/900/equaldotanddens/L/2_Ratio_900_L_20_R_18.png","img/900/randomdotsizeEA/R/14_Ratio_900_L_18_R_20.png","img/250/equaldotsize/L/7_Ratio_250_L_8_R_2.png","img/250/equaldotsize/R/9_Ratio_250_L_3_R_12.png","img/750/randomdotsizeEA/R/3_Ratio_750_L_15_R_20.png","img/900/randomdotsizeEA/L/8_Ratio_900_L_20_R_18.png","img/900/randomdotsizeEA/R/12_Ratio_900_L_18_R_20.png","img/500/equaldotanddens/R/1_Ratio_500_L_9_R_18.png","img/250/equaldotanddens/R/13_Ratio_250_L_2_R_8.png","img/250/randomdotsizeEA/R/4_Ratio_250_L_3_R_12.png","img/500/randomdotsizeEA/L/13_Ratio_500_L_12_R_6.png","img/250/equaldotanddens/L/7_Ratio_250_L_8_R_2.png","img/250/randomdotsizeEA/L/5_Ratio_250_L_24_R_6.png","img/500/equaldotsize/R/9_Ratio_500_L_2_R_4.png","img/500/equaldotsize/R/1_Ratio_500_L_9_R_18.png","img/500/randomdotsizeEA/L/11_Ratio_500_L_12_R_6.png","img/250/randomdotsizeEA/R/13_Ratio_250_L_2_R_8.png","img/750/equaldotanddens/R/7_Ratio_750_L_3_R_4.png","img/750/equaldotsize/R/3_Ratio_750_L_15_R_20.png","img/750/randomdotsizeEA/R/4_Ratio_750_L_15_R_20.png","img/500/equaldotanddens/L/7_Ratio_500_L_10_R_5.png","img/250/randomdotsizeEA/R/9_Ratio_250_L_3_R_12.png","img/500/equaldotsize/R/3_Ratio_500_L_10_R_20.png","img/250/equaldotsize/R/8_Ratio_250_L_1_R_4.png","img/900/equaldotsize/L/4_Ratio_900_L_20_R_18.png","img/750/equaldotsize/L/13_Ratio_750_L_8_R_6.png","img/250/randomdotsizeEA/R/11_Ratio_250_L_3_R_12.png","img/900/equaldotanddens/R/13_Ratio_900_L_18_R_20.png","img/500/equaldotanddens/R/2_Ratio_500_L_3_R_6.png","img/750/randomdotsizeEA/R/7_Ratio_750_L_3_R_4.png","img/900/equaldotanddens/L/10_Ratio_900_L_20_R_18.png","img/250/equaldotanddens/L/5_Ratio_250_L_24_R_6.png","img/250/randomdotsizeEA/R/4_Ratio_250_L_3_R_12.png","img/750/randomdotsizeEA/R/4_Ratio_750_L_15_R_20.png","img/500/equaldotanddens/L/7_Ratio_500_L_10_R_5.png","img/500/equaldotanddens/L/7_Ratio_500_L_10_R_5.png","img/900/randomdotsizeEA/L/4_Ratio_900_L_20_R_18.png","img/750/equaldotanddens/R/7_Ratio_750_L_3_R_4.png","img/900/equaldotsize/L/8_Ratio_900_L_20_R_18.png","img/250/equaldotsize/L/15_Ratio_250_L_12_R_3.png","img/500/equaldotsize/L/8_Ratio_500_L_8_R_4.png","img/750/equaldotanddens/L/9_Ratio_750_L_4_R_3.png","img/250/equaldotsize/R/4_Ratio_250_L_3_R_12.png","img/900/equaldotsize/L/8_Ratio_900_L_20_R_18.png","img/500/equaldotsize/L/5_Ratio_500_L_4_R_2.png","img/500/randomdotsizeEA/R/15_Ratio_500_L_1_R_2.png","img/500/randomdotsizeEA/L/10_Ratio_500_L_4_R_2.png","img/900/equaldotanddens/R/15_Ratio_900_L_9_R_10.png","img/900/equaldotsize/L/1_Ratio_900_L_10_R_9.png","img/500/randomdotsizeEA/R/9_Ratio_500_L_2_R_4.png","img/250/randomdotsizeEA/L/3_Ratio_250_L_8_R_2.png","img/750/equaldotanddens/L/8_Ratio_750_L_4_R_3.png"],"Rat0":[["12_Ratio_0_L_9_R_0.png","13_Ratio_0_L_6_R_0.png","5_Ratio_0_L_2_R_0.png","6_Ratio_0_L_4_R_0.png","8_Ratio_0_L_6_R_0.png"],["1_Ratio_0_L_0_R_17.png","10_Ratio_0_L_0_R_22.png","11_Ratio_0_L_0_R_1.png","14_Ratio_0_L_0_R_24.png","15_Ratio_0_L_0_R_4.png","2_Ratio_0_L_0_R_5.png","3_Ratio_0_L_0_R_17.png","4_Ratio_0_L_0_R_7.png","7_Ratio_0_L_0_R_19.png","9_Ratio_0_L_0_R_15.png"]],"Rat250":[["1_Ratio_250_L_8_R_2.png","14_Ratio_250_L_12_R_3.png","15_Ratio_250_L_12_R_3.png","2_Ratio_250_L_16_R_4.png","3_Ratio_250_L_8_R_2.png","5_Ratio_250_L_24_R_6.png","7_Ratio_250_L_8_R_2.png"],["10_Ratio_250_L_4_R_16.png","11_Ratio_250_L_3_R_12.png","12_Ratio_250_L_5_R_20.png","13_Ratio_250_L_2_R_8.png","4_Ratio_250_L_3_R_12.png","6_Ratio_250_L_6_R_24.png","8_Ratio_250_L_1_R_4.png","9_Ratio_250_L_3_R_12.png"]],"Rat500":[["10_Ratio_500_L_4_R_2.png","11_Ratio_500_L_12_R_6.png","13_Ratio_500_L_12_R_6.png","4_Ratio_500_L_18_R_9.png","5_Ratio_500_L_4_R_2.png","7_Ratio_500_L_10_R_5.png","8_Ratio_500_L_8_R_4.png"],["1_Ratio_500_L_9_R_18.png","12_Ratio_500_L_1_R_2.png","14_Ratio_500_L_5_R_10.png","15_Ratio_500_L_1_R_2.png","2_Ratio_500_L_3_R_6.png","3_Ratio_500_L_10_R_20.png","6_Ratio_500_L_9_R_18.png","9_Ratio_500_L_2_R_4.png"]],"Rat750":[["1_Ratio_750_L_20_R_15.png","10_Ratio_750_L_4_R_3.png","13_Ratio_750_L_8_R_6.png","14_Ratio_750_L_8_R_6.png","6_Ratio_750_L_24_R_18.png","8_Ratio_750_L_4_R_3.png","9_Ratio_750_L_4_R_3.png"],["11_Ratio_750_L_12_R_16.png","12_Ratio_750_L_3_R_4.png","15_Ratio_750_L_9_R_12.png","2_Ratio_750_L_6_R_8.png","3_Ratio_750_L_15_R_20.png","4_Ratio_750_L_15_R_20.png","5_Ratio_750_L_15_R_20.png","7_Ratio_750_L_3_R_4.png"]],"Rat900":[["1_Ratio_900_L_10_R_9.png","10_Ratio_900_L_20_R_18.png","2_Ratio_900_L_20_R_18.png","4_Ratio_900_L_20_R_18.png","8_Ratio_900_L_20_R_18.png"],["11_Ratio_900_L_18_R_20.png","12_Ratio_900_L_18_R_20.png","13_Ratio_900_L_18_R_20.png","14_Ratio_900_L_18_R_20.png","15_Ratio_900_L_9_R_10.png","3_Ratio_900_L_9_R_10.png","5_Ratio_900_L_9_R_10.png","6_Ratio_900_L_9_R_10.png","7_Ratio_900_L_9_R_10.png","9_Ratio_900_L_18_R_20.png"]],"Rat1000":[["10_Ratio_1000_L_16_R_16.png","11_Ratio_1000_L_6_R_6.png","12_Ratio_1000_L_14_R_14.png","13_Ratio_1000_L_20_R_20.png","15_Ratio_1000_L_15_R_15.png","2_Ratio_1000_L_17_R_17.png","4_Ratio_1000_L_9_R_9.png","5_Ratio_1000_L_6_R_6.png","6_Ratio_1000_L_19_R_19.png","8_Ratio_1000_L_14_R_14.png","9_Ratio_1000_L_25_R_25.png"],["1_Ratio_1000_L_1_R_1.png","14_Ratio_1000_L_17_R_17.png","3_Ratio_1000_L_17_R_17.png","7_Ratio_1000_L_6_R_6.png"]]}},{"start_time":1552055094350,"click_time":1552055095323,"finger_time":1552055094623,"fix_duration":725.485429382618,"trial":1,"RT":273,"MT":700,"sideResp":1,"stimulus":"img/250/equaldotsize/L/5_Ratio_250_L_24_R_6.png","xmouse":[767,767,767,764,763,763,763,763,763,763,763,763,761,761,761,761,761,761,761,761,761,761,761,761,761,761,766,768,769,768,760,731,702,685,673,668,667,667,667,666,664,617,575,563,560,559,550,533,510],"ymouse":[484,484,483,485,486,486,486,486,486,486,486,486,476,467,457,452,450,450,450,450,450,450,450,450,450,450,425,403,374,344,317,257,208,184,170,164,161,161,161,160,155,100,69,60,58,57,51,39,25],"timestamp_mouse":[14,35,53,72,93,113,133,154,173,193,214,233,252,273,293,313,333,353,374,393,414,434,453,473,493,513,534,553,573,593,613,634,653,673,693,714,733,753,773,793,813,834,853,873,893,913,934,953,973],"xSR":741.5,"ySR":469.95,"xT1":424.9,"yT1":0,"xT2":1058.1,"yT2":0,"toosoon":0,"cond_shown":"equaldotsize","ratio_trial":250,"smaller_num":"6","larger_num":"24","correct_side":1,"subjID":"9","gender":"1","age":"9","school":"4"},{"start_time":1552055096898,"click_time":1552055098064,"finger_time":1552055097803,"fix_duration":612.8193634024645,"trial":2,"RT":905,"MT":261,"sideResp":2,"stimulus":"img/500/randomdotsizeEA/R/2_Ratio_500_L_3_R_6.png","xmouse":[773,773,773,773,773,773,773,773,773,773,773,773,773,773,773,773,773,773,773,773,773,773,773,773,773,773,773,773,773,773,773,773,773,773,773,773,773,773,773,773,775,777,779,786,790,804,812,823,837,869,892,920,950,986,1063,1080,1092,1098,1102],"ymouse":[526,526,526,526,526,526,526,526,526,526,526,526,526,526,526,526,525,524,523,523,523,523,523,523,523,523,523,523,523,523,523,523,523,523,523,523,523,523,522,517,512,507,502,490,482,458,442,424,398,343,308,273,242,208,147,130,115,102,93],"timestamp_mouse":[22,38,45,65,85,105,125,146,165,185,205,225,246,265,285,305,325,346,365,385,406,426,445,466,485,505,525,546,565,586,605,626,644,666,686,705,725,746,764,786,805,825,846,866,885,905,925,945,965,987,1005,1025,1045,1065,1086,1104,1125,1145,1165],"xSR":741.5,"ySR":469.95,"xT1":424.9,"yT1":0,"xT2":1058.1,"yT2":0,"toosoon":0,"cond_shown":"randomdotsizeEA","ratio_trial":500,"smaller_num":"3","larger_num":"6","correct_side":2,"subjID":"9","gender":"1","age":"9","school":"4"},{"start_time":1552055099520,"click_time":1552055100904,"finger_time":1552055100244,"fix_duration":515.3103354662594,"trial":3,"RT":724,"MT":660,"sideResp":2,"stimulus":"img/900/equaldotsize/R/14_Ratio_900_L_18_R_20.png","xmouse":[769,769,769,769,769,769,769,769,769,769,769,769,769,769,769,769,769,769,769,769,769,769,769,769,769,769,769,769,769,769,769,769,769,769,777,788,805,821,834,853,863,874,877,884,898,908,919,929,940,963,973,980,998,1013,1040,1047,1053,1056,1057,1057,1057,1057,1057,1057,1057,1057,1057,1057,1057,1062],"ymouse":[521,521,521,521,521,521,521,521,521,521,521,521,521,521,521,521,521,521,521,521,521,521,521,521,521,521,521,521,521,521,521,521,521,521,501,478,441,406,380,344,328,308,304,292,268,253,240,225,210,182,170,161,142,128,107,101,95,92,91,91,91,91,91,91,91,91,91,91,91,82],"timestamp_mouse":[11,29,44,63,83,103,124,144,164,184,203,224,243,263,284,302,323,343,364,384,403,423,443,463,483,503,524,543,563,584,603,624,644,663,684,703,724,744,764,783,803,823,843,864,884,903,923,944,964,983,1003,1024,1044,1064,1083,1103,1123,1142,1164,1183,1203,1223,1243,1263,1284,1303,1324,1343,1364,1383],"xSR":741.5,"ySR":469.95,"xT1":424.9,"yT1":0,"xT2":1058.1,"yT2":0,"toosoon":0,"cond_shown":"equaldotsize","ratio_trial":900,"smaller_num":"18","larger_num":"20","correct_side":2,"subjID":"9","gender":"1","age":"9","school":"4"},{"start_time":1552055102360,"click_time":1552055103323,"finger_time":1552055102903,"fix_duration":674.357288831486,"trial":4,"RT":543,"MT":420,"sideResp":2,"stimulus":"img/900/equaldotanddens/R/15_Ratio_900_L_9_R_10.png","xmouse":[800,800,800,800,800,800,800,800,800,800,800,800,800,800,800,800,800,800,800,800,800,800,800,800,800,800,802,808,825,831,838,845,868,880,895,907,921,947,959,974,984,993,1011,1015,1021,1025,1030,1047,1065],"ymouse":[517,517,518,518,518,518,518,518,518,518,518,518,518,518,518,518,518,518,518,518,518,518,518,518,503,497,481,464,424,411,398,384,346,325,305,289,274,245,233,215,203,192,167,158,150,143,132,101,73],"timestamp_mouse":[10,23,43,64,83,103,123,144,163,183,204,224,243,263,284,303,324,343,363,384,404,424,443,463,483,504,524,543,563,583,604,623,643,663,684,703,723,744,763,783,803,824,844,863,884,903,923,943,963],"xSR":741.5,"ySR":469.95,"xT1":424.9,"yT1":0,"xT2":1058.1,"yT2":0,"toosoon":0,"cond_shown":"equaldotanddens","ratio_trial":900,"smaller_num":"9","larger_num":"10","correct_side":2,"subjID":"9","gender":"1","age":"9","school":"4"},{"start_time":1552055105419,"click_time":1552055106405,"finger_time":1552055106104,"fix_duration":1274.735389337197,"trial":5,"RT":685,"MT":301,"sideResp":1,"stimulus":"img/750/equaldotsize/L/9_Ratio_750_L_4_R_3.png","xmouse":[787,787,787,787,787,787,787,787,787,787,787,787,787,787,787,787,787,787,787,787,787,787,787,787,787,787,787,787,787,787,787,787,787,782,747,721,699,683,672,655,643,628,613,598,581,558,548,536,528,523],"ymouse":[534,534,534,534,534,534,534,534,534,534,534,534,534,534,534,534,534,534,534,534,534,534,534,534,534,534,534,534,534,534,534,534,534,521,438,376,322,289,264,225,205,186,169,152,133,103,91,81,75,72],"timestamp_mouse":[11,29,44,65,84,104,124,144,165,184,203,224,244,264,285,305,324,345,363,385,405,425,445,465,484,504,525,545,564,585,605,624,645,665,685,704,724,745,764,785,804,825,845,864,885,904,924,944,964,986],"xSR":741.5,"ySR":469.95,"xT1":424.9,"yT1":0,"xT2":1058.1,"yT2":0,"toosoon":0,"cond_shown":"equaldotsize","ratio_trial":750,"smaller_num":"3","larger_num":"4","correct_side":1,"subjID":"9","gender":"1","age":"9","school":"4"},{"start_time":1552055108168,"click_time":1552055109103,"finger_time":1552055108703,"fix_duration":703.674105851175,"trial":6,"RT":535,"MT":400,"sideResp":1,"stimulus":"img/500/equaldotsize/L/11_Ratio_500_L_12_R_6.png","xmouse":[773,773,773,773,773,773,773,773,773,773,773,773,773,773,773,773,773,773,773,773,773,773,773,774,774,771,765,757,750,737,726,716,699,695,687,681,673,651,637,625,614,603,574,560,544,525,516],"ymouse":[512,512,512,512,512,512,512,512,512,512,512,512,512,512,512,512,512,512,512,512,512,512,512,512,507,491,468,417,375,331,298,273,238,229,214,201,186,154,140,133,124,115,96,88,77,64,59],"timestamp_mouse":[16,35,55,76,95,115,136,156,176,195,216,234,256,275,296,316,335,355,376,396,416,435,455,476,495,514,535,555,575,595,614,635,655,675,695,715,735,755,775,795,815,836,856,876,895,915,935],"xSR":741.5,"ySR":469.95,"xT1":424.9,"yT1":0,"xT2":1058.1,"yT2":0,"toosoon":0,"cond_shown":"equaldotsize","ratio_trial":500,"smaller_num":"6","larger_num":"12","correct_side":1,"subjID":"9","gender":"1","age":"9","school":"4"},{"start_time":1552055110631,"click_time":1552055111524,"finger_time":1552055111283,"fix_duration":765.4955037196073,"trial":7,"RT":652,"MT":241,"sideResp":2,"stimulus":"img/250/equaldotanddens/R/11_Ratio_250_L_3_R_12.png","xmouse":[801,801,801,801,801,801,801,801,801,801,801,801,801,801,801,801,801,801,801,801,801,803,804,804,804,804,804,804,804,805,813,832,855,884,928,941,949,958,971,1008,1032,1049,1065,1078,1110],"ymouse":[540,540,540,540,540,540,540,540,540,540,540,540,540,540,540,540,540,540,540,540,540,540,539,539,539,539,539,539,539,537,520,481,441,393,328,309,296,279,261,218,188,169,149,134,99],"timestamp_mouse":[17,37,52,71,93,112,133,151,173,192,212,233,252,272,292,313,333,352,373,392,412,432,452,473,492,512,532,553,572,592,613,632,652,672,692,712,733,753,772,792,812,832,853,873,892],"xSR":741.5,"ySR":469.95,"xT1":424.9,"yT1":0,"xT2":1058.1,"yT2":0,"toosoon":0,"cond_shown":"equaldotanddens","ratio_trial":250,"smaller_num":"3","larger_num":"12","correct_side":2,"subjID":"9","gender":"1","age":"9","school":"4"},{"start_time":1552055112855,"click_time":1552055114143,"finger_time":1552055113704,"fix_duration":710.8580795266973,"trial":8,"RT":849,"MT":439,"sideResp":1,"stimulus":"img/900/randomdotsizeEA/L/10_Ratio_900_L_20_R_18.png","xmouse":[775,775,775,775,775,775,775,775,775,775,775,775,775,775,775,775,775,775,775,775,775,775,775,775,775,775,775,775,775,775,775,775,775,775,775,775,775,775,775,775,775,765,751,725,718,715,715,713,712,711,706,699,692,674,662,647,628,607,565,553,544,535,531,528,523],"ymouse":[528,528,528,528,528,528,528,528,528,528,528,528,528,528,528,528,528,528,528,528,528,528,528,528,528,528,528,528,528,528,528,528,528,528,528,528,528,528,528,528,528,495,467,424,412,406,404,403,400,395,383,370,358,328,309,287,254,214,148,127,105,86,71,58,41],"timestamp_mouse":[11,31,49,68,88,109,129,148,168,188,209,229,248,268,289,308,329,348,367,387,409,428,449,468,488,509,528,547,568,589,609,629,649,669,689,708,729,747,767,788,809,828,849,869,888,908,929,948,969,989,1008,1029,1049,1069,1088,1108,1128,1149,1169,1188,1209,1227,1248,1269,1288],"xSR":741.5,"ySR":469.95,"xT1":424.9,"yT1":0,"xT2":1058.1,"yT2":0,"toosoon":0,"cond_shown":"randomdotsizeEA","ratio_trial":900,"smaller_num":"18","larger_num":"20","correct_side":1,"subjID":"9","gender":"1","age":"9","school":"4"},{"start_time":1552055115677,"click_time":1552055116544,"finger_time":1552055116263,"fix_duration":592.3584617598962,"trial":9,"RT":586,"MT":281,"sideResp":2,"stimulus":"img/250/equaldotanddens/R/13_Ratio_250_L_2_R_8.png","xmouse":[785,785,785,785,785,785,785,785,785,785,785,785,785,785,785,785,785,785,785,785,785,785,785,785,785,785,785,785,791,808,830,857,878,918,941,967,994,1027,1063,1079,1089,1095,1098,1100],"ymouse":[531,531,531,531,531,531,531,531,531,531,531,531,531,531,531,531,531,531,531,531,531,531,531,531,531,531,531,531,507,469,430,384,350,296,269,237,205,168,136,122,113,107,102,96],"timestamp_mouse":[10,29,47,67,86,107,126,147,166,187,207,226,247,267,287,307,325,346,367,387,407,427,447,466,486,507,527,546,566,586,606,626,646,666,686,706,726,746,766,786,806,827,846,866],"xSR":741.5,"ySR":469.95,"xT1":424.9,"yT1":0,"xT2":1058.1,"yT2":0,"toosoon":0,"cond_shown":"equaldotanddens","ratio_trial":250,"smaller_num":"2","larger_num":"8","correct_side":2,"subjID":"9","gender":"1","age":"9","school":"4"},{"start_time":1552055119367,"click_time":1552055120443,"finger_time":1552055120163,"fix_duration":663.688729601037,"trial":10,"RT":796,"MT":280,"sideResp":2,"stimulus":"img/250/randomdotsizeEA/R/6_Ratio_250_L_6_R_24.png","xmouse":[755,755,755,755,755,755,755,755,755,755,755,755,755,755,755,755,755,755,755,755,755,755,755,755,755,755,755,755,755,755,755,755,755,755,755,764,775,786,811,835,852,871,890,928,945,962,980,1000,1048,1062,1081,1098,1113,1140],"ymouse":[546,546,546,546,546,546,546,546,546,546,546,546,546,546,546,546,546,546,546,546,546,546,546,546,546,546,546,546,546,546,546,546,546,546,546,535,522,509,477,447,428,406,388,353,337,321,299,276,227,211,184,159,138,97],"timestamp_mouse":[16,38,56,77,96,116,136,157,176,196,216,236,256,276,296,317,336,357,376,397,417,437,456,476,497,517,536,556,576,597,617,637,657,676,696,717,736,757,776,796,816,837,857,876,896,917,936,956,976,997,1016,1035,1056,1076],"xSR":741.5,"ySR":469.95,"xT1":424.9,"yT1":0,"xT2":1058.1,"yT2":0,"toosoon":0,"cond_shown":"randomdotsizeEA","ratio_trial":250,"smaller_num":"6","larger_num":"24","correct_side":2,"subjID":"9","gender":"1","age":"9","school":"4"},{"start_time":1552055121496,"click_time":1552055122703,"finger_time":1552055122203,"fix_duration":250,"trial":11,"RT":707,"MT":500,"sideResp":2,"stimulus":"img/500/equaldotanddens/R/3_Ratio_500_L_10_R_20.png","xmouse":[756,756,753,753,753,753,753,753,753,753,753,753,753,753,753,753,753,753,753,753,753,753,753,753,753,753,753,753,753,753,753,753,753,756,803,877,962,1127,1188,1236,1274,1302,1329,1340,1345,1348,1350,1351,1351,1351,1348,1340,1313,1293,1277,1259,1240,1198,1180,1166,1158],"ymouse":[520,520,520,520,520,520,520,520,520,520,520,520,520,520,520,520,520,520,520,520,520,520,520,520,520,520,520,520,520,520,520,520,520,516,489,448,406,309,263,223,188,158,124,108,97,91,84,76,74,70,67,64,57,50,46,42,39,35,35,35,34],"timestamp_mouse":[10,29,48,68,87,107,128,148,167,187,208,228,247,268,287,308,328,348,367,388,408,428,447,468,488,507,526,547,567,588,608,627,647,668,687,707,728,749,767,787,807,828,848,867,887,908,927,948,967,987,1008,1028,1048,1067,1087,1107,1128,1149,1167,1187,1207],"xSR":741.5,"ySR":469.95,"xT1":424.9,"yT1":0,"xT2":1058.1,"yT2":0,"toosoon":0,"cond_shown":"equaldotanddens","ratio_trial":500,"smaller_num":"10","larger_num":"20","correct_side":2,"subjID":"9","gender":"1","age":"9","school":"4"},{"start_time":1552055124042,"click_time":1552055124983,"finger_time":1552055124543,"fix_duration":516.1450233910862,"trial":12,"RT":501,"MT":440,"sideResp":1,"stimulus":"img/250/equaldotanddens/L/1_Ratio_250_L_8_R_2.png","xmouse":[778,778,778,778,778,778,778,778,778,778,778,778,778,778,778,778,778,778,778,778,778,778,778,780,780,780,766,758,744,730,709,662,638,623,606,594,575,566,561,556,554,550,548,546,543,536,526,523],"ymouse":[512,512,512,512,512,512,512,512,512,512,512,512,512,512,512,512,512,512,512,512,512,512,512,498,475,456,417,404,385,357,323,249,209,180,141,114,74,58,47,38,33,25,23,22,22,21,19,19],"timestamp_mouse":[9,33,41,61,81,102,121,141,161,182,201,220,240,260,281,302,321,341,361,381,402,422,442,461,481,501,521,541,561,581,601,621,641,661,681,701,721,741,762,782,802,821,841,861,882,902,921,941],"xSR":741.5,"ySR":469.95,"xT1":424.9,"yT1":0,"xT2":1058.1,"yT2":0,"toosoon":0,"cond_shown":"equaldotanddens","ratio_trial":250,"smaller_num":"2","larger_num":"8","correct_side":1,"subjID":"9","gender":"1","age":"9","school":"4"},{"start_time":1552055127332,"click_time":1552055128303,"finger_time":1552055127804,"fix_duration":1327.7306093080692,"trial":13,"RT":472,"MT":499,"sideResp":1,"stimulus":"img/500/randomdotsizeEA/L/7_Ratio_500_L_10_R_5.png","xmouse":[760,760,760,760,760,760,760,760,760,760,760,760,760,760,760,760,760,760,760,760,760,761,766,768,768,769,769,769,766,759,749,714,685,649,619,598,588,577,576,575,571,563,558,554,549,545,534,529,523],"ymouse":[498,498,498,498,498,498,498,498,498,498,498,498,498,498,498,498,498,498,498,498,498,498,472,454,448,445,442,434,424,413,397,337,295,241,193,158,136,106,94,85,77,61,53,48,42,38,31,28,26],"timestamp_mouse":[11,31,51,72,92,112,131,152,172,191,212,232,252,272,291,311,331,352,372,392,410,431,451,472,491,511,531,551,571,592,611,631,652,671,691,711,731,751,771,791,811,831,850,871,891,911,931,952,971],"xSR":741.5,"ySR":469.95,"xT1":424.9,"yT1":0,"xT2":1058.1,"yT2":0,"toosoon":0,"cond_shown":"randomdotsizeEA","ratio_trial":500,"smaller_num":"5","larger_num":"10","correct_side":1,"subjID":"9","gender":"1","age":"9","school":"4"},{"start_time":1552055130725,"click_time":1552055131824,"finger_time":1552055131303,"fix_duration":1479.968060348037,"trial":14,"RT":578,"MT":521,"sideResp":1,"stimulus":"img/900/equaldotanddens/R/13_Ratio_900_L_18_R_20.png","xmouse":[813,813,813,813,813,813,813,813,813,813,813,813,813,813,813,813,813,813,813,813,813,813,813,812,811,810,797,783,775,769,765,763,763,761,758,754,751,740,735,726,718,708,681,674,670,667,643,628,611,595,582,570,545,532,520],"ymouse":[501,501,501,501,501,501,501,501,501,501,501,501,501,501,501,501,501,501,501,501,501,501,501,501,501,501,490,476,467,460,455,452,448,442,435,415,407,366,351,333,313,294,254,244,238,232,196,178,159,144,133,119,86,71,57],"timestamp_mouse":[17,38,59,78,99,119,139,158,179,199,219,239,259,278,299,318,337,358,379,398,418,438,459,479,498,518,538,559,578,599,618,638,658,678,698,718,738,759,778,798,819,839,858,879,899,918,939,958,978,998,1018,1039,1058,1078,1099],"xSR":741.5,"ySR":469.95,"xT1":424.9,"yT1":0,"xT2":1058.1,"yT2":0,"toosoon":0,"cond_shown":"equaldotanddens","ratio_trial":900,"smaller_num":"18","larger_num":"20","correct_side":2,"subjID":"9","gender":"1","age":"9","school":"4"},{"start_time":1552055202138,"click_time":1552055203127,"finger_time":1552055202765,"fix_duration":250,"trial":15,"RT":627,"MT":362,"sideResp":1,"stimulus":"img/900/equaldotanddens/L/2_Ratio_900_L_20_R_18.png","xmouse":[789,789,789,789,789,789,789,789,789,789,789,789,789,789,789,789,789,789,789,789,789,789,789,789,789,789,792,793,794,794,794,791,772,714,695,654,648,640,636,629,622,619,615,610,605,596,585,570,547,520],"ymouse":[546,546,546,546,546,546,546,546,546,546,546,546,546,546,546,546,546,546,546,546,546,546,546,546,546,543,534,530,527,524,498,459,393,260,221,135,114,98,86,67,52,47,42,38,36,35,32,28,22,17],"timestamp_mouse":[13,41,52,67,88,107,128,148,167,188,207,228,247,267,288,308,328,348,367,387,407,429,448,468,487,508,527,548,568,587,607,627,648,667,687,708,728,747,767,787,807,828,848,868,887,907,928,947,967,988],"xSR":741.5,"ySR":469.95,"xT1":424.9,"yT1":0,"xT2":1058.1,"yT2":0,"toosoon":0,"cond_shown":"equaldotanddens","ratio_trial":900,"smaller_num":"18","larger_num":"20","correct_side":1,"subjID":"9","gender":"1","age":"9","school":"4"},{"start_time":1552055206339,"click_time":1552055207365,"finger_time":1552055206966,"fix_duration":351.02295468557264,"trial":16,"RT":627,"MT":399,"sideResp":1,"stimulus":"img/900/equaldotanddens/R/13_Ratio_900_L_18_R_20.png","xmouse":[794,794,794,794,794,794,794,794,794,794,794,794,794,794,794,794,794,794,794,794,794,794,794,794,794,794,794,794,794,792,786,777,769,759,744,705,675,640,596,553,516,514,513,512,512,510,509,507,504,497,489,485],"ymouse":[487,487,487,487,487,487,489,490,490,490,490,490,490,490,490,490,490,490,490,490,490,490,490,490,490,490,490,490,490,483,471,455,443,427,408,363,335,305,262,218,184,182,181,180,179,176,173,168,153,130,104,97],"timestamp_mouse":[7,28,48,66,86,106,126,147,166,187,206,226,246,268,287,306,326,347,366,387,407,426,446,466,486,506,528,548,566,586,606,627,646,666,687,706,726,746,766,787,806,828,847,867,886,907,926,946,967,987,1007,1026],"xSR":741.5,"ySR":469.95,"xT1":424.9,"yT1":0,"xT2":1058.1,"yT2":0,"toosoon":0,"cond_shown":"equaldotanddens","ratio_trial":900,"smaller_num":"18","larger_num":"20","correct_side":2,"subjID":"9","gender":"1","age":"9","school":"4"},{"start_time":1552055209668,"click_time":1552055210986,"finger_time":1552055210527,"fix_duration":1201.3798813702379,"trial":17,"RT":859,"MT":459,"sideResp":1,"stimulus":"img/750/randomdotsizeEA/R/4_Ratio_750_L_15_R_20.png","xmouse":[801,801,801,801,801,801,801,801,801,801,801,801,801,801,801,801,801,801,801,801,801,801,801,801,801,801,801,801,801,801,801,801,801,801,801,801,801,801,801,795,785,771,756,743,740,739,739,739,737,706,670,638,614,588,559,544,532,521,512,506,502,497,494,489,489,489],"ymouse":[529,529,529,529,529,529,529,529,529,529,529,529,529,529,529,529,529,529,529,529,529,529,529,529,529,529,529,529,529,529,529,529,529,529,529,529,529,529,529,519,508,489,468,447,442,440,440,440,438,412,394,382,369,350,311,290,269,252,236,213,195,175,152,107,100,99],"timestamp_mouse":[17,41,58,78,98,117,138,157,178,197,217,237,257,278,297,317,337,358,379,398,417,438,457,479,497,518,538,558,578,597,617,638,659,678,697,718,739,758,778,797,817,837,859,878,897,917,937,957,978,997,1018,1037,1057,1078,1097,1117,1138,1157,1178,1197,1218,1237,1258,1279,1297,1318],"xSR":741.5,"ySR":469.95,"xT1":424.9,"yT1":0,"xT2":1058.1,"yT2":0,"toosoon":0,"cond_shown":"randomdotsizeEA","ratio_trial":750,"smaller_num":"15","larger_num":"20","correct_side":2,"subjID":"9","gender":"1","age":"9","school":"4"},{"start_time":1552055214663,"click_time":1552055216185,"finger_time":1552055215585,"fix_duration":635.8788045966868,"trial":18,"RT":922,"MT":600,"sideResp":1,"stimulus":"img/900/randomdotsizeEA/L/10_Ratio_900_L_20_R_18.png","xmouse":[778,778,778,778,778,778,778,778,778,778,778,778,778,778,778,778,778,778,778,778,778,778,778,778,778,778,778,778,778,778,778,778,778,778,778,776,773,770,768,765,765,765,765,765,762,758,737,716,692,657,573,526,503,471,432,390,388,388,390,394,398,403,403,403,403,403,403,403,403,403,403,405,410,414,418,423,429],"ymouse":[535,535,535,535,535,535,535,535,535,535,535,535,535,535,535,535,535,535,535,535,535,535,535,535,535,535,535,535,535,535,535,535,535,535,535,526,518,510,505,500,499,498,498,498,493,489,480,474,470,464,448,431,415,351,244,128,109,96,85,73,48,20,16,15,15,15,15,15,15,15,15,17,25,32,38,43,46],"timestamp_mouse":[12,31,43,63,82,102,123,144,162,183,203,222,243,264,283,302,323,343,363,383,402,423,443,462,483,502,523,542,562,582,602,623,642,663,682,702,722,743,763,783,802,823,842,864,882,902,922,942,962,983,1002,1022,1042,1063,1082,1103,1122,1142,1162,1182,1203,1223,1242,1263,1282,1303,1323,1343,1362,1383,1402,1423,1442,1463,1483,1503,1522],"xSR":741.5,"ySR":469.95,"xT1":424.9,"yT1":0,"xT2":1058.1,"yT2":0,"toosoon":0,"cond_shown":"randomdotsizeEA","ratio_trial":900,"smaller_num":"18","larger_num":"20","correct_side":1,"subjID":"9","gender":"1","age":"9","school":"4"},{"start_time":1552055217496,"click_time":1552055218585,"finger_time":1552055218185,"fix_duration":670.4897869443848,"trial":19,"RT":689,"MT":400,"sideResp":2,"stimulus":"img/500/equaldotanddens/R/14_Ratio_500_L_5_R_10.png","xmouse":[810,810,810,810,810,810,810,810,810,810,810,810,810,810,810,810,810,810,810,810,810,810,810,810,810,810,810,810,810,810,810,810,810,812,820,828,846,872,963,1002,1029,1041,1045,1047,1048,1049,1050,1050,1050,1050,1050,1050,1050,1052,1062],"ymouse":[482,482,482,482,482,482,482,482,482,482,482,482,482,482,482,482,482,483,483,483,483,483,483,483,483,483,483,483,483,483,483,483,483,481,468,450,413,361,199,149,119,106,103,101,99,98,97,96,96,96,96,96,96,94,86],"timestamp_mouse":[17,39,50,70,89,109,130,149,170,190,209,229,249,270,289,309,329,350,370,390,409,430,449,469,489,510,529,550,570,590,610,629,649,669,689,709,729,750,770,789,809,830,849,871,889,910,930,949,970,989,1010,1029,1049,1071,1089],"xSR":741.5,"ySR":469.95,"xT1":424.9,"yT1":0,"xT2":1058.1,"yT2":0,"toosoon":0,"cond_shown":"equaldotanddens","ratio_trial":500,"smaller_num":"5","larger_num":"10","correct_side":2,"subjID":"9","gender":"1","age":"9","school":"4"},{"start_time":1552055220650,"click_time":1552055221646,"finger_time":1552055221285,"fix_duration":1223.868935155004,"trial":20,"RT":635,"MT":361,"sideResp":1,"stimulus":"img/500/equaldotanddens/L/10_Ratio_500_L_4_R_2.png","xmouse":[763,763,763,763,763,763,763,763,763,763,763,763,763,763,763,763,763,763,763,763,763,763,763,763,763,763,763,763,763,763,763,752,742,731,724,711,684,667,646,633,623,599,576,550,518,497,481,475,468,467],"ymouse":[500,500,500,500,500,500,500,500,500,500,500,500,500,500,500,500,500,500,500,500,500,500,500,500,500,500,500,500,500,499,473,421,399,383,374,361,335,318,296,283,274,258,236,218,188,169,143,131,105,87],"timestamp_mouse":[16,35,56,76,96,116,136,155,177,196,216,236,257,276,296,315,336,355,376,395,415,436,456,476,495,516,536,556,576,595,615,635,656,675,695,716,735,755,775,795,816,835,855,875,895,915,935,955,975,996],"xSR":741.5,"ySR":469.95,"xT1":424.9,"yT1":0,"xT2":1058.1,"yT2":0,"toosoon":0,"cond_shown":"equaldotanddens","ratio_trial":500,"smaller_num":"2","larger_num":"4","correct_side":1,"subjID":"9","gender":"1","age":"9","school":"4"},{"start_time":1552055224367,"click_time":1552055253385,"finger_time":1552055232726,"fix_duration":600.4488777099602,"trial":21,"RT":8359,"MT":20659,"sideResp":2,"stimulus":"img/500/equaldotsize/L/13_Ratio_500_L_12_R_6.png","xmouse":[834,827,819,816,816,816,816,816,816,816,816,816,816,816,816,816,816,816,816,816,816,816,816,816,816,816,816,816,816,816,816,816,816,816,816,816,816,816,816,816,816,816,816,816,816,816,816,816,816,816,816,816,816,816,816,816,816,816,816,816,816,816,816,816,816,816,816,816,816,816,816,816,816,816,816,816,816,816,816,816,816,816,816,816,816,816,816,816,816,816,816,816,816,816,816,816,816,816,816,816,816,816,816,816,816,816,816,816,816,816,816,816,816,816,816,816,816,816,816,816,816,816,816,816,816,816,816,816,816,816,816,816,816,816,816,816,816,816,816,816,816,816,816,816,816,816,816,816,816,816,816,816,816,816,816,816,816,816,816,816,816,816,816,816,816,816,816,816,816,816,816,816,816,816,816,816,816,816,816,816,816,816,816,816,816,816,816,816,816,816,816,816,816,816,816,816,816,816,816,816,816,816,816,816,816,816,816,816,816,816,816,816,816,816,816,816,816,816,816,816,816,816,816,816,816,816,816,816,816,816,816,816,816,816,816,816,816,816,816,816,816,816,816,816,816,816,816,816,816,816,816,816,816,816,816,816,816,816,816,816,816,816,816,816,816,816,816,816,816,816,816,816,816,816,816,816,816,816,816,816,816,816,816,816,816,816,816,816,816,816,816,816,816,816,816,816,816,816,816,816,816,816,816,816,816,816,816,816,816,816,816,816,816,816,816,816,816,816,816,816,816,816,816,816,816,816,816,816,816,816,816,816,816,816,816,816,816,816,816,816,816,816,816,816,816,816,816,816,816,816,816,816,816,816,816,816,816,816,816,816,816,816,816,816,816,816,816,816,816,816,816,816,816,816,816,816,816,816,816,816,816,816,816,816,816,816,816,816,816,816,816,816,816,816,816,816,816,816,816,816,816,816,816,816,816,816,816,816,816,816,816,816,816,816,816,815,815,836,837,834,830,828,828,828,826,818,776,759,743,727,716,707,705,702,702,700,697,703,712,720,725,728,730,734,735,736,736,742,747,750,752,752,752,752,752,758,767,773,779,781,781,781,781,781,781,781,786,793,799,801,802,802,802,802,802,802,803,805,805,805,806,807,807,807,807,807,807,807,807,808,809,812,812,812,812,812,812,812,812,812,812,812,812,812,812,812,812,812,812,812,812,812,812,812,812,812,812,812,812,812,812,812,812,812,812,812,812,812,812,812,812,812,812,812,812,812,812,812,812,812,812,812,812,812,812,812,812,812,812,812,812,812,812,812,812,812,812,812,812,812,812,812,812,812,812,812,812,812,812,812,812,812,812,812,812,812,812,812,812,812,812,812,812,812,812,812,812,812,812,812,812,812,812,812,812,812,812,812,812,812,812,812,812,812,812,812,812,812,812,812,812,812,812,812,812,812,812,812,812,812,812,812,812,812,812,812,812,812,812,812,812,812,812,812,812,812,812,812,812,812,812,812,812,812,812,812,812,812,812,812,812,812,812,812,812,812,812,812,812,812,812,812,812,812,812,812,812,812,812,812,812,812,812,812,812,812,812,812,812,812,812,812,812,812,812,812,812,812,812,812,812,812,812,812,812,812,812,812,812,812,812,812,812,812,812,812,812,812,812,812,812,812,812,812,812,812,812,812,812,812,812,812,812,812,812,812,812,812,812,812,812,812,812,812,812,812,812,812,812,812,812,812,812,812,812,812,812,812,812,812,812,812,812,812,812,812,812,812,812,812,812,812,812,812,812,812,812,812,812,812,812,812,812,812,812,812,812,812,812,812,812,812,812,812,812,812,812,812,812,812,812,812,812,812,812,812,812,812,812,812,812,812,812,812,812,812,812,812,812,812,812,812,812,812,812,812,812,812,812,812,812,812,812,812,812,812,812,812,812,812,812,812,812,812,812,812,812,812,812,812,812,812,812,812,812,812,812,812,812,812,812,812,812,812,812,812,812,812,812,812,812,812,812,812,812,812,812,812,812,812,812,812,812,812,812,812,812,812,812,812,812,812,812,812,812,812,812,812,812,812,812,812,812,812,812,812,812,812,812,812,812,812,812,812,812,812,812,812,812,812,812,812,812,812,812,812,812,812,812,812,812,812,812,812,812,812,812,812,812,812,812,812,812,812,812,812,812,812,812,812,812,812,812,812,812,812,812,812,812,812,812,812,812,812,812,812,812,812,812,812,812,812,812,812,812,812,812,812,812,812,812,812,812,812,812,812,812,812,812,812,812,812,812,812,812,812,812,812,812,812,812,812,812,812,812,812,812,812,812,812,812,812,812,812,812,812,812,812,812,812,812,812,812,812,812,812,812,812,812,812,812,812,812,812,812,812,812,812,812,812,812,812,812,812,812,812,812,812,812,812,812,812,812,812,812,812,812,812,812,812,812,812,812,812,812,812,812,812,812,812,812,812,812,812,812,812,812,812,812,812,812,812,812,812,812,812,812,812,812,812,812,812,812,812,812,812,812,812,812,812,812,812,812,812,812,812,812,812,812,812,812,812,812,812,812,812,812,812,812,812,812,812,812,812,812,812,812,812,812,812,812,812,812,812,812,812,812,812,812,812,812,812,812,812,812,812,812,812,812,812,812,812,812,812,812,812,812,812,812,812,812,812,812,812,812,812,812,812,812,812,812,812,812,812,812,812,812,812,812,812,812,812,812,812,812,812,812,812,812,812,812,812,812,812,812,812,812,812,812,812,812,812,812,812,812,812,812,812,812,812,812,812,812,812,812,812,812,812,812,812,812,812,812,812,812,812,812,812,812,812,812,812,812,812,812,812,812,812,812,812,812,812,812,812,812,812,812,812,812,812,812,812,812,812,812,812,812,812,812,812,812,812,812,812,812,812,812,812,812,812,812,812,812,812,812,812,812,812,812,812,812,812,812,812,812,812,812,812,812,812,812,812,812,812,812,812,812,812,812,812,812,812,812,812,812,812,812,812,812,812,812,812,812,812,812,812,812,812,812,812,812,812,812,812,812,812,812,812,812,812,812,812,812,812,812,812,812,812,812,812,812,812,812,812,812,812,812,812,812,812,812,812,812,812,812,812,812,812,812,812,812,812,812,812,812,812,812,812,812,812,812,812,812,812,812,812,812,812,812,812,812,812,812,812,812,812,812,812,812,812,812,812,812,812,812,812,812,812,812,812,812,812,812,812,812,812,812,812,812,812,812,812,812,812,812,812,812,812,812,812,812,812,812,812,812,812,812,812,812,812,812,812,812,812,812,817,851,1001,1001,1001,1001,1001,1001,1001,1001,1001,1001,1001,1001,1001,1001,1001,1001,1001,1001,1001,1001,1001,1001,1001,1073],"ymouse":[550,549,549,548,548,548,548,548,548,548,548,548,548,548,548,548,548,548,548,548,548,548,548,548,548,548,548,548,548,548,548,548,548,548,548,548,548,548,548,548,548,548,548,548,548,548,548,548,548,548,548,548,548,548,548,548,548,548,548,548,548,548,548,548,548,548,548,548,548,548,548,548,548,548,548,548,548,548,548,548,548,548,548,548,548,548,548,548,548,548,548,548,548,548,548,548,548,548,548,548,548,548,548,548,548,548,548,548,548,548,548,548,548,548,548,548,548,548,548,548,548,548,548,548,548,548,548,548,548,548,548,548,548,548,548,548,548,548,548,548,548,548,548,548,548,548,548,548,548,548,548,548,548,548,548,548,548,548,548,548,548,548,548,548,548,548,548,548,548,548,548,548,548,548,548,548,548,548,548,548,548,548,548,548,548,548,548,548,548,548,548,548,548,548,548,548,548,548,548,548,548,548,548,548,548,548,548,548,548,548,548,548,548,548,548,548,548,548,548,548,548,548,548,548,548,548,548,548,548,548,548,548,548,548,548,548,548,548,548,548,548,548,548,548,548,548,548,548,548,548,548,548,548,548,548,548,548,548,548,548,548,548,548,548,548,548,548,548,548,548,548,548,548,548,548,548,548,548,548,548,548,548,548,548,548,548,548,548,548,548,548,548,548,548,548,548,548,548,548,548,548,548,548,548,548,548,548,548,548,548,548,548,548,548,548,548,548,548,548,548,548,548,548,548,548,548,548,548,548,548,548,548,548,548,548,548,548,548,548,548,548,548,548,548,548,548,548,548,548,548,548,548,548,548,548,548,548,548,548,548,548,548,548,548,548,548,548,548,548,548,548,548,548,548,548,548,548,548,548,548,548,548,548,548,548,548,548,548,548,548,548,548,548,548,548,548,548,548,548,548,548,548,548,548,548,548,548,548,548,548,548,548,548,548,548,548,518,425,404,393,390,390,390,390,390,390,393,399,406,418,428,443,452,459,467,474,499,509,518,524,526,526,525,520,518,518,517,512,510,507,507,506,506,506,506,503,495,486,479,478,478,478,478,478,478,478,470,463,454,452,451,451,451,451,451,452,460,465,469,473,475,480,482,484,485,487,488,488,488,489,489,489,489,489,489,489,489,489,489,489,489,489,489,489,489,489,489,489,489,489,489,489,489,489,489,489,489,489,489,489,489,489,489,489,489,489,489,489,489,489,489,489,489,489,489,489,489,489,489,489,489,489,489,489,489,489,489,489,489,489,489,489,489,489,489,489,489,489,489,489,489,489,489,489,489,489,489,489,489,489,489,489,489,489,489,489,489,489,489,489,489,489,489,489,489,489,489,489,489,489,489,489,489,489,489,489,489,489,489,489,489,489,489,489,489,489,489,489,489,489,489,489,489,489,489,489,489,489,489,489,489,489,489,489,489,489,489,489,489,489,489,489,489,489,489,489,489,489,489,489,489,489,489,489,489,489,489,489,489,489,489,489,489,489,489,489,489,489,489,489,489,489,489,489,489,489,489,489,489,489,489,489,489,489,489,489,489,489,489,489,489,489,489,489,489,489,489,489,489,489,489,489,489,489,489,489,489,489,489,489,489,489,489,489,489,489,489,489,489,489,489,489,489,489,489,489,489,489,489,489,489,489,489,489,489,489,489,489,489,489,489,489,489,489,489,489,489,489,489,489,489,489,489,489,489,489,489,489,489,489,489,489,489,489,489,489,489,489,489,489,489,489,489,489,489,489,489,489,489,489,489,489,489,489,489,489,489,489,489,489,489,489,489,489,489,489,489,489,489,489,489,489,489,489,489,489,489,489,489,489,489,489,489,489,489,489,489,489,489,489,489,489,489,489,489,489,489,489,489,489,489,489,489,489,489,489,489,489,489,489,489,489,489,489,489,489,489,489,489,489,489,489,489,489,489,489,489,489,489,489,489,489,489,489,489,489,489,489,489,489,489,489,489,489,489,489,489,489,489,489,489,489,489,489,489,489,489,489,489,489,489,489,489,489,489,489,489,489,489,489,489,489,489,489,489,489,489,489,489,489,489,489,489,489,489,489,489,489,489,489,489,489,489,489,489,489,489,489,489,489,489,489,489,489,489,489,489,489,489,489,489,489,489,489,489,489,489,489,489,489,489,489,489,489,489,489,489,489,489,489,489,489,489,489,489,489,489,489,489,489,489,489,489,489,489,489,489,489,489,489,489,489,489,489,489,489,489,489,489,489,489,489,489,489,489,489,489,489,489,489,489,489,489,489,489,489,489,489,489,489,489,489,489,489,489,489,489,489,489,489,489,489,489,489,489,489,489,489,489,489,489,489,489,489,489,489,489,489,489,489,489,489,489,489,489,489,489,489,489,489,489,489,489,489,489,489,489,489,489,489,489,489,489,489,489,489,489,489,489,489,489,489,489,489,489,489,489,489,489,489,489,489,489,489,489,489,489,489,489,489,489,489,489,489,489,489,489,489,489,489,489,489,489,489,489,489,489,489,489,489,489,489,489,489,489,489,489,489,489,489,489,489,489,489,489,489,489,489,489,489,489,489,489,489,489,489,489,489,489,489,489,489,489,489,489,489,489,489,489,489,489,489,489,489,489,489,489,489,489,489,489,489,489,489,489,489,489,489,489,489,489,489,489,489,489,489,489,489,489,489,489,489,489,489,489,489,489,489,489,489,489,489,489,489,489,489,489,489,489,489,489,489,489,489,489,489,489,489,489,489,489,489,489,489,489,489,489,489,489,489,489,489,489,489,489,489,489,489,489,489,489,489,489,489,489,489,489,489,489,489,489,489,489,489,489,489,489,489,489,489,489,489,489,489,489,489,489,489,489,489,489,489,489,489,489,489,489,489,489,489,489,489,489,489,489,489,489,489,489,489,489,489,489,489,489,489,489,489,489,489,489,489,489,489,489,489,489,489,489,489,489,489,489,489,489,489,489,489,489,489,489,489,489,489,489,489,489,489,489,489,489,489,489,489,489,489,489,489,489,489,489,489,489,489,489,489,489,489,489,489,489,489,489,489,489,489,489,489,489,489,489,489,489,489,489,489,489,489,489,489,489,489,489,489,489,489,489,489,489,489,489,489,489,489,489,489,489,489,489,489,489,489,489,489,489,489,489,489,489,489,489,489,489,489,489,489,489,489,489,489,489,489,489,489,489,489,489,489,489,489,489,489,489,489,489,489,489,489,489,489,489,489,489,489,489,489,489,489,489,489,489,489,489,489,489,479,362,22,22,22,22,22,22,22,22,22,22,22,22,22,22,22,22,22,22,22,22,22,22,22,25],"timestamp_mouse":[20,46,59,78,98,119,139,159,179,199,218,238,259,278,298,319,339,358,378,398,418,438,458,479,498,519,539,558,578,599,618,639,659,678,700,719,739,759,779,799,818,839,859,878,898,918,940,959,979,998,1019,1039,1058,1078,1098,1118,1139,1159,1179,1198,1218,1239,1258,1280,1299,1318,1339,1359,1378,1398,1419,1439,1459,1478,1498,1519,1539,1560,1579,1598,1619,1639,1659,1679,1699,1719,1740,1759,1778,1799,1818,1839,1859,1879,1898,1919,1938,1959,1980,1999,2019,2048,2058,2078,2099,2118,2139,2160,2179,2199,2218,2239,2259,2279,2299,2318,2338,2358,2379,2398,2419,2438,2459,2479,2499,2519,2539,2558,2579,2598,2618,2639,2659,2679,2699,2718,2738,2760,2778,2799,2818,2838,2859,2878,2898,2919,2938,2959,2978,2999,3019,3039,3058,3078,3099,3118,3139,3159,3179,3199,3219,3238,3258,3278,3298,3319,3338,3360,3379,3399,3419,3438,3458,3479,3499,3519,3539,3558,3578,3598,3619,3639,3659,3678,3700,3720,3739,3758,3779,3799,3820,3838,3859,3879,3898,3918,3939,3958,3979,3998,4020,4039,4059,4078,4100,4118,4139,4159,4178,4199,4219,4238,4259,4278,4299,4320,4340,4358,4379,4399,4419,4439,4458,4479,4498,4519,4538,4560,4579,4598,4619,4639,4659,4679,4698,4719,4738,4760,4778,4799,4818,4838,4858,4879,4898,4918,4938,4958,4978,4999,5018,5039,5058,5079,5100,5120,5139,5158,5179,5199,5218,5238,5258,5278,5298,5318,5339,5358,5378,5400,5418,5439,5458,5480,5499,5518,5538,5558,5579,5598,5618,5639,5658,5678,5699,5718,5738,5759,5779,5799,5819,5838,5858,5878,5899,5918,5940,5959,5979,5999,6018,6038,6059,6079,6099,6118,6139,6158,6178,6199,6218,6238,6259,6280,6299,6318,6338,6358,6378,6399,6418,6440,6459,6479,6498,6518,6539,6559,6578,6598,6618,6639,6658,6679,6699,6720,6739,6759,6778,6798,6818,6838,6859,6878,6899,6919,6940,6959,6979,6999,7019,7039,7058,7079,7099,7118,7138,7158,7179,7198,7218,7239,7258,7278,7298,7318,7338,7358,7378,7398,7418,7438,7458,7478,7498,7518,7538,7558,7578,7598,7619,7639,7658,7678,7698,7718,7738,7758,7779,7798,7818,7838,7858,7879,7898,7918,7938,7958,7978,7998,8018,8039,8059,8078,8100,8118,8140,8160,8179,8200,8218,8238,8258,8278,8299,8318,8338,8359,8378,8399,8420,8438,8458,8479,8498,8519,8539,8558,8578,8598,8619,8638,8658,8678,8699,8719,8741,8758,8778,8799,8818,8839,8858,8878,8899,8918,8938,8959,8978,8999,9019,9038,9059,9079,9098,9119,9138,9159,9178,9199,9218,9238,9258,9279,9298,9318,9338,9359,9378,9399,9419,9439,9459,9479,9499,9520,9540,9558,9578,9599,9618,9638,9658,9679,9699,9719,9738,9760,9778,9799,9819,9839,9859,9878,9898,9918,9938,9958,9979,10000,10018,10039,10058,10079,10098,10119,10138,10158,10179,10199,10218,10240,10258,10280,10299,10318,10339,10360,10378,10398,10419,10438,10459,10479,10498,10518,10538,10558,10579,10598,10619,10639,10659,10678,10700,10719,10738,10758,10779,10799,10818,10838,10858,10879,10898,10919,10939,10959,10978,10999,11019,11039,11058,11079,11099,11118,11139,11158,11179,11199,11220,11238,11259,11279,11299,11318,11338,11359,11378,11398,11419,11438,11458,11478,11499,11519,11538,11559,11578,11598,11618,11638,11658,11678,11700,11719,11739,11759,11779,11798,11820,11839,11859,11879,11898,11920,11939,11959,11978,11998,12019,12039,12059,12079,12098,12119,12138,12159,12179,12198,12218,12239,12259,12278,12299,12318,12338,12359,12378,12399,12419,12438,12460,12479,12499,12519,12538,12559,12578,12599,12619,12639,12659,12679,12699,12719,12738,12759,12779,12799,12819,12838,12860,12878,12900,12919,12938,12959,12978,12998,13018,13039,13058,13078,13099,13118,13138,13158,13178,13198,13218,13238,13258,13278,13298,13318,13339,13359,13378,13398,13419,13439,13458,13478,13498,13518,13538,13558,13578,13598,13618,13638,13658,13678,13699,13720,13739,13759,13780,13800,13819,13839,13858,13878,13898,13918,13938,13958,13978,13999,14018,14038,14058,14078,14098,14118,14138,14158,14178,14198,14219,14238,14258,14278,14298,14318,14339,14358,14378,14399,14419,14438,14459,14479,14500,14519,14538,14558,14578,14602,14619,14639,14658,14678,14699,14719,14738,14759,14778,14799,14818,14838,14858,14879,14898,14919,14939,14958,14979,14998,15019,15038,15058,15078,15098,15119,15139,15159,15180,15199,15220,15238,15259,15279,15298,15319,15340,15359,15379,15398,15419,15439,15459,15479,15498,15519,15538,15558,15578,15598,15618,15639,15659,15679,15699,15719,15739,15758,15779,15799,15819,15839,15859,15878,15899,15919,15939,15958,15979,16000,16019,16039,16058,16079,16099,16119,16139,16159,16178,16199,16218,16239,16259,16280,16299,16318,16339,16358,16378,16399,16419,16440,16459,16480,16499,16519,16540,16558,16578,16599,16618,16640,16658,16678,16698,16718,16739,16758,16778,16798,16819,16840,16859,16878,16898,16919,16938,16959,16979,16999,17019,17038,17059,17079,17099,17118,17138,17159,17178,17200,17219,17239,17258,17278,17299,17320,17338,17358,17378,17398,17418,17438,17459,17479,17498,17519,17539,17558,17579,17598,17618,17640,17660,17679,17699,17718,17739,17758,17778,17798,17819,17839,17858,17879,17898,17918,17938,17958,17979,17999,18018,18039,18058,18078,18099,18119,18139,18159,18179,18198,18220,18240,18258,18278,18299,18318,18338,18359,18379,18400,18418,18439,18458,18479,18499,18518,18538,18558,18579,18598,18619,18639,18659,18679,18699,18720,18739,18759,18778,18799,18818,18839,18858,18878,18899,18920,18940,18959,18979,18998,19018,19038,19058,19079,19098,19120,19139,19159,19179,19200,19219,19239,19259,19278,19298,19318,19338,19358,19378,19400,19419,19439,19459,19478,19498,19519,19539,19559,19579,19599,19618,19640,19659,19678,19699,19718,19739,19758,19778,19798,19819,19839,19858,19879,19899,19918,19938,19958,19978,19998,20019,20038,20059,20079,20099,20118,20139,20159,20178,20200,20218,20239,20259,20279,20300,20319,20338,20358,20379,20398,20419,20438,20459,20479,20498,20519,20538,20559,20579,20600,20619,20639,20658,20678,20700,20718,20739,20759,20778,20799,20819,20838,20859,20879,20898,20918,20939,20959,20978,20998,21018,21038,21058,21078,21098,21118,21138,21158,21178,21198,21218,21238,21258,21278,21298,21318,21338,21358,21378,21398,21418,21439,21459,21479,21498,21518,21538,21559,21579,21599,21620,21639,21660,21679,21698,21718,21738,21759,21779,21799,21818,21840,21858,21879,21898,21918,21940,21958,21979,21998,22019,22039,22059,22079,22098,22120,22139,22159,22178,22199,22219,22239,22260,22279,22299,22319,22338,22359,22378,22399,22419,22438,22458,22479,22498,22519,22540,22560,22579,22599,22618,22640,22658,22678,22698,22719,22739,22758,22778,22799,22819,22839,22858,22880,22900,22919,22939,22958,22978,22998,23018,23038,23058,23079,23099,23118,23139,23159,23179,23200,23219,23238,23258,23278,23298,23318,23338,23358,23378,23398,23420,23438,23458,23480,23499,23519,23539,23559,23579,23598,23618,23638,23658,23679,23699,23719,23739,23759,23779,23799,23819,23838,23859,23878,23899,23919,23939,23959,23978,23998,24019,24039,24059,24079,24099,24118,24138,24158,24179,24198,24219,24239,24259,24278,24299,24319,24338,24358,24378,24399,24419,24439,24459,24478,24498,24518,24539,24559,24578,24599,24618,24639,24659,24678,24699,24718,24739,24758,24779,24800,24819,24839,24859,24878,24900,24919,24938,24959,24979,24998,25019,25040,25059,25078,25098,25118,25139,25158,25178,25198,25218,25238,25258,25279,25298,25319,25338,25358,25378,25400,25419,25438,25458,25479,25498,25520,25539,25559,25578,25599,25619,25639,25659,25678,25699,25719,25739,25759,25778,25799,25818,25839,25859,25878,25899,25919,25938,25958,25978,25998,26018,26040,26059,26078,26099,26118,26139,26160,26178,26198,26219,26238,26259,26279,26298,26318,26339,26359,26378,26398,26419,26439,26459,26478,26499,26519,26538,26558,26578,26599,26618,26639,26658,26678,26699,26719,26738,26759,26778,26798,26818,26839,26858,26878,26898,26919,26939,26958,26979,26999,27019,27039,27058,27078,27099,27118,27138,27160,27179,27199,27219,27238,27260,27278,27299,27319,27338,27359,27379,27399,27419,27439,27459,27478,27498,27518,27539,27559,27579,27599,27619,27639,27658,27679,27699,27718,27739,27759,27779,27799,27818,27838,27859,27879,27898,27919,27940,27959,27979,27999,28019,28040,28059,28078,28098,28119,28138,28158,28178,28199,28218,28239,28259,28279,28298,28318,28338,28359,28378,28399,28418,28439,28458,28479,28498,28519,28538,28558,28579,28598,28618,28639,28658,28679,28699,28718,28740,28758,28778,28798,28818,28838,28858,28880,28898,28919,28938,28958,28978,28998,29018],"xSR":741.5,"ySR":469.95,"xT1":424.9,"yT1":0,"xT2":1058.1,"yT2":0,"toosoon":0,"cond_shown":"equaldotsize","ratio_trial":500,"smaller_num":"6","larger_num":"12","correct_side":1,"subjID":"9","gender":"1","age":"9","school":"4"},{"start_time":1552055259018,"click_time":1552055260567,"finger_time":1552055259705,"fix_duration":1231.0733840902938,"trial":22,"RT":687,"MT":862,"sideResp":1,"stimulus":"img/500/randomdotsizeEA/R/1_Ratio_500_L_9_R_18.png","xmouse":[763,760,759,759,759,759,759,759,759,759,759,757,754,753,753,753,753,753,753,753,753,753,753,752,751,751,751,751,751,751,752,753,754,755,755,755,752,737,718,702,690,679,670,661,661,661,661,657,650,640,627,600,600,600,600,600,600,600,600,600,600,600,600,600,600,600,600,600,600,600,600,600,600,600,600,600,600,466],"ymouse":[499,502,503,503,503,503,503,503,503,503,503,505,507,508,508,508,508,502,502,502,502,502,502,502,502,502,502,502,502,497,494,489,480,471,465,460,451,417,392,368,342,311,281,220,204,188,177,154,135,111,79,17,17,17,17,17,17,17,17,17,17,17,17,17,17,17,17,17,17,17,17,17,17,17,17,17,17,8],"timestamp_mouse":[10,31,49,67,87,108,127,148,167,188,208,228,247,268,287,308,327,347,368,388,408,428,447,467,488,507,527,547,568,587,608,627,647,667,687,707,727,747,767,787,807,828,848,869,887,908,928,948,967,987,1008,1027,1047,1069,1087,1107,1127,1148,1167,1187,1207,1228,1247,1268,1287,1307,1327,1348,1368,1387,1407,1428,1449,1468,1487,1508,1527,1549],"xSR":741.5,"ySR":469.95,"xT1":424.9,"yT1":0,"xT2":1058.1,"yT2":0,"toosoon":0,"cond_shown":"randomdotsizeEA","ratio_trial":500,"smaller_num":"9","larger_num":"18","correct_side":2,"subjID":"9","gender":"1","age":"9","school":"4"},{"start_time":1552055263057,"click_time":1552055264167,"finger_time":1552055263666,"fix_duration":1230.0159823975614,"trial":23,"RT":609,"MT":501,"sideResp":2,"stimulus":"img/750/equaldotsize/R/4_Ratio_750_L_15_R_20.png","xmouse":[751,753,753,753,753,753,753,753,753,753,753,753,753,753,753,753,754,754,754,754,754,754,754,754,754,755,758,760,763,768,770,781,788,796,807,842,858,880,913,923,943,957,959,962,964,970,987,998,1007,1013,1016,1021,1029,1040,1052,1069],"ymouse":[500,491,486,486,486,486,486,486,486,486,486,486,486,486,486,484,483,483,483,483,483,483,483,483,483,483,483,483,480,471,465,446,435,424,414,384,363,330,274,253,209,181,177,174,170,163,149,141,136,133,132,129,123,113,102,88],"timestamp_mouse":[8,37,48,69,89,109,129,148,170,189,210,229,248,269,289,308,328,350,369,390,410,429,449,468,490,508,528,549,569,589,608,629,649,669,689,711,729,748,769,789,809,828,849,868,889,909,928,949,968,989,1008,1029,1048,1068,1088,1109],"xSR":741.5,"ySR":469.95,"xT1":424.9,"yT1":0,"xT2":1058.1,"yT2":0,"toosoon":0,"cond_shown":"equaldotsize","ratio_trial":750,"smaller_num":"15","larger_num":"20","correct_side":2,"subjID":"9","gender":"1","age":"9","school":"4"},{"start_time":1552055271063,"click_time":1552055272666,"finger_time":1552055271806,"fix_duration":873.250955134001,"trial":24,"RT":743,"MT":860,"sideResp":1,"stimulus":"img/750/randomdotsizeEA/R/11_Ratio_750_L_12_R_16.png","xmouse":[788,788,788,788,788,788,788,788,788,788,788,788,788,788,788,788,788,788,788,788,788,788,788,788,788,788,788,788,788,788,788,788,787,785,783,779,772,741,693,629,554,483,407,398,398,398,396,390,385,385,385,385,385,385,385,388,393,409,411,412,412,412,412,412,412,413,414,416,416,416,416,416,418,419,420,420,421,423,423,424,425],"ymouse":[543,543,543,543,543,543,543,543,543,543,543,543,543,543,543,543,543,543,543,543,543,543,543,543,543,543,543,543,543,543,543,543,543,541,538,532,523,492,430,353,250,157,63,50,47,43,34,21,15,13,13,13,13,13,12,12,14,21,22,23,23,23,23,23,23,24,24,26,26,26,26,26,27,28,29,29,30,31,31,33,33],"timestamp_mouse":[11,24,43,62,84,104,123,144,163,184,204,222,243,263,283,302,323,343,362,384,404,423,443,462,482,503,523,543,564,584,603,622,642,663,683,703,723,743,763,783,803,823,842,864,883,903,923,942,963,983,1004,1023,1043,1063,1082,1103,1122,1143,1162,1183,1203,1223,1243,1263,1283,1303,1322,1343,1362,1382,1404,1423,1443,1463,1483,1504,1524,1543,1563,1582,1603],"xSR":741.5,"ySR":469.95,"xT1":424.9,"yT1":0,"xT2":1058.1,"yT2":0,"toosoon":0,"cond_shown":"randomdotsizeEA","ratio_trial":750,"smaller_num":"12","larger_num":"16","correct_side":2,"subjID":"9","gender":"1","age":"9","school":"4"},{"start_time":1552055274537,"click_time":1552055275646,"finger_time":1552055275225,"fix_duration":250,"trial":25,"RT":688,"MT":421,"sideResp":1,"stimulus":"img/250/equaldotanddens/L/1_Ratio_250_L_8_R_2.png","xmouse":[791,791,791,791,791,792,794,800,806,806,806,806,806,807,809,809,809,809,809,809,809,809,809,809,809,809,809,809,809,809,809,809,807,804,804,804,795,775,711,687,668,653,642,631,628,624,616,606,587,582,575,570,562,540,526,514],"ymouse":[534,534,534,534,534,534,534,533,531,531,531,531,531,531,532,532,532,532,532,532,532,532,532,532,532,532,532,532,532,532,530,524,508,485,458,433,398,340,228,193,171,152,138,126,120,114,103,92,78,78,76,76,74,71,71,71],"timestamp_mouse":[11,31,48,70,88,109,129,149,168,188,208,230,249,268,288,308,328,348,368,389,409,429,450,470,490,508,530,550,570,590,608,629,649,669,688,708,728,750,768,789,809,828,848,868,889,909,929,949,969,988,1009,1030,1049,1068,1088,1109],"xSR":741.5,"ySR":469.95,"xT1":424.9,"yT1":0,"xT2":1058.1,"yT2":0,"toosoon":0,"cond_shown":"equaldotanddens","ratio_trial":250,"smaller_num":"2","larger_num":"8","correct_side":1,"subjID":"9","gender":"1","age":"9","school":"4"},{"start_time":1552055277322,"click_time":1552055278185,"finger_time":1552055277925,"fix_duration":754.0002807132086,"trial":26,"RT":603,"MT":260,"sideResp":2,"stimulus":"img/750/equaldotanddens/R/11_Ratio_750_L_12_R_16.png","xmouse":[756,756,756,756,756,756,756,756,756,756,756,756,756,756,756,756,756,756,756,756,756,756,756,756,756,756,756,756,757,758,769,777,783,789,803,814,826,842,860,920,958,1002,1042,1078],"ymouse":[511,511,511,511,511,511,511,511,511,511,511,511,511,511,511,511,511,511,511,511,511,511,511,511,511,511,506,504,497,488,453,435,415,391,349,330,311,288,263,177,136,96,60,27],"timestamp_mouse":[10,29,45,64,84,104,124,143,165,184,205,223,243,265,284,305,324,344,364,384,405,423,444,465,484,503,524,544,564,583,603,624,644,664,684,703,724,744,764,785,803,823,844,863],"xSR":741.5,"ySR":469.95,"xT1":424.9,"yT1":0,"xT2":1058.1,"yT2":0,"toosoon":0,"cond_shown":"equaldotanddens","ratio_trial":750,"smaller_num":"12","larger_num":"16","correct_side":2,"subjID":"9","gender":"1","age":"9","school":"4"},{"start_time":1552055279522,"click_time":1552055281407,"finger_time":1552055280065,"fix_duration":313.8028200170816,"trial":27,"RT":543,"MT":1342,"sideResp":1,"stimulus":"img/900/equaldotsize/L/10_Ratio_900_L_20_R_18.png","xmouse":[789,790,790,790,790,790,790,790,790,790,790,790,790,790,790,790,790,790,791,791,791,790,788,786,786,786,786,786,784,776,766,756,744,713,654,622,590,572,559,556,555,553,552,550,549,546,544,541,538,534,532,531,531,530,530,529,529,529,529,529,529,528,527,527,527,527,527,527,527,527,527,527,527,527,527,527,527,527,527,527,527,526,526,526,526,525,525,525,525,524,524,523,523,522,522],"ymouse":[506,507,507,507,507,507,507,507,507,507,507,507,507,507,507,507,507,507,504,489,482,477,472,470,470,470,470,468,466,456,444,430,418,394,348,322,297,282,271,268,265,260,254,249,243,230,222,215,204,194,187,186,186,184,182,180,180,180,180,180,176,172,170,166,161,152,149,147,146,146,145,143,142,139,136,130,127,125,123,121,120,118,118,116,115,113,112,111,111,108,107,105,104,101,99],"timestamp_mouse":[10,32,43,65,84,104,125,143,163,185,205,225,243,265,285,305,324,344,364,384,404,423,444,463,485,505,524,543,563,585,604,624,643,664,685,704,724,743,764,784,804,823,844,864,884,904,924,944,963,983,1003,1023,1044,1064,1083,1103,1123,1143,1163,1183,1204,1224,1244,1263,1284,1304,1324,1343,1363,1383,1404,1423,1444,1464,1483,1503,1523,1543,1564,1583,1605,1623,1643,1663,1684,1704,1723,1744,1764,1784,1804,1824,1843,1864,1884],"xSR":741.5,"ySR":469.95,"xT1":424.9,"yT1":0,"xT2":1058.1,"yT2":0,"toosoon":0,"cond_shown":"equaldotsize","ratio_trial":900,"smaller_num":"18","larger_num":"20","correct_side":1,"subjID":"9","gender":"1","age":"9","school":"4"},{"start_time":1552055289071,"click_time":1552055291127,"finger_time":1552055290045,"fix_duration":624.8480491039124,"trial":28,"RT":974,"MT":1082,"sideResp":1,"stimulus":"img/900/equaldotanddens/L/2_Ratio_900_L_20_R_18.png","xmouse":[782,782,782,783,784,786,787,789,789,789,789,789,789,789,789,789,789,791,794,794,795,797,798,798,798,798,798,798,798,798,798,798,798,798,798,798,798,798,796,789,785,781,777,774,773,772,770,767,745,718,681,642,615,597,592,587,573,565,559,558,556,555,554,553,550,546,543,540,537,536,535,534,533,529,527,522,518,518,517,516,516,515,513,512,512,512,512,512,512,512,512,512,512,512,512,512,512,512,512,511,511,511,511],"ymouse":[524,524,524,524,524,524,524,524,524,524,524,524,524,524,524,524,524,524,524,524,525,533,535,535,535,535,535,535,535,535,535,535,535,535,535,535,535,535,534,531,526,517,509,500,498,497,494,488,460,425,375,320,272,213,190,171,148,139,133,132,131,130,130,128,126,123,121,118,118,118,117,117,116,115,114,113,113,113,111,110,110,108,105,104,104,104,104,104,104,104,104,104,104,104,104,104,104,104,104,102,101,100,98],"timestamp_mouse":[16,35,56,74,96,115,136,154,175,194,216,236,256,274,294,315,335,354,375,394,415,435,455,476,494,515,536,555,575,595,615,635,656,675,696,715,736,754,775,794,815,834,854,874,895,914,935,955,974,994,1014,1035,1055,1074,1095,1115,1135,1155,1175,1194,1215,1234,1254,1274,1295,1315,1334,1354,1374,1396,1415,1434,1454,1475,1494,1514,1535,1556,1576,1596,1615,1635,1655,1674,1694,1714,1734,1756,1775,1795,1815,1836,1855,1874,1895,1915,1935,1954,1975,1994,2016,2035,2055],"xSR":741.5,"ySR":469.95,"xT1":424.9,"yT1":0,"xT2":1058.1,"yT2":0,"toosoon":0,"cond_shown":"equaldotanddens","ratio_trial":900,"smaller_num":"18","larger_num":"20","correct_side":1,"subjID":"9","gender":"1","age":"9","school":"4"},{"start_time":1552055301686,"click_time":1552055311225,"finger_time":1552055310905,"fix_duration":1158.7316021868207,"trial":29,"RT":9219,"MT":320,"sideResp":2,"stimulus":"img/500/equaldotanddens/R/6_Ratio_500_L_9_R_18.png","xmouse":[797,797,797,797,797,797,797,797,797,797,797,797,797,797,797,797,797,797,797,797,797,797,797,797,797,797,797,797,797,797,797,797,797,797,797,797,797,797,797,797,797,797,797,797,797,794,792,790,789,789,789,789,790,792,794,798,798,798,798,798,798,798,798,798,798,798,798,798,798,798,798,798,796,796,796,796,796,796,796,796,796,796,796,796,796,796,796,796,796,796,796,796,796,796,796,796,796,796,796,796,796,796,796,796,796,796,796,796,796,796,796,796,796,796,796,796,796,796,796,796,796,796,796,796,796,796,796,796,796,796,796,796,796,796,796,796,796,796,796,796,796,796,796,800,822,831,832,833,833,833,833,833,833,833,833,833,833,833,833,833,833,833,833,833,833,833,833,833,833,833,833,833,833,833,833,833,833,833,833,833,833,833,833,833,833,833,833,833,833,833,833,833,833,833,833,833,833,833,833,833,833,833,833,833,833,833,833,833,833,833,833,833,833,833,833,833,833,833,833,833,833,833,833,833,833,833,833,833,833,833,833,833,833,833,833,833,833,833,833,833,833,833,833,833,833,833,833,833,833,833,833,833,833,833,833,833,833,833,833,833,833,833,833,833,833,833,833,833,833,833,833,833,833,833,833,833,833,833,833,833,833,833,833,833,833,833,833,833,833,833,833,833,833,833,833,833,833,833,833,833,833,833,833,833,833,833,833,833,833,833,833,833,833,833,833,833,833,833,833,833,833,833,833,833,833,833,833,833,833,833,833,833,833,833,833,833,833,833,833,833,833,833,833,833,833,833,833,833,833,833,833,833,833,833,833,833,833,833,833,833,833,833,833,833,833,833,833,833,833,833,833,833,833,833,833,833,833,833,833,833,833,833,833,833,833,833,833,833,833,833,833,833,833,833,833,833,833,833,833,833,833,833,833,833,833,833,833,833,833,833,833,833,833,833,833,833,833,833,833,833,833,833,833,833,833,833,833,833,833,833,833,833,833,833,833,833,833,833,833,833,833,833,833,833,833,833,833,833,833,833,833,833,833,833,833,833,833,833,833,834,835,816,829,837,837,837,837,837,837,837,837,837,837,837,837,837,837,1062],"ymouse":[523,523,523,523,523,523,523,523,523,523,523,523,523,523,523,523,523,523,523,523,523,523,523,523,523,523,523,523,523,522,517,516,516,516,516,516,516,516,516,516,516,516,516,516,515,510,505,501,499,499,499,499,501,504,509,518,520,521,521,521,521,521,521,524,529,530,530,530,530,530,530,530,525,517,510,509,508,506,505,504,504,504,504,504,504,504,504,504,504,504,504,504,504,504,504,504,504,504,504,504,504,504,504,504,504,504,504,504,504,504,504,504,504,504,504,504,504,504,504,504,504,504,504,504,504,504,504,504,504,504,504,504,504,504,504,504,504,504,504,504,504,504,503,503,500,500,499,499,499,499,499,499,499,499,499,499,499,499,499,499,499,499,499,499,499,499,499,499,499,499,499,499,499,499,499,499,499,499,499,499,499,499,499,499,499,499,499,499,499,499,499,499,499,499,499,499,499,499,499,499,499,499,499,499,499,499,499,499,499,499,499,499,499,499,499,499,499,499,499,499,499,499,499,499,499,499,499,499,499,499,499,499,499,499,499,499,499,499,499,499,499,499,499,499,499,499,499,499,499,499,499,499,499,499,499,499,499,499,499,499,499,499,499,499,499,499,499,499,499,499,499,499,499,499,499,499,499,499,499,499,499,499,499,499,499,499,499,499,499,499,499,499,499,499,499,499,499,499,499,499,499,499,499,499,499,499,499,499,499,499,499,499,499,499,499,499,499,499,499,499,499,499,499,499,499,499,499,499,499,499,499,499,499,499,499,499,499,499,499,499,499,499,499,499,499,499,499,499,499,499,499,499,499,499,499,499,499,499,499,499,499,499,499,499,499,499,499,499,499,499,499,499,499,499,499,499,499,499,499,499,499,499,499,499,499,499,499,499,499,499,499,499,499,499,499,499,499,499,499,499,499,499,499,499,499,499,499,499,499,499,499,499,499,499,499,499,499,499,499,499,499,499,499,499,499,499,499,499,499,499,499,499,499,499,499,499,499,499,499,499,499,499,499,499,499,499,499,499,499,499,499,499,499,499,499,499,499,499,499,499,480,241,117,54,54,54,54,54,54,54,54,54,54,54,54,54,54,21],"timestamp_mouse":[2,21,43,61,80,100,121,139,161,181,200,221,241,261,280,299,320,339,361,379,400,421,441,461,479,500,519,540,561,579,600,619,640,660,679,699,719,739,759,780,800,821,840,860,881,899,920,939,959,980,1000,1019,1039,1059,1080,1099,1121,1139,1159,1180,1201,1220,1241,1259,1280,1300,1321,1341,1359,1380,1401,1419,1440,1459,1479,1499,1520,1539,1560,1580,1601,1621,1639,1659,1680,1700,1721,1740,1760,1780,1800,1821,1839,1859,1880,1901,1921,1941,1960,1979,2001,2020,2040,2061,2080,2099,2119,2139,2159,2180,2201,2220,2241,2261,2280,2301,2319,2339,2361,2380,2400,2421,2441,2460,2479,2501,2520,2541,2560,2581,2600,2620,2639,2659,2681,2701,2721,2740,2760,2780,2801,2821,2840,2860,2880,2899,2920,2940,2961,2980,2999,3020,3040,3061,3079,3100,3120,3141,3160,3180,3200,3230,3241,3260,3281,3300,3321,3341,3360,3380,3400,3420,3441,3459,3481,3501,3519,3540,3559,3580,3601,3621,3639,3659,3679,3700,3720,3741,3760,3781,3801,3820,3839,3860,3880,3900,3920,3939,3961,3981,4001,4019,4039,4060,4081,4099,4119,4140,4161,4180,4200,4221,4241,4261,4280,4300,4320,4341,4359,4380,4401,4421,4441,4459,4480,4499,4521,4540,4560,4580,4600,4621,4640,4660,4680,4699,4719,4740,4760,4781,4800,4819,4841,4861,4881,4899,4919,4941,4961,4980,5000,5021,5041,5060,5081,5099,5120,5141,5160,5180,5201,5221,5240,5260,5281,5301,5320,5340,5360,5380,5401,5421,5440,5461,5481,5500,5519,5540,5559,5581,5600,5620,5641,5661,5680,5700,5720,5741,5760,5779,5800,5821,5841,5859,5880,5899,5921,5940,5961,5980,6000,6020,6040,6060,6081,6100,6121,6139,6159,6180,6201,6220,6241,6260,6279,6301,6321,6341,6359,6381,6401,6420,6439,6460,6480,6500,6520,6540,6560,6579,6599,6620,6641,6660,6680,6701,6720,6741,6759,6780,6801,6820,6841,6861,6881,6899,6919,6939,6961,6980,7001,7021,7040,7061,7081,7100,7121,7141,7160,7180,7200,7220,7241,7261,7280,7301,7319,7340,7361,7380,7400,7421,7440,7461,7479,7499,7520,7540,7561,7580,7600,7621,7640,7660,7680,7699,7721,7741,7761,7780,7799,7819,7841,7860,7881,7899,7919,7939,7961,7981,8001,8020,8040,8061,8079,8099,8121,8141,8161,8179,8200,8219,8240,8261,8279,8299,8320,8340,8360,8379,8401,8420,8441,8461,8479,8499,8521,8541,8560,8579,8599,8620,8640,8660,8680,8699,8720,8739,8761,8779,8800,8819,8840,8861,8881,8899,8920,8940,8961,8981,8999,9019,9041,9060,9079,9099,9121,9141,9161,9179,9199,9219,9240,9260,9280,9300,9321,9341,9360,9379,9400,9420,9441,9461,9480,9499,9519,9539],"xSR":741.5,"ySR":469.95,"xT1":424.9,"yT1":0,"xT2":1058.1,"yT2":0,"toosoon":0,"cond_shown":"equaldotanddens","ratio_trial":500,"smaller_num":"9","larger_num":"18","correct_side":2,"subjID":"9","gender":"1","age":"9","school":"4"},{"start_time":1552055314899,"click_time":1552055316485,"finger_time":1552055315625,"fix_duration":549.981043183614,"trial":30,"RT":726,"MT":860,"sideResp":1,"stimulus":"img/900/equaldotanddens/L/2_Ratio_900_L_20_R_18.png","xmouse":[803,803,803,803,803,803,803,803,803,803,803,803,803,803,803,803,803,803,803,803,803,803,803,805,807,812,812,812,812,812,812,812,812,812,812,809,802,794,782,759,744,728,710,684,666,652,648,643,637,634,618,605,584,571,559,540,533,525,521,518,516,516,516,517,517,517,517,517,517,517,517,517,517,517,517,516,515,514,513,513],"ymouse":[497,497,497,497,497,497,497,497,497,497,497,497,497,497,497,497,497,497,497,497,497,497,497,496,495,492,492,492,492,492,492,492,492,491,488,477,466,452,437,413,401,387,373,354,344,335,332,328,323,321,312,304,291,284,278,254,241,229,215,199,172,163,155,150,150,150,150,150,150,150,150,150,150,150,150,146,140,129,116,99],"timestamp_mouse":[9,27,48,67,88,107,128,147,168,186,206,227,248,268,287,307,328,347,367,386,406,427,446,467,487,508,527,546,568,587,607,627,646,668,687,707,726,747,767,788,806,828,847,866,886,907,927,946,966,988,1007,1027,1047,1067,1086,1107,1127,1147,1167,1187,1206,1228,1248,1267,1286,1306,1326,1348,1368,1387,1407,1427,1447,1467,1486,1506,1526,1546,1567,1586],"xSR":741.5,"ySR":469.95,"xT1":424.9,"yT1":0,"xT2":1058.1,"yT2":0,"toosoon":0,"cond_shown":"equaldotanddens","ratio_trial":900,"smaller_num":"18","larger_num":"20","correct_side":1,"subjID":"9","gender":"1","age":"9","school":"4"},{"start_time":1552055318732,"click_time":1552055321025,"finger_time":1552055319246,"fix_duration":1202.5512259175905,"trial":31,"RT":514,"MT":1779,"sideResp":1,"stimulus":"img/900/equaldotsize/L/10_Ratio_900_L_20_R_18.png","xmouse":[836,836,836,836,836,836,836,836,836,836,836,836,836,836,836,836,836,836,836,836,836,836,836,837,840,843,845,846,849,849,849,850,851,852,852,852,852,852,852,850,850,850,849,846,838,830,818,808,804,803,803,800,799,799,799,799,798,796,794,792,788,778,764,745,697,683,679,676,673,667,661,653,646,632,628,624,622,619,613,603,591,574,551,503,476,450,424,412,401,401,401,401,401,401,401,401,401,401,401,401,401,401,401,401,401,401,401,401,401,401,401,401,401,401,486],"ymouse":[510,510,510,510,510,510,510,510,510,510,510,510,510,510,510,510,510,510,510,510,510,510,510,506,502,497,492,489,482,477,473,468,462,453,453,452,452,452,450,446,446,446,445,445,449,459,470,480,487,489,496,507,513,516,516,516,516,516,517,517,515,503,487,466,426,415,409,404,393,372,355,340,322,285,276,267,264,261,256,249,242,233,218,192,173,154,121,83,28,11,11,11,11,11,11,11,11,11,11,11,11,11,11,11,11,11,11,11,11,11,11,11,11,11,3],"timestamp_mouse":[14,36,53,73,94,115,135,154,173,195,215,234,253,273,295,314,334,354,374,395,415,433,454,474,493,514,534,555,574,594,613,635,653,673,694,714,734,753,774,793,814,835,853,874,894,913,934,955,973,994,1013,1034,1055,1073,1094,1113,1133,1154,1173,1194,1213,1235,1254,1273,1293,1313,1334,1355,1374,1393,1413,1434,1453,1474,1493,1515,1534,1555,1575,1593,1614,1634,1653,1674,1694,1715,1734,1754,1773,1793,1815,1833,1855,1874,1895,1914,1934,1955,1974,1995,2014,2034,2053,2074,2094,2115,2135,2155,2174,2193,2214,2235,2254,2275,2293],"xSR":741.5,"ySR":469.95,"xT1":424.9,"yT1":0,"xT2":1058.1,"yT2":0,"toosoon":0,"cond_shown":"equaldotsize","ratio_trial":900,"smaller_num":"18","larger_num":"20","correct_side":1,"subjID":"9","gender":"1","age":"9","school":"4"},{"start_time":1552055331742,"click_time":1552055334105,"finger_time":1552055332306,"fix_duration":734.2299794018088,"trial":32,"RT":564,"MT":1799,"sideResp":1,"stimulus":"img/250/equaldotanddens/L/7_Ratio_250_L_8_R_2.png","xmouse":[823,823,823,823,823,823,823,823,823,823,823,823,823,823,823,823,823,823,823,823,823,823,823,823,822,806,787,762,734,710,669,651,627,619,601,592,589,589,589,588,587,587,587,578,563,534,529,526,526,526,526,526,526,526,526,525,524,524,524,524,522,515,505,502,502,501,501,501,501,501,501,501,500,498,496,492,490,487,485,484,482,481,480,480,479,479,479,479,479,479,479,479,479,479,479,479,479,479,478,478,478,478,478,478,478,478,478,478,478,478,478,478,478,478,478,478,478,477,475],"ymouse":[514,514,514,514,514,514,514,514,514,514,514,514,514,514,514,514,514,514,514,514,514,514,514,514,513,513,515,518,522,521,505,496,474,465,449,438,433,424,417,413,408,408,408,407,400,361,353,349,349,349,349,349,349,349,348,348,339,323,299,271,191,169,148,145,144,144,144,144,144,144,144,144,144,144,144,141,140,138,135,133,128,126,125,125,123,123,123,122,122,122,122,122,122,122,122,120,117,115,114,111,109,109,109,109,109,109,109,109,109,109,109,109,109,109,109,109,109,103,96],"timestamp_mouse":[18,37,45,64,85,104,124,143,163,185,203,223,244,263,284,303,325,344,364,385,404,425,444,464,483,503,523,544,564,584,604,624,643,664,684,704,723,743,764,785,804,824,844,864,883,903,923,943,964,985,1005,1025,1044,1063,1084,1104,1124,1144,1164,1184,1203,1224,1243,1265,1285,1304,1324,1344,1365,1384,1403,1423,1444,1465,1484,1504,1524,1543,1563,1585,1604,1624,1645,1665,1684,1703,1723,1744,1763,1784,1804,1824,1844,1864,1884,1903,1923,1944,1964,1985,2004,2024,2044,2065,2084,2103,2124,2143,2164,2185,2204,2225,2244,2264,2286,2304,2325,2343,2363],"xSR":741.5,"ySR":469.95,"xT1":424.9,"yT1":0,"xT2":1058.1,"yT2":0,"toosoon":0,"cond_shown":"equaldotanddens","ratio_trial":250,"smaller_num":"2","larger_num":"8","correct_side":1,"subjID":"9","gender":"1","age":"9","school":"4"},{"start_time":1552055336606,"click_time":1552055338126,"finger_time":1552055337306,"fix_duration":1258.3377859623586,"trial":33,"RT":700,"MT":820,"sideResp":2,"stimulus":"img/900/randomdotsizeEA/L/8_Ratio_900_L_20_R_18.png","xmouse":[796,796,795,794,794,794,795,795,795,795,795,795,795,795,795,795,795,795,795,795,795,795,795,795,794,792,792,790,789,788,788,786,782,779,775,769,760,738,713,693,675,665,654,653,652,648,645,639,639,639,639,651,754,847,923,965,978,978,978,978,978,980,998,1011,1020,1021,1021,1021,1021,1021,1021,1021,1021,1021,1036,1049,1068],"ymouse":[528,528,528,526,521,514,507,496,493,492,492,492,492,492,492,492,492,492,492,492,492,492,492,490,488,487,486,484,484,484,483,482,479,475,470,463,452,425,405,388,375,370,360,359,356,351,345,332,328,326,320,303,219,152,97,64,54,54,54,54,54,53,27,12,0,0,0,0,0,0,0,0,0,0,0,6,13],"timestamp_mouse":[8,21,40,60,79,100,121,139,161,181,200,220,239,260,279,299,319,340,359,381,401,421,440,459,480,500,520,540,561,579,600,620,640,659,680,700,721,740,760,780,800,819,840,859,881,900,920,940,960,979,1000,1020,1040,1060,1079,1099,1120,1140,1161,1181,1199,1219,1241,1259,1280,1301,1320,1341,1360,1379,1399,1421,1440,1460,1480,1500,1520],"xSR":741.5,"ySR":469.95,"xT1":424.9,"yT1":0,"xT2":1058.1,"yT2":0,"toosoon":0,"cond_shown":"randomdotsizeEA","ratio_trial":900,"smaller_num":"18","larger_num":"20","correct_side":1,"subjID":"9","gender":"1","age":"9","school":"4"},{"start_time":1552055342298,"click_time":1552055344446,"finger_time":1552055343086,"fix_duration":250,"trial":34,"RT":788,"MT":1360,"sideResp":1,"stimulus":"img/900/randomdotsizeEA/R/6_Ratio_900_L_9_R_10.png","xmouse":[814,814,814,814,814,814,814,814,814,814,814,814,814,814,814,814,814,814,814,814,814,814,814,814,814,814,814,814,814,814,814,814,813,813,813,813,813,811,807,805,800,796,791,771,754,737,735,735,735,734,734,734,734,734,734,734,734,734,734,734,734,728,719,703,702,699,686,670,640,618,601,584,571,554,551,548,546,546,542,541,535,529,518,513,513,513,513,513,513,513,512,509,507,505,497,490,489,489,487,487,486,486,486,486,486,486,486,486],"ymouse":[492,492,492,492,492,492,492,492,492,492,492,492,492,492,492,492,492,492,492,492,492,492,492,492,492,492,492,492,492,492,492,492,492,492,492,492,492,484,472,464,452,447,440,421,407,392,391,391,391,391,391,391,391,391,391,391,391,391,391,391,390,385,382,377,377,375,366,359,350,342,334,326,312,258,229,201,179,168,154,152,143,136,126,123,123,123,123,123,123,123,123,123,123,123,122,118,118,117,116,116,114,113,112,111,111,107,102,96],"timestamp_mouse":[10,30,47,68,87,109,128,148,169,188,208,228,248,269,288,308,328,349,369,388,408,428,449,468,487,508,529,549,569,589,608,628,648,669,688,707,727,748,768,788,807,829,848,867,889,908,928,949,969,988,1009,1028,1049,1068,1088,1108,1129,1147,1168,1189,1207,1228,1248,1268,1289,1308,1328,1349,1367,1388,1407,1428,1448,1468,1488,1509,1528,1549,1568,1588,1607,1628,1648,1668,1688,1708,1728,1749,1768,1788,1807,1829,1848,1868,1887,1907,1927,1947,1967,1988,2007,2028,2047,2068,2087,2108,2128,2148],"xSR":741.5,"ySR":469.95,"xT1":424.9,"yT1":0,"xT2":1058.1,"yT2":0,"toosoon":0,"cond_shown":"randomdotsizeEA","ratio_trial":900,"smaller_num":"9","larger_num":"10","correct_side":2,"subjID":"9","gender":"1","age":"9","school":"4"},{"start_time":1552055345974,"click_time":1552055346967,"finger_time":1552055346566,"fix_duration":427.5208526566373,"trial":35,"RT":592,"MT":401,"sideResp":1,"stimulus":"img/500/equaldotsize/L/11_Ratio_500_L_12_R_6.png","xmouse":[786,786,787,787,787,787,787,787,787,787,787,787,787,787,787,787,787,787,787,787,787,787,785,780,774,773,773,768,764,733,711,684,654,628,552,477,424,379,357,335,331,329,328,328,327,327,330,340,367,494],"ymouse":[549,549,549,549,549,549,549,549,549,549,549,549,549,549,549,549,549,549,549,549,549,546,541,534,496,487,487,480,474,441,417,387,356,330,270,218,175,137,120,90,79,73,70,70,68,65,61,57,49,17],"timestamp_mouse":[27,33,53,72,91,111,133,152,173,191,212,233,251,271,291,311,333,351,371,392,413,432,452,471,492,513,531,552,571,592,612,632,652,672,692,711,732,752,772,792,811,832,853,873,892,913,932,952,971,993],"xSR":741.5,"ySR":469.95,"xT1":424.9,"yT1":0,"xT2":1058.1,"yT2":0,"toosoon":0,"cond_shown":"equaldotsize","ratio_trial":500,"smaller_num":"6","larger_num":"12","correct_side":1,"subjID":"9","gender":"1","age":"9","school":"4"},{"start_time":1552055349636,"click_time":1552055350466,"finger_time":1552055350326,"fix_duration":250,"trial":36,"RT":690,"MT":140,"sideResp":1,"stimulus":"img/750/randomdotsizeEA/R/3_Ratio_750_L_15_R_20.png","xmouse":[823,823,823,823,823,823,823,823,823,823,824,826,828,828,828,828,828,828,828,828,828,828,828,828,828,828,828,828,828,828,828,825,798,770,739,707,678,625,587,551,506,479],"ymouse":[565,565,565,565,565,565,565,565,565,565,562,553,549,549,549,549,549,549,549,549,549,549,549,549,549,549,549,549,549,549,549,548,537,520,497,466,425,332,265,196,130,92],"timestamp_mouse":[14,31,50,70,90,110,131,150,171,191,210,230,250,270,289,310,331,351,370,390,410,431,451,469,490,511,531,550,570,591,610,629,650,669,690,710,730,750,770,789,810,830],"xSR":741.5,"ySR":469.95,"xT1":424.9,"yT1":0,"xT2":1058.1,"yT2":0,"toosoon":0,"cond_shown":"randomdotsizeEA","ratio_trial":750,"smaller_num":"15","larger_num":"20","correct_side":2,"subjID":"9","gender":"1","age":"9","school":"4"},{"start_time":1552055354457,"click_time":1552055356166,"finger_time":1552055355206,"fix_duration":250,"trial":37,"RT":749,"MT":960,"sideResp":2,"stimulus":"img/750/equaldotanddens/R/15_Ratio_750_L_9_R_12.png","xmouse":[815,815,815,815,815,815,815,815,815,815,815,815,815,815,815,815,815,815,815,815,815,815,815,815,815,815,815,815,815,815,815,815,817,819,821,823,824,833,840,849,860,873,899,916,929,938,952,964,971,977,982,987,988,988,988,988,988,988,988,988,988,996,1005,1010,1013,1014,1014,1016,1016,1018,1021,1026,1028,1031,1034,1038,1042,1044,1046,1049,1051,1052,1057,1057,1058,1059],"ymouse":[514,514,514,514,514,514,514,514,514,514,514,514,514,514,514,514,514,514,514,514,514,514,514,514,514,514,514,514,514,514,514,511,503,491,481,475,470,436,413,385,349,308,223,182,150,130,88,60,45,30,19,6,5,5,5,5,5,5,5,5,4,5,9,11,13,13,13,14,14,15,17,20,21,22,24,26,28,30,32,36,38,42,53,55,63,70],"timestamp_mouse":[10,31,49,70,90,108,128,149,168,190,208,228,250,270,289,309,329,350,370,388,410,429,449,470,488,508,529,548,569,589,610,630,648,669,689,709,729,749,769,790,809,829,849,868,888,909,930,948,969,989,1009,1031,1048,1069,1089,1109,1129,1150,1170,1188,1208,1230,1248,1268,1289,1309,1330,1348,1369,1390,1410,1429,1448,1470,1490,1510,1529,1548,1569,1590,1610,1628,1649,1669,1689,1709],"xSR":741.5,"ySR":469.95,"xT1":424.9,"yT1":0,"xT2":1058.1,"yT2":0,"toosoon":0,"cond_shown":"equaldotanddens","ratio_trial":750,"smaller_num":"9","larger_num":"12","correct_side":2,"subjID":"9","gender":"1","age":"9","school":"4"},{"start_time":1552055357763,"click_time":1552055358485,"finger_time":1552055358327,"fix_duration":675.1371427411937,"trial":38,"RT":564,"MT":158,"sideResp":1,"stimulus":"img/250/equaldotsize/L/5_Ratio_250_L_24_R_6.png","xmouse":[786,786,786,786,786,786,786,786,786,786,786,786,786,786,786,786,786,786,785,785,785,785,784,783,782,778,776,761,748,732,702,679,626,601,569,536,499],"ymouse":[546,546,546,546,546,546,546,546,546,546,546,546,546,546,546,546,546,545,541,540,538,537,534,530,524,516,505,471,444,418,371,336,255,198,140,81,8],"timestamp_mouse":[10,24,44,63,84,103,123,143,163,182,204,224,243,263,282,302,323,342,364,383,403,422,442,462,483,502,523,543,564,583,604,623,642,662,682,703,722],"xSR":741.5,"ySR":469.95,"xT1":424.9,"yT1":0,"xT2":1058.1,"yT2":0,"toosoon":0,"cond_shown":"equaldotsize","ratio_trial":250,"smaller_num":"6","larger_num":"24","correct_side":1,"subjID":"9","gender":"1","age":"9","school":"4"},{"start_time":1552055361460,"click_time":1552055362546,"finger_time":1552055362086,"fix_duration":692.5243887859891,"trial":39,"RT":626,"MT":460,"sideResp":1,"stimulus":"img/250/equaldotsize/L/15_Ratio_250_L_12_R_3.png","xmouse":[811,811,811,811,811,811,811,811,811,811,809,808,808,808,808,808,807,807,807,806,806,804,801,799,797,795,790,780,771,758,742,726,691,661,643,628,614,597,592,589,585,582,566,556,551,546,540,526,519,511,500,491,476,472,468],"ymouse":[506,506,506,506,506,506,506,506,506,507,508,508,509,509,509,509,509,509,509,509,509,510,510,510,510,510,509,504,501,495,485,471,441,417,400,387,372,351,345,342,337,332,311,296,285,275,262,235,221,201,180,161,126,113,92],"timestamp_mouse":[10,31,46,66,86,106,127,147,165,186,205,227,246,265,285,306,326,346,365,386,405,426,446,466,485,507,526,545,565,586,606,626,646,665,686,705,725,746,765,787,806,826,846,865,886,906,926,945,965,986,1005,1027,1046,1065,1086],"xSR":741.5,"ySR":469.95,"xT1":424.9,"yT1":0,"xT2":1058.1,"yT2":0,"toosoon":0,"cond_shown":"equaldotsize","ratio_trial":250,"smaller_num":"3","larger_num":"12","correct_side":1,"subjID":"9","gender":"1","age":"9","school":"4"},{"start_time":1552055364722,"click_time":1552055365727,"finger_time":1552055365207,"fix_duration":1095.4334288777418,"trial":40,"RT":485,"MT":520,"sideResp":2,"stimulus":"img/250/equaldotanddens/R/6_Ratio_250_L_6_R_24.png","xmouse":[779,779,779,779,779,779,779,778,778,777,777,776,776,775,774,773,771,771,768,765,765,764,764,764,764,765,771,779,796,850,867,881,889,898,906,927,941,956,967,983,985,986,986,986,986,993,1003,1016,1027,1039,1063],"ymouse":[491,491,491,491,491,491,491,491,491,491,491,491,489,487,486,484,481,479,477,475,474,473,472,471,468,456,444,426,398,305,273,250,234,222,212,191,179,167,157,143,141,141,141,141,141,132,120,107,93,79,49],"timestamp_mouse":[10,32,45,63,84,104,123,145,165,184,204,223,244,263,284,305,324,343,365,385,404,423,445,465,485,504,524,544,563,585,603,624,644,664,685,703,724,744,765,784,803,823,844,865,885,904,925,944,964,984,1005],"xSR":741.5,"ySR":469.95,"xT1":424.9,"yT1":0,"xT2":1058.1,"yT2":0,"toosoon":0,"cond_shown":"equaldotanddens","ratio_trial":250,"smaller_num":"6","larger_num":"24","correct_side":2,"subjID":"9","gender":"1","age":"9","school":"4"},{"start_time":1552055370442,"click_time":1552055371926,"finger_time":1552055371345,"fix_duration":595.9115716519583,"trial":41,"RT":903,"MT":581,"sideResp":2,"stimulus":"img/750/randomdotsizeEA/L/8_Ratio_750_L_4_R_3.png","xmouse":[831,831,831,831,831,831,831,831,831,832,838,839,839,836,835,835,835,835,835,835,835,835,835,835,835,835,835,835,835,835,833,830,822,812,799,798,798,796,795,792,789,789,789,789,788,799,835,886,927,947,946,946,946,948,958,958,958,958,958,958,958,958,958,958,958,958,958,958,958,958,958,958,958,958,1069],"ymouse":[515,515,515,515,515,515,515,515,515,515,503,491,483,480,478,478,478,478,478,478,478,478,478,478,478,478,478,478,478,478,480,483,490,495,502,502,502,502,503,503,504,504,504,504,490,447,363,258,163,90,35,34,32,24,1,1,1,1,1,1,1,1,1,1,1,1,1,1,1,1,1,1,1,1,7],"timestamp_mouse":[11,29,44,64,84,104,125,144,165,183,204,228,245,264,285,305,325,343,365,384,405,424,443,465,484,504,523,545,565,584,605,623,645,664,683,704,725,743,764,784,804,825,844,863,883,903,924,944,964,984,1004,1024,1045,1064,1084,1105,1124,1144,1165,1184,1204,1224,1244,1264,1284,1305,1324,1345,1364,1384,1405,1424,1444,1464,1483],"xSR":741.5,"ySR":469.95,"xT1":424.9,"yT1":0,"xT2":1058.1,"yT2":0,"toosoon":0,"cond_shown":"randomdotsizeEA","ratio_trial":750,"smaller_num":"3","larger_num":"4","correct_side":1,"subjID":"9","gender":"1","age":"9","school":"4"},{"start_time":1552055377034,"click_time":1552055378326,"finger_time":1552055377645,"fix_duration":927.4214280928638,"trial":42,"RT":611,"MT":681,"sideResp":2,"stimulus":"img/500/equaldotsize/R/6_Ratio_500_L_9_R_18.png","xmouse":[778,778,778,778,778,778,778,778,778,778,778,778,778,778,778,778,778,778,778,778,778,778,778,778,778,778,778,778,781,788,808,822,836,852,867,890,900,905,906,908,911,913,915,918,923,937,950,962,974,986,1008,1020,1031,1042,1049,1056,1058,1058,1058,1058,1058,1058,1058,1058,1059],"ymouse":[491,491,491,491,491,491,491,491,491,491,491,491,491,491,491,491,491,491,491,491,491,491,491,491,491,491,491,491,485,476,452,437,420,400,375,326,285,267,253,244,233,226,222,217,210,195,186,177,168,161,142,132,122,113,107,98,97,96,96,96,96,96,96,96,95],"timestamp_mouse":[11,31,51,71,91,111,131,151,171,191,211,231,252,273,293,313,332,353,373,393,411,432,453,473,491,513,532,551,572,592,611,631,652,672,693,712,733,752,771,792,812,832,852,872,893,912,932,951,972,991,1011,1032,1052,1071,1092,1112,1132,1151,1171,1193,1213,1233,1252,1272,1291],"xSR":741.5,"ySR":469.95,"xT1":424.9,"yT1":0,"xT2":1058.1,"yT2":0,"toosoon":0,"cond_shown":"equaldotsize","ratio_trial":500,"smaller_num":"9","larger_num":"18","correct_side":2,"subjID":"9","gender":"1","age":"9","school":"4"},{"start_time":1552055379490,"click_time":1552055381127,"finger_time":1552055379785,"fix_duration":403.4086231584931,"trial":43,"RT":295,"MT":1342,"sideResp":2,"stimulus":"img/750/equaldotanddens/L/9_Ratio_750_L_4_R_3.png","xmouse":[809,809,814,815,815,815,815,815,815,815,816,818,824,835,845,853,855,855,855,856,857,858,857,845,834,827,819,809,783,768,753,739,709,674,648,637,633,624,620,617,610,605,608,627,653,714,782,922,978,1025,1048,1048,1048,1048,1048,1048,1048,1048,1048,1048,1048,1048,1048,1048,1048,1048,1048,1048,1048,1048,1048,1048,1048,1048,1048,1048,1048,1048,1048,1048,1097,1097],"ymouse":[524,524,517,517,516,516,516,516,516,516,516,516,517,526,535,541,542,542,542,540,535,527,501,478,466,459,454,450,440,437,435,433,433,426,421,420,419,410,403,398,395,390,375,359,343,311,261,121,73,32,5,5,5,5,5,5,5,5,5,5,5,5,5,5,5,5,5,5,5,5,5,5,5,5,5,5,5,5,5,5,0,2],"timestamp_mouse":[27,36,56,76,95,117,136,157,176,197,215,237,255,276,295,317,336,356,376,397,416,437,455,475,495,516,535,556,577,596,616,637,656,675,696,717,736,756,775,796,816,837,856,875,895,915,936,956,976,995,1016,1036,1055,1075,1095,1116,1136,1156,1177,1196,1216,1235,1256,1276,1295,1316,1336,1356,1376,1397,1416,1437,1455,1476,1495,1515,1537,1556,1576,1596,1616,1637],"xSR":741.5,"ySR":469.95,"xT1":424.9,"yT1":0,"xT2":1058.1,"yT2":0,"toosoon":0,"cond_shown":"equaldotanddens","ratio_trial":750,"smaller_num":"3","larger_num":"4","correct_side":1,"subjID":"9","gender":"1","age":"9","school":"4"},{"start_time":1552055383025,"click_time":1552055384767,"finger_time":1552055383367,"fix_duration":616.5834727981287,"trial":44,"RT":342,"MT":1400,"sideResp":2,"stimulus":"img/750/randomdotsizeEA/L/1_Ratio_750_L_20_R_15.png","xmouse":[822,822,822,822,822,820,818,816,816,816,815,814,813,812,812,811,809,808,807,807,807,807,807,807,807,807,807,807,807,807,807,807,807,807,807,807,807,807,807,807,807,807,807,807,807,802,799,789,784,778,771,761,745,740,720,711,684,658,650,646,643,643,642,648,657,711,847,915,915,915,915,915,915,915,915,915,915,915,915,915,915,915,915,915,915,915,915,1104],"ymouse":[536,536,536,536,533,530,525,520,517,516,514,507,503,498,492,488,475,469,466,465,465,465,465,465,465,465,465,465,465,465,465,465,465,465,465,465,465,465,465,465,465,465,465,465,465,451,439,413,403,390,376,361,338,332,316,310,288,251,236,225,218,216,205,189,178,136,58,10,10,10,10,10,10,10,10,10,10,10,10,10,10,10,10,10,10,10,10,43],"timestamp_mouse":[8,20,40,61,81,102,120,141,161,180,201,222,242,261,281,301,322,342,360,382,402,420,441,462,481,501,522,540,560,582,602,620,640,662,681,702,722,741,761,782,801,822,840,861,881,901,921,940,961,980,1001,1020,1040,1061,1081,1100,1120,1141,1161,1182,1200,1221,1240,1262,1281,1301,1323,1341,1362,1381,1401,1421,1441,1461,1481,1501,1522,1542,1561,1582,1601,1621,1641,1662,1681,1702,1720,1741],"xSR":741.5,"ySR":469.95,"xT1":424.9,"yT1":0,"xT2":1058.1,"yT2":0,"toosoon":0,"cond_shown":"randomdotsizeEA","ratio_trial":750,"smaller_num":"15","larger_num":"20","correct_side":1,"subjID":"9","gender":"1","age":"9","school":"4"},{"start_time":1552055387236,"click_time":1552055389385,"finger_time":1552055387785,"fix_duration":948.5121751285081,"trial":45,"RT":549,"MT":1600,"sideResp":2,"stimulus":"img/900/randomdotsizeEA/L/4_Ratio_900_L_20_R_18.png","xmouse":[811,811,811,811,811,811,811,811,811,811,811,811,811,811,811,811,811,811,811,811,811,811,811,811,811,811,832,860,872,872,873,873,873,873,873,873,873,873,873,873,873,871,870,869,869,869,866,864,863,861,861,861,861,861,861,861,861,861,861,861,861,855,846,840,838,837,837,837,837,840,861,926,953,953,953,953,953,953,953,953,953,953,953,953,953,953,953,953,953,953,953,953,953,953,953,953,953,953,953,953,953,953,953,953,953,953,953,1131],"ymouse":[549,549,549,549,549,549,549,549,549,549,549,549,549,549,549,549,549,549,549,549,549,549,549,549,549,549,562,581,585,585,577,559,556,556,556,556,556,556,556,556,556,552,532,521,510,506,498,494,490,487,487,487,487,487,487,487,487,487,487,487,487,504,523,538,542,543,543,537,517,445,346,124,30,30,30,30,30,30,30,30,30,30,30,30,30,30,30,30,30,30,30,30,30,30,30,30,30,30,30,30,30,30,30,30,30,30,30,1],"timestamp_mouse":[12,33,50,71,90,110,131,149,169,191,211,231,250,270,290,310,330,349,370,391,411,430,449,471,491,510,530,549,569,590,610,630,651,670,689,711,730,751,771,790,810,830,849,870,889,909,930,950,971,991,1010,1030,1050,1069,1090,1109,1131,1150,1171,1191,1210,1231,1250,1270,1291,1310,1330,1350,1371,1390,1411,1431,1450,1471,1490,1511,1530,1550,1570,1591,1611,1629,1650,1670,1691,1711,1730,1750,1770,1791,1810,1831,1851,1871,1890,1911,1931,1950,1970,1990,2011,2030,2050,2070,2090,2110,2131,2149],"xSR":741.5,"ySR":469.95,"xT1":424.9,"yT1":0,"xT2":1058.1,"yT2":0,"toosoon":0,"cond_shown":"randomdotsizeEA","ratio_trial":900,"smaller_num":"18","larger_num":"20","correct_side":1,"subjID":"9","gender":"1","age":"9","school":"4"},{"start_time":1552055391313,"click_time":1552055392545,"finger_time":1552055391925,"fix_duration":405.7657515684645,"trial":46,"RT":612,"MT":620,"sideResp":1,"stimulus":"img/250/equaldotsize/L/14_Ratio_250_L_12_R_3.png","xmouse":[792,793,794,795,795,796,796,796,796,796,796,796,796,796,796,796,800,801,802,802,802,802,804,813,814,815,815,815,804,798,792,786,761,742,719,684,613,499,428,417,415,415,420,426,428,433,443,453,498,561,595,595,595,595,595,595,595,595,595,595,595,522],"ymouse":[538,538,538,538,538,538,538,538,538,538,538,538,538,538,538,538,528,525,520,520,520,520,519,520,521,522,522,522,493,477,466,460,448,436,423,402,370,310,234,214,206,201,197,186,174,156,137,130,106,60,27,27,27,27,27,27,27,27,27,27,27,35],"timestamp_mouse":[12,33,52,73,93,114,133,154,174,193,213,233,253,274,294,313,334,352,372,392,414,432,453,472,493,514,533,553,573,592,612,633,654,672,692,713,734,754,773,793,814,833,854,873,893,912,933,953,973,993,1013,1033,1054,1074,1093,1113,1133,1153,1173,1193,1213,1232],"xSR":741.5,"ySR":469.95,"xT1":424.9,"yT1":0,"xT2":1058.1,"yT2":0,"toosoon":0,"cond_shown":"equaldotsize","ratio_trial":250,"smaller_num":"3","larger_num":"12","correct_side":1,"subjID":"9","gender":"1","age":"9","school":"4"},{"start_time":1552055394238,"click_time":1552055395385,"finger_time":1552055394586,"fix_duration":250,"trial":47,"RT":348,"MT":799,"sideResp":1,"stimulus":"img/250/randomdotsizeEA/L/14_Ratio_250_L_12_R_3.png","xmouse":[760,760,760,760,760,760,760,760,760,760,760,760,760,760,760,757,751,710,683,654,638,622,599,591,584,582,580,580,579,579,579,577,570,567,564,563,562,559,554,550,544,540,537,537,536,536,536,535,535,534,534,531,527,525,523,519,517,