[{"start_time":1552308657478,"click_time":1552308659901,"finger_time":1552308657520,"fix_duration":1014.0144059900078,"trial":0,"RT":42,"MT":2381,"sideResp":1,"stimulus":[],"xmouse":[804,808,810,811,812,812,812,812,812,812,812,812,812,812,812,812,812,812,812,812,812,812,812,812,812,812,812,812,812,813,811,811,809,805,805,805,805,805,805,805,805,805,805,805,805,805,805,805,805,805,805,805,805,805,805,805,805,805,805,805,805,805,805,805,805,805,805,805,805,805,805,805,805,805,805,805,805,805,805,805,805,805,805,805,805,805,805,805,805,806,807,807,807,807,807,807,807,807,807,791,752,731,728,728,721,711,708,708,708,684,650,604,580,580,503,483,477,477,486,515],"ymouse":[514,514,514,514,514,514,514,514,514,514,514,514,514,514,514,514,514,514,514,514,514,514,514,514,514,514,514,514,514,509,497,487,480,474,474,474,474,474,474,474,474,474,474,474,474,474,474,474,474,474,474,474,474,474,474,474,474,474,474,474,474,474,474,474,474,474,474,474,474,474,474,474,474,474,474,474,474,474,474,474,474,474,474,474,474,474,474,474,474,474,474,474,474,474,474,474,474,474,474,425,313,225,175,147,97,79,73,73,73,99,121,144,155,155,160,155,150,141,111,68],"timestamp_mouse":[42,63,82,102,122,142,163,182,203,223,242,263,282,303,322,342,363,383,403,422,442,463,482,503,522,542,562,583,602,623,643,662,682,703,723,742,762,783,803,822,842,862,883,902,922,943,963,983,1003,1022,1044,1064,1083,1103,1122,1142,1162,1183,1202,1223,1243,1263,1283,1303,1322,1343,1363,1383,1403,1423,1443,1463,1484,1503,1523,1543,1562,1583,1603,1623,1642,1662,1682,1702,1723,1743,1763,1782,1803,1823,1843,1863,1882,1902,1923,1943,1963,1982,2002,2022,2043,2062,2083,2103,2122,2143,2163,2183,2203,2222,2243,2262,2283,2302,2322,2342,2363,2383,2403,2422],"xSR":733.5,"ySR":493.35,"xT1":420.09999999999997,"yT1":0,"xT2":1046.8999999999999,"yT2":0,"toosoon":0,"cond_shown":"Incongruent","ratio_trial":300,"L_num":4,"L_den":20,"R_num":2,"R_den":4,"correct_side":2,"subjID":"alansamuelpirabantriana31","gender":"0","age":"9","school":"4","test":{"fix_dur":[250,1500],"timestim":1000,"targets_dim":[100,100],"targets_relative_coord":[0.3,0.7],"size_stim":[880,420],"start_dim":[100,100],"size_start":[300,300],"size_fix":60,"samplingrate":20,"img_types":["Congruent","Incongruent"],"ratios":[100,200,300],"rep_conds":19,"nTrials":120,"trials_to_rest":500,"Trials_order":[5,82,68,76,38,49,8,27,75,59,53,11,104,117,3,16,48,106,32,56,4,15,45,107,7,40,57,60,55,33,94,17,102,35,67,14,9,89,22,37,42,69,112,28,80,66,88,36,91,24,51,72,1,85,54,10,65,73,25,113,98,0,111,87,50,44,70,95,101,77,23,6,90,93,21,103,79,110,108,119,47,39,61,13,116,86,64,43,84,20,83,34,92,109,105,118,74,58,46,99,71,19,52,96,62,100,97,29,115,2,12,81,18,41,63,26,78,31,114,30],"cond_shown":["Incongruent","Congruent","Congruent","Congruent","Congruent","Incongruent","Congruent","Incongruent","Incongruent","Incongruent","Incongruent","Incongruent","Congruent","Incongruent","Incongruent","Congruent","Congruent","Congruent","Congruent","Congruent","Congruent","Incongruent","Incongruent","Incongruent","Incongruent","Congruent","Incongruent","Congruent","Incongruent","Incongruent","Congruent","Incongruent","Congruent","Incongruent","Incongruent","Congruent","Incongruent","Incongruent","Congruent","Incongruent","Congruent","Incongruent","Congruent","Congruent","Congruent","Congruent","Congruent","Congruent","Incongruent","Congruent","Incongruent","Congruent","Incongruent","Incongruent","Congruent","Congruent","Incongruent","Incongruent","Incongruent","Incongruent","Congruent","Congruent","Incongruent","Incongruent","Congruent","Congruent","Congruent","Incongruent","Incongruent","Incongruent","Incongruent","Congruent","Congruent","Incongruent","Incongruent","Incongruent","Incongruent","Congruent","Congruent","Incongruent","Incongruent","Incongruent","Incongruent","Incongruent","Congruent","Congruent","Congruent","Incongruent","Congruent","Congruent","Incongruent","Congruent","Congruent","Incongruent","Incongruent","Congruent","Congruent","Congruent","Congruent","Incongruent","Incongruent","Incongruent","Congruent","Congruent","Congruent","Congruent","Incongruent","Incongruent","Incongruent","Congruent","Congruent","Incongruent","Congruent","Incongruent","Incongruent","Congruent","Congruent","Incongruent","Congruent","Congruent"],"ratio_trial":[300,300,200,300,200,100,200,200,200,300,300,300,200,200,200,300,100,300,200,200,300,200,200,300,100,300,200,100,100,200,300,300,100,300,100,200,200,300,300,100,100,200,300,300,200,100,300,100,100,100,200,100,100,100,100,300,300,100,100,300,200,100,200,200,200,200,300,300,300,300,300,100,100,200,200,100,100,200,100,300,300,200,100,100,200,200,300,100,100,200,300,300,200,100,200,300,200,300,300,200,300,100,300,100,200,300,100,300,100,200,100,200,100,300,200,200,100,100,100,100],"left_num":[4,12,3,2,6,12,3,7,6,8,4,13,15,3,7,20,2,5,6,9,18,7,4,1,10,5,7,15,9,3,20,4,15,4,6,6,11,4,1,6,11,7,12,20,13,6,5,9,12,15,1,7,13,10,9,24,4,11,2,4,9,11,7,1,3,12,20,13,13,7,4,3,6,1,4,12,6,13,9,3,4,4,13,13,20,3,3,9,9,7,4,3,3,12,7,1,6,20,20,11,4,2,3,2,13,4,12,4,10,11,7,4,7,1,4,8,8,9,10,3],"right_num":[2,2,7,12,7,2,7,12,3,9,2,12,4,1,4,14,11,7,11,4,9,14,14,3,8,7,4,13,6,1,9,2,13,6,11,3,3,6,19,3,4,6,2,13,14,5,7,8,9,13,3,15,12,9,8,2,2,9,8,8,4,4,14,2,14,6,5,12,12,8,6,2,5,3,6,2,13,14,8,4,2,1,6,12,9,11,4,14,8,18,8,4,14,2,12,19,3,9,13,3,2,8,2,11,14,13,2,2,8,3,15,14,15,2,14,3,2,13,3,4],"left_den":[20,24,10,10,12,30,10,10,20,10,20,26,25,10,15,25,5,25,20,20,20,10,6,2,25,25,15,25,18,10,25,20,25,5,10,15,20,5,3,12,22,15,24,25,26,20,25,15,24,25,2,14,26,25,15,30,20,22,4,5,20,22,10,3,10,15,25,26,26,10,5,6,20,2,5,30,10,26,15,6,20,30,26,26,25,10,6,15,15,15,5,6,10,30,10,3,15,25,25,20,20,4,6,5,26,20,30,20,25,22,14,6,14,2,6,15,16,15,25,20],"right_den":[4,10,14,24,10,4,14,24,6,18,4,15,10,2,6,28,22,14,22,16,15,28,30,15,16,14,6,26,10,2,18,4,26,12,22,15,4,12,30,5,10,9,10,26,20,25,14,16,15,26,10,25,20,18,16,4,4,15,20,16,16,10,28,15,28,10,10,15,15,20,12,5,25,10,10,4,26,20,16,20,4,3,10,20,15,22,5,28,16,27,16,5,28,4,24,30,15,18,26,4,4,20,10,22,20,26,4,4,16,10,25,30,25,10,30,9,5,26,10,16],"correct_side":[2,1,2,2,2,2,2,1,2,1,2,2,1,2,2,1,2,2,2,1,1,1,1,1,2,2,2,1,2,2,1,2,1,1,1,1,2,1,2,2,1,2,1,1,2,1,2,1,2,1,1,2,2,2,1,1,2,2,1,1,1,1,1,1,2,1,1,2,2,1,1,1,1,1,1,2,1,2,1,1,2,2,2,2,1,2,2,1,1,2,1,2,2,2,1,2,1,1,1,2,2,1,1,2,2,2,2,2,2,1,2,1,2,1,1,1,1,1,1,2],"img_shown":["img2/300/Incongruent/R/I_Dist_300_LN_4_LD_20_RN_2_RD_4_1.png","img2/300/Congruent/L/C_Dist_300_LN_12_LD_24_RN_2_RD_10_0.png","img2/200/Congruent/R/C_Dist_200_LN_3_LD_10_RN_7_RD_14_1.png","img2/300/Congruent/R/C_Dist_300_LN_2_LD_10_RN_12_RD_24_1.png","img2/200/Congruent/R/C_Dist_200_LN_6_LD_12_RN_7_RD_10_1.png","img2/100/Incongruent/R/I_Dist_100_LN_12_LD_30_RN_2_RD_4_1.png","img2/200/Congruent/R/C_Dist_200_LN_3_LD_10_RN_7_RD_14_1.png","img2/200/Incongruent/L/I_Dist_200_LN_7_LD_10_RN_12_RD_24_0.png","img2/200/Incongruent/R/I_Dist_200_LN_6_LD_20_RN_3_RD_6_1.png","img2/300/Incongruent/L/I_Dist_300_LN_8_LD_10_RN_9_RD_18_0.png","img2/300/Incongruent/R/I_Dist_300_LN_4_LD_20_RN_2_RD_4_1.png","img2/300/Incongruent/R/I_Dist_300_LN_13_LD_26_RN_12_RD_15_1.png","img2/200/Congruent/L/C_Dist_200_LN_15_LD_25_RN_4_RD_10_0.png","img2/200/Incongruent/R/I_Dist_200_LN_3_LD_10_RN_1_RD_2_1.png","img2/200/Incongruent/R/I_Dist_200_LN_7_LD_15_RN_4_RD_6_1.png","img2/300/Congruent/L/C_Dist_300_LN_20_LD_25_RN_14_RD_28_0.png","img2/100/Congruent/R/C_Dist_100_LN_2_LD_5_RN_11_RD_22_1.png","img2/300/Congruent/R/C_Dist_300_LN_5_LD_25_RN_7_RD_14_1.png","img2/200/Congruent/R/C_Dist_200_LN_6_LD_20_RN_11_RD_22_1.png","img2/200/Congruent/L/C_Dist_200_LN_9_LD_20_RN_4_RD_16_0.png","img2/300/Congruent/L/C_Dist_300_LN_18_LD_20_RN_9_RD_15_0.png","img2/200/Incongruent/L/I_Dist_200_LN_7_LD_10_RN_14_RD_28_0.png","img2/200/Incongruent/L/I_Dist_200_LN_4_LD_6_RN_14_RD_30_0.png","img2/300/Incongruent/L/I_Dist_300_LN_1_LD_2_RN_3_RD_15_0.png","img2/100/Incongruent/R/I_Dist_100_LN_10_LD_25_RN_8_RD_16_1.png","img2/300/Congruent/R/C_Dist_300_LN_5_LD_25_RN_7_RD_14_1.png","img2/200/Incongruent/R/I_Dist_200_LN_7_LD_15_RN_4_RD_6_1.png","img2/100/Congruent/L/C_Dist_100_LN_15_LD_25_RN_13_RD_26_0.png","img2/100/Incongruent/R/I_Dist_100_LN_9_LD_18_RN_6_RD_10_1.png","img2/200/Incongruent/R/I_Dist_200_LN_3_LD_10_RN_1_RD_2_1.png","img2/300/Congruent/L/C_Dist_300_LN_20_LD_25_RN_9_RD_18_0.png","img2/300/Incongruent/R/I_Dist_300_LN_4_LD_20_RN_2_RD_4_1.png","img2/100/Congruent/L/C_Dist_100_LN_15_LD_25_RN_13_RD_26_0.png","img2/300/Incongruent/L/I_Dist_300_LN_4_LD_5_RN_6_RD_12_0.png","img2/100/Incongruent/L/I_Dist_100_LN_6_LD_10_RN_11_RD_22_0.png","img2/200/Congruent/L/C_Dist_200_LN_6_LD_15_RN_3_RD_15_0.png","img2/200/Incongruent/R/I_Dist_200_LN_11_LD_20_RN_3_RD_4_1.png","img2/300/Incongruent/L/I_Dist_300_LN_4_LD_5_RN_6_RD_12_0.png","img2/300/Congruent/R/C_Dist_300_LN_1_LD_3_RN_19_RD_30_1.png","img2/100/Incongruent/R/I_Dist_100_LN_6_LD_12_RN_3_RD_5_1.png","img2/100/Congruent/L/C_Dist_100_LN_11_LD_22_RN_4_RD_10_0.png","img2/200/Incongruent/R/I_Dist_200_LN_7_LD_15_RN_6_RD_9_1.png","img2/300/Congruent/L/C_Dist_300_LN_12_LD_24_RN_2_RD_10_0.png","img2/300/Congruent/L/C_Dist_300_LN_20_LD_25_RN_13_RD_26_0.png","img2/200/Congruent/R/C_Dist_200_LN_13_LD_26_RN_14_RD_20_1.png","img2/100/Congruent/L/C_Dist_100_LN_6_LD_20_RN_5_RD_25_0.png","img2/300/Congruent/R/C_Dist_300_LN_5_LD_25_RN_7_RD_14_1.png","img2/100/Congruent/L/C_Dist_100_LN_9_LD_15_RN_8_RD_16_0.png","img2/100/Incongruent/R/I_Dist_100_LN_12_LD_24_RN_9_RD_15_1.png","img2/100/Congruent/L/C_Dist_100_LN_15_LD_25_RN_13_RD_26_0.png","img2/200/Incongruent/L/I_Dist_200_LN_1_LD_2_RN_3_RD_10_0.png","img2/100/Congruent/R/C_Dist_100_LN_7_LD_14_RN_15_RD_25_1.png","img2/100/Incongruent/R/I_Dist_100_LN_13_LD_26_RN_12_RD_20_1.png","img2/100/Incongruent/R/I_Dist_100_LN_10_LD_25_RN_9_RD_18_1.png","img2/100/Congruent/L/C_Dist_100_LN_9_LD_15_RN_8_RD_16_0.png","img2/300/Congruent/L/C_Dist_300_LN_24_LD_30_RN_2_RD_4_0.png","img2/300/Incongruent/R/I_Dist_300_LN_4_LD_20_RN_2_RD_4_1.png","img2/100/Incongruent/R/I_Dist_100_LN_11_LD_22_RN_9_RD_15_1.png","img2/100/Incongruent/L/I_Dist_100_LN_2_LD_4_RN_8_RD_20_0.png","img2/300/Incongruent/L/I_Dist_300_LN_4_LD_5_RN_8_RD_16_0.png","img2/200/Congruent/L/C_Dist_200_LN_9_LD_20_RN_4_RD_16_0.png","img2/100/Congruent/L/C_Dist_100_LN_11_LD_22_RN_4_RD_10_0.png","img2/200/Incongruent/L/I_Dist_200_LN_7_LD_10_RN_14_RD_28_0.png","img2/200/Incongruent/L/I_Dist_200_LN_1_LD_3_RN_2_RD_15_0.png","img2/200/Congruent/R/C_Dist_200_LN_3_LD_10_RN_14_RD_28_1.png","img2/200/Congruent/L/C_Dist_200_LN_12_LD_15_RN_6_RD_10_0.png","img2/300/Congruent/L/C_Dist_300_LN_20_LD_25_RN_5_RD_10_0.png","img2/300/Incongruent/R/I_Dist_300_LN_13_LD_26_RN_12_RD_15_1.png","img2/300/Incongruent/R/I_Dist_300_LN_13_LD_26_RN_12_RD_15_1.png","img2/300/Incongruent/L/I_Dist_300_LN_7_LD_10_RN_8_RD_20_0.png","img2/300/Incongruent/L/I_Dist_300_LN_4_LD_5_RN_6_RD_12_0.png","img2/100/Congruent/L/C_Dist_100_LN_3_LD_6_RN_2_RD_5_0.png","img2/100/Congruent/L/C_Dist_100_LN_6_LD_20_RN_5_RD_25_0.png","img2/200/Incongruent/L/I_Dist_200_LN_1_LD_2_RN_3_RD_10_0.png","img2/200/Incongruent/L/I_Dist_200_LN_4_LD_5_RN_6_RD_10_0.png","img2/100/Incongruent/R/I_Dist_100_LN_12_LD_30_RN_2_RD_4_1.png","img2/100/Incongruent/L/I_Dist_100_LN_6_LD_10_RN_13_RD_26_0.png","img2/200/Congruent/R/C_Dist_200_LN_13_LD_26_RN_14_RD_20_1.png","img2/100/Congruent/L/C_Dist_100_LN_9_LD_15_RN_8_RD_16_0.png","img2/300/Incongruent/L/I_Dist_300_LN_3_LD_6_RN_4_RD_20_0.png","img2/300/Incongruent/R/I_Dist_300_LN_4_LD_20_RN_2_RD_4_1.png","img2/200/Incongruent/R/I_Dist_200_LN_4_LD_30_RN_1_RD_3_1.png","img2/100/Incongruent/R/I_Dist_100_LN_13_LD_26_RN_6_RD_10_1.png","img2/100/Incongruent/R/I_Dist_100_LN_13_LD_26_RN_12_RD_20_1.png","img2/200/Congruent/L/C_Dist_200_LN_20_LD_25_RN_9_RD_15_0.png","img2/200/Congruent/R/C_Dist_200_LN_3_LD_10_RN_11_RD_22_1.png","img2/300/Congruent/R/C_Dist_300_LN_3_LD_6_RN_4_RD_5_1.png","img2/100/Incongruent/L/I_Dist_100_LN_9_LD_15_RN_14_RD_28_0.png","img2/100/Congruent/L/C_Dist_100_LN_9_LD_15_RN_8_RD_16_0.png","img2/200/Congruent/R/C_Dist_200_LN_7_LD_15_RN_18_RD_27_1.png","img2/300/Incongruent/L/I_Dist_300_LN_4_LD_5_RN_8_RD_16_0.png","img2/300/Congruent/R/C_Dist_300_LN_3_LD_6_RN_4_RD_5_1.png","img2/200/Congruent/R/C_Dist_200_LN_3_LD_10_RN_14_RD_28_1.png","img2/100/Incongruent/R/I_Dist_100_LN_12_LD_30_RN_2_RD_4_1.png","img2/200/Incongruent/L/I_Dist_200_LN_7_LD_10_RN_12_RD_24_0.png","img2/300/Congruent/R/C_Dist_300_LN_1_LD_3_RN_19_RD_30_1.png","img2/200/Congruent/L/C_Dist_200_LN_6_LD_15_RN_3_RD_15_0.png","img2/300/Congruent/L/C_Dist_300_LN_20_LD_25_RN_9_RD_18_0.png","img2/300/Congruent/L/C_Dist_300_LN_20_LD_25_RN_13_RD_26_0.png","img2/200/Incongruent/R/I_Dist_200_LN_11_LD_20_RN_3_RD_4_1.png","img2/300/Incongruent/R/I_Dist_300_LN_4_LD_20_RN_2_RD_4_1.png","img2/100/Incongruent/L/I_Dist_100_LN_2_LD_4_RN_8_RD_20_0.png","img2/300/Congruent/L/C_Dist_300_LN_3_LD_6_RN_2_RD_10_0.png","img2/100/Congruent/R/C_Dist_100_LN_2_LD_5_RN_11_RD_22_1.png","img2/200/Congruent/R/C_Dist_200_LN_13_LD_26_RN_14_RD_20_1.png","img2/300/Congruent/R/C_Dist_300_LN_4_LD_20_RN_13_RD_26_1.png","img2/100/Incongruent/R/I_Dist_100_LN_12_LD_30_RN_2_RD_4_1.png","img2/300/Incongruent/R/I_Dist_300_LN_4_LD_20_RN_2_RD_4_1.png","img2/100/Incongruent/R/I_Dist_100_LN_10_LD_25_RN_8_RD_16_1.png","img2/200/Congruent/L/C_Dist_200_LN_11_LD_22_RN_3_RD_10_0.png","img2/100/Congruent/R/C_Dist_100_LN_7_LD_14_RN_15_RD_25_1.png","img2/200/Incongruent/L/I_Dist_200_LN_4_LD_6_RN_14_RD_30_0.png","img2/100/Congruent/R/C_Dist_100_LN_7_LD_14_RN_15_RD_25_1.png","img2/300/Incongruent/L/I_Dist_300_LN_1_LD_2_RN_2_RD_10_0.png","img2/200/Incongruent/L/I_Dist_200_LN_4_LD_6_RN_14_RD_30_0.png","img2/200/Congruent/L/C_Dist_200_LN_8_LD_15_RN_3_RD_9_0.png","img2/100/Congruent/L/C_Dist_100_LN_8_LD_16_RN_2_RD_5_0.png","img2/100/Incongruent/L/I_Dist_100_LN_9_LD_15_RN_13_RD_26_0.png","img2/100/Congruent/L/C_Dist_100_LN_10_LD_25_RN_3_RD_10_0.png","img2/100/Congruent/R/C_Dist_100_LN_3_LD_20_RN_4_RD_16_1.png"],"dist100_C":[["C_Dist_100_LN_10_LD_25_RN_3_RD_10_0.png","C_Dist_100_LN_11_LD_22_RN_4_RD_10_0.png","C_Dist_100_LN_11_LD_22_RN_6_RD_15_0.png","C_Dist_100_LN_15_LD_25_RN_13_RD_26_0.png","C_Dist_100_LN_3_LD_6_RN_2_RD_5_0.png","C_Dist_100_LN_6_LD_20_RN_5_RD_25_0.png","C_Dist_100_LN_8_LD_16_RN_2_RD_5_0.png","C_Dist_100_LN_9_LD_15_RN_8_RD_16_0.png"],["C_Dist_100_LN_1_LD_2_RN_18_RD_30_1.png","C_Dist_100_LN_1_LD_2_RN_3_RD_5_1.png","C_Dist_100_LN_12_LD_30_RN_13_RD_26_1.png","C_Dist_100_LN_2_LD_5_RN_11_RD_22_1.png","C_Dist_100_LN_2_LD_5_RN_6_RD_12_1.png","C_Dist_100_LN_3_LD_20_RN_4_RD_16_1.png","C_Dist_100_LN_4_LD_10_RN_15_RD_30_1.png","C_Dist_100_LN_4_LD_8_RN_6_RD_10_1.png","C_Dist_100_LN_6_LD_12_RN_15_RD_25_1.png","C_Dist_100_LN_7_LD_14_RN_15_RD_25_1.png","C_Dist_100_LN_7_LD_14_RN_9_RD_15_1.png"]],"dist100_I":[["I_Dist_100_LN_1_LD_2_RN_8_RD_20_0.png","I_Dist_100_LN_2_LD_4_RN_6_RD_15_0.png","I_Dist_100_LN_2_LD_4_RN_8_RD_20_0.png","I_Dist_100_LN_3_LD_5_RN_11_RD_22_0.png","I_Dist_100_LN_3_LD_5_RN_8_RD_16_0.png","I_Dist_100_LN_3_LD_6_RN_4_RD_10_0.png","I_Dist_100_LN_3_LD_9_RN_7_RD_30_0.png","I_Dist_100_LN_4_LD_8_RN_8_RD_20_0.png","I_Dist_100_LN_6_LD_10_RN_11_RD_22_0.png","I_Dist_100_LN_6_LD_10_RN_13_RD_26_0.png","I_Dist_100_LN_6_LD_10_RN_7_RD_14_0.png","I_Dist_100_LN_9_LD_10_RN_20_RD_25_0.png","I_Dist_100_LN_9_LD_15_RN_13_RD_26_0.png","I_Dist_100_LN_9_LD_15_RN_14_RD_28_0.png"],["I_Dist_100_LN_10_LD_25_RN_8_RD_16_1.png","I_Dist_100_LN_10_LD_25_RN_9_RD_18_1.png","I_Dist_100_LN_11_LD_22_RN_9_RD_15_1.png","I_Dist_100_LN_12_LD_24_RN_9_RD_15_1.png","I_Dist_100_LN_12_LD_30_RN_2_RD_4_1.png","I_Dist_100_LN_13_LD_26_RN_12_RD_20_1.png","I_Dist_100_LN_13_LD_26_RN_6_RD_10_1.png","I_Dist_100_LN_17_LD_30_RN_10_RD_15_1.png","I_Dist_100_LN_6_LD_12_RN_3_RD_5_1.png","I_Dist_100_LN_8_LD_16_RN_6_RD_10_1.png","I_Dist_100_LN_8_LD_20_RN_1_RD_2_1.png","I_Dist_100_LN_9_LD_18_RN_6_RD_10_1.png"]],"dist100_S":[["E_Dist_100_LN_2_LD_12_RN_2_RD_30_0.png","E_Dist_100_LN_6_LD_10_RN_6_RD_12_0.png"],["E_Dist_100_LN_6_LD_12_RN_6_RD_10_1.png"]],"dist200_C":[["C_Dist_200_LN_11_LD_22_RN_3_RD_10_0.png","C_Dist_200_LN_12_LD_15_RN_6_RD_10_0.png","C_Dist_200_LN_12_LD_20_RN_6_RD_15_0.png","C_Dist_200_LN_14_LD_28_RN_6_RD_20_0.png","C_Dist_200_LN_15_LD_25_RN_4_RD_10_0.png","C_Dist_200_LN_16_LD_20_RN_12_RD_20_0.png","C_Dist_200_LN_16_LD_30_RN_9_RD_27_0.png","C_Dist_200_LN_20_LD_25_RN_9_RD_15_0.png","C_Dist_200_LN_21_LD_30_RN_2_RD_4_0.png","C_Dist_200_LN_4_LD_10_RN_3_RD_15_0.png","C_Dist_200_LN_4_LD_8_RN_3_RD_10_0.png","C_Dist_200_LN_6_LD_15_RN_3_RD_15_0.png","C_Dist_200_LN_7_LD_21_RN_2_RD_15_0.png","C_Dist_200_LN_8_LD_15_RN_2_RD_6_0.png","C_Dist_200_LN_8_LD_15_RN_3_RD_9_0.png","C_Dist_200_LN_8_LD_15_RN_7_RD_21_0.png","C_Dist_200_LN_9_LD_20_RN_4_RD_16_0.png"],["C_Dist_200_LN_1_LD_2_RN_21_RD_30_1.png","C_Dist_200_LN_13_LD_26_RN_14_RD_20_1.png","C_Dist_200_LN_3_LD_10_RN_11_RD_22_1.png","C_Dist_200_LN_3_LD_10_RN_14_RD_28_1.png","C_Dist_200_LN_3_LD_10_RN_7_RD_14_1.png","C_Dist_200_LN_3_LD_12_RN_9_RD_20_1.png","C_Dist_200_LN_3_LD_6_RN_14_RD_20_1.png","C_Dist_200_LN_5_LD_10_RN_14_RD_20_1.png","C_Dist_200_LN_6_LD_12_RN_7_RD_10_1.png","C_Dist_200_LN_6_LD_20_RN_11_RD_22_1.png","C_Dist_200_LN_7_LD_15_RN_18_RD_27_1.png","C_Dist_200_LN_9_LD_30_RN_13_RD_26_1.png"]],"dist200_I":[["I_Dist_200_LN_1_LD_2_RN_3_RD_10_0.png","I_Dist_200_LN_1_LD_3_RN_2_RD_15_0.png","I_Dist_200_LN_3_LD_4_RN_11_RD_20_0.png","I_Dist_200_LN_4_LD_5_RN_6_RD_10_0.png","I_Dist_200_LN_4_LD_6_RN_14_RD_30_0.png","I_Dist_200_LN_7_LD_10_RN_12_RD_24_0.png","I_Dist_200_LN_7_LD_10_RN_14_RD_28_0.png","I_Dist_200_LN_7_LD_10_RN_8_RD_16_0.png"],["I_Dist_200_LN_11_LD_20_RN_3_RD_4_1.png","I_Dist_200_LN_14_LD_30_RN_12_RD_18_1.png","I_Dist_200_LN_14_LD_30_RN_6_RD_9_1.png","I_Dist_200_LN_3_LD_10_RN_1_RD_2_1.png","I_Dist_200_LN_4_LD_30_RN_1_RD_3_1.png","I_Dist_200_LN_6_LD_20_RN_3_RD_6_1.png","I_Dist_200_LN_7_LD_15_RN_4_RD_6_1.png","I_Dist_200_LN_7_LD_15_RN_6_RD_9_1.png","I_Dist_200_LN_9_LD_15_RN_8_RD_10_1.png"]],"dist200_S":[["E_Dist_200_LN_3_LD_6_RN_3_RD_10_0.png"],["E_Dist_200_LN_3_LD_10_RN_3_RD_6_1.png"]],"dist300_C":[["C_Dist_300_LN_11_LD_22_RN_1_RD_5_0.png","C_Dist_300_LN_11_LD_22_RN_2_RD_10_0.png","C_Dist_300_LN_11_LD_22_RN_4_RD_20_0.png","C_Dist_300_LN_12_LD_24_RN_2_RD_10_0.png","C_Dist_300_LN_18_LD_20_RN_9_RD_15_0.png","C_Dist_300_LN_20_LD_25_RN_13_RD_26_0.png","C_Dist_300_LN_20_LD_25_RN_14_RD_28_0.png","C_Dist_300_LN_20_LD_25_RN_5_RD_10_0.png","C_Dist_300_LN_20_LD_25_RN_8_RD_16_0.png","C_Dist_300_LN_20_LD_25_RN_9_RD_18_0.png","C_Dist_300_LN_24_LD_30_RN_2_RD_4_0.png","C_Dist_300_LN_24_LD_30_RN_8_RD_16_0.png","C_Dist_300_LN_3_LD_6_RN_2_RD_10_0.png","C_Dist_300_LN_4_LD_10_RN_1_RD_10_0.png","C_Dist_300_LN_4_LD_5_RN_2_RD_4_0.png","C_Dist_300_LN_8_LD_16_RN_1_RD_5_0.png","C_Dist_300_LN_9_LD_10_RN_3_RD_5_0.png"],["C_Dist_300_LN_1_LD_20_RN_7_RD_20_1.png","C_Dist_300_LN_1_LD_3_RN_19_RD_30_1.png","C_Dist_300_LN_1_LD_30_RN_8_RD_24_1.png","C_Dist_300_LN_1_LD_5_RN_11_RD_22_1.png","C_Dist_300_LN_1_LD_5_RN_3_RD_6_1.png","C_Dist_300_LN_1_LD_5_RN_6_RD_12_1.png","C_Dist_300_LN_2_LD_10_RN_12_RD_24_1.png","C_Dist_300_LN_2_LD_20_RN_10_RD_25_1.png","C_Dist_300_LN_3_LD_12_RN_11_RD_20_1.png","C_Dist_300_LN_3_LD_6_RN_4_RD_5_1.png","C_Dist_300_LN_4_LD_20_RN_13_RD_26_1.png","C_Dist_300_LN_5_LD_25_RN_6_RD_12_1.png","C_Dist_300_LN_5_LD_25_RN_7_RD_14_1.png","C_Dist_300_LN_7_LD_14_RN_20_RD_25_1.png","C_Dist_300_LN_8_LD_15_RN_10_RD_12_1.png"]],"dist300_I":[["I_Dist_300_LN_1_LD_2_RN_2_RD_10_0.png","I_Dist_300_LN_1_LD_2_RN_3_RD_15_0.png","I_Dist_300_LN_2_LD_4_RN_6_RD_30_0.png","I_Dist_300_LN_3_LD_6_RN_4_RD_20_0.png","I_Dist_300_LN_4_LD_5_RN_6_RD_12_0.png","I_Dist_300_LN_4_LD_5_RN_8_RD_16_0.png","I_Dist_300_LN_7_LD_10_RN_8_RD_20_0.png","I_Dist_300_LN_8_LD_10_RN_14_RD_28_0.png","I_Dist_300_LN_8_LD_10_RN_9_RD_18_0.png"],["I_Dist_300_LN_13_LD_26_RN_12_RD_15_1.png","I_Dist_300_LN_4_LD_20_RN_2_RD_4_1.png"]],"dist300_S":[["E_Dist_300_LN_9_LD_12_RN_9_RD_20_0.png"],["E_Dist_300_LN_18_LD_30_RN_18_RD_20_1.png","E_Dist_300_LN_3_LD_10_RN_3_RD_5_1.png","E_Dist_300_LN_9_LD_20_RN_9_RD_12_1.png"]],"dist500_C":[["C_Dist_500_LN_10_LD_13_RN_7_RD_26_0.png","C_Dist_500_LN_10_LD_15_RN_4_RD_24_0.png","C_Dist_500_LN_12_LD_16_RN_3_RD_12_0.png","C_Dist_500_LN_12_LD_18_RN_4_RD_24_0.png","C_Dist_500_LN_15_LD_18_RN_5_RD_15_0.png","C_Dist_500_LN_15_LD_20_RN_1_RD_4_0.png","C_Dist_500_LN_18_LD_27_RN_1_RD_6_0.png","C_Dist_500_LN_20_LD_24_RN_1_RD_3_0.png","C_Dist_500_LN_20_LD_24_RN_3_RD_9_0.png","C_Dist_500_LN_20_LD_24_RN_7_RD_21_0.png","C_Dist_500_LN_20_LD_28_RN_3_RD_14_0.png","C_Dist_500_LN_21_LD_28_RN_6_RD_24_0.png","C_Dist_500_LN_22_LD_28_RN_2_RD_7_0.png","C_Dist_500_LN_25_LD_30_RN_9_RD_27_0.png","C_Dist_500_LN_4_LD_6_RN_1_RD_6_0.png","C_Dist_500_LN_5_LD_6_RN_2_RD_6_0.png","C_Dist_500_LN_6_LD_9_RN_1_RD_6_0.png","C_Dist_500_LN_7_LD_10_RN_1_RD_5_0.png","C_Dist_500_LN_8_LD_12_RN_1_RD_6_0.png","C_Dist_500_LN_8_LD_12_RN_4_RD_24_0.png"],["C_Dist_500_LN_1_LD_4_RN_12_RD_16_1.png","C_Dist_500_LN_1_LD_4_RN_9_RD_12_1.png","C_Dist_500_LN_1_LD_9_RN_11_RD_18_1.png","C_Dist_500_LN_10_LD_24_RN_22_RD_24_1.png","C_Dist_500_LN_2_LD_12_RN_10_RD_15_1.png","C_Dist_500_LN_2_LD_12_RN_12_RD_18_1.png","C_Dist_500_LN_2_LD_12_RN_4_RD_6_1.png","C_Dist_500_LN_2_LD_24_RN_7_RD_12_1.png","C_Dist_500_LN_2_LD_5_RN_18_RD_20_1.png","C_Dist_500_LN_2_LD_5_RN_9_RD_10_1.png","C_Dist_500_LN_2_LD_8_RN_12_RD_16_1.png","C_Dist_500_LN_2_LD_8_RN_21_RD_28_1.png","C_Dist_500_LN_3_LD_10_RN_4_RD_5_1.png","C_Dist_500_LN_3_LD_12_RN_15_RD_20_1.png","C_Dist_500_LN_3_LD_30_RN_6_RD_10_1.png","C_Dist_500_LN_3_LD_8_RN_14_RD_16_1.png","C_Dist_500_LN_4_LD_16_RN_15_RD_20_1.png","C_Dist_500_LN_4_LD_24_RN_12_RD_18_1.png","C_Dist_500_LN_5_LD_14_RN_6_RD_7_1.png","C_Dist_500_LN_7_LD_21_RN_20_RD_24_1.png","C_Dist_500_LN_7_LD_28_RN_12_RD_16_1.png","C_Dist_500_LN_7_LD_28_RN_9_RD_12_1.png","C_Dist_500_LN_9_LD_27_RN_20_RD_24_1.png"]],"dist500_I":[["I_Dist_500_LN_2_LD_3_RN_4_RD_24_0.png","I_Dist_500_LN_5_LD_6_RN_6_RD_18_0.png","I_Dist_500_LN_7_LD_8_RN_9_RD_24_0.png"],["I_Dist_500_LN_7_LD_21_RN_5_RD_6_1.png"]],"dist500_S":[["E_Dist_500_LN_6_LD_8_RN_6_RD_24_0.png"],["E_Dist_500_LN_2_LD_12_RN_2_RD_3_1.png","E_Dist_500_LN_6_LD_24_RN_6_RD_8_1.png"]]}},{"start_time":1552308668601,"click_time":1552308675662,"finger_time":1552308670341,"fix_duration":837.9964142762597,"trial":1,"RT":1740,"MT":5321,"sideResp":2,"stimulus":[],"xmouse":[808,808,808,808,808,808,808,808,808,808,808,808,808,808,808,808,808,808,808,808,808,808,808,808,808,808,808,808,808,808,808,808,808,808,808,808,808,808,808,808,808,808,808,808,808,808,808,808,808,808,808,808,808,808,808,808,808,808,808,808,808,808,808,808,808,808,808,808,808,808,808,808,808,808,808,808,808,808,808,808,808,808,808,808,808,808,808,807,803,802,802,802,803,805,807,810,816,820,825,835,841,847,851,854,858,860,866,869,875,879,885,893,903,914,921,926,928,928,928,929,931,936,938,942,946,954,967,969,974,975,985,995,999,1004,1008,1009,1012,1014,1016,1018,1020,1024,1030,1032,1035,1037,1040,1044,1047,1051,1051,1051,1051,1053,1054,1056,1057,1057,1057,1057,1057,1057,1057,1057,1057,1057,1057,1057,1057,1058,1059,1061,1061,1061,1061,1061,1061,1061,1061,1061,1061,1061,1061,1061,1061,1061,1061,1061,1061,1061,1061,1061,1062,1062,1062,1062,1062,1062,1062,1062,1062,1062,1062,1062,1062,1062,1062,1062,1062,1062,1063,1065,1066,1067,1067,1068,1068,1069,1069,1069,1069,1070,1070,1070,1070,1070,1070,1070,1070,1070,1070,1070,1070,1070,1070,1070,1070,1070,1070,1070,1070,1070,1070,1070,1070,1070,1070,1070,1070,1070,1070,1070,1070,1070,1070,1070,1070,1070,1070,1070,1070,1070,1070,1070,1070,1070,1070,1070,1070,1070,1070,1070,1070,1070,1070,1070,1070,1070,1070,1070,1070,1070,1070,1070,1070,1070,1070,1070,1070,1070,1070,1070,1070,1070,1070,1070,1070,1070,1070,1070,1070,1072,1108,1163,1218,1245,1246,1221,1188,1165,1149,1142,1142,1142,1142,1142,1142,1142,1142,1142,1142,1142,1142,1142,1142,1142,1142,1142,1142,1142,1142,1142,1142,1142,1142,1142,1142,1137,1133,1130,1129,1128,1127,1127,1127,1127,1127,1127,1127,1127,1127,1127,1127,1126],"ymouse":[614,614,614,614,614,614,614,614,614,614,614,614,614,614,614,614,614,614,614,614,614,614,614,614,614,614,614,614,614,614,614,614,614,614,614,614,614,614,614,614,614,614,614,614,614,614,614,614,614,614,614,614,614,614,614,614,614,614,614,614,614,614,614,614,614,614,614,612,611,609,608,608,608,605,603,599,589,584,582,581,581,581,581,581,581,579,574,571,559,545,536,520,510,500,493,486,475,470,463,452,446,438,433,428,423,419,409,401,392,381,358,329,313,301,295,293,292,292,292,292,289,284,281,277,273,267,258,257,254,254,249,244,241,238,235,233,230,228,226,223,218,213,205,202,197,195,187,182,178,175,174,174,174,173,173,172,172,172,172,172,172,172,172,172,172,172,172,172,172,171,168,160,155,152,151,151,151,151,151,151,150,147,145,145,145,143,143,142,142,142,141,140,138,137,135,134,132,132,132,131,131,131,131,131,131,131,131,131,131,131,130,128,126,124,124,123,123,122,122,120,120,119,119,119,119,119,119,119,119,119,119,119,119,119,119,119,119,119,119,119,119,119,119,119,119,119,119,119,119,119,119,119,119,119,119,119,119,119,119,119,119,119,119,119,119,119,119,119,119,119,119,119,119,119,119,119,119,119,119,119,119,119,119,119,119,119,119,119,119,119,119,119,119,119,119,119,119,119,119,119,119,108,0,0,0,0,0,97,185,259,311,332,338,338,338,338,338,338,338,338,338,338,338,338,338,338,338,338,338,338,338,330,313,298,281,262,242,199,187,178,173,172,171,171,171,171,171,171,171,169,163,152,114,93],"timestamp_mouse":[11,28,49,59,80,99,120,139,160,179,200,219,239,259,280,299,319,340,360,379,400,420,440,460,480,501,520,540,560,580,600,620,641,660,680,699,720,739,759,779,800,821,839,860,879,900,920,939,959,980,999,1019,1039,1060,1079,1100,1120,1139,1159,1179,1200,1219,1240,1261,1281,1300,1320,1340,1360,1379,1399,1419,1439,1460,1480,1499,1519,1540,1559,1580,1599,1620,1640,1660,1680,1701,1719,1740,1760,1779,1799,1819,1840,1859,1880,1900,1919,1939,1960,1980,2000,2019,2040,2059,2079,2101,2119,2139,2160,2180,2199,2219,2240,2259,2280,2299,2320,2339,2359,2379,2399,2419,2439,2459,2480,2500,2519,2539,2559,2580,2600,2619,2639,2659,2680,2699,2719,2739,2759,2779,2800,2819,2840,2860,2880,2901,2920,2939,2960,2980,2999,3020,3040,3059,3080,3099,3120,3141,3160,3179,3199,3220,3240,3260,3279,3299,3320,3341,3361,3380,3399,3419,3439,3460,3480,3501,3520,3539,3559,3579,3599,3619,3639,3660,3680,3700,3719,3739,3759,3780,3799,3820,3839,3859,3880,3899,3919,3940,3959,3980,3999,4020,4040,4059,4079,4100,4120,4141,4159,4180,4199,4220,4239,4259,4280,4300,4320,4340,4359,4379,4399,4420,4440,4460,4479,4499,4520,4539,4560,4580,4600,4619,4640,4660,4679,4699,4719,4739,4759,4780,4801,4820,4839,4859,4879,4900,4920,4940,4959,4979,4999,5020,5039,5059,5079,5099,5119,5139,5159,5179,5200,5220,5239,5259,5279,5299,5320,5339,5359,5380,5400,5419,5440,5459,5479,5501,5519,5539,5559,5580,5599,5620,5639,5661,5680,5700,5720,5739,5760,5781,5799,5820,5839,5859,5879,5900,5920,5939,5960,5979,5999,6019,6040,6059,6080,6099,6119,6139,6159,6180,6199,6221,6240,6260,6279,6299,6320,6339,6359,6379,6399,6419,6440,6459,6479,6499,6519,6539,6560,6580,6600,6619,6642,6659,6679,6699,6719,6740,6760,6779,6800,6821,6839,6860,6879,6899,6921,6939,6959,6980,7000,7019,7039,7060],"xSR":741.5,"ySR":573.95,"xT1":424.9,"yT1":0,"xT2":1058.1,"yT2":0,"toosoon":0,"cond_shown":"Congruent","ratio_trial":300,"L_num":12,"L_den":24,"R_num":2,"R_den":10,"correct_side":1,"subjID":"alansamuelpirabantriana31","gender":"0","school":"4","age":"9"},{"start_time":1552308688110,"click_time":1552308690780,"finger_time":1552308689821,"fix_duration":949.9816597685988,"trial":2,"RT":1711,"MT":959,"sideResp":2,"stimulus":[],"xmouse":[807,806,804,804,804,804,804,804,804,804,804,804,804,804,804,804,804,804,804,804,804,804,804,804,804,804,804,804,804,804,804,804,804,804,804,804,804,804,804,804,804,804,804,804,804,804,804,804,804,804,804,804,804,804,804,804,804,804,804,804,804,804,804,804,804,804,804,804,804,804,804,805,805,805,805,805,805,805,805,805,805,809,813,825,832,843,850,857,869,880,892,906,942,971,986,1002,1017,1038,1045,1050,1053,1055,1055,1055,1055,1054,1054,1052,1052,1051,1051,1051,1051,1051,1051,1054,1056,1059,1060,1060,1060,1060,1060,1060,1060,1060,1060,1061,1061,1062,1063,1065,1066,1074],"ymouse":[631,632,633,633,633,633,633,633,633,633,633,633,633,633,633,633,633,633,633,633,633,633,633,633,633,633,633,633,633,633,633,633,633,633,633,633,633,633,633,633,633,633,633,633,633,633,633,633,633,633,633,633,633,633,633,633,633,633,633,633,633,633,633,633,633,633,633,633,627,623,621,620,620,620,620,620,620,620,620,619,616,610,605,596,594,591,589,587,584,578,570,559,532,508,490,464,436,369,335,303,274,252,225,217,214,210,206,195,190,188,187,187,187,183,177,169,162,147,143,140,140,139,139,139,139,138,138,138,134,132,128,123,117,96],"timestamp_mouse":[10,30,51,70,90,111,131,150,170,190,211,230,252,270,291,311,331,352,370,390,410,430,450,471,490,511,530,551,571,590,610,631,650,670,690,710,730,751,771,791,811,831,852,871,891,911,931,951,971,990,1010,1031,1050,1070,1091,1111,1131,1151,1171,1190,1210,1231,1250,1271,1291,1311,1330,1351,1371,1390,1410,1430,1451,1471,1491,1511,1530,1550,1571,1590,1610,1632,1650,1670,1690,1711,1731,1751,1770,1791,1811,1830,1851,1870,1891,1910,1931,1951,1970,1990,2011,2030,2052,2070,2091,2111,2130,2151,2170,2190,2210,2230,2251,2270,2290,2312,2330,2351,2370,2390,2410,2431,2451,2471,2491,2510,2530,2550,2570,2590,2611,2630,2650,2670],"xSR":741.5,"ySR":573.95,"xT1":424.9,"yT1":0,"xT2":1058.1,"yT2":0,"toosoon":0,"cond_shown":"Congruent","ratio_trial":200,"L_num":3,"L_den":10,"R_num":7,"R_den":14,"correct_side":2,"subjID":"alansamuelpirabantriana31","gender":"0","school":"4","age":"9"},{"start_time":1552308693447,"click_time":1552308695620,"finger_time":1552308694820,"fix_duration":1463.5389146072962,"trial":3,"RT":1373,"MT":800,"sideResp":2,"stimulus":[],"xmouse":[805,805,805,805,805,805,805,805,805,805,805,805,805,805,805,805,805,805,805,805,805,805,805,805,805,805,805,805,805,805,805,805,805,805,805,805,805,805,805,805,805,805,805,805,805,805,805,805,805,805,805,805,805,805,805,805,805,805,805,805,805,805,805,805,805,805,807,810,815,818,822,827,829,831,833,845,867,874,879,880,880,880,882,883,887,904,965,1001,1018,1026,1030,1035,1039,1041,1046,1049,1050,1050,1050,1050,1050,1050,1051,1051,1051,1051,1055,1058,1062],"ymouse":[586,586,586,586,586,586,586,586,586,586,586,586,586,586,586,586,586,586,586,586,586,586,586,586,586,586,586,586,586,586,586,586,586,586,586,586,586,586,586,586,586,586,586,586,586,586,586,586,586,586,586,586,586,586,586,586,586,586,586,586,586,586,586,586,586,586,583,576,568,559,550,523,505,486,463,420,360,343,335,328,319,315,314,311,304,282,174,122,97,86,81,70,63,54,44,30,21,21,21,21,21,21,20,20,20,20,20,20,20],"timestamp_mouse":[17,44,53,74,95,114,134,154,173,194,214,233,253,273,293,314,334,354,374,395,413,433,454,474,493,514,533,553,574,594,613,633,654,674,693,713,735,753,774,793,813,833,854,873,893,913,933,953,973,994,1013,1034,1054,1073,1094,1114,1134,1153,1174,1194,1214,1233,1253,1273,1293,1313,1333,1354,1373,1393,1413,1433,1453,1473,1494,1514,1533,1553,1574,1593,1613,1633,1653,1673,1693,1714,1733,1753,1774,1794,1813,1833,1853,1874,1893,1914,1933,1954,1973,1994,2014,2033,2053,2074,2093,2114,2133,2153,2173],"xSR":741.5,"ySR":573.95,"xT1":424.9,"yT1":0,"xT2":1058.1,"yT2":0,"toosoon":0,"cond_shown":"Congruent","ratio_trial":300,"L_num":2,"L_den":10,"R_num":12,"R_den":24,"correct_side":2,"subjID":"alansamuelpirabantriana31","gender":"0","school":"4","age":"9"},{"start_time":1552308699636,"click_time":1552308704901,"finger_time":1552308701220,"fix_duration":373.9255770666538,"trial":4,"RT":1584,"MT":3681,"sideResp":2,"stimulus":[],"xmouse":[757,757,757,757,757,757,757,757,757,757,757,757,757,757,757,757,757,757,757,757,757,757,757,757,757,757,757,757,757,757,757,757,757,757,757,757,757,757,757,757,757,757,757,757,757,757,757,757,757,757,757,757,757,757,757,757,757,757,757,757,757,757,757,757,757,757,757,757,757,757,757,757,757,757,762,770,776,784,787,793,799,804,816,816,816,813,812,812,812,812,812,812,812,812,812,812,813,828,839,853,868,882,895,911,919,922,927,933,943,944,944,945,945,945,941,933,922,893,877,856,834,811,790,734,709,686,664,645,613,604,598,593,588,584,579,579,578,578,578,578,578,578,580,604,618,630,640,657,661,663,663,663,663,663,666,673,695,737,914,1016,1117,1190,1222,1231,1231,1231,1231,1231,1214,1169,1104,1022,941,856,855,855,855,855,855,855,854,854,852,847,842,835,829,827,827,827,827,830,836,840,840,840,840,840,840,840,840,836,830,815,809,804,798,791,781,772,766,758,749,716,704,695,687,684,685,699,745,854,1129,1481,1562,1570,1564,1469,1022,666,270,0,0,380,814,1291,1291,1291,1468,1131,646,56,0,174,174,286,306,298,0,0,0,1,45,45,45,44,41,34,46,253,382,832,1048,1114],"ymouse":[610,610,610,610,610,610,610,610,610,610,610,610,610,610,610,610,610,610,610,610,610,610,610,610,610,610,610,610,610,610,610,610,610,610,610,610,610,610,610,610,610,610,610,610,610,610,610,610,610,610,610,610,610,610,610,610,610,610,610,610,610,610,610,610,610,610,610,610,610,610,610,610,610,610,608,601,597,589,584,572,553,525,417,335,305,291,287,286,286,286,286,286,286,286,286,286,286,273,258,242,226,215,206,198,194,194,192,191,188,187,187,187,187,186,175,167,157,141,135,130,124,120,116,101,93,87,78,69,56,52,50,50,49,49,49,49,49,49,49,49,50,52,57,81,90,97,104,111,113,113,113,113,113,113,114,116,119,123,125,125,122,115,115,115,115,115,115,115,114,112,110,110,110,110,110,110,110,110,110,110,111,113,118,127,133,139,143,145,145,145,145,145,142,140,140,140,140,140,140,140,140,141,145,164,172,177,183,187,192,196,198,203,207,221,222,222,220,217,210,202,189,165,126,112,112,113,113,113,113,112,102,76,56,56,58,87,87,87,160,143,138,90,76,54,54,54,54,54,19,5,0,0,0,0,0,0,0,0,3,13,15,18,20,17],"timestamp_mouse":[9,25,45,65,86,105,125,145,165,184,204,224,245,265,284,304,325,345,366,385,405,425,445,464,485,504,524,544,564,585,605,625,644,664,685,705,725,745,764,785,805,825,845,864,884,905,925,944,964,985,1005,1024,1046,1064,1085,1104,1124,1145,1164,1184,1205,1226,1245,1265,1285,1305,1324,1345,1364,1384,1405,1426,1444,1464,1484,1504,1524,1545,1565,1584,1605,1625,1646,1664,1685,1704,1724,1744,1764,1784,1805,1824,1845,1864,1885,1905,1924,1950,1964,1985,2004,2024,2044,2064,2085,2104,2124,2144,2165,2184,2205,2225,2244,2265,2284,2304,2324,2345,2365,2385,2404,2425,2444,2464,2485,2505,2525,2545,2565,2584,2604,2624,2645,2665,2684,2705,2724,2745,2766,2784,2804,2824,2845,2864,2885,2904,2925,2945,2964,2984,3005,3025,3045,3065,3084,3104,3125,3144,3165,3184,3204,3224,3245,3264,3284,3304,3325,3344,3365,3385,3405,3425,3445,3465,3484,3504,3524,3545,3566,3584,3605,3625,3645,3664,3684,3705,3726,3745,3764,3784,3804,3824,3844,3865,3884,3904,3924,3946,3964,3985,4004,4025,4045,4064,4084,4104,4124,4145,4164,4184,4205,4224,4244,4264,4285,4304,4325,4344,4364,4384,4404,4425,4444,4464,4484,4505,4524,4544,4565,4585,4605,4624,4645,4664,4685,4704,4725,4744,4764,4784,4805,4824,4844,4864,4885,4905,4925,4945,4964,4986,5004,5024,5045,5064,5085,5105,5124,5145,5165,5184,5204,5225,5245,5264],"xSR":741.5,"ySR":573.95,"xT1":424.9,"yT1":0,"xT2":1058.1,"yT2":0,"toosoon":0,"cond_shown":"Congruent","ratio_trial":200,"L_num":6,"L_den":12,"R_num":7,"R_den":10,"correct_side":2,"subjID":"alansamuelpirabantriana31","gender":"0","school":"4","age":"9"},{"start_time":1552308717706,"click_time":1552308719821,"finger_time":1552308719041,"fix_duration":1363.4378639855763,"trial":5,"RT":1335,"MT":780,"sideResp":1,"stimulus":[],"xmouse":[765,765,765,765,765,765,765,765,765,765,765,765,765,765,765,765,765,765,765,765,765,765,765,765,765,765,765,765,765,765,765,765,765,765,765,765,765,765,765,765,765,765,765,765,765,765,765,765,765,765,765,765,765,765,765,765,765,765,765,765,765,761,757,754,751,747,738,735,734,733,733,733,733,733,733,732,726,721,714,708,703,687,680,675,669,664,649,636,617,604,597,587,584,580,575,570,564,562,561,558,551,540,535,530,525,521],"ymouse":[634,634,634,634,634,634,634,634,634,634,634,634,634,634,634,634,634,634,634,634,634,634,634,634,634,634,634,634,634,634,634,634,634,634,634,634,634,634,634,634,634,634,634,634,634,634,634,634,634,634,634,634,634,634,634,634,634,634,634,634,634,625,619,612,603,594,567,560,555,552,551,551,544,535,519,501,458,435,409,389,367,312,288,266,242,219,172,147,120,101,91,81,77,74,70,65,63,63,63,62,61,61,60,58,58,58],"timestamp_mouse":[14,37,55,74,94,115,135,155,174,194,215,235,254,274,294,315,335,354,375,394,415,434,454,474,494,515,534,554,574,594,614,635,653,674,695,715,734,755,774,794,815,834,854,874,895,915,934,954,975,995,1014,1034,1055,1073,1095,1114,1134,1154,1174,1194,1215,1234,1255,1274,1295,1315,1335,1355,1376,1395,1414,1435,1454,1474,1495,1515,1535,1554,1574,1594,1614,1634,1655,1674,1695,1714,1734,1754,1774,1794,1815,1834,1854,1874,1895,1914,1934,1955,1975,1995,2014,2034,2055,2074,2094,2115],"xSR":741.5,"ySR":573.95,"xT1":424.9,"yT1":0,"xT2":1058.1,"yT2":0,"toosoon":0,"cond_shown":"Incongruent","ratio_trial":100,"L_num":12,"L_den":30,"R_num":2,"R_den":4,"correct_side":2,"subjID":"alansamuelpirabantriana31","gender":"0","school":"4","age":"9"},{"start_time":1552308729222,"click_time":1552308730360,"finger_time":1552308729341,"fix_duration":519.1563181433949,"trial":6,"RT":119,"MT":1019,"sideResp":2,"stimulus":[],"xmouse":[784,784,784,784,783,783,783,783,783,783,783,783,783,783,783,783,783,783,783,783,783,783,783,783,783,783,783,783,783,783,783,783,783,783,783,783,787,791,796,802,827,864,876,890,901,909,918,922,927,938,944,979,996,1007,1027,1047,1075],"ymouse":[643,643,645,655,668,676,679,679,679,679,679,679,678,678,678,678,678,678,678,678,678,678,678,678,678,677,676,676,675,675,675,675,675,675,675,673,663,655,642,625,584,543,532,522,512,498,466,447,420,382,366,272,222,190,144,100,35],"timestamp_mouse":[19,39,58,78,99,119,139,158,178,198,219,239,258,279,299,319,339,359,378,399,418,438,459,478,499,518,537,559,578,598,618,638,659,678,699,719,738,759,778,799,819,838,859,878,899,918,938,958,979,999,1019,1038,1058,1078,1099,1118,1138],"xSR":741.5,"ySR":573.95,"xT1":424.9,"yT1":0,"xT2":1058.1,"yT2":0,"toosoon":0,"cond_shown":"Congruent","ratio_trial":200,"L_num":3,"L_den":10,"R_num":7,"R_den":14,"correct_side":2,"subjID":"alansamuelpirabantriana31","gender":"0","school":"4","age":"9"},{"start_time":1552308733298,"click_time":1552308735121,"finger_time":1552308734741,"fix_duration":1075.9039575061133,"trial":7,"RT":1443,"MT":380,"sideResp":2,"stimulus":[],"xmouse":[760,760,760,760,760,760,760,760,760,760,760,760,760,760,760,760,760,760,760,760,760,760,760,760,760,760,760,760,760,760,760,760,760,760,760,760,760,760,760,760,760,760,760,760,760,760,760,760,760,760,760,760,760,760,760,760,760,760,760,760,760,760,760,760,760,760,760,760,760,760,770,779,796,820,888,908,908,918,925,947,964,971,978,991,1012,1018,1021,1022,1025,1035,1046,1061],"ymouse":[604,604,604,604,604,604,604,604,604,604,604,604,604,604,604,604,604,604,604,604,604,604,604,604,604,604,604,604,604,604,604,604,604,604,604,604,604,604,604,604,604,604,604,604,604,604,604,604,604,604,604,604,604,604,604,604,604,604,604,604,604,604,604,604,604,604,604,604,604,604,599,590,569,536,419,379,379,331,261,132,67,52,28,0,0,0,0,0,0,0,2,11],"timestamp_mouse":[10,22,43,62,82,102,123,143,163,182,203,223,243,263,282,303,322,343,362,383,402,423,443,463,483,503,522,542,562,584,603,623,643,662,683,702,723,742,763,783,803,822,843,862,883,902,923,942,962,982,1002,1022,1042,1063,1082,1103,1122,1143,1163,1183,1202,1221,1241,1262,1283,1303,1322,1342,1362,1383,1403,1423,1443,1463,1483,1502,1522,1542,1562,1583,1603,1623,1642,1663,1683,1703,1723,1743,1762,1784,1803,1823],"xSR":741.5,"ySR":573.95,"xT1":424.9,"yT1":0,"xT2":1058.1,"yT2":0,"toosoon":0,"cond_shown":"Incongruent","ratio_trial":200,"L_num":7,"L_den":10,"R_num":12,"R_den":24,"correct_side":1,"subjID":"alansamuelpirabantriana31","gender":"0","school":"4","age":"9"},{"start_time":1552308739615,"click_time":1552308741700,"finger_time":1552308740981,"fix_duration":871.065881810121,"trial":8,"RT":1366,"MT":719,"sideResp":1,"stimulus":[],"xmouse":[791,791,791,791,791,791,791,791,791,791,791,791,791,791,791,791,791,791,791,791,791,791,791,791,791,791,791,791,791,791,791,791,791,791,791,791,791,791,791,791,791,791,791,791,791,791,791,791,791,791,791,791,791,791,791,791,791,791,791,791,791,791,791,791,791,791,791,790,783,779,776,768,756,732,722,722,722,709,675,675,675,652,636,605,598,594,594,591,589,583,582,581,579,574,570,566,562,558,549,545,543,540,538,525,520],"ymouse":[609,609,609,609,609,609,609,609,609,609,609,609,609,609,609,609,609,609,609,609,609,609,609,609,609,609,609,608,605,604,603,601,601,601,601,601,601,601,601,601,601,601,601,601,601,601,601,601,601,601,601,601,601,601,601,601,601,601,601,601,601,601,601,601,601,601,599,594,570,556,537,514,478,395,373,373,373,360,323,323,323,305,290,260,248,239,238,233,230,222,220,217,213,203,196,186,177,168,146,135,129,120,109,85,77],"timestamp_mouse":[9,41,44,65,85,106,125,146,166,186,205,226,246,266,285,323,325,345,366,386,405,426,446,466,486,505,525,545,565,586,606,625,646,666,685,706,725,746,766,786,805,825,845,866,885,906,926,946,966,984,1005,1025,1046,1066,1086,1106,1126,1145,1165,1186,1205,1224,1246,1265,1285,1305,1325,1344,1366,1385,1405,1426,1446,1466,1486,1505,1526,1545,1565,1584,1605,1626,1646,1666,1685,1706,1725,1745,1766,1786,1805,1826,1845,1865,1885,1905,1926,1945,1965,1985,2005,2025,2045,2066,2085],"xSR":741.5,"ySR":573.95,"xT1":424.9,"yT1":0,"xT2":1058.1,"yT2":0,"toosoon":0,"cond_shown":"Incongruent","ratio_trial":200,"L_num":6,"L_den":20,"R_num":3,"R_den":6,"correct_side":2,"subjID":"alansamuelpirabantriana31","gender":"0","school":"4","age":"9"},{"start_time":1552308747713,"click_time":1552308750141,"finger_time":1552308749660,"fix_duration":250,"trial":9,"RT":1947,"MT":481,"sideResp":1,"stimulus":[],"xmouse":[821,821,821,821,821,821,821,821,821,821,821,821,821,821,821,821,821,821,821,821,821,821,821,821,821,821,821,821,821,821,821,821,821,821,821,821,821,821,821,821,821,821,821,821,821,821,821,821,821,821,821,821,821,821,821,821,821,821,821,821,821,821,821,821,821,821,821,821,821,821,821,821,821,821,821,821,821,821,821,821,821,822,822,823,823,823,823,823,823,823,823,823,823,823,823,823,812,790,757,722,652,628,609,609,601,584,580,580,571,566,558,555,552,552,549,548,546,543,540,536,527,523],"ymouse":[649,649,649,649,649,649,649,649,649,649,649,649,649,649,649,649,649,649,649,649,649,649,649,649,649,649,649,649,649,649,648,647,647,647,647,647,647,647,647,647,647,647,647,647,647,647,647,647,647,647,647,647,647,647,647,647,647,647,647,647,647,647,647,647,647,647,647,646,645,644,643,642,642,642,642,642,642,642,642,642,642,641,641,640,640,640,640,640,640,640,640,640,640,639,628,628,599,559,505,453,359,328,308,308,299,278,270,267,252,236,207,199,189,181,168,155,146,133,123,112,87,73],"timestamp_mouse":[9,40,47,68,88,107,128,148,168,187,208,228,248,268,288,308,328,348,367,388,408,427,448,467,488,508,528,548,568,588,608,627,646,668,687,708,727,748,768,788,807,827,848,867,887,907,927,947,968,988,1007,1027,1048,1067,1087,1107,1127,1147,1167,1188,1207,1228,1248,1266,1287,1308,1328,1347,1367,1387,1408,1427,1448,1468,1488,1508,1528,1547,1568,1587,1608,1627,1646,1668,1687,1707,1727,1748,1767,1788,1808,1827,1848,1868,1888,1908,1927,1947,1967,1987,2007,2027,2047,2067,2088,2107,2127,2148,2168,2187,2208,2227,2248,2267,2287,2307,2327,2348,2368,2387,2408,2428],"xSR":741.5,"ySR":573.95,"xT1":424.9,"yT1":0,"xT2":1058.1,"yT2":0,"toosoon":0,"cond_shown":"Incongruent","ratio_trial":300,"L_num":8,"L_den":10,"R_num":9,"R_den":18,"correct_side":1,"subjID":"alansamuelpirabantriana31","gender":"0","school":"4","age":"9"},{"start_time":1552308758278,"click_time":1552308761121,"finger_time":1552308759881,"fix_duration":416.2744507944246,"trial":10,"RT":1603,"MT":1240,"sideResp":1,"stimulus":[],"xmouse":[798,798,798,798,798,798,798,798,798,798,798,798,798,798,798,798,798,798,798,798,798,798,798,798,798,798,798,798,798,798,798,798,798,798,798,798,798,798,798,798,798,798,798,798,798,798,798,798,798,798,798,798,798,798,798,798,798,798,798,798,798,798,798,798,798,798,798,798,798,798,798,798,798,798,798,798,798,798,798,798,796,792,786,775,769,751,740,729,704,690,674,666,666,666,660,650,643,642,642,636,629,625,609,591,586,586,577,567,557,557,556,553,546,545,545,545,544,542,534,530,526,525,524,524,524,524,523,522,522,522,522,522,522,522,522,520,517,516,516,516,516,516,516],"ymouse":[645,645,645,645,645,645,645,645,645,645,645,645,645,645,645,645,645,645,645,645,645,645,645,645,645,645,645,645,645,645,645,645,645,645,645,645,645,645,645,645,645,645,645,645,645,645,645,645,645,645,645,645,645,645,645,645,645,645,645,645,645,645,645,645,645,645,645,645,645,645,645,645,645,645,645,645,645,638,614,591,564,527,491,414,405,371,353,339,312,292,268,256,256,256,250,240,233,233,233,227,222,219,216,212,212,212,212,210,203,203,202,202,201,201,201,200,199,193,170,155,141,130,116,115,115,115,115,113,113,113,113,113,113,113,113,109,104,102,101,101,101,101,99],"timestamp_mouse":[12,22,42,62,83,103,122,143,163,183,203,223,243,263,283,302,322,343,363,383,402,423,443,462,482,503,523,542,563,581,603,621,643,663,683,703,723,743,762,782,803,823,843,863,882,903,923,943,963,982,1002,1023,1043,1062,1083,1103,1121,1143,1163,1182,1203,1222,1243,1262,1282,1303,1323,1343,1363,1383,1403,1423,1442,1462,1483,1503,1521,1543,1563,1583,1603,1622,1643,1662,1683,1703,1723,1742,1762,1782,1803,1823,1843,1863,1883,1902,1922,1943,1962,1982,2002,2023,2043,2062,2082,2102,2122,2143,2163,2182,2203,2222,2243,2262,2282,2302,2322,2342,2363,2382,2403,2423,2443,2462,2483,2503,2522,2543,2563,2583,2603,2623,2643,2662,2683,2703,2722,2742,2762,2782,2803,2822,2843],"xSR":741.5,"ySR":573.95,"xT1":424.9,"yT1":0,"xT2":1058.1,"yT2":0,"toosoon":0,"cond_shown":"Incongruent","ratio_trial":300,"L_num":4,"L_den":20,"R_num":2,"R_den":4,"correct_side":2,"subjID":"alansamuelpirabantriana31","gender":"0","school":"4","age":"9"},{"start_time":1552308767066,"click_time":1552308768960,"finger_time":1552308768461,"fix_duration":1424.6230437585177,"trial":11,"RT":1395,"MT":499,"sideResp":2,"stimulus":[],"xmouse":[789,789,789,789,789,789,789,789,789,789,789,789,789,789,789,789,789,789,789,789,789,789,789,789,789,789,789,789,789,789,789,789,789,789,789,789,789,789,789,789,789,789,789,789,789,789,789,789,789,789,789,789,789,789,789,789,789,789,789,789,789,789,789,789,789,789,789,795,811,822,833,833,833,847,893,926,957,977,988,990,991,992,994,995,998,999,999,999,999,999,999,1003,1011,1027,1065],"ymouse":[600,600,600,600,600,600,600,600,600,600,600,600,600,600,600,600,600,600,600,600,600,600,600,600,600,600,600,600,600,600,600,600,600,600,600,600,600,600,600,600,600,600,600,600,600,600,600,600,600,600,600,600,600,600,600,600,600,600,600,600,600,600,600,600,600,600,600,594,578,561,537,537,537,513,433,375,327,292,264,253,242,236,230,220,196,183,182,182,182,182,182,177,162,139,84],"timestamp_mouse":[14,39,55,74,95,115,135,155,174,194,214,234,255,275,295,314,335,355,375,395,415,435,454,474,494,516,535,555,575,594,615,635,655,675,695,714,734,754,774,795,815,835,854,875,894,915,934,955,975,994,1014,1034,1054,1075,1095,1115,1135,1154,1175,1194,1214,1235,1255,1275,1295,1315,1335,1354,1375,1394,1414,1434,1455,1474,1494,1514,1535,1554,1574,1593,1615,1634,1654,1674,1695,1715,1735,1754,1775,1794,1815,1834,1854,1874,1894],"xSR":741.5,"ySR":573.95,"xT1":424.9,"yT1":0,"xT2":1058.1,"yT2":0,"toosoon":0,"cond_shown":"Incongruent","ratio_trial":300,"L_num":13,"L_den":26,"R_num":12,"R_den":15,"correct_side":2,"subjID":"alansamuelpirabantriana31","gender":"0","school":"4","age":"9"},{"start_time":1552308770772,"click_time":1552308772221,"finger_time":1552308771361,"fix_duration":250,"trial":12,"RT":589,"MT":860,"sideResp":2,"stimulus":[],"xmouse":[831,831,831,831,831,831,831,831,831,831,831,831,831,831,831,831,831,831,831,831,831,830,830,830,830,830,830,828,827,816,805,792,774,748,747,747,747,739,731,720,718,717,717,717,717,717,717,718,728,739,761,784,821,859,859,867,902,922,936,964,969,973,974,977,992,998,1004,1010,1010,1010,1017,1039,1070],"ymouse":[587,587,587,587,587,587,587,587,587,587,587,587,587,587,587,587,587,587,587,587,587,587,586,585,585,585,585,579,575,547,518,482,432,346,344,344,344,315,286,255,250,249,249,249,249,249,252,256,270,277,288,297,305,308,308,308,286,270,257,223,207,193,186,177,148,137,130,123,122,122,115,93,64],"timestamp_mouse":[10,44,48,69,89,109,129,149,169,189,208,229,249,268,289,309,329,349,369,388,408,428,449,469,489,508,529,548,568,589,608,628,649,669,688,708,729,748,768,788,808,829,849,868,888,909,927,949,969,988,1008,1028,1048,1069,1088,1109,1129,1148,1168,1188,1209,1229,1249,1268,1289,1308,1328,1349,1368,1388,1409,1429,1449],"xSR":741.5,"ySR":573.95,"xT1":424.9,"yT1":0,"xT2":1058.1,"yT2":0,"toosoon":0,"cond_shown":"Congruent","ratio_trial":200,"L_num":15,"L_den":25,"R_num":4,"R_den":10,"correct_side":1,"subjID":"alansamuelpirabantriana31","gender":"0","school":"4","age":"9"},{"start_time":1552308787151,"click_time":1552308788581,"finger_time":1552308787780,"fix_duration":250,"trial":13,"RT":629,"MT":801,"sideResp":2,"stimulus":[],"xmouse":[817,817,817,817,817,817,816,814,813,813,812,812,812,812,812,812,811,811,811,811,811,811,811,811,810,810,810,810,810,810,812,818,836,843,851,856,863,870,871,872,872,872,872,872,873,876,878,889,896,900,906,910,911,911,912,916,921,930,933,939,947,961,996,1010,1020,1024,1027,1033,1037,1041,1048,1059],"ymouse":[621,621,621,621,621,619,618,612,611,610,609,609,609,609,608,607,604,603,603,603,603,603,603,603,602,600,598,589,585,582,577,568,546,538,530,521,510,499,496,493,492,492,492,490,488,477,473,414,389,365,332,297,217,185,164,153,144,136,135,130,123,111,83,71,62,59,58,57,55,54,51,48],"timestamp_mouse":[10,29,49,69,88,109,129,150,169,189,210,229,249,269,289,309,330,349,370,390,410,428,448,468,489,510,529,550,569,588,609,628,649,670,689,709,728,750,769,788,810,829,849,869,889,908,929,950,970,988,1010,1028,1049,1069,1089,1109,1129,1148,1169,1190,1210,1229,1248,1269,1289,1308,1328,1349,1369,1389,1409,1429],"xSR":741.5,"ySR":573.95,"xT1":424.9,"yT1":0,"xT2":1058.1,"yT2":0,"toosoon":0,"cond_shown":"Incongruent","ratio_trial":200,"L_num":3,"L_den":10,"R_num":1,"R_den":2,"correct_side":2,"subjID":"alansamuelpirabantriana31","gender":"0","school":"4","age":"9"},{"start_time":1552308847630,"click_time":1552308849639,"finger_time":1552308849059,"fix_duration":829.2969743357162,"trial":14,"RT":1429,"MT":580,"sideResp":2,"stimulus":[],"xmouse":[785,785,785,785,785,785,785,785,785,785,785,785,785,785,785,785,785,786,786,786,786,786,786,786,786,786,786,786,786,786,786,786,786,788,788,789,790,790,790,790,790,790,790,790,790,790,790,790,790,790,790,790,789,789,789,789,789,789,789,789,789,789,789,789,789,789,789,789,794,816,837,859,874,884,906,943,959,971,980,985,991,998,1004,1012,1018,1025,1025,1025,1026,1026,1025,1025,1027,1030,1033,1047,1053,1062,1071,1081,1100],"ymouse":[640,640,640,640,640,640,640,640,640,640,640,640,640,640,640,640,640,640,640,641,641,641,641,641,641,641,641,641,641,641,641,641,641,641,641,641,641,641,641,641,641,641,641,641,641,641,641,641,641,641,641,641,643,649,654,656,656,656,656,656,656,656,656,656,656,656,656,656,650,634,619,605,591,575,546,495,474,454,432,413,373,351,322,265,245,230,229,229,228,228,221,217,211,206,198,175,165,150,131,113,86],"timestamp_mouse":[10,38,50,70,90,110,130,151,169,190,210,231,250,270,290,309,331,350,370,390,410,431,449,469,489,511,530,551,569,590,610,630,650,671,690,709,729,750,770,789,811,829,849,869,889,911,929,950,970,991,1010,1029,1050,1069,1089,1109,1131,1150,1170,1190,1210,1230,1249,1270,1289,1311,1329,1350,1370,1390,1409,1429,1450,1469,1490,1510,1530,1550,1570,1590,1610,1630,1649,1670,1690,1710,1729,1750,1769,1790,1809,1830,1850,1870,1890,1909,1930,1951,1971,1990,2009],"xSR":741.5,"ySR":573.95,"xT1":424.9,"yT1":0,"xT2":1058.1,"yT2":0,"toosoon":0,"cond_shown":"Incongruent","ratio_trial":200,"L_num":7,"L_den":15,"R_num":4,"R_den":6,"correct_side":2,"subjID":"alansamuelpirabantriana31","gender":"0","school":"4","age":"9"},{"start_time":1552308854368,"click_time":1552308856600,"finger_time":1552308855860,"fix_duration":646.9361286973646,"trial":15,"RT":1492,"MT":740,"sideResp":2,"stimulus":[],"xmouse":[802,802,802,802,802,802,802,802,802,802,802,802,802,802,802,802,802,802,802,802,802,802,802,802,802,802,802,802,802,802,802,802,802,802,802,802,802,802,802,802,802,802,802,802,802,802,802,802,802,802,802,802,802,802,802,802,802,802,802,802,802,802,802,802,802,802,802,802,802,802,802,802,805,828,842,849,855,860,878,902,931,967,1012,1135,1223,1268,1289,1304,1321,1324,1324,1324,1323,1316,1310,1304,1298,1288,1271,1265,1261,1259,1258,1252,1236,1228,1221,1215,1196,1184,1169,1155],"ymouse":[610,610,610,610,610,610,610,610,610,610,610,610,610,610,610,610,610,610,610,610,610,610,610,610,610,610,610,610,610,610,610,610,610,610,610,610,610,610,610,610,610,610,610,610,610,610,610,610,610,610,610,610,610,610,610,610,610,610,610,610,610,610,610,610,610,610,610,610,610,610,610,610,610,604,596,591,586,579,564,554,542,522,498,424,372,337,317,296,268,259,253,248,243,232,219,204,190,168,121,100,85,80,79,81,86,87,87,86,80,74,67,59],"timestamp_mouse":[11,40,51,71,92,111,133,152,173,191,212,231,252,271,293,311,332,352,371,392,413,432,452,472,491,512,531,552,572,593,611,632,652,671,692,711,733,752,772,792,812,831,851,871,891,911,932,952,972,993,1011,1032,1051,1072,1092,1113,1132,1152,1172,1193,1211,1232,1252,1273,1291,1311,1333,1352,1372,1392,1413,1432,1451,1471,1492,1512,1532,1551,1572,1591,1612,1632,1652,1672,1691,1711,1731,1751,1771,1792,1812,1832,1851,1872,1891,1912,1932,1951,1972,1992,2012,2032,2051,2072,2091,2112,2132,2152,2172,2192,2211,2232],"xSR":741.5,"ySR":573.95,"xT1":424.9,"yT1":0,"xT2":1058.1,"yT2":0,"toosoon":0,"cond_shown":"Congruent","ratio_trial":300,"L_num":20,"L_den":25,"R_num":14,"R_den":28,"correct_side":1,"subjID":"alansamuelpirabantriana31","gender":"0","school":"4","age":"9"},{"start_time":1552308865525,"click_time":1552308867479,"finger_time":1552308866680,"fix_duration":1324.140338423923,"trial":16,"RT":1155,"MT":799,"sideResp":1,"stimulus":[],"xmouse":[797,797,797,797,797,797,797,797,797,797,797,797,797,797,797,797,797,797,797,797,797,797,797,797,797,797,797,797,797,797,797,797,797,797,797,797,797,797,797,797,797,797,797,797,797,797,797,797,797,797,797,797,797,791,785,778,771,757,752,747,744,740,730,727,721,715,705,699,696,692,689,687,686,686,684,678,668,635,616,599,578,571,548,544,541,541,541,541,541,541,541,541,538,534,530,522,518,505],"ymouse":[623,623,623,623,623,623,623,623,623,623,623,623,623,623,623,623,623,623,623,623,623,623,623,623,623,623,623,623,623,623,623,623,623,623,623,623,623,623,623,623,623,623,623,623,623,623,623,623,623,623,623,623,623,617,610,600,590,566,555,546,538,530,498,476,453,429,383,366,352,342,333,326,324,324,323,316,301,262,239,216,186,176,141,132,127,127,127,127,127,127,127,127,123,119,115,110,104,98],"timestamp_mouse":[14,44,55,75,95,115,135,155,174,196,214,235,254,274,294,316,336,355,374,396,414,434,455,474,495,514,536,554,575,595,616,634,654,674,696,714,734,755,776,794,815,834,854,874,894,915,936,954,974,994,1015,1035,1055,1075,1094,1114,1134,1155,1175,1195,1215,1235,1255,1274,1295,1314,1336,1354,1375,1394,1415,1434,1455,1476,1495,1515,1535,1555,1575,1595,1615,1634,1655,1674,1695,1716,1735,1755,1775,1794,1815,1835,1854,1874,1896,1915,1935,1954],"xSR":741.5,"ySR":573.95,"xT1":424.9,"yT1":0,"xT2":1058.1,"yT2":0,"toosoon":0,"cond_shown":"Congruent","ratio_trial":100,"L_num":2,"L_den":5,"R_num":11,"R_den":22,"correct_side":2,"subjID":"alansamuelpirabantriana31","gender":"0","school":"4","age":"9"},{"start_time":1552308875192,"click_time":1552308880160,"finger_time":1552308877040,"fix_duration":890.2831736608329,"trial":17,"RT":1848,"MT":3120,"sideResp":2,"stimulus":[],"xmouse":[758,758,758,758,758,758,758,758,758,758,758,758,758,758,758,758,758,758,758,758,758,758,758,758,758,758,758,758,758,758,758,758,758,758,758,758,758,758,758,758,758,758,758,758,758,758,758,758,758,758,758,758,758,758,758,758,758,758,758,758,758,758,758,758,758,758,758,758,758,758,758,758,758,758,758,758,758,758,758,758,758,758,758,758,758,758,758,758,760,761,770,779,790,804,822,850,861,874,885,895,907,910,912,913,916,923,929,937,947,958,985,999,1014,1022,1025,1026,1026,1026,1026,1026,1026,1026,1026,1026,1027,1030,1031,1033,1035,1040,1045,1045,1045,1045,1044,1039,1035,1032,1030,1027,1026,1025,1025,1025,1025,1025,1025,1025,1026,1027,1027,1027,1027,1027,1028,1030,1030,1030,1030,1030,1030,1030,1030,1030,1030,1028,1027,1027,1027,1027,1027,1027,1027,1027,1027,1027,1027,1027,1027,1027,1027,1027,1029,1032,1037,1042,1043,1044,1046,1048,1049,1049,1049,1047,1044,1042,1042,1042,1042,1042,1042,1039,1035,1032,1032,1031,1031,1031,1032,1032,1036,1041,1047,1049,1052,1052,1052,1053,1055,1059,1070,1076,1082,1085,1087,1088,1089,1089,1089,1089,1089,1089,1089,1089,1089,1089,1089,1089,1089,1089,1089,1089,1089,1089,1089,1089,1089,1090,1090],"ymouse":[603,603,603,603,603,603,603,603,603,603,603,603,603,603,603,603,603,603,603,603,603,603,603,603,603,603,603,603,603,603,603,603,603,603,603,603,603,603,603,603,603,603,603,603,603,603,603,603,603,603,603,603,603,603,603,603,603,603,603,603,603,603,603,603,603,603,603,603,603,603,603,603,603,603,603,603,603,603,603,603,603,603,603,603,603,603,603,603,600,598,588,581,573,564,550,531,523,512,502,492,477,473,469,465,461,452,446,437,426,412,366,347,335,328,318,304,302,300,300,300,300,300,300,299,298,289,285,282,276,266,255,252,250,247,244,238,235,230,226,220,211,206,204,201,200,196,191,185,177,170,158,154,152,149,147,139,137,135,135,135,135,135,133,130,128,119,117,116,116,116,116,116,116,116,116,116,116,116,116,116,116,116,116,117,118,119,120,120,121,121,122,122,123,126,126,127,127,127,127,127,128,129,132,135,136,137,137,137,137,137,136,134,130,129,128,128,128,127,127,126,121,116,112,109,106,105,104,104,104,104,104,104,104,104,104,104,104,104,104,104,104,104,104,104,104,104,102,101,99],"timestamp_mouse":[10,38,48,68,88,108,127,148,168,189,207,227,248,267,288,307,329,347,368,388,408,427,447,468,487,507,529,547,568,589,607,628,647,669,688,707,729,748,767,788,809,827,847,868,888,908,928,948,967,987,1007,1031,1048,1068,1087,1109,1127,1148,1169,1187,1208,1229,1248,1267,1287,1308,1329,1347,1368,1389,1409,1427,1448,1467,1488,1507,1527,1547,1567,1588,1608,1628,1649,1668,1687,1707,1728,1747,1768,1788,1808,1829,1848,1867,1888,1907,1928,1947,1968,1988,2007,2028,2048,2068,2087,2108,2128,2147,2168,2188,2207,2228,2248,2269,2288,2307,2328,2348,2367,2387,2407,2428,2447,2468,2488,2508,2528,2547,2568,2587,2608,2629,2647,2667,2688,2707,2727,2747,2769,2788,2808,2827,2847,2868,2888,2908,2928,2948,2968,2987,3008,3027,3048,3068,3087,3107,3128,3147,3168,3188,3208,3227,3247,3267,3287,3307,3328,3348,3369,3389,3408,3428,3448,3467,3488,3508,3529,3548,3567,3587,3609,3628,3648,3667,3688,3707,3728,3747,3768,3787,3807,3829,3848,3868,3888,3907,3927,3947,3968,3987,4007,4027,4048,4068,4088,4107,4128,4147,4167,4187,4208,4227,4247,4268,4289,4308,4328,4348,4367,4388,4408,4429,4448,4468,4488,4507,4527,4547,4567,4588,4607,4627,4648,4669,4687,4707,4727,4747,4769,4787,4807,4827,4848,4868,4887,4907,4928,4948,4968],"xSR":741.5,"ySR":573.95,"xT1":424.9,"yT1":0,"xT2":1058.1,"yT2":0,"toosoon":0,"cond_shown":"Congruent","ratio_trial":300,"L_num":5,"L_den":25,"R_num":7,"R_den":14,"correct_side":2,"subjID":"alansamuelpirabantriana31","gender":"0","school":"4","age":"9"},{"start_time":1552308882418,"click_time":1552308887619,"finger_time":1552308884400,"fix_duration":517.4156750531994,"trial":18,"RT":1982,"MT":3219,"sideResp":1,"stimulus":[],"xmouse":[779,778,778,778,778,778,778,778,778,778,778,778,778,778,778,778,778,778,778,778,778,778,778,778,778,778,778,778,778,778,778,778,778,778,778,778,778,778,778,778,778,778,778,778,778,778,778,778,778,778,778,778,778,778,778,778,778,778,778,778,778,778,778,778,778,778,778,778,778,778,778,778,778,778,778,778,778,778,778,778,778,778,778,778,778,778,778,778,778,778,778,778,778,778,778,778,775,772,768,763,749,747,745,745,745,745,745,743,742,739,736,735,732,728,710,698,686,670,647,643,636,636,635,635,635,635,635,635,635,635,635,633,631,630,629,628,628,628,627,626,623,621,620,618,617,616,616,616,614,609,606,606,606,605,604,601,597,593,584,579,573,572,571,569,560,554,547,541,537,537,537,534,528,519,515,515,515,515,515,515,515,515,515,515,515,515,515,515,515,515,515,515,515,515,514,514,514,514,514,514,514,514,514,514,514,514,515,515,515,515,515,515,515,515,515,513,508,506,505,504,503,503,503,503,503,503,503,503,503,503,503,503,503,503,503,503,503,503,503,503,503,503,503,503,503,503,503,503,503,503,503,503,503,503,503,503,503,503,503,503,503],"ymouse":[604,606,606,606,606,606,606,606,606,606,606,606,606,606,606,606,606,606,606,606,606,606,606,606,606,606,606,606,606,606,606,606,606,606,606,606,606,606,606,606,606,606,606,606,606,606,606,606,606,606,606,606,606,606,606,606,606,606,606,606,606,606,606,606,606,606,606,606,606,606,606,606,606,606,606,606,606,606,606,606,606,606,606,606,606,606,606,606,606,606,606,606,606,606,606,606,599,589,579,568,538,531,530,530,530,530,529,529,529,530,530,530,530,525,496,475,452,424,376,366,335,332,329,328,317,306,292,278,254,239,206,190,178,172,168,167,166,166,165,164,159,158,157,157,157,157,157,157,156,155,155,155,155,155,155,155,155,155,155,155,155,155,155,155,153,152,151,150,149,149,149,149,148,145,144,144,144,144,144,144,144,144,144,144,144,144,144,144,144,144,144,144,144,144,144,144,144,144,144,144,144,144,143,143,143,142,141,141,141,141,141,141,141,140,140,128,116,110,106,105,103,102,102,102,102,102,102,102,102,102,102,102,102,102,102,102,102,102,102,102,102,102,102,102,102,102,102,102,102,102,102,102,102,102,102,102,102,101,100,100,99],"timestamp_mouse":[1,23,53,61,83,101,121,143,161,182,202,223,242,261,282,303,322,341,362,383,402,422,442,461,482,502,521,541,561,582,601,622,641,663,682,701,723,742,762,783,802,822,841,861,883,902,922,942,961,981,1002,1021,1041,1061,1081,1101,1122,1142,1163,1182,1201,1221,1243,1261,1281,1301,1322,1342,1362,1381,1401,1421,1441,1463,1483,1502,1522,1541,1562,1583,1602,1623,1642,1662,1683,1702,1723,1742,1762,1782,1801,1822,1841,1862,1882,1901,1921,1941,1962,1982,2003,2021,2042,2062,2081,2101,2123,2142,2161,2182,2201,2221,2242,2261,2283,2302,2322,2342,2363,2381,2402,2422,2442,2462,2483,2502,2522,2541,2561,2582,2602,2622,2642,2661,2681,2702,2722,2742,2761,2782,2801,2822,2842,2862,2883,2901,2921,2941,2962,2982,3002,3023,3042,3062,3082,3102,3121,3141,3161,3181,3202,3222,3243,3263,3283,3302,3322,3342,3362,3381,3402,3422,3442,3461,3481,3503,3522,3541,3562,3582,3602,3623,3642,3661,3683,3701,3722,3741,3761,3782,3803,3822,3842,3862,3882,3903,3922,3942,3961,3983,4003,4022,4042,4062,4083,4102,4122,4143,4162,4182,4201,4222,4241,4262,4283,4302,4321,4341,4362,4381,4402,4422,4443,4462,4482,4501,4521,4542,4562,4581,4601,4621,4641,4662,4681,4701,4721,4742,4762,4781,4801,4822,4842,4861,4883,4902,4922,4941,4962,4982,5002,5021,5042,5062,5082,5101,5121,5142,5161,5181,5201],"xSR":741.5,"ySR":573.95,"xT1":424.9,"yT1":0,"xT2":1058.1,"yT2":0,"toosoon":0,"cond_shown":"Congruent","ratio_trial":200,"L_num":6,"L_den":20,"R_num":11,"R_den":22,"correct_side":2,"subjID":"alansamuelpirabantriana31","gender":"0","school":"4","age":"9"},{"start_time":1552308891877,"click_time":1552308898720,"finger_time":1552308892520,"fix_duration":874.2555416270675,"trial":19,"RT":643,"MT":6200,"sideResp":2,"stimulus":[],"xmouse":[812,812,812,812,812,812,812,812,812,812,812,812,812,812,812,812,812,812,812,812,812,812,812,812,812,812,812,812,812,815,816,821,825,827,828,828,828,828,828,828,828,828,828,828,828,828,828,828,828,828,828,828,828,828,828,828,828,828,828,828,828,828,828,828,828,828,827,817,793,781,770,762,759,756,757,767,773,777,793,817,841,852,853,848,841,832,814,749,722,710,707,707,708,764,774,774,747,707,429,283,210,216,342,945,1021,1021,981,877,745,714,735,838,923,927,828,730,512,427,550,787,1068,1307,1374,1300,1300,1300,1300,1287,1366,1490,1563,1571,1571,1524,1503,1499,1499,1533,1533,1533,1533,1533,1050,757,547,494,493,629,729,783,784,783,673,457,455,455,479,619,938,1002,1004,998,899,456,453,459,561,742,1028,1040,1037,942,726,456,508,727,1007,1249,1371,1307,1049,669,238,205,343,573,772,880,887,824,651,359,311,290,366,542,753,963,1100,1100,1100,1100,1100,1100,1100,1100,1100,1100,1091,1081,1069,1054,1039,1039,1053,1098,1171,1216,1216,1128,884,346,162,2,83,322,648,995,1412,1433,1430,1333,1265,790,563,451,443,482,933,1233,1395,1408,1309,677,361,231,253,447,1069,1325,1407,1386,1382,1252,1013,966,997,1206,1511,1511,1511,1470,1183,625,574,606,833,1205,1205,1205,1205,1319,923,98,0,1,156,464,1145,1249,1231,1003,288,0,0,19,202,466,1047,1267,1413,1482,1484,1484,1484,1484,1483,1474,1446,1433,1425,1424,1426,1454,1476,1505,1538,1558,1565,1565,1562,1548,1528,1504,1502,1501,1500,1500,1498,1497,1497,1497,1497,1494,1491,1489,1487,1483,1473,1466,1461,1454,1434,1406,1394,1385,1375,1363,1335,1292,1270,1203,1154],"ymouse":[583,583,583,583,583,583,583,583,583,583,583,583,583,583,583,583,583,583,583,583,583,583,583,583,583,583,583,583,583,580,578,574,570,568,567,567,567,567,567,567,567,567,567,567,567,567,567,567,567,567,567,567,567,567,567,567,567,567,567,567,567,567,567,567,567,567,567,567,567,567,568,571,572,587,603,624,634,639,640,636,622,612,611,607,604,600,594,577,574,574,575,577,579,585,585,585,585,585,601,601,601,601,597,594,602,602,602,605,604,598,598,598,601,605,607,608,608,603,603,603,604,636,672,680,680,680,680,679,679,679,684,686,686,685,684,683,683,672,672,672,672,672,661,659,635,621,620,582,565,556,556,555,565,597,597,598,599,599,601,606,606,609,632,677,677,676,655,631,593,591,590,581,574,543,518,454,406,381,381,386,416,426,402,385,358,353,353,359,362,370,396,398,398,395,386,375,375,373,371,371,371,371,371,371,371,371,371,375,389,404,417,435,450,453,453,448,426,413,413,423,474,568,587,597,576,525,472,429,384,383,382,402,425,505,516,512,509,501,432,409,406,406,435,545,561,561,564,577,575,568,566,570,572,576,603,610,610,588,536,536,536,528,590,672,678,678,677,675,675,675,675,789,850,846,816,812,750,698,652,652,658,704,746,740,738,737,720,720,694,671,654,654,654,654,654,654,654,654,648,641,634,622,614,587,577,570,565,563,562,562,562,556,546,529,523,518,518,517,514,511,510,510,509,506,503,501,500,497,491,488,485,481,470,451,441,432,417,398,352,272,237,125,37],"timestamp_mouse":[14,31,43,62,83,102,122,144,162,184,204,222,244,263,282,303,323,342,363,382,403,422,443,462,482,504,523,542,562,583,602,622,643,662,684,703,722,742,762,782,803,822,843,862,882,903,922,942,963,982,1003,1022,1044,1063,1083,1102,1124,1142,1163,1182,1203,1222,1244,1262,1282,1303,1322,1344,1362,1383,1403,1422,1443,1462,1483,1504,1522,1542,1562,1583,1603,1623,1644,1662,1683,1703,1722,1743,1762,1783,1803,1824,1843,1863,1883,1904,1923,1942,1962,1982,2003,2024,2044,2063,2083,2104,2123,2143,2162,2182,2202,2222,2242,2262,2282,2302,2324,2344,2362,2383,2404,2422,2444,2462,2483,2503,2523,2542,2562,2583,2602,2622,2643,2663,2682,2703,2722,2743,2764,2783,2802,2823,2843,2862,2882,2902,2923,2944,2963,2983,3002,3023,3043,3062,3082,3103,3123,3143,3163,3183,3203,3223,3242,3262,3283,3304,3322,3343,3363,3382,3403,3422,3442,3462,3482,3502,3522,3542,3563,3583,3602,3623,3643,3663,3682,3703,3722,3742,3763,3783,3804,3823,3842,3863,3883,3902,3922,3942,3963,3984,4003,4022,4043,4063,4082,4102,4123,4142,4162,4184,4203,4222,4242,4262,4284,4302,4322,4344,4362,4383,4403,4423,4443,4463,4483,4502,4524,4543,4562,4583,4603,4622,4642,4662,4683,4702,4722,4742,4762,4784,4804,4823,4842,4863,4883,4904,4923,4942,4962,4983,5002,5022,5044,5063,5082,5102,5124,5143,5162,5184,5203,5223,5243,5262,5283,5302,5323,5342,5362,5382,5402,5422,5443,5464,5483,5503,5523,5544,5562,5582,5603,5622,5642,5662,5683,5704,5722,5744,5762,5782,5803,5822,5843,5862,5883,5904,5923,5942,5963,5982,6002,6023,6043,6062,6082,6102,6122,6143,6162,6184,6203,6223,6242,6262,6282,6302,6323,6344,6362,6382,6402,6422,6444,6462,6483,6503,6523,6543,6563,6584,6603,6622,6642,6662,6683,6702,6722,6742,6763,6782,6802,6823,6843],"xSR":741.5,"ySR":573.95,"xT1":424.9,"yT1":0,"xT2":1058.1,"yT2":0,"toosoon":0,"cond_shown":"Congruent","ratio_trial":200,"L_num":9,"L_den":20,"R_num":4,"R_den":16,"correct_side":1,"subjID":"alansamuelpirabantriana31","gender":"0","school":"4","age":"9"},{"start_time":1552308901261,"click_time":1552308908160,"finger_time":1552308902280,"fix_duration":740.3999626276885,"trial":20,"RT":1019,"MT":5880,"sideResp":1,"stimulus":[],"xmouse":[784,784,784,784,784,784,784,784,784,784,784,784,784,784,784,784,784,784,784,784,784,784,784,784,784,784,784,785,785,786,786,787,787,787,787,788,788,788,788,788,788,786,785,784,783,783,783,783,783,783,783,782,772,760,748,748,748,748,748,750,750,750,750,750,767,779,789,794,803,816,819,820,815,807,792,788,782,759,733,678,666,657,648,643,641,639,633,615,602,591,588,587,586,586,585,584,581,575,570,560,559,557,557,557,557,556,556,556,555,555,555,555,555,555,555,555,555,555,555,555,555,555,555,555,555,554,554,553,550,540,538,537,537,536,536,536,536,536,536,531,528,525,525,525,525,525,525,525,525,525,525,525,526,526,527,527,527,527,527,527,527,527,527,527,527,527,527,527,527,527,527,527,527,527,527,527,527,527,527,527,527,527,527,527,527,527,527,527,527,527,527,527,527,527,527,527,527,527,527,527,527,527,527,526,526,525,525,525,525,525,525,525,525,525,525,525,525,525,525,525,525,525,524,524,524,524,524,524,524,524,524,524,524,524,524,524,524,524,524,524,524,524,524,524,524,524,524,524,524,524,524,524,524,524,524,524,524,524,524,524,524,524,524,524,524,524,524,524,524,524,524,524,524,524,524,524,524,524,524,524,524,524,524,524,524,524,524,524,524,524,524,524,524,524,524,524,524,524,524,524,524,524,524,524,524,524,524,524,524,524,524,524,524,524,524,524,524,524,524,524,524,524,524,524,524,524,524,524,524,524,524,524,524,524,524,524,524,524,524,524,524,524,524,524,523],"ymouse":[628,628,628,628,628,628,628,628,628,628,628,628,628,628,628,628,628,628,628,628,628,628,628,628,627,625,624,622,621,618,618,617,617,617,616,614,613,613,613,612,612,610,609,607,597,593,589,589,589,582,566,541,508,480,450,450,450,450,450,449,449,449,449,449,452,454,455,456,455,432,414,399,384,372,355,347,336,304,273,198,177,160,143,126,111,106,102,97,94,93,93,93,93,93,92,91,91,89,88,85,84,84,84,84,84,84,84,84,84,85,85,85,85,85,85,85,85,85,85,85,85,85,85,85,85,85,85,85,85,85,87,87,87,87,88,88,88,88,88,98,104,108,108,108,108,108,108,108,108,108,108,109,109,109,110,110,110,110,110,110,110,110,110,110,110,110,110,110,110,110,110,110,110,110,110,110,110,110,110,110,110,108,108,106,105,104,104,104,104,104,104,104,104,104,104,104,104,104,104,104,104,103,103,103,103,103,103,103,103,103,103,103,103,103,103,103,103,103,103,103,103,103,102,102,102,102,102,102,102,102,102,102,102,102,102,102,102,102,102,102,102,102,102,102,102,102,102,102,102,102,102,102,102,102,102,102,101,101,100,100,100,100,100,100,100,100,100,100,100,100,100,100,100,100,100,100,100,100,100,100,100,100,100,100,100,100,100,100,100,100,100,100,100,100,100,100,100,100,100,100,100,100,100,100,100,100,100,100,100,100,100,100,100,100,100,100,100,100,100,100,100,100,100,100,100,100,100,100,100,100,100,100,100,100,100,100,100,100,100,100,100,100,100,100,99],"timestamp_mouse":[19,40,58,78,99,118,138,160,178,199,220,238,258,279,298,320,340,360,379,399,418,438,459,479,499,518,539,559,580,598,618,640,659,679,699,719,739,759,780,800,819,838,859,878,899,919,938,959,978,998,1019,1038,1058,1078,1099,1119,1138,1159,1178,1198,1218,1238,1258,1278,1298,1319,1340,1359,1378,1398,1418,1439,1458,1480,1498,1520,1539,1558,1579,1598,1618,1639,1659,1679,1698,1719,1738,1759,1779,1799,1820,1839,1858,1878,1898,1918,1938,1960,1978,1998,2018,2038,2059,2080,2099,2118,2138,2158,2179,2198,2219,2239,2259,2278,2298,2319,2338,2359,2378,2399,2419,2439,2460,2479,2498,2519,2538,2559,2578,2598,2618,2638,2658,2680,2699,2719,2739,2759,2778,2798,2819,2838,2858,2878,2898,2919,2938,2959,2980,2999,3019,3038,3059,3079,3098,3119,3138,3159,3179,3199,3219,3239,3259,3279,3300,3318,3339,3358,3379,3399,3419,3439,3459,3479,3499,3519,3538,3559,3579,3599,3618,3638,3658,3678,3698,3718,3739,3759,3780,3799,3819,3839,3858,3879,3899,3919,3939,3958,3978,3998,4019,4040,4059,4078,4098,4118,4139,4160,4178,4198,4219,4239,4258,4279,4298,4319,4339,4360,4379,4398,4418,4439,4458,4478,4499,4520,4539,4559,4578,4600,4620,4639,4659,4678,4700,4720,4739,4759,4778,4798,4819,4838,4859,4879,4899,4919,4938,4958,4978,5000,5020,5039,5059,5079,5100,5119,5139,5159,5179,5198,5219,5239,5260,5278,5299,5318,5338,5360,5378,5399,5419,5438,5459,5478,5498,5519,5539,5559,5579,5599,5618,5639,5659,5678,5699,5718,5739,5759,5779,5799,5818,5839,5859,5878,5899,5918,5939,5958,5979,5999,6019,6038,6058,6079,6098,6119,6138,6158,6178,6199,6218,6239,6258,6278,6299,6319,6338,6358,6379,6398,6418,6438,6458,6479,6498,6518,6538,6559,6579,6599,6618,6638,6658,6679,6699,6718,6738,6759,6779,6799,6819,6838,6859,6878,6898],"xSR":741.5,"ySR":573.95,"xT1":424.9,"yT1":0,"xT2":1058.1,"yT2":0,"toosoon":0,"cond_shown":"Congruent","ratio_trial":300,"L_num":18,"L_den":20,"R_num":9,"R_den":15,"correct_side":1,"subjID":"alansamuelpirabantriana31","gender":"0","school":"4","age":"9"},{"start_time":1552308910858,"click_time":1552308913060,"finger_time":1552308911780,"fix_duration":936.8626097313129,"trial":21,"RT":922,"MT":1280,"sideResp":1,"stimulus":[],"xmouse":[788,788,788,788,788,788,788,788,788,788,788,788,788,788,788,788,788,788,788,788,788,788,788,788,788,788,788,788,788,788,788,788,788,788,788,788,788,788,788,788,788,788,788,788,788,788,783,764,731,715,713,713,713,699,692,692,692,692,692,692,692,692,692,692,692,692,692,692,692,692,692,692,692,692,692,692,692,692,692,692,689,604,603,603,603,603,603,603,603,603,603,603,603,603,603,603,603,603,603,603,603,603,603,603,603,603,603,603,603,600,488],"ymouse":[653,653,653,653,653,653,653,653,653,653,653,653,653,653,653,653,653,653,653,653,653,653,653,653,653,653,653,653,653,653,653,653,653,653,653,653,653,653,653,653,653,653,652,652,652,651,553,380,151,0,0,0,0,0,0,0,0,0,0,0,0,0,0,0,0,0,0,0,0,0,0,0,0,0,0,0,0,0,0,0,0,0,0,0,0,0,0,0,0,0,0,0,0,0,0,0,0,0,0,0,0,0,0,0,0,0,0,0,0,1,55],"timestamp_mouse":[10,21,41,61,82,101,122,141,162,182,202,222,241,262,282,302,321,342,362,381,401,422,441,461,481,502,522,541,562,582,602,621,642,662,682,701,722,742,763,782,802,821,842,861,881,902,922,942,961,982,1001,1021,1041,1062,1081,1102,1122,1141,1162,1182,1202,1221,1241,1262,1281,1301,1322,1341,1361,1382,1402,1421,1442,1462,1482,1502,1521,1541,1562,1581,1601,1621,1641,1661,1681,1701,1721,1741,1762,1781,1801,1822,1841,1861,1881,1901,1921,1941,1961,1982,2002,2022,2042,2061,2082,2101,2121,2141,2161,2181,2202],"xSR":741.5,"ySR":573.95,"xT1":424.9,"yT1":0,"xT2":1058.1,"yT2":0,"toosoon":0,"cond_shown":"Incongruent","ratio_trial":200,"L_num":7,"L_den":10,"R_num":14,"R_den":28,"correct_side":1,"subjID":"alansamuelpirabantriana31","gender":"0","school":"4","age":"9"},{"start_time":1552308939905,"click_time":1552308941800,"finger_time":1552308941639,"fix_duration":1443.2145996733095,"trial":22,"RT":1734,"MT":161,"sideResp":1,"stimulus":[],"xmouse":[803,803,803,803,803,803,803,803,803,803,803,803,803,803,803,803,803,803,803,803,803,803,803,803,803,803,803,803,803,803,803,803,803,803,803,803,803,803,803,803,803,803,803,803,803,803,803,803,803,803,803,803,803,803,803,803,803,803,803,803,803,803,803,803,803,803,803,803,803,803,803,803,803,803,803,803,803,803,803,803,803,803,803,803,803,803,800,790,762,684,622,491,450,436,431],"ymouse":[606,606,606,606,606,606,606,606,606,606,606,606,606,606,606,606,606,606,606,606,606,606,606,606,606,606,606,606,606,606,606,606,606,606,606,606,606,606,606,606,606,606,606,606,606,606,606,606,606,606,606,606,606,606,606,606,606,606,606,606,606,606,606,606,606,606,606,606,606,606,606,606,606,606,606,606,606,606,606,606,606,606,606,606,606,601,570,538,483,372,301,155,115,102,95],"timestamp_mouse":[15,36,55,75,94,114,134,154,175,194,214,234,255,275,294,314,336,355,374,394,414,435,456,474,494,515,534,554,574,594,614,635,655,675,694,714,734,754,774,794,814,834,855,874,894,914,934,954,974,994,1014,1035,1054,1075,1094,1114,1134,1155,1175,1194,1215,1234,1254,1275,1294,1314,1334,1355,1374,1394,1414,1434,1455,1476,1494,1514,1534,1555,1574,1595,1615,1635,1654,1675,1695,1714,1734,1755,1774,1795,1815,1834,1855,1875,1895],"xSR":741.5,"ySR":573.95,"xT1":424.9,"yT1":0,"xT2":1058.1,"yT2":0,"toosoon":0,"cond_shown":"Incongruent","ratio_trial":200,"L_num":4,"L_den":6,"R_num":14,"R_den":30,"correct_side":1,"subjID":"alansamuelpirabantriana31","gender":"0","school":"4","age":"9"},{"start_time":1552308945629,"click_time":1552308947300,"finger_time":1552308947079,"fix_duration":1049.710959425634,"trial":23,"RT":1450,"MT":221,"sideResp":1,"stimulus":[],"xmouse":[812,812,812,811,810,808,808,807,807,807,807,807,807,807,807,807,807,807,807,807,807,807,807,807,807,807,807,806,806,806,806,806,806,806,806,806,806,806,806,806,806,806,806,805,804,804,804,804,804,804,804,804,804,804,804,804,804,804,804,804,804,804,804,804,804,802,801,799,795,789,765,744,728,712,692,675,650,640,628,613,599,531,485,428],"ymouse":[599,599,599,599,600,601,602,603,603,603,603,603,603,603,603,603,603,603,603,603,603,603,603,603,603,603,603,604,604,604,604,604,604,604,604,604,604,604,604,604,604,604,604,604,605,606,606,606,606,606,606,606,606,606,606,606,606,606,606,606,606,606,606,606,606,605,603,599,595,592,587,581,577,572,563,555,533,515,491,451,404,232,150,75],"timestamp_mouse":[10,43,50,71,90,110,131,151,171,191,210,231,251,270,291,311,331,351,370,390,411,431,451,470,490,511,530,550,571,590,610,631,650,671,690,711,730,751,770,791,810,830,850,871,890,910,930,951,971,991,1010,1030,1050,1071,1090,1110,1130,1151,1171,1190,1210,1231,1250,1270,1291,1311,1330,1351,1371,1390,1410,1431,1450,1470,1490,1510,1530,1550,1570,1592,1611,1631,1651,1671],"xSR":741.5,"ySR":573.95,"xT1":424.9,"yT1":0,"xT2":1058.1,"yT2":0,"toosoon":0,"cond_shown":"Incongruent","ratio_trial":300,"L_num":1,"L_den":2,"R_num":3,"R_den":15,"correct_side":1,"subjID":"alansamuelpirabantriana31","gender":"0","school":"4","age":"9"},{"start_time":1552308948711,"click_time":1552308951119,"finger_time":1552308950259,"fix_duration":250,"trial":24,"RT":1548,"MT":860,"sideResp":2,"stimulus":[],"xmouse":[775,775,775,775,775,775,775,775,775,775,775,775,775,775,775,775,775,775,775,775,775,775,775,775,775,775,775,775,775,775,775,775,775,775,775,775,775,775,774,774,774,774,774,774,774,774,774,774,774,774,774,774,774,774,774,774,774,774,774,774,774,774,774,774,774,774,774,774,774,774,774,774,774,774,774,773,772,772,772,771,770,768,768,768,768,768,768,768,781,835,937,1040,1185,1188,1188,1188,1188,1188,1188,1188,1188,1188,1188,1188,1188,1183,1182,1182,1182,1182,1182,1182,1182,1182,1182,1182,1182,1177,1172,1165,1156],"ymouse":[577,577,577,577,577,577,577,577,577,577,577,577,577,577,577,577,577,577,577,577,577,577,577,577,577,577,577,577,577,577,577,577,577,577,577,577,577,577,577,577,577,577,577,577,577,577,577,577,577,577,577,577,577,577,577,577,577,577,577,577,577,577,577,577,577,577,577,577,577,577,577,577,577,577,577,577,576,572,567,559,551,541,524,517,515,515,515,512,489,420,315,213,43,40,40,40,40,40,40,40,40,40,40,40,40,44,45,45,45,45,45,45,45,45,45,45,45,50,55,62,68],"timestamp_mouse":[9,43,48,69,88,108,128,148,168,188,208,228,248,268,289,308,329,349,369,388,408,429,450,469,489,509,528,549,568,588,609,628,649,668,688,708,729,749,768,788,808,828,849,869,889,908,928,949,968,988,1009,1028,1049,1069,1089,1109,1129,1148,1169,1188,1208,1230,1248,1268,1288,1308,1329,1348,1368,1388,1408,1428,1449,1468,1489,1508,1529,1548,1568,1588,1608,1629,1648,1668,1689,1708,1729,1748,1768,1788,1808,1828,1849,1868,1888,1909,1928,1949,1969,1989,2008,2028,2049,2069,2088,2109,2128,2148,2169,2188,2208,2228,2248,2268,2289,2308,2328,2348,2368,2388,2408],"xSR":741.5,"ySR":573.95,"xT1":424.9,"yT1":0,"xT2":1058.1,"yT2":0,"toosoon":0,"cond_shown":"Incongruent","ratio_trial":100,"L_num":10,"L_den":25,"R_num":8,"R_den":16,"correct_side":2,"subjID":"alansamuelpirabantriana31","gender":"0","school":"4","age":"9"},{"start_time":1552308952948,"click_time":1552308955320,"finger_time":1552308954279,"fix_duration":547.763225325608,"trial":25,"RT":1331,"MT":1041,"sideResp":2,"stimulus":[],"xmouse":[777,777,777,777,777,777,777,777,777,777,777,777,777,777,777,777,777,777,777,777,777,777,777,777,777,777,777,777,777,777,777,777,777,777,777,777,777,777,777,777,777,777,777,777,777,777,777,777,777,777,777,777,777,777,777,777,777,777,775,773,769,767,767,766,764,760,738,724,709,690,673,656,647,638,632,632,622,617,617,617,613,611,611,611,611,611,611,611,611,611,611,611,611,611,611,611,611,611,612,618,625,638,642,643,644,644,646,648,651,665,680,718,741,767,806,858,958,1006,1069],"ymouse":[665,665,665,665,665,665,665,665,665,665,665,665,665,665,665,665,665,665,665,665,665,665,665,665,665,665,665,665,665,665,665,665,665,665,665,665,665,665,665,665,665,665,665,665,665,665,665,665,665,665,665,665,665,665,665,665,665,665,664,663,660,659,658,657,656,648,610,567,517,454,392,321,295,272,258,258,243,232,232,232,227,225,225,225,225,225,225,225,225,225,225,225,225,225,225,225,225,225,225,226,230,234,234,235,235,235,235,235,235,232,228,218,211,203,187,164,126,109,83],"timestamp_mouse":[13,43,51,71,91,111,131,151,171,193,212,232,251,271,291,312,331,352,371,392,411,432,451,472,492,511,531,551,572,591,612,631,652,671,692,712,731,752,771,791,812,831,852,871,891,911,932,952,971,991,1012,1031,1052,1073,1092,1112,1131,1151,1171,1192,1212,1231,1252,1271,1291,1311,1331,1351,1371,1392,1411,1432,1451,1471,1491,1512,1531,1551,1572,1591,1611,1632,1651,1671,1691,1711,1731,1751,1771,1792,1811,1831,1851,1872,1892,1912,1932,1951,1972,1992,2012,2031,2051,2071,2093,2112,2131,2152,2172,2191,2211,2232,2251,2271,2292,2311,2331,2352,2372],"xSR":741.5,"ySR":573.95,"xT1":424.9,"yT1":0,"xT2":1058.1,"yT2":0,"toosoon":0,"cond_shown":"Congruent","ratio_trial":300,"L_num":5,"L_den":25,"R_num":7,"R_den":14,"correct_side":2,"subjID":"alansamuelpirabantriana31","gender":"0","school":"4","age":"9"},{"start_time":1552308957501,"click_time":1552308959679,"finger_time":1552308959079,"fix_duration":800.9095341119227,"trial":26,"RT":1578,"MT":600,"sideResp":2,"stimulus":[],"xmouse":[806,806,806,806,806,806,806,806,806,806,806,806,806,806,806,806,806,806,806,806,806,806,806,806,806,806,806,806,806,806,806,806,806,806,806,806,806,806,806,806,806,806,806,806,806,806,806,806,806,806,806,806,806,806,806,806,806,806,806,806,806,806,806,806,806,806,806,806,806,806,806,806,806,806,806,806,815,820,840,848,850,851,853,865,877,892,910,938,973,1052,1078,1098,1120,1146,1155,1160,1162,1164,1166,1166,1166,1166,1165,1163,1162,1159,1152,1147,1132],"ymouse":[584,584,584,584,584,584,584,584,584,584,584,586,588,588,588,588,588,588,588,588,588,588,588,588,588,588,588,588,588,588,588,588,588,588,588,588,588,588,588,588,588,588,588,588,588,588,588,588,588,588,588,588,588,588,588,588,588,588,588,588,588,588,588,588,588,588,588,588,588,588,588,588,588,588,588,588,583,580,571,569,568,568,566,551,537,514,491,454,409,319,291,274,257,230,212,192,174,159,140,134,132,130,128,123,121,115,107,102,89],"timestamp_mouse":[18,45,59,78,98,119,138,158,179,198,219,239,258,278,299,318,338,359,378,398,419,439,458,479,499,518,539,558,578,598,618,639,659,680,699,718,738,759,778,799,819,839,859,878,899,918,939,958,979,999,1019,1038,1059,1078,1098,1119,1139,1158,1180,1199,1219,1239,1259,1279,1298,1319,1339,1359,1378,1398,1419,1438,1458,1479,1498,1519,1538,1559,1578,1598,1618,1639,1658,1678,1698,1718,1738,1758,1778,1799,1819,1839,1859,1878,1898,1918,1938,1958,1978,1998,2018,2038,2058,2078,2098,2118,2138,2158,2178],"xSR":741.5,"ySR":573.95,"xT1":424.9,"yT1":0,"xT2":1058.1,"yT2":0,"toosoon":0,"cond_shown":"Incongruent","ratio_trial":200,"L_num":7,"L_den":15,"R_num":4,"R_den":6,"correct_side":2,"subjID":"alansamuelpirabantriana31","gender":"0","school":"4","age":"9"},{"start_time":1552308962098,"click_time":1552308964480,"finger_time":1552308963740,"fix_duration":1136.4047668710589,"trial":27,"RT":1642,"MT":740,"sideResp":2,"stimulus":[],"xmouse":[805,805,805,805,805,805,805,805,805,805,805,805,805,805,805,805,805,805,805,805,805,805,805,805,805,805,805,805,805,805,805,805,805,805,805,805,805,805,805,805,805,805,805,805,805,805,805,805,805,805,805,805,805,805,805,805,805,805,805,805,805,805,805,805,805,805,805,805,805,805,805,805,805,805,805,805,805,805,805,805,805,812,822,832,848,876,886,897,899,900,903,904,906,907,907,907,909,911,920,929,950,964,977,997,1006,1013,1015,1020,1023,1024,1027,1030,1034,1039,1044,1047,1052,1056,1058,1060],"ymouse":[594,594,594,594,594,594,594,594,594,594,594,594,594,594,594,594,594,594,594,594,594,594,594,594,594,594,594,594,594,594,594,594,594,594,594,594,594,594,594,594,594,594,594,594,594,594,594,594,594,594,594,594,594,594,594,594,594,594,594,594,594,594,594,594,594,594,594,594,594,594,594,594,594,594,594,594,594,594,594,594,592,578,562,547,530,499,486,472,471,463,449,438,428,418,410,395,378,371,346,328,292,272,247,201,174,140,125,107,100,98,91,86,79,72,67,65,62,61,60,60],"timestamp_mouse":[9,22,41,61,81,101,122,141,162,182,202,221,242,261,281,302,321,341,362,381,402,421,441,461,481,501,523,541,562,582,602,621,641,661,681,701,721,741,761,781,802,821,842,861,881,901,921,941,962,981,1001,1022,1042,1061,1081,1101,1122,1142,1162,1182,1202,1222,1242,1261,1281,1301,1322,1345,1361,1381,1401,1422,1443,1462,1481,1501,1521,1541,1562,1582,1601,1621,1642,1661,1681,1701,1722,1742,1763,1781,1801,1822,1841,1861,1882,1901,1921,1942,1961,1982,2001,2022,2041,2061,2081,2101,2121,2141,2161,2181,2201,2221,2241,2261,2281,2301,2322,2341,2362,2382],"xSR":741.5,"ySR":573.95,"xT1":424.9,"yT1":0,"xT2":1058.1,"yT2":0,"toosoon":0,"cond_shown":"Congruent","ratio_trial":100,"L_num":15,"L_den":25,"R_num":13,"R_den":26,"correct_side":1,"subjID":"alansamuelpirabantriana31","gender":"0","school":"4","age":"9"},{"start_time":1552308981731,"click_time":1552308984579,"finger_time":1552308983159,"fix_duration":250,"trial":28,"RT":1428,"MT":1420,"sideResp":1,"stimulus":[],"xmouse":[798,798,798,798,798,798,798,798,798,798,798,798,798,798,798,798,798,798,798,798,798,798,798,798,798,798,798,798,798,798,798,798,798,798,798,798,798,798,798,798,798,798,798,798,798,798,798,798,798,798,798,798,798,798,798,798,798,798,798,798,798,798,798,798,798,798,798,798,798,800,834,846,853,857,858,859,859,859,861,862,863,870,875,882,887,898,913,925,936,943,953,956,961,965,969,980,989,994,997,1002,1013,1020,1027,1032,1037,1039,1039,1039,1039,1039,1039,1039,1038,1031,1018,990,980,954,933,924,900,837,809,790,769,735,709,691,669,644,618,582,572,565,560,550,547,545,545,545,535,529,524],"ymouse":[613,613,613,613,613,613,613,613,613,613,613,613,613,613,613,613,613,613,613,613,613,613,613,613,613,613,613,613,613,613,613,613,613,613,613,613,613,613,613,613,613,613,613,613,613,613,613,613,613,613,613,613,613,613,613,613,613,613,613,613,613,613,613,613,613,613,613,613,613,612,581,566,549,536,527,513,508,503,498,494,489,476,466,450,440,423,406,393,378,364,333,314,296,282,269,243,227,215,206,195,171,158,144,132,122,114,113,113,113,111,106,104,100,89,76,56,53,48,48,48,53,73,80,87,93,97,97,97,97,97,97,87,82,77,74,67,66,65,65,65,63,61,60],"timestamp_mouse":[16,29,48,68,88,109,129,149,169,189,208,229,248,269,288,308,328,349,368,389,408,429,448,469,488,508,529,548,568,588,608,628,649,668,689,708,728,748,769,788,809,828,849,869,888,909,928,949,969,988,1008,1029,1048,1068,1088,1108,1128,1148,1168,1190,1209,1229,1248,1268,1289,1308,1328,1349,1368,1388,1408,1428,1448,1469,1489,1508,1528,1548,1568,1588,1608,1628,1649,1669,1689,1708,1728,1748,1769,1788,1808,1828,1849,1868,1889,1908,1928,1948,1968,1988,2008,2028,2049,2068,2087,2108,2128,2149,2168,2188,2207,2228,2248,2268,2289,2308,2328,2349,2369,2388,2408,2428,2448,2468,2488,2508,2528,2548,2569,2588,2608,2628,2648,2668,2689,2708,2728,2749,2768,2789,2808,2827,2848],"xSR":741.5,"ySR":573.95,"xT1":424.9,"yT1":0,"xT2":1058.1,"yT2":0,"toosoon":0,"cond_shown":"Incongruent","ratio_trial":100,"L_num":9,"L_den":18,"R_num":6,"R_den":10,"correct_side":2,"subjID":"alansamuelpirabantriana31","gender":"0","school":"4","age":"9"},{"start_time":1552308991394,"click_time":1552308993779,"finger_time":1552308993439,"fix_duration":932.0508266876686,"trial":29,"RT":2045,"MT":340,"sideResp":2,"stimulus":[],"xmouse":[763,763,763,763,763,763,763,763,763,763,763,763,763,763,763,763,763,763,763,763,763,763,763,763,763,763,763,763,763,763,763,763,763,763,763,763,763,763,763,763,763,763,763,763,763,763,763,763,763,763,763,763,763,763,763,763,763,763,763,763,763,763,763,763,763,763,763,763,763,763,763,764,765,765,765,766,768,771,774,775,775,775,775,776,776,776,776,776,776,776,776,776,776,776,776,776,776,776,779,783,791,798,808,834,841,850,861,869,877,879,883,883,894,938,953,964,978,991,1062,1096],"ymouse":[650,650,650,650,650,650,650,650,650,650,650,650,650,650,650,650,650,650,650,650,650,650,650,650,650,650,650,650,650,650,650,650,650,650,650,650,650,650,650,650,650,650,650,650,650,650,650,650,650,650,650,650,650,650,650,650,650,650,650,650,650,650,650,650,650,650,650,650,650,650,650,650,649,649,649,648,647,644,640,640,640,639,639,638,638,638,638,638,638,638,638,638,638,638,638,638,638,637,630,621,600,583,566,522,512,500,490,482,470,468,458,458,441,364,332,305,275,244,114,44],"timestamp_mouse":[12,35,45,66,86,105,125,145,165,185,206,226,246,266,286,305,326,346,366,386,405,426,445,465,486,506,526,545,565,586,606,625,646,665,685,705,725,745,766,785,805,826,846,865,885,905,925,946,966,985,1005,1026,1046,1066,1085,1105,1126,1145,1166,1186,1206,1226,1246,1265,1285,1306,1326,1345,1366,1386,1405,1425,1446,1465,1485,1506,1525,1545,1566,1586,1605,1626,1645,1666,1685,1706,1725,1745,1766,1786,1805,1826,1846,1866,1886,1906,1925,1946,1965,1986,2005,2026,2045,2065,2085,2105,2126,2146,2166,2185,2206,2226,2245,2265,2285,2305,2326,2345,2365,2385],"xSR":741.5,"ySR":573.95,"xT1":424.9,"yT1":0,"xT2":1058.1,"yT2":0,"toosoon":0,"cond_shown":"Incongruent","ratio_trial":200,"L_num":3,"L_den":10,"R_num":1,"R_den":2,"correct_side":2,"subjID":"alansamuelpirabantriana31","gender":"0","school":"4","age":"9"},{"start_time":1552309001370,"click_time":1552309003499,"finger_time":1552309002879,"fix_duration":547.9429656775261,"trial":30,"RT":1509,"MT":620,"sideResp":1,"stimulus":[],"xmouse":[769,769,769,769,769,769,769,769,769,769,769,769,769,769,769,769,769,769,769,769,769,769,769,769,769,769,769,769,769,769,769,769,769,769,769,769,769,769,769,769,769,769,769,769,769,769,769,769,769,769,769,769,769,769,769,769,769,769,769,769,769,769,769,769,769,769,769,769,769,769,769,769,769,769,769,772,772,772,770,768,756,737,702,655,607,512,482,445,435,432,431,433,440,447,455,472,476,480,484,486,486,486,487,488,488,488,488],"ymouse":[614,614,614,614,614,614,614,614,614,614,614,614,614,614,614,614,614,614,614,614,614,614,614,614,614,614,614,614,614,614,614,614,614,614,614,614,614,614,614,614,614,614,614,614,614,614,614,614,614,614,614,614,614,614,614,614,614,614,614,614,614,614,614,614,614,614,614,614,614,614,614,614,608,603,593,567,554,547,541,536,525,517,507,492,475,430,404,362,337,316,274,253,231,208,183,143,138,135,133,131,131,131,128,122,119,114,97],"timestamp_mouse":[9,40,49,70,89,110,129,149,170,190,209,229,249,270,290,309,330,349,369,389,410,429,450,470,489,510,530,549,570,590,609,630,650,670,690,709,729,750,770,789,810,830,849,869,890,909,930,950,970,990,1010,1030,1049,1069,1089,1109,1130,1149,1169,1190,1209,1229,1249,1270,1289,1310,1329,1349,1370,1389,1410,1429,1449,1470,1489,1509,1529,1550,1569,1590,1609,1629,1649,1669,1689,1709,1730,1750,1770,1790,1810,1829,1850,1870,1890,1910,1929,1949,1969,1990,2009,2029,2049,2069,2089,2108,2129],"xSR":741.5,"ySR":573.95,"xT1":424.9,"yT1":0,"xT2":1058.1,"yT2":0,"toosoon":0,"cond_shown":"Congruent","ratio_trial":300,"L_num":20,"L_den":25,"R_num":9,"R_den":18,"correct_side":1,"subjID":"alansamuelpirabantriana31","gender":"0","school":"4","age":"9"},{"start_time":1552309006261,"click_time":1552309008460,"finger_time":1552309007839,"fix_duration":1080.24736729774,"trial":31,"RT":1578,"MT":621,"sideResp":2,"stimulus":[],"xmouse":[786,786,786,786,786,786,786,786,786,786,786,786,786,786,786,786,786,786,786,786,786,786,786,786,786,786,786,786,786,786,786,786,786,786,786,786,786,786,786,786,786,786,786,786,786,786,786,786,786,786,786,786,786,786,786,786,786,786,786,786,786,786,786,786,786,786,786,786,786,786,786,786,786,786,786,786,784,784,788,792,805,829,849,883,921,958,1000,1011,1018,1021,1021,1021,1021,1021,1022,1023,1027,1028,1030,1031,1032,1032,1032,1032,1032,1032,1037,1045,1056,1068],"ymouse":[641,641,641,641,641,641,641,641,641,641,641,641,641,641,641,641,641,641,641,641,641,641,641,641,641,641,641,641,641,641,641,641,639,638,638,638,638,638,638,638,638,638,638,638,638,638,638,638,638,638,638,638,638,638,638,638,638,638,638,638,638,638,638,638,638,638,638,638,638,638,638,638,635,633,631,624,607,598,573,564,529,468,429,373,325,280,233,222,214,211,211,211,211,211,211,210,201,195,189,185,181,176,173,168,162,154,130,117,100,87],"timestamp_mouse":[19,38,58,78,98,118,137,158,179,199,219,239,259,278,298,318,338,359,379,398,419,438,458,479,499,520,538,559,580,599,619,638,658,679,699,718,739,758,779,798,819,838,858,879,898,918,938,959,979,999,1019,1039,1058,1079,1098,1118,1138,1159,1179,1199,1219,1238,1258,1279,1299,1318,1339,1359,1379,1399,1419,1439,1459,1479,1498,1519,1538,1558,1578,1598,1619,1638,1658,1678,1698,1719,1738,1758,1778,1799,1818,1839,1858,1879,1898,1918,1938,1959,1978,1998,2018,2038,2059,2078,2098,2118,2138,2159,2178,2199],"xSR":741.5,"ySR":573.95,"xT1":424.9,"yT1":0,"xT2":1058.1,"yT2":0,"toosoon":0,"cond_shown":"Incongruent","ratio_trial":300,"L_num":4,"L_den":20,"R_num":2,"R_den":4,"correct_side":2,"subjID":"alansamuelpirabantriana31","gender":"0","school":"4","age":"9"},{"start_time":1552309015045,"click_time":1552309017020,"finger_time":1552309016480,"fix_duration":1344.9445277488455,"trial":32,"RT":1435,"MT":540,"sideResp":1,"stimulus":[],"xmouse":[795,795,795,795,795,795,795,795,795,795,795,795,795,795,795,795,795,795,795,795,795,795,795,795,795,795,795,795,795,795,795,795,795,795,795,795,795,795,795,795,795,795,795,795,795,795,795,795,795,795,795,795,795,795,795,795,795,795,798,800,800,800,800,800,800,800,800,800,801,803,805,806,811,815,817,818,818,818,816,815,812,808,803,788,779,773,765,760,749,743,735,725,716,687,669,647,585,556,485],"ymouse":[599,599,599,599,599,599,599,599,599,599,599,599,599,599,599,599,599,599,599,599,599,599,599,599,599,599,599,599,599,599,599,599,599,599,599,599,599,599,599,599,599,599,599,599,599,599,599,599,599,599,599,599,599,599,599,599,599,599,596,596,595,595,595,595,595,595,595,595,593,586,575,561,511,483,470,465,464,460,458,457,456,454,452,448,446,443,439,436,423,410,396,380,364,326,305,276,203,174,83],"timestamp_mouse":[14,44,54,75,95,114,134,155,174,194,215,234,255,275,294,315,334,355,375,395,415,435,454,475,495,515,535,555,574,594,614,635,655,676,695,715,735,755,774,794,815,834,854,875,894,914,934,955,974,995,1014,1035,1055,1075,1095,1115,1135,1154,1175,1194,1215,1234,1255,1274,1295,1314,1334,1355,1375,1394,1415,1435,1455,1474,1494,1514,1535,1554,1574,1594,1614,1634,1654,1674,1694,1714,1735,1754,1775,1795,1815,1834,1855,1874,1894,1914,1934,1954,1974],"xSR":741.5,"ySR":573.95,"xT1":424.9,"yT1":0,"xT2":1058.1,"yT2":0,"toosoon":0,"cond_shown":"Congruent","ratio_trial":100,"L_num":15,"L_den":25,"R_num":13,"R_den":26,"correct_side":1,"subjID":"alansamuelpirabantriana31","gender":"0","school":"4","age":"9"},{"start_time":1552309018931,"click_time":1552309020839,"finger_time":1552309020400,"fix_duration":250,"trial":33,"RT":1469,"MT":439,"sideResp":1,"stimulus":[],"xmouse":[816,816,816,816,816,816,816,816,816,816,816,816,816,816,816,816,816,816,816,816,816,816,816,816,816,816,816,816,816,816,816,816,816,816,816,816,816,816,816,816,816,816,816,816,816,816,816,816,816,816,816,816,816,816,816,816,816,816,816,816,816,816,815,814,813,813,813,811,809,808,805,802,797,790,773,765,757,753,749,740,733,724,717,707,674,660,650,638,627,615,603,584,571,557,525,516],"ymouse":[641,641,641,641,641,641,641,641,641,641,641,641,641,641,641,641,641,641,641,641,641,641,641,641,641,641,641,641,641,641,641,641,641,641,641,641,641,641,641,641,641,641,641,641,641,641,641,641,641,641,641,641,641,641,641,641,641,641,641,641,641,641,641,641,640,640,640,638,637,634,622,605,584,553,505,490,476,467,458,441,432,417,405,384,312,282,259,237,220,198,179,149,132,116,95,92],"timestamp_mouse":[9,32,48,69,89,108,129,149,169,188,208,229,248,268,289,308,329,349,369,388,408,429,449,470,489,509,528,549,569,588,608,628,649,669,688,709,729,748,769,789,809,829,848,869,888,909,929,949,968,988,1008,1028,1049,1068,1088,1108,1128,1149,1169,1188,1209,1229,1248,1268,1289,1308,1329,1348,1368,1388,1408,1428,1448,1469,1488,1508,1528,1549,1569,1588,1608,1628,1648,1668,1688,1708,1728,1749,1769,1788,1810,1828,1849,1868,1888,1908],"xSR":741.5,"ySR":573.95,"xT1":424.9,"yT1":0,"xT2":1058.1,"yT2":0,"toosoon":0,"cond_shown":"Incongruent","ratio_trial":300,"L_num":4,"L_den":5,"R_num":6,"R_den":12,"correct_side":1,"subjID":"alansamuelpirabantriana31","gender":"0","school":"4","age":"9"},{"start_time":1552309080753,"click_time":1552309083019,"finger_time":1552309082340,"fix_duration":250,"trial":34,"RT":1587,"MT":679,"sideResp":2,"stimulus":[],"xmouse":[801,801,801,801,801,801,801,801,801,801,801,801,801,801,801,801,801,801,801,801,801,801,801,801,801,801,801,801,801,801,801,801,801,801,801,801,801,801,801,801,801,801,801,801,801,801,800,800,799,797,797,797,797,797,797,797,797,797,797,797,797,797,797,797,797,797,797,797,797,797,797,797,797,796,796,795,787,778,765,730,674,619,619,621,626,633,639,639,636,634,634,639,644,648,649,649,649,651,665,731,789,889,917,926,929,930,933,937,953,1008,1048,1098,1104,1104],"ymouse":[641,641,641,641,641,641,641,641,641,641,641,642,642,642,642,642,642,642,642,642,642,642,642,642,642,642,642,642,642,642,642,642,642,642,642,642,642,642,642,642,642,642,642,642,642,642,642,642,643,643,643,643,643,643,643,643,643,643,643,643,643,643,643,643,643,643,643,643,643,643,643,643,643,643,643,642,631,620,605,578,546,514,513,511,509,505,490,477,465,455,455,449,445,442,439,434,433,430,429,426,425,413,407,403,399,395,385,371,339,255,195,122,106,98],"timestamp_mouse":[10,38,47,66,86,107,125,146,166,187,205,226,247,266,287,307,325,345,366,387,406,427,447,467,487,506,527,547,566,586,607,626,646,666,687,707,726,746,766,786,807,826,845,866,887,906,927,946,967,986,1007,1026,1046,1066,1087,1105,1127,1147,1166,1187,1207,1226,1247,1266,1287,1306,1325,1347,1367,1386,1406,1426,1445,1466,1485,1506,1525,1545,1565,1587,1606,1626,1647,1666,1686,1706,1726,1747,1766,1786,1806,1826,1846,1866,1886,1906,1925,1946,1966,1986,2006,2026,2047,2067,2086,2105,2125,2146,2166,2186,2206,2226,2246,2266],"xSR":741.5,"ySR":573.95,"xT1":424.9,"yT1":0,"xT2":1058.1,"yT2":0,"toosoon":0,"cond_shown":"Incongruent","ratio_trial":100,"L_num":6,"L_den":10,"R_num":11,"R_den":22,"correct_side":1,"subjID":"alansamuelpirabantriana31","gender":"0","school":"4","age":"9"},{"start_time":1552309091115,"click_time":1552309092900,"finger_time":1552309092279,"fix_duration":734.1789260192306,"trial":35,"RT":1164,"MT":621,"sideResp":1,"stimulus":[],"xmouse":[810,810,810,810,810,810,810,810,810,810,810,810,810,810,810,810,810,810,810,810,810,810,810,810,810,810,810,810,810,810,810,810,810,810,810,810,810,810,810,810,810,810,810,810,810,810,810,810,810,810,810,810,810,810,810,810,807,801,735,699,662,649,647,647,647,647,646,644,635,629,623,617,610,588,576,562,550,543,539,539,539,542,543,540,534,532,532,532,527,518],"ymouse":[610,610,610,610,610,610,610,610,610,610,610,610,610,610,610,610,610,610,610,610,610,610,610,610,610,610,610,610,610,610,610,610,610,610,610,610,610,610,610,610,610,610,610,610,610,610,610,610,610,610,610,610,610,610,610,610,599,589,521,495,469,458,456,456,456,456,456,456,456,454,448,431,402,267,201,127,78,53,37,30,25,17,4,0,0,0,0,0,7,38],"timestamp_mouse":[10,23,43,63,83,105,124,145,164,185,205,224,243,265,285,304,323,344,364,384,404,424,444,465,484,505,524,544,563,585,604,625,645,665,684,705,725,745,764,783,804,824,845,865,883,904,924,944,963,985,1005,1025,1045,1064,1085,1104,1124,1143,1164,1184,1204,1223,1244,1265,1285,1303,1324,1344,1364,1384,1405,1425,1444,1464,1484,1504,1524,1544,1564,1584,1604,1625,1644,1666,1683,1704,1724,1745,1765,1784],"xSR":741.5,"ySR":573.95,"xT1":424.9,"yT1":0,"xT2":1058.1,"yT2":0,"toosoon":0,"cond_shown":"Congruent","ratio_tria