[{"start_time":1552327218252,"click_time":1552327220304,"finger_time":1552327219923,"fix_duration":442.9732189853063,"trial":0,"RT":1671,"MT":381,"sideResp":1,"stimulus":[],"xmouse":[798,798,798,798,798,798,798,798,798,798,798,798,798,798,798,798,798,798,798,798,798,798,798,798,798,798,798,798,798,798,798,798,798,798,798,798,798,798,798,798,798,798,798,798,798,798,798,798,798,798,798,798,798,798,798,798,798,798,798,798,798,798,798,798,798,798,798,798,798,798,798,798,798,798,798,798,798,798,798,798,797,794,791,784,769,757,745,734,718,682,661,650,640,631,623,604,593,582,572,557,546,534,521],"ymouse":[532,532,532,532,532,532,532,532,532,532,532,532,532,532,532,532,532,532,532,532,532,532,532,532,532,532,532,532,532,532,532,532,532,532,532,532,532,532,532,532,532,532,532,532,532,532,532,532,532,532,532,532,532,532,532,532,532,532,532,532,532,532,532,532,532,532,532,532,532,532,532,532,532,532,532,532,532,532,532,529,517,502,484,461,408,377,350,327,305,270,243,228,212,194,174,134,115,99,86,71,65,61,56],"timestamp_mouse":[10,39,50,71,91,110,132,150,170,192,210,232,250,270,292,310,330,352,370,392,410,431,451,471,491,511,530,550,571,591,611,632,650,670,691,712,732,751,772,792,811,830,852,871,890,910,930,950,972,991,1011,1031,1050,1070,1091,1111,1131,1151,1170,1192,1211,1231,1252,1271,1292,1311,1331,1351,1371,1391,1410,1431,1452,1471,1492,1511,1531,1551,1572,1591,1610,1631,1650,1671,1690,1710,1731,1750,1770,1791,1811,1830,1851,1871,1890,1911,1931,1951,1972,1991,2012,2030,2052],"xSR":741.5,"ySR":469.95,"xT1":424.9,"yT1":0,"xT2":1058.1,"yT2":0,"toosoon":0,"cond_shown":"Congruent","ratio_trial":300,"L_num":8,"L_den":16,"R_num":1,"R_den":5,"correct_side":1,"subjID":"DanielAlejandroTorresUparela19","gender":"0","age":"8","school":"4","test":{"fix_dur":[250,1500],"timestim":1000,"targets_dim":[100,100],"targets_relative_coord":[0.3,0.7],"size_stim":[880,420],"start_dim":[100,100],"size_start":[300,300],"size_fix":60,"samplingrate":20,"img_types":["Congruent","Incongruent"],"ratios":[100,200,300],"rep_conds":19,"nTrials":120,"trials_to_rest":500,"Trials_order":[22,10,117,65,52,85,112,47,91,70,24,46,56,38,42,40,118,76,21,61,14,54,69,89,9,11,94,15,57,84,111,86,97,101,4,78,5,17,72,119,71,82,80,87,103,96,79,67,12,68,88,98,64,20,28,104,107,81,16,25,100,49,53,7,95,62,23,13,114,109,110,113,59,41,90,105,74,60,43,77,48,44,58,29,73,31,92,55,36,35,26,27,45,51,0,34,116,8,2,19,6,3,37,33,115,50,30,108,99,106,32,39,75,63,102,83,18,1,93,66],"cond_shown":["Congruent","Congruent","Incongruent","Incongruent","Congruent","Incongruent","Congruent","Incongruent","Incongruent","Congruent","Congruent","Congruent","Congruent","Congruent","Congruent","Congruent","Congruent","Congruent","Incongruent","Incongruent","Congruent","Congruent","Incongruent","Incongruent","Incongruent","Incongruent","Congruent","Incongruent","Incongruent","Congruent","Incongruent","Congruent","Incongruent","Incongruent","Congruent","Congruent","Incongruent","Incongruent","Congruent","Incongruent","Incongruent","Congruent","Congruent","Incongruent","Incongruent","Congruent","Incongruent","Incongruent","Congruent","Congruent","Congruent","Congruent","Congruent","Congruent","Congruent","Congruent","Incongruent","Incongruent","Congruent","Incongruent","Congruent","Incongruent","Incongruent","Incongruent","Incongruent","Congruent","Incongruent","Incongruent","Congruent","Incongruent","Congruent","Incongruent","Incongruent","Incongruent","Congruent","Incongruent","Congruent","Congruent","Incongruent","Incongruent","Congruent","Congruent","Congruent","Incongruent","Incongruent","Incongruent","Congruent","Incongruent","Congruent","Incongruent","Congruent","Incongruent","Incongruent","Incongruent","Congruent","Congruent","Congruent","Congruent","Congruent","Incongruent","Congruent","Incongruent","Incongruent","Incongruent","Incongruent","Congruent","Congruent","Congruent","Incongruent","Congruent","Congruent","Incongruent","Incongruent","Incongruent","Congruent","Incongruent","Congruent","Incongruent","Incongruent","Congruent"],"ratio_trial":[300,300,200,300,300,100,300,300,100,300,100,300,200,200,100,300,300,300,200,100,200,100,200,300,200,300,300,200,200,100,200,200,100,300,300,100,300,300,100,300,300,300,200,200,100,100,100,100,100,200,300,200,300,200,300,200,300,200,300,100,300,100,300,100,300,200,300,100,100,100,200,300,300,300,100,200,200,100,100,300,100,200,300,300,100,100,200,100,100,300,200,200,200,200,100,300,200,200,200,100,100,200,100,200,100,200,100,100,200,300,200,200,200,200,100,300,100,100,200,100],"left_num":[8,1,4,4,4,12,1,8,12,1,6,3,3,12,9,20,20,11,3,3,3,11,1,8,7,1,5,7,7,11,14,3,9,4,1,2,4,3,2,3,7,20,16,14,3,3,8,6,8,8,7,7,4,14,5,12,1,7,5,3,11,6,13,6,4,20,13,6,10,17,3,7,4,13,4,7,3,7,6,13,9,6,11,1,2,2,1,12,3,8,9,9,7,7,6,1,7,8,7,3,10,1,12,4,9,1,15,12,4,2,4,4,6,9,7,1,3,6,7,8],"right_num":[1,8,6,2,13,9,19,14,9,7,5,11,9,6,8,14,9,4,1,4,9,6,2,14,8,3,7,12,8,4,6,14,14,2,19,6,2,4,6,4,8,9,12,12,8,4,1,13,2,7,20,2,13,6,6,6,3,6,6,7,1,7,12,3,2,9,12,13,3,10,9,8,8,12,15,14,11,15,3,12,8,3,4,3,8,6,21,9,2,14,13,8,12,14,15,7,18,7,18,7,3,2,2,1,6,21,13,13,14,10,3,14,3,8,15,3,4,11,8,2],"left_den":[16,30,5,20,20,24,3,10,24,20,20,12,12,15,15,25,25,22,10,6,12,22,3,10,10,2,25,10,10,22,30,6,15,20,3,5,20,6,5,6,10,25,20,30,5,20,20,10,16,15,14,21,20,28,25,15,2,15,25,9,22,10,26,12,20,25,26,10,25,30,12,10,5,26,10,10,10,14,12,26,15,15,22,2,4,4,2,24,6,10,30,15,10,10,12,20,15,15,15,9,25,3,30,30,18,2,25,30,6,20,8,6,20,15,14,2,20,10,10,16],"right_den":[5,24,10,4,26,15,30,28,15,20,25,20,20,10,16,28,18,20,2,10,20,15,15,28,16,15,14,24,16,10,9,20,28,4,30,12,4,20,12,20,20,18,20,18,16,16,2,26,5,21,25,15,26,20,12,10,15,9,12,30,5,14,15,5,4,15,15,26,10,15,20,20,16,15,30,28,22,25,5,15,16,15,20,15,20,15,30,15,5,28,26,10,24,28,25,20,27,21,27,30,10,15,4,3,10,30,26,26,30,25,10,30,6,10,25,15,16,22,16,5],"correct_side":[1,2,1,2,2,2,2,1,2,2,1,2,2,1,1,1,1,1,2,1,2,1,1,1,1,1,2,1,1,1,2,2,1,2,2,2,2,1,2,1,1,1,1,2,1,2,2,1,1,1,2,1,2,1,2,1,1,2,2,1,1,1,2,2,2,1,2,1,1,2,2,1,1,2,2,1,2,2,2,2,1,1,1,1,1,1,2,2,1,1,2,2,1,1,2,2,2,1,2,1,1,1,2,2,2,2,1,2,1,2,1,1,2,2,2,1,2,1,1,1],"img_shown":["img2/300/Congruent/L/C_Dist_300_LN_8_LD_16_RN_1_RD_5_0.png","img2/300/Congruent/R/C_Dist_300_LN_1_LD_30_RN_8_RD_24_1.png","img2/200/Incongruent/L/I_Dist_200_LN_4_LD_5_RN_6_RD_10_0.png","img2/300/Incongruent/R/I_Dist_300_LN_4_LD_20_RN_2_RD_4_1.png","img2/300/Congruent/R/C_Dist_300_LN_4_LD_20_RN_13_RD_26_1.png","img2/100/Incongruent/R/I_Dist_100_LN_12_LD_24_RN_9_RD_15_1.png","img2/300/Congruent/R/C_Dist_300_LN_1_LD_3_RN_19_RD_30_1.png","img2/300/Incongruent/L/I_Dist_300_LN_8_LD_10_RN_14_RD_28_0.png","img2/100/Incongruent/R/I_Dist_100_LN_12_LD_24_RN_9_RD_15_1.png","img2/300/Congruent/R/C_Dist_300_LN_1_LD_20_RN_7_RD_20_1.png","img2/100/Congruent/L/C_Dist_100_LN_6_LD_20_RN_5_RD_25_0.png","img2/300/Congruent/R/C_Dist_300_LN_3_LD_12_RN_11_RD_20_1.png","img2/200/Congruent/R/C_Dist_200_LN_3_LD_12_RN_9_RD_20_1.png","img2/200/Congruent/L/C_Dist_200_LN_12_LD_15_RN_6_RD_10_0.png","img2/100/Congruent/L/C_Dist_100_LN_9_LD_15_RN_8_RD_16_0.png","img2/300/Congruent/L/C_Dist_300_LN_20_LD_25_RN_14_RD_28_0.png","img2/300/Congruent/L/C_Dist_300_LN_20_LD_25_RN_9_RD_18_0.png","img2/300/Congruent/L/C_Dist_300_LN_11_LD_22_RN_4_RD_20_0.png","img2/200/Incongruent/R/I_Dist_200_LN_3_LD_10_RN_1_RD_2_1.png","img2/100/Incongruent/L/I_Dist_100_LN_3_LD_6_RN_4_RD_10_0.png","img2/200/Congruent/R/C_Dist_200_LN_3_LD_12_RN_9_RD_20_1.png","img2/100/Congruent/L/C_Dist_100_LN_11_LD_22_RN_6_RD_15_0.png","img2/200/Incongruent/L/I_Dist_200_LN_1_LD_3_RN_2_RD_15_0.png","img2/300/Incongruent/L/I_Dist_300_LN_8_LD_10_RN_14_RD_28_0.png","img2/200/Incongruent/L/I_Dist_200_LN_7_LD_10_RN_8_RD_16_0.png","img2/300/Incongruent/L/I_Dist_300_LN_1_LD_2_RN_3_RD_15_0.png","img2/300/Congruent/R/C_Dist_300_LN_5_LD_25_RN_7_RD_14_1.png","img2/200/Incongruent/L/I_Dist_200_LN_7_LD_10_RN_12_RD_24_0.png","img2/200/Incongruent/L/I_Dist_200_LN_7_LD_10_RN_8_RD_16_0.png","img2/100/Congruent/L/C_Dist_100_LN_11_LD_22_RN_4_RD_10_0.png","img2/200/Incongruent/R/I_Dist_200_LN_14_LD_30_RN_6_RD_9_1.png","img2/200/Congruent/R/C_Dist_200_LN_3_LD_6_RN_14_RD_20_1.png","img2/100/Incongruent/L/I_Dist_100_LN_9_LD_15_RN_14_RD_28_0.png","img2/300/Incongruent/R/I_Dist_300_LN_4_LD_20_RN_2_RD_4_1.png","img2/300/Congruent/R/C_Dist_300_LN_1_LD_3_RN_19_RD_30_1.png","img2/100/Congruent/R/C_Dist_100_LN_2_LD_5_RN_6_RD_12_1.png","img2/300/Incongruent/R/I_Dist_300_LN_4_LD_20_RN_2_RD_4_1.png","img2/300/Incongruent/L/I_Dist_300_LN_3_LD_6_RN_4_RD_20_0.png","img2/100/Congruent/R/C_Dist_100_LN_2_LD_5_RN_6_RD_12_1.png","img2/300/Incongruent/L/I_Dist_300_LN_3_LD_6_RN_4_RD_20_0.png","img2/300/Incongruent/L/I_Dist_300_LN_7_LD_10_RN_8_RD_20_0.png","img2/300/Congruent/L/C_Dist_300_LN_20_LD_25_RN_9_RD_18_0.png","img2/200/Congruent/L/C_Dist_200_LN_16_LD_20_RN_12_RD_20_0.png","img2/200/Incongruent/R/I_Dist_200_LN_14_LD_30_RN_12_RD_18_1.png","img2/100/Incongruent/L/I_Dist_100_LN_3_LD_5_RN_8_RD_16_0.png","img2/100/Congruent/R/C_Dist_100_LN_3_LD_20_RN_4_RD_16_1.png","img2/100/Incongruent/R/I_Dist_100_LN_8_LD_20_RN_1_RD_2_1.png","img2/100/Incongruent/L/I_Dist_100_LN_6_LD_10_RN_13_RD_26_0.png","img2/100/Congruent/L/C_Dist_100_LN_8_LD_16_RN_2_RD_5_0.png","img2/200/Congruent/L/C_Dist_200_LN_8_LD_15_RN_7_RD_21_0.png","img2/300/Congruent/R/C_Dist_300_LN_7_LD_14_RN_20_RD_25_1.png","img2/200/Congruent/L/C_Dist_200_LN_7_LD_21_RN_2_RD_15_0.png","img2/300/Congruent/R/C_Dist_300_LN_4_LD_20_RN_13_RD_26_1.png","img2/200/Congruent/L/C_Dist_200_LN_14_LD_28_RN_6_RD_20_0.png","img2/300/Congruent/R/C_Dist_300_LN_5_LD_25_RN_6_RD_12_1.png","img2/200/Congruent/L/C_Dist_200_LN_12_LD_15_RN_6_RD_10_0.png","img2/300/Incongruent/L/I_Dist_300_LN_1_LD_2_RN_3_RD_15_0.png","img2/200/Incongruent/R/I_Dist_200_LN_7_LD_15_RN_6_RD_9_1.png","img2/300/Congruent/R/C_Dist_300_LN_5_LD_25_RN_6_RD_12_1.png","img2/100/Incongruent/L/I_Dist_100_LN_3_LD_9_RN_7_RD_30_0.png","img2/300/Congruent/L/C_Dist_300_LN_11_LD_22_RN_1_RD_5_0.png","img2/100/Incongruent/L/I_Dist_100_LN_6_LD_10_RN_7_RD_14_0.png","img2/300/Incongruent/R/I_Dist_300_LN_13_LD_26_RN_12_RD_15_1.png","img2/100/Incongruent/R/I_Dist_100_LN_6_LD_12_RN_3_RD_5_1.png","img2/300/Incongruent/R/I_Dist_300_LN_4_LD_20_RN_2_RD_4_1.png","img2/200/Congruent/L/C_Dist_200_LN_20_LD_25_RN_9_RD_15_0.png","img2/300/Incongruent/R/I_Dist_300_LN_13_LD_26_RN_12_RD_15_1.png","img2/100/Incongruent/L/I_Dist_100_LN_6_LD_10_RN_13_RD_26_0.png","img2/100/Congruent/L/C_Dist_100_LN_10_LD_25_RN_3_RD_10_0.png","img2/100/Incongruent/R/I_Dist_100_LN_17_LD_30_RN_10_RD_15_1.png","img2/200/Congruent/R/C_Dist_200_LN_3_LD_12_RN_9_RD_20_1.png","img2/300/Incongruent/L/I_Dist_300_LN_7_LD_10_RN_8_RD_20_0.png","img2/300/Incongruent/L/I_Dist_300_LN_4_LD_5_RN_8_RD_16_0.png","img2/300/Incongruent/R/I_Dist_300_LN_13_LD_26_RN_12_RD_15_1.png","img2/100/Congruent/R/C_Dist_100_LN_4_LD_10_RN_15_RD_30_1.png","img2/200/Incongruent/L/I_Dist_200_LN_7_LD_10_RN_14_RD_28_0.png","img2/200/Congruent/R/C_Dist_200_LN_3_LD_10_RN_11_RD_22_1.png","img2/100/Congruent/R/C_Dist_100_LN_7_LD_14_RN_15_RD_25_1.png","img2/100/Incongruent/R/I_Dist_100_LN_6_LD_12_RN_3_RD_5_1.png","img2/300/Incongruent/R/I_Dist_300_LN_13_LD_26_RN_12_RD_15_1.png","img2/100/Congruent/L/C_Dist_100_LN_9_LD_15_RN_8_RD_16_0.png","img2/200/Congruent/L/C_Dist_200_LN_6_LD_15_RN_3_RD_15_0.png","img2/300/Congruent/L/C_Dist_300_LN_11_LD_22_RN_4_RD_20_0.png","img2/300/Incongruent/L/I_Dist_300_LN_1_LD_2_RN_3_RD_15_0.png","img2/100/Incongruent/L/I_Dist_100_LN_2_LD_4_RN_8_RD_20_0.png","img2/100/Incongruent/L/I_Dist_100_LN_2_LD_4_RN_6_RD_15_0.png","img2/200/Congruent/R/C_Dist_200_LN_1_LD_2_RN_21_RD_30_1.png","img2/100/Incongruent/R/I_Dist_100_LN_12_LD_24_RN_9_RD_15_1.png","img2/100/Congruent/L/C_Dist_100_LN_3_LD_6_RN_2_RD_5_0.png","img2/300/Incongruent/L/I_Dist_300_LN_8_LD_10_RN_14_RD_28_0.png","img2/200/Congruent/R/C_Dist_200_LN_9_LD_30_RN_13_RD_26_1.png","img2/200/Incongruent/R/I_Dist_200_LN_9_LD_15_RN_8_RD_10_1.png","img2/200/Incongruent/L/I_Dist_200_LN_7_LD_10_RN_12_RD_24_0.png","img2/200/Incongruent/L/I_Dist_200_LN_7_LD_10_RN_14_RD_28_0.png","img2/100/Congruent/R/C_Dist_100_LN_6_LD_12_RN_15_RD_25_1.png","img2/300/Congruent/R/C_Dist_300_LN_1_LD_20_RN_7_RD_20_1.png","img2/200/Congruent/R/C_Dist_200_LN_7_LD_15_RN_18_RD_27_1.png","img2/200/Congruent/L/C_Dist_200_LN_8_LD_15_RN_7_RD_21_0.png","img2/200/Congruent/R/C_Dist_200_LN_7_LD_15_RN_18_RD_27_1.png","img2/100/Incongruent/L/I_Dist_100_LN_3_LD_9_RN_7_RD_30_0.png","img2/100/Congruent/L/C_Dist_100_LN_10_LD_25_RN_3_RD_10_0.png","img2/200/Incongruent/L/I_Dist_200_LN_1_LD_3_RN_2_RD_15_0.png","img2/100/Incongruent/R/I_Dist_100_LN_12_LD_30_RN_2_RD_4_1.png","img2/200/Incongruent/R/I_Dist_200_LN_4_LD_30_RN_1_RD_3_1.png","img2/100/Incongruent/R/I_Dist_100_LN_9_LD_18_RN_6_RD_10_1.png","img2/200/Congruent/R/C_Dist_200_LN_1_LD_2_RN_21_RD_30_1.png","img2/100/Congruent/L/C_Dist_100_LN_15_LD_25_RN_13_RD_26_0.png","img2/100/Congruent/R/C_Dist_100_LN_12_LD_30_RN_13_RD_26_1.png","img2/200/Incongruent/L/I_Dist_200_LN_4_LD_6_RN_14_RD_30_0.png","img2/300/Congruent/R/C_Dist_300_LN_2_LD_20_RN_10_RD_25_1.png","img2/200/Congruent/L/C_Dist_200_LN_4_LD_8_RN_3_RD_10_0.png","img2/200/Incongruent/L/I_Dist_200_LN_4_LD_6_RN_14_RD_30_0.png","img2/200/Incongruent/R/I_Dist_200_LN_6_LD_20_RN_3_RD_6_1.png","img2/200/Incongruent/R/I_Dist_200_LN_9_LD_15_RN_8_RD_10_1.png","img2/100/Congruent/R/C_Dist_100_LN_7_LD_14_RN_15_RD_25_1.png","img2/300/Incongruent/L/I_Dist_300_LN_1_LD_2_RN_3_RD_15_0.png","img2/100/Congruent/R/C_Dist_100_LN_3_LD_20_RN_4_RD_16_1.png","img2/100/Incongruent/L/I_Dist_100_LN_6_LD_10_RN_11_RD_22_0.png","img2/200/Incongruent/L/I_Dist_200_LN_7_LD_10_RN_8_RD_16_0.png","img2/100/Congruent/L/C_Dist_100_LN_8_LD_16_RN_2_RD_5_0.png"],"dist100_C":[["C_Dist_100_LN_10_LD_25_RN_3_RD_10_0.png","C_Dist_100_LN_11_LD_22_RN_4_RD_10_0.png","C_Dist_100_LN_11_LD_22_RN_6_RD_15_0.png","C_Dist_100_LN_15_LD_25_RN_13_RD_26_0.png","C_Dist_100_LN_3_LD_6_RN_2_RD_5_0.png","C_Dist_100_LN_6_LD_20_RN_5_RD_25_0.png","C_Dist_100_LN_8_LD_16_RN_2_RD_5_0.png","C_Dist_100_LN_9_LD_15_RN_8_RD_16_0.png"],["C_Dist_100_LN_1_LD_2_RN_18_RD_30_1.png","C_Dist_100_LN_1_LD_2_RN_3_RD_5_1.png","C_Dist_100_LN_12_LD_30_RN_13_RD_26_1.png","C_Dist_100_LN_2_LD_5_RN_11_RD_22_1.png","C_Dist_100_LN_2_LD_5_RN_6_RD_12_1.png","C_Dist_100_LN_3_LD_20_RN_4_RD_16_1.png","C_Dist_100_LN_4_LD_10_RN_15_RD_30_1.png","C_Dist_100_LN_4_LD_8_RN_6_RD_10_1.png","C_Dist_100_LN_6_LD_12_RN_15_RD_25_1.png","C_Dist_100_LN_7_LD_14_RN_15_RD_25_1.png","C_Dist_100_LN_7_LD_14_RN_9_RD_15_1.png"]],"dist100_I":[["I_Dist_100_LN_1_LD_2_RN_8_RD_20_0.png","I_Dist_100_LN_2_LD_4_RN_6_RD_15_0.png","I_Dist_100_LN_2_LD_4_RN_8_RD_20_0.png","I_Dist_100_LN_3_LD_5_RN_11_RD_22_0.png","I_Dist_100_LN_3_LD_5_RN_8_RD_16_0.png","I_Dist_100_LN_3_LD_6_RN_4_RD_10_0.png","I_Dist_100_LN_3_LD_9_RN_7_RD_30_0.png","I_Dist_100_LN_4_LD_8_RN_8_RD_20_0.png","I_Dist_100_LN_6_LD_10_RN_11_RD_22_0.png","I_Dist_100_LN_6_LD_10_RN_13_RD_26_0.png","I_Dist_100_LN_6_LD_10_RN_7_RD_14_0.png","I_Dist_100_LN_9_LD_10_RN_20_RD_25_0.png","I_Dist_100_LN_9_LD_15_RN_13_RD_26_0.png","I_Dist_100_LN_9_LD_15_RN_14_RD_28_0.png"],["I_Dist_100_LN_10_LD_25_RN_8_RD_16_1.png","I_Dist_100_LN_10_LD_25_RN_9_RD_18_1.png","I_Dist_100_LN_11_LD_22_RN_9_RD_15_1.png","I_Dist_100_LN_12_LD_24_RN_9_RD_15_1.png","I_Dist_100_LN_12_LD_30_RN_2_RD_4_1.png","I_Dist_100_LN_13_LD_26_RN_12_RD_20_1.png","I_Dist_100_LN_13_LD_26_RN_6_RD_10_1.png","I_Dist_100_LN_17_LD_30_RN_10_RD_15_1.png","I_Dist_100_LN_6_LD_12_RN_3_RD_5_1.png","I_Dist_100_LN_8_LD_16_RN_6_RD_10_1.png","I_Dist_100_LN_8_LD_20_RN_1_RD_2_1.png","I_Dist_100_LN_9_LD_18_RN_6_RD_10_1.png"]],"dist100_S":[["E_Dist_100_LN_2_LD_12_RN_2_RD_30_0.png","E_Dist_100_LN_6_LD_10_RN_6_RD_12_0.png"],["E_Dist_100_LN_6_LD_12_RN_6_RD_10_1.png"]],"dist200_C":[["C_Dist_200_LN_11_LD_22_RN_3_RD_10_0.png","C_Dist_200_LN_12_LD_15_RN_6_RD_10_0.png","C_Dist_200_LN_12_LD_20_RN_6_RD_15_0.png","C_Dist_200_LN_14_LD_28_RN_6_RD_20_0.png","C_Dist_200_LN_15_LD_25_RN_4_RD_10_0.png","C_Dist_200_LN_16_LD_20_RN_12_RD_20_0.png","C_Dist_200_LN_16_LD_30_RN_9_RD_27_0.png","C_Dist_200_LN_20_LD_25_RN_9_RD_15_0.png","C_Dist_200_LN_21_LD_30_RN_2_RD_4_0.png","C_Dist_200_LN_4_LD_10_RN_3_RD_15_0.png","C_Dist_200_LN_4_LD_8_RN_3_RD_10_0.png","C_Dist_200_LN_6_LD_15_RN_3_RD_15_0.png","C_Dist_200_LN_7_LD_21_RN_2_RD_15_0.png","C_Dist_200_LN_8_LD_15_RN_2_RD_6_0.png","C_Dist_200_LN_8_LD_15_RN_3_RD_9_0.png","C_Dist_200_LN_8_LD_15_RN_7_RD_21_0.png","C_Dist_200_LN_9_LD_20_RN_4_RD_16_0.png"],["C_Dist_200_LN_1_LD_2_RN_21_RD_30_1.png","C_Dist_200_LN_13_LD_26_RN_14_RD_20_1.png","C_Dist_200_LN_3_LD_10_RN_11_RD_22_1.png","C_Dist_200_LN_3_LD_10_RN_14_RD_28_1.png","C_Dist_200_LN_3_LD_10_RN_7_RD_14_1.png","C_Dist_200_LN_3_LD_12_RN_9_RD_20_1.png","C_Dist_200_LN_3_LD_6_RN_14_RD_20_1.png","C_Dist_200_LN_5_LD_10_RN_14_RD_20_1.png","C_Dist_200_LN_6_LD_12_RN_7_RD_10_1.png","C_Dist_200_LN_6_LD_20_RN_11_RD_22_1.png","C_Dist_200_LN_7_LD_15_RN_18_RD_27_1.png","C_Dist_200_LN_9_LD_30_RN_13_RD_26_1.png"]],"dist200_I":[["I_Dist_200_LN_1_LD_2_RN_3_RD_10_0.png","I_Dist_200_LN_1_LD_3_RN_2_RD_15_0.png","I_Dist_200_LN_3_LD_4_RN_11_RD_20_0.png","I_Dist_200_LN_4_LD_5_RN_6_RD_10_0.png","I_Dist_200_LN_4_LD_6_RN_14_RD_30_0.png","I_Dist_200_LN_7_LD_10_RN_12_RD_24_0.png","I_Dist_200_LN_7_LD_10_RN_14_RD_28_0.png","I_Dist_200_LN_7_LD_10_RN_8_RD_16_0.png"],["I_Dist_200_LN_11_LD_20_RN_3_RD_4_1.png","I_Dist_200_LN_14_LD_30_RN_12_RD_18_1.png","I_Dist_200_LN_14_LD_30_RN_6_RD_9_1.png","I_Dist_200_LN_3_LD_10_RN_1_RD_2_1.png","I_Dist_200_LN_4_LD_30_RN_1_RD_3_1.png","I_Dist_200_LN_6_LD_20_RN_3_RD_6_1.png","I_Dist_200_LN_7_LD_15_RN_4_RD_6_1.png","I_Dist_200_LN_7_LD_15_RN_6_RD_9_1.png","I_Dist_200_LN_9_LD_15_RN_8_RD_10_1.png"]],"dist200_S":[["E_Dist_200_LN_3_LD_6_RN_3_RD_10_0.png"],["E_Dist_200_LN_3_LD_10_RN_3_RD_6_1.png"]],"dist300_C":[["C_Dist_300_LN_11_LD_22_RN_1_RD_5_0.png","C_Dist_300_LN_11_LD_22_RN_2_RD_10_0.png","C_Dist_300_LN_11_LD_22_RN_4_RD_20_0.png","C_Dist_300_LN_12_LD_24_RN_2_RD_10_0.png","C_Dist_300_LN_18_LD_20_RN_9_RD_15_0.png","C_Dist_300_LN_20_LD_25_RN_13_RD_26_0.png","C_Dist_300_LN_20_LD_25_RN_14_RD_28_0.png","C_Dist_300_LN_20_LD_25_RN_5_RD_10_0.png","C_Dist_300_LN_20_LD_25_RN_8_RD_16_0.png","C_Dist_300_LN_20_LD_25_RN_9_RD_18_0.png","C_Dist_300_LN_24_LD_30_RN_2_RD_4_0.png","C_Dist_300_LN_24_LD_30_RN_8_RD_16_0.png","C_Dist_300_LN_3_LD_6_RN_2_RD_10_0.png","C_Dist_300_LN_4_LD_10_RN_1_RD_10_0.png","C_Dist_300_LN_4_LD_5_RN_2_RD_4_0.png","C_Dist_300_LN_8_LD_16_RN_1_RD_5_0.png","C_Dist_300_LN_9_LD_10_RN_3_RD_5_0.png"],["C_Dist_300_LN_1_LD_20_RN_7_RD_20_1.png","C_Dist_300_LN_1_LD_3_RN_19_RD_30_1.png","C_Dist_300_LN_1_LD_30_RN_8_RD_24_1.png","C_Dist_300_LN_1_LD_5_RN_11_RD_22_1.png","C_Dist_300_LN_1_LD_5_RN_3_RD_6_1.png","C_Dist_300_LN_1_LD_5_RN_6_RD_12_1.png","C_Dist_300_LN_2_LD_10_RN_12_RD_24_1.png","C_Dist_300_LN_2_LD_20_RN_10_RD_25_1.png","C_Dist_300_LN_3_LD_12_RN_11_RD_20_1.png","C_Dist_300_LN_3_LD_6_RN_4_RD_5_1.png","C_Dist_300_LN_4_LD_20_RN_13_RD_26_1.png","C_Dist_300_LN_5_LD_25_RN_6_RD_12_1.png","C_Dist_300_LN_5_LD_25_RN_7_RD_14_1.png","C_Dist_300_LN_7_LD_14_RN_20_RD_25_1.png","C_Dist_300_LN_8_LD_15_RN_10_RD_12_1.png"]],"dist300_I":[["I_Dist_300_LN_1_LD_2_RN_2_RD_10_0.png","I_Dist_300_LN_1_LD_2_RN_3_RD_15_0.png","I_Dist_300_LN_2_LD_4_RN_6_RD_30_0.png","I_Dist_300_LN_3_LD_6_RN_4_RD_20_0.png","I_Dist_300_LN_4_LD_5_RN_6_RD_12_0.png","I_Dist_300_LN_4_LD_5_RN_8_RD_16_0.png","I_Dist_300_LN_7_LD_10_RN_8_RD_20_0.png","I_Dist_300_LN_8_LD_10_RN_14_RD_28_0.png","I_Dist_300_LN_8_LD_10_RN_9_RD_18_0.png"],["I_Dist_300_LN_13_LD_26_RN_12_RD_15_1.png","I_Dist_300_LN_4_LD_20_RN_2_RD_4_1.png"]],"dist300_S":[["E_Dist_300_LN_9_LD_12_RN_9_RD_20_0.png"],["E_Dist_300_LN_18_LD_30_RN_18_RD_20_1.png","E_Dist_300_LN_3_LD_10_RN_3_RD_5_1.png","E_Dist_300_LN_9_LD_20_RN_9_RD_12_1.png"]],"dist500_C":[["C_Dist_500_LN_10_LD_13_RN_7_RD_26_0.png","C_Dist_500_LN_10_LD_15_RN_4_RD_24_0.png","C_Dist_500_LN_12_LD_16_RN_3_RD_12_0.png","C_Dist_500_LN_12_LD_18_RN_4_RD_24_0.png","C_Dist_500_LN_15_LD_18_RN_5_RD_15_0.png","C_Dist_500_LN_15_LD_20_RN_1_RD_4_0.png","C_Dist_500_LN_18_LD_27_RN_1_RD_6_0.png","C_Dist_500_LN_20_LD_24_RN_1_RD_3_0.png","C_Dist_500_LN_20_LD_24_RN_3_RD_9_0.png","C_Dist_500_LN_20_LD_24_RN_7_RD_21_0.png","C_Dist_500_LN_20_LD_28_RN_3_RD_14_0.png","C_Dist_500_LN_21_LD_28_RN_6_RD_24_0.png","C_Dist_500_LN_22_LD_28_RN_2_RD_7_0.png","C_Dist_500_LN_25_LD_30_RN_9_RD_27_0.png","C_Dist_500_LN_4_LD_6_RN_1_RD_6_0.png","C_Dist_500_LN_5_LD_6_RN_2_RD_6_0.png","C_Dist_500_LN_6_LD_9_RN_1_RD_6_0.png","C_Dist_500_LN_7_LD_10_RN_1_RD_5_0.png","C_Dist_500_LN_8_LD_12_RN_1_RD_6_0.png","C_Dist_500_LN_8_LD_12_RN_4_RD_24_0.png"],["C_Dist_500_LN_1_LD_4_RN_12_RD_16_1.png","C_Dist_500_LN_1_LD_4_RN_9_RD_12_1.png","C_Dist_500_LN_1_LD_9_RN_11_RD_18_1.png","C_Dist_500_LN_10_LD_24_RN_22_RD_24_1.png","C_Dist_500_LN_2_LD_12_RN_10_RD_15_1.png","C_Dist_500_LN_2_LD_12_RN_12_RD_18_1.png","C_Dist_500_LN_2_LD_12_RN_4_RD_6_1.png","C_Dist_500_LN_2_LD_24_RN_7_RD_12_1.png","C_Dist_500_LN_2_LD_5_RN_18_RD_20_1.png","C_Dist_500_LN_2_LD_5_RN_9_RD_10_1.png","C_Dist_500_LN_2_LD_8_RN_12_RD_16_1.png","C_Dist_500_LN_2_LD_8_RN_21_RD_28_1.png","C_Dist_500_LN_3_LD_10_RN_4_RD_5_1.png","C_Dist_500_LN_3_LD_12_RN_15_RD_20_1.png","C_Dist_500_LN_3_LD_30_RN_6_RD_10_1.png","C_Dist_500_LN_3_LD_8_RN_14_RD_16_1.png","C_Dist_500_LN_4_LD_16_RN_15_RD_20_1.png","C_Dist_500_LN_4_LD_24_RN_12_RD_18_1.png","C_Dist_500_LN_5_LD_14_RN_6_RD_7_1.png","C_Dist_500_LN_7_LD_21_RN_20_RD_24_1.png","C_Dist_500_LN_7_LD_28_RN_12_RD_16_1.png","C_Dist_500_LN_7_LD_28_RN_9_RD_12_1.png","C_Dist_500_LN_9_LD_27_RN_20_RD_24_1.png"]],"dist500_I":[["I_Dist_500_LN_2_LD_3_RN_4_RD_24_0.png","I_Dist_500_LN_5_LD_6_RN_6_RD_18_0.png","I_Dist_500_LN_7_LD_8_RN_9_RD_24_0.png"],["I_Dist_500_LN_7_LD_21_RN_5_RD_6_1.png"]],"dist500_S":[["E_Dist_500_LN_6_LD_8_RN_6_RD_24_0.png"],["E_Dist_500_LN_2_LD_12_RN_2_RD_3_1.png","E_Dist_500_LN_6_LD_24_RN_6_RD_8_1.png"]]}},{"start_time":1552327222752,"click_time":1552327225444,"finger_time":1552327224504,"fix_duration":408.3431700072799,"trial":1,"RT":1752,"MT":940,"sideResp":2,"stimulus":[],"xmouse":[798,798,798,798,798,798,798,798,798,798,798,798,798,798,798,798,798,798,798,798,798,798,798,798,798,798,798,798,798,798,798,798,798,798,798,798,798,798,798,798,798,798,798,798,798,798,798,798,798,798,798,798,798,798,798,798,798,798,798,798,798,798,798,798,798,798,798,798,798,798,798,798,798,798,798,798,798,798,798,798,798,798,798,798,798,797,793,788,778,765,732,715,692,665,647,623,621,621,621,621,621,621,621,621,621,621,621,621,621,621,621,621,621,623,642,700,741,778,820,866,966,1005,1029,1048,1053,1054,1054,1054,1054,1054,1055,1057,1059,1063,1067],"ymouse":[531,531,531,531,531,531,531,531,531,531,531,531,531,531,531,531,531,531,531,531,531,531,531,531,531,531,531,531,531,531,531,531,531,531,531,531,531,531,531,531,531,531,531,531,531,531,531,531,531,531,531,531,531,531,531,531,531,531,531,531,531,531,531,531,531,531,531,531,531,531,531,531,531,531,531,531,531,531,531,531,531,531,531,531,526,514,493,465,420,373,289,255,224,194,179,164,164,164,164,164,164,164,164,164,164,164,164,164,164,164,164,164,164,164,164,164,169,176,185,190,187,180,174,164,159,157,157,157,157,157,151,142,131,107,92],"timestamp_mouse":[13,38,50,72,92,111,130,151,172,191,210,232,252,271,290,310,331,351,372,391,411,430,451,471,490,511,530,550,571,590,612,631,650,671,691,712,730,751,770,791,810,832,852,872,891,911,931,950,971,991,1011,1031,1052,1072,1091,1111,1130,1152,1171,1192,1211,1231,1252,1272,1291,1310,1331,1350,1372,1391,1412,1431,1451,1471,1490,1510,1531,1551,1571,1591,1610,1631,1650,1671,1691,1711,1730,1752,1771,1791,1810,1831,1850,1870,1890,1911,1931,1950,1971,1991,2010,2030,2051,2070,2091,2111,2130,2150,2170,2192,2211,2231,2251,2271,2290,2310,2330,2351,2372,2391,2410,2430,2451,2471,2490,2511,2531,2551,2572,2591,2610,2630,2650,2672,2691],"xSR":741.5,"ySR":469.95,"xT1":424.9,"yT1":0,"xT2":1058.1,"yT2":0,"toosoon":0,"cond_shown":"Congruent","ratio_trial":300,"L_num":1,"L_den":30,"R_num":8,"R_den":24,"correct_side":2,"subjID":"DanielAlejandroTorresUparela19","gender":"0","school":"4","age":"8"},{"start_time":1552327227613,"click_time":1552327230123,"finger_time":1552327229263,"fix_duration":250,"trial":2,"RT":1650,"MT":860,"sideResp":1,"stimulus":[],"xmouse":[756,756,756,756,756,756,756,756,756,756,756,756,756,756,756,756,756,756,756,756,756,756,756,756,756,756,756,756,756,756,756,756,756,756,756,756,756,756,756,756,756,756,756,756,756,756,756,756,756,756,756,756,756,756,756,756,756,756,756,756,756,756,756,756,756,756,756,756,756,756,756,756,756,756,756,756,756,756,756,756,756,756,762,766,766,762,754,731,716,710,703,697,687,683,680,676,670,653,634,621,606,594,585,585,585,585,584,579,573,566,559,552,542,539,537,536,536,536,535,534,533,531,529,527,525,522],"ymouse":[510,510,510,510,510,510,510,510,510,510,510,510,510,510,510,510,510,510,510,510,510,510,510,510,510,510,510,510,510,510,510,510,510,510,510,510,510,510,510,510,510,510,510,510,510,510,510,510,510,510,510,510,510,510,510,510,510,510,510,510,510,510,510,510,510,510,510,510,510,510,510,510,510,510,510,510,510,510,510,510,510,501,462,429,395,360,320,253,219,205,194,185,173,170,168,165,160,145,128,117,104,93,86,86,86,86,86,86,86,84,84,83,83,83,83,83,83,83,82,80,76,72,66,63,60,56],"timestamp_mouse":[14,29,51,69,90,110,129,151,170,191,209,230,251,270,290,311,329,350,371,391,411,429,449,469,491,510,529,550,569,591,610,630,650,669,689,709,729,750,770,790,810,830,851,869,889,910,931,951,969,990,1009,1029,1051,1071,1090,1110,1129,1149,1169,1191,1211,1230,1251,1269,1289,1310,1329,1351,1370,1390,1410,1430,1450,1470,1491,1510,1531,1551,1571,1589,1610,1629,1650,1669,1690,1710,1731,1750,1769,1789,1811,1830,1849,1869,1890,1909,1929,1950,1971,1989,2010,2029,2051,2071,2091,2109,2130,2150,2169,2189,2211,2230,2250,2269,2290,2310,2330,2350,2370,2389,2410,2429,2449,2469,2489,2510],"xSR":741.5,"ySR":469.95,"xT1":424.9,"yT1":0,"xT2":1058.1,"yT2":0,"toosoon":0,"cond_shown":"Incongruent","ratio_trial":200,"L_num":4,"L_den":5,"R_num":6,"R_den":10,"correct_side":1,"subjID":"DanielAlejandroTorresUparela19","gender":"0","school":"4","age":"8"},{"start_time":1552327232522,"click_time":1552327234682,"finger_time":1552327234183,"fix_duration":615.0913611009471,"trial":3,"RT":1661,"MT":499,"sideResp":2,"stimulus":[],"xmouse":[789,789,789,789,789,789,789,789,789,789,789,789,789,789,789,789,789,789,789,789,789,789,789,789,789,789,789,789,789,789,789,789,789,789,789,789,789,789,789,789,789,789,789,789,789,789,789,789,789,789,789,789,789,789,789,789,789,789,789,789,789,789,789,789,789,789,789,789,789,789,789,789,789,789,789,789,789,789,791,794,803,808,814,837,853,871,890,911,957,978,996,1013,1024,1040,1046,1050,1052,1056,1056,1056,1056,1057,1057,1059,1060,1064,1069,1076,1085],"ymouse":[507,507,507,507,507,507,507,507,507,507,507,507,507,507,507,507,507,507,507,507,507,507,507,507,507,507,507,507,507,507,507,507,507,507,507,507,507,507,507,507,507,507,507,507,507,507,507,507,507,507,507,507,507,507,507,507,507,507,507,507,507,507,507,507,507,507,507,507,507,507,507,507,507,507,507,507,507,507,508,507,502,498,492,468,453,435,413,383,308,273,248,220,206,184,175,168,163,156,155,154,152,151,148,144,139,130,119,104,72],"timestamp_mouse":[9,21,41,62,80,101,121,141,160,182,200,221,242,260,280,302,320,341,362,381,400,422,442,460,480,501,522,541,561,581,602,621,641,662,681,701,720,741,762,782,801,821,841,862,882,900,920,942,961,981,1001,1021,1040,1060,1081,1101,1121,1142,1161,1181,1201,1221,1242,1260,1281,1300,1320,1341,1360,1382,1402,1421,1440,1461,1482,1501,1521,1540,1560,1581,1601,1621,1640,1661,1680,1700,1720,1740,1760,1781,1801,1821,1841,1860,1880,1901,1920,1942,1961,1981,2001,2020,2040,2060,2080,2100,2121,2140,2160],"xSR":741.5,"ySR":469.95,"xT1":424.9,"yT1":0,"xT2":1058.1,"yT2":0,"toosoon":0,"cond_shown":"Incongruent","ratio_trial":300,"L_num":4,"L_den":20,"R_num":2,"R_den":4,"correct_side":2,"subjID":"DanielAlejandroTorresUparela19","gender":"0","school":"4","age":"8"},{"start_time":1552327237497,"click_time":1552327239884,"finger_time":1552327238862,"fix_duration":1293.7117825430998,"trial":4,"RT":1365,"MT":1022,"sideResp":1,"stimulus":[],"xmouse":[749,749,749,749,749,749,749,749,749,749,749,749,749,749,749,749,749,749,749,749,749,749,749,749,749,749,749,749,749,749,749,749,749,749,749,749,749,749,749,749,749,749,749,749,749,749,749,749,749,749,749,749,749,749,749,749,749,749,749,749,749,749,749,749,749,751,760,782,807,833,887,903,915,923,931,933,936,941,952,958,990,1004,1013,1019,1022,1022,1022,1022,1022,1022,1022,1022,1022,1022,1022,1022,1022,1022,1018,985,964,940,918,897,871,858,847,835,823,804,798,790,775,758,713,683,648,607,563,482],"ymouse":[498,498,498,498,498,498,498,498,498,498,498,498,498,498,498,498,498,498,498,498,498,498,498,498,498,498,498,498,498,498,498,498,498,498,498,498,498,498,498,498,498,498,498,498,498,498,498,498,498,498,498,498,498,498,498,498,498,498,498,498,498,498,498,498,498,498,494,480,464,450,419,410,403,397,391,389,387,383,373,368,338,326,316,309,304,304,304,304,304,304,304,304,304,304,304,304,301,298,291,265,253,242,232,226,220,219,218,218,218,214,213,209,201,191,166,148,124,97,69,8],"timestamp_mouse":[10,43,46,65,87,106,127,145,167,187,207,226,246,266,285,307,326,346,365,385,407,426,446,466,487,506,527,546,566,586,606,626,645,666,685,706,725,746,767,787,805,826,846,867,887,906,926,945,965,986,1007,1027,1047,1066,1086,1106,1125,1146,1166,1185,1207,1227,1246,1267,1285,1306,1326,1345,1365,1386,1405,1425,1446,1466,1486,1506,1526,1545,1565,1585,1606,1625,1646,1666,1686,1705,1725,1746,1765,1787,1806,1826,1846,1865,1886,1905,1925,1945,1967,1986,2006,2025,2046,2065,2086,2105,2127,2147,2166,2187,2207,2225,2246,2266,2286,2306,2325,2345,2367,2387],"xSR":741.5,"ySR":469.95,"xT1":424.9,"yT1":0,"xT2":1058.1,"yT2":0,"toosoon":0,"cond_shown":"Congruent","ratio_trial":300,"L_num":4,"L_den":20,"R_num":13,"R_den":26,"correct_side":2,"subjID":"DanielAlejandroTorresUparela19","gender":"0","school":"4","age":"8"},{"start_time":1552327245554,"click_time":1552327247723,"finger_time":1552327247443,"fix_duration":1449.6540222444241,"trial":5,"RT":1889,"MT":280,"sideResp":2,"stimulus":[],"xmouse":[782,782,782,782,782,782,782,782,782,782,782,782,782,782,782,782,782,782,782,782,782,782,782,782,782,782,782,782,782,782,782,782,782,782,782,782,782,782,782,782,782,782,782,782,782,782,782,782,782,782,782,782,782,782,782,782,782,782,782,782,782,782,782,782,782,782,782,782,782,782,782,782,782,782,782,782,782,782,782,782,782,782,782,782,782,782,782,782,782,782,785,791,802,811,816,825,834,862,877,891,904,913,930,944,956,970,986,1046,1144],"ymouse":[540,540,540,540,540,540,540,540,540,540,540,540,540,540,540,540,540,540,540,540,540,540,540,540,540,540,540,540,540,540,540,540,540,540,540,540,540,540,540,540,540,540,540,540,540,540,540,540,540,540,540,540,540,540,540,540,540,540,540,540,540,540,540,540,540,540,540,540,540,540,540,540,540,540,540,540,540,540,540,540,540,540,540,540,540,540,540,540,536,531,522,510,487,473,462,449,433,391,372,352,334,321,297,276,263,245,226,165,93],"timestamp_mouse":[10,28,57,69,89,109,130,149,168,189,210,229,249,270,288,309,330,350,369,389,410,430,449,468,488,509,529,550,569,589,609,630,650,668,688,709,729,748,769,789,810,829,850,869,890,910,929,948,970,989,1008,1029,1049,1069,1088,1109,1129,1149,1170,1189,1209,1229,1248,1269,1289,1309,1328,1349,1368,1390,1410,1428,1449,1469,1488,1509,1530,1550,1570,1588,1609,1630,1648,1670,1689,1710,1729,1748,1768,1790,1809,1829,1848,1869,1889,1909,1929,1950,1968,1989,2009,2029,2049,2069,2089,2109,2129,2149,2169],"xSR":741.5,"ySR":469.95,"xT1":424.9,"yT1":0,"xT2":1058.1,"yT2":0,"toosoon":0,"cond_shown":"Incongruent","ratio_trial":100,"L_num":12,"L_den":24,"R_num":9,"R_den":15,"correct_side":2,"subjID":"DanielAlejandroTorresUparela19","gender":"0","school":"4","age":"8"},{"start_time":1552327250475,"click_time":1552327251922,"finger_time":1552327251362,"fix_duration":250,"trial":6,"RT":887,"MT":560,"sideResp":2,"stimulus":[],"xmouse":[750,752,752,753,753,753,753,753,753,753,753,753,753,753,753,753,753,753,753,753,753,753,753,753,753,753,753,753,753,753,753,753,753,753,753,753,753,753,753,753,758,778,800,826,887,929,960,996,1006,1015,1025,1034,1051,1059,1065,1073,1082,1087,1090,1094,1097,1098,1099,1099,1101,1105,1110,1132,1144,1152,1153,1154,1154],"ymouse":[520,519,519,518,518,518,518,518,518,518,518,518,518,518,518,518,518,518,518,518,518,518,518,518,518,518,518,518,518,518,518,518,518,518,518,518,518,518,518,518,517,511,504,493,469,451,437,416,407,394,380,366,341,329,317,298,279,271,264,257,253,248,246,244,239,228,214,167,137,118,107,101,91],"timestamp_mouse":[13,45,48,68,88,108,128,147,168,187,208,228,248,268,288,309,328,349,369,388,408,429,449,469,488,508,529,549,568,587,608,628,648,667,688,707,729,747,768,789,808,829,848,868,887,908,928,948,969,988,1008,1028,1047,1068,1087,1107,1129,1148,1168,1189,1208,1230,1247,1267,1288,1309,1328,1348,1368,1388,1407,1429,1447],"xSR":741.5,"ySR":469.95,"xT1":424.9,"yT1":0,"xT2":1058.1,"yT2":0,"toosoon":0,"cond_shown":"Congruent","ratio_trial":300,"L_num":1,"L_den":3,"R_num":19,"R_den":30,"correct_side":2,"subjID":"DanielAlejandroTorresUparela19","gender":"0","school":"4","age":"8"},{"start_time":1552327254692,"click_time":1552327256763,"finger_time":1552327256123,"fix_duration":728.744119733428,"trial":7,"RT":1431,"MT":640,"sideResp":1,"stimulus":[],"xmouse":[772,772,772,772,772,772,772,772,772,772,772,772,772,772,772,772,772,772,772,772,772,772,772,772,772,772,772,772,772,772,772,772,772,772,772,772,773,776,777,779,780,782,782,782,782,782,782,782,782,782,782,782,782,782,782,782,782,782,782,782,782,782,782,782,782,782,782,782,782,782,783,784,788,796,798,798,777,748,730,730,730,730,730,730,730,730,730,730,730,730,730,340,340,340,344,349,362,368,374,381,387,408,417,427],"ymouse":[498,498,498,498,498,498,498,498,498,498,498,498,498,498,498,498,498,498,498,498,498,498,498,498,498,498,498,498,498,498,498,498,498,498,498,498,498,496,496,495,494,493,492,492,492,492,492,492,492,492,492,492,492,492,492,492,492,492,492,492,492,492,492,492,492,492,492,492,492,492,491,468,431,365,289,210,82,36,11,11,11,11,11,11,11,11,11,11,11,11,11,7,24,41,55,67,83,87,89,91,91,85,77,72],"timestamp_mouse":[13,35,52,71,91,111,132,152,172,191,210,232,251,270,290,312,331,351,371,390,411,432,451,472,491,510,532,551,571,591,610,630,651,672,691,712,731,750,771,790,812,830,851,871,892,912,932,951,971,991,1010,1031,1051,1072,1090,1112,1132,1158,1172,1190,1212,1232,1251,1272,1292,1312,1332,1351,1370,1392,1412,1431,1450,1471,1492,1511,1531,1550,1572,1591,1612,1630,1651,1672,1692,1712,1730,1751,1771,1791,1811,1831,1851,1872,1891,1911,1931,1951,1971,1990,2011,2031,2051,2071],"xSR":741.5,"ySR":469.95,"xT1":424.9,"yT1":0,"xT2":1058.1,"yT2":0,"toosoon":0,"cond_shown":"Incongruent","ratio_trial":300,"L_num":8,"L_den":10,"R_num":14,"R_den":28,"correct_side":1,"subjID":"DanielAlejandroTorresUparela19","gender":"0","school":"4","age":"8"},{"start_time":1552327260641,"click_time":1552327263183,"finger_time":1552327262342,"fix_duration":555.0722475304547,"trial":8,"RT":1701,"MT":841,"sideResp":2,"stimulus":[],"xmouse":[822,822,818,816,815,815,815,815,815,815,815,814,812,811,810,809,809,808,808,808,808,808,808,808,808,808,808,808,808,808,808,808,808,808,808,808,808,808,808,808,808,808,808,808,808,808,808,808,808,808,808,808,808,808,808,808,808,808,808,808,808,808,808,808,808,808,808,808,808,808,808,808,808,808,808,808,808,808,808,809,810,818,827,838,866,883,899,916,932,961,974,990,999,1007,1016,1017,1017,1017,1017,1017,1023,1029,1035,1039,1045,1048,1048,1049,1051,1056,1057,1057,1057,1057,1057,1057,1057,1057,1057,1058,1058,1059,1060,1060,1060,1060,1060],"ymouse":[502,502,503,503,503,503,503,503,503,503,503,504,505,505,505,506,506,506,506,506,506,506,506,506,506,506,506,506,506,506,506,506,506,506,506,506,506,506,506,506,506,506,506,506,506,506,506,506,506,506,506,506,506,506,506,506,506,506,506,506,506,506,506,506,506,506,506,506,506,506,506,506,506,506,506,506,506,506,506,506,505,498,490,479,446,423,401,377,354,308,284,247,228,215,200,200,200,200,200,196,185,173,161,151,135,131,128,125,120,110,107,107,107,107,107,107,107,107,106,104,103,101,100,100,100,100,98],"timestamp_mouse":[1,42,63,83,102,122,142,161,182,201,223,242,262,282,302,323,342,361,382,403,422,443,462,483,502,523,543,562,583,601,622,642,661,681,703,721,743,762,781,803,823,841,862,882,901,921,943,962,981,1002,1022,1042,1062,1082,1103,1122,1141,1162,1183,1203,1221,1242,1262,1282,1303,1321,1341,1363,1383,1403,1423,1441,1462,1482,1503,1523,1541,1563,1583,1602,1623,1641,1663,1682,1701,1721,1741,1762,1782,1801,1822,1841,1861,1882,1902,1923,1942,1962,1983,2001,2022,2041,2061,2083,2102,2122,2143,2163,2183,2201,2221,2241,2262,2283,2302,2322,2343,2361,2381,2401,2423,2443,2463,2483,2502,2522,2542],"xSR":741.5,"ySR":469.95,"xT1":424.9,"yT1":0,"xT2":1058.1,"yT2":0,"toosoon":0,"cond_shown":"Incongruent","ratio_trial":100,"L_num":12,"L_den":24,"R_num":9,"R_den":15,"correct_side":2,"subjID":"DanielAlejandroTorresUparela19","gender":"0","school":"4","age":"8"},{"start_time":1552327266229,"click_time":1552327268384,"finger_time":1552327267763,"fix_duration":344.06406740170627,"trial":9,"RT":1534,"MT":621,"sideResp":2,"stimulus":[],"xmouse":[764,764,764,764,764,764,764,764,764,764,767,768,768,768,768,768,768,768,768,768,768,768,768,768,768,768,768,768,768,768,768,768,768,768,768,768,768,768,768,768,768,768,768,768,768,768,768,768,768,768,768,768,768,768,768,768,768,768,768,768,768,768,768,768,768,768,768,768,768,768,768,766,763,757,753,742,740,738,737,737,737,737,737,737,737,737,737,744,753,769,799,844,864,878,892,903,923,934,947,950,963,986,1000,1013,1028,1055,1063,1066],"ymouse":[522,522,522,522,522,522,522,522,522,522,520,519,519,519,519,519,519,519,519,519,519,519,519,519,519,519,519,519,519,519,519,519,519,519,519,519,519,519,519,519,519,519,519,519,519,519,519,519,519,519,519,519,519,519,519,519,519,519,519,519,519,519,519,519,519,519,519,519,519,519,519,518,516,513,510,502,501,500,500,500,500,500,500,500,500,500,498,494,486,474,447,405,377,351,323,298,258,240,216,208,189,161,146,133,123,106,101,99],"timestamp_mouse":[14,34,55,74,94,115,134,155,174,193,213,234,254,274,295,313,335,355,374,393,415,433,454,474,495,514,535,555,575,594,615,633,655,675,695,714,734,754,775,795,814,835,854,874,893,915,934,953,973,993,1015,1035,1054,1074,1093,1115,1135,1154,1174,1194,1214,1233,1253,1274,1294,1314,1334,1354,1374,1394,1415,1435,1454,1474,1493,1514,1534,1554,1575,1594,1614,1633,1654,1675,1694,1714,1733,1754,1773,1795,1814,1833,1853,1874,1893,1915,1933,1954,1973,1994,2014,2035,2053,2073,2093,2116,2134,2155],"xSR":741.5,"ySR":469.95,"xT1":424.9,"yT1":0,"xT2":1058.1,"yT2":0,"toosoon":0,"cond_shown":"Congruent","ratio_trial":300,"L_num":1,"L_den":20,"R_num":7,"R_den":20,"correct_side":2,"subjID":"DanielAlejandroTorresUparela19","gender":"0","school":"4","age":"8"},{"start_time":1552327271117,"click_time":1552327273644,"finger_time":1552327273023,"fix_duration":1291.4177871293184,"trial":10,"RT":1906,"MT":621,"sideResp":2,"stimulus":[],"xmouse":[782,782,782,782,782,782,782,782,782,782,782,782,782,782,782,782,782,782,782,782,782,782,782,782,782,782,782,782,782,782,782,782,782,782,782,782,782,782,782,782,782,782,782,782,782,782,782,782,782,782,782,782,782,782,782,782,782,782,782,782,782,782,782,782,782,782,782,782,782,782,782,782,782,782,782,782,782,782,782,782,782,782,783,785,788,790,791,792,793,794,794,798,814,825,836,849,861,884,895,903,911,917,924,926,928,930,932,937,942,948,953,963,986,994,1002,1011,1019,1031,1035,1038,1040,1042,1044,1048,1053,1058,1061],"ymouse":[544,544,544,544,544,544,544,544,544,544,544,544,544,544,544,544,544,544,544,544,544,544,544,544,544,544,544,544,544,544,544,544,544,544,544,544,544,544,544,544,544,544,544,544,544,544,544,544,544,544,544,544,544,544,544,544,544,544,544,544,544,544,544,544,544,544,544,544,544,544,544,544,544,544,544,544,544,544,544,544,544,544,544,542,536,533,531,527,526,524,522,518,498,484,473,457,442,410,397,385,374,366,354,347,343,338,334,322,314,303,293,280,248,237,225,215,203,185,178,172,163,157,154,142,124,106,94],"timestamp_mouse":[14,26,46,67,85,105,125,145,166,187,206,225,247,266,286,306,327,345,365,385,407,427,445,467,486,505,525,547,565,587,605,625,645,665,687,706,725,747,767,786,806,825,847,865,887,906,926,947,966,986,1006,1026,1046,1066,1087,1106,1126,1145,1166,1187,1206,1225,1247,1266,1286,1306,1326,1345,1366,1387,1407,1427,1446,1465,1486,1507,1526,1546,1566,1586,1607,1626,1646,1667,1685,1705,1726,1745,1765,1786,1805,1826,1846,1866,1885,1906,1926,1945,1965,1986,2006,2026,2046,2066,2087,2106,2125,2146,2165,2186,2205,2225,2246,2267,2285,2307,2326,2346,2367,2386,2407,2427,2446,2465,2485,2506,2527],"xSR":741.5,"ySR":469.95,"xT1":424.9,"yT1":0,"xT2":1058.1,"yT2":0,"toosoon":0,"cond_shown":"Congruent","ratio_trial":100,"L_num":6,"L_den":20,"R_num":5,"R_den":25,"correct_side":1,"subjID":"DanielAlejandroTorresUparela19","gender":"0","school":"4","age":"8"},{"start_time":1552327275965,"click_time":1552327277882,"finger_time":1552327277424,"fix_duration":899.8703057653076,"trial":11,"RT":1459,"MT":458,"sideResp":2,"stimulus":[],"xmouse":[788,788,788,788,788,788,788,788,788,788,788,787,787,787,787,787,787,787,787,787,787,787,787,787,787,787,787,787,787,787,787,787,787,787,787,787,787,787,787,787,787,787,787,787,787,787,787,787,787,787,787,787,787,787,787,787,787,787,787,787,787,787,787,787,787,787,787,787,787,787,787,789,798,814,849,938,977,1006,1023,1041,1044,1047,1047,1048,1049,1054,1056,1059,1060,1062,1063,1064,1064,1064,1066,1069,1076],"ymouse":[487,487,487,487,487,487,487,487,487,487,487,487,487,487,487,487,487,487,487,487,487,487,487,487,487,487,487,487,487,487,487,487,487,487,487,487,487,487,487,487,487,487,487,487,487,487,487,487,487,487,487,487,487,487,487,487,487,487,487,487,487,487,487,487,487,487,487,487,487,487,487,484,472,450,408,303,257,225,203,177,166,157,153,151,146,136,132,127,126,122,120,119,118,117,113,107,88],"timestamp_mouse":[1,19,37,59,77,99,118,138,158,179,198,217,238,259,279,299,317,338,357,378,398,417,437,459,478,498,518,539,559,579,598,617,639,658,678,698,717,737,758,779,799,819,839,859,878,898,918,938,957,977,999,1018,1038,1058,1077,1099,1119,1138,1158,1178,1198,1219,1238,1258,1279,1299,1318,1338,1357,1379,1399,1418,1437,1459,1477,1500,1517,1538,1558,1578,1598,1617,1638,1657,1677,1698,1718,1737,1757,1778,1798,1818,1838,1858,1879,1898,1917],"xSR":741.5,"ySR":469.95,"xT1":424.9,"yT1":0,"xT2":1058.1,"yT2":0,"toosoon":0,"cond_shown":"Congruent","ratio_trial":300,"L_num":3,"L_den":12,"R_num":11,"R_den":20,"correct_side":2,"subjID":"DanielAlejandroTorresUparela19","gender":"0","school":"4","age":"8"},{"start_time":1552327284875,"click_time":1552327287024,"finger_time":1552327286703,"fix_duration":250,"trial":12,"RT":1828,"MT":321,"sideResp":2,"stimulus":[],"xmouse":[750,750,750,750,750,750,750,750,750,750,750,750,750,750,750,750,750,750,750,750,750,750,750,750,750,750,750,750,750,750,750,750,750,750,750,750,750,750,750,750,750,750,750,750,750,750,750,750,750,750,750,750,750,750,750,750,750,750,750,750,750,750,750,750,750,750,750,750,750,750,750,750,750,750,750,750,750,750,750,750,750,750,750,750,750,754,761,773,798,820,841,882,903,921,938,967,980,994,1015,1028,1054,1067,1082,1095,1108,1131,1141,1149],"ymouse":[551,551,551,551,551,551,551,551,551,551,551,551,551,551,551,551,551,551,551,551,551,551,551,551,551,551,551,551,551,551,551,551,551,551,551,551,551,551,551,551,551,551,551,551,551,551,551,551,551,551,551,551,551,551,551,551,551,551,551,551,551,551,551,551,551,551,551,551,551,551,551,551,551,551,551,551,551,551,551,551,551,551,551,551,551,548,541,530,510,491,474,438,419,403,388,356,340,323,298,284,250,232,212,191,171,133,113,95],"timestamp_mouse":[21,28,47,68,89,108,129,148,168,188,208,227,248,267,289,308,328,347,367,389,407,427,449,469,487,509,529,547,568,589,608,629,647,668,687,709,727,747,767,789,808,828,849,867,888,907,928,949,968,989,1009,1029,1048,1068,1089,1108,1129,1149,1168,1189,1209,1227,1247,1269,1288,1308,1329,1348,1367,1388,1407,1428,1448,1469,1488,1508,1527,1547,1569,1589,1608,1627,1648,1669,1688,1708,1728,1748,1768,1789,1807,1828,1848,1869,1888,1909,1928,1948,1967,1989,2010,2027,2047,2068,2087,2110,2129,2149],"xSR":741.5,"ySR":469.95,"xT1":424.9,"yT1":0,"xT2":1058.1,"yT2":0,"toosoon":0,"cond_shown":"Congruent","ratio_trial":200,"L_num":3,"L_den":12,"R_num":9,"R_den":20,"correct_side":2,"subjID":"DanielAlejandroTorresUparela19","gender":"0","school":"4","age":"8"},{"start_time":1552327295624,"click_time":1552327297022,"finger_time":1552327296824,"fix_duration":1197.2741378810447,"trial":13,"RT":1200,"MT":198,"sideResp":1,"stimulus":[],"xmouse":[773,773,773,773,773,773,773,773,773,773,773,773,773,773,773,773,773,773,773,773,773,773,773,773,773,773,773,773,773,773,773,773,773,773,773,773,773,773,773,773,773,773,773,773,773,773,773,773,773,773,773,773,773,773,773,773,773,772,771,769,759,750,738,717,698,642,614,570,540,511,463],"ymouse":[512,512,512,512,512,512,512,512,512,512,512,512,512,512,512,512,512,512,512,512,512,512,512,512,512,512,512,512,512,512,512,512,512,512,512,512,512,512,512,512,512,512,512,512,512,512,512,512,512,512,512,512,512,512,512,512,512,508,505,494,464,442,420,390,365,300,268,214,177,139,77],"timestamp_mouse":[1,19,39,60,80,99,118,139,160,180,198,220,239,258,279,299,320,339,359,380,399,418,439,459,479,500,519,538,560,580,600,618,639,660,679,700,720,739,759,778,800,819,838,859,879,900,920,939,958,980,999,1019,1038,1060,1079,1100,1119,1139,1160,1179,1200,1218,1238,1259,1279,1299,1319,1338,1359,1378,1398],"xSR":741.5,"ySR":469.95,"xT1":424.9,"yT1":0,"xT2":1058.1,"yT2":0,"toosoon":0,"cond_shown":"Congruent","ratio_trial":200,"L_num":12,"L_den":15,"R_num":6,"R_den":10,"correct_side":1,"subjID":"DanielAlejandroTorresUparela19","gender":"0","school":"4","age":"8"},{"start_time":1552327298849,"click_time":1552327300763,"finger_time":1552327300402,"fix_duration":344.6195659343827,"trial":14,"RT":1553,"MT":361,"sideResp":1,"stimulus":[],"xmouse":[754,754,754,754,753,753,753,753,752,752,752,752,752,752,752,752,752,752,752,752,752,752,752,752,752,752,752,752,752,752,752,752,752,752,752,752,752,752,752,752,752,751,751,751,751,751,751,751,751,751,751,751,751,751,751,751,751,751,751,751,751,751,751,751,751,751,751,751,751,751,751,751,751,751,752,754,756,756,756,752,746,741,735,718,708,698,687,677,650,634,617,599,582,542,527,512],"ymouse":[546,546,546,546,547,547,547,547,547,547,547,547,547,547,547,547,547,547,547,547,547,547,547,547,547,547,547,547,547,547,547,547,547,547,547,547,547,547,547,547,547,547,547,547,547,547,547,547,547,547,547,547,547,547,547,547,547,547,547,547,547,547,547,547,547,547,547,547,547,547,547,547,547,536,519,499,482,463,429,411,392,376,358,317,301,286,269,249,203,176,145,115,88,54,50,49],"timestamp_mouse":[13,41,55,75,94,114,135,153,174,195,214,233,254,274,295,315,334,354,375,394,414,433,455,474,494,514,533,553,574,595,614,633,654,674,695,715,735,753,773,793,815,835,853,875,895,915,933,955,975,994,1013,1034,1054,1074,1095,1114,1134,1155,1174,1195,1215,1234,1255,1274,1294,1315,1334,1354,1373,1394,1413,1434,1455,1474,1494,1513,1534,1553,1575,1593,1614,1633,1654,1674,1693,1714,1733,1753,1774,1793,1813,1833,1853,1874,1893,1914],"xSR":741.5,"ySR":469.95,"xT1":424.9,"yT1":0,"xT2":1058.1,"yT2":0,"toosoon":0,"cond_shown":"Congruent","ratio_trial":100,"L_num":9,"L_den":15,"R_num":8,"R_den":16,"correct_side":1,"subjID":"DanielAlejandroTorresUparela19","gender":"0","school":"4","age":"8"},{"start_time":1552327305708,"click_time":1552327307504,"finger_time":1552327306442,"fix_duration":1345.6248635230595,"trial":15,"RT":734,"MT":1062,"sideResp":1,"stimulus":[],"xmouse":[786,786,786,786,786,786,786,786,786,786,786,786,786,786,786,786,786,786,786,786,786,786,786,786,786,786,786,786,786,786,786,786,786,792,797,812,862,897,955,999,1028,1061,1065,1065,1065,1065,1065,1065,1065,1065,1065,1065,1065,1065,1065,1065,1065,1065,1065,1065,1065,1065,1065,1065,1064,1063,1054,1045,1032,1013,985,879,825,795,776,770,766,765,765,765,763,754,746,740,725,706,639,572,531,494],"ymouse":[516,516,516,516,516,516,516,516,516,516,516,516,516,516,516,516,516,516,516,516,516,516,516,516,516,516,516,516,516,516,516,516,514,506,499,479,410,368,325,294,276,257,256,256,256,256,256,256,256,256,256,256,256,256,256,256,256,256,256,256,256,256,256,256,256,257,257,253,249,248,248,248,248,248,248,248,250,251,251,251,252,250,244,240,230,214,148,88,61,44],"timestamp_mouse":[16,35,54,74,94,115,134,155,175,195,214,235,255,275,296,316,336,354,375,396,415,436,456,476,494,514,534,555,574,595,615,635,654,674,694,714,734,755,775,795,814,834,854,875,894,915,935,956,976,995,1016,1036,1055,1075,1095,1116,1134,1154,1175,1194,1216,1236,1256,1275,1295,1314,1335,1354,1374,1394,1415,1435,1454,1474,1495,1515,1535,1556,1576,1595,1615,1635,1654,1675,1694,1714,1734,1755,1774,1796],"xSR":741.5,"ySR":469.95,"xT1":424.9,"yT1":0,"xT2":1058.1,"yT2":0,"toosoon":0,"cond_shown":"Congruent","ratio_trial":300,"L_num":20,"L_den":25,"R_num":14,"R_den":28,"correct_side":1,"subjID":"DanielAlejandroTorresUparela19","gender":"0","school":"4","age":"8"},{"start_time":1552327309294,"click_time":1552327310963,"finger_time":1552327310382,"fix_duration":530.7136276971139,"trial":16,"RT":1088,"MT":581,"sideResp":1,"stimulus":[],"xmouse":[761,761,761,761,761,761,761,761,761,761,761,761,761,761,761,761,761,761,761,761,761,761,761,761,761,761,761,761,761,761,761,761,761,761,761,761,761,761,762,763,764,764,765,765,765,765,765,766,768,769,773,777,783,791,791,791,788,784,772,762,750,736,707,693,672,665,642,623,587,572,560,552,547,545,545,544,543,542,539,536,534,531,527,520],"ymouse":[553,553,553,553,553,553,553,553,553,553,553,553,553,553,553,553,553,553,553,553,553,553,553,553,553,553,553,553,553,553,553,553,553,553,553,553,553,553,552,551,551,550,550,549,549,549,549,548,546,543,536,527,513,476,457,437,414,404,387,376,363,346,312,294,267,257,227,205,159,142,126,115,104,100,99,97,94,92,86,81,77,71,66,59],"timestamp_mouse":[9,30,65,69,89,108,129,150,169,190,208,230,249,270,290,308,329,350,370,390,409,430,450,469,489,510,529,549,570,589,608,628,648,674,688,708,728,748,769,789,809,828,850,868,888,909,929,949,970,988,1010,1028,1048,1069,1088,1108,1129,1148,1169,1188,1209,1228,1249,1269,1292,1309,1328,1349,1369,1389,1410,1428,1450,1468,1489,1509,1528,1548,1569,1589,1608,1628,1648,1668],"xSR":741.5,"ySR":469.95,"xT1":424.9,"yT1":0,"xT2":1058.1,"yT2":0,"toosoon":0,"cond_shown":"Congruent","ratio_trial":300,"L_num":20,"L_den":25,"R_num":9,"R_den":18,"correct_side":1,"subjID":"DanielAlejandroTorresUparela19","gender":"0","school":"4","age":"8"},{"start_time":1552327313214,"click_time":1552327315663,"finger_time":1552327314743,"fix_duration":250,"trial":17,"RT":1529,"MT":920,"sideResp":1,"stimulus":[],"xmouse":[801,801,801,801,801,801,801,801,801,801,801,801,801,801,801,801,801,801,801,801,801,801,801,801,801,801,801,801,801,801,801,801,801,801,801,801,801,801,801,801,801,801,801,801,801,801,801,801,801,801,801,801,801,801,801,801,801,801,801,801,800,799,797,797,796,796,796,796,796,796,795,793,788,784,781,775,767,748,736,730,728,728,728,728,728,728,728,728,728,730,730,731,731,728,721,712,701,655,618,618,618,618,618,618,618,618,618,618,618,618,618,618,618,618,618,618,618,618,618,618,618,618,491],"ymouse":[547,547,547,547,547,547,547,547,547,547,547,547,547,547,547,547,547,547,545,545,544,544,544,544,544,544,544,544,544,544,544,544,544,544,544,544,544,544,544,544,544,544,544,544,544,544,544,544,544,544,544,544,544,544,544,544,544,544,544,543,541,538,534,532,531,531,531,531,531,531,530,527,513,501,488,472,454,411,382,369,364,363,363,363,363,363,363,363,359,345,333,318,283,265,247,226,201,93,15,15,15,15,15,15,15,15,15,15,15,15,15,15,15,15,15,15,15,15,15,15,15,15,4],"timestamp_mouse":[14,32,48,69,88,108,130,148,168,190,208,228,249,269,288,308,330,349,369,388,409,429,450,469,490,509,528,549,568,589,622,630,649,673,690,708,728,749,770,789,809,830,850,868,890,909,928,948,969,988,1009,1029,1048,1069,1090,1109,1128,1150,1168,1188,1209,1229,1250,1268,1288,1310,1330,1350,1369,1389,1409,1428,1448,1469,1488,1508,1529,1548,1568,1588,1608,1629,1649,1669,1688,1708,1730,1748,1768,1788,1808,1828,1849,1868,1888,1908,1929,1948,1969,1989,2008,2030,2048,2069,2088,2108,2129,2150,2169,2189,2210,2229,2249,2268,2288,2310,2330,2348,2370,2389,2409,2429,2448],"xSR":741.5,"ySR":469.95,"xT1":424.9,"yT1":0,"xT2":1058.1,"yT2":0,"toosoon":0,"cond_shown":"Congruent","ratio_trial":300,"L_num":11,"L_den":22,"R_num":4,"R_den":20,"correct_side":1,"subjID":"DanielAlejandroTorresUparela19","gender":"0","school":"4","age":"8"},{"start_time":1552327318140,"click_time":1552327320042,"finger_time":1552327318963,"fix_duration":1255.7978381720043,"trial":18,"RT":823,"MT":1079,"sideResp":1,"stimulus":[],"xmouse":[757,757,757,757,757,757,757,757,757,757,757,757,757,757,757,757,757,757,757,757,757,757,757,757,757,757,757,757,757,757,757,757,757,757,757,757,757,757,757,756,755,741,736,731,728,727,725,725,725,725,725,725,725,725,725,725,722,716,708,691,685,665,642,631,621,611,592,584,579,569,567,558,547,542,534,527,515,511,505,502,500,500,500,500,500,500,500,500,500,500,500,500,500,500,498,496],"ymouse":[556,556,556,556,556,556,556,556,556,556,556,556,556,556,556,556,556,556,556,556,556,556,556,556,556,556,556,556,556,556,556,556,556,556,556,556,556,549,542,522,515,464,444,428,419,415,413,413,413,413,413,413,413,413,413,413,411,404,393,371,363,336,302,286,271,259,234,225,219,209,207,199,186,179,172,165,146,136,127,122,118,118,118,118,118,118,118,118,118,118,118,118,118,115,104,94],"timestamp_mouse":[9,23,43,73,83,104,123,143,162,182,203,223,244,263,283,303,323,343,362,383,404,422,442,463,482,502,524,542,563,582,603,622,642,662,684,702,723,743,763,782,804,823,844,862,883,902,923,942,963,983,1004,1023,1043,1064,1084,1102,1123,1142,1163,1182,1203,1223,1244,1263,1284,1303,1324,1342,1362,1382,1403,1423,1444,1463,1483,1504,1524,1542,1562,1582,1603,1623,1643,1663,1682,1702,1724,1743,1763,1783,1802,1823,1843,1862,1883,1902],"xSR":741.5,"ySR":469.95,"xT1":424.9,"yT1":0,"xT2":1058.1,"yT2":0,"toosoon":0,"cond_shown":"Incongruent","ratio_trial":200,"L_num":3,"L_den":10,"R_num":1,"R_den":2,"correct_side":2,"subjID":"DanielAlejandroTorresUparela19","gender":"0","school":"4","age":"8"},{"start_time":1552327324217,"click_time":1552327326984,"finger_time":1552327326083,"fix_duration":1212.7032415958968,"trial":19,"RT":1866,"MT":901,"sideResp":2,"stimulus":[],"xmouse":[784,784,784,784,784,784,784,784,784,784,784,784,784,784,784,784,784,784,784,784,784,784,784,784,784,784,784,784,784,784,784,784,784,784,784,784,784,784,784,784,784,784,784,784,784,784,784,784,784,784,784,784,784,784,784,784,784,784,784,784,784,784,784,784,784,784,784,784,784,784,784,784,784,784,784,784,784,784,784,784,784,784,784,784,784,784,784,783,789,797,807,816,825,849,860,872,886,904,955,981,1003,1022,1037,1055,1059,1061,1062,1064,1069,1072,1075,1082,1093,1121,1133,1145,1151,1157,1162,1165,1165,1167,1168,1171,1172,1172,1172,1172,1172,1170,1168,1167,1167,1167,1167,1166,1164,1159,1144],"ymouse":[537,537,537,537,537,537,537,537,537,537,537,537,537,537,537,537,537,537,537,537,537,537,537,537,537,537,537,537,537,537,537,537,537,537,537,537,537,537,537,537,537,537,537,537,537,537,537,537,537,537,537,537,537,537,537,537,537,537,537,537,537,537,537,537,537,537,537,537,537,537,537,537,537,537,537,537,537,537,537,537,537,537,537,537,537,537,537,536,527,519,512,504,498,477,467,457,445,430,387,361,338,319,301,283,280,279,277,276,267,260,251,240,226,183,162,141,126,113,96,90,86,83,78,65,61,60,60,60,60,60,60,61,61,61,61,62,64,66,71],"timestamp_mouse":[13,34,45,65,86,105,126,146,167,187,206,226,245,267,287,306,325,346,365,387,406,426,446,466,485,506,526,546,565,586,605,625,645,667,686,707,727,746,765,787,806,827,847,865,886,905,926,945,967,985,1005,1025,1046,1065,1085,1105,1125,1145,1166,1185,1207,1226,1246,1265,1286,1305,1325,1347,1365,1387,1406,1425,1446,1465,1487,1506,1525,1546,1565,1586,1605,1625,1645,1665,1685,1705,1727,1746,1765,1785,1805,1825,1846,1866,1885,1905,1925,1945,1966,1985,2006,2026,2046,2066,2086,2105,2126,2145,2166,2185,2205,2226,2245,2266,2287,2305,2326,2347,2365,2386,2406,2426,2445,2466,2485,2505,2526,2547,2565,2585,2606,2625,2646,2665,2685,2706,2726,2747,2767],"xSR":741.5,"ySR":469.95,"xT1":424.9,"yT1":0,"xT2":1058.1,"yT2":0,"toosoon":0,"cond_shown":"Incongruent","ratio_trial":100,"L_num":3,"L_den":6,"R_num":4,"R_den":10,"correct_side":1,"subjID":"DanielAlejandroTorresUparela19","gender":"0","school":"4","age":"8"},{"start_time":1552327328756,"click_time":1552327330344,"finger_time":1552327330023,"fix_duration":250,"trial":20,"RT":1267,"MT":321,"sideResp":2,"stimulus":[],"xmouse":[791,791,791,791,791,792,792,792,792,792,792,792,792,792,792,792,792,792,792,792,792,792,792,792,792,792,792,792,793,794,796,798,800,801,802,803,804,804,804,804,804,804,804,804,804,804,804,804,804,804,804,804,804,804,804,804,804,804,804,808,811,824,833,857,868,904,939,1017,1058,1092,1110,1122,1125,1126,1130,1134,1141,1141,1143,1145],"ymouse":[525,525,525,525,525,524,524,524,524,524,524,524,524,524,524,524,524,524,524,524,524,524,524,524,524,523,523,523,523,523,523,523,523,523,523,523,523,523,523,523,523,523,523,523,523,523,523,523,523,523,523,523,523,523,523,523,523,523,523,521,518,509,501,483,474,443,412,338,289,245,218,193,183,177,154,138,119,111,100,88],"timestamp_mouse":[13,26,48,66,86,107,127,147,167,187,206,228,246,267,288,306,327,347,368,387,406,427,448,466,487,507,526,547,566,586,606,627,646,666,687,708,727,747,768,786,807,827,846,867,886,906,928,948,967,988,1007,1027,1046,1066,1086,1107,1127,1146,1168,1187,1206,1228,1247,1267,1286,1307,1326,1346,1367,1386,1406,1428,1447,1467,1487,1506,1528,1546,1567,1588],"xSR":741.5,"ySR":469.95,"xT1":424.9,"yT1":0,"xT2":1058.1,"yT2":0,"toosoon":0,"cond_shown":"Congruent","ratio_trial":200,"L_num":3,"L_den":12,"R_num":9,"R_den":20,"correct_side":2,"subjID":"DanielAlejandroTorresUparela19","gender":"0","school":"4","age":"8"},{"start_time":1552327333314,"click_time":1552327335622,"finger_time":1552327335082,"fix_duration":250,"trial":21,"RT":1768,"MT":540,"sideResp":2,"stimulus":[],"xmouse":[779,779,779,779,779,779,779,779,779,779,779,779,779,779,779,779,779,779,779,779,779,779,779,779,779,779,779,779,779,779,779,779,779,779,779,779,779,779,779,779,779,779,779,779,779,779,779,779,779,779,779,779,779,779,779,779,779,779,779,779,779,779,779,779,779,779,779,779,779,779,779,779,779,779,779,779,779,779,779,779,779,779,779,779,796,810,825,839,850,862,864,867,872,881,960,1004,1051,1080,1093,1096,1096,1096,1096,1096,1096,1096,1097,1101,1105,1112,1115,1117,1118,1118,1118,1118],"ymouse":[513,513,513,513,513,513,513,513,513,513,513,513,513,513,513,513,513,513,513,513,513,513,513,513,513,513,513,513,513,513,513,513,513,513,513,513,513,513,513,513,513,513,513,513,513,513,513,513,513,513,513,513,513,513,513,513,513,513,513,513,513,513,513,513,513,513,513,513,513,513,513,513,513,513,513,513,513,513,513,513,513,513,513,513,505,495,486,478,471,460,459,455,448,435,349,307,269,249,240,237,237,237,237,237,237,237,225,213,199,168,154,141,131,121,104,99],"timestamp_mouse":[14,36,48,70,88,108,130,148,169,189,209,229,248,268,288,309,328,350,368,389,410,429,449,469,489,510,528,549,569,589,608,629,650,669,689,710,729,748,769,790,809,828,849,869,889,908,929,949,969,989,1009,1028,1049,1070,1088,1109,1130,1150,1168,1188,1209,1230,1250,1269,1288,1309,1328,1348,1369,1388,1409,1428,1450,1470,1490,1509,1529,1549,1570,1590,1608,1629,1650,1668,1688,1708,1729,1749,1768,1793,1809,1828,1848,1868,1889,1910,1928,1948,1968,1988,2008,2030,2050,2068,2088,2110,2129,2149,2168,2189,2208,2229,2248,2268,2289,2308],"xSR":741.5,"ySR":469.95,"xT1":424.9,"yT1":0,"xT2":1058.1,"yT2":0,"toosoon":0,"cond_shown":"Congruent","ratio_trial":100,"L_num":11,"L_den":22,"R_num":6,"R_den":15,"correct_side":1,"subjID":"DanielAlejandroTorresUparela19","gender":"0","school":"4","age":"8"},{"start_time":1552327337237,"click_time":1552327339222,"finger_time":1552327338662,"fix_duration":250,"trial":22,"RT":1425,"MT":560,"sideResp":2,"stimulus":[],"xmouse":[785,785,785,785,785,785,785,785,785,785,785,785,785,785,785,785,785,785,785,785,785,785,785,785,785,785,785,785,785,785,785,785,785,785,785,785,785,785,785,785,785,785,785,785,785,785,785,785,785,785,785,785,785,785,785,785,785,785,785,785,785,785,785,785,785,785,785,785,785,800,812,826,843,868,879,887,906,928,954,987,989,989,989,989,989,989,989,989,990,1001,1012,1022,1029,1038,1059,1066,1073,1077,1086,1090],"ymouse":[526,526,526,526,526,526,526,526,526,526,526,526,526,526,526,526,526,526,526,526,526,526,526,526,526,526,526,526,526,526,526,526,526,526,526,526,526,526,526,526,526,526,526,526,526,526,526,526,526,526,526,526,526,526,526,526,526,526,526,526,526,526,526,526,526,526,526,526,524,492,475,455,435,405,390,375,342,305,262,208,202,200,200,200,200,200,200,200,199,189,180,173,168,161,145,135,123,114,101,95],"timestamp_mouse":[9,25,46,66,85,105,127,147,165,186,205,227,247,265,285,306,327,346,365,387,405,425,447,466,486,507,527,546,566,586,606,627,646,665,686,706,726,747,766,786,805,825,847,867,885,905,926,947,966,986,1007,1026,1045,1065,1086,1107,1126,1145,1167,1186,1206,1225,1245,1267,1287,1307,1326,1346,1365,1385,1406,1425,1445,1467,1485,1507,1525,1545,1565,1585,1605,1626,1647,1666,1685,1706,1725,1746,1767,1786,1806,1825,1845,1866,1885,1906,1926,1946,1967,1985],"xSR":741.5,"ySR":469.95,"xT1":424.9,"yT1":0,"xT2":1058.1,"yT2":0,"toosoon":0,"cond_shown":"Incongruent","ratio_trial":200,"L_num":1,"L_den":3,"R_num":2,"R_den":15,"correct_side":1,"subjID":"DanielAlejandroTorresUparela19","gender":"0","school":"4","age":"8"},{"start_time":1552327342476,"click_time":1552327344624,"finger_time":1552327344042,"fix_duration":552.0609033378554,"trial":23,"RT":1566,"MT":582,"sideResp":1,"stimulus":[],"xmouse":[787,787,787,787,787,787,787,787,787,787,787,787,787,787,787,787,787,787,787,787,787,787,787,787,787,787,787,787,787,787,787,787,787,787,787,787,787,787,787,787,787,787,787,787,787,787,787,787,787,787,788,788,788,788,788,788,788,788,788,788,788,788,788,788,788,788,788,788,788,788,788,788,788,788,788,788,789,788,785,780,775,768,749,737,728,721,711,685,670,654,640,628,605,600,595,591,588,580,579,577,576,575,560,552,542,529,516,487],"ymouse":[512,512,512,512,512,512,512,512,512,512,512,512,512,512,512,512,512,512,512,512,512,512,512,512,512,512,512,512,512,512,512,512,512,512,512,512,512,512,512,512,512,512,512,512,512,512,512,512,512,512,512,512,512,512,512,512,512,512,512,512,512,512,512,512,512,512,512,512,512,512,512,512,512,512,512,508,505,470,446,423,403,378,343,323,308,292,276,244,225,204,184,168,133,123,118,113,110,106,106,106,106,106,106,106,106,106,104,91],"timestamp_mouse":[13,26,46,67,86,108,126,147,167,186,208,228,247,268,288,307,327,348,367,387,407,426,447,467,488,507,527,547,567,586,607,628,648,667,687,707,727,748,767,788,806,826,848,867,887,908,926,946,966,987,1008,1026,1046,1068,1086,1107,1128,1147,1168,1188,1206,1226,1246,1266,1287,1307,1326,1346,1366,1388,1406,1428,1446,1468,1487,1508,1528,1546,1566,1587,1607,1626,1647,1666,1688,1707,1726,1747,1766,1787,1807,1826,1847,1866,1886,1907,1926,1947,1966,1987,2006,2027,2047,2066,2087,2107,2127,2148],"xSR":741.5,"ySR":469.95,"xT1":424.9,"yT1":0,"xT2":1058.1,"yT2":0,"toosoon":0,"cond_shown":"Incongruent","ratio_trial":300,"L_num":8,"L_den":10,"R_num":14,"R_den":28,"correct_side":1,"subjID":"DanielAlejandroTorresUparela19","gender":"0","school":"4","age":"8"},{"start_time":1552327346215,"click_time":1552327348503,"finger_time":1552327347663,"fix_duration":250,"trial":24,"RT":1448,"MT":840,"sideResp":2,"stimulus":[],"xmouse":[785,785,785,785,785,785,785,785,785,785,785,785,785,786,786,786,786,786,786,786,786,786,786,786,786,786,786,786,786,786,786,786,786,786,786,786,786,786,786,786,786,786,786,786,786,786,786,786,786,786,786,786,786,786,786,786,786,786,786,786,786,786,786,786,786,786,786,786,791,794,810,821,834,850,858,867,869,870,871,873,876,883,889,892,895,899,900,902,905,908,909,916,922,939,953,965,986,994,997,999,1000,1005,1012,1024,1033,1047,1051,1054,1054,1054,1054,1055,1055,1055,1061],"ymouse":[511,511,511,511,511,511,511,511,511,511,511,511,511,510,510,510,510,510,510,510,510,510,510,510,510,510,510,510,510,510,510,510,510,510,510,510,510,510,510,510,510,510,510,510,510,510,510,510,510,510,510,510,510,510,510,510,510,510,510,510,510,510,510,510,510,510,510,510,507,503,485,472,457,436,429,419,417,416,414,412,407,395,384,379,373,366,362,357,348,338,330,309,292,261,237,216,178,165,157,154,152,142,131,113,102,84,78,75,74,74,74,73,73,73,70],"timestamp_mouse":[19,38,48,68,87,109,127,147,169,187,207,227,249,267,288,309,329,348,367,389,408,428,448,469,488,508,527,549,568,588,608,628,648,668,688,708,728,747,769,787,808,828,848,868,887,908,927,948,968,987,1009,1027,1048,1068,1089,1107,1127,1149,1167,1188,1209,1229,1249,1268,1288,1308,1328,1347,1368,1387,1408,1428,1448,1468,1487,1509,1527,1548,1568,1588,1607,1627,1647,1667,1689,1710,1727,1748,1767,1787,1807,1827,1848,1867,1887,1907,1927,1949,1969,1989,2008,2027,2047,2067,2088,2109,2127,2148,2168,2188,2208,2228,2248,2267,2288],"xSR":741.5,"ySR":469.95,"xT1":424.9,"yT1":0,"xT2":1058.1,"yT2":0,"toosoon":0,"cond_shown":"Incongruent","ratio_trial":200,"L_num":7,"L_den":10,"R_num":8,"R_den":16,"correct_side":1,"subjID":"DanielAlejandroTorresUparela19","gender":"0","school":"4","age":"8"},{"start_time":1552327352171,"click_time":1552327354366,"finger_time":1552327353542,"fix_duration":865.1687760648225,"trial":25,"RT":1371,"MT":824,"sideResp":1,"stimulus":[],"xmouse":[785,785,785,785,785,785,785,785,785,785,785,785,785,785,785,785,785,785,785,785,785,785,785,785,785,785,785,785,785,785,785,785,785,785,785,785,785,785,785,785,785,785,785,785,785,785,785,785,785,785,785,785,785,785,785,785,785,785,785,785,785,785,785,785,785,785,785,786,789,789,789,789,789,789,788,786,781,773,741,721,703,692,685,685,685,685,685,669,660,655,653,650,648,643,631,622,616,610,607,606,606,606,605,593,577,568,559,546,536,508],"ymouse":[478,478,478,478,478,478,478,478,478,478,478,478,478,478,478,478,478,478,478,478,478,478,478,478,478,478,478,478,478,478,478,478,478,478,478,478,478,478,478,478,478,478,478,478,478,478,478,478,478,478,478,478,478,478,478,478,478,478,478,478,478,478,478,478,478,478,477,472,447,432,419,408,394,379,369,350,317,257,116,55,19,4,0,0,0,0,0,0,4,6,8,10,11,15,23,30,35,42,53,55,55,55,56,56,56,56,56,56,56,52],"timestamp_mouse":[13,35,52,72,92,111,132,151,172,193,211,232,252,271,291,312,331,353,371,392,412,431,453,473,492,513,531,551,571,592,612,633,652,671,692,712,733,751,771,792,812,833,853,872,892,912,932,953,972,992,1011,1032,1051,1072,1091,1111,1131,1151,1172,1193,1211,1231,1251,1272,1292,1311,1331,1351,1371,1391,1412,1433,1451,1472,1492,1512,1532,1551,1573,1591,1611,1633,1652,1673,1692,1712,1733,1751,1772,1791,1812,1832,1852,1871,1891,1912,1933,1953,1972,1991,2012,2031,2052,2072,2093,2112,2133,2153,2175,2195],"xSR":741.5,"ySR":469.95,"xT1":424.9,"yT1":0,"xT2":1058.1,"yT2":0,"toosoon":0,"cond_shown":"Incongruent","ratio_trial":300,"L_num":1,"L_den":2,"R_num":3,"R_den":15,"correct_side":1,"subjID":"DanielAlejandroTorresUparela19","gender":"0","school":"4","age":"8"},{"start_time":1552327357170,"click_time":1552327359063,"finger_time":1552327358744,"fix_duration":824.2107903549747,"trial":26,"RT":1574,"MT":319,"sideResp":2,"stimulus":[],"xmouse":[773,773,773,773,773,773,773,773,773,773,772,772,771,770,770,770,770,770,770,770,770,770,770,770,770,770,770,770,770,770,770,770,770,770,770,770,770,770,770,770,770,770,770,770,770,770,770,770,770,770,770,770,770,770,770,770,770,770,770,770,770,770,770,770,770,770,770,770,770,770,770,770,770,770,779,789,801,813,832,884,926,950,968,985,1008,1015,1021,1028,1034,1050,1067,1075,1082,1088,1098],"ymouse":[523,523,523,523,523,523,523,523,523,523,523,524,524,524,524,524,524,524,524,524,524,524,524,524,524,524,524,524,524,524,524,524,524,524,524,524,524,524,524,524,524,524,524,524,524,524,524,524,524,524,524,524,524,524,524,524,524,524,524,524,524,524,524,524,524,524,524,524,524,524,524,524,524,523,511,500,486,471,451,405,370,348,327,307,275,263,250,237,224,194,167,148,127,107,74],"timestamp_mouse":[13,41,54,73,92,114,132,154,173,193,214,233,252,273,294,314,333,352,374,394,413,433,453,473,493,512,533,553,574,594,612,633,652,674,694,713,734,753,774,792,813,833,854,874,893,914,933,954,973,994,1012,1033,1053,1073,1092,1112,1133,1152,1174,1194,1212,1233,1253,1272,1293,1313,1333,1353,1373,1393,1412,1434,1453,1474,1492,1512,1533,1554,1574,1592,1613,1632,1652,1673,1692,1713,1732,1752,1773,1793,1813,1833,1854,1874,1893],"xSR":741.5,"ySR":469.95,"xT1":424.9,"yT1":0,"xT2":1058.1,"yT2":0,"toosoon":0,"cond_shown":"Congruent","ratio_trial":300,"L_num":5,"L_den":25,"R_num":7,"R_den":14,"correct_side":2,"subjID":"DanielAlejandroTorresUparela19","gender":"0","school":"4","age":"8"},{"start_time":1552327364833,"click_time":1552327366804,"finger_time":1552327366203,"fix_duration":947.9804179403807,"trial":27,"RT":1370,"MT":601,"sideResp":2,"stimulus":[],"xmouse":[828,828,828,828,828,828,828,828,828,828,828,828,828,828,828,828,828,828,828,828,828,828,828,828,828,828,828,828,828,828,828,828,828,828,828,828,828,828,828,828,828,828,828,828,828,828,828,828,828,828,828,828,828,828,828,828,828,828,828,828,828,828,828,828,828,828,828,834,846,862,882,904,940,961,974,985,995,1019,1028,1033,1037,1040,1040,1040,1040,1041,1042,1044,1045,1049,1055,1063,1076,1090,1100,1109,1120,1142,1150],"ymouse":[534,534,534,534,534,534,534,534,534,534,534,534,534,534,534,534,534,534,534,534,534,534,534,534,534,534,534,534,534,534,534,534,534,534,534,534,534,534,534,534,534,534,534,534,534,534,534,534,534,534,534,534,534,534,534,534,534,534,534,534,534,534,534,534,534,534,533,523,511,495,477,460,428,406,389,374,363,345,336,327,318,302,299,297,296,294,292,287,283,274,264,250,225,202,186,170,150,100,73],"timestamp_mouse":[11,34,50,70,89,111,130,149,170,190,211,229,250,271,290,310,330,351,371,389,410,431,451,470,490,511,529,549,570,591,610,629,649,671,689,709,731,751,771,789,810,830,850,871,889,909,930,949,969,990,1009,1031,1049,1070,1090,1109,1130,1150,1169,1189,1209,1230,1249,1270,1289,1310,1329,1349,1370,1390,1409,1430,1449,1469,1489,1509,1529,1549,1569,1590,1610,1632,1649,1670,1690,1710,1730,1749,1771,1790,1809,1829,1849,1869,1889,1910,1930,1950,1970],"xSR":741.5,"ySR":469.95,"xT1":424.9,"yT1":0,"xT2":1058.1,"yT2":0,"toosoon":0,"cond_shown":"Incongruent","ratio_trial":200,"L_num":7,"L_den":10,"R_num":12,"R_den":24,"correct_side":1,"subjID":"DanielAlejandroTorresUparela19","gender":"0","school":"4","age":"8"},{"start_time":1552327381397,"click_time":1552327384423,"finger_time":1552327382823,"fix_duration":371.99987246814857,"trial":28,"RT":1426,"MT":1600,"sideResp":2,"stimulus":[],"xmouse":[823,823,823,821,820,819,818,817,817,817,817,817,817,817,817,817,817,817,817,817,817,817,817,817,817,817,817,817,817,817,817,817,817,817,817,817,817,817,817,817,817,817,817,817,817,817,817,817,817,817,817,817,817,817,817,817,817,817,817,817,817,817,817,817,817,817,817,819,824,830,841,843,843,845,845,846,848,851,854,856,856,856,856,856,859,867,869,871,873,873,873,873,873,871,864,854,824,792,762,733,679,653,631,605,589,576,568,568,569,572,576,589,600,610,617,621,629,635,649,665,691,763,818,882,981,981,981,981,981,981,981,981,981,981,981,981,981,981,981,981,981,981,981,981,981,981,981,981,981,981,981,1081],"ymouse":[546,546,546,546,546,546,547,547,547,547,547,547,547,547,547,547,547,547,547,547,547,547,547,547,547,548,550,551,553,556,561,564,566,566,566,566,566,566,566,566,566,566,566,566,566,566,566,566,566,566,566,566,566,566,566,566,566,566,566,566,566,566,566,566,566,566,566,556,543,527,496,483,475,469,467,462,456,445,433,414,387,375,362,347,334,311,304,296,288,285,280,278,276,274,272,271,267,265,263,260,253,245,235,217,198,179,148,142,139,137,136,134,132,131,131,130,129,126,123,121,118,99,83,55,11,11,11,11,11,11,11,11,11,11,11,11,11,11,11,11,11,11,11,11,11,11,11,11,11,11,11,4],"timestamp_mouse":[13,37,45,65,86,106,125,146,165,185,206,225,245,265,285,305,325,345,365,385,406,426,446,465,485,506,525,546,566,586,605,626,645,666,686,706,725,746,766,785,805,825,845,865,887,906,925,945,965,985,1005,1025,1046,1065,1085,1106,1126,1146,1166,1186,1205,1225,1246,1265,1285,1306,1327,1346,1365,1386,1407,1426,1446,1465,1486,1507,1525,1546,1565,1586,1607,1625,1646,1667,1687,1707,1725,1746,1765,1786,1807,1825,1845,1865,1886,1906,1925,1945,1965,1985,2007,2025,2046,2066,2085,2105,2125,2145,2165,2185,2206,2225,2245,2265,2286,2305,2325,2345,2366,2385,2405,2425,2445,2466,2486,2505,2525,2545,2565,2586,2606,2625,2645,2666,2685,2705,2726,2745,2766,2786,2805,2826,2845,2865,2885,2906,2925,2946,2966,2986,3006,3026],"xSR":741.5,"ySR":469.95,"xT1":424.9,"yT1":0,"xT2":1058.1,"yT2":0,"toosoon":0,"cond_shown":"Incongruent","ratio_trial":200,"L_num":7,"L_den":10,"R_num":8,"R_den":16,"correct_side":1,"subjID":"DanielAlejandroTorresUparela19","gender":"0","school":"4","age":"8"},{"start_time":1552327387458,"click_time":1552327388844,"finger_time":1552327388302,"fix_duration":252.81556800855475,"trial":29,"RT":844,"MT":542,"sideResp":1,"stimulus":[],"xmouse":[761,761,761,761,761,761,761,761,761,761,761,761,761,761,761,761,761,761,761,761,761,761,761,761,761,761,761,761,761,761,761,761,761,761,761,761,761,761,761,763,766,774,785,785,763,736,705,673,639,634,633,633,633,633,632,630,626,621,608,600,593,587,580,576,568,565,560,555,546,511],"ymouse":[527,527,527,527,527,527,527,527,527,527,527,527,527,527,527,527,527,527,527,527,527,527,527,527,527,527,527,527,527,527,527,527,527,527,527,527,527,527,527,524,511,484,426,390,314,271,229,192,134,117,111,110,110,110,110,110,111,113,119,121,122,123,123,123,122,121,120,119,114,95],"timestamp_mouse":[9,35,44,65,85,104,124,144,164,184,205,225,244,265,284,305,324,345,365,384,404,424,446,464,485,506,524,544,564,584,604,624,645,664,684,704,724,745,764,784,804,824,844,864,885,905,925,944,965,984,1005,1024,1044,1065,1084,1104,1124,1145,1165,1184,1204,1225,1244,1264,1284,1304,1325,1345,1365,1386],"xSR":741.5,"ySR":469.95,"xT1":424.9,"yT1":0,"xT2":1058.1,"yT2":0,"toosoon":0,"cond_shown":"Congruent","ratio_trial":100,"L_num":11,"L_den":22,"R_num":4,"R_den":10,"correct_side":1,"subjID":"DanielAlejandroTorresUparela19","gender":"0","school":"4","age":"8"},{"start_time":1552327392566,"click_time":1552327393862,"finger_time":1552327393242,"fix_duration":721.0502435951626,"trial":30,"RT":676,"MT":620,"sideResp":1,"stimulus":[],"xmouse":[785,785,785,785,785,785,785,785,785,785,785,785,785,785,785,785,785,785,785,785,785,785,785,785,785,785,785,785,785,785,785,784,784,784,784,784,782,777,767,760,755,749,743,728,722,716,711,707,699,691,683,670,654,619,601,594,592,591,589,584,579,572,560,530,520],"ymouse":[534,534,534,534,534,534,534,534,534,534,534,534,534,534,534,534,534,534,534,534,534,534,534,534,534,534,534,534,534,534,534,534,520,459,430,402,378,355,310,288,269,250,229,185,172,161,155,152,146,141,137,130,122,106,97,94,93,93,91,90,88,85,84,79,79],"timestamp_mouse":[17,42,56,77,98,117,136,157,176,196,216,237,256,277,297,317,336,357,377,396,417,436,456,477,497,516,537,556,577,596,617,636,656,676,696,717,736,757,776,796,816,837,856,876,896,916,937,956,976,996,1016,1037,1058,1076,1096,1116,1137,1156,1176,1197,1217,1236,1257,1276,1296],"xSR":741.5,"ySR":469.95,"xT1":424.9,"yT1":0,"xT2":1058.1,"yT2":0,"toosoon":0,"cond_shown":"Incongruent","ratio_trial":200,"L_num":14,"L_den":30,"R_num":6,"R_den":9,"correct_side":2,"subjID":"DanielAlejandroTorresUparela19","gender":"0","school":"4","age":"8"},{"start_time":1552327397715,"click_time":1552327398944,"finger_time":1552327398543,"fix_duration":490.1688126981649,"trial":31,"RT":828,"MT":401,"sideResp":2,"stimulus":[],"xmouse":[768,768,768,768,768,768,768,768,768,768,768,768,768,768,768,768,768,768,768,768,768,768,768,768,768,768,768,768,768,768,768,768,768,768,768,768,770,784,802,820,841,876,895,911,935,951,981,994,1006,1016,1025,1035,1053,1062,1069,1083,1101,1109,1117,1122,1127,1133],"ymouse":[549,549,549,549,549,549,549,549,549,549,549,549,549,549,549,549,549,549,549,549,549,549,549,549,549,549,549,549,549,549,549,549,549,549,549,549,549,539,525,510,495,468,452,438,415,397,359,341,325,309,292,276,243,227,214,192,161,145,130,117,104,91],"timestamp_mouse":[9,28,47,68,88,108,128,147,168,187,208,227,248,267,288,307,328,347,369,388,408,427,448,468,488,508,528,548,567,587,608,627,648,668,687,708,727,748,767,788,808,828,847,867,887,908,928,947,968,987,1008,1028,1047,1067,1087,1107,1129,1147,1167,1187,1207,1228],"xSR":741.5,"ySR":469.95,"xT1":424.9,"yT1":0,"xT2":1058.1,"yT2":0,"toosoon":0,"cond_shown":"Congruent","ratio_trial":200,"L_num":3,"L_den":6,"R_num":14,"R_den":20,"correct_side":2,"subjID":"DanielAlejandroTorresUparela19","gender":"0","school":"4","age":"8"},{"start_time":1552327400793,"click_time":1552327402383,"finger_time":1552327401742,"fix_duration":568.9692567521388,"trial":32,"RT":949,"MT":641,"sideResp":2,"stimulus":[],"xmouse":[773,773,773,773,773,773,773,773,773,773,773,773,773,773,773,773,773,773,773,773,773,773,773,773,773,773,773,773,773,773,773,773,773,773,773,773,773,773,773,773,773,773,773,773,773,790,801,823,859,870,873,874,874,874,874,874,874,874,874,877,884,892,901,922,934,946,957,969,1004,1020,1031,1036,1039,1041,1042,1043,1043,1044,1055,1063],"ymouse":[496,496,496,496,496,496,496,496,496,496,496,496,496,496,496,496,496,496,496,496,496,496,496,496,496,496,496,496,496,496,496,496,496,496,496,496,496,496,496,496,496,496,496,496,496,488,480,463,436,421,414,411,409,409,409,409,409,409,409,403,393,377,362,329,312,293,276,258,207,185,168,158,152,148,147,146,145,143,116,99],"timestamp_mouse":[9,29,55,69,89,110,129,150,170,189,209,229,249,271,289,309,330,350,370,390,409,429,451,470,490,509,530,549,570,589,610,629,649,670,690,710,730,749,770,791,810,829,849,870,889,910,930,949,969,990,1010,1030,1050,1069,1090,1110,1129,1151,1169,1190,1209,1229,1250,1270,1289,1309,1329,1349,1369,1389,1410,1429,1449,1469,1489,1510,1529,1549,1569,1590],"xSR":741.5,"ySR":469.95,"xT1":424.9,"yT1":0,"xT2":1058.1,"yT2":0,"toosoon":0,"cond_shown":"Incongruent","ratio_trial":100,"L_num":9,"L_den":15,"R_num":14,"R_den":28,"correct_side":1,"subjID":"DanielAlejandroTorresUparela19","gender":"0","school":"4","age":"8"},{"start_time":1552327403942,"click_time":1552327406764,"finger_time":1552327405983,"fix_duration":336.91711018762095,"trial":33,"RT":2041,"MT":781,"sideResp":2,"stimulus":[],"xmouse":[779,779,779,779,779,779,779,779,779,779,779,779,779,779,779,779,779,779,779,779,779,779,779,779,779,779,779,779,779,779,779,779,779,779,779,779,779,779,779,779,779,779,779,778,776,774,772,771,771,771,771,771,771,771,771,771,771,771,771,771,771,771,771,771,771,771,771,771,771,771,771,771,771,771,771,771,771,771,771,771,771,771,771,771,771,771,771,771,771,771,771,771,770,766,762,759,755,754,753,751,749,748,743,740,736,734,732,732,732,732,732,740,751,768,787,806,825,848,854,864,882,921,956,1009,1071,1126,1192,1203,1205,1205,1205,1205,1205,1205,1205,1204,1203,1191,1183,1173,1160,1150],"ymouse":[503,503,503,503,503,503,503,503,503,503,503,503,503,503,503,503,503,503,503,503,503,503,503,503,503,503,503,504,504,504,504,504,504,504,504,504,504,504,504,504,504,504,504,500,497,496,492,492,492,492,492,492,492,492,492,492,492,492,492,492,492,492,492,492,492,492,492,492,492,492,492,492,492,492,492,492,492,492,492,492,492,492,492,492,492,492,492,492,492,492,492,492,490,486,483,480,477,477,475,474,472,470,463,459,454,452,449,449,449,449,449,443,433,418,403,385,369,349,343,334,314,283,256,217,174,133,83,73,70,70,70,69,69,69,69,68,68,68,68,68,68,68],"timestamp_mouse":[19,32,40,60,80,100,120,141,161,181,201,221,240,260,280,301,321,340,361,380,401,420,441,461,481,501,520,540,561,580,600,620,641,660,681,700,720,741,760,781,801,820,841,861,881,901,920,940,960,982,1001,1020,1040,1062,1081,1101,1120,1141,1161,1180,1201,1220,1240,1261,1282,1300,1320,1341,1361,1381,1400,1420,1441,1461,1480,1501,1522,1541,1560,1581,1601,1620,1641,1661,1681,1700,1720,1740,1760,1781,1800,1820,1841,1860,1881,1902,1920,1941,1960,1980,2002,2020,2041,2062,2081,2101,2121,2140,2161,2181,2201,2221,2240,2261,2280,2301,2321,2341,2361,2380,2400,2421,2441,2460,2480,2500,2520,2541,2560,2580,2600,2621,2640,2660,2681,2701,2720,2740,2760,2780,2800,2822],"xSR":741.5,"ySR":469.95,"xT1":424.9,"yT1":0,"xT2":1058.1,"yT2":0,"toosoon":0,"cond_shown":"Incongruent","ratio_trial":300,"L_num":4,"L_den":20,"R_num":2,"R_den":4,"correct_side":2,"subjID":"DanielAlejandroTorresUparela19","gender":"0","school":"4","age":"8"},{"start_time":1552327408445,"click_time":1552327409964,"finger_time":1552327409363,"fix_duration":362.85645896675976,"trial":34,"RT":918,"MT":601,"sideResp":2,"stimulus":[],"xmouse":[798,798,798,798,798,798,798,798,798,798,798,798,798,798,798,798,798,798,798,798,798,798,798,798,798,798,798,798,798,798,798,798,798,798,798,798,798,798,798,798,798,798,798,805,815,859,885,905,925,938,951,972,985,993,1001,1009,1028,1036,1044,1051,1058,1061,1064,1066,1068,1070,1074,1077,1079,1082,1083,1084,1085,1089,1092,1095],"ymouse":[524,524,524,524,524,524,524,524,524,524,524,524,524,524,524,524,524,524,524,524,524,524,524,524,524,524,524,524,524,524,524,524,524,524,524,524,524,524,524,524,524,524,524,518,511,475,453,431,409,389,370,341,323,311,301,289,261,247,233,221,206,202,195,192,189,185,176,169,162,157,150,145,139,125,115,99],"timestamp_mouse":[18,38,57,78,98,118,138,157,178,197,218,238,258,278,298,317,337,358,377,398,418,438,457,477,498,517,537,558,578,598,618,638,657,678,698,718,738,757,778,797,818,838,858,877,898,918,938,957,979,998,1017,1037,1058,1077,1098,1118,1137,1157,1177,1198,1218,1237,1257,1277,1297,1317,1337,1358,1377,1398,1419,1437,1459,1479,1498,1518],"xSR":741.5,"ySR":469.95,"xT1":424.9,"yT1":0,"xT2":1058.1,"yT2":0,"toosoon":0,"cond_shown":"Congruent","ratio_trial":300,"L_num":1,"L_den":3,"R_num":19,"R_den":30,"correct_side":2,"subjID":"DanielAlejandroTorresUparela19","gender":"0","school":"4","age":"8"},{"start_time":1552327412036,"click_time":1552327415183,"finger_time":1552327413722,"fix_duration":911.7464348445293,"trial":35,"RT":1686,"MT":1461,"sideResp":2,"stimulus":[],"xmouse":[779,779,779,779,779,779,779,779,779,779,779,779,779,779,779,779,779,779,779,779,779,779,779,779,779,779,779,779,779,779,779,779,779,779,779,779,779,779,779,779,779,779,779,779,779,779,779,779,779,779,779,779,779,779,779,779,779,779,779,779,779,779,779,779,779,779,779,779,779,779,779,779,779,779,779,779,779,779,779,779,779,779,781,788,792,795,795,795,795,795,792,791,788,783,781,777,773,761,753,743,731,715,654,625,602,585,574,570,570,570,570,570,570,580,592,607,620,651,666,679,690,700,732,749,767,790,817,887,928,974,1020,1066,1130,1213,1254,1295,1326,1367,1377,1378,1378,1368,1339,1328,1320,1309,1294,1259,1243,1228,1218,1209,1203,1198,1191,1180,1167,1133],"ymouse":[499,499,499,499,499,499,499,499,499,499,499,499,499,499,499,499,499,499,499,499,499,499,499,499,499,499,499,499,499,499,499,499,499,499,499,499,499,499,499,499,499,499,499,499,499,499,499,499,499,499,499,499,499,499,499,499,499,499,499,499,499,499,499,499,499,499,499,499,499,499,499,499,499,499,499,499,499,499,499,499,499,499,493,478,464,454,447,440,427,421,416,411,405,396,390,384,378,359,346,330,308,282,177,136,105,88,79,76,76,76,76,76,76,98,116,135,154,188,201,209,213,217,222,222,222,219,214,205,198,188,176,163,142,107,87,69,52,30,24,23,22,21,23,26,28,33,39,54,64,70,74,77,78,79,79,79,79,79],"timestamp_mouse":[12,26,47,66,86,107,126,146,166,187,206,227,247,267,286,306,326,346,366,386,407,427,446,466,486,507,526,547,566,586,607,627,646,666,687,706,726,746,767,787,808,827,846,866,886,906,927,946,966,987,1006,1026,1046,1067,1086,1107,1127,1146,1166,1186,1207,1227,1246,1267,1286,1306,1327,1346,1367,1388,1408,1427,1446,1467,1487,1507,1527,1547,1566,1586,1607,1627,1646,1667,1686,1706,1727,1746,1766,1787,1806,1826,1846,1867,1887,1906,1927,1946,1966,1986,2007,2027,2046,2066,2086,2107,2126,2146,2167,2186,2206,2227,2246,2268,2286,2306,2327,2346,2366,2386,2407,2426,2447,2466,2486,2506,2527,2547,2566,2588,2607,2626,2647,2666,2686,2706,2726,2746,2766,2786,2807,2826,2847,2866,2887,2907,2927,2947,2966,2986,3007,3027,3046,3066,3086,3106,3127,3146],"xSR":741.5,"ySR":469.95,"xT1":424.9,"yT1":0,"xT2":1058.1,"yT2":0,"toosoon":0,"cond_shown":"Congruent","ratio_trial":100,"L_num":2,"L_den":5,"R_num":6,"R_den":12,"correct_side":2,"subjID":"DanielAlejandroTorresUparela19","gender":"0","school":"4","age":"8"},{"start_time":1552327416699,"click_time":1552327419162,"finger_time":1552327418162,"fix_duration":314.7135216911158,"trial":36,"RT":1463,"MT":1000,"sideResp":1,"stimulus":[],"xmouse":[787,787,787,787,787,787,787,787,787,787,787,787,787,787,787,787,787,787,787,787,787,787,787,787,787,787,787,787,787,787,787,787,787,787,787,787,787,787,787,787,787,787,787,787,787,787,787,787,787,787,787,787,787,787,787,787,787,787,787,787,787,787,787,787,787,787,787,787,787,787,792,799,805,809,813,817,817,813,807,801,793,789,786,784,781,774,769,762,752,733,722,714,701,691,679,660,646,639,631,625,616,613,613,613,613,613,613,613,613,613,613,613,613,613,613,613,613,613,608,602,572,553,531,511],"ymouse":[526,526,526,526,526,526,526,526,526,526,526,526,526,526,526,526,526,526,526,526,526,526,526,526,526,526,526,526,526,526,526,526,526,526,526,526,526,526,526,526,526,526,526,526,526,526,526,526,526,526,526,526,526,526,526,526,526,526,526,526,526,526,526,526,526,526,526,526,526,526,516,499,483,466,447,404,384,358,345,332,313,304,297,292,285,274,269,263,258,247,240,234,222,208,192,165,148,141,132,127,120,117,117,117,117,117,117,117,117,117,117,117,117,117,117,117,117,117,117,116,107,99,90,81],"timestamp_mouse":[12,36,44,63,83,103,124,143,163,184,204,224,243,264,283,305,324,343,364,384,403,424,443,464,484,503,524,544,563,583,604,624,644,663,683,703,724,745,764,784,804,823,844,864,883,903,924,944,964,984,1004,1024,1044,1064,1084,1104,1123,1143,1164,1183,1204,1223,1244,1263,1283,1304,1324,1343,1363,1384,1403,1424,1444,1463,1484,1503,1523,1543,1564,1583,1603,1623,1643,1663,1686,1704,1723,1743,1763,1785,1803,1823,1843,1863,1883,1903,1924,1943,1963,1984,2003,2023,2044,2063,2083,2103,2123,2143,2164,2184,2203,2223,2243,2263,2284,2303,2324,2343,2363,2384,2403,2424,2443,2463],"xSR":741.5,"ySR":469.95,"xT1":424.9,"yT1":0,"xT2":1058.1,"yT2":0,"toosoon":0,"cond_shown":"Incongruent","ratio_trial":300,"L_num":4,"L_den":20,"R_num":2,"R_den":4,"correct_side":2,"subjID":"DanielAlejandroTorresUparela19","gender":"0","school":"4","age":"8"},{"start_time":1552327421973,"click_time":1552327424503,"finger_time":1552327422842,"fix_duration":1490.9343684834541,"trial":37,"RT":869,"MT":1661,"sideResp":1,"stimulus":[],"xmouse":[751,751,751,751,751,751,751,751,751,751,751,751,751,751,751,751,751,751,751,751,751,751,751,751,751,751,751,751,751,751,751,751,751,751,751,751,751,751,751,757,766,811,828,845,861,877,900,909,918,926,934,944,946,948,950,952,958,961,965,973,982,1002,1011,1020,1027,1031,1033,1033,1033,1033,1033,1033,1033,1033,1033,1033,1033,1033,1033,1033,1036,1049,1054,1058,1065,1071,1087,1093,1098,1099,1101,1102,1102,1102,1102,1102,1102,1102,1102,1101,1098,1095,1083,1069,1048,1021,948,896,811,760,719,666,647,632,623,620,619,619,619,619,619,616,608,594,577,554,514],"ymouse":[516,516,516,516,516,516,516,516,516,516,516,516,516,516,516,516,516,516,516,516,516,516,516,516,516,516,516,516,516,516,516,516,516,516,516,516,516,516,516,514,511,485,475,465,455,444,427,419,410,403,394,382,379,375,373,369,360,356,348,337,325,294,277,263,251,243,240,240,240,240,240,240,240,240,240,240,240,240,240,238,230,211,203,197,188,179,155,144,134,130,125,124,124,124,124,124,124,124,123,122,121,119,115,114,114,114,114,114,114,114,108,95,87,79,74,73,73,73,73,73,73,73,73,73,73,73,71],"timestamp_mouse":[12,43,50,70,89,109,129,149,170,189,209,229,249,269,289,310,329,349,370,390,410,429,450,470,489,509,529,549,570,589,609,629,650,670,690,710,729,750,769,790,809,829,849,869,889,910,930,949,969,990,1009,1030,1049,1070,1089,1109,1130,1150,1170,1189,1210,1229,1249,1269,1290,1309,1330,1349,1370,1389,1409,1429,1449,1469,1490,1509,1529,1549,1569,1590,1609,1629,1649,1670,1689,1709,1730,1749,1770,1790,1810,1829,1849,1870,1889,1909,1930,1949,1969,1990,2009,2029,2050,2069,2090,2109,2130,2149,2170,2189,2210,2230,2249,2269,2290,2309,2330,2349,2369,2390,2409,2429,2450,2469,2489,2510,2529],"xSR":741.5,"ySR":469.95,"xT1":424.9,"yT1":0,"xT2":1058.1,"yT2":0,"toosoon":0,"cond_shown":"Incongruent","ratio_trial":300,"L_num":3,"L_den":6,"R_num":4,"R_den":20,"correct_side":1,"subjID":"DanielAlejandroTorresUparela19","gender":"0","school":"4","age":"8"},{"start_time":1552327426384,"click_time":1552327427983,"finger_time":1552327427261,"fix_duration":320.4390388865508,"trial":38,"RT":877,"MT":722,"sideResp":2,"stimulus":[],"xmouse":[752,752,751,751,751,751,751,751,751,751,751,751,751,751,751,751,751,751,751,751,750,750,748,748,748,748,748,748,748,748,748,747,747,747,747,747,747,747,747,746,746,745,744,741,741,740,739,745,752,759,771,793,804,814,822,831,849,865,873,883,892,917,930,944,963,989,1039,1048,1051,1052,1052,1052,1052,1052,1052,1052,1052,1052,1055,1061],"ymouse":[520,520,519,519,519,519,519,519,519,519,519,519,519,519,519,519,519,519,519,519,518,518,518,518,517,517,517,517,517,517,517,516,516,516,516,516,516,516,516,516,516,515,514,513,513,512,509,500,493,484,471,447,433,422,410,398,370,349,336,320,304,271,252,232,204,168,97,82,76,75,75,75,75,75,75,75,75,75,74,71],"timestamp_mouse":[18,38,58,77,98,118,138,157,179,198,218,237,259,279,297,317,337,359,378,398,418,438,458,479,498,518,537,558,579,598,618,638,657,677,699,718,738,757,777,799,819,839,858,877,898,917,937,957,979,998,1018,1037,1057,1077,1098,1118,1137,1158,1178,1198,1218,1237,1259,1278,1297,1318,1337,1357,1377,1398,1418,1439,1458,1479,1499,1518,1538,1558,1577,1598],"xSR":741.5,"ySR":469.95,"xT1":424.9,"yT1":0,"xT2":1058.1,"yT2":0,"toosoon":0,"cond_shown":"Congruent","ratio_trial":100,"L_num":2,"L_den":5,"R_num":6,"R_den":12,"correct_side":2,"subjID":"DanielAlejandroTorresUparela19","gender":"0","school":"4","age":"8"},{"start_time":1552327430126,"click_time":1552327431722,"finger_time":1552327431201,"fix_duration":802.7508718160699,"trial":39,"RT":1075,"MT":521,"sideResp":2,"stimulus":[],"xmouse":[815,815,815,815,815,815,815,815,815,815,815,815,815,815,815,815,815,815,815,815,815,815,815,815,815,815,815,815,815,815,815,815,815,815,815,815,815,815,815,815,815,815,815,815,815,815,815,815,815,815,815,824,835,845,872,894,911,926,935,942,943,943,944,944,947,955,962,970,980,995,1004,1011,1020,1029,1041,1044,1047,1050,1054,1059],"ymouse":[547,547,547,547,547,547,547,547,547,547,547,547,547,547,547,547,547,547,547,547,547,547,547,547,547,547,547,547,547,547,547,547,547,547,547,547,547,547,547,547,547,547,547,547,547,547,547,547,547,547,542,525,504,479,415,366,325,290,272,257,256,255,253,250,247,230,218,204,182,147,127,110,96,81,62,59,55,50,46,41],"timestamp_mouse":[18,36,56,77,96,116,135,156,176,197,215,235,256,277,297,316,335,355,377,397,416,435,455,476,496,516,535,556,576,597,616,636,655,676,697,716,737,756,777,797,816,836,855,875,897,916,937,955,976,997,1016,1037,1056,1075,1096,1116,1135,1157,1177,1195,1216,1235,1255,1275,1296,1316,1336,1355,1376,1396,1415,1437,1456,1477,1496,1517,1536,1555,1575,1596],"xSR":741.5,"ySR":469.95,"xT1":424.9,"yT1":0,"xT2":1058.1,"yT2":0,"toosoon":0,"cond_shown":"Incongruent","ratio_trial":300,"L_num":3,"L_den":6,"R_num":4,"R_den":20,"correct_side":1,"subjID":"DanielAlejandroTorresUparela19","gender":"0","school":"4","age":"8"},{"start_time":1552327433294,"click_time":1552327435941,"finger_time":1552327434701,"fix_duration":250,"trial":40,"RT":1407,"MT":1240,"sideResp":1,"stimulus":[],"xmouse":[785,785,785,785,785,785,785,785,785,785,785,785,785,785,785,785,785,785,785,785,785,785,785,785,785,785,785,785,785,785,785,785,785,785,785,785,785,785,785,785,785,785,785,785,784,784,784,784,784,784,784,784,784,784,784,783,783,783,783,783,783,782,780,778,776,774,774,771,770,767,766,762,761,759,757,757,756,756,756,756,756,760,764,769,773,776,784,791,801,829,856,915,939,957,969,973,974,974,974,974,974,973,960,947,932,914,879,862,839,826,813,801,785,779,770,761,744,730,718,705,697,692,685,681,676,667,658,633,611,593,571,539,477],"ymouse":[513,513,513,513,513,513,513,513,513,513,513,513,513,513,513,513,513,513,513,513,513,513,513,513,513,513,513,513,513,513,513,513,513,513,513,513,513,513,513,513,513,513,513,513,514,514,514,514,514,514,514,514,514,514,514,514,514,514,514,514,514,513,508,504,498,493,490,482,478,472,469,461,459,457,454,454,453,452,452,450,446,425,416,406,395,386,372,365,357,337,320,278,261,245,233,227,227,227,227,227,227,226,226,226,224,221,208,199,182,171,161,154,150,149,148,145,140,136,134,130,127,126,124,122,121,117,114,103,96,88,76,58,24],"timestamp_mouse":[10,39,48,69,87,107,127,147,169,188,208,228,247,269,289,309,329,348,367,388,407,429,448,469,488,508,527,549,569,589,608,627,648,668,689,708,728,747,768,788,808,827,848,869,888,907,927,949,969,989,1008,1029,1048,1067,1088,1108,1128,1147,1168,1189,1209,1227,1248,1268,1288,1308,1329,1347,1369,1387,1407,1429,1447,1469,1488,1508,1529,1548,1568,1587,1607,1629,1647,1668,1688,1708,1730,1747,1767,1789,1808,1829,1847,1868,1888,1909,1929,1948,1967,1988,2007,2028,2047,2067,2087,2107,2129,2147,2168,2187,2208,2228,2247,2268,2288,2308,2329,2348,2367,2387,2407,2428,2447,2467,2488,2508,2529,2547,2568,2587,2607,2627,2647],"xSR":741.5,"ySR":469.95,"xT1":424.9,"yT1":0,"xT2":1058.1,"yT2":0,"toosoon":0,"cond_shown":"Incongruent","ratio_trial":300,"L_num":7,"L_den":10,"R_num":8,"R_den":20,"correct_side":1,"subjID":"DanielAlejandroTorresUparela19","gender":"0","school":"4","age":"8"},{"start_time":1552327438451,"click_time":1552327439842,"finger_time":1552327439303,"fix_duration":1367.1554542457986,"trial":41,"RT":852,"MT":539,"sideResp":1,"stimulus":[],"xmouse":[771,771,771,771,771,771,771,771,771,771,771,771,771,771,771,771,771,771,771,772,772,772,772,772,772,772,772,772,772,772,772,772,772,772,772,772,773,773,774,775,771,763,754,742,711,690,669,647,627,598,593,591,589,589,588,588,588,588,588,588,588,588,588,588,588,588,588,587,568,505],"ymouse":[536,536,536,536,536,536,536,536,536,536,536,536,536,536,536,536,536,536,536,536,536,536,536,536,536,536,536,536,536,536,536,536,536,536,536,536,532,526,517,492,483,474,467,461,434,405,361,312,263,158,136,118,108,104,102,102,102,102,102,102,102,102,102,102,102,102,102,97,80,1],"timestamp_mouse":[13,39,50,70,90,110,130,152,170,191,211,232,250,270,291,312,331,352,371,391,412,432,450,472,491,511,532,550,570,591,610,632,650,671,692,711,731,752,771,790,812,831,852,872,890,911,931,951,970,991,1011,1030,1050,1070,1091,1112,1130,1150,1171,1191,1210,1232,1251,1272,1291,1311,1331,1350,1371,1390],"xSR":741.5,"ySR":469.95,"xT1":424.9,"yT1":0,"xT2":1058.1,"yT2":0,"toosoon":0,"cond_shown":"Congruent","ratio_trial":300,"L_num":20,"L_den":25,"R_num":9,"R_den":18,"correct_side":1,"subjID":"DanielAlejandroTorresUparela19","gender":"0","school":"4","age":"8"},{"start_time":1552327442368,"click_time":1552327444182,"finger_time":1552327443903,"fix_duration":1225.5066940839677,"trial":42,"RT":1535,"MT":279,"sideResp":2,"stimulus":[],"xmouse":[759,759,759,759,759,759,759,759,759,759,759,759,759,759,759,759,759,759,759,759,759,759,759,759,759,759,759,759,759,759,759,759,759,759,759,759,759,759,759,759,759,759,759,759,759,759,759,759,759,759,759,759,759,759,759,759,759,759,759,759,759,759,759,759,759,759,759,759,759,759,759,759,759,759,763,777,794,817,841,889,910,937,950,969,978,988,998,1010,1023,1054,1072],"ymouse":[493,493,493,493,493,493,493,493,493,493,493,493,493,493,493,493,493,493,493,493,493,493,493,493,493,493,493,493,493,493,493,493,493,493,493,493,493,493,493,493,493,493,493,493,493,493,493,493,493,493,493,493,493,493,493,493,493,493,493,493,493,493,493,493,493,493,493,493,493,493,493,493,493,493,489,474,453,421,389,331,307,276,259,232,219,206,191,172,154,111,85],"timestamp_mouse":[20,44,53,73,93,114,133,153,174,193,214,233,255,274,293,313,335,354,373,393,414,434,453,475,495,514,534,554,575,593,613,633,653,675,695,714,733,754,773,794,814,834,855,875,895,914,933,953,975,995,1014,1034,1054,1074,1094,1114,1133,1154,1173,1194,1215,1234,1254,1274,1293,1315,1334,1355,1374,1393,1414,1434,1453,1474,1494,1514,1535,1553,1573,1594,1615,1633,1653,1675,1693,1714,1734,1754,1774,1794,1814],"xSR":741.5,"ySR":469.95,"xT1":424.9,"yT1":0,"xT2":1058.1,"yT2":0,"toosoon":0,"cond_shown":"Congruent","ratio_trial":200,"L_num":16,"L_den":20,"R_num":12,"R_den":20,"correct_side":1,"subjID":"DanielAlejandroTorresUparela19","gender":"0","school":"4","age":"8"},{"start_time":1552327446205,"click_time":1552327447443,"finger_time":1552327447062,"fix_duration":801.617447799691,"trial":43,"RT":857,"MT":381,"sideResp":1,"stimulus":[],"xmouse":[759,759,759,759,759,759,759,759,759,759,759,759,759,759,759,759,759,759,759,759,759,759,759,759,759,759,759,759,759,759,759,759,759,759,759,759,759,759,759,759,759,759,755,746,733,717,693,677,672,670,667,665,654,645,635,624,612,579,565,552,537,521],"ymouse":[531,531,531,531,531,531,531,531,531,531,531,531,531,531,532,532,532,532,532,532,532,532,532,532,532,532,532,532,532,532,532,532,532,532,532,532,532,532,527,515,500,485,456,439,422,403,370,330,314,296,278,261,228,216,203,189,176,135,117,102,90,76],"timestamp_mouse":[17,40,56,76,98,117,137,158,176,198,217,236,257,277,298,317,336,357,376,398,417,436,456,476,498,516,536,556,577,597,618,637,657,677,696,717,736,757,777,796,818,837,857,877,896,918,938,956,977,998,1017,1037,1056,1076,1098,1118,1138,1157,1176,1196,1217,1238],"xSR":741.5,"ySR":469.95,"xT1":424.9,"yT1":0,"xT2":1058.1,"yT2":0,"toosoon":0,"cond_shown":"Incongruent","ratio_trial":200,"L_num":14,"L_den":30,"R_num":12,"R_den":18,"correct_side":2,"subjID":"DanielAlejandroTorresUparela19","gender":"0","school":"4","age":"8"},{"start_time":1552327450195,"click_time":1552327453002,"finger_time":1552327451402,"fix_duration":250,"trial":44,"RT":1207,"MT":1600,"sideResp":2,"stimulus":[],"xmouse":[798,798,798,798,798,798,798,798,798,798,798,798,798,798,798,798,798,798,798,798,798,798,798,798,798,798,798,798,798,798,798,798,798,798,798,798,798,798,798,798,798,798,798,798,798,798,798,798,798,798,798,798,798,798,798,800,806,819,840,847,852,856,858,862,864,870,873,876,880,881,883,884,886,887,889,892,894,900,903,905,907,907,907,907,907,906,902,895,891,882,871,856,831,821,816,812,811,811,811,811,811,810,810,803,795,782,769,739,727,716,709,705,705,704,704,704,704,704,704,708,713,719,735,751,758,782,800,820,878,916,954,994,1039,1048,1050,1050,1050,1052,1058,1060],"ymouse":[548,548,548,548,548,548,548,548,548,548,548,548,548,548,548,548,548,548,548,548,548,548,548,548,548,548,548,548,548,548,548,548,548,548,548,548,548,548,548,548,548,548,548,548,548,548,548,548,548,548,548,548,548,548,548,537,531,518,487,477,468,460,455,446,438,420,405,386,354,340,329,324,317,314,310,304,296,283,275,270,264,259,254,244,240,235,228,218,215,211,210,208,209,213,214,216,216,216,216,216,216,216,216,216,216,212,206,195,189,183,179,176,175,175,175,175,175,175,175,174,172,172,170,169,169,167,165,161,141,124,107,90,66,61,59,59,59,59,59,59],"timestamp_mouse":[19,48,67,87,108,126,148,167,186,206,226,248,266,288,307,327,348,367,387,407,428,447,467,486,506,527,547,567,586,608,626,647,667,686,707,727,748,766,786,808,827,847,867,886,907,927,947,966,987,1008,1027,1046,1066,1088,1106,1126,1147,1166,1187,1206,1227,1247,1266,1287,1307,1326,1346,1368,1386,1407,1428,1448,1468,1486,1507,1528,1547,1568,1586,1606,1626,1648,1667,1688,1707,1726,1746,1768,1786,1807,1826,1847,1869,1887,1907,1926,1947,1967,1987,2007,2026,2047,2066,2087,2106,2126,2147,2168,2186,2208,2227,2247,2267,2286,2307,2327,2346,2366,2387,2407,2428,2446,2468,2486,2507,2527,2546,2567,2586,2606,2627,2647,2669,2687,2707,2727,2747,2767,2787,2806],"xSR":741.5,"ySR":469.95,"xT1":424.9,"yT1":0,"xT2":1058.1,"yT2":0,"toosoon":0,"cond_shown":"Incongruent","ratio_trial":100,"L_num":3,"L_den":5,"R_num":8,"R_den":16,"correct_side":1,"subjID":"DanielAlejandroTorresUparela19","gender":"0","school":"4","age":"8"},{"start_time":1552327459347,"click_time":1552327462122,"finger_time":1552327459983,"fix_duration":1043.2447487525462,"trial":45,"RT":636,"MT":2139,"sideResp":1,"stimulus":[],"xmouse":[791,791,791,791,791