[{"start_time":1552327861045,"click_time":1552327865292,"finger_time":1552327861055,"fix_duration":345.0893986611955,"trial":0,"RT":10,"MT":4237,"sideResp":1,"stimulus":"img/500/randomdotsizeEA/R/1_Ratio_500_L_9_R_18.png","xmouse":[816,816,816,816,816,816,816,816,816,816,816,816,816,816,816,816,816,816,816,816,816,816,816,816,816,816,816,816,816,816,816,816,816,816,816,816,816,816,816,816,816,816,816,816,816,814,812,812,811,810,810,810,810,808,808,806,805,803,802,802,802,802,802,801,800,800,798,798,798,798,798,798,798,798,798,798,798,798,798,798,798,798,798,798,798,798,798,802,805,806,804,798,778,762,752,745,743,740,738,736,731,723,697,671,649,623,590,507,458,417,385,364,347,347,347,347,347,347,347,347,347,347,347,347,347,347,347,348,349,351,352,354,362,369,379,396,445,474,502,527,553,580,643,670,693,714,734,768,783,794,802,809,817,821,821,822,824,828,831,837,843,848,852,844,830,806,780,742,734,733,733,733,733,733,733,733,732,728,723,715,700,681,621,599,583,571,566,564,564,563,560,558,554,553,553,552,551,550,550,549,547,547,543,542,542,541,541,537,535,531,528,525,517],"ymouse":[534,534,534,534,534,534,534,534,534,534,534,534,534,534,534,534,534,534,534,534,534,534,534,534,534,534,534,534,534,534,534,534,534,534,534,534,534,534,534,534,534,534,534,536,542,548,562,567,571,574,575,577,580,583,586,590,594,601,602,603,603,603,603,604,605,606,608,608,608,608,608,608,608,608,608,608,608,608,608,608,608,608,608,608,608,608,609,601,587,573,561,550,528,511,497,484,477,457,447,437,426,413,386,361,342,321,299,248,224,206,192,182,173,173,173,172,172,172,172,172,172,172,172,172,172,172,172,172,171,171,171,170,169,169,169,169,169,169,168,164,160,154,133,122,111,97,82,62,54,47,42,38,34,33,33,33,33,33,33,33,33,33,43,68,84,97,102,103,103,102,102,102,102,102,102,102,102,102,102,102,100,98,87,86,86,86,86,86,86,86,86,86,86,86,86,86,86,86,86,86,86,86,86,86,86,86,86,87,87,88,88,88,90],"timestamp_mouse":[10,28,48,67,88,108,127,148,167,188,209,227,247,267,288,307,327,349,368,388,407,427,447,467,488,507,528,548,568,587,608,627,647,667,687,707,728,748,767,787,808,827,848,867,887,908,928,947,968,988,1007,1028,1048,1067,1087,1107,1128,1147,1168,1188,1208,1227,1247,1268,1287,1308,1328,1348,1367,1387,1407,1427,1447,1468,1488,1508,1528,1547,1568,1587,1607,1628,1649,1668,1687,1708,1727,1747,1767,1787,1808,1827,1847,1867,1887,1907,1928,1947,1967,1988,2007,2028,2048,2067,2087,2107,2128,2147,2168,2187,2208,2227,2247,2267,2287,2307,2328,2347,2367,2388,2408,2428,2447,2467,2488,2508,2528,2548,2568,2587,2607,2628,2647,2667,2688,2707,2729,2747,2768,2788,2808,2827,2847,2867,2888,2908,2928,2947,2969,2987,3007,3028,3049,3067,3087,3108,3127,3148,3168,3188,3207,3228,3248,3267,3288,3308,3327,3347,3367,3387,3407,3428,3447,3467,3488,3508,3529,3547,3567,3588,3608,3628,3647,3668,3687,3707,3728,3747,3768,3788,3808,3827,3847,3867,3887,3908,3927,3947,3968,3988,4008,4028,4047,4067,4087,4108,4128,4147,4169,4187,4207,4229,4247],"xSR":741.5,"ySR":469.95,"xT1":424.9,"yT1":0,"xT2":1058.1,"yT2":0,"toosoon":0,"cond_shown":"randomdotsizeEA","ratio_trial":500,"smaller_num":"9","larger_num":"18","correct_side":2,"subjID":"DanielAlejandroTorresUparela19","gender":"0","age":"8","school":"4","test":{"fix_dur":[250,1500],"timestim":300,"targets_dim":[100,100],"targets_relative_coord":[0.3,0.7],"size_stim":[880,420],"start_dim":[100,100],"size_start":[300,300],"size_fix":60,"samplingrate":20,"img_types":["equaldotsize","equaldotanddens","randomdotsizeEA"],"ratios":[250,500,750,900],"rep_conds":9,"nTrials":120,"trials_to_rest":500,"Trials_order":[17,65,84,114,40,107,27,9,1,45,0,93,34,13,98,92,51,101,14,67,100,95,41,30,52,68,60,70,12,71,102,48,115,75,6,39,3,33,103,44,16,56,2,7,47,36,81,50,20,113,108,66,86,42,74,83,37,91,29,79,94,61,35,15,106,19,58,116,8,11,57,72,53,54,59,110,25,63,46,10,43,109,105,112,38,73,118,80,5,99,22,111,76,18,4,69,78,104,49,77,28,62,26,64,21,90,24,87,117,85,88,96,89,31,97,119,32,55,82,23],"cond_shown":["randomdotsizeEA","randomdotsizeEA","equaldotsize","equaldotsize","equaldotanddens","randomdotsizeEA","equaldotsize","equaldotsize","equaldotanddens","equaldotsize","equaldotsize","equaldotsize","equaldotanddens","equaldotanddens","randomdotsizeEA","randomdotsizeEA","equaldotsize","randomdotsizeEA","randomdotsizeEA","equaldotanddens","equaldotanddens","randomdotsizeEA","randomdotsizeEA","equaldotsize","equaldotanddens","randomdotsizeEA","equaldotsize","equaldotanddens","equaldotsize","randomdotsizeEA","equaldotsize","equaldotsize","equaldotanddens","equaldotsize","equaldotsize","equaldotsize","equaldotsize","equaldotsize","equaldotanddens","randomdotsizeEA","equaldotanddens","randomdotsizeEA","randomdotsizeEA","equaldotanddens","randomdotsizeEA","equaldotsize","equaldotsize","randomdotsizeEA","randomdotsizeEA","randomdotsizeEA","equaldotsize","equaldotsize","randomdotsizeEA","equaldotsize","randomdotsizeEA","randomdotsizeEA","equaldotanddens","equaldotanddens","randomdotsizeEA","equaldotanddens","equaldotanddens","equaldotanddens","randomdotsizeEA","equaldotsize","equaldotanddens","equaldotanddens","equaldotanddens","randomdotsizeEA","randomdotsizeEA","randomdotsizeEA","equaldotsize","equaldotsize","randomdotsizeEA","equaldotsize","randomdotsizeEA","randomdotsizeEA","equaldotanddens","equaldotsize","equaldotanddens","equaldotanddens","equaldotanddens","equaldotanddens","equaldotsize","equaldotanddens","randomdotsizeEA","equaldotanddens","equaldotanddens","randomdotsizeEA","randomdotsizeEA","equaldotsize","equaldotanddens","equaldotsize","equaldotanddens","equaldotsize","equaldotanddens","equaldotsize","equaldotsize","randomdotsizeEA","equaldotanddens","randomdotsizeEA","equaldotanddens","randomdotsizeEA","randomdotsizeEA","equaldotanddens","equaldotsize","equaldotsize","equaldotsize","equaldotsize","equaldotsize","equaldotanddens","equaldotanddens","equaldotsize","randomdotsizeEA","equaldotanddens","equaldotanddens","randomdotsizeEA","randomdotsizeEA","equaldotanddens","equaldotanddens","randomdotsizeEA"],"ratio_trial":[500,500,250,750,500,900,500,900,250,900,250,900,900,250,250,750,500,500,250,750,500,900,500,750,500,750,250,900,250,900,750,250,750,500,750,500,500,900,750,750,500,750,250,750,900,250,900,250,750,500,250,750,250,750,250,900,250,750,500,750,900,250,900,500,900,750,900,750,750,900,900,250,500,750,900,250,250,500,900,900,750,250,900,500,250,250,900,750,500,500,900,500,500,750,500,900,750,750,250,500,500,250,250,500,900,750,250,500,900,250,500,250,500,750,250,900,750,750,900,900],"smaller_num":["9","2","1","3","10","18","2","18","2","18","5","18","9","2","2","15","1","3","3","12","6","18","5","18","4","15","1","18","2","18","3","2","15","9","6","4","9","18","18","3","1","15","4","15","18","2","9","4","15","1","3","18","4","15","3","18","3","12","5","6","18","3","9","6","9","15","18","6","15","18","18","4","6","6","18","6","3","10","18","18","3","2","9","10","6","2","18","9","1","2","18","10","9","9","4","18","6","3","3","6","2","3","4","2","18","3","3","2","18","4","10","2","9","18","5","18","15","6","18","18"],"larger_num":["18","4","4","4","20","20","4","20","8","20","20","20","10","8","8","20","2","6","12","16","12","20","10","24","8","20","4","20","8","20","4","8","20","18","8","8","18","20","24","4","2","20","16","20","20","8","10","16","20","2","12","24","16","20","12","20","12","16","10","8","20","12","10","12","10","20","20","8","20","20","20","16","12","8","20","24","12","20","20","20","4","8","10","20","24","8","20","12","2","4","20","20","18","12","8","20","8","4","12","12","4","12","16","4","20","4","12","4","20","16","20","8","18","24","20","20","20","8","20","20"],"correct_side":[2,1,2,2,2,2,1,2,1,2,2,1,2,1,2,2,2,2,2,2,1,1,1,1,1,1,2,2,2,1,2,2,2,1,1,1,2,1,1,1,2,2,1,2,1,1,1,1,2,2,1,1,1,2,2,2,2,2,1,1,2,2,2,1,2,2,2,2,1,2,2,2,1,1,1,1,1,2,1,1,1,1,1,2,2,1,1,2,2,1,1,2,2,2,1,2,1,1,1,1,1,1,2,1,1,1,2,2,2,2,2,2,2,1,2,2,2,2,2,2],"img_shown":["img/500/randomdotsizeEA/R/1_Ratio_500_L_9_R_18.png","img/500/randomdotsizeEA/L/10_Ratio_500_L_4_R_2.png","img/250/equaldotsize/R/8_Ratio_250_L_1_R_4.png","img/750/equaldotsize/R/7_Ratio_750_L_3_R_4.png","img/500/equaldotanddens/R/3_Ratio_500_L_10_R_20.png","img/900/randomdotsizeEA/R/9_Ratio_900_L_18_R_20.png","img/500/equaldotsize/L/10_Ratio_500_L_4_R_2.png","img/900/equaldotsize/R/12_Ratio_900_L_18_R_20.png","img/250/equaldotanddens/L/3_Ratio_250_L_8_R_2.png","img/900/equaldotsize/R/14_Ratio_900_L_18_R_20.png","img/250/equaldotsize/R/12_Ratio_250_L_5_R_20.png","img/900/equaldotsize/L/10_Ratio_900_L_20_R_18.png","img/900/equaldotanddens/R/5_Ratio_900_L_9_R_10.png","img/250/equaldotanddens/L/3_Ratio_250_L_8_R_2.png","img/250/randomdotsizeEA/R/13_Ratio_250_L_2_R_8.png","img/750/randomdotsizeEA/R/4_Ratio_750_L_15_R_20.png","img/500/equaldotsize/R/15_Ratio_500_L_1_R_2.png","img/500/randomdotsizeEA/R/2_Ratio_500_L_3_R_6.png","img/250/randomdotsizeEA/R/4_Ratio_250_L_3_R_12.png","img/750/equaldotanddens/R/11_Ratio_750_L_12_R_16.png","img/500/equaldotanddens/L/13_Ratio_500_L_12_R_6.png","img/900/randomdotsizeEA/L/10_Ratio_900_L_20_R_18.png","img/500/randomdotsizeEA/L/7_Ratio_500_L_10_R_5.png","img/750/equaldotsize/L/6_Ratio_750_L_24_R_18.png","img/500/equaldotanddens/L/8_Ratio_500_L_8_R_4.png","img/750/randomdotsizeEA/L/1_Ratio_750_L_20_R_15.png","img/250/equaldotsize/R/8_Ratio_250_L_1_R_4.png","img/900/equaldotanddens/R/12_Ratio_900_L_18_R_20.png","img/250/equaldotsize/R/13_Ratio_250_L_2_R_8.png","img/900/randomdotsizeEA/L/2_Ratio_900_L_20_R_18.png","img/750/equaldotsize/R/7_Ratio_750_L_3_R_4.png","img/250/equaldotsize/R/13_Ratio_250_L_2_R_8.png","img/750/equaldotanddens/R/5_Ratio_750_L_15_R_20.png","img/500/equaldotsize/L/4_Ratio_500_L_18_R_9.png","img/750/equaldotsize/L/14_Ratio_750_L_8_R_6.png","img/500/equaldotsize/L/8_Ratio_500_L_8_R_4.png","img/500/equaldotsize/R/6_Ratio_500_L_9_R_18.png","img/900/equaldotsize/L/8_Ratio_900_L_20_R_18.png","img/750/equaldotanddens/L/6_Ratio_750_L_24_R_18.png","img/750/randomdotsizeEA/L/10_Ratio_750_L_4_R_3.png","img/500/equaldotanddens/R/15_Ratio_500_L_1_R_2.png","img/750/randomdotsizeEA/R/3_Ratio_750_L_15_R_20.png","img/250/randomdotsizeEA/L/2_Ratio_250_L_16_R_4.png","img/750/equaldotanddens/R/4_Ratio_750_L_15_R_20.png","img/900/randomdotsizeEA/L/4_Ratio_900_L_20_R_18.png","img/250/equaldotsize/L/7_Ratio_250_L_8_R_2.png","img/900/equaldotsize/L/1_Ratio_900_L_10_R_9.png","img/250/randomdotsizeEA/L/2_Ratio_250_L_16_R_4.png","img/750/randomdotsizeEA/R/3_Ratio_750_L_15_R_20.png","img/500/randomdotsizeEA/R/15_Ratio_500_L_1_R_2.png","img/250/equaldotsize/L/15_Ratio_250_L_12_R_3.png","img/750/equaldotsize/L/6_Ratio_750_L_24_R_18.png","img/250/randomdotsizeEA/L/2_Ratio_250_L_16_R_4.png","img/750/equaldotsize/R/5_Ratio_750_L_15_R_20.png","img/250/randomdotsizeEA/R/11_Ratio_250_L_3_R_12.png","img/900/randomdotsizeEA/R/13_Ratio_900_L_18_R_20.png","img/250/equaldotanddens/R/4_Ratio_250_L_3_R_12.png","img/750/equaldotanddens/R/11_Ratio_750_L_12_R_16.png","img/500/randomdotsizeEA/L/7_Ratio_500_L_10_R_5.png","img/750/equaldotanddens/L/14_Ratio_750_L_8_R_6.png","img/900/equaldotanddens/R/9_Ratio_900_L_18_R_20.png","img/250/equaldotanddens/R/4_Ratio_250_L_3_R_12.png","img/900/randomdotsizeEA/R/3_Ratio_900_L_9_R_10.png","img/500/equaldotsize/L/13_Ratio_500_L_12_R_6.png","img/900/equaldotanddens/R/3_Ratio_900_L_9_R_10.png","img/750/equaldotanddens/R/5_Ratio_750_L_15_R_20.png","img/900/equaldotanddens/R/9_Ratio_900_L_18_R_20.png","img/750/randomdotsizeEA/R/2_Ratio_750_L_6_R_8.png","img/750/randomdotsizeEA/L/1_Ratio_750_L_20_R_15.png","img/900/randomdotsizeEA/R/9_Ratio_900_L_18_R_20.png","img/900/equaldotsize/R/14_Ratio_900_L_18_R_20.png","img/250/equaldotsize/R/10_Ratio_250_L_4_R_16.png","img/500/randomdotsizeEA/L/13_Ratio_500_L_12_R_6.png","img/750/equaldotsize/L/14_Ratio_750_L_8_R_6.png","img/900/randomdotsizeEA/L/2_Ratio_900_L_20_R_18.png","img/250/randomdotsizeEA/L/5_Ratio_250_L_24_R_6.png","img/250/equaldotanddens/L/14_Ratio_250_L_12_R_3.png","img/500/equaldotsize/R/3_Ratio_500_L_10_R_20.png","img/900/equaldotanddens/L/10_Ratio_900_L_20_R_18.png","img/900/equaldotanddens/L/10_Ratio_900_L_20_R_18.png","img/750/equaldotanddens/L/8_Ratio_750_L_4_R_3.png","img/250/equaldotanddens/L/3_Ratio_250_L_8_R_2.png","img/900/equaldotsize/L/1_Ratio_900_L_10_R_9.png","img/500/equaldotanddens/R/3_Ratio_500_L_10_R_20.png","img/250/randomdotsizeEA/R/6_Ratio_250_L_6_R_24.png","img/250/equaldotanddens/L/7_Ratio_250_L_8_R_2.png","img/900/equaldotanddens/L/10_Ratio_900_L_20_R_18.png","img/750/randomdotsizeEA/R/15_Ratio_750_L_9_R_12.png","img/500/randomdotsizeEA/R/12_Ratio_500_L_1_R_2.png","img/500/equaldotsize/L/10_Ratio_500_L_4_R_2.png","img/900/equaldotanddens/L/8_Ratio_900_L_20_R_18.png","img/500/equaldotsize/R/3_Ratio_500_L_10_R_20.png","img/500/equaldotanddens/R/1_Ratio_500_L_9_R_18.png","img/750/equaldotsize/R/15_Ratio_750_L_9_R_12.png","img/500/equaldotanddens/L/8_Ratio_500_L_8_R_4.png","img/900/equaldotsize/R/12_Ratio_900_L_18_R_20.png","img/750/equaldotsize/L/14_Ratio_750_L_8_R_6.png","img/750/randomdotsizeEA/L/10_Ratio_750_L_4_R_3.png","img/250/equaldotanddens/L/15_Ratio_250_L_12_R_3.png","img/500/randomdotsizeEA/L/13_Ratio_500_L_12_R_6.png","img/500/equaldotanddens/L/5_Ratio_500_L_4_R_2.png","img/250/randomdotsizeEA/L/14_Ratio_250_L_12_R_3.png","img/250/randomdotsizeEA/R/10_Ratio_250_L_4_R_16.png","img/500/equaldotanddens/L/10_Ratio_500_L_4_R_2.png","img/900/equaldotsize/L/4_Ratio_900_L_20_R_18.png","img/750/equaldotsize/L/10_Ratio_750_L_4_R_3.png","img/250/equaldotsize/R/4_Ratio_250_L_3_R_12.png","img/500/equaldotsize/R/9_Ratio_500_L_2_R_4.png","img/900/equaldotsize/R/12_Ratio_900_L_18_R_20.png","img/250/equaldotanddens/R/10_Ratio_250_L_4_R_16.png","img/500/equaldotanddens/R/3_Ratio_500_L_10_R_20.png","img/250/equaldotsize/R/13_Ratio_250_L_2_R_8.png","img/500/randomdotsizeEA/R/6_Ratio_500_L_9_R_18.png","img/750/equaldotanddens/L/6_Ratio_750_L_24_R_18.png","img/250/equaldotanddens/R/12_Ratio_250_L_5_R_20.png","img/900/randomdotsizeEA/R/9_Ratio_900_L_18_R_20.png","img/750/randomdotsizeEA/R/4_Ratio_750_L_15_R_20.png","img/750/equaldotanddens/R/2_Ratio_750_L_6_R_8.png","img/900/equaldotanddens/R/9_Ratio_900_L_18_R_20.png","img/900/randomdotsizeEA/R/12_Ratio_900_L_18_R_20.png"],"Rat0":[["12_Ratio_0_L_9_R_0.png","13_Ratio_0_L_6_R_0.png","5_Ratio_0_L_2_R_0.png","6_Ratio_0_L_4_R_0.png","8_Ratio_0_L_6_R_0.png"],["1_Ratio_0_L_0_R_17.png","10_Ratio_0_L_0_R_22.png","11_Ratio_0_L_0_R_1.png","14_Ratio_0_L_0_R_24.png","15_Ratio_0_L_0_R_4.png","2_Ratio_0_L_0_R_5.png","3_Ratio_0_L_0_R_17.png","4_Ratio_0_L_0_R_7.png","7_Ratio_0_L_0_R_19.png","9_Ratio_0_L_0_R_15.png"]],"Rat250":[["1_Ratio_250_L_8_R_2.png","14_Ratio_250_L_12_R_3.png","15_Ratio_250_L_12_R_3.png","2_Ratio_250_L_16_R_4.png","3_Ratio_250_L_8_R_2.png","5_Ratio_250_L_24_R_6.png","7_Ratio_250_L_8_R_2.png"],["10_Ratio_250_L_4_R_16.png","11_Ratio_250_L_3_R_12.png","12_Ratio_250_L_5_R_20.png","13_Ratio_250_L_2_R_8.png","4_Ratio_250_L_3_R_12.png","6_Ratio_250_L_6_R_24.png","8_Ratio_250_L_1_R_4.png","9_Ratio_250_L_3_R_12.png"]],"Rat500":[["10_Ratio_500_L_4_R_2.png","11_Ratio_500_L_12_R_6.png","13_Ratio_500_L_12_R_6.png","4_Ratio_500_L_18_R_9.png","5_Ratio_500_L_4_R_2.png","7_Ratio_500_L_10_R_5.png","8_Ratio_500_L_8_R_4.png"],["1_Ratio_500_L_9_R_18.png","12_Ratio_500_L_1_R_2.png","14_Ratio_500_L_5_R_10.png","15_Ratio_500_L_1_R_2.png","2_Ratio_500_L_3_R_6.png","3_Ratio_500_L_10_R_20.png","6_Ratio_500_L_9_R_18.png","9_Ratio_500_L_2_R_4.png"]],"Rat750":[["1_Ratio_750_L_20_R_15.png","10_Ratio_750_L_4_R_3.png","13_Ratio_750_L_8_R_6.png","14_Ratio_750_L_8_R_6.png","6_Ratio_750_L_24_R_18.png","8_Ratio_750_L_4_R_3.png","9_Ratio_750_L_4_R_3.png"],["11_Ratio_750_L_12_R_16.png","12_Ratio_750_L_3_R_4.png","15_Ratio_750_L_9_R_12.png","2_Ratio_750_L_6_R_8.png","3_Ratio_750_L_15_R_20.png","4_Ratio_750_L_15_R_20.png","5_Ratio_750_L_15_R_20.png","7_Ratio_750_L_3_R_4.png"]],"Rat900":[["1_Ratio_900_L_10_R_9.png","10_Ratio_900_L_20_R_18.png","2_Ratio_900_L_20_R_18.png","4_Ratio_900_L_20_R_18.png","8_Ratio_900_L_20_R_18.png"],["11_Ratio_900_L_18_R_20.png","12_Ratio_900_L_18_R_20.png","13_Ratio_900_L_18_R_20.png","14_Ratio_900_L_18_R_20.png","15_Ratio_900_L_9_R_10.png","3_Ratio_900_L_9_R_10.png","5_Ratio_900_L_9_R_10.png","6_Ratio_900_L_9_R_10.png","7_Ratio_900_L_9_R_10.png","9_Ratio_900_L_18_R_20.png"]],"Rat1000":[["10_Ratio_1000_L_16_R_16.png","11_Ratio_1000_L_6_R_6.png","12_Ratio_1000_L_14_R_14.png","13_Ratio_1000_L_20_R_20.png","15_Ratio_1000_L_15_R_15.png","2_Ratio_1000_L_17_R_17.png","4_Ratio_1000_L_9_R_9.png","5_Ratio_1000_L_6_R_6.png","6_Ratio_1000_L_19_R_19.png","8_Ratio_1000_L_14_R_14.png","9_Ratio_1000_L_25_R_25.png"],["1_Ratio_1000_L_1_R_1.png","14_Ratio_1000_L_17_R_17.png","3_Ratio_1000_L_17_R_17.png","7_Ratio_1000_L_6_R_6.png"]]}},{"start_time":1552327867525,"click_time":1552327869013,"finger_time":1552327868612,"fix_duration":250,"trial":1,"RT":1087,"MT":401,"sideResp":1,"stimulus":"img/500/randomdotsizeEA/L/10_Ratio_500_L_4_R_2.png","xmouse":[769,769,769,769,769,769,769,769,769,769,769,769,769,769,769,769,769,769,769,769,769,769,769,769,769,769,769,769,769,769,769,769,769,769,769,769,769,769,769,769,769,769,769,769,769,769,769,769,769,769,769,769,769,764,748,730,708,659,575,531,486,462,443,425,424,423,423,423,423,423,423,423,424,429,435],"ymouse":[598,598,598,598,598,598,598,598,598,598,598,598,598,598,598,598,598,598,598,598,598,598,598,598,598,598,598,598,598,598,598,598,598,598,598,598,598,598,598,598,598,598,598,598,598,598,598,598,598,598,598,598,598,579,522,464,401,318,229,197,172,160,151,144,143,143,143,143,143,141,135,129,121,107,98],"timestamp_mouse":[11,33,48,67,87,107,128,148,167,187,207,227,247,268,288,308,329,347,368,387,407,427,447,468,487,508,527,548,568,588,607,628,649,668,688,707,729,748,767,788,807,827,848,869,888,907,928,948,967,987,1009,1027,1048,1067,1087,1108,1127,1148,1167,1187,1207,1228,1247,1267,1287,1308,1327,1348,1368,1388,1407,1428,1448,1467,1487],"xSR":741.5,"ySR":573.95,"xT1":424.9,"yT1":0,"xT2":1058.1,"yT2":0,"toosoon":0,"cond_shown":"randomdotsizeEA","ratio_trial":500,"smaller_num":"2","larger_num":"4","correct_side":1,"subjID":"DanielAlejandroTorresUparela19","gender":"0","age":"8","school":"4"},{"start_time":1552327877986,"click_time":1552327879453,"finger_time":1552327879312,"fix_duration":1291.4290865988487,"trial":2,"RT":1326,"MT":141,"sideResp":2,"stimulus":"img/250/equaldotsize/R/8_Ratio_250_L_1_R_4.png","xmouse":[815,815,815,815,815,815,815,815,815,815,815,815,815,815,815,815,815,815,815,815,815,815,815,815,815,815,815,815,815,815,815,815,815,815,815,815,815,815,815,815,815,815,815,815,815,815,815,815,815,815,815,815,815,815,815,815,815,815,815,815,815,815,815,815,815,820,848,874,908,943,998,1084,1128,1151],"ymouse":[657,657,657,657,657,657,657,657,657,657,657,657,657,657,657,657,657,657,657,657,657,657,657,657,657,657,657,657,657,657,657,657,657,657,657,657,657,657,657,657,657,657,657,657,657,657,657,657,657,657,657,657,657,657,657,657,657,657,657,657,657,657,657,657,657,651,618,586,546,504,415,236,128,65],"timestamp_mouse":[10,38,46,66,86,108,126,146,166,186,207,226,247,268,286,306,327,347,367,386,406,426,446,466,486,507,526,547,567,586,607,628,646,667,687,706,727,748,767,787,807,826,847,866,887,906,926,947,966,987,1007,1028,1046,1067,1088,1108,1128,1147,1166,1186,1207,1227,1248,1268,1287,1307,1326,1346,1367,1387,1406,1427,1448,1466],"xSR":741.5,"ySR":573.95,"xT1":424.9,"yT1":0,"xT2":1058.1,"yT2":0,"toosoon":0,"cond_shown":"equaldotsize","ratio_trial":250,"smaller_num":"1","larger_num":"4","correct_side":2,"subjID":"DanielAlejandroTorresUparela19","gender":"0","age":"8","school":"4"},{"start_time":1552327883345,"click_time":1552327884893,"finger_time":1552327884132,"fix_duration":952.593837199271,"trial":3,"RT":787,"MT":761,"sideResp":2,"stimulus":"img/750/equaldotsize/R/7_Ratio_750_L_3_R_4.png","xmouse":[755,755,755,755,755,755,755,755,755,755,755,755,755,755,755,755,755,755,755,755,755,755,755,755,755,755,755,755,755,755,755,755,755,755,755,755,755,755,755,743,724,703,685,674,669,669,669,669,669,669,669,669,672,679,714,755,803,855,928,1004,1020,1025,1030,1035,1048,1057,1061,1062,1062,1062,1062,1062,1062,1062,1062,1064,1068,1073],"ymouse":[602,602,602,602,602,602,602,602,602,602,602,602,602,602,602,602,602,602,602,602,602,602,602,602,602,602,602,602,602,602,602,602,602,602,602,602,602,600,577,345,249,176,118,91,74,74,74,74,74,74,74,74,74,78,95,118,138,152,165,170,170,168,165,160,129,117,114,114,114,114,114,114,114,114,114,112,105,95],"timestamp_mouse":[13,37,48,68,88,108,129,148,169,188,208,227,248,268,288,308,328,348,367,387,408,427,447,467,488,508,528,547,567,587,607,628,647,668,687,708,728,748,768,787,808,827,848,867,887,908,928,947,968,988,1007,1029,1047,1068,1087,1107,1127,1147,1167,1187,1209,1227,1248,1268,1287,1307,1328,1347,1367,1388,1407,1428,1447,1468,1487,1507,1527,1547],"xSR":741.5,"ySR":573.95,"xT1":424.9,"yT1":0,"xT2":1058.1,"yT2":0,"toosoon":0,"cond_shown":"equaldotsize","ratio_trial":750,"smaller_num":"3","larger_num":"4","correct_side":2,"subjID":"DanielAlejandroTorresUparela19","gender":"0","age":"8","school":"4"},{"start_time":1552327886466,"click_time":1552327887472,"finger_time":1552327887153,"fix_duration":810.0839051177201,"trial":4,"RT":687,"MT":319,"sideResp":2,"stimulus":"img/500/equaldotanddens/R/3_Ratio_500_L_10_R_20.png","xmouse":[820,820,820,820,820,820,820,820,820,820,820,820,820,820,820,820,820,820,820,820,820,820,820,820,820,820,820,820,820,820,820,820,820,823,847,860,876,897,917,957,972,991,999,1009,1013,1018,1023,1028,1038,1056,1067],"ymouse":[631,631,631,631,631,631,631,631,631,631,631,631,631,631,631,631,631,631,631,631,631,631,631,631,631,631,631,631,631,631,631,631,631,623,581,553,520,476,430,338,303,250,224,186,171,161,145,134,118,89,74],"timestamp_mouse":[12,31,47,68,87,107,127,146,167,187,208,227,246,268,287,306,326,348,366,388,407,426,447,467,487,506,528,548,566,587,608,626,646,667,687,707,727,746,766,787,807,826,846,867,886,906,926,947,967,986,1006],"xSR":741.5,"ySR":573.95,"xT1":424.9,"yT1":0,"xT2":1058.1,"yT2":0,"toosoon":0,"cond_shown":"equaldotanddens","ratio_trial":500,"smaller_num":"10","larger_num":"20","correct_side":2,"subjID":"DanielAlejandroTorresUparela19","gender":"0","age":"8","school":"4"},{"start_time":1552327890540,"click_time":1552327891734,"finger_time":1552327891252,"fix_duration":906.0306919986151,"trial":5,"RT":712,"MT":482,"sideResp":2,"stimulus":"img/900/randomdotsizeEA/R/9_Ratio_900_L_18_R_20.png","xmouse":[785,785,785,785,785,785,785,785,785,785,785,785,785,785,785,785,785,785,785,785,785,785,785,785,785,785,785,785,785,785,785,785,785,785,786,790,794,797,801,805,821,828,835,842,850,873,896,911,928,942,967,979,992,1006,1022,1055,1062,1069,1075,1082],"ymouse":[604,604,604,604,604,604,604,604,604,604,604,604,604,604,604,604,604,604,604,604,604,604,604,604,604,604,604,604,604,604,604,604,604,604,599,567,539,520,498,471,422,406,390,379,369,342,318,301,282,269,247,236,220,203,182,135,122,110,100,88],"timestamp_mouse":[12,40,52,72,92,113,134,152,173,193,213,232,252,272,293,312,333,352,372,392,412,432,453,472,493,513,533,552,572,592,612,632,653,672,693,712,733,753,772,792,812,832,852,873,892,912,932,952,972,992,1012,1032,1052,1072,1093,1112,1132,1152,1173,1194],"xSR":741.5,"ySR":573.95,"xT1":424.9,"yT1":0,"xT2":1058.1,"yT2":0,"toosoon":0,"cond_shown":"randomdotsizeEA","ratio_trial":900,"smaller_num":"18","larger_num":"20","correct_side":2,"subjID":"DanielAlejandroTorresUparela19","gender":"0","age":"8","school":"4"},{"start_time":1552327893541,"click_time":1552327895153,"finger_time":1552327894313,"fix_duration":946.7482483500632,"trial":6,"RT":772,"MT":840,"sideResp":1,"stimulus":"img/500/equaldotsize/L/10_Ratio_500_L_4_R_2.png","xmouse":[765,765,765,765,765,765,765,765,765,765,765,765,765,765,765,765,765,765,765,765,765,765,765,765,765,765,765,765,765,765,765,765,765,765,765,765,765,765,762,751,719,704,690,685,677,671,670,670,670,670,670,670,666,662,655,650,648,648,648,646,638,631,624,615,608,596,592,590,588,588,588,588,588,588,588,585,573,561,552,541,523],"ymouse":[609,609,609,609,609,609,609,609,609,609,609,609,609,609,609,609,609,609,609,609,609,609,609,609,609,609,609,609,609,609,609,609,609,609,609,601,596,588,570,535,421,364,313,272,232,216,215,215,215,215,215,211,207,202,198,195,194,194,194,192,183,173,164,154,147,138,135,133,132,132,132,132,132,132,132,132,123,114,106,96,76],"timestamp_mouse":[13,38,53,71,92,112,132,153,173,191,213,232,251,273,293,312,331,352,373,393,412,432,453,473,492,513,532,553,572,592,613,632,653,672,693,712,732,752,772,793,811,831,852,872,893,912,933,953,972,993,1012,1031,1052,1071,1092,1112,1131,1153,1173,1193,1212,1232,1251,1273,1292,1312,1331,1352,1373,1393,1412,1433,1451,1473,1492,1512,1531,1552,1572,1593,1612],"xSR":741.5,"ySR":573.95,"xT1":424.9,"yT1":0,"xT2":1058.1,"yT2":0,"toosoon":0,"cond_shown":"equaldotsize","ratio_trial":500,"smaller_num":"2","larger_num":"4","correct_side":1,"subjID":"DanielAlejandroTorresUparela19","gender":"0","age":"8","school":"4"},{"start_time":1552327897943,"click_time":1552327899453,"finger_time":1552327898894,"fix_duration":1248.113023735345,"trial":7,"RT":951,"MT":559,"sideResp":2,"stimulus":"img/900/equaldotsize/R/12_Ratio_900_L_18_R_20.png","xmouse":[794,794,794,794,794,794,794,794,794,794,794,794,794,794,794,794,794,794,794,794,794,794,794,794,794,794,794,794,794,794,794,794,794,794,793,795,803,806,808,808,808,808,808,808,808,809,815,825,843,879,923,1005,1024,1029,1029,1029,1029,1029,1029,1029,1030,1034,1040,1043,1045,1047,1047,1047,1047,1047,1047,1049,1051,1056,1063,1071],"ymouse":[617,617,617,617,617,617,617,617,617,617,617,617,617,617,617,617,617,617,617,617,617,617,617,617,617,617,617,617,617,617,617,617,617,617,617,613,601,597,594,594,594,594,594,594,594,593,585,570,547,497,437,327,299,286,286,286,286,286,286,284,280,249,214,192,176,165,159,159,159,159,159,151,143,128,113,97],"timestamp_mouse":[10,34,50,70,91,111,131,151,170,189,209,231,251,270,291,311,330,351,370,389,410,431,451,470,491,509,530,551,570,591,611,631,651,670,690,709,730,750,771,791,810,830,849,871,891,910,931,951,970,990,1010,1029,1050,1069,1091,1111,1130,1151,1171,1190,1210,1229,1250,1270,1290,1310,1330,1351,1370,1391,1410,1430,1450,1470,1489,1510],"xSR":741.5,"ySR":573.95,"xT1":424.9,"yT1":0,"xT2":1058.1,"yT2":0,"toosoon":0,"cond_shown":"equaldotsize","ratio_trial":900,"smaller_num":"18","larger_num":"20","correct_side":2,"subjID":"DanielAlejandroTorresUparela19","gender":"0","age":"8","school":"4"},{"start_time":1552327901336,"click_time":1552327902714,"finger_time":1552327902094,"fix_duration":762.0089584519963,"trial":8,"RT":758,"MT":620,"sideResp":1,"stimulus":"img/250/equaldotanddens/L/3_Ratio_250_L_8_R_2.png","xmouse":[801,801,801,801,801,801,801,801,801,801,801,801,801,801,801,801,801,801,801,801,801,801,801,801,801,801,801,801,801,801,801,801,801,801,801,795,782,774,767,760,754,745,741,737,733,728,714,706,697,688,686,681,681,679,676,669,649,639,631,622,607,598,578,569,556,546,530,526,523],"ymouse":[601,601,601,601,601,601,601,601,601,601,601,601,601,601,601,601,601,601,601,601,601,601,601,601,601,601,601,601,601,601,601,601,601,601,601,597,574,555,537,518,502,474,460,446,432,415,378,361,345,328,325,317,316,311,303,293,265,249,238,226,205,192,165,151,135,124,105,100,97],"timestamp_mouse":[17,37,57,78,96,118,136,158,178,198,217,237,257,278,297,317,338,358,376,397,416,438,456,477,498,517,538,557,576,598,617,638,657,678,697,717,737,758,778,798,818,837,856,878,897,916,937,957,978,997,1017,1037,1057,1078,1096,1116,1137,1157,1177,1197,1217,1237,1258,1277,1297,1317,1337,1357,1378],"xSR":741.5,"ySR":573.95,"xT1":424.9,"yT1":0,"xT2":1058.1,"yT2":0,"toosoon":0,"cond_shown":"equaldotanddens","ratio_trial":250,"smaller_num":"2","larger_num":"8","correct_side":1,"subjID":"DanielAlejandroTorresUparela19","gender":"0","age":"8","school":"4"},{"start_time":1552327904589,"click_time":1552327906093,"finger_time":1552327905394,"fix_duration":473.4086448605083,"trial":9,"RT":805,"MT":699,"sideResp":2,"stimulus":"img/900/equaldotsize/R/14_Ratio_900_L_18_R_20.png","xmouse":[798,798,798,798,798,798,798,798,798,798,798,798,798,798,798,798,798,798,798,798,798,798,798,798,798,798,798,798,798,798,798,798,798,798,798,800,805,813,821,833,872,888,902,910,915,924,927,931,935,949,957,966,974,982,992,1012,1026,1037,1044,1049,1055,1055,1055,1055,1055,1055,1055,1055,1055,1055,1055,1055,1055,1055,1057,1067],"ymouse":[666,666,666,666,666,666,666,666,666,666,666,666,666,666,666,666,666,666,666,666,666,666,666,666,666,666,666,666,666,666,666,666,666,666,666,660,648,630,609,582,496,451,416,394,379,351,343,331,318,286,268,248,229,210,190,143,108,89,74,61,48,48,48,48,48,48,48,48,48,48,48,48,48,48,45,28],"timestamp_mouse":[9,33,44,64,84,104,124,145,165,184,205,225,244,264,284,305,324,344,364,384,405,424,444,465,484,504,525,545,565,585,604,625,645,665,684,705,725,745,764,785,805,824,845,864,883,904,924,944,964,985,1004,1023,1044,1064,1085,1103,1124,1144,1164,1184,1205,1224,1244,1265,1285,1304,1324,1344,1364,1384,1404,1424,1444,1465,1484,1504],"xSR":741.5,"ySR":573.95,"xT1":424.9,"yT1":0,"xT2":1058.1,"yT2":0,"toosoon":0,"cond_shown":"equaldotsize","ratio_trial":900,"smaller_num":"18","larger_num":"20","correct_side":2,"subjID":"DanielAlejandroTorresUparela19","gender":"0","age":"8","school":"4"},{"start_time":1552327907921,"click_time":1552327909033,"finger_time":1552327908633,"fix_duration":766.9271194447467,"trial":10,"RT":712,"MT":400,"sideResp":2,"stimulus":"img/250/equaldotsize/R/12_Ratio_250_L_5_R_20.png","xmouse":[819,819,819,819,819,819,819,819,819,819,819,819,819,819,819,819,819,819,819,819,819,819,819,819,819,819,819,819,819,819,819,819,819,820,822,824,825,827,842,850,856,863,870,878,881,885,894,900,911,914,923,936,956,1020,1043,1061],"ymouse":[605,605,605,605,605,605,605,605,605,605,605,605,605,605,605,605,605,605,605,605,605,605,605,605,605,605,605,605,605,605,605,605,602,590,576,561,547,531,477,456,432,407,378,323,297,274,254,240,222,217,204,184,161,99,80,64],"timestamp_mouse":[14,35,53,73,92,112,132,153,172,193,213,231,253,273,293,312,332,352,373,393,413,433,453,473,493,512,531,553,573,593,612,632,652,672,692,712,732,753,771,792,813,832,851,871,892,912,932,952,972,992,1012,1032,1051,1072,1091,1112],"xSR":741.5,"ySR":573.95,"xT1":424.9,"yT1":0,"xT2":1058.1,"yT2":0,"toosoon":0,"cond_shown":"equaldotsize","ratio_trial":250,"smaller_num":"5","larger_num":"20","correct_side":2,"subjID":"DanielAlejandroTorresUparela19","gender":"0","age":"8","school":"4"},{"start_time":1552327910669,"click_time":1552327911953,"finger_time":1552327911453,"fix_duration":433.7272514905307,"trial":11,"RT":784,"MT":500,"sideResp":1,"stimulus":"img/900/equaldotsize/L/10_Ratio_900_L_20_R_18.png","xmouse":[757,757,757,757,757,757,757,757,757,757,757,757,757,757,757,757,757,757,757,757,757,757,757,757,757,757,757,757,757,757,757,757,757,757,757,756,753,751,742,732,712,650,631,612,603,596,594,593,592,590,588,585,578,576,573,570,563,560,556,552,547,535,529,525,520],"ymouse":[641,641,641,641,641,641,641,641,641,641,641,641,641,641,641,641,641,641,641,641,641,641,641,641,641,641,641,641,641,641,641,641,641,641,634,628,618,614,597,570,527,395,358,333,317,307,300,294,286,276,263,243,204,188,173,159,131,118,107,98,90,76,72,69,66],"timestamp_mouse":[9,23,44,64,84,104,123,144,164,183,205,225,245,264,283,304,323,344,365,385,404,425,444,465,484,504,525,543,564,584,604,625,643,665,683,705,724,744,764,784,805,824,843,864,884,903,924,944,964,985,1004,1024,1044,1064,1085,1104,1124,1144,1164,1184,1204,1224,1245,1264,1284],"xSR":741.5,"ySR":573.95,"xT1":424.9,"yT1":0,"xT2":1058.1,"yT2":0,"toosoon":0,"cond_shown":"equaldotsize","ratio_trial":900,"smaller_num":"18","larger_num":"20","correct_side":1,"subjID":"DanielAlejandroTorresUparela19","gender":"0","age":"8","school":"4"},{"start_time":1552327913547,"click_time":1552327914713,"finger_time":1552327914313,"fix_duration":250,"trial":12,"RT":766,"MT":400,"sideResp":2,"stimulus":"img/900/equaldotanddens/R/5_Ratio_900_L_9_R_10.png","xmouse":[770,770,770,770,770,770,770,770,770,770,770,770,770,770,770,770,770,770,770,770,770,770,770,770,770,770,770,770,770,770,770,770,770,770,770,770,772,789,799,810,821,831,855,874,904,946,962,981,987,992,999,1005,1012,1025,1033,1044,1050,1058,1060],"ymouse":[603,603,603,603,603,603,603,603,603,603,603,603,603,603,603,603,603,603,603,603,603,603,603,603,603,603,603,603,603,603,603,603,603,603,603,603,603,579,564,551,540,530,506,486,458,410,389,347,325,306,287,265,240,188,162,124,103,76,70],"timestamp_mouse":[9,32,46,65,87,106,126,145,165,187,207,227,246,266,286,306,326,347,367,387,405,426,447,466,486,507,525,547,567,587,607,626,647,665,686,707,727,746,766,786,806,827,846,866,886,905,925,946,966,986,1006,1026,1046,1067,1086,1106,1126,1146,1166],"xSR":741.5,"ySR":573.95,"xT1":424.9,"yT1":0,"xT2":1058.1,"yT2":0,"toosoon":0,"cond_shown":"equaldotanddens","ratio_trial":900,"smaller_num":"9","larger_num":"10","correct_side":2,"subjID":"DanielAlejandroTorresUparela19","gender":"0","age":"8","school":"4"},{"start_time":1552327917334,"click_time":1552327918693,"finger_time":1552327917873,"fix_duration":720.7528664216379,"trial":13,"RT":539,"MT":820,"sideResp":1,"stimulus":"img/250/equaldotanddens/L/3_Ratio_250_L_8_R_2.png","xmouse":[783,783,783,783,783,783,783,783,783,783,783,783,783,783,783,783,783,783,783,783,783,783,783,783,783,783,778,775,743,716,677,632,577,413,353,301,262,240,227,227,227,227,227,227,227,229,243,264,325,370,415,449,473,497,500,500,500,500,500,500,500,500,500,500,500,500,500,500],"ymouse":[574,574,574,574,574,574,574,574,574,574,574,574,574,574,574,574,574,574,574,574,574,574,574,574,574,574,569,566,542,524,496,458,417,286,242,205,176,162,151,151,151,151,151,151,151,150,148,146,141,137,130,124,118,103,101,101,101,101,101,101,101,101,101,101,101,101,100,96],"timestamp_mouse":[19,38,60,78,99,119,140,160,179,200,219,239,259,279,300,319,339,360,379,398,418,440,460,480,500,519,539,560,579,599,619,639,659,678,699,719,740,759,778,799,819,838,860,879,900,919,940,960,979,998,1019,1039,1059,1079,1099,1119,1140,1159,1178,1200,1219,1240,1259,1279,1298,1319,1340,1359],"xSR":741.5,"ySR":573.95,"xT1":424.9,"yT1":0,"xT2":1058.1,"yT2":0,"toosoon":0,"cond_shown":"equaldotanddens","ratio_trial":250,"smaller_num":"2","larger_num":"8","correct_side":1,"subjID":"DanielAlejandroTorresUparela19","gender":"0","age":"8","school":"4"},{"start_time":1552327922195,"click_time":1552327923514,"finger_time":1552327923114,"fix_duration":1278.6054140733736,"trial":14,"RT":919,"MT":400,"sideResp":2,"stimulus":"img/250/randomdotsizeEA/R/13_Ratio_250_L_2_R_8.png","xmouse":[769,769,769,769,769,769,769,769,769,769,769,769,769,769,769,769,769,769,769,769,769,769,769,769,769,769,769,769,769,769,769,769,769,769,769,769,769,769,769,769,769,769,769,769,778,790,839,885,902,951,984,1016,1056,1071,1084,1097,1109,1122,1128,1129,1129,1130,1132,1134,1136,1137,1139],"ymouse":[596,596,596,596,596,596,596,596,596,596,596,596,596,596,596,596,596,596,596,596,596,596,596,596,596,596,596,596,596,596,596,596,596,596,596,596,596,596,596,596,596,596,596,596,590,577,523,461,437,368,321,275,216,194,174,158,145,129,123,121,121,120,116,110,107,101,94],"timestamp_mouse":[1,19,37,58,78,98,118,137,159,178,198,218,238,258,279,297,319,338,358,378,398,418,438,458,478,497,518,538,559,579,598,619,646,659,679,699,719,738,759,778,799,819,839,857,877,898,919,938,958,978,998,1018,1039,1058,1078,1097,1117,1138,1157,1178,1199,1218,1238,1260,1279,1298,1318],"xSR":741.5,"ySR":573.95,"xT1":424.9,"yT1":0,"xT2":1058.1,"yT2":0,"toosoon":0,"cond_shown":"randomdotsizeEA","ratio_trial":250,"smaller_num":"2","larger_num":"8","correct_side":2,"subjID":"DanielAlejandroTorresUparela19","gender":"0","age":"8","school":"4"},{"start_time":1552327925284,"click_time":1552327927833,"finger_time":1552327926532,"fix_duration":668.5911699996384,"trial":15,"RT":1248,"MT":1301,"sideResp":1,"stimulus":"img/750/randomdotsizeEA/R/4_Ratio_750_L_15_R_20.png","xmouse":[782,782,782,782,782,782,782,782,782,782,782,782,782,782,782,782,782,782,782,782,782,782,782,782,782,782,782,782,782,782,782,782,782,782,782,782,782,782,782,782,782,782,782,782,782,782,782,782,782,782,782,782,782,782,782,782,782,782,782,782,782,785,796,797,797,795,791,775,763,752,740,732,721,719,719,718,716,711,707,706,706,706,706,706,706,706,706,706,706,706,706,706,706,706,706,706,706,706,706,706,706,706,706,706,706,705,702,688,674,659,646,637,627,626,624,621,621,621,621,621,622,625,627,620,609,592,573,518],"ymouse":[593,593,593,593,593,593,593,593,593,593,593,593,593,593,593,593,593,593,593,593,593,593,593,593,593,593,593,593,593,593,593,593,593,593,593,593,593,593,593,593,593,593,593,593,593,593,593,593,593,593,593,593,593,593,593,593,593,593,593,593,586,575,505,482,460,444,432,414,409,405,402,402,402,403,403,404,405,411,417,418,418,418,418,418,418,418,418,418,418,418,418,418,418,418,418,418,418,418,418,418,418,418,418,418,418,418,413,403,397,391,386,379,364,355,342,327,315,292,280,265,237,223,159,139,118,96,75,31],"timestamp_mouse":[10,37,49,68,90,110,129,149,170,189,209,230,249,269,290,308,328,350,368,389,421,430,450,470,489,510,528,548,570,589,609,630,650,670,688,710,730,750,770,789,809,829,849,869,890,908,929,949,970,990,1010,1029,1050,1070,1090,1108,1130,1150,1169,1189,1209,1230,1248,1270,1288,1309,1330,1350,1368,1389,1409,1430,1448,1470,1489,1509,1529,1549,1571,1589,1609,1630,1649,1670,1688,1710,1728,1749,1769,1789,1809,1829,1848,1868,1888,1908,1928,1949,1969,1989,2008,2029,2049,2069,2089,2109,2129,2149,2169,2189,2209,2230,2249,2268,2288,2309,2330,2349,2369,2389,2410,2428,2448,2469,2489,2509,2528,2549],"xSR":741.5,"ySR":573.95,"xT1":424.9,"yT1":0,"xT2":1058.1,"yT2":0,"toosoon":0,"cond_shown":"randomdotsizeEA","ratio_trial":750,"smaller_num":"15","larger_num":"20","correct_side":2,"subjID":"DanielAlejandroTorresUparela19","gender":"0","age":"8","school":"4"},{"start_time":1552327930857,"click_time":1552327932352,"finger_time":1552327931552,"fix_duration":882.5392564979281,"trial":16,"RT":695,"MT":800,"sideResp":2,"stimulus":"img/500/equaldotsize/R/15_Ratio_500_L_1_R_2.png","xmouse":[787,787,787,787,787,787,787,787,787,787,787,787,787,787,787,787,787,787,787,787,787,787,787,787,787,787,787,787,787,787,787,787,787,787,816,846,885,912,955,975,979,997,1007,1015,1026,1031,1039,1044,1050,1060,1062,1064,1065,1067,1073,1077,1083,1090,1097,1103,1104,1104,1104,1104,1104,1104,1104,1105,1106,1112,1115,1118,1119,1124,1125],"ymouse":[604,604,604,604,604,604,604,604,604,604,604,604,604,604,604,604,604,604,604,604,604,604,604,604,604,604,604,604,604,604,604,604,604,599,567,541,498,461,394,356,348,323,308,296,282,273,263,255,245,222,216,209,203,198,182,171,156,141,129,117,117,117,117,117,117,116,116,116,116,115,114,112,110,102,98],"timestamp_mouse":[21,37,56,76,97,117,136,156,177,197,216,236,257,276,295,316,335,355,377,396,415,437,457,477,497,516,537,557,576,597,617,637,657,676,695,716,736,757,777,796,816,836,856,875,895,916,936,955,976,996,1015,1036,1055,1075,1096,1117,1136,1155,1176,1196,1216,1236,1256,1276,1296,1317,1335,1356,1377,1396,1416,1436,1456,1477,1495],"xSR":741.5,"ySR":573.95,"xT1":424.9,"yT1":0,"xT2":1058.1,"yT2":0,"toosoon":0,"cond_shown":"equaldotsize","ratio_trial":500,"smaller_num":"1","larger_num":"2","correct_side":2,"subjID":"DanielAlejandroTorresUparela19","gender":"0","age":"8","school":"4"},{"start_time":1552327936722,"click_time":1552327938253,"finger_time":1552327937554,"fix_duration":1348.0024567374985,"trial":17,"RT":832,"MT":699,"sideResp":2,"stimulus":"img/500/randomdotsizeEA/R/2_Ratio_500_L_3_R_6.png","xmouse":[818,818,818,818,818,818,818,818,818,818,818,818,818,818,818,818,818,818,818,818,818,818,818,818,818,818,818,818,818,818,818,818,818,818,818,818,818,816,809,797,778,726,700,676,651,635,617,616,615,615,615,615,615,615,617,622,636,649,663,680,699,733,751,767,782,804,832,848,865,883,898,931,949,969,1004,1015,1077],"ymouse":[625,625,625,625,625,625,625,625,625,625,625,625,625,625,625,625,625,625,625,625,625,625,625,625,625,625,625,625,625,625,625,625,625,625,625,625,625,625,616,602,582,529,503,477,446,427,402,398,396,394,393,390,389,386,381,370,346,329,312,291,271,238,226,216,206,196,184,177,171,165,159,144,135,127,106,100,56],"timestamp_mouse":[11,34,52,72,92,111,131,150,171,192,211,231,250,272,292,311,330,352,372,392,411,432,451,472,491,511,532,550,572,592,612,631,652,670,691,711,732,751,772,791,811,832,851,871,892,910,931,951,972,991,1011,1031,1051,1070,1090,1110,1131,1151,1171,1191,1212,1231,1250,1270,1292,1311,1331,1351,1371,1391,1410,1431,1451,1471,1491,1512,1530],"xSR":741.5,"ySR":573.95,"xT1":424.9,"yT1":0,"xT2":1058.1,"yT2":0,"toosoon":0,"cond_shown":"randomdotsizeEA","ratio_trial":500,"smaller_num":"3","larger_num":"6","correct_side":2,"subjID":"DanielAlejandroTorresUparela19","gender":"0","age":"8","school":"4"},{"start_time":1552327940866,"click_time":1552327942032,"finger_time":1552327941573,"fix_duration":1472.3511280289827,"trial":18,"RT":707,"MT":459,"sideResp":2,"stimulus":"img/250/randomdotsizeEA/R/4_Ratio_250_L_3_R_12.png","xmouse":[766,767,767,767,767,768,768,768,768,768,768,768,768,768,768,768,768,768,768,768,768,768,768,768,768,768,768,768,768,768,768,768,768,768,771,782,792,808,823,838,865,876,889,900,925,943,954,963,969,970,972,972,973,979,992,1042,1061,1074,1084],"ymouse":[598,598,598,597,597,597,597,597,597,597,597,597,597,597,597,597,597,597,597,597,597,597,597,597,597,597,597,597,597,597,597,597,597,597,592,565,542,508,473,438,373,349,323,300,259,231,214,202,193,190,188,188,187,183,173,133,116,101,90],"timestamp_mouse":[14,34,48,67,86,107,127,148,167,187,207,228,246,267,288,307,328,347,367,388,408,428,447,468,488,508,527,548,566,588,607,626,648,667,687,707,727,747,768,788,806,828,847,868,888,907,927,947,968,988,1008,1027,1047,1066,1086,1108,1128,1146,1166],"xSR":741.5,"ySR":573.95,"xT1":424.9,"yT1":0,"xT2":1058.1,"yT2":0,"toosoon":0,"cond_shown":"randomdotsizeEA","ratio_trial":250,"smaller_num":"3","larger_num":"12","correct_side":2,"subjID":"DanielAlejandroTorresUparela19","gender":"0","age":"8","school":"4"},{"start_time":1552327944119,"click_time":1552327945233,"finger_time":1552327944753,"fix_duration":1005.1858509816379,"trial":19,"RT":634,"MT":480,"sideResp":2,"stimulus":"img/750/equaldotanddens/R/11_Ratio_750_L_12_R_16.png","xmouse":[811,811,811,811,810,808,807,807,807,807,807,807,807,807,807,807,807,807,807,807,807,807,807,807,807,807,807,807,807,807,807,813,824,831,838,846,857,884,899,912,924,935,951,958,966,972,978,995,1001,1008,1015,1024,1043,1051,1058,1070],"ymouse":[586,586,586,585,585,586,586,587,587,587,587,587,587,587,587,587,587,587,587,587,587,587,587,587,587,587,587,587,587,587,578,563,523,499,473,447,420,357,324,299,278,258,224,209,195,184,174,149,139,128,119,110,91,82,74,60],"timestamp_mouse":[15,34,54,73,95,113,135,154,174,193,214,234,253,274,294,315,334,355,375,394,414,434,455,474,494,515,534,555,574,593,614,634,654,675,694,713,735,754,775,794,814,835,854,875,894,914,934,953,974,994,1014,1035,1054,1074,1094,1114],"xSR":741.5,"ySR":573.95,"xT1":424.9,"yT1":0,"xT2":1058.1,"yT2":0,"toosoon":0,"cond_shown":"equaldotanddens","ratio_trial":750,"smaller_num":"12","larger_num":"16","correct_side":2,"subjID":"DanielAlejandroTorresUparela19","gender":"0","age":"8","school":"4"},{"start_time":1552327948970,"click_time":1552327950392,"finger_time":1552327949554,"fix_duration":1136.4046927501659,"trial":20,"RT":584,"MT":838,"sideResp":1,"stimulus":"img/500/equaldotanddens/L/13_Ratio_500_L_12_R_6.png","xmouse":[820,820,820,820,820,820,820,820,820,820,820,820,820,820,820,820,820,820,820,820,820,820,820,820,820,820,820,820,819,815,808,796,788,777,765,750,721,712,700,687,665,653,642,631,619,604,599,597,596,595,595,593,593,591,588,578,574,563,557,552,546,545,545,545,545,545,545,545,545,544,529,515],"ymouse":[624,624,624,624,624,624,624,624,624,624,624,624,624,624,624,624,624,624,624,624,624,624,624,624,620,618,605,589,574,559,543,515,499,483,467,450,415,402,387,372,340,323,308,292,280,262,256,253,250,248,247,244,241,235,227,188,158,111,88,71,52,48,46,45,45,45,45,45,45,45,40,38],"timestamp_mouse":[9,22,44,63,84,103,124,144,162,184,202,224,244,263,282,303,323,343,363,384,404,423,443,463,483,502,522,542,563,584,604,624,643,663,684,703,723,743,764,783,804,823,843,862,883,904,923,942,963,983,1003,1023,1043,1063,1083,1104,1123,1143,1163,1184,1204,1223,1243,1263,1283,1303,1324,1344,1364,1384,1403,1422],"xSR":741.5,"ySR":573.95,"xT1":424.9,"yT1":0,"xT2":1058.1,"yT2":0,"toosoon":0,"cond_shown":"equaldotanddens","ratio_trial":500,"smaller_num":"6","larger_num":"12","correct_side":1,"subjID":"DanielAlejandroTorresUparela19","gender":"0","age":"8","school":"4"},{"start_time":1552327951632,"click_time":1552327953074,"finger_time":1552327952414,"fix_duration":517.5718118428588,"trial":21,"RT":782,"MT":660,"sideResp":2,"stimulus":"img/900/randomdotsizeEA/L/10_Ratio_900_L_20_R_18.png","xmouse":[781,781,781,781,781,781,781,781,781,781,781,781,781,781,781,781,781,781,781,781,781,781,781,781,781,781,781,781,781,781,781,781,781,781,781,781,783,785,799,810,824,838,870,883,891,901,914,935,989,1020,1050,1076,1095,1113,1120,1120,1120,1120,1120,1120,1120,1120,1120,1120,1120,1120,1120,1120,1120,1120,1120,1120,1120],"ymouse":[623,623,623,623,623,623,623,623,623,623,623,623,623,623,623,623,623,623,623,623,623,623,623,623,623,623,623,623,623,623,623,623,623,623,623,623,618,613,588,571,547,521,461,430,409,387,353,304,163,86,18,0,0,0,0,0,0,0,0,0,0,0,0,0,0,0,0,0,0,0,0,0,3],"timestamp_mouse":[15,27,41,62,82,102,121,141,161,182,202,221,242,261,281,301,321,342,362,382,401,421,442,461,480,502,521,541,562,582,601,621,640,662,681,702,722,742,761,782,802,822,843,861,881,901,922,941,961,982,1002,1022,1041,1061,1082,1101,1122,1141,1161,1180,1202,1221,1241,1261,1282,1301,1322,1341,1362,1381,1401,1422,1442],"xSR":741.5,"ySR":573.95,"xT1":424.9,"yT1":0,"xT2":1058.1,"yT2":0,"toosoon":0,"cond_shown":"randomdotsizeEA","ratio_trial":900,"smaller_num":"18","larger_num":"20","correct_side":1,"subjID":"DanielAlejandroTorresUparela19","gender":"0","age":"8","school":"4"},{"start_time":1552327954761,"click_time":1552327956233,"finger_time":1552327955834,"fix_duration":766.3672161910117,"trial":22,"RT":1073,"MT":399,"sideResp":1,"stimulus":"img/500/randomdotsizeEA/L/7_Ratio_500_L_10_R_5.png","xmouse":[780,780,780,780,780,780,780,780,780,780,780,780,780,780,780,780,780,780,780,780,780,780,780,780,780,780,780,780,780,780,780,780,780,780,780,780,780,780,780,780,780,780,780,780,780,780,780,780,780,780,779,762,746,728,692,663,620,602,589,581,574,567,555,548,543,540,536,533,530,525,520,516,508,503],"ymouse":[643,643,643,643,643,643,643,643,643,643,643,643,643,643,643,643,643,643,643,643,643,643,643,643,643,643,643,643,643,643,643,643,643,643,643,643,643,643,643,643,643,643,643,643,643,643,643,643,643,643,643,610,581,552,508,477,437,418,399,385,370,355,320,292,276,259,223,204,183,163,146,132,104,91],"timestamp_mouse":[12,34,52,72,92,112,132,153,173,192,213,232,251,272,292,313,333,352,372,392,413,433,453,473,492,513,533,552,572,592,612,632,653,672,692,713,732,753,773,793,811,832,853,872,892,911,932,953,973,993,1012,1033,1053,1073,1091,1113,1132,1153,1173,1193,1212,1232,1251,1273,1292,1313,1332,1352,1372,1391,1413,1432,1452,1472],"xSR":741.5,"ySR":573.95,"xT1":424.9,"yT1":0,"xT2":1058.1,"yT2":0,"toosoon":0,"cond_shown":"randomdotsizeEA","ratio_trial":500,"smaller_num":"5","larger_num":"10","correct_side":1,"subjID":"DanielAlejandroTorresUparela19","gender":"0","age":"8","school":"4"},{"start_time":1552327958037,"click_time":1552327959214,"finger_time":1552327958833,"fix_duration":582.8797327524942,"trial":23,"RT":796,"MT":381,"sideResp":2,"stimulus":"img/750/equaldotsize/L/6_Ratio_750_L_24_R_18.png","xmouse":[810,810,810,810,810,810,810,810,810,810,810,810,810,810,810,810,810,810,810,810,810,810,810,810,810,810,810,810,810,810,810,810,810,810,810,810,810,810,820,827,835,845,862,870,879,888,898,908,932,943,955,970,986,1017,1032,1046,1059,1075,1102],"ymouse":[605,605,605,605,605,605,605,605,605,605,605,605,605,605,605,605,605,605,605,605,605,605,605,605,605,605,605,605,605,605,605,605,605,605,605,605,605,605,589,573,553,531,489,470,450,434,417,400,357,339,318,295,271,227,206,184,161,134,86],"timestamp_mouse":[16,36,56,76,96,117,136,156,176,196,216,237,256,276,297,317,337,356,376,396,416,437,457,477,497,516,537,557,576,596,616,637,657,676,696,716,737,757,777,796,816,837,858,876,897,916,937,957,977,997,1017,1035,1056,1076,1097,1117,1136,1156,1177],"xSR":741.5,"ySR":573.95,"xT1":424.9,"yT1":0,"xT2":1058.1,"yT2":0,"toosoon":0,"cond_shown":"equaldotsize","ratio_trial":750,"smaller_num":"18","larger_num":"24","correct_side":1,"subjID":"DanielAlejandroTorresUparela19","gender":"0","age":"8","school":"4"},{"start_time":1552327960565,"click_time":1552327961913,"finger_time":1552327961434,"fix_duration":350.34689666987816,"trial":24,"RT":869,"MT":479,"sideResp":1,"stimulus":"img/500/equaldotanddens/L/8_Ratio_500_L_8_R_4.png","xmouse":[804,804,804,804,804,804,804,804,804,804,804,804,804,804,804,804,804,804,804,804,804,804,804,804,804,804,804,804,804,804,804,804,804,804,804,804,804,804,804,804,804,804,795,777,755,721,683,608,578,562,551,549,547,547,547,548,549,549,549,549,549,549,549,549,546,539,528,502],"ymouse":[635,635,635,635,635,635,635,635,635,635,635,635,635,635,635,635,635,635,635,635,635,635,635,635,635,635,635,635,635,635,635,635,635,635,635,635,635,635,635,635,635,635,588,530,472,415,365,272,235,214,191,185,162,149,137,129,127,126,126,126,126,126,126,126,122,107,91,63],"timestamp_mouse":[12,31,49,68,89,109,128,148,169,189,209,229,249,269,288,308,328,348,368,388,409,428,448,468,489,508,529,548,569,588,608,629,648,667,687,709,729,749,768,788,809,828,848,869,889,909,928,948,969,989,1008,1028,1048,1068,1088,1109,1128,1148,1169,1188,1208,1229,1248,1269,1289,1309,1328,1348],"xSR":741.5,"ySR":573.95,"xT1":424.9,"yT1":0,"xT2":1058.1,"yT2":0,"toosoon":0,"cond_shown":"equaldotanddens","ratio_trial":500,"smaller_num":"4","larger_num":"8","correct_side":1,"subjID":"DanielAlejandroTorresUparela19","gender":"0","age":"8","school":"4"},{"start_time":1552327965111,"click_time":1552327966973,"finger_time":1552327966013,"fix_duration":255.6337147626535,"trial":25,"RT":902,"MT":960,"sideResp":2,"stimulus":"img/750/randomdotsizeEA/L/1_Ratio_750_L_20_R_15.png","xmouse":[791,791,791,791,791,791,791,791,791,791,791,791,791,791,791,791,791,791,791,791,791,791,791,791,791,791,791,791,791,791,791,791,791,791,791,791,791,791,791,791,791,791,791,791,791,783,773,759,748,737,714,695,688,669,657,637,633,630,627,626,626,626,626,626,626,626,626,625,628,634,663,683,716,734,747,757,759,761,766,774,788,838,906,952,985,1009,1035,1042,1048,1052,1056,1062,1065,1068],"ymouse":[637,637,637,637,637,637,637,637,637,637,637,637,637,637,637,637,637,637,637,637,637,637,637,637,637,637,637,637,637,637,637,637,637,637,637,637,637,637,637,637,637,622,605,589,574,530,497,467,444,423,383,357,349,327,316,295,292,288,284,284,284,284,284,284,284,283,283,281,275,268,250,242,231,225,221,216,215,214,211,208,201,188,170,158,148,141,129,126,123,119,115,105,100,91],"timestamp_mouse":[10,32,43,62,82,103,122,142,162,183,202,222,243,263,283,302,323,342,363,382,402,423,442,463,483,501,523,543,561,583,602,623,643,663,683,703,722,742,763,783,802,823,842,862,882,902,922,942,963,983,1003,1022,1042,1062,1083,1103,1122,1142,1163,1182,1203,1223,1243,1262,1283,1303,1322,1343,1362,1382,1403,1422,1443,1462,1483,1503,1522,1542,1563,1583,1602,1622,1642,1663,1683,1702,1723,1742,1763,1783,1802,1822,1842,1862],"xSR":741.5,"ySR":573.95,"xT1":424.9,"yT1":0,"xT2":1058.1,"yT2":0,"toosoon":0,"cond_shown":"randomdotsizeEA","ratio_trial":750,"smaller_num":"15","larger_num":"20","correct_side":1,"subjID":"DanielAlejandroTorresUparela19","gender":"0","age":"8","school":"4"},{"start_time":1552327969185,"click_time":1552327971033,"finger_time":1552327970133,"fix_duration":250,"trial":26,"RT":948,"MT":900,"sideResp":2,"stimulus":"img/250/equaldotsize/R/8_Ratio_250_L_1_R_4.png","xmouse":[757,757,757,757,757,757,757,757,757,757,757,757,757,757,757,757,757,757,757,757,757,757,757,757,757,757,757,757,757,757,757,757,757,757,757,757,757,757,757,757,757,758,772,780,784,788,791,803,807,812,814,816,821,824,826,829,832,845,853,859,866,873,886,893,902,913,927,960,971,983,996,1011,1047,1067,1083,1100,1115,1151,1164,1174,1181,1186,1190,1192,1192,1192,1192,1192,1191,1187,1182,1173,1144],"ymouse":[629,629,629,629,629,629,629,629,629,629,629,629,629,629,629,629,629,629,629,629,629,629,629,629,629,629,629,629,629,629,629,629,629,629,629,629,629,629,629,629,629,629,611,599,590,583,577,559,553,547,543,540,532,527,525,521,517,501,492,484,476,464,448,439,428,417,405,378,369,359,348,335,301,282,264,244,227,183,168,157,148,141,132,129,128,128,128,125,121,115,105,89,54],"timestamp_mouse":[12,31,48,68,89,108,129,149,168,189,209,228,249,268,289,308,329,349,368,389,409,429,448,468,488,508,529,548,568,588,607,629,648,668,689,708,729,749,768,788,809,828,849,868,889,909,928,948,968,988,1009,1028,1049,1069,1089,1108,1129,1148,1170,1188,1208,1229,1248,1269,1288,1308,1329,1348,1368,1388,1408,1428,1448,1469,1489,1509,1529,1548,1568,1588,1608,1628,1647,1669,1688,1708,1728,1748,1768,1788,1808,1828,1848],"xSR":741.5,"ySR":573.95,"xT1":424.9,"yT1":0,"xT2":1058.1,"yT2":0,"toosoon":0,"cond_shown":"equaldotsize","ratio_trial":250,"smaller_num":"1","larger_num":"4","correct_side":2,"subjID":"DanielAlejandroTorresUparela19","gender":"0","age":"8","school":"4"},{"start_time":1552327973433,"click_time":1552327974653,"finger_time":1552327974254,"fix_duration":999.4557224343085,"trial":27,"RT":821,"MT":399,"sideResp":2,"stimulus":"img/900/equaldotanddens/R/12_Ratio_900_L_18_R_20.png","xmouse":[808,808,808,808,808,808,808,808,808,808,808,808,808,808,808,808,808,808,808,808,808,808,808,808,808,808,808,808,808,808,808,808,808,808,808,808,808,808,812,820,836,841,849,851,860,872,878,888,900,911,936,946,960,987,999,1012,1041,1055,1066,1076,1099,1111],"ymouse":[647,647,647,647,647,647,647,647,647,647,647,647,647,647,647,647,647,647,647,647,647,647,647,647,647,647,647,647,647,647,647,647,647,647,647,647,647,643,632,611,574,562,539,533,511,491,480,467,451,435,400,388,368,329,302,274,213,187,167,149,111,90],"timestamp_mouse":[11,20,40,60,80,100,121,141,160,180,199,221,241,261,281,301,320,340,361,381,400,420,441,461,481,500,521,540,561,580,601,619,641,661,680,701,721,740,759,781,800,821,841,860,880,900,920,941,961,980,1000,1020,1040,1061,1080,1101,1121,1140,1161,1181,1201,1219],"xSR":741.5,"ySR":573.95,"xT1":424.9,"yT1":0,"xT2":1058.1,"yT2":0,"toosoon":0,"cond_shown":"equaldotanddens","ratio_trial":900,"smaller_num":"18","larger_num":"20","correct_side":2,"subjID":"DanielAlejandroTorresUparela19","gender":"0","age":"8","school":"4"},{"start_time":1552327977119,"click_time":1552327978754,"finger_time":1552327977834,"fix_duration":1284.5464560755095,"trial":28,"RT":715,"MT":920,"sideResp":2,"stimulus":"img/250/equaldotsize/R/13_Ratio_250_L_2_R_8.png","xmouse":[825,825,825,825,825,825,825,825,825,825,825,825,825,825,825,825,825,825,825,825,825,825,825,825,825,825,825,825,825,825,825,825,825,833,840,850,869,879,885,889,894,902,906,910,916,924,949,962,971,981,990,1021,1047,1073,1098,1117,1141,1143,1143,1143,1143,1143,1143,1143,1143,1143,1143,1143,1143,1143,1143,1143,1143,1143,1143,1143,1143,1143,1143,1143,1143,1139],"ymouse":[630,630,630,630,630,630,630,630,630,630,630,630,630,630,630,630,630,630,630,630,630,630,630,630,630,630,630,630,630,630,630,630,630,613,594,572,525,493,471,454,437,409,396,381,363,343,282,251,223,197,177,104,42,0,0,0,0,0,0,0,0,0,0,0,0,0,0,0,0,0,0,0,0,0,0,0,0,0,0,0,0,4],"timestamp_mouse":[14,34,53,75,95,115,135,155,175,195,214,234,255,274,294,315,335,355,374,394,415,434,454,475,495,514,535,554,575,595,614,634,655,675,694,715,735,755,774,795,814,835,854,875,894,914,933,954,974,994,1014,1034,1054,1075,1095,1114,1136,1154,1174,1195,1214,1234,1254,1274,1294,1314,1334,1354,1374,1394,1415,1434,1454,1475,1495,1514,1534,1555,1574,1595,1615,1634],"xSR":741.5,"ySR":573.95,"xT1":424.9,"yT1":0,"xT2":1058.1,"yT2":0,"toosoon":0,"cond_shown":"equaldotsize","ratio_trial":250,"smaller_num":"2","larger_num":"8","correct_side":2,"subjID":"DanielAlejandroTorresUparela19","gender":"0","age":"8","school":"4"},{"start_time":1552327981902,"click_time":1552327982774,"finger_time":1552327982633,"fix_duration":826.9661011043097,"trial":29,"RT":731,"MT":141,"sideResp":1,"stimulus":"img/900/randomdotsizeEA/L/2_Ratio_900_L_20_R_18.png","xmouse":[787,787,787,787,787,787,787,787,787,787,787,787,787,787,787,787,787,787,787,787,787,787,787,787,787,787,787,787,787,787,787,787,787,787,779,766,742,681,640,606,574,540,512,464],"ymouse":[641,641,641,641,641,641,641,641,641,641,641,641,641,641,641,641,641,641,641,641,641,641,641,641,641,641,641,641,641,641,641,641,641,641,622,595,555,467,408,351,293,227,163,40],"timestamp_mouse":[13,31,51,71,92,112,132,151,172,191,212,231,252,271,291,311,332,350,372,392,410,431,452,471,491,511,532,551,571,592,612,632,651,672,692,711,731,752,771,791,811,830,851,872],"xSR":741.5,"ySR":573.95,"xT1":424.9,"yT1":0,"xT2":1058.1,"yT2":0,"toosoon":0,"cond_shown":"randomdotsizeEA","ratio_trial":900,"smaller_num":"18","larger_num":"20","correct_side":1,"subjID":"DanielAlejandroTorresUparela19","gender":"0","age":"8","school":"4"},{"start_time":1552327984723,"click_time":1552327985634,"finger_time":1552327985373,"fix_duration":787.618696123714,"trial":30,"RT":650,"MT":261,"sideResp":2,"stimulus":"img/750/equaldotsize/R/7_Ratio_750_L_3_R_4.png","xmouse":[781,781,781,781,781,781,781,781,781,781,781,781,781,781,781,781,781,781,781,781,781,781,781,781,781,781,781,781,781,781,784,789,825,844,859,876,895,950,978,1002,1028,1083,1115,1131,1145,1158],"ymouse":[621,621,621,621,621,621,621,621,621,621,621,621,621,621,621,621,621,621,621,621,621,621,621,621,621,621,621,621,621,621,620,613,559,527,501,470,438,361,322,289,257,192,153,131,110,90],"timestamp_mouse":[20,30,50,70,91,111,130,150,170,191,209,230,250,271,289,311,330,351,370,390,410,430,450,471,490,510,530,550,570,590,611,631,650,670,690,711,730,751,771,790,810,832,851,870,890,911],"xSR":741.5,"ySR":573.95,"xT1":424.9,"yT1":0,"xT2":1058.1,"yT2":0,"toosoon":0,"cond_shown":"equaldotsize","ratio_trial":750,"smaller_num":"3","larger_num":"4","correct_side":2,"subjID":"DanielAlejandroTorresUparela19","gender":"0","age":"8","school":"4"},{"start_time":1552327987207,"click_time":1552327988334,"finger_time":1552327987933,"fix_duration":351.08903467276076,"trial":31,"RT":726,"MT":401,"sideResp":2,"stimulus":"img/250/equaldotsize/R/13_Ratio_250_L_2_R_8.png","xmouse":[748,748,748,748,748,748,748,748,748,748,748,748,748,748,748,748,748,748,748,748,748,748,748,748,748,748,748,748,748,748,748,748,748,758,780,807,848,872,910,925,938,952,962,975,980,982,984,986,993,998,1004,1013,1021,1037,1045,1055,1066],"ymouse":[648,648,648,648,648,648,648,648,648,648,648,648,648,648,648,648,648,648,648,648,648,648,648,648,648,648,648,648,648,648,648,648,648,632,607,579,534,496,424,391,363,339,324,299,292,285,277,272,250,232,214,191,167,123,100,78,55],"timestamp_mouse":[12,31,47,67,86,106,126,147,166,187,207,237,246,266,287,307,326,347,367,386,407,425,447,467,487,506,527,547,567,587,606,626,647,666,687,706,726,747,765,787,806,827,847,866,887,906,927,946,966,986,1006,1026,1047,1066,1087,1106,1127],"xSR":741.5,"ySR":573.95,"xT1":424.9,"yT1":0,"xT2":1058.1,"yT2":0,"toosoon":0,"cond_shown":"equaldotsize","ratio_trial":250,"smaller_num":"2","larger_num":"8","correct_side":2,"subjID":"DanielAlejandroTorresUparela19","gender":"0","age":"8","school":"4"},{"start_time":1552327989725,"click_time":1552327991053,"finger_time":1552327990573,"fix_duration":250,"trial":32,"RT":848,"MT":480,"sideResp":2,"stimulus":"img/750/equaldotanddens/R/5_Ratio_750_L_15_R_20.png","xmouse":[818,818,818,818,818,818,818,818,818,818,818,817,815,813,813,813,813,813,813,813,813,813,813,813,813,813,813,813,813,813,813,813,813,813,813,813,813,813,815,819,821,825,832,837,843,848,856,862,873,880,890,895,905,911,918,923,925,941,953,963,979,987,1002,1014,1029,1047,1065],"ymouse":[633,633,633,633,633,633,633,633,633,633,633,633,635,638,638,638,638,638,638,638,638,638,638,638,638,638,638,638,638,638,638,638,638,638,638,638,636,633,626,615,609,593,571,559,543,527,511,497,471,456,436,423,399,388,376,364,353,324,308,295,274,262,230,204,169,126,80],"timestamp_mouse":[12,29,48,69,89,108,128,148,169,189,208,229,248,268,289,309,329,348,368,389,409,428,448,469,489,508,528,549,568,588,608,629,648,669,689,708,728,748,769,788,808,828,848,869,888,908,928,948,968,988,1009,1029,1048,1068,1088,1108,1129,1149,1168,1188,1208,1228,1248,1268,1288,1309,1328],"xSR":741.5,"ySR":573.95,"xT1":424.9,"yT1":0,"xT2":1058.1,"yT2":0,"toosoon":0,"cond_shown":"equaldotanddens","ratio_trial":750,"smaller_num":"15","larger_num":"20","correct_side":2,"subjID":"DanielAlejandroTorresUparela19","gender":"0","age":"8","school":"4"},{"start_time":1552327993886,"click_time":1552327995093,"finger_time":1552327994793,"fix_duration":250,"trial":33,"RT":907,"MT":300,"sideResp":1,"stimulus":"img/500/equaldotsize/L/4_Ratio_500_L_18_R_9.png","xmouse":[790,790,790,790,790,790,790,790,790,790,790,790,790,790,789,788,788,788,788,788,788,787,787,787,787,787,787,787,787,787,787,787,787,787,787,787,786,785,784,784,784,784,783,783,782,779,776,774,770,766,743,727,706,688,668,623,596,576,553,529,472],"ymouse":[622,622,622,622,622,622,622,622,622,622,622,622,622,622,622,619,619,619,619,619,615,613,612,611,611,611,610,610,610,610,610,610,610,610,610,610,607,604,602,602,602,599,595,590,584,567,555,545,532,517,458,425,390,358,321,244,203,167,129,94,13],"timestamp_mouse":[10,32,47,67,87,106,127,147,168,188,208,227,247,266,288,306,328,346,367,388,407,427,447,467,488,507,528,547,568,588,607,627,649,667,687,708,727,747,767,788,807,827,848,867,888,907,927,948,967,988,1007,1027,1047,1068,1088,1107,1128,1147,1167,1188,1207],"xSR":741.5,"ySR":573.95,"xT1":424.9,"yT1":0,"xT2":1058.1,"yT2":0,"toosoon":0,"cond_shown":"equaldotsize","ratio_trial":500,"smaller_num":"9","larger_num":"18","correct_side":1,"subjID":"DanielAlejandroTorresUparela19","gender":"0","age":"8","school":"4"},{"start_time":1552327997014,"click_time":1552327998894,"finger_time":1552327997793,"fix_duration":679.3941873711399,"trial":34,"RT":779,"MT":1101,"sideResp":2,"stimulus":"img/750/equaldotsize/L/14_Ratio_750_L_8_R_6.png","xmouse":[811,811,811,811,811,811,811,811,811,811,811,811,811,811,811,811,811,811,811,811,811,811,811,811,811,811,811,811,811,811,811,811,811,811,811,811,812,813,815,821,825,830,838,843,860,874,889,902,914,936,944,952,962,968,982,993,1005,1019,1035,1052,1053,1054,1054,1054,1054,1056,1058,1061,1065,1069,1071,1071,1071,1071,1071,1071,1071,1071,1071,1071,1071,1071,1071,1071,1073,1075,1076,1077,1078,1078,1078,1078,1080,1083,1086],"ymouse":[592,592,592,592,592,592,592,592,592,592,592,592,592,592,592,592,592,592,592,592,592,592,592,592,592,592,592,592,592,592,592,592,592,592,592,592,589,588,583,561,547,533,514,502,463,441,415,392,371,332,318,303,284,272,247,229,210,191,175,158,156,155,155,155,155,148,144,139,132,126,121,121,121,121,121,121,121,121,121,121,121,121,121,121,118,116,113,112,110,110,110,110,106,101,94],"timestamp_mouse":[1,19,39,60,79,100,119,139,160,180,198,219,239,259,278,300,319,339,360,379,400,419,439,460,478,499,519,538,559,579,600,619,639,659,679,699,720,740,760,779,799,820,840,860,878,898,919,940,960,979,999,1019,1040,1060,1079,1100,1120,1139,1160,1178,1199,1219,1239,1259,1279,1300,1319,1340,1359,1379,1400,1419,1440,1460,1479,1499,1519,1540,1559,1580,1600,1618,1639,1659,1679,1700,1719,1740,1760,1779,1800,1820,1839,1859,1879],"xSR":741.5,"ySR":573.95,"xT1":424.9,"yT1":0,"xT2":1058.1,"yT2":0,"toosoon":0,"cond_shown":"equaldotsize","ratio_trial":750,"smaller_num":"6","larger_num":"8","correct_side":1,"subjID":"DanielAlejandroTorresUparela19","gender":"0","age":"8","school":"4"},{"start_time":1552328000833,"click_time":1552328002214,"finger_time":1552328001613,"fix_duration":578.5131811826762,"trial":35,"RT":780,"MT":601,"sideResp":1,"stimulus":"img/500/equaldotsize/L/8_Ratio_500_L_8_R_4.png","xmouse":[820,820,820,820,820,820,820,820,820,820,820,820,820,820,820,820,820,820,820,820,820,820,820,820,820,820,820,820,820,820,820,820,820,820,820,820,819,819,806,794,783,772,761,746,741,734,729,724,712,705,694,682,668,628,603,582,566,553,545,539,534,529,527,527,526,525,523,519,516,505],"ymouse":[613,613,613,613,613,613,613,613,613,613,613,613,613,613,613,613,613,613,613,613,613,613,613,613,613,613,613,613,613,613,613,613,613,613,613,613,613,608,577,549,529,507,485,442,421,402,384,366,326,304,277,254,229,168,141,125,118,116,116,114,114,112,112,112,112,111,109,106,102,78],"timestamp_mouse":[9,21,41,61,80,100,120,140,160,180,200,220,240,261,279,301,321,340,360,380,401,421,440,461,481,500,521,541,560,580,601,621,640,661,681,700,720,741,761,780,800,820,840,861,880,901,921,939,961,979,1001,1020,1040,1061,1080,1100,1121,1140,1161,1180,1200,1221,1240,1260,1280,1300,1320,1341,1361,1381],"xSR":741.5,"ySR":573.95,"xT1":424.9,"yT1":0,"xT2":1058.1,"yT2":0,"toosoon":0,"cond_shown":"equaldotsize","ratio_trial":500,"smaller_num":"4","larger_num":"8","correct_side":1,"subjID":"DanielAlejandroTorresUparela19","gender":"0","age":"8","school":"4"},{"start_time":1552328004703,"click_time":1552328005733,"finger_time":1552328005493,"fix_duration":1447.6234137159267,"trial":36,"RT":790,"MT":240,"sideResp":2,"stimulus":"img/500/equaldotsize/R/6_Ratio_500_L_9_R_18.png","xmouse":[821,821,821,821,821,821,821,821,821,821,821,821,821,821,821,821,821,821,821,821,821,821,821,821,821,821,821,821,821,821,821,821,821,821,821,821,821,830,839,851,880,897,912,927,947,975,991,1016,1045,1068,1094,1105],"ymouse":[601,601,601,601,601,601,601,601,601,601,601,601,601,601,601,601,601,601,601,601,601,601,601,601,601,601,601,601,601,601,601,601,601,601,601,601,601,594,577,549,482,444,409,374,334,292,271,239,197,162,105,78],"timestamp_mouse":[10,36,50,71,91,111,130,151,170,190,211,231,250,270,291,310,330,351,370,391,411,431,450,469,490,510,530,551,570,591,611,630,651,671,690,710,731,751,770,790,809,830,850,871,890,910,930,950,971,990,1011,1030],"xSR":741.5,"ySR":573.95,"xT1":424.9,"yT1":0,"xT2":1058.1,"yT2":0,"toosoon":0,"cond_shown":"equaldotsize","ratio_trial":500,"smaller_num":"9","larger_num":"18","correct_side":2,"subjID":"DanielAlejandroTorresUparela19","gender":"0","age":"8","school":"4"},{"start_time":1552328008285,"click_time":1552328009614,"finger_time":1552328009193,"fix_duration":250,"trial":37,"RT":908,"MT":421,"sideResp":2,"stimulus":"img/900/equaldotsize/L/8_Ratio_900_L_20_R_18.png","xmouse":[802,802,802,802,802,802,802,802,802,802,802,802,802,802,802,802,802,802,802,802,802,802,802,802,802,802,802,802,802,802,802,802,802,802,802,802,802,802,802,802,802,802,802,805,833,892,969,1114,1160,1183,1195,1205,1214,1217,1223,1224,1224,1223,1219,1216,1211,1203,1198,1192,1177,1162,1130],"ymouse":[646,646,646,646,646,646,646,646,646,646,646,646,646,646,646,646,646,646,646,646,646,646,646,646,646,646,646,646,646,646,646,646,646,646,646,646,646,646,646,646,646,646,646,638,594,520,441,321,278,249,228,194,164,155,128,114,103,85,78,70,64,56,55,53,53,53,58],"timestamp_mouse":[20,34,48,68,89,109,128,149,169,188,209,229,249,269,289,308,328,349,368,388,409,428,449,468,488,508,528,549,568,588,608,628,648,668,688,708,729,748,768,788,808,828,848,869,889,908,929,948,968,988,1009,1029,1048,1068,1089,1108,1129,1149,1168,1189,1208,1229,1248,1268,1289,1309,1328],"xSR":741.5,"ySR":573.95,"xT1":424.9,"yT1":0,"xT2":1058.1,"yT2":0,"toosoon":0,"cond_shown":"equaldotsize","ratio_trial":900,"smaller_num":"18","larger_num":"20","correct_side":1,"subjID":"DanielAlejandroTorresUparela19","gender":"0","age":"8","school":"4"},{"start_time":1552328013158,"click_time":1552328015335,"finger_time":1552328013833,"fix_duration":1044.1187598679496,"trial":38,"RT":675,"MT":1502,"sideResp":1,"stimulus":"img/750/equaldotanddens/L/6_Ratio_750_L_24_R_18.png","xmouse":[800,800,800,800,800,800,800,800,800,799,797,795,794,793,793,793,793,793,793,793,792,792,791,791,791,791,791,791,791,791,791,791,791,791,791,791,787,780,766,759,752,747,741,724,712,696,683,662,628,620,615,612,608,604,603,603,603,602,595,589,576,554,523,435,369,263,229,128,28,4,0,0,0,0,0,0,0,0,0,0,0,0,0,0,0,1,13,31,80,104,130,150,169,193,198,202,203,206,217,224,235,247,266,307,332,359,391,423,450],"ymouse":[605,605,605,605,605,605,605,605,605,605,605,605,605,605,605,605,605,605,605,605,605,605,605,604,604,604,604,604,604,604,604,599,592,537,508,487,470,455,438,432,427,423,418,402,388,368,352,328,286,274,262,253,247,239,239,239,239,237,223,210,188,154,110,0,0,0,0,0,0,0,0,0,0,0,0,0,0,0,0,0,0,0,0,0,0,0,2,6,12,20,26,30,32,35,35,35,35,35,36,37,39,39,39,39,43,46,49,54,55],"timestamp_mouse":[16,35,56,75,96,114,136,156,176,196,216,236,254,275,296,315,335,355,375,395,416,435,456,475,496,515,536,555,575,596,614,635,655,675,695,714,736,756,775,795,814,834,855,874,895,915,935,956,975,996,1015,1035,1055,1074,1095,1116,1135,1156,1175,1196,1216,1236,1255,1276,1296,1316,1336,1356,1374,1395,1416,1435,1456,1475,1495,1515,1535,1556,1575,1595,1616,1636,1656,1675,1695,1716,1734,1755,1775,1795,1815,1835,1855,1876,1896,1915,1936,1956,1975,1995,2015,2034,2055,2076,2095,2116,2134,2155,2177],"xSR":741.5,"ySR":573.95,"xT1":424.9,"yT1":0,"xT2":1058.1,"yT2":0,"toosoon":0,"cond_shown":"equaldotanddens","ratio_trial":750,"smaller_num":"18","larger_num":"24","correct_side":1,"subjID":"DanielAlejandroTorresUparela19","gender":"0","age":"8","school":"4"},{"start_time":1552328017444,"click_time":1552328019194,"finger_time":1552328018393,"fix_duration":250,"trial":39,"RT":949,"MT":801,"sideResp":2,"stimulus":"img/750/randomdotsizeEA/L/10_Ratio_750_L_4_R_3.png","xmouse":[820,820,820,820,820,820,820,820,820,820,820,820,820,820,820,820,820,820,820,820,820,820,820,820,820,820,820,820,820,820,820,820,820,820,820,819,819,819,819,819,819,819,819,819,819,819,834,861,893,939,1042,1134,1204,1275,1402,1446,1480,1502,1521,1532,1532,1531,1531,1531,1531,1531,1529,1527,1523,1515,1489,1474,1463,1445,1406,1384,1365,1348,1329,1312,1280,1255,1237,1217,1196,1169,1162,1158],"ymouse":[611,611,611,611,611,611,611,611,611,611,611,611,611,611,611,611,611,611,611,611,611,611,611,611,611,611,611,611,611,611,611,611,611,611,611,611,611,611,611,611,611,611,611,611,611,611,594,562,520,461,309,154,29,0,0,0,0,0,0,0,0,0,0,0,0,0,1,3,7,13,24,28,31,33,34,34,34,34,34,34,32,28,25,22,20,17,17,17],"timestamp_mouse":[10,32,49,70,89,110,129,149,168,189,208,228,248,268,289,309,329,350,370,390,408,428,450,470,489,508,530,550,569,590,610,628,648,670,689,710,730,749,770,790,810,828,848,870,889,910,929,949,969,989,1008,1029,1049,1068,1089,1108,1130,1149,1168,1190,1210,1230,1249,1269,1290,1309,1330,1350,1369,1390,1410,1429,1450,1469,1491,1509,1530,1550,1569,1589,1609,1630,1650,1669,1689,1709,1729,1750],"xSR":741.5,"ySR":573.95,"xT1":424.9,"yT1":0,"xT2":1058.1,"yT2":0,"toosoon":0,"cond_shown":"randomdotsizeEA","ratio_trial":750,"smaller_num":"3","larger_num":"4","correct_side":1,"subjID":"DanielAlejandroTorresUparela19","gender":"0","age":"8","school":"4"},{"start_time":1552328021390,"click_time":1552328023293,"finger_time":1552328022193,"fix_duration":1135.0238547770318,"trial":40,"RT":803,"MT":1100,"sideResp":2,"stimulus":"img/500/equaldotanddens/R/15_Ratio_500_L_1_R_2.png","xmouse":[754,754,754,754,754,754,754,754,754,754,754,754,754,754,754,754,754,754,754,754,754,754,754,754,754,754,754,754,754,754,754,754,754,754,754,754,754,755,757,757,757,757,755,740,732,724,713,700,672,657,643,632,627,626,626,628,631,636,659,678,700,730,773,819,831,840,844,849,881,916,971,1029,1105,1159,1173,1182,1188,1190,1190,1190,1190,1190,1190,1190,1190,1190,1190,1190,1190,1190,1190,1190,1188,1175,1164,1148],"ymouse":[603,603,603,603,603,603,603,603,603,603,603,603,603,603,603,603,603,603,603,603,603,603,603,603,603,603,603,603,603,603,603,603,603,603,603,603,603,601,586,575,564,556,548,528,517,506,492,476,443,426,413,402,396,391,389,385,382,377,356,341,323,302,275,257,256,255,254,250,226,203,175,146,109,58,34,9,0,0,0,0,0,0,0,0,0,0,0,0,0,0,0,0,0,3,6,10],"timestamp_mouse":[9,23,44,64,84,104,123,143,163,184,202,223,244,263,284,303,324,343,363,382,403,424,443,464,483,504,524,544,563,582,602,624,644,664,684,703,724,743,763,784,803,822,843,863,883,903,923,943,962,983,1003,1023,1044,1063,1083,1103,1123,1144,1162,1183,1203,1223,1243,1263,1283,1303,1322,1344,1363,1383,1404,1424,1443,1463,1484,1503,1524,1543,1563,1582,1603,1623,1643,1663,1683,1703,1723,1743,1763,1783,1803,1823,1842,1864,1883,1903],"xSR":741.5,"ySR":573.95,"xT1":424.9,"yT1":0,"xT2":1058.1,"yT2":0,"toosoon":0,"cond_shown":"equaldotanddens","ratio_trial":500,"smaller_num":"1","larger_num":"2","correct_side":2,"subjID":"DanielAlejandroTorresUparela19","gender":"0","age":"8","school":"4"},{"start_time":1552328024630,"click_time":1552328026774,"finger_time":1552328025793,"fix_duration":414.1732169563661,"trial":41,"RT":1163,"MT":981,"sideResp":2,"stimulus":"img/750/randomdotsizeEA/R/3_Ratio_750_L_15_R_20.png","xmouse":[803,803,803,803,803,803,803,803,803,803,803,803,803,803,803,803,803,803,803,803,803,803,803,803,803,803,803,803,803,803,803,803,803,803,803,803,803,803,803,803,803,803,803,803,803,803,803,803,803,803,803,803,803,803,803,803,803,803,800,799,797,796,794,793,789,787,779,776,770,767,763,757,752,748,745,741,736,735,733,733,733,739,744,751,756,760,764,775,790,803,818,833,866,881,897,913,939,952,969,977,987,1001,1010,1018,1029,1038,1049,1078],"ymouse":[598,598,598,598,598,598,598,598,598,598,598,598,598,598,598,598,598,598,598,598,598,598,598,598,598,598,598,598,598,598,598,598,598,598,598,598,598,598,598,598,598,598,598,598,598,598,598,598,598,598,598,598,598,598,598,595,587,582,573,568,564,556,550,543,533,526,506,498,486,478,469,456,446,441,436,430,422,419,415,411,406,393,387,384,382,379,376,371,358,347,334,320,289,271,253,234,208,195,179,171,163,147,137,127,114,102,91,59],"timestamp_mouse":[12,22,43,64,82,104,123,143,163,184,203,223,243,262,283,303,324,343,363,384,403,422,443,463,484,503,524,544,564,583,604,622,644,664,684,703,722,742,764,784,803,823,843,864,884,904,923,943,964,984,1002,1023,1044,1064,1083,1103,1123,1143,1163,1183,1204,1223,1242,1262,1283,1303,1323,1342,1364,1384,1403,1423,1443,1463,1482,1504,1524,1542,1564,1584,1603,1623,1642,1663,1684,1702,1723,1744,1764,1783,1803,1823,1843,1863,1884,1903,1923,1943,1963,1983,2002,2024,2043,2063,2084,2104,2124,2144],"xSR":741.5,"ySR":573.95,"xT1":424.9,"yT1":0,"xT2":1058.1,"yT2":0,"toosoon":0,"cond_shown":"randomdotsizeEA","ratio_trial":750,"smaller_num":"15","larger_num":"20","correct_side":2,"subjID":"DanielAlejandroTorresUparela19","gender":"0","age":"8","school":"4"},{"start_time":1552328028135,"click_time":1552328029173,"finger_time":1552328028814,"fix_duration":318.12531220521544,"trial":42,"RT":679,"MT":359,"sideResp":1,"stimulus":"img/250/randomdotsizeEA/L/2_Ratio_250_L_16_R_4.png","xmouse":[781,781,781,781,781,781,781,781,781,781,781,781,781,781,781,781,781,781,781,781,781,781,781,781,781,781,781,781,781,781,781,781,770,763,757,751,743,726,714,704,693,684,666,656,651,647,643,631,620,608,593,568,512],"ymouse":[653,653,653,653,653,653,653,653,653,653,653,653,653,653,653,653,653,653,653,653,653,653,653,653,653,653,653,653,653,650,647,639,601,583,568,548,528,485,461,438,413,386,332,298,276,258,243,208,185,158,131,95,13],"timestamp_mouse":[1,18,38,58,78,98,118,137,159,178,198,218,238,258,278,299,318,339,358,378,399,419,439,459,478,498,518,537,558,578,598,618,638,657,679,699,719,739,759,779,797,819,839,858,878,898,917,938,958,979,997,1018,1038],"xSR":741.5,"ySR":573.95,"xT1":424.9,"yT1":0,"xT2":1058.1,"yT2":0,"toosoon":0,"cond_shown":"randomdotsizeEA","ratio_trial":250,"smaller_num":"4","larger_num":"16","correct_side":1,"subjID":"DanielAlejandroTorresUparela19","gender":"0","age":"8","school":"4"},{"start_time":1552328031553,"click_time":1552328032813,"finger_time":1552328032294,"fix_duration":1357.4771745744754,"trial":43,"RT":741,"MT":519,"sideResp":2,"stimulus":"img/750/equaldotanddens/R/4_Ratio_750_L_15_R_20.png","xmouse":[789,789,789,789,789,789,789,789,789,789,789,789,789,789,789,789,789,789,789,789,789,789,789,789,789,789,789,789,789,789,789,789,789,789,789,795,806,851,903,918,944,969,976,980,985,991,1002,1009,1014,1020,1022,1023,1023,1023,1023,1023,1026,1028,1030,1032,1033,1033,1038,1080],"ymouse":[639,639,639,639,639,639,639,639,639,639,639,639,639,639,639,639,639,639,639,639,639,639,639,639,639,639,639,639,639,639,639,639,639,639,639,637,618,533,445,421,382,340,321,304,286,266,221,198,180,155,141,119,113,110,107,105,95,92,87,82,79,79,78,67],"timestamp_mouse":[9,31,40,60,81,100,120,139,160,181,200,221,240,261,280,301,320,340,360,379,400,419,440,461,479,499,520,539,561,580,601,619,639,661,681,699,720,741,760,781,800,819,840,860,880,901,919,941,960,979,999,1020,1040,1060,1081,1100,1119,1140,1160,1181,1200,1221,1241,1260],"xSR":741.5,"ySR":573.95,"xT1":424.9,"yT1":0,"xT2":1058.1,"yT2":0,"toosoon":0,"cond_shown":"equaldotanddens","ratio_trial":750,"smaller_num":"15","larger_num":"20","correct_side":2,"subjID":"DanielAlejandroTorresUparela19","gender":"0","age":"8","school":"4"},{"start_time":1552328036211,"click_time":1552328037994,"finger_time":1552328037052,"fix_duration":1037.0382695895933,"trial":44,"RT":841,"MT":942,"sideResp":2,"stimulus":"img/900/randomdotsizeEA/L/4_Ratio_900_L_20_R_18.png","xmouse":[787,787,787,787,787,787,787,787,787,787,787,787,787,787,787,787,787,787,787,787,787,787,787,787,787,787,787,787,787,787,787,787,787,787,787,787,787,787,787,787,787,800,815,846,870,889,902,912,921,936,945,955,962,968,988,998,1007,1018,1033,1076,1100,1133,1162,1192,1232,1236,1236,1236,1236,1236,1236,1236,1236,1236,1236,1236,1236,1236,1236,1236,1236,1236,1235,1233,1217,1207,1195,1184,1172,1154],"ymouse":[624,624,624,624,624,624,624,624,624,624,624,624,624,624,624,624,624,624,624,624,624,624,624,624,624,624,624,624,624,624,624,624,624,624,624,624,624,624,624,624,617,594,565,487,432,386,354,328,307,272,251,227,203,179,110,84,60,41,21,0,0,0,0,0,0,0,0,0,0,0,0,0,0,0,0,0,0,0,0,0,0,0,1,2,10,17,24,30,37,45],"timestamp_mouse":[19,28,42,63,83,103,122,141,163,181,202,223,241,262,283,302,322,341,363,383,403,423,441,463,482,503,521,541,562,583,602,623,643,662,681,703,723,742,763,783,802,822,841,863,882,902,923,942,962,983,1002,1023,1043,1062,1083,1102,1122,1142,1163,1183,1202,1223,1242,1261,1282,1302,1322,1342,1363,1382,1403,1422,1443,1462,1482,1502,1522,1542,1563,1582,1602,1621,1643,1661,1682,1702,1722,1742,1762,1782],"xSR":741.5,"ySR":573.95,"xT1":424.9,"yT1":0,"xT2":1058.1,"yT2":0,"toosoon":0,"cond_shown":"randomdotsizeEA","ratio_trial":900,"smaller_num":"18","larger_num":"20","correct_side":1,"subjID":"DanielAlejandroTorresUparela19","gender":"0","age":"8","school":"4"},{"start_time":1552328040589,"click_time":1552328041733,"finger_time":1552328041434,"fix_duration":1052.317152053172,"trial":45,"RT":845,"MT":299,"sideResp":1,"stimulus":"img/250/equaldotsize/L/7_Ratio_250_L_8_R_2.png","xmouse":[789,789,789,789,789,789,789,789,789,789,789,789,789,789,789,789,789,789,789,789,789,789,789,789,789,789,789,789,789,789,789,789,789,789,789,789,789,789,789,789,789,790,786,762,747,721,713,707,702,700,690,685,678,668,647,628,557,504],"ymouse":[604,604,604,604,604,604,604,604,604,604,604,604,604,604,604,604,604,604,604,604,604,604,604,604,604,604,604,604,604,604,604,604,604,604,604,604,604,604,604,604,604,596,571,510,473,413,391,376,363,354,333,322,309,294,262,237,154,92],"timestamp_mouse":[9,24,45,64,85,104,123,144,164,185,204,224,245,264,284,304,324,344,365,383,404,425,444,464,484,504,524,543,564,585,603,623,644,664,684,705,725,744,765,785,804,824,845,865,884,903,925,944,964,984,1005,1025,1044,1064,1083,1103,1125,1144],"xSR":741.5,"ySR":573.95,"xT1":424.9,"yT1":0,"xT2":1058.1,"yT2":0,"toosoon":0,"cond_shown":"equaldotsize","ratio_trial":250,"smaller_num":"2","larger_num":"8","correct_side":1,"subjID":"DanielAlejandroTorresUparela19","gender":"0","age":"8","school":"4"},{"start_time":1552328042985,"click_time":1552328044893,"finger_time":1552328043913,"fix_duration":250,"trial":46,"RT":928,"MT":980,"sideResp":1,"stimulus":"img/900/equaldotsize/L/1_Ratio_900_L_10_R_9.png","xmouse":[800,800,800,800,800,800,800,800,800,800,800,800,800,800,800,800,800,800,800,800,800,800,800,800,800,800,800,800,800,800,800,800,800,800,800,800,800,800,800,801,803,803,803,805,807,810,818,821,826,831,841,848,853,866,876,895,903,915,929,944,966,976,979,983,983,983,983,983,983,983,983,983,983,983,983,983,977,968,957,940,923,877,860,841,819,796,753,731,706,682,655,571,540,512,492,467],"ymouse":[664,664,664,664,664,664,664,664,664,664,664,664,664,664,664,664,664,664,664,664,664,664,664,664,664,664,664,664,664,664,664,664,664,664,664,664,664,664,664,664,655,646,636,625,609,591,546,522,495,471,424,401,380,350,329,288,266,240,207,175,123,97,91,85,85,85,85,85,85,85,85,85,85,85,85,85,85,85,85,85,84,65,56,45,36,26,13,6,0,0,0,0,0,0,0,1],"timestamp_mouse":[18,38,48,67,88,108,128,148,169,188,208,227,248,269,287,309,329,348,368,388,408,429,448,467,489,509,529,549,569,588,609,629,648,669,688,708,729,748,769,789,808,828,849,869,889,908,928,948,969,989,1009,1027,1049,1069,1088,1109,1127,1149,1168,1188,1208,1228,1248,1267,1288,1308,1329,1348,1368,1388,1409,1428,1448,1468,1488,1508,1528,1548,1569,1589,1609,1628,1648,1668,1689,1708,1729,1750,1768,1788,1809,1828,1848,1869,1888,1908],"xSR":741.5,"ySR":573.95,"xT1":424.9,"yT1":0,"xT2":1058.1,"yT2":0,"toosoon":0,"cond_shown":"equaldotsize","ratio_trial":900,"smaller_num":"9","larger_num":"10","correct_side":1,"subjID":"DanielAlejandroTorresUparela19","gender":"0","age":"8","school":"4"},{"start_time":1552328046046,"click_time":1552328047314,"finger_time":1552328046813,"fix_duration":250,"trial":47,"RT":767,"MT":501,"sideResp":1,"stimulus":"img/250/randomdotsizeEA/L/2_Ratio_250_L_16_R_4.png","xmouse":[757,757,757,757,757,757,757,757,757,757,757,757,757,757,757,757,757,757,757,757,757,757,757,757,757,757,757,757,757,757,757,757,757,757,759,759,761,763,765,765,765,763,749,741,730,719,708,694,670,655,642,629,622,615,612,607,598,585,545,519,507,502,500,498],"ymouse":[614,614,614,614,614,614,614,614,614,614,614,614,614,614,614,614,614,614,614,614,614,614,614,614,614,614,614,614,614,614,614,614,614,614,613,609,600,581,550,531,511,488,436,407,374,343,310,258,185,155,130,112,99,85,80,70,58,42,11,0,0,0,0,1],"timestamp_mouse":[12,29,48,66,86,106,128,148,168,186,206,228,247,268,287,307,328,348,366,388,408,426,447,467,487,508,528,547,566,587,608,628,648,666,687,707,728,747,767,787,808,827,848,867,888,908,926,947,966,987,1007,1028,1047,1066,1088,1108,1127,1147,1167,1186,1207,1227,1249,1267],"xSR":741.5,"ySR":573.95,"xT1":424.9,"yT1":0,"xT2":1058.1,"yT2":0,"toosoon":0,"cond_shown":"randomdotsizeEA","ratio_trial":250,"smaller_num":"4","larger_num":"16","correct_side":1,"subjID":"DanielAlejandroTorresUparela19","gender":"0","age":"8","school":"4"},{"start_time":1552328050277,"click_time":1552328051833,"finger_time":1552328051053,"fix_duration":703.787606605677,"trial":48,"RT":776,"MT":780,"sideResp":2,"stimulus":"img/750/randomdotsizeEA/R/3_Ratio_750_L_15_R_20.png","xmouse":[744,744,744,744,744,744,744,744,744,744,744,744,744,744,744,744,744,744,744,744,744,744,744,744,744,744,744,744,744,744,744,744,744,744,745,747,757,761,766,770,774,785,793,804,816,839,882,906,930,958,980,1029,1058,1066,1099,1126,1163,1180,1193,1202,1207,1212,1213,1213,1213,1213,1213,1213,1213,1213,1213,1213,1213,1208,1197,1185,1169,1143],"ymouse":[641,641,641,641,641,641,641,641,641,641,641,641,641,641,641,641,641,641,641,641,641,641,641,641,641,641,641,641,641,641,641,641,639,635,620,610,588,578,567,558,550,532,521,509,497,478,448,430,413,390,367,303,254,239,183,135,59,21,0,0,0,0,0,0,0,0,0,0,0,0,0,0,0,2,9,18,29,44],"timestamp_mouse":[17,36,57,76,97,117,135,156,176,195,215,236,256,276,297,315,337,356,376,397,417,436,457,476,497,516,536,557,576,596,617,636,656,677,697,717,736,756,776,797,817,835,856,875,895,916,936,956,976,997,1016,1035,1055,1076,1096,1116,1136,1156,1177,1196,1217,1236,1256,1276,1296,1317,1336,1356,1376,1396,1416,1436,1456,1477,1497,1516,1536,1556],"xSR":741.5,"ySR":573.95,"xT1":424.9,"yT1":0,"xT2":1058.1,"yT2":0,"toosoon":0,"cond_shown":"randomdotsizeEA","ratio_trial":750,"smaller_num":"15","larger_num":"20","correct_side":2,"subjID":"DanielAlejandroTorresUparela19","gender":"0","age":"8","school":"4"},{"start_time":1552328053386,"click_time":1552328054893,"finger_time":1552328054233,"fix_duration":531.0893410754078,"trial":49,"RT":847,"MT":660,"sideResp":2,"stimulus":"img/500/randomdotsizeEA/R/15_Ratio_500_L_1_R_2.png","xmouse":[785,785,785,785,785,785,785,785,785,785,785,785,785,785,785,785,785,785,785,785,785,785,785,785,785,785,785,785,785,785,785,785,785,785,785,786,786,786,785,781,776,773,760,749,736,723,693,681,679,679,679,679,679,679,679,679,682,691,701,711,723,736,774,794,814,832,851,896,913,931,948,963,999,1023,1045,1072],"ymouse":[654,654,654,654,654,654,654,654,654,654,654,654,654,654,654,654,654,654,654,654,654,654,654,654,654,654,654,654,654,654,654,654,654,650,647,645,644,639,630,620,610,597,562,548,534,521,504,498,497,497,497,497,497,496,496,495,489,477,466,454,441,427,397,384,372,360,346,303,283,263,243,225,184,156,129,99],"timestamp_mouse":[10,26,47,67,87,108,128,148,167,187,208,227,248,266,287,308,327,348,368,388,407,427,447,467,486,508,528,546,567,588,608,628,648,666,687,708,727,747,767,788,807,827,847,867,887,907,928,947,967,988,1006,1027,1048,1068,1088,1107,1128,1147,1167,1188,1208,1227,1248,1267,1287,1307,1327,1347,1367,1387,1407,1426,1446,1467,1488,1507],"xSR":741.5,"ySR":573.95,"xT1":424.9,"yT1":0,"xT2":1058.1,"yT2":0,"toosoon":0,"cond_shown":"randomdotsizeEA","ratio_trial":500,"smaller_num":"1","larger_num":"2","correct_side":2,"subjID":"DanielAlejandroTorresUparela19","gender":"0","age":"8","school":"4"},{"start_time":1552328057555,"click_time":1552328058833,"finger_time":1552328058333,"fix_duration":320.56135201818313,"trial":50,"RT":778,"MT":500,"sideResp":1,"stimulus":"img/250/equaldotsize/L/15_Ratio_250_L_12_R_3.png","xmouse":[805,805,805,805,805,805,805,805,805,805,805,805,805,805,805,805,805,805,805,805,805,805,805,805,805,805,805,805,805,805,805,805,805,805,805,805,805,802,775,761,740,717,696,664,653,646,642,642,642,642,642,642,640,633,630,629,629,629,625,615,602,585,565,518],"ymouse":[610,610,610,610,610,610,610,610,610,610,610,610,610,610,610,610,610,610,610,610,610,610,610,610,610,610,610,610,610,610,610,610,610,610,610,610,610,608,568,544,507,462,425,367,342,323,299,285,254,237,215,191,171,151,144,142,142,142,137,131,122,112,101,75],"timestamp_mouse":[18,38,59,78,98,118,137,157,179,199,219,239,259,278,297,318,338,357,379,398,419,438,458,479,498,519,539,559,578,598,618,639,658,678,698,718,739,759,778,798,819,839,857,878,898,918,939,958,978,999,1018,1038,1059,1078,1098,1119,1139,1159,1178,1199,1218,1238,1257,1278],"xSR":741.5,"ySR":573.95,"xT1":424.9,"yT1":0,"xT2":1058.1,"yT2":0,"toosoon":0,"cond_shown":"equaldotsize","ratio_trial":250,"smaller_num":"3","larger_num":"12","correct_side":1,"subjID":"DanielAlejandroTorresUparela19","gender":"0","age":"8","school":"4"},{"start_time":1552328060729,"click_time":1552328062094,"finger_time":1552328061474,"fix_duration":752.8981890924438,"trial":51,"RT":745,"MT":620,"sideResp":2,"stimulus":"img/750/equaldotsize/L/6_Ratio_750_L_24_R_18.png","xmouse":[768,768,768,768,768,768,768,768,768,768,768,768,768,768,768,768,768,768,768,768,768,768,768,768,768,768,768,768,768,768,768,768,768,768,769,770,777,784,790,795,807,813,819,824,827,834,840,847,854,865,878,910,928,951,969,995,1004,1014,1016,1017,1020,1023,1028,1035,1040,1045,1052,1057,1060],"ymouse":[597,597,597,597,597,597,597,597,597,597,597,597,597,597,597,597,597,597,597,597,597,597,597,597,597,597,597,597,597,597,597,597,597,597,597,594,576,550,531,513,476,459,447,434,421,396,371,351,330,305,282,227,197,167,139,97,81,67,65,64,60,57,54,50,46,44,41,41,41],"timestamp_mouse":[19,33,44,63,83,104,123,145,163,184,204,224,244,263,285,305,323,344,365,383,405,425,445,464,485,503,525,545,565,583,605,625,645,664,683,704,725,745,765,785,804,824,843,865,884,905,923,944,964,984,1004,1023,1044,1065,1084,1104,1125,1144,1165,1184,1204,1223,1245,1264,1284,1304,1325,1344,1365],"xSR":741.5,"ySR":573.95,"xT1":424.9,"yT1":0,"xT2":1058.1,"yT2":0,"toosoon":0,"cond_shown":"equaldotsize","ratio_trial":750,"smaller_num":"18","larger_num":"24","correct_side":1,"subjID":"DanielAlejandroTorresUparela19","gender":"0","age":"8","school":"4"},{"start_time":1552328063724,"click_time":1552328064774,"finger_time":1552328064474,"fix_duration":369.37353696354916,"trial":52,"RT":750,"MT":300,"sideResp":1,"stimulus":"img/250/randomdotsizeEA/L/2_Ratio_250_L_16_R_4.png","xmouse":[786,786,786,786,786,786,786,786,786,786,786,786,786,786,786,786,786,786,786,786,786,786,786,786,786,786,786,786,786,786,786,786,784,782,778,765,751,740,730,720,709,682,664,643,616,566,532,512,495,483,473,469,465],"ymouse":[650,650,650,650,650,650,650,650,650,650,650,650,650,650,650,650,650,650,650,650,650,650,650,650,650,650,650,650,650,650,650,650,649,643,636,616,600,589,578,566,550,514,489,463,429,364,310,273,228,187,129,102,74],"timestamp_mouse":[13,36,49,69,89,109,129,150,168,189,210,230,250,269,290,309,330,349,370,388,409,429,449,470,490,510,529,550,569,588,610,629,650,670,690,710,730,750,769,790,809,829,850,869,890,910,929,948,969,989,1010,1028,1050],"xSR":741.5,"ySR":573.95,"xT1":424.9,"yT1":0,"xT2":1058.1,"yT2":0,"toosoon":0,"cond_shown":"randomdotsizeEA","ratio_trial":250,"smaller_num":"4","larger_num":"16","correct_side":1,"subjID":"DanielAlejandroTorresUparela19","gender":"0","age":"8","school":"4"},{"start_time":1552328067324,"click_time":1552328068434,"finger_time":1552328068174,"fix_duration":548.3842288767648,"trial":53,"RT":850,"MT":260,"sideResp":2,"stimulus":"img/750/equaldotsize/R/5_Ratio_750_L_15_R_20.png","xmouse":[828,828,828,828,828,828,828,828,828,828,828,828,828,828,828,828,828,828,828,828,828,828,828,828,828,828,828,828,828,828,828,828,828,828,828,828,828,828,828,828,828,829,842,848,868,882,915,932,940,950,959,979,993,1011,1033,1070],"ymouse":[632,632,632,632,632,632,632,632,632,632,632,632,632,632,632,632,632,632,632,632,632,632,632,632,632,632,632,632,632,632,632,632,632,632,632,632,632,632,632,632,632,617,587,573,532,500,422,384,356,330,306,249,215,174,120,35],"timestamp_mouse":[13,38,49,70,88,110,129,150,170,189,209,230,249,269,289,310,330,349,368,389,410,429,450,470,488,508,530,550,568,590,610,629,648,670,690,710,730,749,770,790,810,829,850,870,890,910,929,949,970,990,1010,1029,1049,1070,1088,1110],"xSR":741.5,"ySR":573.95,"xT1":424.9,"yT1":0,"xT2":1058.1,"yT2":0,"toosoon":0,"cond_shown":"equaldotsize","ratio_trial":750,"smaller_num":"15","larger_num":"20","correct_side":2,"subjID":"DanielAlejandroTorresUparela19","gender":"0","age":"8","school":"4"},{"start_time":1552328070428,"click_time":1552328071593,"finger_time":1552328071254,"fix_duration":853.6400109367194,"trial":54,"RT":826,"MT":339,"sideResp":2,"stimulus":"img/250/randomdotsizeEA/R/11_Ratio_250_L_3_R_12.png","xmouse":[792,792,792,792,792,792,792,792,792,792,792,792,792,792,792,792,792,792,792,792,792,792,792,792,792,792,792,792,792,792,792,792,792,792,792,792,792,792,792,795,806,836,853,868,883,897,909,941,950,957,963,967,977,983,990,998,1022,1040,1061],"ymouse":[622,622,622,622,622,622,622,622,622,622,622,622,622,622,622,622,622,622,622,622,622,622,622,622,622,622,622,622,622,622,622,622,622,622,622,622,622,622,622,604,579,527,502,481,458,435,413,351,333,317,303,293,267,252,233,214,156,98,44],"timestamp_mouse":[12,35,45,64,85,105,125,146,164,184,204,225,244,264,284,304,325,345,366,385,404,425,446,466,485,506,525,545,565,586,605,626,645,665,686,705,726,745,766,784,805,826,845,866,885,906,925,946,965,985,1006,1024,1046,1066,1086,1105,1126,1144,1165],"xSR":741.5,"ySR":573.95,"xT1":424.9,"yT1":0,"xT2":1058.1,"yT2":0,"toosoon":0,"cond_shown":"randomdotsizeEA","ratio_trial":250,"smaller_num":"3","larger_num":"12","correct_side":2,"subjID":"DanielAlejandroTorresUparela19","gender":"0","age":"8","school":"4"},{"start_time":1552328073563,"click_time":1552328074633,"finger_time":1552328074373,"fix_duration":807.9318295463472,"trial":55,"RT":810,"MT":260,"sideResp":2,"stimulus":"img/900/randomdotsizeEA/R/13_Ratio_900_L_18_R_20.png","xmouse":[776,776,776,776,776,776,776,776,776,776,776,776,776,776,776,776,776,776,776,776,776,776,776,776,776,776,776,776,776,776,776,776,776,776,776,776,778,783,796,809,855,879,905,929,944,969,978,988,997,1008,1050,1069,1087,1108],"ymouse":[647,647,647,647,647,647,647,647,647,647,647,647,647,647,647,647,647,647,647,647,647,647,647,647,647,647,647,647,647,647,647,647,647,647,647,647,638,629,606,585,513,473,434,401,376,333,316,299,281,262,190,156,124,81],"timestamp_mouse":[11,35,52,72,91,111,132,151,172,192,212,232,251,271,290,311,331,352,371,391,410,430,450,472,490,512,531,551,570,592,610,630,651,671,691,711,730,752,771,791,810,831,851,871,891,910,931,951,971,992,1011,1031,1052,1070],"xSR":741.5,"ySR":573.95,"xT1":424.9,"yT1":0,"xT2":1058.1,"yT2":0,"toosoon":0,"cond_shown":"randomdotsizeEA","ratio_trial":900,"smaller_num":"18","larger_num":"20","correct_side":2,"subjID":"DanielAlejandroTorresUparela19","gender":"0","age":"8","school":"4"},{"start_time":1552328076387,"click_time":1552328077854,"finger_time":1552328077013,"fix_duration":549.0149747688581,"trial":56,"RT":626,"MT":841,"sideResp":2,"stimulus":"img/250/equaldotanddens/R/4_Ratio_250_L_3_R_12.png","xmouse":[792,792,792,792,792,792,792,792,792,792,792,792,792,792,792,792,792,792,792,792,792,792,792,792,792,792,792,792,792,794,799,807,819,834,859,870,889,904,917,943,955,964,974,983,1000,1012,1018,1022,1022,1023,1023,1023,1023,1023,1023,1023,1023,1023,1023,1023,1029,1030,1031,1033,1035,1036,1036,1036,1036,1036,1036,1040,1050,1061],"ymouse":[624,624,624,624,624,624,624,624,624,624,624,624,624,624,624,624,624,624,624,624,624,624,624,624,624,624,624,624,624,609,590,565,535,498,420,382,321,277,240,183,154,131,107,86,46,22,10,5,4,2,2,2,2,2,2,2,2,2,2,2,1,1,1,1,1,1,1,1,1,1,1,1,4,10],"timestamp_mouse":[9,31,47,67,87,108,128,148,167,188,208,228,248,267,288,306,327,347,368,387,406,427,446,467,488,507,527,546,567,587,608,626,647,667,687,707,727,748,768,786,806,827,848,867,887,906,927,947,966,987,1008,1028,1048,1067,1087,1107,1127,1148,1167,1187,1208,1227,1247,1267,1287,1307,1326,1347,1367,1387,1408,1427,1447,1466],"xSR":741.5,"ySR":573.95,"xT1":424.9,"yT1":0,"xT2":1058.1,"yT2":0,"toosoon":0,"cond_shown":"equaldotanddens","ratio_trial":250,"smaller_num":"3","larger_num":"12","correct_side":2,"subjID":"DanielAlejandroTorresUparela19","gender":"0","age":"8","school":"4"},{"start_time":1552328080046,"click_time":1552328081215,"finger_time":1552328080775,"fix_duration":1150.49208330428,"trial":57,"RT":729,"MT":440,"sideResp":2,"stimulus":"img/750/equaldotanddens/R/11_Ratio_750_L_12_R_16.png","xmouse":[756,756,756,756,756,756,756,756,756,756,756,756,756,756,756,756,756,756,756,756,756,756,756,756,756,756,756,756,756,756,756,756,762,770,780,793,821,837,855,872,888,904,930,946,957,966,974,987,997,1008,1017,1027,1047,1052,1055,1059,1063,1075,1082],"ymouse":[652,652,652,652,652,652,652,652,652,652,652,652,652,652,652,652,652,652,652,652,652,652,652,652,652,652,652,652,652,652,652,652,644,629,612,592,551,527,502,475,452,424,375,347,328,312,299,274,257,237,219,201,160,148,139,131,123,101,89],"timestamp_mouse":[18,28,49,69,87,109,128,147,168,188,209,229,249,268,288,308,329,348,368,387,409,427,447,468,489,509,528,548,567,589,609,627,648,669,688,709,729,748,768,789,808,827,848,868,887,909,928,949,968,989,1009,1027,1047,1068,1087,1108,1128,1148,1168],"xSR":741.5,"ySR":573.95,"xT1":424.9,"yT1":0,"xT2":1058.1,"yT2":0,"toosoon":0,"cond_shown":"equaldotanddens","ratio_trial":750,"smaller_num":"12","larger_num":"16","correct_side":2,"subjID":"DanielAlejandroTorresUparela19","gender":"0","age":"8","school":"4"},{"start_time":1552328083771,"click_time":1552328085295,"finger_time":1552328084595,"fix_duration":1454.49871698478,"trial":58,"RT":824,"MT":700,"sideResp":1,"stimulus":"img/500/randomdotsizeEA/L/7_Ratio_500_L_10_R_5.png","xmouse":[805,805,805,805,805,805,805,805,805,805,805,805,805,805,805,805,805,805,805,805,805,805,805,805,805,805,805,805,805,805,805,805,805,805,805,805,805,805,805,800,796,766,743,705,661,573,456,400,348,313,290,274,244,233,223,222,222,222,222,223,226,238,245,249,259,265,277,283,289,297,307,335,353,370,398,419,455],"ymouse":[642,642,642,642,642,642,642,642,642,642,642,642,642,642,642,642,642,642,642,642,642,642,642,642,642,642,642,642,642,642,642,642,642,642,642,642,642,642,642,623,611,538,491,425,355,247,128,78,34,1,0,0,0,0,0,0,0,0,0,1,2,9,13,16,18,19,20,20,22,23,25,29,33,37,38,36,25],"timestamp_mouse":[12,33,43,63,83,103,124,143,164,183,204,224,242,262,284,302,323,344,364,384,404,424,442,464,484,503,524,543,562,583,603,623,644,663,682,703,724,743,763,783,803,824,844,864,883,904,923,943,963,984,1003,1023,1043,1063,1083,1103,1123,1143,1164,1183,1204,1224,1242,1263,1284,1304,1323,1343,1363,1382,1403,1424,1442,1463,1483,1503,1524],"xSR":741.5,"ySR":573.95,"xT1":424.9,"yT1":0,"xT2":1058.1,"yT2":0,"toosoon":0,"cond_shown":"randomdotsizeEA","ratio_trial":500,"smaller_num":"5","larger_num":"10","correct_side":1,"subjID":"DanielAlejandroTorresUparela19","gender":"0","age":"8","school":"4"},{"start_time":1552328087419,"click_time":1552328089015,"finger_time":1552328088194,"fix_duration":1064.227856069159,"trial":59,"RT":775,"MT":821,"sideResp":1,"stimulus":"img/750/equaldotanddens/L/14_Ratio_750_L_8_R_6.png","xmouse":[780,780,780,780,780,780,780,780,780,780,780,780,780,780,780,780,780,780,780,780,780,780,780,780,780,780,780,780,780,780,780,780,780,781,787,791,796,797,783,768,760,754,749,742,729,720,710,704,696,672,660,648,634,622,607,603,600,599,598,598,597,595,592,586,567,551,531,512,491,465,465,465,465,465,465,465,465,465,465,465],"ymouse":[627,627,627,627,627,627,627,627,627,627,627,627,627,627,627,627,627,627,627,627,627,627,627,627,627,627,627,627,627,627,627,627,627,627,626,626,622,610,573,543,522,503,482,462,413,383,357,332,307,253,234,217,203,194,190,190,190,190,190,190,190,190,190,190,177,166,154,146,136,129,129,129,129,129,129,129,129,122,101,51],"timestamp_mouse":[21,38,55,75,95,114,135,156,174,194,215,236,255,275,296,314,336,356,374,396,416,435,456,476,495,516,536,554,576,594,615,634,655,674,694,715,735,756,775,795,815,836,856,875,895,915,936,955,974,994,1015,1034,1054,1074,1095,1115,1136,1155,1174,1195,1216,1234,1254,1274,1295,1315,1336,1355,1375,1396,1415,1435,1456,1474,1494,1514,1535,1556,1575,1596],"xSR":741.5,"ySR":573.95,"xT1":424.9,"yT1":0,"xT2":1058.1,"yT2":0,"toosoon":0,"cond_shown":"equaldotanddens","ratio_trial":750,"smaller_num":"6","larger_num":"8","correct_side":1,"subjID":"DanielAlejandroTorresUparela19","gender":"0","age":"8","school":"4"},{"start_time":1552328090172,"click_time":1552328092814,"finger_time":1552328090218,"fix_duration":256.1290381704989,"trial":60,"RT":46,"MT":2596,"sideResp":2,"stimulus":"img/900/equaldotanddens/R/9_Ratio_900_L_18_R_20.png","xmouse":[841,841,842,842,842,840,835,822,818,815,813,813,813,813,813,813,813,813,813,813,813,813,813,813,813,813,813,813,813,813,813,813,813,813,813,813,813,813,813,813,813,813,813,813,813,813,813,813,813,813,813,813,813,813,813,813,810,810,810,810,810,810,810,810,810,810,810,810,810,810,810,810,810,810,810,810,810,810,810,810,810,810,810,810,810,810,810,810,810,810,808,807,802,798,796,793,791,790,789,789,789,789,789,789,789,789,789,789,789,789,789,789,789,789,791,794,800,809,812,818,830,838,855,864,873,885,899,922,934,953,975,1027,1084],"ymouse":[634,634,634,634,634,634,634,637,637,638,638,638,638,638,638,638,638,638,638,638,638,638,638,638,638,638,638,638,638,638,638,638,638,638,638,638,638,638,638,638,638,638,638,638,638,638,638,638,638,638,638,638,638,638,638,638,639,639,639,639,639,639,639,639,639,639,639,639,639,639,639,639,639,639,639,639,639,639,639,639,639,639,639,639,639,639,639,639,639,639,639,638,634,631,629,627,625,625,624,624,624,624,624,624,624,624,624,624,624,624,622,620,609,600,587,568,548,501,475,448,400,372,326,305,284,264,247,216,203,184,164,123,87],"timestamp_mouse":[1,22,46,62,83,10