[{"start_time":1552328001772,"click_time":1552328004859,"finger_time":1552328002659,"fix_duration":946.9895172603436,"trial":0,"RT":887,"MT":2200,"sideResp":1,"stimulus":"img/900/equaldotsize/L/10_Ratio_900_L_20_R_18.png","xmouse":[772,772,772,772,772,772,772,772,772,772,772,772,772,772,772,772,772,772,772,772,772,772,772,772,772,772,772,772,772,772,772,772,772,772,772,772,772,772,772,772,772,772,772,783,882,987,1097,1201,1272,1294,1294,1296,1300,1304,1318,1322,1325,1329,1330,1312,1289,1235,1199,1121,1113,1110,1110,1109,1098,1086,1068,1012,957,904,843,831,826,821,803,782,773,745,729,717,703,700,699,699,699,699,699,699,698,697,697,697,697,697,697,699,702,704,706,706,706,706,706,706,706,706,706,706,706,706,706,706,706,706,706,706,706,706,706,706,706,706,706,706,706,706,706,706,706,706,706,706,706,705,702,690,677,653,633,595,578,568,566,566,566,564,560,552,552,533,509],"ymouse":[540,540,540,540,540,540,540,540,540,540,540,540,540,540,540,540,540,540,540,540,540,540,540,540,540,540,540,540,540,540,540,540,540,540,540,540,540,540,540,540,540,540,540,538,529,521,521,538,561,598,612,626,633,633,612,593,573,545,517,436,399,357,351,361,362,362,358,349,326,312,298,278,262,251,238,235,234,232,223,214,210,196,187,181,170,167,165,163,162,162,162,162,162,162,162,162,162,162,162,161,159,159,158,158,158,158,158,158,158,158,159,159,159,159,159,159,159,159,159,159,159,159,159,159,159,159,159,159,159,159,159,159,159,159,157,154,151,149,146,136,129,114,103,83,75,67,62,55,44,21,9,1,1,0,2],"timestamp_mouse":[10,31,47,68,86,108,128,148,168,188,208,228,247,268,288,307,327,347,367,387,408,427,447,468,488,507,528,548,567,587,607,627,647,668,688,707,728,748,768,788,807,828,848,867,887,907,927,947,969,987,1008,1027,1048,1067,1087,1107,1127,1147,1167,1186,1208,1227,1248,1269,1287,1308,1327,1347,1369,1387,1407,1427,1448,1467,1488,1508,1527,1547,1568,1587,1608,1627,1646,1667,1687,1708,1728,1747,1768,1788,1807,1827,1847,1868,1887,1907,1928,1948,1967,1987,2007,2027,2048,2067,2088,2108,2128,2148,2169,2187,2208,2227,2248,2268,2288,2308,2328,2347,2367,2387,2407,2427,2447,2467,2487,2508,2528,2547,2568,2587,2607,2628,2648,2668,2687,2708,2727,2746,2768,2787,2807,2828,2847,2869,2887,2908,2928,2947,2968,2987,3007,3028,3047,3067,3086],"xSR":741.5,"ySR":469.95,"xT1":424.9,"yT1":0,"xT2":1058.1,"yT2":0,"toosoon":0,"cond_shown":"equaldotsize","ratio_trial":900,"smaller_num":"18","larger_num":"20","correct_side":1,"subjID":"Danielcobos9","gender":"0","age":"9","school":"4","test":{"fix_dur":[250,1500],"timestim":300,"targets_dim":[100,100],"targets_relative_coord":[0.3,0.7],"size_stim":[880,420],"start_dim":[100,100],"size_start":[300,300],"size_fix":60,"samplingrate":20,"img_types":["equaldotsize","equaldotanddens","randomdotsizeEA"],"ratios":[250,500,750,900],"rep_conds":9,"nTrials":120,"trials_to_rest":500,"Trials_order":[117,99,16,67,94,71,36,5,13,69,55,70,102,19,63,97,49,58,78,52,1,10,27,108,88,61,81,33,74,103,29,42,35,87,66,85,60,111,46,93,7,84,47,105,59,43,76,4,45,20,114,62,95,82,12,54,38,106,25,39,26,75,79,37,6,24,31,107,56,68,57,51,21,116,92,101,83,15,8,110,53,2,113,77,40,89,86,48,22,90,119,80,109,32,30,0,9,112,118,50,34,98,28,44,3,17,23,100,65,18,115,64,104,73,96,91,41,11,14,72],"cond_shown":["equaldotsize","equaldotsize","equaldotanddens","equaldotanddens","equaldotanddens","randomdotsizeEA","equaldotsize","randomdotsizeEA","equaldotanddens","equaldotsize","equaldotanddens","equaldotanddens","equaldotsize","equaldotanddens","equaldotsize","equaldotanddens","equaldotanddens","equaldotanddens","equaldotsize","equaldotanddens","equaldotanddens","equaldotanddens","equaldotsize","equaldotsize","equaldotanddens","equaldotanddens","equaldotsize","equaldotsize","randomdotsizeEA","equaldotanddens","randomdotsizeEA","equaldotsize","randomdotsizeEA","equaldotsize","equaldotsize","equaldotanddens","equaldotsize","equaldotsize","equaldotanddens","equaldotsize","equaldotanddens","equaldotsize","randomdotsizeEA","equaldotsize","randomdotsizeEA","equaldotanddens","equaldotanddens","equaldotanddens","equaldotsize","randomdotsizeEA","equaldotsize","randomdotsizeEA","randomdotsizeEA","equaldotanddens","equaldotsize","equaldotsize","randomdotsizeEA","equaldotanddens","equaldotanddens","equaldotsize","randomdotsizeEA","equaldotsize","equaldotanddens","equaldotanddens","equaldotsize","equaldotsize","equaldotanddens","randomdotsizeEA","randomdotsizeEA","randomdotsizeEA","equaldotsize","equaldotsize","equaldotsize","randomdotsizeEA","randomdotsizeEA","randomdotsizeEA","randomdotsizeEA","equaldotsize","randomdotsizeEA","randomdotsizeEA","randomdotsizeEA","randomdotsizeEA","randomdotsizeEA","randomdotsizeEA","equaldotanddens","randomdotsizeEA","randomdotsizeEA","equaldotsize","equaldotanddens","equaldotsize","randomdotsizeEA","randomdotsizeEA","equaldotanddens","randomdotsizeEA","equaldotsize","equaldotsize","equaldotsize","equaldotanddens","equaldotanddens","randomdotsizeEA","equaldotanddens","randomdotsizeEA","equaldotanddens","randomdotsizeEA","equaldotsize","randomdotsizeEA","randomdotsizeEA","equaldotanddens","randomdotsizeEA","equaldotsize","equaldotanddens","equaldotanddens","randomdotsizeEA","equaldotanddens","equaldotsize","equaldotanddens","randomdotsizeEA","randomdotsizeEA","randomdotsizeEA","equaldotsize"],"ratio_trial":[900,500,500,750,900,900,250,500,250,900,750,900,750,750,500,250,250,900,750,500,250,900,500,250,500,250,900,900,250,750,500,750,900,500,750,250,250,500,900,900,750,250,900,900,900,750,500,500,900,750,750,250,900,900,250,750,250,900,250,500,250,500,750,250,750,250,750,900,750,750,900,500,900,750,750,500,900,500,750,250,500,250,500,500,500,500,250,250,900,750,900,750,250,750,750,250,900,500,900,250,900,250,500,750,500,500,900,500,500,750,750,500,750,250,250,750,500,900,250,250],"smaller_num":["18","2","5","15","18","18","2","1","2","9","9","18","3","12","3","2","3","18","15","4","2","18","9","1","6","2","18","18","3","15","2","3","9","3","15","5","3","4","9","18","3","6","9","9","9","9","5","6","9","3","15","3","18","18","4","3","2","9","3","5","3","4","3","2","15","2","15","18","15","3","9","5","18","3","6","4","18","2","18","5","2","3","2","9","5","9","3","2","18","18","18","15","2","6","3","3","18","9","9","2","18","5","3","6","6","4","18","5","2","15","6","10","3","4","2","6","10","9","2","2"],"larger_num":["20","4","10","20","20","20","8","2","8","10","12","20","4","16","6","8","12","20","20","8","8","20","18","4","12","8","20","20","12","20","4","4","10","6","20","20","12","8","10","20","4","24","10","10","10","12","10","12","10","4","20","12","20","20","16","4","8","10","12","10","12","8","4","8","20","8","20","20","20","4","10","10","20","4","8","8","20","4","24","20","4","12","4","18","10","18","12","8","20","24","20","20","8","8","4","12","20","18","10","8","20","20","6","8","12","8","20","10","4","20","8","20","4","16","8","8","20","10","8","8"],"correct_side":[1,2,2,2,1,2,1,2,1,2,2,1,2,2,2,1,2,1,2,1,1,2,2,2,1,1,2,1,1,2,1,2,2,2,2,2,1,1,2,1,2,1,2,2,2,2,2,1,2,1,2,2,1,1,1,2,1,2,2,1,1,1,1,1,2,1,2,1,2,2,2,1,1,1,2,1,2,1,1,2,2,1,2,2,1,1,2,1,2,1,2,2,1,1,1,2,1,2,1,1,1,2,2,1,1,1,1,1,1,1,1,2,1,1,1,2,2,2,1,2],"img_shown":["img/900/equaldotsize/L/10_Ratio_900_L_20_R_18.png","img/500/equaldotsize/R/9_Ratio_500_L_2_R_4.png","img/500/equaldotanddens/R/14_Ratio_500_L_5_R_10.png","img/750/equaldotanddens/R/3_Ratio_750_L_15_R_20.png","img/900/equaldotanddens/L/10_Ratio_900_L_20_R_18.png","img/900/randomdotsizeEA/R/9_Ratio_900_L_18_R_20.png","img/250/equaldotsize/L/7_Ratio_250_L_8_R_2.png","img/500/randomdotsizeEA/R/15_Ratio_500_L_1_R_2.png","img/250/equaldotanddens/L/3_Ratio_250_L_8_R_2.png","img/900/equaldotsize/R/3_Ratio_900_L_9_R_10.png","img/750/equaldotanddens/R/15_Ratio_750_L_9_R_12.png","img/900/equaldotanddens/L/4_Ratio_900_L_20_R_18.png","img/750/equaldotsize/R/12_Ratio_750_L_3_R_4.png","img/750/equaldotanddens/R/11_Ratio_750_L_12_R_16.png","img/500/equaldotsize/R/2_Ratio_500_L_3_R_6.png","img/250/equaldotanddens/L/7_Ratio_250_L_8_R_2.png","img/250/equaldotanddens/R/9_Ratio_250_L_3_R_12.png","img/900/equaldotanddens/L/8_Ratio_900_L_20_R_18.png","img/750/equaldotsize/R/3_Ratio_750_L_15_R_20.png","img/500/equaldotanddens/L/8_Ratio_500_L_8_R_4.png","img/250/equaldotanddens/L/1_Ratio_250_L_8_R_2.png","img/900/equaldotanddens/R/14_Ratio_900_L_18_R_20.png","img/500/equaldotsize/R/6_Ratio_500_L_9_R_18.png","img/250/equaldotsize/R/8_Ratio_250_L_1_R_4.png","img/500/equaldotanddens/L/11_Ratio_500_L_12_R_6.png","img/250/equaldotanddens/L/7_Ratio_250_L_8_R_2.png","img/900/equaldotsize/R/13_Ratio_900_L_18_R_20.png","img/900/equaldotsize/L/10_Ratio_900_L_20_R_18.png","img/250/randomdotsizeEA/L/15_Ratio_250_L_12_R_3.png","img/750/equaldotanddens/R/4_Ratio_750_L_15_R_20.png","img/500/randomdotsizeEA/L/5_Ratio_500_L_4_R_2.png","img/750/equaldotsize/R/7_Ratio_750_L_3_R_4.png","img/900/randomdotsizeEA/R/7_Ratio_900_L_9_R_10.png","img/500/equaldotsize/R/2_Ratio_500_L_3_R_6.png","img/750/equaldotsize/R/5_Ratio_750_L_15_R_20.png","img/250/equaldotanddens/R/12_Ratio_250_L_5_R_20.png","img/250/equaldotsize/L/15_Ratio_250_L_12_R_3.png","img/500/equaldotsize/L/8_Ratio_500_L_8_R_4.png","img/900/equaldotanddens/R/3_Ratio_900_L_9_R_10.png","img/900/equaldotsize/L/10_Ratio_900_L_20_R_18.png","img/750/equaldotanddens/R/12_Ratio_750_L_3_R_4.png","img/250/equaldotsize/L/5_Ratio_250_L_24_R_6.png","img/900/randomdotsizeEA/R/5_Ratio_900_L_9_R_10.png","img/900/equaldotsize/R/3_Ratio_900_L_9_R_10.png","img/900/randomdotsizeEA/R/3_Ratio_900_L_9_R_10.png","img/750/equaldotanddens/R/15_Ratio_750_L_9_R_12.png","img/500/equaldotanddens/R/14_Ratio_500_L_5_R_10.png","img/500/equaldotanddens/L/13_Ratio_500_L_12_R_6.png","img/900/equaldotsize/R/3_Ratio_900_L_9_R_10.png","img/750/randomdotsizeEA/L/8_Ratio_750_L_4_R_3.png","img/750/equaldotsize/R/5_Ratio_750_L_15_R_20.png","img/250/randomdotsizeEA/R/9_Ratio_250_L_3_R_12.png","img/900/randomdotsizeEA/L/8_Ratio_900_L_20_R_18.png","img/900/equaldotanddens/L/10_Ratio_900_L_20_R_18.png","img/250/equaldotsize/L/2_Ratio_250_L_16_R_4.png","img/750/equaldotsize/R/12_Ratio_750_L_3_R_4.png","img/250/randomdotsizeEA/L/3_Ratio_250_L_8_R_2.png","img/900/equaldotanddens/R/15_Ratio_900_L_9_R_10.png","img/250/equaldotanddens/R/9_Ratio_250_L_3_R_12.png","img/500/equaldotsize/L/7_Ratio_500_L_10_R_5.png","img/250/randomdotsizeEA/L/14_Ratio_250_L_12_R_3.png","img/500/equaldotsize/L/8_Ratio_500_L_8_R_4.png","img/750/equaldotanddens/L/8_Ratio_750_L_4_R_3.png","img/250/equaldotanddens/L/7_Ratio_250_L_8_R_2.png","img/750/equaldotsize/R/5_Ratio_750_L_15_R_20.png","img/250/equaldotsize/L/7_Ratio_250_L_8_R_2.png","img/750/equaldotanddens/R/4_Ratio_750_L_15_R_20.png","img/900/randomdotsizeEA/L/10_Ratio_900_L_20_R_18.png","img/750/randomdotsizeEA/R/3_Ratio_750_L_15_R_20.png","img/750/randomdotsizeEA/R/12_Ratio_750_L_3_R_4.png","img/900/equaldotsize/R/5_Ratio_900_L_9_R_10.png","img/500/equaldotsize/L/7_Ratio_500_L_10_R_5.png","img/900/equaldotsize/L/8_Ratio_900_L_20_R_18.png","img/750/randomdotsizeEA/L/9_Ratio_750_L_4_R_3.png","img/750/randomdotsizeEA/R/2_Ratio_750_L_6_R_8.png","img/500/randomdotsizeEA/L/8_Ratio_500_L_8_R_4.png","img/900/randomdotsizeEA/R/14_Ratio_900_L_18_R_20.png","img/500/equaldotsize/L/5_Ratio_500_L_4_R_2.png","img/750/randomdotsizeEA/L/6_Ratio_750_L_24_R_18.png","img/250/randomdotsizeEA/R/12_Ratio_250_L_5_R_20.png","img/500/randomdotsizeEA/R/9_Ratio_500_L_2_R_4.png","img/250/randomdotsizeEA/L/14_Ratio_250_L_12_R_3.png","img/500/randomdotsizeEA/R/9_Ratio_500_L_2_R_4.png","img/500/randomdotsizeEA/R/6_Ratio_500_L_9_R_18.png","img/500/equaldotanddens/L/7_Ratio_500_L_10_R_5.png","img/500/randomdotsizeEA/L/4_Ratio_500_L_18_R_9.png","img/250/randomdotsizeEA/R/11_Ratio_250_L_3_R_12.png","img/250/equaldotsize/L/3_Ratio_250_L_8_R_2.png","img/900/equaldotanddens/R/12_Ratio_900_L_18_R_20.png","img/750/equaldotsize/L/6_Ratio_750_L_24_R_18.png","img/900/randomdotsizeEA/R/11_Ratio_900_L_18_R_20.png","img/750/randomdotsizeEA/R/5_Ratio_750_L_15_R_20.png","img/250/equaldotanddens/L/3_Ratio_250_L_8_R_2.png","img/750/randomdotsizeEA/L/14_Ratio_750_L_8_R_6.png","img/750/equaldotsize/L/9_Ratio_750_L_4_R_3.png","img/250/equaldotsize/R/9_Ratio_250_L_3_R_12.png","img/900/equaldotsize/L/10_Ratio_900_L_20_R_18.png","img/500/equaldotanddens/R/1_Ratio_500_L_9_R_18.png","img/900/equaldotanddens/L/1_Ratio_900_L_10_R_9.png","img/250/randomdotsizeEA/L/1_Ratio_250_L_8_R_2.png","img/900/equaldotanddens/L/4_Ratio_900_L_20_R_18.png","img/250/randomdotsizeEA/R/12_Ratio_250_L_5_R_20.png","img/500/equaldotanddens/R/2_Ratio_500_L_3_R_6.png","img/750/randomdotsizeEA/L/13_Ratio_750_L_8_R_6.png","img/500/equaldotsize/L/13_Ratio_500_L_12_R_6.png","img/500/randomdotsizeEA/L/8_Ratio_500_L_8_R_4.png","img/900/randomdotsizeEA/L/2_Ratio_900_L_20_R_18.png","img/500/equaldotanddens/L/7_Ratio_500_L_10_R_5.png","img/500/randomdotsizeEA/L/10_Ratio_500_L_4_R_2.png","img/750/equaldotsize/L/1_Ratio_750_L_20_R_15.png","img/750/equaldotanddens/L/13_Ratio_750_L_8_R_6.png","img/500/equaldotanddens/R/3_Ratio_500_L_10_R_20.png","img/750/randomdotsizeEA/L/8_Ratio_750_L_4_R_3.png","img/250/equaldotanddens/L/2_Ratio_250_L_16_R_4.png","img/250/equaldotsize/L/3_Ratio_250_L_8_R_2.png","img/750/equaldotanddens/R/2_Ratio_750_L_6_R_8.png","img/500/randomdotsizeEA/R/3_Ratio_500_L_10_R_20.png","img/900/randomdotsizeEA/R/15_Ratio_900_L_9_R_10.png","img/250/randomdotsizeEA/L/7_Ratio_250_L_8_R_2.png","img/250/equaldotsize/R/13_Ratio_250_L_2_R_8.png"],"Rat0":[["12_Ratio_0_L_9_R_0.png","13_Ratio_0_L_6_R_0.png","5_Ratio_0_L_2_R_0.png","6_Ratio_0_L_4_R_0.png","8_Ratio_0_L_6_R_0.png"],["1_Ratio_0_L_0_R_17.png","10_Ratio_0_L_0_R_22.png","11_Ratio_0_L_0_R_1.png","14_Ratio_0_L_0_R_24.png","15_Ratio_0_L_0_R_4.png","2_Ratio_0_L_0_R_5.png","3_Ratio_0_L_0_R_17.png","4_Ratio_0_L_0_R_7.png","7_Ratio_0_L_0_R_19.png","9_Ratio_0_L_0_R_15.png"]],"Rat250":[["1_Ratio_250_L_8_R_2.png","14_Ratio_250_L_12_R_3.png","15_Ratio_250_L_12_R_3.png","2_Ratio_250_L_16_R_4.png","3_Ratio_250_L_8_R_2.png","5_Ratio_250_L_24_R_6.png","7_Ratio_250_L_8_R_2.png"],["10_Ratio_250_L_4_R_16.png","11_Ratio_250_L_3_R_12.png","12_Ratio_250_L_5_R_20.png","13_Ratio_250_L_2_R_8.png","4_Ratio_250_L_3_R_12.png","6_Ratio_250_L_6_R_24.png","8_Ratio_250_L_1_R_4.png","9_Ratio_250_L_3_R_12.png"]],"Rat500":[["10_Ratio_500_L_4_R_2.png","11_Ratio_500_L_12_R_6.png","13_Ratio_500_L_12_R_6.png","4_Ratio_500_L_18_R_9.png","5_Ratio_500_L_4_R_2.png","7_Ratio_500_L_10_R_5.png","8_Ratio_500_L_8_R_4.png"],["1_Ratio_500_L_9_R_18.png","12_Ratio_500_L_1_R_2.png","14_Ratio_500_L_5_R_10.png","15_Ratio_500_L_1_R_2.png","2_Ratio_500_L_3_R_6.png","3_Ratio_500_L_10_R_20.png","6_Ratio_500_L_9_R_18.png","9_Ratio_500_L_2_R_4.png"]],"Rat750":[["1_Ratio_750_L_20_R_15.png","10_Ratio_750_L_4_R_3.png","13_Ratio_750_L_8_R_6.png","14_Ratio_750_L_8_R_6.png","6_Ratio_750_L_24_R_18.png","8_Ratio_750_L_4_R_3.png","9_Ratio_750_L_4_R_3.png"],["11_Ratio_750_L_12_R_16.png","12_Ratio_750_L_3_R_4.png","15_Ratio_750_L_9_R_12.png","2_Ratio_750_L_6_R_8.png","3_Ratio_750_L_15_R_20.png","4_Ratio_750_L_15_R_20.png","5_Ratio_750_L_15_R_20.png","7_Ratio_750_L_3_R_4.png"]],"Rat900":[["1_Ratio_900_L_10_R_9.png","10_Ratio_900_L_20_R_18.png","2_Ratio_900_L_20_R_18.png","4_Ratio_900_L_20_R_18.png","8_Ratio_900_L_20_R_18.png"],["11_Ratio_900_L_18_R_20.png","12_Ratio_900_L_18_R_20.png","13_Ratio_900_L_18_R_20.png","14_Ratio_900_L_18_R_20.png","15_Ratio_900_L_9_R_10.png","3_Ratio_900_L_9_R_10.png","5_Ratio_900_L_9_R_10.png","6_Ratio_900_L_9_R_10.png","7_Ratio_900_L_9_R_10.png","9_Ratio_900_L_18_R_20.png"]],"Rat1000":[["10_Ratio_1000_L_16_R_16.png","11_Ratio_1000_L_6_R_6.png","12_Ratio_1000_L_14_R_14.png","13_Ratio_1000_L_20_R_20.png","15_Ratio_1000_L_15_R_15.png","2_Ratio_1000_L_17_R_17.png","4_Ratio_1000_L_9_R_9.png","5_Ratio_1000_L_6_R_6.png","6_Ratio_1000_L_19_R_19.png","8_Ratio_1000_L_14_R_14.png","9_Ratio_1000_L_25_R_25.png"],["1_Ratio_1000_L_1_R_1.png","14_Ratio_1000_L_17_R_17.png","3_Ratio_1000_L_17_R_17.png","7_Ratio_1000_L_6_R_6.png"]]}},{"start_time":1552328007356,"click_time":1552328008500,"finger_time":1552328008259,"fix_duration":1094.9841984811183,"trial":1,"RT":903,"MT":241,"sideResp":2,"stimulus":"img/500/equaldotsize/R/9_Ratio_500_L_2_R_4.png","xmouse":[795,795,795,795,795,795,795,795,795,795,795,795,795,795,795,795,795,795,795,795,795,795,795,795,795,795,795,795,795,795,795,795,795,795,795,795,795,795,795,795,795,795,795,808,826,939,995,1036,1074,1099,1105,1102,1094,1084,1075,1064,1062,1061],"ymouse":[498,498,498,498,498,498,498,498,498,498,498,498,498,498,498,498,498,498,498,498,498,498,498,498,498,498,498,498,498,498,498,498,498,498,498,498,498,498,498,498,498,498,498,492,477,381,347,320,289,252,241,213,200,186,168,130,110,90],"timestamp_mouse":[12,25,43,64,83,103,124,143,164,184,204,224,244,263,283,303,323,343,364,384,404,423,443,464,483,502,524,544,563,584,603,623,644,663,683,703,724,744,763,784,803,823,843,863,883,903,923,943,963,983,1003,1025,1043,1064,1083,1103,1123,1143],"xSR":741.5,"ySR":469.95,"xT1":424.9,"yT1":0,"xT2":1058.1,"yT2":0,"toosoon":0,"cond_shown":"equaldotsize","ratio_trial":500,"smaller_num":"2","larger_num":"4","correct_side":2,"subjID":"Danielcobos9","gender":"0","age":"9","school":"4"},{"start_time":1552328009832,"click_time":1552328010661,"finger_time":1552328010579,"fix_duration":250,"trial":2,"RT":747,"MT":82,"sideResp":2,"stimulus":"img/500/equaldotanddens/R/14_Ratio_500_L_5_R_10.png","xmouse":[772,772,772,772,772,772,772,772,772,772,772,772,772,772,772,772,772,772,772,772,772,772,771,770,770,770,770,770,770,770,770,770,770,770,772,783,835,930,984,1039,1068,1085],"ymouse":[521,521,521,522,522,523,524,525,526,526,526,526,526,526,526,526,526,526,526,526,526,526,527,527,527,527,527,527,527,527,527,527,527,527,526,521,482,394,293,192,119,43],"timestamp_mouse":[19,39,47,66,86,107,127,147,168,187,207,227,247,267,288,307,328,348,368,387,408,427,447,467,488,508,528,548,568,587,608,628,648,667,687,707,727,747,767,787,808,828],"xSR":741.5,"ySR":469.95,"xT1":424.9,"yT1":0,"xT2":1058.1,"yT2":0,"toosoon":0,"cond_shown":"equaldotanddens","ratio_trial":500,"smaller_num":"5","larger_num":"10","correct_side":2,"subjID":"Danielcobos9","gender":"0","age":"9","school":"4"},{"start_time":1552328011752,"click_time":1552328013219,"finger_time":1552328013019,"fix_duration":250,"trial":3,"RT":1267,"MT":200,"sideResp":2,"stimulus":"img/750/equaldotanddens/R/3_Ratio_750_L_15_R_20.png","xmouse":[792,792,792,792,792,792,792,792,792,792,792,792,792,792,792,792,792,792,792,792,792,792,792,792,792,792,792,792,792,793,794,796,796,797,797,797,797,797,797,797,797,797,797,797,797,797,797,797,797,797,797,797,797,797,797,797,797,797,797,798,799,802,807,816,828,842,895,929,980,1004,1018,1039,1050,1060],"ymouse":[518,518,518,518,518,518,518,518,518,518,518,518,518,518,518,518,518,518,518,518,518,518,518,518,518,518,518,518,518,517,516,514,514,513,513,513,513,513,513,513,513,512,511,511,511,511,511,511,511,511,511,511,511,511,511,510,509,509,507,505,504,496,486,469,442,403,322,272,201,165,140,94,76,66],"timestamp_mouse":[7,28,47,67,87,107,128,147,168,188,208,228,248,268,287,308,328,347,367,387,408,428,448,467,487,508,527,547,568,587,607,627,647,667,687,708,727,747,768,788,808,828,848,867,887,907,928,947,968,988,1008,1027,1047,1067,1087,1108,1127,1148,1167,1188,1207,1227,1247,1267,1287,1307,1327,1347,1367,1387,1408,1427,1447,1467],"xSR":741.5,"ySR":469.95,"xT1":424.9,"yT1":0,"xT2":1058.1,"yT2":0,"toosoon":0,"cond_shown":"equaldotanddens","ratio_trial":750,"smaller_num":"15","larger_num":"20","correct_side":2,"subjID":"Danielcobos9","gender":"0","age":"9","school":"4"},{"start_time":1552328014532,"click_time":1552328016979,"finger_time":1552328016260,"fix_duration":250,"trial":4,"RT":1728,"MT":719,"sideResp":2,"stimulus":"img/900/equaldotanddens/L/10_Ratio_900_L_20_R_18.png","xmouse":[783,783,783,783,783,783,783,783,783,783,783,783,783,783,783,783,783,783,783,783,783,783,783,783,783,783,783,783,783,783,783,783,783,783,783,783,783,783,783,783,783,783,783,783,783,783,783,783,783,783,783,783,783,783,783,783,783,783,783,783,783,783,783,783,783,783,783,783,783,783,783,783,785,789,791,792,792,792,792,792,792,792,792,787,781,768,745,660,581,535,512,501,498,497,497,497,497,497,503,508,520,535,589,639,705,780,853,985,1002,1008,1010,1011,1015,1018,1022,1024,1026,1038,1048,1063,1075,1089,1098],"ymouse":[539,539,539,539,539,539,539,539,539,539,539,539,539,539,539,539,539,539,539,539,539,539,539,539,539,539,539,539,539,539,539,539,539,539,539,539,539,539,539,539,539,539,539,539,539,539,539,539,539,539,539,539,539,539,539,539,539,539,539,539,539,539,539,539,539,539,539,539,539,539,539,537,532,531,529,528,527,527,527,527,526,526,525,521,512,495,469,379,291,250,225,207,200,198,198,198,198,198,199,202,208,213,226,229,229,212,190,151,142,136,132,130,130,130,130,131,131,127,122,117,112,105,93],"timestamp_mouse":[12,32,47,67,87,108,127,147,167,187,207,227,248,266,288,307,327,348,368,387,408,427,448,467,488,507,527,547,568,587,608,627,647,668,687,708,727,747,768,787,808,828,848,867,888,908,927,947,967,987,1008,1027,1047,1068,1087,1107,1127,1148,1168,1187,1207,1227,1248,1267,1287,1307,1327,1347,1367,1388,1407,1427,1447,1467,1487,1508,1528,1547,1568,1587,1607,1628,1648,1667,1687,1707,1728,1747,1768,1787,1807,1827,1847,1868,1887,1907,1928,1947,1967,1987,2008,2028,2048,2068,2088,2107,2128,2148,2167,2187,2207,2226,2247,2267,2287,2307,2327,2348,2367,2387,2407,2426,2446],"xSR":741.5,"ySR":469.95,"xT1":424.9,"yT1":0,"xT2":1058.1,"yT2":0,"toosoon":0,"cond_shown":"equaldotanddens","ratio_trial":900,"smaller_num":"18","larger_num":"20","correct_side":1,"subjID":"Danielcobos9","gender":"0","age":"9","school":"4"},{"start_time":1552328018338,"click_time":1552328023399,"finger_time":1552328022599,"fix_duration":497.7957099357283,"trial":5,"RT":4261,"MT":800,"sideResp":1,"stimulus":"img/900/randomdotsizeEA/R/9_Ratio_900_L_18_R_20.png","xmouse":[775,775,775,775,775,775,775,775,775,775,775,775,775,775,775,775,775,775,775,775,775,775,775,775,775,775,775,775,775,775,775,775,775,775,775,775,775,775,775,775,775,775,775,775,775,775,775,775,775,775,775,775,775,775,775,775,775,775,775,775,775,775,775,775,775,775,775,775,775,775,775,775,775,775,775,775,775,775,775,775,775,775,775,775,775,775,775,775,775,775,775,775,775,775,775,775,775,775,775,775,775,775,775,775,775,775,775,775,775,775,775,775,775,775,775,775,775,775,775,775,775,775,775,775,775,775,775,775,775,775,775,775,775,775,775,775,775,775,775,775,775,775,775,775,775,775,775,775,775,775,775,775,775,775,775,775,775,775,775,775,775,775,775,775,775,775,775,775,775,775,775,775,775,775,775,775,775,775,775,775,775,775,775,775,775,775,775,775,775,775,775,775,775,775,775,775,775,775,775,775,775,775,775,775,775,775,775,775,775,775,775,779,789,878,911,952,959,962,962,962,962,962,962,962,962,962,962,958,921,898,865,819,770,721,704,673,652,622,622,622,622,622,622,622,622,622,622,622,622,622,622,622,622,523],"ymouse":[548,548,548,548,548,548,548,548,548,548,548,548,548,548,548,548,548,548,548,548,548,548,548,548,548,548,548,548,548,548,548,548,548,548,548,548,548,548,548,548,548,548,548,548,548,548,548,548,548,548,548,548,548,548,548,548,548,548,548,548,548,548,548,548,548,548,548,548,548,548,548,548,548,548,548,548,548,548,548,548,548,548,548,548,548,548,548,548,548,548,548,548,548,548,548,548,548,548,548,548,548,548,548,548,548,548,548,548,548,548,548,548,548,548,548,548,548,548,548,548,548,548,548,548,548,548,548,548,548,548,548,548,548,548,548,548,548,548,548,548,548,548,548,548,548,548,548,548,548,548,548,548,548,548,548,548,548,548,548,548,548,548,548,548,548,548,548,548,548,548,548,548,548,548,548,548,548,548,548,548,548,548,548,548,548,548,548,548,548,548,548,548,548,548,548,548,548,548,548,548,548,548,548,548,548,548,548,548,548,548,548,549,552,567,575,580,580,580,580,580,580,580,580,580,580,580,580,576,531,490,431,361,297,204,144,63,30,2,2,2,2,2,2,2,2,2,2,2,2,2,2,2,2,5],"timestamp_mouse":[9,21,41,61,81,101,121,142,162,182,202,222,242,262,281,301,322,342,361,381,402,422,442,461,482,502,522,541,561,581,602,621,641,661,682,701,722,741,762,782,802,821,842,862,882,902,922,942,962,981,1002,1021,1041,1062,1082,1102,1121,1141,1161,1181,1202,1222,1242,1261,1281,1301,1321,1341,1361,1382,1402,1421,1442,1461,1482,1501,1521,1542,1561,1582,1602,1622,1641,1662,1681,1701,1722,1742,1762,1781,1801,1822,1841,1862,1882,1902,1922,1941,1962,1982,2000,2021,2041,2061,2081,2102,2122,2141,2162,2181,2201,2222,2241,2262,2281,2301,2322,2342,2362,2382,2402,2422,2441,2462,2481,2502,2521,2541,2562,2581,2601,2621,2643,2662,2682,2702,2721,2742,2762,2781,2801,2822,2842,2862,2882,2902,2921,2942,2962,2981,3002,3021,3041,3062,3082,3101,3120,3141,3162,3181,3201,3222,3240,3262,3281,3302,3322,3341,3361,3382,3401,3421,3442,3461,3481,3501,3522,3541,3562,3582,3602,3622,3641,3662,3682,3701,3722,3742,3762,3781,3802,3822,3841,3861,3882,3901,3921,3941,3962,3982,4001,4022,4042,4062,4081,4102,4121,4142,4161,4181,4202,4221,4241,4261,4282,4301,4322,4341,4362,4382,4401,4422,4441,4462,4481,4502,4521,4542,4561,4581,4601,4621,4641,4661,4682,4701,4721,4741,4761,4781,4801,4821,4840,4861,4882,4901,4922,4942,4961,4982,5001,5021,5041,5061],"xSR":741.5,"ySR":469.95,"xT1":424.9,"yT1":0,"xT2":1058.1,"yT2":0,"toosoon":0,"cond_shown":"randomdotsizeEA","ratio_trial":900,"smaller_num":"18","larger_num":"20","correct_side":2,"subjID":"Danielcobos9","gender":"0","age":"9","school":"4"},{"start_time":1552328025766,"click_time":1552328027340,"finger_time":1552328026639,"fix_duration":1223.2413843617917,"trial":6,"RT":873,"MT":701,"sideResp":1,"stimulus":"img/250/equaldotsize/L/7_Ratio_250_L_8_R_2.png","xmouse":[787,787,787,787,787,787,787,787,787,787,787,787,787,787,787,787,787,787,787,787,787,787,787,787,787,787,787,787,787,787,787,787,787,787,787,787,787,787,787,787,788,788,788,785,772,749,655,593,535,475,459,402,402,402,402,402,402,402,402,402,402,402,402,402,402,402,402,402,409,413,417,417,417,417,417,417,418,424,427],"ymouse":[494,494,494,494,494,494,494,494,494,494,494,494,494,494,494,494,494,494,494,494,494,494,494,494,494,494,494,494,494,494,494,494,494,494,494,494,494,494,494,494,494,494,481,463,445,423,340,287,229,140,113,3,3,3,3,3,3,3,3,3,3,3,3,3,3,3,3,3,3,8,15,15,15,15,16,17,20,31,37],"timestamp_mouse":[13,35,53,73,93,113,133,153,174,194,214,234,254,273,294,313,334,353,374,394,414,434,454,473,494,513,533,554,573,593,613,633,653,674,694,714,734,754,773,794,813,833,854,873,893,913,935,953,974,993,1013,1033,1054,1073,1093,1114,1134,1154,1173,1192,1213,1234,1254,1273,1294,1313,1333,1354,1373,1393,1413,1433,1454,1474,1494,1514,1534,1554,1574],"xSR":741.5,"ySR":469.95,"xT1":424.9,"yT1":0,"xT2":1058.1,"yT2":0,"toosoon":0,"cond_shown":"equaldotsize","ratio_trial":250,"smaller_num":"2","larger_num":"8","correct_side":1,"subjID":"Danielcobos9","gender":"0","age":"9","school":"4"},{"start_time":1552328028902,"click_time":1552328035040,"finger_time":1552328031019,"fix_duration":521.5472931988653,"trial":7,"RT":2117,"MT":4021,"sideResp":2,"stimulus":"img/500/randomdotsizeEA/R/15_Ratio_500_L_1_R_2.png","xmouse":[784,784,784,784,784,784,784,784,784,784,784,784,784,784,784,784,784,784,784,784,784,784,784,784,784,784,784,784,784,784,784,784,784,784,784,784,785,785,785,785,785,785,785,785,785,785,785,785,785,785,785,785,785,785,785,785,785,785,785,785,785,785,785,785,785,785,785,785,785,785,785,786,786,786,786,786,786,787,787,787,788,788,789,789,790,793,795,797,797,797,797,797,798,799,801,802,803,803,803,803,803,802,801,801,799,792,786,778,768,760,738,733,731,730,729,729,729,729,728,727,722,716,710,704,699,689,686,686,684,684,674,667,661,654,651,650,651,652,653,654,658,662,666,671,678,688,693,698,703,707,714,717,719,725,731,745,756,766,774,780,792,800,806,810,814,821,824,826,827,829,832,834,837,841,846,854,858,863,866,869,877,884,889,892,897,909,916,920,927,934,947,954,957,960,962,967,969,971,975,980,997,1007,1017,1025,1031,1037,1041,1044,1047,1049,1054,1056,1058,1060,1061,1067,1068,1070,1071,1071,1071,1072,1072,1072,1072,1073,1073,1074,1074,1074,1074,1074,1074,1074,1074,1074,1074,1074,1074,1074,1074,1074,1074,1074,1074,1074,1074,1074,1074,1074,1074,1074,1074,1074,1075,1075,1075,1075,1075,1075,1075,1075,1075,1075,1075,1075,1075,1075,1075,1075,1075,1075,1075,1075,1075,1075,1075,1075,1075,1075,1075,1075,1075,1075,1075,1075,1075,1075,1075,1075,1075,1075,1075,1075,1075,1075,1075,1075,1075,1075,1075,1075,1075,1075,1075,1075,1075],"ymouse":[517,517,517,517,517,517,517,517,517,517,518,518,519,519,521,521,521,521,523,524,528,529,529,529,529,529,529,529,529,529,529,529,529,530,530,530,530,530,530,530,530,530,530,530,530,530,530,530,530,530,530,530,530,530,530,530,530,530,530,530,530,530,530,530,530,530,530,530,530,530,530,529,529,529,529,529,528,527,527,527,526,526,525,524,523,520,519,519,519,519,519,519,519,519,519,517,517,515,513,511,503,497,492,488,480,457,444,430,413,398,363,355,350,349,348,348,346,343,339,334,325,315,308,302,297,288,285,283,279,276,250,234,221,208,201,195,193,191,191,190,190,190,189,189,189,189,189,189,189,190,191,191,191,191,191,191,192,193,193,193,185,174,167,161,156,144,140,138,136,135,134,134,133,133,133,134,135,137,137,138,140,142,144,144,144,144,146,146,146,146,148,149,149,149,149,149,149,149,149,149,149,149,147,144,141,137,136,134,133,132,129,128,126,124,122,116,114,113,112,111,111,110,110,110,110,108,108,107,107,107,105,105,105,105,105,105,105,105,105,105,105,105,105,105,105,105,104,104,104,104,104,104,104,104,103,103,102,102,102,102,101,101,101,101,101,101,101,101,101,101,101,101,101,101,101,101,101,101,101,101,101,101,101,101,101,101,101,101,101,101,101,101,101,101,101,101,101,101,101,101,101,101,101,101,101,101,99],"timestamp_mouse":[17,38,58,77,97,118,137,159,177,197,217,237,257,277,296,317,337,358,378,398,417,437,458,478,498,518,538,557,578,597,618,638,658,677,697,717,737,758,778,797,818,837,858,877,898,918,937,958,978,998,1018,1037,1058,1077,1098,1118,1138,1158,1178,1197,1218,1238,1257,1278,1297,1318,1337,1358,1377,1398,1418,1438,1457,1478,1497,1518,1537,1557,1578,1597,1618,1638,1657,1678,1697,1717,1737,1758,1778,1798,1817,1838,1857,1878,1897,1918,1938,1958,1977,1997,2017,2037,2057,2078,2097,2117,2137,2157,2177,2197,2218,2238,2257,2278,2298,2317,2337,2359,2377,2398,2417,2437,2457,2478,2498,2516,2537,2558,2577,2597,2617,2637,2656,2678,2697,2717,2737,2758,2776,2798,2817,2838,2857,2878,2898,2917,2937,2957,2977,2997,3017,3038,3057,3077,3098,3118,3139,3158,3178,3197,3217,3237,3257,3277,3297,3317,3337,3357,3378,3397,3418,3438,3456,3478,3497,3517,3538,3556,3577,3598,3618,3638,3656,3678,3698,3717,3738,3758,3777,3797,3817,3837,3857,3876,3896,3917,3938,3958,3977,3997,4017,4037,4056,4078,4097,4117,4138,4157,4178,4198,4217,4237,4257,4277,4298,4317,4337,4358,4378,4398,4418,4437,4458,4477,4497,4517,4537,4557,4577,4598,4617,4638,4658,4678,4698,4717,4738,4758,4778,4798,4818,4838,4857,4878,4897,4917,4937,4958,4978,4997,5017,5037,5058,5078,5097,5117,5137,5157,5178,5197,5218,5238,5258,5277,5298,5317,5337,5357,5378,5398,5417,5438,5457,5477,5498,5517,5537,5557,5578,5597,5617,5638,5658,5677,5698,5718,5738,5758,5776,5798,5818,5838,5858,5877,5898,5918,5938,5957,5977,5997,6017,6037,6057,6077,6098,6118,6137],"xSR":741.5,"ySR":469.95,"xT1":424.9,"yT1":0,"xT2":1058.1,"yT2":0,"toosoon":0,"cond_shown":"randomdotsizeEA","ratio_trial":500,"smaller_num":"1","larger_num":"2","correct_side":2,"subjID":"Danielcobos9","gender":"0","age":"9","school":"4"},{"start_time":1552328038021,"click_time":1552328039019,"finger_time":1552328038879,"fix_duration":738.2193721592917,"trial":8,"RT":858,"MT":140,"sideResp":1,"stimulus":"img/250/equaldotanddens/L/3_Ratio_250_L_8_R_2.png","xmouse":[799,799,799,799,799,799,799,799,799,799,799,799,799,799,799,799,799,799,799,799,799,799,799,799,799,799,799,799,799,799,799,799,799,799,799,799,799,799,799,796,793,774,761,739,713,683,635,623,598,573,510],"ymouse":[558,558,558,558,558,558,558,558,558,558,558,558,558,558,558,558,558,558,558,558,558,558,558,558,558,558,558,558,558,558,558,558,558,558,558,558,558,558,558,553,547,514,495,463,420,350,240,201,149,102,26],"timestamp_mouse":[1,19,38,58,78,98,119,139,159,179,200,219,238,259,279,299,318,339,358,379,399,419,439,458,478,499,519,539,559,578,598,619,638,658,679,698,718,739,759,778,798,818,838,858,877,898,918,939,958,978,998],"xSR":741.5,"ySR":469.95,"xT1":424.9,"yT1":0,"xT2":1058.1,"yT2":0,"toosoon":0,"cond_shown":"equaldotanddens","ratio_trial":250,"smaller_num":"2","larger_num":"8","correct_side":1,"subjID":"Danielcobos9","gender":"0","age":"9","school":"4"},{"start_time":1552328040791,"click_time":1552328042440,"finger_time":1552328041840,"fix_duration":250,"trial":9,"RT":1049,"MT":600,"sideResp":2,"stimulus":"img/900/equaldotsize/R/3_Ratio_900_L_9_R_10.png","xmouse":[794,794,794,794,794,794,794,794,794,794,794,794,794,794,794,794,794,794,794,794,794,794,794,794,794,794,794,794,794,794,794,794,794,794,794,794,794,794,794,794,794,794,794,794,794,793,793,794,800,805,812,822,846,857,868,876,882,899,910,924,936,945,954,957,960,966,975,1010,1031,1053,1071,1084,1097,1100,1105,1111,1115,1125,1131,1137,1145,1149,1154],"ymouse":[485,485,485,485,485,485,485,485,485,485,485,485,485,485,485,485,485,485,485,485,485,485,485,485,485,485,485,485,485,485,485,485,485,485,485,485,485,485,485,485,485,485,485,485,485,484,484,483,481,479,479,479,479,480,480,480,480,467,454,439,427,416,402,399,394,388,380,353,336,320,305,295,283,280,276,270,264,234,210,181,149,123,98],"timestamp_mouse":[12,32,48,68,89,109,128,149,169,188,209,228,248,269,289,308,329,348,368,388,408,428,449,469,488,509,529,549,569,588,608,628,648,669,688,708,728,749,769,789,808,828,848,868,888,909,928,948,968,988,1008,1029,1048,1068,1088,1108,1127,1148,1168,1188,1208,1228,1249,1268,1288,1308,1328,1348,1368,1388,1408,1428,1448,1469,1488,1509,1528,1549,1568,1588,1609,1628,1648],"xSR":741.5,"ySR":469.95,"xT1":424.9,"yT1":0,"xT2":1058.1,"yT2":0,"toosoon":0,"cond_shown":"equaldotsize","ratio_trial":900,"smaller_num":"9","larger_num":"10","correct_side":2,"subjID":"Danielcobos9","gender":"0","age":"9","school":"4"},{"start_time":1552328046931,"click_time":1552328048519,"finger_time":1552328047800,"fix_duration":250,"trial":10,"RT":869,"MT":719,"sideResp":2,"stimulus":"img/750/equaldotanddens/R/15_Ratio_750_L_9_R_12.png","xmouse":[808,808,808,808,808,808,808,808,808,808,808,808,808,808,808,808,808,808,808,808,808,808,808,808,808,808,808,808,808,808,808,808,808,808,808,808,808,808,809,810,816,831,841,856,866,883,897,912,925,936,941,956,976,990,1005,1013,1031,1038,1044,1052,1066,1105,1119,1136,1138,1138,1136,1131,1130,1130,1130,1134,1136,1141,1142,1144,1145,1145,1142,1140],"ymouse":[526,526,526,526,526,526,526,526,526,526,526,526,526,526,526,526,526,526,526,526,526,526,526,526,526,526,526,526,526,526,526,526,526,526,526,526,526,526,526,526,522,513,507,496,488,472,461,448,437,429,425,414,406,399,393,388,364,346,331,313,287,227,207,180,173,170,170,170,170,170,169,161,157,146,140,136,129,115,100,83],"timestamp_mouse":[11,37,48,68,88,109,128,148,168,189,207,228,248,269,288,308,329,348,368,389,409,429,449,469,488,508,528,548,569,589,609,629,649,669,688,708,729,748,768,788,808,828,848,869,889,910,929,948,968,989,1008,1028,1049,1068,1087,1108,1128,1149,1168,1189,1208,1228,1249,1268,1288,1308,1328,1348,1368,1388,1408,1428,1449,1468,1487,1508,1528,1548,1568,1588],"xSR":741.5,"ySR":469.95,"xT1":424.9,"yT1":0,"xT2":1058.1,"yT2":0,"toosoon":0,"cond_shown":"equaldotanddens","ratio_trial":750,"smaller_num":"9","larger_num":"12","correct_side":2,"subjID":"Danielcobos9","gender":"0","age":"9","school":"4"},{"start_time":1552328050305,"click_time":1552328059280,"finger_time":1552328051259,"fix_duration":443.3622076157607,"trial":11,"RT":954,"MT":8021,"sideResp":2,"stimulus":"img/900/equaldotanddens/L/4_Ratio_900_L_20_R_18.png","xmouse":[786,786,786,786,786,786,786,786,786,786,786,786,786,786,786,786,786,786,786,786,786,786,786,786,786,786,786,786,786,786,786,786,786,786,786,786,786,786,786,786,786,786,788,789,789,790,791,791,793,793,793,794,795,795,795,795,794,790,787,781,776,770,749,738,728,714,703,682,678,676,676,676,667,661,654,647,643,636,630,625,619,614,608,604,604,604,604,610,631,666,715,764,890,917,931,937,941,949,953,957,962,968,975,975,975,975,975,917,835,708,565,413,248,248,248,248,248,248,228,246,258,274,278,290,306,330,376,529,637,739,837,929,975,981,985,987,987,988,988,988,988,985,920,857,767,659,556,481,481,483,485,486,486,486,486,486,487,495,509,552,626,727,969,1029,1044,1044,1044,1044,1044,1044,1044,1044,1044,1044,1045,1026,976,807,737,691,677,676,687,692,694,694,694,694,694,694,695,696,696,696,683,670,668,668,667,667,667,667,669,669,659,634,600,589,594,604,614,614,613,588,575,568,568,567,562,540,518,505,503,503,509,511,511,511,501,501,501,502,512,534,537,538,538,538,538,538,538,537,533,522,513,503,494,490,488,488,488,488,488,488,488,491,506,567,652,687,764,895,974,1130,1209,1279,1318,1335,1344,1344,1344,1344,1341,1314,1289,1249,1196,1131,968,832,790,669,570,554,543,537,534,533,533,533,533,533,533,527,519,513,510,510,536,573,618,666,701,771,810,849,882,913,976,1005,1033,1044,1052,1065,1069,1070,1070,1070,1070,1070,1070,1063,1044,963,906,841,777,713,599,531,509,491,477,453,443,436,432,431,430,430,430,430,430,428,427,426,425,425,427,444,465,487,504,516,517,518,521,526,537,544,558,567,579,600,612,628,644,658,682,702,715,727,737,751,756,762,765,769,785,808,824,841,849,860,865,871,877,883,901,917,929,938,945,947,948,948,949,951,958,961,963,966,968,976,977,980,981,984,996,1001,1004,1005,1006,1009,1010,1012,1013,1014,1017,1019,1024,1032,1039,1056,1064,1070,1072,1074,1079,1080,1082,1083,1086,1095,1100,1104,1108,1109,1110,1110,1110,1110,1110,1110,1110,1106,1103,1103,1101],"ymouse":[499,499,499,499,499,499,499,499,499,499,499,499,499,499,499,499,499,499,499,499,499,499,499,499,499,499,499,499,499,499,499,499,499,499,499,499,499,499,499,499,498,497,491,487,485,482,478,468,459,446,432,415,386,377,370,367,364,357,352,342,332,320,294,281,269,253,238,211,205,203,202,202,199,195,192,189,186,184,183,181,181,179,177,176,176,176,176,178,189,208,229,253,320,336,344,347,348,351,352,353,354,356,358,358,358,358,358,334,303,250,178,101,17,17,17,17,17,17,9,22,33,45,50,67,84,106,138,226,279,336,386,424,437,438,439,439,439,439,439,439,439,441,451,451,446,422,389,342,338,337,337,336,336,336,336,336,337,365,386,419,460,512,625,654,663,663,663,663,663,663,663,663,663,663,663,657,642,572,539,511,497,492,486,482,480,480,480,480,480,479,479,479,479,479,479,479,479,479,479,476,474,469,467,454,437,408,372,351,343,341,339,338,337,336,341,349,358,368,378,379,374,371,371,371,372,372,372,372,366,366,366,366,360,335,320,310,308,308,308,308,303,291,277,244,224,205,187,174,160,159,159,159,159,165,187,219,278,413,492,514,544,560,560,520,498,480,473,471,465,460,453,449,445,436,430,425,422,422,422,420,413,384,347,339,336,333,332,332,332,329,318,301,267,249,231,215,209,207,216,241,278,325,366,440,469,489,505,516,524,524,524,524,520,507,501,495,491,489,489,489,488,485,479,457,441,422,397,373,323,294,285,279,272,253,243,233,228,226,226,225,223,222,220,211,207,204,201,197,188,182,180,180,180,180,180,180,180,180,182,182,182,182,183,183,183,186,190,193,200,206,212,217,222,226,227,228,228,229,230,235,236,238,238,238,238,236,233,230,217,206,196,188,183,181,181,181,181,181,179,178,177,177,177,177,177,177,177,177,177,178,178,179,179,180,180,180,180,180,180,180,180,180,180,179,177,176,176,176,175,175,175,174,174,170,167,164,161,160,159,159,159,159,158,154,142,129,119,106,92],"timestamp_mouse":[16,35,54,75,95,115,135,154,175,196,216,235,254,274,295,315,336,356,375,394,415,434,455,476,495,514,536,555,576,594,616,636,655,675,695,716,736,754,776,795,814,835,854,875,895,915,936,954,974,995,1015,1034,1055,1074,1095,1114,1135,1155,1174,1194,1214,1235,1255,1274,1294,1314,1334,1356,1374,1394,1415,1435,1455,1474,1494,1514,1535,1555,1574,1595,1616,1636,1655,1676,1695,1714,1735,1756,1774,1794,1816,1836,1856,1874,1895,1916,1934,1956,1974,1995,2015,2035,2056,2075,2094,2115,2136,2155,2175,2196,2214,2235,2255,2274,2294,2315,2336,2355,2375,2395,2415,2434,2455,2475,2495,2515,2535,2556,2574,2596,2615,2635,2655,2675,2695,2716,2735,2756,2782,2794,2815,2835,2856,2874,2896,2916,2935,2956,2975,2995,3015,3034,3056,3075,3095,3115,3136,3155,3174,3194,3214,3234,3256,3274,3294,3314,3334,3356,3376,3395,3415,3436,3456,3475,3496,3515,3535,3555,3574,3594,3615,3634,3656,3674,3695,3715,3736,3756,3775,3795,3815,3835,3855,3875,3896,3915,3934,3955,3974,3995,4016,4036,4054,4074,4095,4116,4136,4155,4175,4194,4215,4236,4255,4274,4295,4315,4334,4354,4374,4395,4414,4434,4454,4475,4495,4515,4536,4555,4575,4594,4615,4636,4655,4675,4696,4715,4734,4756,4774,4795,4815,4836,4855,4875,4895,4916,4934,4954,4975,4995,5014,5034,5055,5075,5096,5115,5135,5157,5175,5194,5215,5235,5254,5274,5296,5315,5334,5354,5374,5395,5414,5434,5454,5475,5495,5515,5534,5555,5574,5596,5615,5635,5656,5674,5694,5715,5734,5755,5775,5795,5815,5835,5856,5874,5894,5915,5935,5955,5974,5995,6015,6036,6055,6076,6096,6116,6135,6155,6174,6194,6214,6235,6256,6276,6295,6316,6336,6355,6374,6394,6416,6435,6456,6475,6496,6515,6535,6555,6574,6595,6614,6635,6656,6674,6695,6715,6736,6755,6775,6795,6816,6835,6856,6875,6895,6915,6936,6956,6975,6995,7015,7036,7055,7076,7096,7115,7135,7155,7174,7194,7215,7236,7256,7275,7296,7316,7336,7355,7375,7394,7414,7434,7456,7475,7494,7515,7536,7555,7574,7594,7614,7636,7656,7675,7695,7714,7735,7756,7774,7796,7815,7836,7856,7875,7895,7914,7934,7956,7975,7995,8015,8035,8056,8075,8095,8115,8136,8155,8175,8195,8215,8235,8256,8275,8294,8316,8336,8356,8375,8395,8414,8434,8456,8475,8496,8516,8535,8555,8574,8596,8615,8635,8656,8675,8696,8715,8736,8755,8775,8795,8816,8835,8855,8875,8894,8914,8935,8955,8975],"xSR":741.5,"ySR":469.95,"xT1":424.9,"yT1":0,"xT2":1058.1,"yT2":0,"toosoon":0,"cond_shown":"equaldotanddens","ratio_trial":900,"smaller_num":"18","larger_num":"20","correct_side":1,"subjID":"Danielcobos9","gender":"0","age":"9","school":"4"},{"start_time":1552328065835,"click_time":1552328067040,"finger_time":1552328066699,"fix_duration":1233.8658054069192,"trial":12,"RT":864,"MT":341,"sideResp":2,"stimulus":"img/750/equaldotsize/R/12_Ratio_750_L_3_R_4.png","xmouse":[760,760,760,760,760,760,760,760,760,760,760,760,760,760,760,760,760,760,760,760,760,760,759,759,759,759,759,759,759,759,759,759,759,759,759,759,759,759,759,759,764,779,793,820,842,868,893,911,926,928,928,929,933,952,964,973,980,987,1010,1044,1068],"ymouse":[505,505,505,505,505,505,505,505,505,505,505,505,505,505,505,505,505,505,505,505,505,505,505,505,505,505,505,505,505,505,505,505,505,505,505,505,505,505,505,505,505,501,490,445,405,362,318,275,237,230,228,227,220,195,176,159,147,139,111,74,56],"timestamp_mouse":[10,32,46,65,85,106,125,145,164,184,205,225,244,266,285,305,326,345,364,385,405,425,445,466,486,505,525,544,566,586,605,625,644,666,686,705,725,745,764,785,804,824,845,864,884,904,924,945,965,985,1004,1025,1044,1065,1084,1105,1124,1146,1165,1186,1205],"xSR":741.5,"ySR":469.95,"xT1":424.9,"yT1":0,"xT2":1058.1,"yT2":0,"toosoon":0,"cond_shown":"equaldotsize","ratio_trial":750,"smaller_num":"3","larger_num":"4","correct_side":2,"subjID":"Danielcobos9","gender":"0","age":"9","school":"4"},{"start_time":1552328067892,"click_time":1552328069281,"finger_time":1552328068800,"fix_duration":250,"trial":13,"RT":908,"MT":481,"sideResp":2,"stimulus":"img/750/equaldotanddens/R/11_Ratio_750_L_12_R_16.png","xmouse":[788,788,788,787,787,787,787,787,787,787,787,787,786,786,786,786,786,786,786,786,786,786,786,786,786,786,786,786,786,786,786,786,786,786,786,786,786,786,786,786,786,786,788,793,812,851,875,904,930,954,973,976,979,984,996,1000,1001,1001,1002,1002,1002,1003,1007,1013,1024,1042,1048,1051,1056,1060],"ymouse":[515,515,515,516,516,516,516,516,516,516,516,516,516,516,516,516,516,516,516,516,516,516,516,516,516,516,516,516,516,516,516,516,516,516,516,516,516,516,516,516,516,516,514,509,490,454,423,381,341,274,191,176,163,148,121,96,91,88,88,88,88,87,84,82,75,63,60,59,57,57],"timestamp_mouse":[17,34,48,68,87,108,128,147,168,188,208,228,248,268,289,308,328,347,369,388,407,429,447,469,487,507,529,547,567,588,608,628,649,668,689,707,728,749,769,787,807,829,847,867,889,907,929,949,969,989,1008,1027,1047,1067,1088,1108,1127,1148,1169,1188,1208,1227,1247,1267,1288,1309,1329,1348,1368,1389],"xSR":741.5,"ySR":469.95,"xT1":424.9,"yT1":0,"xT2":1058.1,"yT2":0,"toosoon":0,"cond_shown":"equaldotanddens","ratio_trial":750,"smaller_num":"12","larger_num":"16","correct_side":2,"subjID":"Danielcobos9","gender":"0","age":"9","school":"4"},{"start_time":1552328071352,"click_time":1552328072360,"finger_time":1552328072161,"fix_duration":1150.1712962998645,"trial":14,"RT":809,"MT":199,"sideResp":2,"stimulus":"img/500/equaldotsize/R/2_Ratio_500_L_3_R_6.png","xmouse":[800,800,800,800,800,800,800,800,800,800,800,800,800,800,800,800,800,800,800,800,800,800,800,800,800,800,800,800,800,800,800,800,800,800,800,800,800,800,807,822,853,884,911,959,983,1006,1020,1031,1048,1057,1069],"ymouse":[527,527,527,527,527,527,527,527,527,527,527,527,527,527,527,527,527,527,527,527,527,527,527,527,527,527,527,527,527,527,527,527,527,527,527,527,527,525,516,500,458,416,382,317,277,233,200,174,135,116,89],"timestamp_mouse":[9,35,49,68,88,107,128,148,169,187,207,229,249,267,289,308,328,347,369,387,407,429,448,467,487,508,528,549,569,588,608,628,648,669,689,709,727,747,767,788,809,828,849,868,888,908,927,947,967,989,1008],"xSR":741.5,"ySR":469.95,"xT1":424.9,"yT1":0,"xT2":1058.1,"yT2":0,"toosoon":0,"cond_shown":"equaldotsize","ratio_trial":500,"smaller_num":"3","larger_num":"6","correct_side":2,"subjID":"Danielcobos9","gender":"0","age":"9","school":"4"},{"start_time":1552328073735,"click_time":1552328075220,"finger_time":1552328074419,"fix_duration":531.4737479272454,"trial":15,"RT":684,"MT":801,"sideResp":1,"stimulus":"img/250/equaldotanddens/L/7_Ratio_250_L_8_R_2.png","xmouse":[777,777,777,777,777,777,777,777,777,777,777,777,777,777,777,777,777,777,777,777,777,777,777,777,777,777,777,777,777,777,777,777,777,777,762,744,727,715,708,700,700,700,700,699,693,689,684,677,665,639,629,617,606,597,586,582,579,575,573,565,564,564,564,564,556,552,548,548,547,544,542,540,535,526,520],"ymouse":[530,530,530,530,530,530,530,530,530,530,530,530,530,530,530,530,530,530,530,530,530,530,530,530,530,530,530,530,530,530,529,522,505,479,384,332,291,268,254,244,243,243,242,239,231,228,225,220,212,185,174,159,145,129,103,95,86,78,73,62,61,61,61,61,61,60,59,59,59,59,59,59,58,56,55],"timestamp_mouse":[12,30,44,65,86,106,125,145,166,186,205,225,245,264,285,305,325,346,364,386,404,425,445,464,486,505,524,545,565,586,605,624,645,666,684,706,726,745,766,784,805,824,845,865,885,904,924,946,966,985,1005,1026,1045,1066,1084,1105,1125,1145,1165,1184,1205,1225,1245,1264,1285,1305,1325,1345,1365,1385,1405,1426,1446,1464,1485],"xSR":741.5,"ySR":469.95,"xT1":424.9,"yT1":0,"xT2":1058.1,"yT2":0,"toosoon":0,"cond_shown":"equaldotanddens","ratio_trial":250,"smaller_num":"2","larger_num":"8","correct_side":1,"subjID":"Danielcobos9","gender":"0","age":"9","school":"4"},{"start_time":1552328076372,"click_time":1552328077239,"finger_time":1552328077001,"fix_duration":250,"trial":16,"RT":629,"MT":238,"sideResp":2,"stimulus":"img/250/equaldotanddens/R/9_Ratio_250_L_3_R_12.png","xmouse":[783,783,783,783,783,783,783,783,783,783,783,783,783,783,783,783,783,783,783,783,783,783,783,783,783,783,784,787,791,798,812,833,912,960,1007,1040,1055,1063,1067,1069,1074,1080,1092,1098],"ymouse":[520,520,520,520,520,520,520,520,520,520,520,520,520,520,520,520,520,520,520,520,520,520,520,520,520,520,520,517,512,502,487,463,367,309,255,219,199,177,170,164,153,140,110,97],"timestamp_mouse":[12,33,48,68,87,107,128,148,169,187,208,227,247,269,287,307,328,349,369,389,409,428,447,468,489,508,528,548,568,588,608,629,648,667,688,707,727,747,768,788,809,827,848,867],"xSR":741.5,"ySR":469.95,"xT1":424.9,"yT1":0,"xT2":1058.1,"yT2":0,"toosoon":0,"cond_shown":"equaldotanddens","ratio_trial":250,"smaller_num":"3","larger_num":"12","correct_side":2,"subjID":"Danielcobos9","gender":"0","age":"9","school":"4"},{"start_time":1552328078809,"click_time":1552328080540,"finger_time":1552328079720,"fix_duration":866.563953094092,"trial":17,"RT":911,"MT":820,"sideResp":1,"stimulus":"img/900/equaldotanddens/L/8_Ratio_900_L_20_R_18.png","xmouse":[760,760,760,760,760,760,760,760,760,760,760,760,760,760,760,760,760,760,760,760,760,760,760,760,760,760,760,760,760,760,760,760,760,760,760,760,760,760,760,765,766,766,766,766,765,754,736,696,630,548,448,288,278,278,278,278,279,282,285,290,295,305,309,313,320,325,334,340,344,347,349,352,356,362,369,374,374,374,376,376,376,381,387,388,398,421,430],"ymouse":[519,519,519,519,519,519,519,519,519,519,519,519,519,519,519,519,519,519,519,519,519,519,519,519,519,519,519,519,519,519,519,519,519,519,519,519,519,517,513,503,485,483,483,483,482,466,435,375,302,226,159,92,89,89,89,89,87,84,80,76,71,59,55,53,49,47,45,44,44,44,44,44,44,44,44,44,44,44,45,45,45,45,46,46,50,58,62],"timestamp_mouse":[12,39,51,70,91,110,131,151,171,190,210,231,251,272,291,312,331,350,371,392,411,431,451,472,491,510,531,552,571,591,611,631,652,672,692,711,730,750,771,790,812,831,850,871,892,911,931,951,970,990,1010,1030,1052,1072,1090,1112,1131,1151,1171,1192,1212,1230,1251,1270,1290,1310,1331,1351,1372,1391,1410,1430,1451,1472,1491,1511,1531,1552,1571,1590,1610,1630,1650,1670,1692,1712,1731],"xSR":741.5,"ySR":469.95,"xT1":424.9,"yT1":0,"xT2":1058.1,"yT2":0,"toosoon":0,"cond_shown":"equaldotanddens","ratio_trial":900,"smaller_num":"18","larger_num":"20","correct_side":1,"subjID":"Danielcobos9","gender":"0","age":"9","school":"4"},{"start_time":1552328082141,"click_time":1552328084161,"finger_time":1552328083121,"fix_duration":601.2460985155136,"trial":18,"RT":980,"MT":1040,"sideResp":2,"stimulus":"img/750/equaldotsize/R/3_Ratio_750_L_15_R_20.png","xmouse":[786,786,787,788,788,788,788,788,788,788,788,788,788,788,788,788,788,788,788,788,788,788,788,788,788,788,788,788,788,788,788,788,788,788,788,788,788,788,792,802,810,820,823,824,824,824,824,823,827,829,829,829,827,821,811,804,791,774,751,709,698,696,695,695,697,699,699,699,701,707,708,711,713,713,715,715,717,720,722,738,750,759,766,777,874,982,1021,1041,1052,1068,1076,1084,1091,1099,1108,1111,1115,1115,1115,1115,1115],"ymouse":[516,517,517,517,517,517,517,517,517,517,517,517,517,517,517,517,517,517,517,517,517,517,517,517,517,517,517,517,517,517,517,517,517,517,517,517,517,517,517,514,507,498,493,489,488,488,488,488,450,422,418,418,417,422,444,458,468,470,474,489,497,497,498,498,496,495,495,495,505,546,562,570,572,572,589,626,650,657,657,616,573,540,518,497,418,367,354,351,348,332,318,300,283,266,234,214,187,158,133,100,85],"timestamp_mouse":[27,38,60,80,99,118,140,160,179,199,219,240,259,278,299,319,340,358,380,400,418,438,459,480,498,519,539,558,578,600,619,638,660,679,699,719,739,759,778,798,819,838,858,879,900,919,939,958,980,998,1018,1039,1058,1079,1098,1119,1139,1159,1179,1199,1219,1239,1260,1279,1299,1319,1338,1358,1379,1398,1420,1439,1460,1480,1498,1518,1538,1560,1580,1599,1619,1639,1660,1678,1698,1720,1739,1759,1779,1798,1820,1840,1858,1878,1899,1919,1939,1959,1980,1998,2020],"xSR":741.5,"ySR":469.95,"xT1":424.9,"yT1":0,"xT2":1058.1,"yT2":0,"toosoon":0,"cond_shown":"equaldotsize","ratio_trial":750,"smaller_num":"15","larger_num":"20","correct_side":2,"subjID":"Danielcobos9","gender":"0","age":"9","school":"4"},{"start_time":1552328085787,"click_time":1552328086721,"finger_time":1552328086460,"fix_duration":605.7188935306496,"trial":19,"RT":673,"MT":261,"sideResp":1,"stimulus":"img/500/equaldotanddens/L/8_Ratio_500_L_8_R_4.png","xmouse":[812,812,812,812,812,812,812,812,812,812,812,812,812,812,812,812,812,812,812,812,812,812,812,812,812,812,812,812,812,812,811,811,811,802,789,769,739,676,642,608,585,569,552,548,540,528,513],"ymouse":[530,530,530,530,530,530,530,530,530,530,530,530,530,530,530,530,530,530,530,530,530,530,530,530,530,530,530,530,530,530,526,522,509,453,411,363,310,215,172,134,105,88,72,68,61,46,31],"timestamp_mouse":[14,32,53,74,93,112,134,154,174,193,212,232,254,274,293,313,334,354,373,393,412,432,454,473,492,514,533,553,572,593,613,633,652,673,693,714,732,752,772,792,813,834,853,873,893,913,934],"xSR":741.5,"ySR":469.95,"xT1":424.9,"yT1":0,"xT2":1058.1,"yT2":0,"toosoon":0,"cond_shown":"equaldotanddens","ratio_trial":500,"smaller_num":"4","larger_num":"8","correct_side":1,"subjID":"Danielcobos9","gender":"0","age":"9","school":"4"},{"start_time":1552328090281,"click_time":1552328091359,"finger_time":1552328090959,"fix_duration":1378.1346252958692,"trial":20,"RT":678,"MT":400,"sideResp":1,"stimulus":"img/250/equaldotanddens/L/1_Ratio_250_L_8_R_2.png","xmouse":[800,800,800,800,800,800,800,800,800,800,800,800,800,800,800,800,800,800,800,800,800,800,800,800,800,800,800,800,800,800,800,800,801,802,792,768,752,739,729,718,717,715,707,694,649,627,609,593,581,564,557,550,539,526,509],"ymouse":[538,538,538,538,538,538,538,538,538,538,538,538,538,538,538,538,538,538,538,538,538,538,538,538,538,538,538,538,538,538,538,538,528,519,415,328,295,273,259,246,246,246,244,239,211,193,177,160,145,122,113,102,87,73,46],"timestamp_mouse":[1,19,38,58,79,100,119,139,160,179,199,220,238,260,280,299,318,339,359,379,399,420,438,460,480,500,518,539,559,580,601,620,638,660,678,699,719,738,758,778,800,819,838,860,879,899,919,938,958,978,998,1018,1039,1059,1078],"xSR":741.5,"ySR":469.95,"xT1":424.9,"yT1":0,"xT2":1058.1,"yT2":0,"toosoon":0,"cond_shown":"equaldotanddens","ratio_trial":250,"smaller_num":"2","larger_num":"8","correct_side":1,"subjID":"Danielcobos9","gender":"0","age":"9","school":"4"},{"start_time":1552328092563,"click_time":1552328094821,"finger_time":1552328093740,"fix_duration":682.2939159678488,"trial":21,"RT":1177,"MT":1081,"sideResp":2,"stimulus":"img/900/equaldotanddens/R/14_Ratio_900_L_18_R_20.png","xmouse":[801,800,800,800,800,800,800,800,800,800,800,800,800,800,800,800,800,800,800,800,800,800,799,799,799,799,799,799,799,799,799,799,799,799,799,799,799,799,799,799,799,799,799,799,799,799,799,799,799,799,799,799,799,800,803,807,811,817,825,854,871,883,895,907,930,939,947,956,967,982,986,991,998,1005,1012,1022,1027,1029,1032,1045,1051,1054,1057,1060,1065,1068,1071,1072,1073,1073,1073,1073,1073,1074,1075,1076,1076,1076,1077,1078,1079,1079,1079,1079,1079,1079,1080,1081,1081,1084,1085,1088,1094],"ymouse":[524,524,524,524,524,524,524,524,524,524,524,524,524,524,524,524,524,524,524,524,524,524,524,524,524,524,524,524,524,524,524,524,524,524,524,524,524,524,524,524,524,524,524,524,524,524,524,524,524,524,524,524,524,522,519,511,500,487,469,408,383,367,353,339,315,304,293,281,268,235,219,201,182,165,152,136,131,128,125,118,116,115,115,115,113,112,111,111,111,111,111,111,111,110,109,109,109,109,108,107,107,107,107,107,107,107,107,106,106,105,105,103,94],"timestamp_mouse":[20,42,58,78,98,116,136,157,176,197,216,237,256,278,296,316,337,358,377,396,418,436,457,477,498,517,537,558,577,598,617,637,670,677,697,718,738,757,777,797,818,837,856,876,896,916,938,956,976,996,1017,1038,1056,1076,1096,1116,1138,1158,1177,1197,1218,1237,1257,1277,1297,1316,1337,1358,1378,1397,1416,1436,1458,1476,1497,1517,1537,1558,1577,1597,1618,1637,1657,1677,1697,1718,1736,1757,1777,1797,1818,1837,1858,1878,1897,1917,1936,1957,1977,1997,2017,2038,2057,2078,2096,2116,2136,2158,2177,2197,2218,2237,2258],"xSR":741.5,"ySR":469.95,"xT1":424.9,"yT1":0,"xT2":1058.1,"yT2":0,"toosoon":0,"cond_shown":"equaldotanddens","ratio_trial":900,"smaller_num":"18","larger_num":"20","correct_side":2,"subjID":"Danielcobos9","gender":"0","age":"9","school":"4"},{"start_time":1552328096640,"click_time":1552328097841,"finger_time":1552328097379,"fix_duration":479.0939939026521,"trial":22,"RT":739,"MT":462,"sideResp":2,"stimulus":"img/500/equaldotsize/R/6_Ratio_500_L_9_R_18.png","xmouse":[799,799,799,799,799,799,799,799,799,799,799,799,799,799,799,799,799,799,799,799,799,799,799,799,799,799,799,799,799,799,799,799,799,802,811,820,828,855,879,905,934,981,997,1014,1032,1066,1090,1130,1137,1146,1154,1178,1186,1191,1192,1191,1191,1191,1191,1161,1153],"ymouse":[513,513,513,513,513,513,513,513,513,513,513,513,513,513,513,513,513,513,513,513,513,513,513,513,513,513,513,513,513,513,513,513,513,513,513,513,507,489,475,460,444,413,398,373,341,276,234,162,143,127,106,65,45,25,9,1,1,1,1,7,18],"timestamp_mouse":[2,20,40,60,79,100,120,141,159,180,200,220,239,260,281,301,320,341,360,380,401,420,441,461,481,501,520,541,561,580,600,621,641,660,681,700,719,739,759,779,799,822,839,859,879,900,921,941,961,980,1000,1022,1039,1060,1079,1099,1120,1139,1160,1180,1201],"xSR":741.5,"ySR":469.95,"xT1":424.9,"yT1":0,"xT2":1058.1,"yT2":0,"toosoon":0,"cond_shown":"equaldotsize","ratio_trial":500,"smaller_num":"9","larger_num":"18","correct_side":2,"subjID":"Danielcobos9","gender":"0","age":"9","school":"4"},{"start_time":1552328099145,"click_time":1552328100599,"finger_time":1552328100401,"fix_duration":523.092893618993,"trial":23,"RT":1256,"MT":198,"sideResp":2,"stimulus":"img/250/equaldotsize/R/8_Ratio_250_L_1_R_4.png","xmouse":[828,828,828,828,828,828,828,828,828,828,828,828,828,828,828,828,828,828,828,828,828,828,827,826,825,823,821,821,821,821,821,821,821,821,821,821,821,821,820,820,820,819,819,819,818,817,815,813,810,809,806,805,804,804,803,802,802,802,802,802,802,808,813,823,833,847,864,930,961,985,1010,1068,1088],"ymouse":[508,508,508,508,508,508,508,508,508,508,508,508,508,508,508,508,508,508,508,508,508,508,511,512,514,515,517,517,517,517,517,517,517,517,517,517,517,517,516,515,514,512,511,510,509,508,505,503,501,499,496,494,494,493,493,492,492,492,491,489,487,473,461,446,429,408,385,302,267,233,204,124,87],"timestamp_mouse":[16,35,55,74,94,115,136,156,174,196,215,236,256,276,296,314,335,356,375,396,416,435,455,474,495,516,535,555,576,596,616,635,654,676,695,714,736,755,775,795,814,834,855,874,896,914,934,955,974,994,1014,1036,1056,1074,1095,1115,1136,1154,1175,1194,1214,1235,1256,1275,1295,1315,1334,1355,1374,1394,1415,1435,1454],"xSR":741.5,"ySR":469.95,"xT1":424.9,"yT1":0,"xT2":1058.1,"yT2":0,"toosoon":0,"cond_shown":"equaldotsize","ratio_trial":250,"smaller_num":"1","larger_num":"4","correct_side":2,"subjID":"Danielcobos9","gender":"0","age":"9","school":"4"},{"start_time":1552328102018,"click_time":1552328103101,"finger_time":1552328102701,"fix_duration":535.0725044227313,"trial":24,"RT":683,"MT":400,"sideResp":1,"stimulus":"img/500/equaldotanddens/L/11_Ratio_500_L_12_R_6.png","xmouse":[797,797,797,797,797,797,797,797,797,797,797,797,797,797,797,797,797,797,797,797,797,797,797,797,797,797,797,797,797,797,797,796,795,785,778,767,756,734,682,655,632,611,596,582,580,578,576,571,555,548,540,532,522,514,496],"ymouse":[500,500,500,500,500,500,500,500,500,500,500,500,500,500,500,500,500,500,500,500,500,500,500,500,500,500,500,500,500,500,500,500,497,480,467,450,429,399,320,282,250,230,216,202,197,194,191,186,166,158,150,138,123,112,88],"timestamp_mouse":[14,23,42,63,82,102,122,141,162,182,202,223,243,262,281,301,322,343,361,381,402,421,441,462,482,503,522,541,562,583,601,621,643,662,683,702,722,743,761,781,802,822,842,861,883,901,922,943,962,983,1003,1022,1041,1062,1082],"xSR":741.5,"ySR":469.95,"xT1":424.9,"yT1":0,"xT2":1058.1,"yT2":0,"toosoon":0,"cond_shown":"equaldotanddens","ratio_trial":500,"smaller_num":"6","larger_num":"12","correct_side":1,"subjID":"Danielcobos9","gender":"0","age":"9","school":"4"},{"start_time":1552328104412,"click_time":1552328105119,"finger_time":1552328104999,"fix_duration":331.9892101551345,"trial":25,"RT":587,"MT":120,"sideResp":1,"stimulus":"img/250/equaldotanddens/L/7_Ratio_250_L_8_R_2.png","xmouse":[803,803,803,804,804,804,804,804,804,804,804,804,804,804,804,804,804,804,804,804,805,805,805,805,805,805,805,802,794,763,730,689,643,583,529,514],"ymouse":[512,512,512,513,513,513,513,513,513,513,513,513,513,513,513,513,513,513,513,513,513,513,513,512,509,506,500,490,473,414,362,300,242,168,110,95],"timestamp_mouse":[19,40,48,67,88,109,129,148,168,189,209,229,248,267,289,309,329,347,367,388,408,428,448,467,488,507,528,547,567,587,608,629,648,667,688,707],"xSR":741.5,"ySR":469.95,"xT1":424.9,"yT1":0,"xT2":1058.1,"yT2":0,"toosoon":0,"cond_shown":"equaldotanddens","ratio_trial":250,"smaller_num":"2","larger_num":"8","correct_side":1,"subjID":"Danielcobos9","gender":"0","age":"9","school":"4"},{"start_time":1552328108267,"click_time":1552328109860,"finger_time":1552328109299,"fix_duration":606.5807978262311,"trial":26,"RT":1032,"MT":561,"sideResp":2,"stimulus":"img/900/equaldotsize/R/13_Ratio_900_L_18_R_20.png","xmouse":[797,797,797,796,796,796,796,796,796,796,796,796,796,796,796,796,796,796,796,796,796,796,796,796,796,796,796,796,796,796,796,796,796,796,796,796,797,798,799,799,800,801,802,802,803,803,806,809,814,823,837,875,907,933,949,957,970,977,983,988,995,1008,1015,1019,1025,1028,1031,1034,1035,1037,1038,1044,1046,1051,1053,1054,1056,1057,1058,1059],"ymouse":[537,537,537,536,535,535,535,535,535,535,535,535,535,535,535,535,535,535,535,535,535,535,535,535,535,535,534,534,534,534,534,534,534,533,533,533,532,530,530,529,528,527,526,526,525,524,522,518,511,500,485,436,383,338,308,289,260,237,221,209,199,179,169,161,151,145,137,131,127,123,118,106,99,91,89,88,87,87,86,86],"timestamp_mouse":[14,34,53,72,93,113,132,154,174,193,212,234,254,272,293,313,333,354,373,392,414,433,454,472,493,513,532,553,574,593,612,634,654,673,694,712,733,753,774,793,812,833,853,872,894,913,932,953,973,993,1013,1032,1052,1073,1093,1113,1133,1153,1173,1193,1214,1233,1252,1273,1293,1313,1333,1353,1373,1392,1413,1432,1453,1474,1493,1514,1533,1553,1573,1593],"xSR":741.5,"ySR":469.95,"xT1":424.9,"yT1":0,"xT2":1058.1,"yT2":0,"toosoon":0,"cond_shown":"equaldotsize","ratio_trial":900,"smaller_num":"18","larger_num":"20","correct_side":2,"subjID":"Danielcobos9","gender":"0","age":"9","school":"4"},{"start_time":1552328112022,"click_time":1552328113801,"finger_time":1552328113061,"fix_duration":1261.0284759036429,"trial":27,"RT":1039,"MT":740,"sideResp":2,"stimulus":"img/900/equaldotsize/L/10_Ratio_900_L_20_R_18.png","xmouse":[771,771,771,771,771,771,771,771,771,771,771,771,771,771,771,771,771,771,771,771,771,771,771,771,771,771,771,771,771,771,771,771,771,771,771,771,771,771,771,771,771,771,771,771,771,771,775,779,792,826,840,853,864,876,894,903,905,909,923,926,929,931,934,942,947,952,958,968,979,986,991,1001,1013,1029,1073,1095,1099,1103,1104,1104,1104,1104,1104,1106,1106,1106,1108,1109,1113],"ymouse":[530,530,530,530,530,530,530,530,530,530,530,530,530,530,530,530,530,530,530,530,530,530,530,530,530,530,530,530,530,530,530,530,530,530,530,530,530,530,530,530,530,530,530,530,530,530,530,528,521,507,501,495,490,483,466,451,445,433,390,372,356,342,331,312,303,295,286,274,260,252,246,237,226,211,164,139,133,126,125,125,125,124,121,117,114,111,107,101,92],"timestamp_mouse":[22,38,57,78,98,118,138,158,178,198,218,238,258,278,298,318,338,358,379,398,418,438,458,478,498,519,538,558,577,599,619,639,658,678,699,718,738,758,778,797,819,839,859,878,898,918,938,959,977,998,1019,1039,1058,1078,1098,1118,1138,1158,1178,1198,1219,1239,1257,1278,1298,1318,1339,1357,1379,1398,1418,1437,1458,1478,1498,1518,1538,1558,1579,1597,1618,1638,1659,1679,1698,1719,1738,1759,1778],"xSR":741.5,"ySR":469.95,"xT1":424.9,"yT1":0,"xT2":1058.1,"yT2":0,"toosoon":0,"cond_shown":"equaldotsize","ratio_trial":900,"smaller_num":"18","larger_num":"20","correct_side":1,"subjID":"Danielcobos9","gender":"0","age":"9","school":"4"},{"start_time":1552328126314,"click_time":1552328128240,"finger_time":1552328127300,"fix_duration":313.09695883866107,"trial":28,"RT":986,"MT":940,"sideResp":2,"stimulus":"img/250/randomdotsizeEA/L/15_Ratio_250_L_12_R_3.png","xmouse":[796,796,796,796,796,796,796,796,796,796,796,796,796,796,796,796,796,796,796,796,796,796,796,796,796,796,796,796,796,796,796,796,796,796,796,796,796,796,796,796,796,796,796,796,796,796,798,808,837,912,1013,1177,1252,1326,1391,1437,1459,1459,1458,1456,1454,1453,1453,1453,1453,1453,1453,1405,1386,1368,1351,1323,1306,1306,1306,1306,1306,1306,1206,1205,1204,1203,1202,1202,1201,1200,1199,1199,1199,1199,1199,1199,1199,1197,1186,1172,1140],"ymouse":[533,533,533,533,533,533,533,533,533,533,533,533,533,533,533,533,533,533,533,533,533,533,533,533,533,533,533,533,533,533,533,533,533,533,533,533,533,533,533,533,533,533,533,533,533,532,524,514,504,484,467,438,408,367,310,230,91,56,42,29,14,2,2,2,2,2,2,1,4,4,4,3,0,0,0,0,0,0,1,2,2,3,5,5,6,8,10,10,10,10,10,10,11,11,13,16,26],"timestamp_mouse":[12,36,46,66,87,107,127,146,166,186,206,226,246,267,286,306,325,347,366,386,407,426,446,466,487,506,527,546,566,587,606,626,646,666,687,706,726,747,767,786,806,827,846,867,886,906,926,946,966,986,1007,1026,1047,1066,1086,1106,1126,1147,1166,1186,1207,1226,1245,1267,1287,1306,1327,1347,1365,1387,1407,1426,1447,1467,1486,1507,1526,1547,1566,1586,1606,1626,1647,1667,1686,1706,1726,1747,1766,1787,1806,1826,1845,1865,1886,1907,1926],"xSR":741.5,"ySR":469.95,"xT1":424.9,"yT1":0,"xT2":1058.1,"yT2":0,"toosoon":0,"cond_shown":"randomdotsizeEA","ratio_trial":250,"smaller_num":"3","larger_num":"12","correct_side":1,"subjID":"Danielcobos9","gender":"0","age":"9","school":"4"},{"start_time":1552328132161,"click_time":1552328133580,"finger_time":1552328132760,"fix_duration":997.3667051351159,"trial":29,"RT":599,"MT":820,"sideResp":2,"stimulus":"img/750/equaldotanddens/R/4_Ratio_750_L_15_R_20.png","xmouse":[779,779,779,778,778,778,778,778,778,778,778,778,778,778,778,778,778,778,778,778,778,778,778,778,778,778,778,778,781,783,801,823,827,841,852,866,871,873,877,880,895,902,906,910,914,915,918,925,929,935,942,945,955,966,979,997,1002,1005,1009,1012,1017,1019,1019,1019,1019,1019,1019,1020,1024,1043,1058,1073],"ymouse":[518,518,518,518,518,518,518,518,518,518,518,518,518,518,518,518,517,517,517,517,516,516,516,515,514,512,510,508,503,496,469,442,439,434,434,427,415,399,377,352,246,205,172,156,131,122,117,110,106,101,98,97,93,90,85,78,74,72,70,67,64,64,64,64,64,64,64,64,64,66,69,71],"timestamp_mouse":[5,25,40,59,79,100,119,139,160,180,200,219,240,260,280,299,319,340,359,380,399,419,440,460,479,500,520,539,560,579,599,620,639,659,680,699,719,738,759,779,799,818,839,859,880,899,920,939,959,979,998,1019,1039,1058,1078,1099,1119,1140,1159,1178,1199,1219,1238,1259,1280,1300,1319,1339,1359,1381,1399,1419],"xSR":741.5,"ySR":469.95,"xT1":424.9,"yT1":0,"xT2":1058.1,"yT2":0,"toosoon":0,"cond_shown":"equaldotanddens","ratio_trial":750,"smaller_num":"15","larger_num":"20","correct_side":2,"subjID":"Danielcobos9","gender":"0","age":"9","school":"4"},{"start_time":1552328136012,"click_time":1552328137621,"finger_time":1552328136760,"fix_duration":1030.9096242296303,"trial":30,"RT":748,"MT":861,"sideResp":1,"stimulus":"img/500/randomdotsizeEA/L/5_Ratio_500_L_4_R_2.png","xmouse":[773,773,776,777,778,778,778,778,778,778,778,778,778,778,778,778,778,778,778,778,778,778,778,778,778,778,778,778,778,778,779,779,779,779,778,775,772,750,737,721,699,672,648,612,604,599,598,598,598,598,596,594,585,579,572,566,559,533,527,525,525,525,525,525,525,525,525,525,525,525,525,525,525,525,525,525,525,525,525,525,524],"ymouse":[528,527,521,519,518,518,518,518,518,518,518,518,518,518,518,518,518,518,518,518,518,518,518,518,518,518,518,518,518,517,516,513,508,502,496,486,473,421,384,337,274,214,162,104,93,88,87,87,87,87,87,87,87,87,86,85,84,72,71,70,70,70,70,70,70,70,70,70,70,70,70,70,70,70,70,70,70,70,70,70,70],"timestamp_mouse":[12,31,49,68,88,108,128,149,168,189,209,229,248,269,287,308,329,348,369,387,409,429,449,468,488,509,528,548,567,588,608,629,648,669,688,708,728,748,768,788,809,827,848,868,889,909,929,949,968,988,1008,1029,1049,1067,1088,1109,1128,1148,1168,1187,1209,1229,1249,1269,1289,1308,1328,1348,1369,1388,1409,1428,1448,1468,1488,1508,1529,1549,1568,1588,1609],"xSR":741.5,"ySR":469.95,"xT1":424.9,"yT1":0,"xT2":1058.1,"yT2":0,"toosoon":0,"cond_shown":"randomdotsizeEA","ratio_trial":500,"smaller_num":"2","larger_num":"4","correct_side":1,"subjID":"Danielcobos9","gender":"0","age":"9","school":"4"},{"start_time":1552328140233,"click_time":1552328141180,"finger_time":1552328140880,"fix_duration":1371.2054973649201,"trial":31,"RT":647,"MT":300,"sideResp":2,"stimulus":"img/750/equaldotsize/R/7_Ratio_750_L_3_R_4.png","xmouse":[810,810,810,810,810,810,810,810,810,810,810,810,810,810,810,810,810,810,810,810,810,810,810,810,810,811,813,813,815,818,822,836,846,865,879,894,923,944,956,968,978,985,1004,1011,1020,1026,1049,1075],"ymouse":[503,503,503,503,503,503,503,503,503,503,503,503,503,503,503,503,503,503,503,503,503,503,503,503,503,503,502,502,500,498,494,483,474,453,435,418,372,337,317,303,288,275,243,230,208,192,113,68],"timestamp_mouse":[7,27,47,67,88,108,127,148,168,188,206,228,247,267,287,307,328,347,367,388,408,428,447,468,488,508,527,548,568,587,607,628,647,669,688,707,729,746,767,788,808,828,848,868,887,907,928,947],"xSR":741.5,"ySR":469.95,"xT1":424.9,"yT1":0,"xT2":1058.1,"yT2":0,"toosoon":0,"cond_shown":"equaldotsize","ratio_trial":750,"smaller_num":"3","larger_num":"4","correct_side":2,"subjID":"Danielcobos9","gender":"0","age":"9","school":"4"},{"start_time":1552328142485,"click_time":1552328143600,"finger_time":1552328142841,"fix_duration":363.8356597599045,"trial":32,"RT":356,"MT":759,"sideResp":2,"stimulus":"img/900/randomdotsizeEA/R/7_Ratio_900_L_9_R_10.png","xmouse":[805,805,805,805,803,802,802,802,800,799,799,798,798,797,796,794,792,791,791,791,791,791,791,791,792,792,793,794,794,795,796,797,800,807,826,837,849,856,860,863,866,872,878,886,905,924,950,973,1009,1072,1110,1119,1120,1120,1118,1116],"ymouse":[506,506,506,506,506,506,504,503,498,495,493,489,486,482,478,475,473,469,466,465,465,464,464,464,463,462,460,460,459,455,452,448,444,432,399,382,368,360,355,350,346,340,336,331,313,298,282,268,240,179,134,121,113,109,102,98],"timestamp_mouse":[14,38,55,75,96,115,135,156,176,195,215,235,255,276,295,316,335,356,376,395,416,436,455,475,494,515,536,554,576,595,616,635,655,675,695,716,735,755,775,795,815,835,854,875,895,915,935,955,976,994,1014,1035,1055,1075,1094,1115],"xSR":741.5,"ySR":469.95,"xT1":424.9,"yT1":0,"xT2":1058.1,"yT2":0,"toosoon":0,"cond_shown":"randomdotsizeEA","ratio_trial":900,"smaller_num":"9","larger_num":"10","correct_side":2,"subjID":"Danielcobos9","gender":"0","age":"9","school":"4"},{"start_time":1552328145414,"click_time":1552328146800,"finger_time":1552328146141,"fix_duration":572.6161675846439,"trial":33,"RT":727,"MT":659,"sideResp":2,"stimulus":"img/500/equaldotsize/R/2_Ratio_500_L_3_R_6.png","xmouse":[794,794,794,793,793,792,790,790,790,790,790,790,790,790,790,790,790,790,790,790,790,790,790,790,790,790,790,790,790,789,788,788,788,792,799,807,821,841,917,964,1001,1021,1033,1040,1041,1043,1045,1047,1056,1058,1061,1063,1067,1073,1075,1078,1081,1086,1092,1094,1095,1097,1097,1097,1098,1099,1102,1104,1107,1107],"ymouse":[526,526,526,527,527,528,529,529,530,530,530,530,530,530,530,530,530,530,530,530,530,530,530,530,530,530,530,530,530,530,529,527,521,498,485,473,453,427,345,311,289,276,265,252,250,244,240,235,218,211,201,194,186,172,167,163,157,151,138,134,129,127,127,127,124,119,115,110,101,98],"timestamp_mouse":[11,29,47,66,85,107,127,146,166,187,207,227,246,265,287,306,326,346,366,386,406,426,446,466,486,506,527,546,566,585,606,627,646,666,686,705,727,746,766,785,806,827,845,866,886,906,926,947,966,985,1006,1026,1047,1067,1086,1106,1126,1145,1166,1186,1206,1226,1246,1267,1286,1306,1326,1347,1367,1386],"xSR":741.5,"ySR":469.95,"xT1":424.9,"yT1":0,"xT2":1058.1,"yT2":0,"toosoon":0,"cond_shown":"equaldotsize","ratio_trial":500,"smaller_num":"3","larger_num":"6","correct_side":2,"subjID":"Danielcobos9","gender":"0","age":"9","school":"4"},{"start_time":1552328150181,"click_time":1552328151140,"finger_time":1552328150941,"fix_duration":1077.8126526305132,"trial":34,"RT":760,"MT":199,"sideResp":2,"stimulus":"img/750/equaldotsize/R/5_Ratio_750_L_15_R_20.png","xmouse":[787,787,788,789,789,789,789,789,790,791,791,792,792,792,792,792,792,792,792,792,792,792,792,793,793,793,794,794,794,794,794,794,794,795,796,801,809,828,871,923,950,956,964,977,1000,1028,1067,1071,1071],"ymouse":[540,540,540,540,540,539,539,539,539,539,539,538,538,538,538,538,538,538,538,538,538,538,538,538,538,538,537,537,537,537,537,535,534,534,532,523,517,511,499,484,478,475,467,453,418,358,184,115,79],"timestamp_mouse":[2,18,45,59,78,98,120,140,160,178,199,218,240,260,278,299,319,340,359,379,399,419,440,460,478,500,520,540,558,580,598,619,640,660,679,700,719,739,760,779,801,819,840,859,879,901,920,939,958],"xSR":741.5,"ySR":469.95,"xT1":424.9,"yT1":0,"xT2":1058.1,"yT2":0,"toosoon":0,"cond_shown":"equaldotsize","ratio_trial":750,"smaller_num":"15","larger_num":"20","correct_side":2,"subjID":"Danielcobos9","gender":"0","age":"9","school":"4"},{"start_time":1552328155226,"click_time":1552328156502,"finger_time":1552328155979,"fix_duration":1383.3262617183368,"trial":35,"RT":753,"MT":523,"sideResp":2,"stimulus":"img/250/equaldotanddens/R/12_Ratio_250_L_5_R_20.png","xmouse":[778,778,778,778,778,778,779,779,780,780,780,780,781,781,781,781,781,781,781,781,781,781,781,781,781,781,781,781,781,781,781,781,781,782,783,785,791,804,881,924,977,1036,1096,1183,1192,1192,1192,1192,1192,1192,1192,1192,1192,1192,1192,1192,1192,1192,1192,1181,1177,1171,1163,1150],"ymouse":[506,506,506,506,506,506,506,506,506,506,506,506,506,506,506,506,506,506,506,506,506,506,506,506,506,506,506,506,506,506,506,506,506,506,503,502,490,469,359,310,258,204,151,31,8,8,8,8,8,8,8,8,8,8,8,8,8,8,8,4,11,17,21,30],"timestamp_mouse":[14,35,55,74,94,113,134,154,173,195,215,234,254,275,295,317,334,354,373,395,413,435,455,474,495,514,534,555,573,594,615,634,654,674,694,714,734,753,774,794,814,834,854,876,893,914,935,955,974,995,1014,1034,1055,1076,1094,1114,1134,1154,1175,1195,1213,1234,1255,1275],"xSR":741.5,"ySR":469.95,"xT1":424.9,"yT1":0,"xT2":1058.1,"yT2":0,"toosoon":0,"cond_shown":"equaldotanddens","ratio_trial":250,"smaller_num":"5","larger_num":"20","correct_side":2,"subjID":"Danielcobos9","gender":"0","age":"9","school":"4"},{"start_time":1552328158490,"click_time":1552328159720,"finger_time":1552328159161,"fix_duration":1047.1471264006675,"trial":36,"RT":671,"MT":559,"sideResp":1,"stimulus":"img/250/equaldotsize/L/15_Ratio_250_L_12_R_3.png","xmouse":[781,781,781,781,781,781,781,781,781,781,781,781,781,781,781,781,781,781,781,781,781,781,781,781,781,781,781,781,781,781,781,783,783,767,742,694,674,661,654,650,648,645,643,642,642,641,638,632,625,616,608,591,577,569,558,549,540,540,540,539,533,514],"ymouse":[516,516,516,516,516,516,516,516,516,516,516,516,516,516,516,516,516,516,516,516,516,516,516,516,516,516,516,516,516,514,512,492,471,361,267,134,97,73,54,44,38,30,28,26,26,26,26,26,28,30,30,31,31,31,30,28,26,26,26,26,26,26],"timestamp_mouse":[13,36,50,70,91,110,130,151,170,191,210,230,251,271,289,310,330,350,371,391,410,431,450,470,491,511,530,551,571,591,610,631,650,671,690,712,730,750,770,791,810,830,850,870,890,910,930,950,970,990,1009,1029,1050,1070,1090,1110,1130,1150,1171,1190,1210,1230],"xSR":741.5,"ySR":469.95,"xT1":424.9,"yT1":0,"xT2":1058.1,"yT2":0,"toosoon":0,"cond_shown":"equaldotsize","ratio_trial":250,"smaller_num":"3","larger_num":"12","correct_side":1,"subjID":"Danielcobos9","gender":"0","age":"9","school":"4"},{"start_time":1552328161158,"click_time":1552328162160,"finger_time":1552328161819,"fix_duration":315.38547630328,"trial":37,"RT":661,"MT":341,"sideResp":1,"stimulus":"img/500/equaldotsize/L/8_Ratio_500_L_8_R_4.png","xmouse":[792,791,791,790,790,790,790,790,790,790,790,790,790,790,790,790,790,790,790,790,790,790,790,790,790,790,790,791,791,791,791,788,781,751,720,687,648,618,584,580,580,580,580,572,565,560,555,549,526,516,506],"ymouse":[515,520,520,524,524,524,524,524,524,524,524,524,524,524,524,524,524,524,524,524,524,524,524,524,523,523,522,522,521,519,517,511,499,458,413,353,291,235,178,172,172,172,170,159,152,148,145,140,117,105,93],"timestamp_mouse":[1,29,42,62,81,103,123,143,162,182,202,222,242,261,282,302,322,343,362,383,402,422,442,463,483,503,522,542,563,582,602,622,643,661,681,702,722,743,762,783,802,822,843,862,882,902,923,942,962,983,1002],"xSR":741.5,"ySR":469.95,"xT1":424.9,"yT1":0,"xT2":1058.1,"yT2":0,"toosoon":0,"cond_shown":"equaldotsize","ratio_trial":500,"smaller_num":"4","larger_num":"8","correct_side":1,"subjID":"Danielcobos9","gender":"0","age":"9","school":"4"},{"start_time":1552328163212,"click_time":1552328164382,"finger_time":1552328163841,"fix_duration":250,"trial":38,"RT":629,"MT":541,"sideResp":2,"stimulus":"img/900/equaldotanddens/R/3_Ratio_900_L_9_R_10.png","xmouse":[801,800,800,799,799,799,797,797,796,795,790,789,787,786,786,786,786,786,786,786,786,786,786,786,786,786,787,788,789,795,814,828,840,858,879,934,948,960,969,975,988,995,1003,1014,1025,1042,1044,1044,1044,1044,1044,1044,1044,1044,1044,1044,1051,1055,1059],"ymouse":[502,503,503,504,505,508,509,509,513,515,525,528,532,535,535,535,535,535,535,535,535,535,535,535,535,533,532,530,527,516,484,460,433,385,330,218,194,173,156,142,117,106,93,74,55,27,24,24,24,24,24,24,24,24,24,24,54,70,78],"timestamp_mouse":[13,34,48,69,89,108,128,149,168,187,208,228,248,267,289,308,328,348,368,387,407,429,449,468,488,508,529,548,568,588,608,629,648,668,689,708,728,748,769,788,808,829,848,867,889,909,929,949,968,989,1009,1029,1049,1069,1088,1108,1128,1148,1169],"xSR":741.5,"ySR":469.95,"xT1":424.9,"yT1":0,"xT2":1058.1,"yT2":0,"toosoon":0,"cond_shown":"equaldotanddens","ratio_trial":900,"smaller_num":"9","larger_num":"10","correct_side":2,"subjID":"Danielcobos9","gender":"0","age":"9","school":"4"},{"start_time":1552328166164,"click_time":1552328167501,"finger_time":1552328166920,"fix_duration":783.145603370771,"trial":39,"RT":756,"MT":581,"sideResp":2,"stimulus":"img/900/equaldotsize/L/10_Ratio_900_L_20_R_18.png","xmouse":[800,800,799,799,799,798,798,798,798,798,798,798,799,799,799,799,799,799,799,799,799,799,799,799,799,799,799,799,799,799,799,799,799,800,799,776,762,784,816,841,849,849,849,848,848,848,855,885,900,914,934,962,998,1053,1075,1117,1153,1211,1222,1222,1222,1222,1222,1222,1222,1222,1141],"ymouse":[546,546,546,546,546,545,545,545,545,544,544,543,541,540,540,540,540,540,540,540,540,540,540,540,540,540,539,538,538,538,537,535,534,532,531,521,505,446,404,373,356,351,351,351,351,351,329,278,269,265,262,257,252,237,222,178,129,30,3,3,3,3,3,3,3,3,27],"timestamp_mouse":[29,37,56,77,96,116,137,155,176,196,215,235,256,276,297,317,336,356,376,397,416,437,456,475,496,516,536,556,575,597,617,636,656,675,697,716,737,756,776,796,816,837,857,876,896,916,936,957,976,996,1017,1036,1055,1076,1096,1116,1136,1158,1176,1196,1215,1237,1257,1276,1296,1316,1337],"xSR":741.5,"ySR":469.95,"xT1":424.9,"yT1":0,"xT2":1058.1,"yT2":0,"toosoon":0,"cond_shown":"equaldotsize","ratio_trial":900,"smaller_num":"18","larger_num":"20","correct_side":1,"subjID":"Danielcobos9","gender":"0","age":"9","school":"4"},{"start_time":1552328170793,"click_time":1552328171580,"finger_time":1552328171440,"fix_duration":1151.6512051186726,"trial":40,"RT":647,"MT":140,"sideResp":2,"stimulus":"img/750/equaldotanddens/R/12_Ratio_750_L_3_R_4.png","xmouse":[782,782,782,782,782,782,782,782,782,782,782,782,782,782,782,782,782,782,782,782,782,782,782,782,782,782,782,782,782,782,782,789,916,964,999,1034,1060,1086,1091,1091],"ymouse":[525,525,525,525,525,525,525,525,525,525,525,525,525,525,525,525,525,525,525,525,525,525,525,525,525,525,525,525,525,525,524,519,449,407,364,313,246,136,108,86],"timestamp_mouse":[10,28,46,67,87,107,127,148,167,188,207,228,248,268,288,308,328,348,367,388,408,427,446,468,488,506,528,547,568,588,607,627,647,668,687,707,727,748,766,787],"xSR":741.5,"ySR":469.95,"xT1":424.9,"yT1":0,"xT2":1058.1,"yT2":0,"toosoon":0,"cond_shown":"equaldotanddens","ratio_trial":750,"smaller_num":"3","larger_num":"4","correct_side":2,"subjID":"Danielcobos9","gender":"0","age":"9","school":"4"},{"start_time":1552328172990,"click_time":1552328173921,"finger_time":1552328173581,"fix_duration":649.7015094652215,"trial":41,"RT":591,"MT":340,"sideResp":1,"stimulus":"img/250/equaldotsize/L/5_Ratio_250_L_24_R_6.png","xmouse":[795,795,795,795,795,795,795,795,795,795,795,795,795,795,795,795,795,795,795,795,795,795,795,795,795,796,796,788,778,761,737,706,607,574,555,540,530,512,501,487,474,460,439,433,428,426,426],"ymouse":[519,519,519,519,519,519,519,519,519,519,519,519,519,519,519,519,519,519,519,519,519,519,519,519,519,519,517,494,472,443,405,354,275,253,243,237,236,235,234,230,223,213,165,146,123,103,87],"timestamp_mouse":[13,30,50,71,90,111,131,150,171,191,210,231,250,271,291,310,330,350,371,390,411,431,450,470,490,510,530,550,570,591,610,631,651,670,690,711,731,750,770,790,810,831,851,870,891,910,931],"xSR":741.5,"ySR":469.95,"xT1":424.9,"yT1":0,"xT2":1058.1,"yT2":0,"toosoon":0,"cond_shown":"equaldotsize","ratio_trial":250,"smaller_num":"6","larger_num":"24","correct_side":1,"subjID":"Danielcobos9","gender":"0","age":"9","school":"4"},{"start_time":1552328175531,"click_time":1552328177541,"finger_time":1552328176541,"fix_duration":789.0882208759908,"trial":42,"RT":1010,"MT":1000,"sideResp":2,"stimulus":"img/900/randomdotsizeEA/R/5_Ratio_900_L_9_R_10.png","xmouse":[814,814,814,814,814,814,814,813,813,813,813,813,813,813,813,813,813,813,813,813,813,813,813,813,813,813,813,813,813,813,813,813,813,813,813,813,813,812,812,812,812,812,811,811,810,809,800,794,782,767,749,712,689,681,663,648,644,641,638,635,629,625,623,614,608,598,593,590,587,586,583,579,574,572,569,566,566,566,569,576,584,616,672,748,845,1096,1215,1289,1309,1313,1314,1315,1317,1317,1317,1317,1308,1289,1248,1178,1104],"ymouse":[525,525,525,525,525,525,525,526,526,526,526,526,526,526,526,526,526,526,526,526,526,526,526,526,526,526,526,526,526,526,526,526,526,526,525,522,521,520,520,518,517,514,512,510,509,507,500,497,490,480,466,428,403,397,383,366,355,349,341,336,325,316,311,296,286,271,264,259,255,252,247,236,229,225,222,218,217,213,211,208,204,199,199,199,199,215,231,241,243,240,235,222,214,208,203,198,188,173,144,102,59],"timestamp_mouse":[9,35,50,70,90,110,129,149,170,190,209,229,249,270,289,310,330,349,370,389,411,430,450,470,490,509,530,550,570,590,610,630,649,670,690,710,730,750,769,789,809,829,849,870,890,909,929,950,970,989,1009,1030,1049,1069,1089,1110,1129,1149,1170,1190,1211,1230,1249,1269,1290,1311,1329,1350,1369,1389,1410,1429,1450,1469,1490,1511,1529,1550,1570,1590,1610,1629,1650,1669,1690,1710,1729,1750,1770,1789,1809,1829,1849,1869,1889,1909,1929,1950,1970,1990,2010],"xSR":741.5,"ySR":469.95,"xT1":424.9,"yT1":0,"xT2":1058.1,"yT2":0,"toosoon":0,"cond_shown":"randomdotsizeEA","ratio_trial":900,"smaller_num":"9","larger_num":"10","correct_side":2,"subjID":"Danielcobos9","gender":"0","age":"9","school":"4"},{"start_time":1552328178901,"click_time":1552328179940,"finger_time":1552328179581,"fix_duration":476.21114067341466,"trial":43,"RT":680,"MT":359,"sideResp":2,"stimulus":"img/900/equaldotsize/R/3_Ratio_900_L_9_R_10.png","xmouse":[784,784,784,784,784,784,784,784,784,784,784,784,784,784,784,784,784,784,784,784,784,784,784,784,784,784,784,784,784,784,785,787,791,801,822,843,870,897,941,962,982,999,1013,1023,1033,1034,1035,1038,1051,1055,1059,1063,1068],"ymouse":[492,492,492,492,492,492,492,492,492,492,492,492,492,492,492,492,492,492,492,492,492,492,493,493,493,493,493,493,493,493,493,492,487,474,448,427,402,378,345,328,310,290,275,264,249,244,238,224,172,146,125,105,89],"timestamp_mouse":[10,19,40,60,79,99,119,139,159,180,200,220,239,259,279,300,319,339,361,380,399,419,440,460,479,499,520,539,559,580,600,619,640,659,680,699,719,740,760,779,800,820,840,859,879,899,919,940,959,979,999,1019,1039],"xSR":741.5,"ySR":469.95,"xT1":424.9,"yT1":0,"xT2":1058.1,"yT2":0,"toosoon":0,"cond_shown":"equaldotsize","ratio_trial":900,"smaller_num":"9","larger_num":"10","correct_side":2,"subjID":"Danielcobos9","gender":"0","age":"9","school":"4"},{"start_time":1552328181485,"click_time":1552328182561,"finger_time":1552328182160,"fix_duration":584.6533841661272,"trial":44,"RT":675,"MT":401,"sideResp":2,"stimulus":"img/900/randomdotsizeEA/R/3_Ratio_900_L_9_R_10.png","xmouse":[796,796,796,796,796,797,797,797,797,797,797,797,797,797,797,797,797,798,798,798,798,798,798,798,798,798,798,798,798,798,798,799,805,836,859,898,943,977,1014,1023,1026,1029,1032,1041,1047,1051,1055,1058,1059,1059,1059,1059,1061,1064],"ymouse":[512,512,512,512,512,511,510,510,510,510,510,510,510,510,510,510,510,509,508,508,508,508,508,508,508,508,508,508,508,508,508,504,491,442,411,359,296,249,181,164,155,148,143,128,119,115,109,106,103,103,103,103,101,99],"timestamp_mouse":[15,36,55,75,96,115,135,155,175,196,215,235,256,275,296,315,335,355,376,396,416,436,456,475,496,515,535,556,576,595,616,635,656,675,696,715,736,755,776,795,816,836,855,876,895,915,935,956,976,996,1016,1035,1055,1075],"xSR":741.5,"ySR":469.95,"xT1":424.9,"yT1":0,"xT2":1058.1,"yT2":0,"toosoon":0,"cond_shown":"randomdotsizeEA","ratio_trial":900,"smaller_num":"9","larger_num":"10","correct_side":2,"subjID":"Danielcobos9","gender":"0","age":"9","school":"4"},{"start_time":1552328184560,"click_time":1552328185741,"finger_time":1552328185361,"fix_duration":1277.468724545854,"trial":45,"RT":801,"MT":380,"sideResp":2,"stimulus":"img/750/equaldotanddens/R/15_Ratio_750_L_9_R_12.png","xmouse":[804,804,804,804,804,804,804,804,804,804,804,804,804,804,804,804,804,804,804,804,804,804,804,804,804,804,804,804,804,804,804,804,804,804,804,804,804,804,804,804,867,923,996,1061,1110,1156,1168,1178,1184,1184,1184,1184,1184,1184,1184,1184,1178,1173,1163,1155],"ymouse":[497,497,497,497,497,497,497,497,497,497,497,497,497,497,497,497,497,497,497,497,497,497,497,497,497,497,497,497,497,497,497,497,497,497,497,497,497,497,497,496,462,438,408,380,345,252,220,203,186,179,174,165,160,153,141,126,96,79,52,36],"timestamp_mouse":[16,34,41,60,80,101,120,140,160,180,201,220,240,260,281,301,320,341,361,381,401,420,441,460,480,501,521,542,560,580,601,621,641,661,680,701,720,740,760,781,801,820,840,861,880,902,920,940,960,980,1002,1020,1041,1060,1081,1100,1120,1140,1160,1181],"xSR":741.5,"ySR":469.95,"xT1":424.9,"yT1":0,"xT2":1058.1,"yT2":0,"toosoon":0,"cond_shown":"equaldotanddens","ratio_trial":750,"smaller_num":"9","larger_num":"12","correct_side":2,"subjID":"Danielcobos9","gender":"0","age":"9","school":"4"},{"start_time":1552328187548,"click_time":1552328188601,"finger_time":1552328188220,"fix_duration":924.847508840601,"trial":46,"RT":672,"MT":381,"sideResp":2,"stimulus":"img/500/equaldotanddens/R/14_Ratio_500_L_5_R_10.png","xmouse":[804,804,803,803,803,803,803,803,803,803,803,803,803,803,803,803,803,803,803,803,803,803,803,803,803,803,803,803,803,803,803,809,832,870,906,942,1033,1063,1083,1100,1109,1122,1126,1130,1131,1131,1131,1131,1130,1130,1130,1130,1130],"ymouse":[528,528,528,528,528,528,528,528,528,528,528,528,528,528,528,528,528,528,528,528,528,528,528,528,528,528,528,528,528,528,528,518,489,448,405,360,287,261,244,228,218,198,190,183,177,173,163,155,151,145,136,112,96],"timestamp_mouse":[13,32,53,72,92,112,133,152,172,192,212,233,252,272,293,312,332,352,372,392,412,432,452,472,492,513,533,552,572,592,612,632,653,672,692,713,732,752,772,793,812,832,852,872,892,912,932,953,972,992,1012,1033,1053],"xSR":741.5,"ySR":469.95,"xT1":424.9,"yT1":0,"xT2":1058.1,"yT2":0,"toosoon":0,"cond_shown":"equaldotanddens","ratio_trial":500,"smaller_num":"5","larger_num":"10","correct_side":2,"subjID":"Danielcobos9","gender":"0","age":"9","school":"4"},{"start_time":1552328190592,"click_time":1552328192021,"finger_time":1552328191561,"fix_duration":930.5101361450654,"trial":47,"RT":969,"MT":460,"sideResp":1,"stimulus":"img/500/equaldotanddens/L/13_Ratio_500_L_12_R_6.png","xmouse":[811,811,811,811,811,811,811,811,811,811,811,811,811,811,811,811,811,811,811,811,811,811,811,811,811,811,811,811,811,811,811,811,811,811,811,811,811,811,811,811,811,811,811,811,811,811,808,803,794,771,752,730,702,649,551,489,424,385,369,365,365,365,365,365,367,368,371,374,380,401,417,437],"ymouse":[506,506,506,506,506,506,506,506,506,506,506,506,506,506,506,506,506,506,506,506,506,506,506,506,506,506,506,506,506,506,506,506,506,506,506,506,506,506,506,506,506,506,506,506,506,506,490,478,458,420,391,358,326,280,217,178,146,120,107,101,99,99,99,98,94,90,86,81,71,45,32,20],"timestamp_mouse":[12,32,49,69,89,108,128,148,168,189,209,228,249,268,288,308,329,349,369,388,409,429,448,469,488,508,528,549,568,588,609,629,648,668,688,708,729,749,768,788,809,829,849,868,888,909,928,949,969,988,1008,1029,1048,1068,1089,1108,1129,1148,1168,1189,1208,1228,1248,1268,1289,1308,1329,1349,1368,1389,1408,1429],"xSR":741.5,"ySR":469.95,"xT1":424.9,"yT1":0,"xT2":1058.1,"yT2":0,"toosoon":0,"cond_shown":"equaldotanddens","ratio_trial":500,"smaller_num":"6","larger_num":"12","correct_side":1,"subjID":"Danielcobos9","gender":"0","age":"9","school":"4"},{"start_time":1552328193543,"click_time":1552328195700,"finger_time":1552328194161,"fix_duration":560.7698611068653,"trial":48,"RT":618,"MT":1539,"sideResp":2,"stimulus":"img/900/equaldotsize/R/3_Ratio_900_L_9_R_10.png","xmouse":[777,777,777,777,777,777,777,777,777,777,777,777,777,777,777,777,777,777,777,777,777,777,777,777,777,777,777,778,779,782,790,798,826,840,857,865,874,875,876,877,878,878,881,881,881,881,881,881,880,876,868,834,813,786,746,716,688,641,625,612,605,594,589,583,580,580,580,580,580,580,580,580,580,580,580,579,579,579,579,581,596,624,764,897,972,1013,1024,1024,1024,1024,1024,1024,1024,1025,1025,1027,1027,1031,1037,1047,1059,1076,1113,1120,1123,1125,1125,1129],"ymouse":[488,488,488,488,488,488,488,488,488,488,488,488,488,488,488,488,488,488,488,488,488,488,488,488,488,488,487,484,482,476,463,448,407,388,366,352,331,324,319,314,311,309,305,304,303,303,303,303,302,304,308,314,314,311,297,285,272,240,229,217,210,195,190,186,183,183,183,183,183,183,183,183,183,183,183,183,183,183,183,183,186,193,218,256,277,288,292,292,292,292,292,291,289,288,286,284,283,276,263,240,211,183,142,130,118,109,102,88],"timestamp_mouse":[17,37,58,78,98,118,138,158,177,198,217,237,258,277,297,318,338,358,377,398,417,438,458,477,498,517,537,558,578,598,618,639,657,678,697,717,739,757,777,797,818,837,857,877,897,919,937,958,978,997,1018,1039,1057,1077,1097,1117,1138,1157,1177,1198,1217,1239,1257,1278,1297,1318,1338,1357,1377,1398,1417,1437,1458,1477,1497,1517,1538,1557,1577,1598,1618,1639,1659,1677,1697,1717,1738,1757,1778,1797,1818,1837,1857,1877,1897,1918,1938,1957,1978,1997,2018,2037,2057,2077,2097,2118,2138,2157],"xSR":741.5,"ySR":469.95,"xT1":424.9,"yT1":0,"xT2":1058.1,"yT2":0,"toosoon":0,"cond_shown":"equaldotsize","ratio_trial":900,"smaller_num":"9","larger_num":"10","correct_side":2,"subjID":"Danielcobos9","gender":"0","age":"9","school":"4"},{"start_time":1552328199284,"click_time":1552328201481,"finger_time":1552328200281,"fix_duration":1322.2086316569234,"trial":49,"RT":997,"MT":1200,"sideResp":1,"stimulus":"img/750/randomdotsizeEA/L/8_Ratio_750_L_4_R_3.png","xmouse":[788,788,788,788,788,788,788,788,788,788,788,788,788,788,788,788,788,788,788,788,788,788,788,788,788,788,788,788,788,788,788,791,795,798,800,806,809,811,813,813,813,813,813,813,813,812,793,784,774,766,755,753,753,753,753,753,753,752,750,749,744,740,736,733,731,728,724,721,718,714,701,694,686,669,661,636,626,617,610,604,595,593,590,586,579,572,569,565,559,550,533,521,512,506,505,505,505,505,505,505,505,505,505,505,505,505,505,505,506,507],"ymouse":[537,537,537,537,537,537,537,537,537,537,537,537,537,537,537,537,537,537,537,537,537,537,537,537,537,537,537,537,537,537,537,537,537,537,537,533,532,531,529,528,528,528,528,527,524,517,493,482,470,458,444,442,441,441,441,439,438,435,431,425,412,404,399,392,388,381,372,369,366,362,353,346,333,310,293,261,250,240,232,226,219,216,213,211,206,201,198,195,190,182,165,154,146,140,138,138,138,138,138,138,138,137,135,134,129,119,113,107,102,97],"timestamp_mouse":[16,36,57,76,97,117,136,156,176,197,216,237,257,277,296,317,336,357,377,396,417,437,456,477,497,516,537,557,577,597,616,637,657,677,697,716,737,756,776,797,817,837,864,877,897,916,936,956,977,997,1016,1036,1056,1076,1096,1118,1136,1156,1177,1196,1217,1236,1257,1277,1296,1317,1336,1356,1376,1397,1417,1436,1457,1482,1497,1517,1536,1556,1577,1597,1618,1636,1656,1676,1697,1716,1736,1757,1776,1796,1818,1836,1856,1876,1896,1916,1937,1956,1977,1996,2016,2036,2057,2077,2097,2117,2136,2157,2176,2197],"xSR":741.5,"ySR":469.95,"xT1":424.9,"yT1":0,"xT2":1058.1,"yT2":0,"toosoon":0,"cond_shown":"randomdotsizeEA","ratio_trial":750,"smaller_num":"3","larger_num":"4","correct_side":1,"subjID":"Danielcobos9","gender":"0","age":"9","school":"4"},{"start_time":1552328203562,"click_time":1552328205021,"finger_time":1552328204320,"fix_duration":1060.3152112395983,"trial":50,"RT":758,"MT":701,"sideResp":2,"stimulus":"img/750/equaldotsize/R/5_Ratio_750_L_15_R_20.png","xmouse":[771,773,775,776,776,777,777,777,777,777,777,777,777,777,777,777,777,777,777,777,777,777,777,778,778,779,779,780,781,782,783,784,787,789,796,804,819,892,965,1006,1034,1052,1069,1071,1076,1081,1086,1098,1101,1101,1101,1102,1112,1118,1122,1123,1123,1124,1124,1124,1124,1124,1124,1124,1125,1125,1126,1128,1128,1129,1129,1129,1129],"ymouse":[529,528,528,527,527,527,527,527,527,527,527,527,527,527,527,527,527,527,527,527,527,527,527,526,526,525,525,524,522,521,520,519,517,514,509,502,492,449,412,399,395,389,379,373,363,351,340,309,281,260,240,217,169,146,128,117,112,111,111,111,111,111,111,111,110,110,109,106,104,103,101,101,97],"timestamp_mouse":[19,38,59,78,98,118,138,159,178,199,219,239,259,279,298,318,338,358,379,398,418,439,459,479,499,518,538,559,578,598,619,639,658,678,699,719,739,758,778,798,818,840,858,879,898,918,939,958,978,998,1019,1038,1058,1080,1098,1118,1139,1158,1178,1199,1218,1239,1258,1279,1298,1318,1339,1358,1379,1398,1419,1439,1459],"xSR":741.5,"ySR":469.95,"xT1":424.9,"yT1":0,"xT2":1058.1,"yT2":0,"toosoon":0,"cond_shown":"equaldotsize","ratio_trial":750,"smaller_num":"15","larger_num":"20","correct_side":2,"subjID":"Danielcobos9","gender":"0","age":"9","school":"4"},{"start_time":1552328207495,"click_time":1552328208981,"finger_time":1552328208341,"fix_duration":1373.218908210882,"trial":51,"RT":846,"MT":640,"sideResp":2,"stimulus":"img/250/randomdotsizeEA/R/9_Ratio_250_L_3_R_12.png","xmouse":[787,787,787,788,788,788,788,788,788,788,788,788,788,788,788,788,788,788,788,788,788,788,788,788,788,788,788,788,788,788,788,788,788,789,789,791,792,794,796,798,807,818,844,857,870,881,901,908,913,917,921,932,940,947,960,969,983,986,988,990,990,992,994,996,998,1002,1020,1028,1036,1041,1045,1047,1052,1056,1060],"ymouse":[494,495,496,498,499,499,499,500,500,500,500,500,500,500,500,500,500,500,500,500,500,500,500,500,500,500,500,500,500,500,500,500,500,501,501,501,497,496,492,490,481,472,450,436,422,410,383,371,357,342,324,274,248,228,213,200,181,175,173,171,171,168,165,163,160,154,126,115,108,104,102,100,96,95,94],"timestamp_mouse":[10,36,45,65,86,106,126,145,166,185,205,226,245,265,287,306,326,345,365,385,406,426,446,466,485,505,525,546,565,586,605,625,646,665,686,706,725,746,766,785,806,825,846,865,886,905,926,945,966,985,1006,1025,1045,1065,1086,1105,1126,1145,1165,1186,1205,1226,1245,1265,1285,1306,1325,1345,1365,1385,1405,1425,1445,1465,1486],"xSR":741.5,"ySR":469.95,"xT1":424.9,"yT1":0,"xT2":1058.1,"yT2":0,"toosoon":0,"cond_shown":"randomdotsizeEA","ratio_trial":250,"smaller_num":"3","larger_num":"12","correct_side":2,"subjID":"Danielcobos9","gender":"0","age":"9","school":"4"},{"start_time":1552328211264,"click_time":1552328212740,"finger_time":1552328212260,"fix_duration":803.0127601084516,"trial":52,"RT":996,"MT":480,"sideResp":2,"stimulus":"img/900/randomdotsizeEA/L/8_Ratio_900_L_20_R_18.png","xmouse":[804,804,804,804,804,804,804,804,804,804,804,804,804,804,804,804,804,804,804,804,804,804,804,804,804,804,804,804,804,804,804,804,804,804,804,804,804,804,804,804,804,804,804,804,807,809,816,822,841,850,862,872,882,918,931,946,961,975,995,1006,1014,1023,1032,1045,1052,1057,1059,1063,1067,1069,1070,1074,1076,1084],"ymouse":[517,517,517,517,517,517,517,517,517,517,517,517,517,517,517,517,517,517,517,517,517,517,517,517,517,517,517,517,517,517,517,517,517,517,517,517,517,517,517,517,517,517,517,517,516,516,514,511,506,503,500,497,494,476,466,452,439,426,403,384,368,347,325,278,256,235,218,199,167,150,138,125,113,97],"timestamp_mouse":[17,36,57,77,97,117,136,156,177,197,216,236,257,277,297,317,336,357,378,398,416,437,456,477,497,518,537,556,577,596,617,637,657,677,696,716,736,756,777,797,816,837,857,877,896,917,937,957,977,996,1016,1036,1057,1076,1097,1116,1137,1157,1176,1196,1217,1237,1256,1276,1296,1317,1337,1356,1376,1396,1416,1436,1457,1476],"xSR":741.5,"ySR":469.95,"xT1":424.9,"yT1":0,"xT2":1058.1,"yT2":0,"toosoon":0,"cond_shown":"randomdotsizeEA","ratio_trial":900,"smaller_num":"18","larger_num":"20","correct_side":1,"subjID":"Danielcobos9","gender":"0","age":"9","school":"4"},{"start_time":1552328214384,"click_time":1552328215741,"finger_time":1552328215240,"fix_duration":763.6717341526654,"trial":53,"RT":856,"MT":501,"sideResp":1,"stimulus":"img/900/equaldotanddens/L/10_Ratio_900_L_20_R_18.png","xmouse":[825,825,825,825,825,825,825,825,825,825,825,825,825,825,825,825,825,825,825,825,825,825,825,825,825,825,825,825,825,825,825,825,825,825,825,825,825,825,825,825,825,825,830,833,833,825,800,753,656,656,656,656,656,656,656,656,656,656,297,297,299,306,330,345,363,392,421,447],"ymouse":[535,535,535,535,535,535,535,535,535,535,535,535,535,535,535,535,535,535,535,535,535,535,535,535,535,535,535,535,535,535,535,535,535,535,535,535,535,535,535,535,531,526,459,431,402,360,286,183,20,20,20,20,20,20,20,20,20,20,17,40,64,87,115,115,107,87,60,17],"timestamp_mouse":[16,36,57,76,96,117,136,156,176,196,216,237,256,277,296,317,337,356,377,396,416,436,458,477,496,516,536,556,576,596,617,636,656,677,696,717,736,757,777,796,816,837,856,877,897,917,937,956,976,996,1016,1036,1058,1076,1096,1116,1136,1156,1176,1196,1217,1236,1257,1276,1296,1317,1337,1357],"xSR":741.5,"ySR":469.95,"xT1":424.9,"yT1":0,"xT2":1058.1,"yT2":0,"toosoon":0,"cond_shown":"equaldotanddens","ratio_trial":900,"smaller_num":"18","larger_num":"20","correct_side":1,"subjID":"Danielcobos9","gender":"0","age":"9","school":"4"},{"start_time":1552328219522,"click_time":1552328220660,"finger_time":1552328220180,"fix_duration":779.9572459413403,"trial":54,"RT":658,"MT":480,"sideResp":1,"stimulus":"img/250/equaldotsize/L/2_Ratio_250_L_16_R_4.png","xmouse":[803,803,803,803,803,803,803,803,803,803,803,803,803,803,803,803,803,803,803,803,803,803,803,803,803,803,803,803,802,802,801,798,776,710,635,563,503,406,353,319,310,310,314,317,322,326,327,327,330,332,333,335,354,369,390,401,422,426],"ymouse":[536,536,536,536,536,536,536,536,536,536,536,536,536,536,536,536,536,536,536,536,536,536,535,535,535,535,535,535,534,530,526,520,496,444,384,326,269,163,113,79,63,54,51,49,46,44,44,44,45,48,48,49,45,41,35,33,33,35],"timestamp_mouse":[1,18,39,59,79,99,119,139,159,179,200,219,238,258,278,299,318,338,358,380,399,418,439,458,478,498,518,540,558,578,598,618,638,658,680,698,718,738,758,778,798,820,838,858,878,898,918,939,959,978,999,1018,1038,1059,1079,1098,1120,1138],"xSR":741.5,"ySR":469.95,"xT1":424.9,"yT1":0,"xT2":1058.1,"yT2":0,"toosoon":0,"cond_shown":"equaldotsize","ratio_trial":250,"smaller_num":"4","larger_num":"16","correct_side":1,"subjID":"Danielcobos9","gender":"0","age":"9","school":"4"},{"start_time":1552328222205,"click_time":1552328223801,"finger_time":1552328222921,"fix_duration":544.0131099765254,"trial":55,"RT":716,"MT":880,"sideResp":2,"stimulus":"img/750/equaldotsize/R/12_Ratio_750_L_3_R_4.png","xmouse":[793,793,793,793,792,792,792,792,791,791,791,791,791,791,791,791,791,791,791,790,789,788,784,783,781,780,780,780,780,780,780,784,795,806,818,828,840,870,887,903,914,922,933,939,943,947,951,970,976,979,982,986,995,999,1003,1010,1020,1036,1040,1043,1047,1050,1052,1052,1052,1052,1052,1052,1052,1052,1052,1052,1052,1052,1052,1053,1053,1056,1057,1059],"ymouse":[527,526,526,527,527,527,527,527,527,527,527,527,527,527,527,527,527,527,527,527,527,527,527,527,527,527,527,527,527,527,526,521,507,493,475,456,432,333,274,214,173,146,110,99,93,90,86,81,81,81,81,82,83,83,83,83,81,78,78,78,77,75,75,75,75,75,75,75,75,75,75,75,75,75,75,76,76,77,77,77],"timestamp_mouse":[15,35,56,75,96,115,135,156,175,195,216,236,255,275,295,315,336,355,376,396,41