[{"start_time":1552327218638,"click_time":1552327241913,"finger_time":1552327218651,"fix_duration":1421.174274809828,"trial":0,"RT":13,"MT":23262,"sideResp":2,"stimulus":[],"xmouse":[886,885,885,885,885,885,880,875,863,852,843,826,820,814,810,807,802,802,802,802,801,800,799,797,797,797,794,792,791,788,779,764,764,764,763,763,757,753,748,743,740,739,739,739,739,739,739,739,739,739,739,739,739,739,739,739,742,744,745,746,748,752,752,753,755,756,762,763,764,766,770,791,816,846,884,899,906,906,906,905,901,889,887,885,885,885,885,885,885,885,885,867,845,826,812,806,806,806,806,806,806,805,803,801,799,799,798,798,798,798,798,798,798,798,799,799,801,801,801,801,801,801,801,801,801,801,801,801,801,801,801,801,801,801,801,801,801,801,801,801,801,801,801,801,801,801,801,801,801,801,801,801,801,801,801,801,801,800,800,800,799,799,798,798,798,798,798,798,798,798,798,798,796,794,792,792,792,792,792,792,792,792,792,792,792,792,792,792,792,791,790,789,788,787,785,785,785,785,785,785,785,785,785,785,785,785,785,785,785,785,785,785,785,785,785,785,785,785,785,785,785,785,785,785,785,785,785,785,785,785,784,784,784,783,783,783,783,783,783,783,783,787,788,789,789,789,789,783,771,752,747,742,742,741,739,735,723,721,721,721,723,725,728,730,733,736,744,750,756,761,763,766,766,768,771,774,779,781,781,781,781,782,782,784,784,785,792,800,807,809,809,809,809,809,810,810,812,812,812,812,812,812,811,810,807,806,805,799,796,795,795,795,795,795,794,794,791,790,792,794,795,798,800,803,805,808,810,812,813,814,814,814,814,814,814,814,814,814,814,814,814,813,812,810,808,808,807,807,807,806,804,798,796,791,791,789,789,789,789,789,789,789,789,789,789,789,789,789,789,788,788,788,788,788,788,787,787,787,787,787,787,787,787,785,785,785,785,785,785,785,785,785,785,785,785,785,785,785,785,785,785,785,785,785,785,785,785,785,784,784,783,781,781,781,780,779,778,776,775,772,771,770,769,769,768,768,768,767,767,767,767,767,767,767,767,767,767,767,767,767,767,767,767,768,770,771,781,829,836,837,837,837,837,837,837,837,837,837,835,831,825,821,812,807,802,799,798,798,798,798,798,798,798,798,799,799,799,799,799,799,799,799,799,799,799,799,799,799,799,800,801,801,801,801,801,801,801,801,799,798,796,795,793,790,789,787,786,786,786,786,786,786,786,786,786,786,786,786,786,786,786,786,786,786,786,786,786,786,786,786,786,786,786,786,786,786,786,786,786,786,786,786,786,786,786,786,786,786,786,786,786,786,786,786,786,786,786,786,786,786,786,786,786,786,786,786,786,786,786,786,786,786,786,786,786,786,786,786,786,786,786,786,786,786,786,786,786,786,786,786,786,786,786,786,786,786,786,786,786,786,786,786,786,786,786,786,786,786,786,786,786,786,786,786,786,786,786,786,786,786,786,786,786,786,785,785,785,785,784,782,782,780,778,778,778,778,778,778,778,778,778,778,778,778,778,778,778,778,778,778,778,778,778,778,778,778,777,777,777,777,777,777,777,777,777,777,777,777,777,777,777,777,777,777,777,777,777,777,777,777,777,777,777,777,777,777,777,777,777,777,777,777,777,777,777,777,777,777,777,777,777,777,777,777,777,777,777,777,777,777,777,777,777,777,777,777,777,777,777,778,779,781,781,781,781,782,784,784,784,784,784,784,784,784,784,784,784,784,784,784,784,784,784,783,782,781,774,770,764,762,762,762,767,768,768,768,767,758,757,757,757,757,757,757,757,757,757,757,757,758,760,762,762,762,762,763,763,763,763,763,763,763,763,765,767,768,769,771,771,771,771,771,771,771,771,771,771,771,771,771,772,772,772,773,773,774,775,775,775,775,775,775,775,778,780,786,794,807,820,822,822,822,822,822,820,819,819,819,819,819,819,819,819,818,817,816,815,812,811,810,810,809,809,809,809,809,809,809,809,809,809,809,809,809,809,809,809,809,810,810,810,810,810,810,810,810,810,810,810,810,810,810,810,810,810,810,810,810,810,810,810,810,809,809,809,809,809,809,809,809,808,807,806,803,802,800,799,797,797,797,797,796,796,795,795,795,795,795,795,795,795,795,795,795,795,795,795,795,795,795,795,795,795,795,795,795,795,794,793,792,792,792,792,791,791,791,791,791,791,791,790,790,790,789,789,787,785,784,784,784,784,784,784,783,783,783,783,783,783,783,783,783,783,783,783,783,783,783,783,783,783,783,783,783,783,783,783,783,783,783,783,783,783,783,783,783,783,783,783,783,783,783,783,783,783,783,783,783,783,783,783,783,783,783,783,783,783,783,783,783,783,783,783,782,782,782,782,782,782,782,782,782,782,782,782,782,782,782,782,782,782,782,782,782,782,782,782,782,782,782,782,782,782,782,782,782,782,782,782,782,782,782,782,782,782,782,782,782,782,782,782,782,782,782,782,782,782,782,782,782,782,782,782,782,782,782,782,782,782,782,782,782,782,782,782,782,782,782,782,782,782,782,782,782,782,782,782,782,782,782,782,782,782,782,782,782,782,782,782,782,782,782,784,787,787,787,787,787,787,787,787,787,787,787,787,788,792,796,804,808,812,823,828,848,856,863,869,876,903,934,948,978,999,1065,1102,1134,1153,1166,1184,1189,1192,1192,1192,1188,1187,1185,1184,1182,1178,1175,1172,1169,1166,1158],"ymouse":[401,402,402,402,402,403,402,398,390,385,382,377,371,367,362,358,346,345,344,343,342,340,339,339,339,339,336,335,335,334,333,330,329,329,329,329,325,323,320,316,314,313,313,313,313,313,313,313,313,313,313,313,313,313,313,312,310,309,308,307,305,303,303,301,301,300,296,295,294,293,290,280,276,276,278,287,294,294,294,294,287,267,260,256,251,247,241,240,240,240,241,251,258,262,262,262,259,258,258,257,257,255,254,252,251,251,251,251,251,251,250,248,237,232,227,226,223,223,223,223,223,223,223,223,223,223,223,223,223,223,223,223,223,223,223,223,223,223,223,223,223,223,223,223,223,223,223,223,223,223,223,223,223,223,223,223,223,222,222,221,220,219,218,218,218,218,218,217,217,217,217,217,218,225,233,237,238,238,238,239,240,241,241,241,241,241,241,241,241,242,245,255,258,263,267,269,269,269,269,270,270,270,270,270,270,270,270,270,270,270,270,270,270,270,270,272,272,272,272,272,272,272,272,272,272,272,272,272,272,272,272,275,279,280,280,280,280,280,280,280,280,279,277,277,277,277,278,291,322,387,420,452,453,456,463,475,519,541,561,581,587,587,586,586,586,586,586,586,584,581,580,576,574,569,565,561,549,547,547,547,547,547,546,545,545,544,542,540,539,537,537,537,537,536,536,535,534,534,534,534,534,534,534,535,536,536,536,535,532,531,530,529,529,529,529,528,527,526,525,525,526,535,539,543,545,545,545,545,543,541,541,541,541,541,541,541,541,540,540,540,540,538,535,533,532,531,530,528,528,526,526,524,524,523,522,522,522,522,522,522,522,522,522,522,522,522,522,522,522,521,521,521,520,520,519,519,519,519,519,519,519,519,519,519,519,519,519,519,519,519,519,519,519,519,519,519,519,519,519,519,519,519,519,519,519,519,519,519,519,519,519,519,519,519,519,519,518,517,517,515,515,514,514,514,514,514,514,514,514,514,514,514,514,514,514,514,514,514,514,514,514,514,514,514,514,514,516,527,528,528,528,528,528,528,528,528,528,528,528,528,528,530,532,532,532,532,532,532,532,532,531,529,527,525,523,523,523,523,523,523,523,523,523,523,523,523,523,521,518,515,514,514,514,514,514,514,514,514,516,517,519,521,521,522,522,524,525,525,525,525,525,525,525,525,525,525,525,525,525,525,525,525,525,525,525,525,525,525,525,525,525,525,525,525,525,525,525,525,525,525,525,525,525,525,525,525,525,525,525,525,525,525,525,525,525,525,525,525,525,525,525,525,525,525,525,525,525,525,525,525,525,525,525,525,525,525,525,525,525,525,525,525,525,525,525,525,525,525,525,525,525,525,525,525,525,525,525,525,525,525,525,525,525,525,525,525,525,525,525,525,525,525,525,525,525,525,525,525,525,525,525,525,525,525,525,525,525,525,526,528,529,531,534,535,535,535,535,535,535,535,535,535,535,535,535,535,535,535,535,535,535,535,535,535,535,535,535,535,535,535,535,535,535,535,535,535,535,535,535,535,535,535,535,535,535,535,535,535,535,535,535,535,535,535,535,535,535,535,535,535,535,535,535,535,535,535,535,535,535,535,535,535,535,535,535,535,535,535,535,535,535,535,535,535,535,535,535,535,535,533,533,533,533,533,533,533,532,532,532,532,532,532,532,532,532,532,532,532,532,532,532,531,531,531,531,531,527,526,521,517,513,507,493,488,486,486,486,493,494,494,494,494,494,494,494,494,494,494,494,495,492,489,489,489,489,489,490,491,491,492,494,495,499,504,507,510,513,519,520,520,520,521,521,521,521,522,522,522,522,522,523,523,523,523,524,526,527,527,527,527,527,527,527,527,527,524,518,511,507,507,507,507,507,507,508,509,509,509,509,509,509,509,509,509,511,512,513,516,517,519,520,521,521,521,521,521,521,521,521,521,520,520,520,520,519,519,519,519,519,519,519,519,519,519,519,519,519,519,519,519,519,519,519,519,519,519,519,519,519,519,519,519,519,519,519,519,519,519,519,519,519,519,519,520,522,523,524,524,524,524,524,525,526,527,527,527,527,527,527,527,527,527,527,527,527,527,527,527,527,527,527,527,527,527,527,527,527,527,527,528,529,531,533,535,535,535,535,535,535,535,536,536,537,537,537,537,538,538,538,538,538,538,538,538,538,537,537,536,535,534,534,534,534,534,534,534,534,534,534,534,534,534,534,534,534,534,534,534,534,534,534,534,534,534,534,534,534,534,534,534,534,534,534,534,534,534,534,534,534,534,534,534,534,534,534,534,534,534,534,534,534,533,532,530,530,530,530,530,530,530,530,530,530,530,530,530,530,530,530,530,530,530,530,530,530,530,530,530,530,530,530,530,530,530,530,530,530,530,530,530,530,530,530,530,530,530,530,530,530,530,530,530,530,530,530,530,530,530,530,530,530,530,530,530,530,530,530,530,530,530,530,530,530,530,530,530,530,530,530,530,530,530,530,530,530,530,530,530,530,530,530,530,530,530,530,530,530,530,530,530,530,533,537,549,549,549,549,549,549,549,549,549,549,549,549,550,549,548,546,545,543,536,534,518,511,501,491,479,440,402,385,345,319,248,200,149,115,96,69,61,49,41,34,22,19,15,14,14,14,14,16,17,19,23],"timestamp_mouse":[13,33,53,73,93,112,133,152,173,193,213,233,253,272,292,315,333,352,373,394,413,433,453,473,492,514,533,553,573,592,612,633,653,674,693,713,732,753,774,793,813,832,853,873,893,914,934,953,973,994,1013,1034,1052,1073,1093,1114,1134,1154,1174,1193,1213,1233,1252,1273,1292,1313,1333,1352,1373,1393,1413,1434,1453,1474,1493,1513,1533,1553,1573,1592,1614,1633,1652,1674,1693,1713,1733,1753,1773,1793,1813,1833,1854,1873,1894,1914,1933,1953,1974,1993,2014,2033,2052,2072,2093,2112,2133,2154,2173,2193,2213,2233,2254,2273,2292,2313,2333,2353,2374,2394,2413,2432,2453,2472,2492,2514,2533,2554,2574,2594,2614,2633,2653,2674,2694,2714,2733,2753,2773,2793,2813,2834,2853,2874,2893,2913,2933,2952,2972,2992,3014,3033,3053,3074,3094,3114,3133,3153,3172,3193,3213,3233,3253,3274,3293,3314,3333,3353,3373,3393,3413,3433,3454,3473,3494,3513,3533,3553,3572,3593,3613,3633,3652,3673,3692,3713,3734,3754,3773,3794,3814,3834,3854,3873,3892,3913,3933,3953,3973,3994,4014,4034,4053,4074,4093,4113,4133,4153,4173,4193,4214,4233,4253,4274,4293,4313,4333,4354,4374,4394,4413,4433,4453,4474,4493,4513,4533,4553,4573,4594,4614,4634,4652,4673,4693,4714,4733,4753,4774,4793,4813,4834,4852,4873,4894,4913,4934,4953,4973,4992,5013,5034,5052,5074,5094,5113,5134,5153,5172,5194,5213,5234,5252,5272,5293,5312,5334,5352,5373,5393,5414,5433,5453,5472,5493,5514,5533,5552,5574,5594,5613,5633,5654,5673,5693,5712,5734,5752,5773,5793,5812,5834,5853,5873,5894,5913,5934,5954,5972,5993,6014,6033,6052,6074,6094,6114,6134,6152,6173,6194,6214,6233,6253,6274,6293,6313,6333,6354,6374,6394,6412,6434,6454,6473,6493,6512,6534,6553,6574,6593,6614,6632,6653,6674,6693,6714,6734,6752,6774,6794,6812,6832,6852,6873,6894,6913,6933,6954,6972,6993,7013,7034,7053,7074,7094,7114,7133,7154,7172,7192,7214,7233,7254,7274,7293,7313,7332,7354,7374,7393,7413,7433,7453,7474,7494,7513,7534,7554,7574,7593,7614,7633,7654,7672,7692,7714,7734,7753,7773,7794,7814,7832,7854,7874,7892,7913,7932,7954,7974,7993,8014,8034,8053,8074,8092,8114,8133,8154,8174,8193,8213,8234,8253,8272,8292,8312,8333,8353,8373,8392,8412,8433,8452,8473,8492,8513,8533,8553,8572,8592,8614,8632,8654,8672,8693,8713,8734,8753,8774,8793,8812,8833,8852,8873,8893,8914,8933,8953,8974,8992,9012,9033,9054,9073,9094,9112,9133,9154,9173,9192,9212,9233,9253,9274,9293,9313,9332,9353,9373,9393,9414,9434,9453,9474,9493,9514,9532,9554,9574,9593,9612,9634,9653,9672,9694,9713,9734,9754,9772,9793,9813,9833,9854,9873,9894,9912,9932,9952,9973,9992,10012,10033,10052,10074,10092,10113,10133,10153,10174,10193,10214,10233,10253,10272,10294,10314,10332,10352,10373,10394,10414,10433,10452,10473,10494,10514,10533,10554,10573,10593,10612,10634,10654,10674,10693,10714,10733,10754,10772,10793,10814,10833,10854,10874,10893,10914,10934,10953,10974,10994,11013,11033,11054,11072,11093,11114,11133,11152,11173,11194,11214,11233,11252,11274,11294,11314,11332,11352,11374,11393,11414,11433,11454,11473,11494,11514,11534,11553,11574,11593,11614,11634,11653,11673,11694,11714,11734,11754,11773,11792,11814,11834,11854,11873,11894,11914,11932,11952,11974,11994,12013,12034,12052,12073,12093,12114,12133,12154,12174,12194,12214,12233,12253,12274,12293,12312,12334,12352,12373,12393,12414,12433,12452,12473,12493,12513,12533,12552,12574,12593,12614,12633,12653,12673,12694,12713,12733,12752,12773,12792,12813,12834,12852,12874,12893,12914,12933,12953,12974,12994,13014,13033,13053,13074,13093,13112,13133,13153,13173,13193,13214,13232,13253,13273,13292,13312,13334,13353,13373,13394,13412,13434,13453,13473,13493,13513,13534,13553,13573,13594,13613,13633,13653,13674,13693,13713,13733,13753,13773,13793,13813,13833,13853,13874,13894,13914,13933,13953,13974,13994,14012,14033,14053,14072,14093,14114,14134,14153,14174,14194,14214,14233,14254,14274,14292,14313,14334,14354,14372,14393,14414,14432,14453,14473,14492,14513,14532,14554,14574,14593,14614,14633,14653,14674,14692,14714,14733,14754,14773,14792,14814,14833,14854,14873,14892,14914,14933,14952,14973,14993,15013,15034,15053,15072,15092,15113,15134,15153,15172,15194,15214,15232,15252,15274,15293,15314,15334,15353,15373,15393,15413,15434,15454,15473,15493,15514,15533,15553,15574,15592,15614,15633,15652,15674,15692,15713,15734,15753,15772,15793,15813,15834,15853,15874,15893,15913,15933,15953,15974,15994,16014,16033,16054,16073,16094,16112,16134,16154,16173,16193,16213,16232,16254,16272,16294,16312,16332,16353,16373,16393,16413,16433,16452,16474,16492,16514,16534,16552,16574,16593,16614,16632,16654,16673,16692,16713,16732,16754,16773,16792,16813,16833,16852,16874,16894,16914,16932,16952,16974,16994,17013,17032,17052,17074,17093,17114,17134,17154,17173,17193,17213,17234,17254,17273,17294,17312,17333,17354,17372,17394,17413,17434,17454,17472,17494,17513,17533,17554,17572,17593,17614,17634,17653,17673,17694,17713,17734,17753,17773,17794,17813,17833,17854,17873,17894,17914,17934,17953,17972,17992,18013,18034,18054,18072,18093,18114,18134,18153,18174,18193,18213,18233,18254,18274,18294,18313,18333,18353,18374,18392,18412,18434,18453,18474,18494,18513,18534,18553,18572,18592,18613,18632,18653,18674,18693,18714,18734,18753,18774,18794,18814,18833,18854,18874,18893,18913,18933,18953,18972,18994,19014,19032,19053,19073,19094,19113,19132,19154,19174,19194,19214,19233,19254,19274,19292,19312,19333,19352,19374,19392,19414,19433,19453,19474,19492,19514,19534,19554,19574,19593,19614,19634,19654,19673,19693,19713,19734,19753,19774,19793,19814,19833,19853,19873,19894,19913,19933,19953,19974,19993,20012,20033,20054,20074,20094,20112,20132,20154,20173,20193,20214,20233,20252,20272,20292,20313,20334,20353,20373,20394,20412,20434,20454,20472,20494,20514,20533,20554,20573,20592,20613,20634,20653,20673,20694,20712,20733,20754,20773,20793,20813,20834,20853,20872,20894,20912,20934,20953,20972,20994,21013,21034,21054,21073,21093,21113,21132,21154,21174,21193,21214,21234,21252,21273,21294,21314,21332,21354,21373,21393,21413,21434,21453,21472,21493,21513,21533,21553,21573,21592,21614,21632,21652,21674,21694,21713,21734,21754,21772,21794,21814,21832,21854,21872,21893,21914,21934,21954,21973,21993,22014,22032,22052,22073,22093,22114,22134,22154,22174,22194,22213,22233,22254,22273,22294,22314,22333,22354,22373,22393,22413,22433,22452,22474,22494,22514,22532,22553,22573,22593,22613,22634,22653,22673,22692,22712,22732,22754,22774,22792,22813,22834,22853,22873,22893,22914,22933,22953,22974,22992,23013,23034,23054,23074,23092,23113,23134,23154,23175,23193,23213,23233,23254,23274],"xSR":741.5,"ySR":469.95,"xT1":424.9,"yT1":0,"xT2":1058.1,"yT2":0,"toosoon":0,"cond_shown":"Congruent","ratio_trial":200,"L_num":5,"L_den":10,"R_num":14,"R_den":20,"correct_side":2,"subjID":"Danielcobos9","gender":"0","age":"9","school":"4","test":{"fix_dur":[250,1500],"timestim":1000,"targets_dim":[100,100],"targets_relative_coord":[0.3,0.7],"size_stim":[880,420],"start_dim":[100,100],"size_start":[300,300],"size_fix":60,"samplingrate":20,"img_types":["Congruent","Incongruent"],"ratios":[100,200,300],"rep_conds":19,"nTrials":120,"trials_to_rest":500,"Trials_order":[56,109,82,79,41,65,11,72,16,85,57,106,40,105,43,107,97,70,90,86,31,117,36,91,52,14,48,4,115,83,21,88,3,9,96,23,33,60,93,58,2,1,37,25,119,73,89,15,0,95,98,26,84,39,76,62,28,12,81,102,27,42,22,77,47,69,30,61,87,7,18,68,103,78,112,101,24,94,49,71,13,20,45,74,66,54,34,63,64,32,51,111,53,118,10,80,99,110,8,17,50,114,108,19,38,67,29,104,6,35,55,113,44,116,46,92,75,5,100,59],"cond_shown":["Congruent","Incongruent","Congruent","Incongruent","Incongruent","Incongruent","Incongruent","Congruent","Congruent","Incongruent","Incongruent","Congruent","Congruent","Incongruent","Incongruent","Incongruent","Incongruent","Congruent","Congruent","Congruent","Incongruent","Incongruent","Congruent","Incongruent","Congruent","Congruent","Congruent","Congruent","Incongruent","Incongruent","Incongruent","Congruent","Incongruent","Incongruent","Congruent","Incongruent","Incongruent","Congruent","Incongruent","Congruent","Congruent","Incongruent","Incongruent","Incongruent","Incongruent","Incongruent","Incongruent","Incongruent","Congruent","Incongruent","Congruent","Congruent","Congruent","Incongruent","Congruent","Congruent","Congruent","Congruent","Incongruent","Congruent","Incongruent","Congruent","Congruent","Incongruent","Incongruent","Incongruent","Congruent","Incongruent","Incongruent","Incongruent","Congruent","Congruent","Incongruent","Congruent","Congruent","Incongruent","Congruent","Congruent","Incongruent","Incongruent","Incongruent","Congruent","Incongruent","Congruent","Congruent","Congruent","Congruent","Incongruent","Congruent","Congruent","Incongruent","Incongruent","Incongruent","Congruent","Congruent","Congruent","Incongruent","Congruent","Congruent","Incongruent","Congruent","Congruent","Congruent","Incongruent","Congruent","Incongruent","Incongruent","Congruent","Congruent","Incongruent","Incongruent","Incongruent","Congruent","Congruent","Congruent","Congruent","Incongruent","Incongruent","Congruent","Incongruent"],"ratio_trial":[200,100,300,100,300,300,300,100,300,100,200,300,300,200,100,300,100,300,100,200,100,200,100,100,300,200,100,300,100,300,200,300,200,200,100,300,200,100,200,300,200,100,100,100,300,100,300,200,100,300,200,200,100,200,300,200,300,100,200,100,200,100,300,300,300,200,100,100,200,100,100,200,100,100,300,300,100,300,100,300,100,200,200,200,100,100,300,200,300,200,200,200,300,300,300,200,200,200,200,300,200,100,100,100,200,100,300,200,100,300,100,300,200,200,300,200,200,300,300,300],"left_num":[5,3,3,3,7,4,8,9,20,10,7,1,2,7,3,8,3,3,3,11,3,9,7,8,1,1,4,18,11,13,7,1,6,7,4,7,7,11,11,11,3,9,12,10,3,10,13,7,2,4,4,6,3,6,4,13,1,3,7,15,4,4,4,4,3,14,4,13,3,11,1,7,13,2,1,2,15,20,10,13,8,3,14,3,1,15,20,7,20,4,7,3,4,12,1,6,6,7,8,13,21,10,1,6,5,8,4,12,3,3,9,4,6,7,7,5,7,1,8,2],"right_num":[14,4,2,4,8,8,9,8,5,8,6,3,12,6,11,14,7,4,4,3,11,8,9,6,7,21,6,9,9,12,4,3,3,12,15,8,6,4,3,1,7,13,9,8,4,8,12,6,6,6,3,3,2,3,13,14,7,2,14,13,14,15,13,2,4,6,6,12,1,9,3,2,12,11,8,6,13,5,9,12,1,9,12,14,18,13,14,12,8,3,14,11,6,2,3,11,3,2,3,12,2,3,18,11,14,1,6,6,4,4,6,2,7,18,20,14,14,3,1,6],"left_den":[10,6,6,6,10,5,10,15,25,25,15,5,10,15,5,10,9,6,20,22,5,15,14,16,20,2,8,20,22,26,15,5,20,10,10,10,15,22,20,22,10,15,24,25,6,25,26,15,5,5,8,15,6,20,20,26,20,6,10,25,6,10,20,20,6,30,8,26,10,22,2,21,26,5,30,4,25,25,25,26,20,12,30,6,2,25,25,10,25,8,10,4,5,24,5,20,20,21,15,26,30,25,2,10,10,20,5,20,20,6,18,20,12,15,14,10,10,2,16,4],"right_den":[20,10,10,10,20,16,18,16,10,16,9,6,24,9,22,28,30,5,16,10,22,10,15,10,20,30,10,15,15,15,6,6,6,24,30,20,9,10,4,5,14,26,15,16,20,16,15,9,12,12,10,15,5,6,26,20,20,5,28,26,30,30,26,4,20,9,10,20,2,15,5,15,20,22,24,30,26,10,18,15,2,20,18,20,30,26,28,24,16,10,28,20,12,10,6,22,6,15,9,15,4,10,30,22,20,2,12,15,16,20,10,4,10,27,25,20,28,15,5,30],"correct_side":[2,1,1,1,1,1,1,1,1,2,2,2,2,2,1,1,1,2,2,1,1,2,2,2,2,2,2,1,2,2,2,2,2,1,2,1,2,1,2,1,2,1,2,2,1,2,2,2,2,1,1,1,1,2,2,2,2,1,1,1,1,2,2,2,1,2,2,2,2,2,2,1,2,2,2,1,1,1,2,2,2,2,2,2,2,1,1,1,1,1,1,1,1,1,2,2,2,1,1,2,1,1,2,1,2,2,1,1,2,1,2,2,2,2,2,2,1,1,1,1],"img_shown":["img2/200/Congruent/R/C_Dist_200_LN_5_LD_10_RN_14_RD_20_1.png","img2/100/Incongruent/L/I_Dist_100_LN_3_LD_6_RN_4_RD_10_0.png","img2/300/Congruent/L/C_Dist_300_LN_3_LD_6_RN_2_RD_10_0.png","img2/100/Incongruent/L/I_Dist_100_LN_3_LD_6_RN_4_RD_10_0.png","img2/300/Incongruent/L/I_Dist_300_LN_7_LD_10_RN_8_RD_20_0.png","img2/300/Incongruent/L/I_Dist_300_LN_4_LD_5_RN_8_RD_16_0.png","img2/300/Incongruent/L/I_Dist_300_LN_8_LD_10_RN_9_RD_18_0.png","img2/100/Congruent/L/C_Dist_100_LN_9_LD_15_RN_8_RD_16_0.png","img2/300/Congruent/L/C_Dist_300_LN_20_LD_25_RN_5_RD_10_0.png","img2/100/Incongruent/R/I_Dist_100_LN_10_LD_25_RN_8_RD_16_1.png","img2/200/Incongruent/R/I_Dist_200_LN_7_LD_15_RN_6_RD_9_1.png","img2/300/Congruent/R/C_Dist_300_LN_1_LD_5_RN_3_RD_6_1.png","img2/300/Congruent/R/C_Dist_300_LN_2_LD_10_RN_12_RD_24_1.png","img2/200/Incongruent/R/I_Dist_200_LN_7_LD_15_RN_6_RD_9_1.png","img2/100/Incongruent/L/I_Dist_100_LN_3_LD_5_RN_11_RD_22_0.png","img2/300/Incongruent/L/I_Dist_300_LN_8_LD_10_RN_14_RD_28_0.png","img2/100/Incongruent/L/I_Dist_100_LN_3_LD_9_RN_7_RD_30_0.png","img2/300/Congruent/R/C_Dist_300_LN_3_LD_6_RN_4_RD_5_1.png","img2/100/Congruent/R/C_Dist_100_LN_3_LD_20_RN_4_RD_16_1.png","img2/200/Congruent/L/C_Dist_200_LN_11_LD_22_RN_3_RD_10_0.png","img2/100/Incongruent/L/I_Dist_100_LN_3_LD_5_RN_11_RD_22_0.png","img2/200/Incongruent/R/I_Dist_200_LN_9_LD_15_RN_8_RD_10_1.png","img2/100/Congruent/R/C_Dist_100_LN_7_LD_14_RN_9_RD_15_1.png","img2/100/Incongruent/R/I_Dist_100_LN_8_LD_16_RN_6_RD_10_1.png","img2/300/Congruent/R/C_Dist_300_LN_1_LD_20_RN_7_RD_20_1.png","img2/200/Congruent/R/C_Dist_200_LN_1_LD_2_RN_21_RD_30_1.png","img2/100/Congruent/R/C_Dist_100_LN_4_LD_8_RN_6_RD_10_1.png","img2/300/Congruent/L/C_Dist_300_LN_18_LD_20_RN_9_RD_15_0.png","img2/100/Incongruent/R/I_Dist_100_LN_11_LD_22_RN_9_RD_15_1.png","img2/300/Incongruent/R/I_Dist_300_LN_13_LD_26_RN_12_RD_15_1.png","img2/200/Incongruent/R/I_Dist_200_LN_7_LD_15_RN_4_RD_6_1.png","img2/300/Congruent/R/C_Dist_300_LN_1_LD_5_RN_3_RD_6_1.png","img2/200/Incongruent/R/I_Dist_200_LN_6_LD_20_RN_3_RD_6_1.png","img2/200/Incongruent/L/I_Dist_200_LN_7_LD_10_RN_12_RD_24_0.png","img2/100/Congruent/R/C_Dist_100_LN_4_LD_10_RN_15_RD_30_1.png","img2/300/Incongruent/L/I_Dist_300_LN_7_LD_10_RN_8_RD_20_0.png","img2/200/Incongruent/R/I_Dist_200_LN_7_LD_15_RN_6_RD_9_1.png","img2/100/Congruent/L/C_Dist_100_LN_11_LD_22_RN_4_RD_10_0.png","img2/200/Incongruent/R/I_Dist_200_LN_11_LD_20_RN_3_RD_4_1.png","img2/300/Congruent/L/C_Dist_300_LN_11_LD_22_RN_1_RD_5_0.png","img2/200/Congruent/R/C_Dist_200_LN_3_LD_10_RN_7_RD_14_1.png","img2/100/Incongruent/L/I_Dist_100_LN_9_LD_15_RN_13_RD_26_0.png","img2/100/Incongruent/R/I_Dist_100_LN_12_LD_24_RN_9_RD_15_1.png","img2/100/Incongruent/R/I_Dist_100_LN_10_LD_25_RN_8_RD_16_1.png","img2/300/Incongruent/L/I_Dist_300_LN_3_LD_6_RN_4_RD_20_0.png","img2/100/Incongruent/R/I_Dist_100_LN_10_LD_25_RN_8_RD_16_1.png","img2/300/Incongruent/R/I_Dist_300_LN_13_LD_26_RN_12_RD_15_1.png","img2/200/Incongruent/R/I_Dist_200_LN_7_LD_15_RN_6_RD_9_1.png","img2/100/Congruent/R/C_Dist_100_LN_2_LD_5_RN_6_RD_12_1.png","img2/300/Incongruent/L/I_Dist_300_LN_4_LD_5_RN_6_RD_12_0.png","img2/200/Congruent/L/C_Dist_200_LN_4_LD_8_RN_3_RD_10_0.png","img2/200/Congruent/L/C_Dist_200_LN_6_LD_15_RN_3_RD_15_0.png","img2/100/Congruent/L/C_Dist_100_LN_3_LD_6_RN_2_RD_5_0.png","img2/200/Incongruent/R/I_Dist_200_LN_6_LD_20_RN_3_RD_6_1.png","img2/300/Congruent/R/C_Dist_300_LN_4_LD_20_RN_13_RD_26_1.png","img2/200/Congruent/R/C_Dist_200_LN_13_LD_26_RN_14_RD_20_1.png","img2/300/Congruent/R/C_Dist_300_LN_1_LD_20_RN_7_RD_20_1.png","img2/100/Congruent/L/C_Dist_100_LN_3_LD_6_RN_2_RD_5_0.png","img2/200/Incongruent/L/I_Dist_200_LN_7_LD_10_RN_14_RD_28_0.png","img2/100/Congruent/L/C_Dist_100_LN_15_LD_25_RN_13_RD_26_0.png","img2/200/Incongruent/L/I_Dist_200_LN_4_LD_6_RN_14_RD_30_0.png","img2/100/Congruent/R/C_Dist_100_LN_4_LD_10_RN_15_RD_30_1.png","img2/300/Congruent/R/C_Dist_300_LN_4_LD_20_RN_13_RD_26_1.png","img2/300/Incongruent/R/I_Dist_300_LN_4_LD_20_RN_2_RD_4_1.png","img2/300/Incongruent/L/I_Dist_300_LN_3_LD_6_RN_4_RD_20_0.png","img2/200/Incongruent/R/I_Dist_200_LN_14_LD_30_RN_6_RD_9_1.png","img2/100/Congruent/R/C_Dist_100_LN_4_LD_8_RN_6_RD_10_1.png","img2/100/Incongruent/R/I_Dist_100_LN_13_LD_26_RN_12_RD_20_1.png","img2/200/Incongruent/R/I_Dist_200_LN_3_LD_10_RN_1_RD_2_1.png","img2/100/Incongruent/R/I_Dist_100_LN_11_LD_22_RN_9_RD_15_1.png","img2/100/Congruent/R/C_Dist_100_LN_1_LD_2_RN_3_RD_5_1.png","img2/200/Congruent/L/C_Dist_200_LN_7_LD_21_RN_2_RD_15_0.png","img2/100/Incongruent/R/I_Dist_100_LN_13_LD_26_RN_12_RD_20_1.png","img2/100/Congruent/R/C_Dist_100_LN_2_LD_5_RN_11_RD_22_1.png","img2/300/Congruent/R/C_Dist_300_LN_1_LD_30_RN_8_RD_24_1.png","img2/300/Incongruent/L/I_Dist_300_LN_2_LD_4_RN_6_RD_30_0.png","img2/100/Congruent/L/C_Dist_100_LN_15_LD_25_RN_13_RD_26_0.png","img2/300/Congruent/L/C_Dist_300_LN_20_LD_25_RN_5_RD_10_0.png","img2/100/Incongruent/R/I_Dist_100_LN_10_LD_25_RN_9_RD_18_1.png","img2/300/Incongruent/R/I_Dist_300_LN_13_LD_26_RN_12_RD_15_1.png","img2/100/Incongruent/R/I_Dist_100_LN_8_LD_20_RN_1_RD_2_1.png","img2/200/Congruent/R/C_Dist_200_LN_3_LD_12_RN_9_RD_20_1.png","img2/200/Incongruent/R/I_Dist_200_LN_14_LD_30_RN_12_RD_18_1.png","img2/200/Congruent/R/C_Dist_200_LN_3_LD_6_RN_14_RD_20_1.png","img2/100/Congruent/R/C_Dist_100_LN_1_LD_2_RN_18_RD_30_1.png","img2/100/Congruent/L/C_Dist_100_LN_15_LD_25_RN_13_RD_26_0.png","img2/300/Congruent/L/C_Dist_300_LN_20_LD_25_RN_14_RD_28_0.png","img2/200/Incongruent/L/I_Dist_200_LN_7_LD_10_RN_12_RD_24_0.png","img2/300/Congruent/L/C_Dist_300_LN_20_LD_25_RN_8_RD_16_0.png","img2/200/Congruent/L/C_Dist_200_LN_4_LD_8_RN_3_RD_10_0.png","img2/200/Incongruent/L/I_Dist_200_LN_7_LD_10_RN_14_RD_28_0.png","img2/200/Incongruent/L/I_Dist_200_LN_3_LD_4_RN_11_RD_20_0.png","img2/300/Incongruent/L/I_Dist_300_LN_4_LD_5_RN_6_RD_12_0.png","img2/300/Congruent/L/C_Dist_300_LN_12_LD_24_RN_2_RD_10_0.png","img2/300/Congruent/R/C_Dist_300_LN_1_LD_5_RN_3_RD_6_1.png","img2/200/Congruent/R/C_Dist_200_LN_6_LD_20_RN_11_RD_22_1.png","img2/200/Incongruent/R/I_Dist_200_LN_6_LD_20_RN_3_RD_6_1.png","img2/200/Congruent/L/C_Dist_200_LN_7_LD_21_RN_2_RD_15_0.png","img2/200/Congruent/L/C_Dist_200_LN_8_LD_15_RN_3_RD_9_0.png","img2/300/Incongruent/R/I_Dist_300_LN_13_LD_26_RN_12_RD_15_1.png","img2/200/Congruent/L/C_Dist_200_LN_21_LD_30_RN_2_RD_4_0.png","img2/100/Congruent/L/C_Dist_100_LN_10_LD_25_RN_3_RD_10_0.png","img2/100/Congruent/R/C_Dist_100_LN_1_LD_2_RN_18_RD_30_1.png","img2/100/Incongruent/L/I_Dist_100_LN_6_LD_10_RN_11_RD_22_0.png","img2/200/Congruent/R/C_Dist_200_LN_5_LD_10_RN_14_RD_20_1.png","img2/100/Incongruent/R/I_Dist_100_LN_8_LD_20_RN_1_RD_2_1.png","img2/300/Incongruent/L/I_Dist_300_LN_4_LD_5_RN_6_RD_12_0.png","img2/200/Congruent/L/C_Dist_200_LN_12_LD_20_RN_6_RD_15_0.png","img2/100/Congruent/R/C_Dist_100_LN_3_LD_20_RN_4_RD_16_1.png","img2/300/Incongruent/L/I_Dist_300_LN_3_LD_6_RN_4_RD_20_0.png","img2/100/Incongruent/R/I_Dist_100_LN_9_LD_18_RN_6_RD_10_1.png","img2/300/Incongruent/R/I_Dist_300_LN_4_LD_20_RN_2_RD_4_1.png","img2/200/Congruent/R/C_Dist_200_LN_6_LD_12_RN_7_RD_10_1.png","img2/200/Congruent/R/C_Dist_200_LN_7_LD_15_RN_18_RD_27_1.png","img2/300/Congruent/R/C_Dist_300_LN_7_LD_14_RN_20_RD_25_1.png","img2/200/Congruent/R/C_Dist_200_LN_5_LD_10_RN_14_RD_20_1.png","img2/200/Incongruent/L/I_Dist_200_LN_7_LD_10_RN_14_RD_28_0.png","img2/300/Incongruent/L/I_Dist_300_LN_1_LD_2_RN_3_RD_15_0.png","img2/300/Congruent/L/C_Dist_300_LN_8_LD_16_RN_1_RD_5_0.png","img2/300/Incongruent/L/I_Dist_300_LN_2_LD_4_RN_6_RD_30_0.png"],"dist100_C":[["C_Dist_100_LN_10_LD_25_RN_3_RD_10_0.png","C_Dist_100_LN_11_LD_22_RN_4_RD_10_0.png","C_Dist_100_LN_11_LD_22_RN_6_RD_15_0.png","C_Dist_100_LN_15_LD_25_RN_13_RD_26_0.png","C_Dist_100_LN_3_LD_6_RN_2_RD_5_0.png","C_Dist_100_LN_6_LD_20_RN_5_RD_25_0.png","C_Dist_100_LN_8_LD_16_RN_2_RD_5_0.png","C_Dist_100_LN_9_LD_15_RN_8_RD_16_0.png"],["C_Dist_100_LN_1_LD_2_RN_18_RD_30_1.png","C_Dist_100_LN_1_LD_2_RN_3_RD_5_1.png","C_Dist_100_LN_12_LD_30_RN_13_RD_26_1.png","C_Dist_100_LN_2_LD_5_RN_11_RD_22_1.png","C_Dist_100_LN_2_LD_5_RN_6_RD_12_1.png","C_Dist_100_LN_3_LD_20_RN_4_RD_16_1.png","C_Dist_100_LN_4_LD_10_RN_15_RD_30_1.png","C_Dist_100_LN_4_LD_8_RN_6_RD_10_1.png","C_Dist_100_LN_6_LD_12_RN_15_RD_25_1.png","C_Dist_100_LN_7_LD_14_RN_15_RD_25_1.png","C_Dist_100_LN_7_LD_14_RN_9_RD_15_1.png"]],"dist100_I":[["I_Dist_100_LN_1_LD_2_RN_8_RD_20_0.png","I_Dist_100_LN_2_LD_4_RN_6_RD_15_0.png","I_Dist_100_LN_2_LD_4_RN_8_RD_20_0.png","I_Dist_100_LN_3_LD_5_RN_11_RD_22_0.png","I_Dist_100_LN_3_LD_5_RN_8_RD_16_0.png","I_Dist_100_LN_3_LD_6_RN_4_RD_10_0.png","I_Dist_100_LN_3_LD_9_RN_7_RD_30_0.png","I_Dist_100_LN_4_LD_8_RN_8_RD_20_0.png","I_Dist_100_LN_6_LD_10_RN_11_RD_22_0.png","I_Dist_100_LN_6_LD_10_RN_13_RD_26_0.png","I_Dist_100_LN_6_LD_10_RN_7_RD_14_0.png","I_Dist_100_LN_9_LD_10_RN_20_RD_25_0.png","I_Dist_100_LN_9_LD_15_RN_13_RD_26_0.png","I_Dist_100_LN_9_LD_15_RN_14_RD_28_0.png"],["I_Dist_100_LN_10_LD_25_RN_8_RD_16_1.png","I_Dist_100_LN_10_LD_25_RN_9_RD_18_1.png","I_Dist_100_LN_11_LD_22_RN_9_RD_15_1.png","I_Dist_100_LN_12_LD_24_RN_9_RD_15_1.png","I_Dist_100_LN_12_LD_30_RN_2_RD_4_1.png","I_Dist_100_LN_13_LD_26_RN_12_RD_20_1.png","I_Dist_100_LN_13_LD_26_RN_6_RD_10_1.png","I_Dist_100_LN_17_LD_30_RN_10_RD_15_1.png","I_Dist_100_LN_6_LD_12_RN_3_RD_5_1.png","I_Dist_100_LN_8_LD_16_RN_6_RD_10_1.png","I_Dist_100_LN_8_LD_20_RN_1_RD_2_1.png","I_Dist_100_LN_9_LD_18_RN_6_RD_10_1.png"]],"dist100_S":[["E_Dist_100_LN_2_LD_12_RN_2_RD_30_0.png","E_Dist_100_LN_6_LD_10_RN_6_RD_12_0.png"],["E_Dist_100_LN_6_LD_12_RN_6_RD_10_1.png"]],"dist200_C":[["C_Dist_200_LN_11_LD_22_RN_3_RD_10_0.png","C_Dist_200_LN_12_LD_15_RN_6_RD_10_0.png","C_Dist_200_LN_12_LD_20_RN_6_RD_15_0.png","C_Dist_200_LN_14_LD_28_RN_6_RD_20_0.png","C_Dist_200_LN_15_LD_25_RN_4_RD_10_0.png","C_Dist_200_LN_16_LD_20_RN_12_RD_20_0.png","C_Dist_200_LN_16_LD_30_RN_9_RD_27_0.png","C_Dist_200_LN_20_LD_25_RN_9_RD_15_0.png","C_Dist_200_LN_21_LD_30_RN_2_RD_4_0.png","C_Dist_200_LN_4_LD_10_RN_3_RD_15_0.png","C_Dist_200_LN_4_LD_8_RN_3_RD_10_0.png","C_Dist_200_LN_6_LD_15_RN_3_RD_15_0.png","C_Dist_200_LN_7_LD_21_RN_2_RD_15_0.png","C_Dist_200_LN_8_LD_15_RN_2_RD_6_0.png","C_Dist_200_LN_8_LD_15_RN_3_RD_9_0.png","C_Dist_200_LN_8_LD_15_RN_7_RD_21_0.png","C_Dist_200_LN_9_LD_20_RN_4_RD_16_0.png"],["C_Dist_200_LN_1_LD_2_RN_21_RD_30_1.png","C_Dist_200_LN_13_LD_26_RN_14_RD_20_1.png","C_Dist_200_LN_3_LD_10_RN_11_RD_22_1.png","C_Dist_200_LN_3_LD_10_RN_14_RD_28_1.png","C_Dist_200_LN_3_LD_10_RN_7_RD_14_1.png","C_Dist_200_LN_3_LD_12_RN_9_RD_20_1.png","C_Dist_200_LN_3_LD_6_RN_14_RD_20_1.png","C_Dist_200_LN_5_LD_10_RN_14_RD_20_1.png","C_Dist_200_LN_6_LD_12_RN_7_RD_10_1.png","C_Dist_200_LN_6_LD_20_RN_11_RD_22_1.png","C_Dist_200_LN_7_LD_15_RN_18_RD_27_1.png","C_Dist_200_LN_9_LD_30_RN_13_RD_26_1.png"]],"dist200_I":[["I_Dist_200_LN_1_LD_2_RN_3_RD_10_0.png","I_Dist_200_LN_1_LD_3_RN_2_RD_15_0.png","I_Dist_200_LN_3_LD_4_RN_11_RD_20_0.png","I_Dist_200_LN_4_LD_5_RN_6_RD_10_0.png","I_Dist_200_LN_4_LD_6_RN_14_RD_30_0.png","I_Dist_200_LN_7_LD_10_RN_12_RD_24_0.png","I_Dist_200_LN_7_LD_10_RN_14_RD_28_0.png","I_Dist_200_LN_7_LD_10_RN_8_RD_16_0.png"],["I_Dist_200_LN_11_LD_20_RN_3_RD_4_1.png","I_Dist_200_LN_14_LD_30_RN_12_RD_18_1.png","I_Dist_200_LN_14_LD_30_RN_6_RD_9_1.png","I_Dist_200_LN_3_LD_10_RN_1_RD_2_1.png","I_Dist_200_LN_4_LD_30_RN_1_RD_3_1.png","I_Dist_200_LN_6_LD_20_RN_3_RD_6_1.png","I_Dist_200_LN_7_LD_15_RN_4_RD_6_1.png","I_Dist_200_LN_7_LD_15_RN_6_RD_9_1.png","I_Dist_200_LN_9_LD_15_RN_8_RD_10_1.png"]],"dist200_S":[["E_Dist_200_LN_3_LD_6_RN_3_RD_10_0.png"],["E_Dist_200_LN_3_LD_10_RN_3_RD_6_1.png"]],"dist300_C":[["C_Dist_300_LN_11_LD_22_RN_1_RD_5_0.png","C_Dist_300_LN_11_LD_22_RN_2_RD_10_0.png","C_Dist_300_LN_11_LD_22_RN_4_RD_20_0.png","C_Dist_300_LN_12_LD_24_RN_2_RD_10_0.png","C_Dist_300_LN_18_LD_20_RN_9_RD_15_0.png","C_Dist_300_LN_20_LD_25_RN_13_RD_26_0.png","C_Dist_300_LN_20_LD_25_RN_14_RD_28_0.png","C_Dist_300_LN_20_LD_25_RN_5_RD_10_0.png","C_Dist_300_LN_20_LD_25_RN_8_RD_16_0.png","C_Dist_300_LN_20_LD_25_RN_9_RD_18_0.png","C_Dist_300_LN_24_LD_30_RN_2_RD_4_0.png","C_Dist_300_LN_24_LD_30_RN_8_RD_16_0.png","C_Dist_300_LN_3_LD_6_RN_2_RD_10_0.png","C_Dist_300_LN_4_LD_10_RN_1_RD_10_0.png","C_Dist_300_LN_4_LD_5_RN_2_RD_4_0.png","C_Dist_300_LN_8_LD_16_RN_1_RD_5_0.png","C_Dist_300_LN_9_LD_10_RN_3_RD_5_0.png"],["C_Dist_300_LN_1_LD_20_RN_7_RD_20_1.png","C_Dist_300_LN_1_LD_3_RN_19_RD_30_1.png","C_Dist_300_LN_1_LD_30_RN_8_RD_24_1.png","C_Dist_300_LN_1_LD_5_RN_11_RD_22_1.png","C_Dist_300_LN_1_LD_5_RN_3_RD_6_1.png","C_Dist_300_LN_1_LD_5_RN_6_RD_12_1.png","C_Dist_300_LN_2_LD_10_RN_12_RD_24_1.png","C_Dist_300_LN_2_LD_20_RN_10_RD_25_1.png","C_Dist_300_LN_3_LD_12_RN_11_RD_20_1.png","C_Dist_300_LN_3_LD_6_RN_4_RD_5_1.png","C_Dist_300_LN_4_LD_20_RN_13_RD_26_1.png","C_Dist_300_LN_5_LD_25_RN_6_RD_12_1.png","C_Dist_300_LN_5_LD_25_RN_7_RD_14_1.png","C_Dist_300_LN_7_LD_14_RN_20_RD_25_1.png","C_Dist_300_LN_8_LD_15_RN_10_RD_12_1.png"]],"dist300_I":[["I_Dist_300_LN_1_LD_2_RN_2_RD_10_0.png","I_Dist_300_LN_1_LD_2_RN_3_RD_15_0.png","I_Dist_300_LN_2_LD_4_RN_6_RD_30_0.png","I_Dist_300_LN_3_LD_6_RN_4_RD_20_0.png","I_Dist_300_LN_4_LD_5_RN_6_RD_12_0.png","I_Dist_300_LN_4_LD_5_RN_8_RD_16_0.png","I_Dist_300_LN_7_LD_10_RN_8_RD_20_0.png","I_Dist_300_LN_8_LD_10_RN_14_RD_28_0.png","I_Dist_300_LN_8_LD_10_RN_9_RD_18_0.png"],["I_Dist_300_LN_13_LD_26_RN_12_RD_15_1.png","I_Dist_300_LN_4_LD_20_RN_2_RD_4_1.png"]],"dist300_S":[["E_Dist_300_LN_9_LD_12_RN_9_RD_20_0.png"],["E_Dist_300_LN_18_LD_30_RN_18_RD_20_1.png","E_Dist_300_LN_3_LD_10_RN_3_RD_5_1.png","E_Dist_300_LN_9_LD_20_RN_9_RD_12_1.png"]],"dist500_C":[["C_Dist_500_LN_10_LD_13_RN_7_RD_26_0.png","C_Dist_500_LN_10_LD_15_RN_4_RD_24_0.png","C_Dist_500_LN_12_LD_16_RN_3_RD_12_0.png","C_Dist_500_LN_12_LD_18_RN_4_RD_24_0.png","C_Dist_500_LN_15_LD_18_RN_5_RD_15_0.png","C_Dist_500_LN_15_LD_20_RN_1_RD_4_0.png","C_Dist_500_LN_18_LD_27_RN_1_RD_6_0.png","C_Dist_500_LN_20_LD_24_RN_1_RD_3_0.png","C_Dist_500_LN_20_LD_24_RN_3_RD_9_0.png","C_Dist_500_LN_20_LD_24_RN_7_RD_21_0.png","C_Dist_500_LN_20_LD_28_RN_3_RD_14_0.png","C_Dist_500_LN_21_LD_28_RN_6_RD_24_0.png","C_Dist_500_LN_22_LD_28_RN_2_RD_7_0.png","C_Dist_500_LN_25_LD_30_RN_9_RD_27_0.png","C_Dist_500_LN_4_LD_6_RN_1_RD_6_0.png","C_Dist_500_LN_5_LD_6_RN_2_RD_6_0.png","C_Dist_500_LN_6_LD_9_RN_1_RD_6_0.png","C_Dist_500_LN_7_LD_10_RN_1_RD_5_0.png","C_Dist_500_LN_8_LD_12_RN_1_RD_6_0.png","C_Dist_500_LN_8_LD_12_RN_4_RD_24_0.png"],["C_Dist_500_LN_1_LD_4_RN_12_RD_16_1.png","C_Dist_500_LN_1_LD_4_RN_9_RD_12_1.png","C_Dist_500_LN_1_LD_9_RN_11_RD_18_1.png","C_Dist_500_LN_10_LD_24_RN_22_RD_24_1.png","C_Dist_500_LN_2_LD_12_RN_10_RD_15_1.png","C_Dist_500_LN_2_LD_12_RN_12_RD_18_1.png","C_Dist_500_LN_2_LD_12_RN_4_RD_6_1.png","C_Dist_500_LN_2_LD_24_RN_7_RD_12_1.png","C_Dist_500_LN_2_LD_5_RN_18_RD_20_1.png","C_Dist_500_LN_2_LD_5_RN_9_RD_10_1.png","C_Dist_500_LN_2_LD_8_RN_12_RD_16_1.png","C_Dist_500_LN_2_LD_8_RN_21_RD_28_1.png","C_Dist_500_LN_3_LD_10_RN_4_RD_5_1.png","C_Dist_500_LN_3_LD_12_RN_15_RD_20_1.png","C_Dist_500_LN_3_LD_30_RN_6_RD_10_1.png","C_Dist_500_LN_3_LD_8_RN_14_RD_16_1.png","C_Dist_500_LN_4_LD_16_RN_15_RD_20_1.png","C_Dist_500_LN_4_LD_24_RN_12_RD_18_1.png","C_Dist_500_LN_5_LD_14_RN_6_RD_7_1.png","C_Dist_500_LN_7_LD_21_RN_20_RD_24_1.png","C_Dist_500_LN_7_LD_28_RN_12_RD_16_1.png","C_Dist_500_LN_7_LD_28_RN_9_RD_12_1.png","C_Dist_500_LN_9_LD_27_RN_20_RD_24_1.png"]],"dist500_I":[["I_Dist_500_LN_2_LD_3_RN_4_RD_24_0.png","I_Dist_500_LN_5_LD_6_RN_6_RD_18_0.png","I_Dist_500_LN_7_LD_8_RN_9_RD_24_0.png"],["I_Dist_500_LN_7_LD_21_RN_5_RD_6_1.png"]],"dist500_S":[["E_Dist_500_LN_6_LD_8_RN_6_RD_24_0.png"],["E_Dist_500_LN_2_LD_12_RN_2_RD_3_1.png","E_Dist_500_LN_6_LD_24_RN_6_RD_8_1.png"]]}},{"start_time":1552327244637,"click_time":1552327247131,"finger_time":1552327246392,"fix_duration":1024.8596376990165,"trial":1,"RT":1755,"MT":739,"sideResp":2,"stimulus":[],"xmouse":[805,805,805,805,805,805,805,805,805,805,805,805,805,805,805,805,805,805,805,805,806,806,806,806,806,806,806,806,806,806,806,806,806,806,806,806,806,806,806,806,806,806,806,806,806,806,806,806,806,806,806,806,806,806,806,806,806,806,806,806,806,806,806,806,806,806,806,806,806,806,806,806,806,806,806,806,806,806,806,806,806,808,809,812,816,833,841,850,863,889,906,925,943,957,979,985,989,991,992,993,996,1000,1004,1008,1023,1030,1037,1044,1050,1054,1056,1059,1062,1063,1063,1063,1063,1063,1063,1063,1063,1063,1063,1063,1063],"ymouse":[541,541,541,541,541,541,541,541,541,541,541,541,541,541,541,541,541,540,540,539,537,537,537,537,537,537,537,537,537,537,537,537,537,537,537,537,537,537,537,537,537,537,537,537,537,537,537,537,537,537,537,537,537,537,537,537,537,537,537,537,537,537,537,537,537,537,537,537,537,537,537,537,537,537,537,537,537,537,537,537,537,535,532,527,520,500,490,480,466,440,425,410,391,374,349,343,337,332,329,327,324,318,312,304,276,258,239,213,193,165,153,142,132,123,105,101,101,101,101,101,101,101,101,101,99],"timestamp_mouse":[19,48,54,74,94,115,135,154,174,193,215,234,255,274,294,314,333,354,374,394,414,433,453,474,493,513,535,555,573,594,614,634,653,674,695,715,733,754,775,795,814,834,855,874,894,914,933,955,975,993,1014,1034,1055,1074,1094,1114,1134,1154,1175,1195,1215,1234,1254,1274,1294,1315,1334,1355,1375,1394,1415,1433,1455,1474,1494,1515,1535,1554,1574,1594,1613,1634,1654,1674,1693,1714,1734,1755,1775,1794,1813,1833,1853,1874,1894,1914,1934,1954,1975,1994,2015,2034,2054,2075,2094,2113,2133,2155,2175,2194,2214,2235,2254,2274,2294,2313,2335,2354,2375,2394,2415,2434,2453,2474,2493],"xSR":741.5,"ySR":469.95,"xT1":424.9,"yT1":0,"xT2":1058.1,"yT2":0,"toosoon":0,"cond_shown":"Incongruent","ratio_trial":100,"L_num":3,"L_den":6,"R_num":4,"R_den":10,"correct_side":1,"subjID":"Danielcobos9","gender":"0","school":"4","age":"9"},{"start_time":1552327251226,"click_time":1552327252811,"finger_time":1552327252692,"fix_duration":694.0513214869273,"trial":2,"RT":1466,"MT":119,"sideResp":1,"stimulus":[],"xmouse":[789,789,789,789,789,789,789,789,789,789,789,789,789,789,789,789,789,789,789,789,789,789,789,789,789,789,789,789,789,789,789,789,789,789,789,789,789,789,789,789,789,789,789,789,789,789,789,789,789,789,789,789,789,789,789,789,789,789,789,789,789,789,789,789,789,789,789,789,788,787,786,777,768,753,736,658,576,519,475,437],"ymouse":[522,522,522,522,522,522,522,522,522,522,522,522,522,522,522,522,522,522,522,522,522,522,522,522,522,522,522,522,522,522,522,522,522,522,522,522,522,522,522,522,522,522,522,522,522,522,522,522,522,522,522,522,522,522,522,522,522,522,522,522,522,522,522,522,522,522,522,522,521,520,516,501,484,452,411,317,235,163,112,64],"timestamp_mouse":[13,35,45,66,85,105,124,146,164,184,206,225,246,265,285,305,326,346,366,385,406,425,446,465,484,505,526,546,565,585,604,626,646,664,685,706,724,744,766,785,805,824,845,866,886,906,925,945,966,985,1005,1025,1045,1064,1086,1105,1126,1146,1164,1185,1205,1224,1246,1266,1284,1306,1325,1346,1365,1385,1406,1424,1446,1466,1486,1507,1526,1544,1565,1585],"xSR":741.5,"ySR":469.95,"xT1":424.9,"yT1":0,"xT2":1058.1,"yT2":0,"toosoon":0,"cond_shown":"Congruent","ratio_trial":300,"L_num":3,"L_den":6,"R_num":2,"R_den":10,"correct_side":1,"subjID":"Danielcobos9","gender":"0","school":"4","age":"9"},{"start_time":1552327254443,"click_time":1552327257291,"finger_time":1552327256191,"fix_duration":250,"trial":3,"RT":1748,"MT":1100,"sideResp":1,"stimulus":[],"xmouse":[783,783,783,783,783,783,783,783,783,783,783,782,781,781,781,780,780,780,780,780,780,779,779,778,777,775,775,774,774,774,773,772,771,771,769,767,767,766,765,765,765,765,765,764,764,763,763,763,763,763,763,763,763,763,763,763,763,763,763,764,764,764,764,763,763,762,762,761,761,761,759,759,759,759,759,758,758,758,758,758,758,758,758,758,758,766,779,790,801,812,832,842,853,866,886,899,920,928,934,938,947,952,960,969,977,987,1001,1003,1007,1011,1026,1034,1039,1039,1039,1039,1038,1036,1034,1032,1032,1032,1032,1032,1032,1032,1032,1031,1031,1031,1031,1031,1031,1031,1026,1000,979,948,898,827,644,554,465],"ymouse":[525,525,525,526,526,526,526,526,526,526,526,526,526,524,523,521,520,520,520,520,520,518,518,516,514,511,511,511,511,510,509,509,508,505,504,501,498,496,492,489,487,487,487,486,486,486,486,486,486,486,486,486,486,486,486,486,486,486,486,487,487,487,489,490,491,491,491,492,492,492,493,495,496,496,496,498,499,499,499,499,499,499,499,499,500,492,478,463,446,429,397,384,369,352,327,311,281,272,261,253,228,215,203,190,181,173,166,164,161,157,148,145,143,143,143,144,147,151,153,155,156,156,156,156,156,156,156,156,155,155,153,153,153,153,152,148,145,140,130,110,58,32,7],"timestamp_mouse":[15,28,49,68,88,107,128,148,169,188,208,228,248,267,288,307,327,348,369,388,407,428,449,469,489,508,528,548,568,588,607,628,648,668,687,708,729,748,768,788,807,829,848,867,888,907,929,949,968,987,1008,1028,1048,1069,1087,1107,1129,1149,1169,1187,1208,1229,1248,1268,1287,1308,1329,1348,1367,1388,1409,1428,1449,1468,1488,1508,1528,1549,1569,1589,1608,1628,1647,1669,1688,1707,1728,1748,1768,1787,1808,1827,1848,1867,1888,1908,1928,1948,1968,1988,2008,2028,2048,2069,2089,2108,2129,2149,2168,2188,2208,2227,2247,2268,2289,2308,2328,2348,2367,2388,2408,2428,2449,2467,2488,2512,2527,2547,2568,2589,2609,2627,2649,2669,2687,2709,2728,2747,2769,2788,2809,2827,2848],"xSR":741.5,"ySR":469.95,"xT1":424.9,"yT1":0,"xT2":1058.1,"yT2":0,"toosoon":0,"cond_shown":"Incongruent","ratio_trial":100,"L_num":3,"L_den":6,"R_num":4,"R_den":10,"correct_side":1,"subjID":"Danielcobos9","gender":"0","school":"4","age":"9"},{"start_time":1552327259403,"click_time":1552327260652,"finger_time":1552327259891,"fix_duration":250,"trial":4,"RT":488,"MT":761,"sideResp":2,"stimulus":[],"xmouse":[785,785,785,785,785,785,785,785,785,785,785,785,785,785,786,786,786,788,790,790,790,790,790,790,790,790,790,790,791,792,792,792,792,793,793,793,793,793,793,793,793,794,794,797,797,801,804,855,919,990,1081,1098,1113,1130,1135,1139,1139,1140,1141,1138,1129,1115,1104],"ymouse":[534,535,535,536,536,537,537,537,538,538,538,538,538,540,541,542,545,551,556,558,560,562,563,569,571,573,573,573,573,574,574,574,575,575,575,575,575,575,575,575,575,575,575,575,575,575,572,536,497,461,409,396,370,312,269,237,212,190,161,144,126,110,96],"timestamp_mouse":[12,37,48,68,88,107,129,149,167,187,209,229,247,268,288,309,328,349,369,389,408,429,449,468,488,508,529,549,569,589,610,630,650,669,689,708,728,749,769,789,810,830,849,868,889,910,929,951,969,989,1008,1030,1049,1068,1089,1109,1129,1149,1170,1189,1208,1229,1249],"xSR":741.5,"ySR":469.95,"xT1":424.9,"yT1":0,"xT2":1058.1,"yT2":0,"toosoon":0,"cond_shown":"Incongruent","ratio_trial":300,"L_num":7,"L_den":10,"R_num":8,"R_den":20,"correct_side":1,"subjID":"Danielcobos9","gender":"0","school":"4","age":"9"},{"start_time":1552327265429,"click_time":1552327267012,"finger_time":1552327266472,"fix_duration":475.1968768428324,"trial":5,"RT":1043,"MT":540,"sideResp":2,"stimulus":[],"xmouse":[785,785,785,785,785,785,785,785,785,785,785,785,785,785,786,787,787,787,787,787,787,786,785,785,785,785,785,785,785,785,785,785,785,785,785,785,785,785,785,786,788,789,792,792,792,793,800,817,823,827,830,834,851,861,872,880,888,898,904,910,916,922,931,951,964,976,990,999,1018,1029,1033,1034,1034,1034,1035,1036,1038,1047,1055,1066],"ymouse":[519,519,519,519,519,519,519,519,519,519,519,519,518,516,515,515,515,515,515,515,515,516,517,517,517,517,517,517,517,517,517,518,519,519,519,519,519,519,519,519,519,518,516,516,516,515,511,506,504,503,502,498,485,476,466,457,447,431,421,406,395,380,366,325,303,282,258,241,210,191,183,178,172,170,167,164,156,130,113,94],"timestamp_mouse":[13,24,42,62,82,102,124,143,162,184,203,223,243,264,282,303,322,343,363,382,404,424,443,464,484,503,523,544,563,582,602,623,644,662,682,704,724,743,764,783,804,823,843,863,883,903,923,942,963,983,1003,1023,1043,1063,1083,1102,1123,1144,1163,1184,1203,1222,1243,1263,1283,1303,1324,1344,1363,1383,1404,1422,1444,1462,1482,1502,1522,1544,1562,1583],"xSR":741.5,"ySR":469.95,"xT1":424.9,"yT1":0,"xT2":1058.1,"yT2":0,"toosoon":0,"cond_shown":"Incongruent","ratio_trial":300,"L_num":4,"L_den":5,"R_num":8,"R_den":16,"correct_side":1,"subjID":"Danielcobos9","gender":"0","school":"4","age":"9"},{"start_time":1552327270864,"click_time":1552327273072,"finger_time":1552327272471,"fix_duration":250,"trial":6,"RT":1607,"MT":601,"sideResp":2,"stimulus":[],"xmouse":[789,789,789,789,789,789,789,789,789,789,789,789,789,789,789,789,789,789,789,789,789,789,791,792,792,792,792,792,792,792,792,792,792,792,792,792,792,792,792,792,792,790,788,788,788,788,788,788,788,788,788,788,788,788,788,788,788,788,788,788,788,788,788,789,790,791,791,791,790,788,787,787,787,787,787,788,808,815,820,826,830,836,839,842,844,849,867,880,890,900,907,911,912,915,919,931,950,962,975,989,1004,1033,1042,1048,1052,1053,1054,1056,1057,1058,1060],"ymouse":[551,550,550,549,548,548,548,547,547,547,547,546,546,546,546,546,546,546,546,546,546,546,547,547,547,547,549,554,559,561,561,561,561,561,561,561,561,561,561,562,563,565,566,566,566,566,566,566,566,566,566,566,566,566,566,566,566,566,566,566,566,566,566,565,565,563,558,555,553,550,550,549,549,549,548,547,525,515,504,486,465,420,398,375,351,319,269,244,221,201,189,185,183,180,176,169,161,156,149,141,132,117,110,105,101,100,96,90,88,85,83],"timestamp_mouse":[8,27,48,67,88,110,128,149,168,187,209,228,248,268,288,307,328,348,368,387,407,429,449,469,487,508,528,548,568,587,609,628,648,669,688,707,729,748,768,789,808,828,848,867,887,909,929,947,968,988,1008,1029,1047,1068,1087,1108,1129,1149,1168,1187,1208,1229,1247,1268,1289,1307,1328,1348,1367,1387,1407,1428,1449,1467,1487,1508,1527,1548,1568,1587,1607,1628,1647,1668,1688,1708,1727,1749,1769,1788,1808,1828,1847,1868,1889,1908,1927,1947,1969,1988,2008,2028,2047,2067,2087,2108,2127,2148,2167,2188,2208],"xSR":741.5,"ySR":469.95,"xT1":424.9,"yT1":0,"xT2":1058.1,"yT2":0,"toosoon":0,"cond_shown":"Incongruent","ratio_trial":300,"L_num":8,"L_den":10,"R_num":9,"R_den":18,"correct_side":1,"subjID":"Danielcobos9","gender":"0","school":"4","age":"9"},{"start_time":1552327275692,"click_time":1552327276552,"finger_time":1552327276051,"fix_duration":1018.3922020245344,"trial":7,"RT":359,"MT":501,"sideResp":1,"stimulus":[],"xmouse":[748,748,748,748,748,748,748,748,748,748,748,748,748,748,748,748,746,742,738,735,729,729,726,724,721,714,710,707,705,703,702,701,700,697,694,685,679,669,657,644,628,578,532,502],"ymouse":[545,545,545,545,545,545,545,545,545,545,545,545,545,545,545,542,532,520,508,500,489,486,481,474,467,453,445,438,433,429,423,410,404,391,385,371,363,350,336,320,298,213,135,89],"timestamp_mouse":[2,36,39,59,79,100,121,139,160,181,200,220,241,259,281,300,319,341,359,381,401,420,440,459,479,501,519,541,560,580,601,619,640,661,680,700,719,739,759,781,801,820,841,860],"xSR":741.5,"ySR":469.95,"xT1":424.9,"yT1":0,"xT2":1058.1,"yT2":0,"toosoon":0,"cond_shown":"Congruent","ratio_trial":100,"L_num":9,"L_den":15,"R_num":8,"R_den":16,"correct_side":1,"subjID":"Danielcobos9","gender":"0","school":"4","age":"9"},{"start_time":1552327279083,"click_time":1552327280571,"finger_time":1552327280112,"fix_duration":250,"trial":8,"RT":1029,"MT":459,"sideResp":1,"stimulus":[],"xmouse":[799,799,799,799,799,799,799,799,799,799,799,799,799,799,799,799,799,799,799,799,799,799,799,799,799,799,799,799,799,799,799,799,799,799,799,799,799,799,799,799,799,799,799,799,799,798,792,788,785,780,775,760,753,744,732,720,698,689,677,660,646,620,614,609,605,599,583,572,563,557,555,552,542,529,520],"ymouse":[532,532,532,532,532,532,532,532,532,532,532,532,532,532,532,532,532,532,532,532,532,532,532,532,532,532,532,532,532,532,532,532,532,532,532,532,532,532,532,532,532,532,532,532,531,528,522,518,511,503,494,461,444,424,403,383,349,331,305,274,249,208,200,193,188,180,159,144,134,127,125,120,109,90,76],"timestamp_mouse":[10,43,48,68,88,108,130,150,168,190,210,230,249,269,290,310,329,350,369,388,409,429,450,469,490,508,529,549,569,589,608,630,649,668,689,709,730,749,768,789,809,828,848,869,889,909,928,950,968,989,1009,1029,1049,1068,1088,1110,1128,1148,1169,1189,1208,1228,1248,1269,1288,1309,1328,1349,1369,1388,1410,1428,1449,1469,1488],"xSR":741.5,"ySR":469.95,"xT1":424.9,"yT1":0,"xT2":1058.1,"yT2":0,"toosoon":0,"cond_shown":"Congruent","ratio_trial":300,"L_num":20,"L_den":25,"R_num":5,"R_den":10,"correct_side":1,"subjID":"Danielcobos9","gender":"0","school":"4","age":"9"},{"start_time":1552327281982,"click_time":1552327284052,"finger_time":1552327283532,"fix_duration":369.19816850331034,"trial":9,"RT":1550,"MT":520,"sideResp":2,"stimulus":[],"xmouse":[773,773,778,786,799,806,813,815,816,816,816,816,816,816,816,816,816,816,816,816,816,816,816,816,816,816,816,816,816,816,815,815,815,815,815,815,815,815,815,815,815,815,815,815,815,815,815,815,815,815,815,815,815,815,815,815,815,815,815,815,815,815,815,815,815,815,815,815,815,814,812,811,811,811,811,811,841,878,928,980,1019,1067,1082,1090,1096,1098,1101,1102,1104,1105,1107,1110,1112,1112,1112,1112,1112,1112,1113,1113,1115,1116,1118,1119],"ymouse":[511,511,515,521,531,537,547,550,553,553,553,553,553,553,553,553,553,554,554,554,554,554,554,554,554,554,554,554,554,554,554,554,554,554,554,554,554,554,554,554,554,554,554,554,554,554,554,554,554,554,554,554,554,554,554,554,554,554,554,554,554,554,554,554,554,554,554,554,554,554,554,552,550,545,539,536,505,485,467,451,440,407,384,366,344,335,329,328,326,322,316,306,274,254,220,200,164,152,141,131,124,117,101,91],"timestamp_mouse":[19,29,50,71,91,110,130,150,169,189,210,229,251,270,291,311,329,350,371,390,410,430,451,470,491,510,529,551,570,590,609,630,651,670,690,711,730,750,771,790,811,829,850,870,891,911,929,951,971,990,1010,1029,1050,1070,1090,1111,1129,1150,1169,1190,1210,1229,1249,1270,1290,1310,1330,1350,1369,1390,1411,1430,1450,1470,1490,1510,1530,1550,1571,1589,1610,1631,1649,1671,1691,1711,1731,1750,1770,1791,1811,1831,1851,1869,1890,1910,1930,1950,1970,1991,2009,2031,2049,2069],"xSR":741.5,"ySR":469.95,"xT1":424.9,"yT1":0,"xT2":1058.1,"yT2":0,"toosoon":0,"cond_shown":"Incongruent","ratio_trial":100,"L_num":10,"L_den":25,"R_num":8,"R_den":16,"correct_side":2,"subjID":"Danielcobos9","gender":"0","school":"4","age":"9"},{"start_time":1552327287109,"click_time":1552327288872,"finger_time":1552327288411,"fix_duration":416.21842174188737,"trial":10,"RT":1302,"MT":461,"sideResp":2,"stimulus":[],"xmouse":[788,788,788,788,788,788,788,788,788,788,788,788,788,788,788,788,788,788,788,788,788,788,788,788,788,788,788,788,788,788,788,788,788,788,788,788,788,788,788,788,789,789,789,790,790,790,791,792,792,792,792,792,792,792,792,792,792,792,792,792,792,792,792,793,794,800,815,835,850,867,887,922,939,951,961,970,1000,1013,1027,1037,1044,1052,1053,1055,1056,1058,1061,1062,1063],"ymouse":[523,523,523,523,523,523,523,523,523,521,520,519,518,518,518,518,518,518,518,518,518,518,518,518,518,518,518,518,518,518,518,518,518,518,518,518,518,517,517,517,516,516,515,513,510,508,502,499,497,495,493,491,490,489,487,486,483,482,481,480,479,479,477,472,470,459,430,403,384,366,349,315,297,281,264,247,193,169,149,137,127,117,114,111,110,107,101,100,99],"timestamp_mouse":[12,37,43,64,83,103,123,144,164,182,203,224,243,263,284,302,322,344,364,384,402,422,442,464,483,503,524,542,562,584,604,623,642,662,684,704,724,744,762,783,803,823,843,864,884,902,923,944,962,983,1003,1023,1043,1064,1082,1102,1122,1142,1162,1183,1203,1224,1242,1262,1283,1302,1323,1343,1362,1384,1403,1422,1442,1462,1483,1504,1523,1544,1563,1583,1602,1623,1643,1663,1684,1703,1723,1744,1763],"xSR":741.5,"ySR":469.95,"xT1":424.9,"yT1":0,"xT2":1058.1,"yT2":0,"toosoon":0,"cond_shown":"Incongruent","ratio_trial":200,"L_num":7,"L_den":15,"R_num":6,"R_den":9,"correct_side":2,"subjID":"Danielcobos9","gender":"0","school":"4","age":"9"},{"start_time":1552327290224,"click_time":1552327291573,"finger_time":1552327291293,"fix_duration":250,"trial":11,"RT":1069,"MT":280,"sideResp":2,"stimulus":[],"xmouse":[779,779,779,779,779,779,778,778,778,778,778,778,778,778,778,778,778,778,778,778,778,778,778,778,778,778,778,778,778,778,778,778,778,778,778,778,778,778,778,778,778,778,778,778,778,778,778,778,778,779,795,809,827,849,876,911,921,932,943,958,979,991,1007,1029,1044,1064,1071,1079],"ymouse":[517,517,518,518,518,519,522,522,522,522,522,522,522,522,522,522,522,522,522,522,522,522,522,522,522,522,522,522,522,522,522,522,522,522,522,522,522,522,522,522,522,522,522,522,522,522,522,522,523,523,523,519,509,499,488,474,470,465,454,428,384,361,332,293,246,156,101,49],"timestamp_mouse":[11,37,48,67,88,109,128,148,168,187,207,228,249,267,289,309,328,349,369,387,408,427,447,467,489,513,529,548,568,589,607,627,648,668,688,707,728,748,767,789,807,827,848,867,887,907,927,949,967,988,1008,1028,1048,1069,1088,1107,1127,1147,1168,1188,1208,1228,1248,1269,1287,1309,1328,1349],"xSR":741.5,"ySR":469.95,"xT1":424.9,"yT1":0,"xT2":1058.1,"yT2":0,"toosoon":0,"cond_shown":"Congruent","ratio_trial":300,"L_num":1,"L_den":5,"R_num":3,"R_den":6,"correct_side":2,"subjID":"Danielcobos9","gender":"0","school":"4","age":"9"},{"start_time":1552327294321,"click_time":1552327295893,"finger_time":1552327295393,"fix_duration":1347.6577762473812,"trial":12,"RT":1072,"MT":500,"sideResp":2,"stimulus":[],"xmouse":[777,777,777,777,777,777,777,777,777,777,777,777,777,777,777,777,777,777,777,777,777,777,777,777,777,777,777,777,777,777,777,777,777,777,777,777,777,777,777,777,777,777,777,777,779,781,783,786,789,796,802,820,838,851,865,887,932,954,969,982,990,1005,1020,1030,1042,1053,1074,1087,1097,1102,1104,1107,1109,1109,1109,1109,1109,1109,1109],"ymouse":[515,515,515,515,515,515,515,515,515,515,515,515,515,515,515,515,515,515,515,515,515,515,515,515,515,515,515,515,515,515,515,515,515,515,515,515,515,515,515,515,515,515,515,515,515,515,515,515,515,512,509,497,483,472,462,446,415,402,395,389,383,374,366,362,357,351,335,320,307,294,283,257,231,214,194,171,130,111,95],"timestamp_mouse":[13,44,52,72,103,110,130,150,171,191,212,230,251,271,291,312,331,352,372,392,410,430,450,471,490,510,531,550,572,592,611,631,652,670,691,710,730,752,772,792,811,832,852,870,891,912,932,951,970,991,1011,1031,1051,1072,1090,1111,1131,1151,1170,1190,1210,1230,1251,1272,1291,1311,1332,1351,1370,1390,1412,1431,1451,1472,1491,1510,1531,1550,1571],"xSR":741.5,"ySR":469.95,"xT1":424.9,"yT1":0,"xT2":1058.1,"yT2":0,"toosoon":0,"cond_shown":"Congruent","ratio_trial":300,"L_num":2,"L_den":10,"R_num":12,"R_den":24,"correct_side":2,"subjID":"Danielcobos9","gender":"0","school":"4","age":"9"},{"start_time":1552327298643,"click_time":1552327300552,"finger_time":1552327300173,"fix_duration":1489.7972682514828,"trial":13,"RT":1530,"MT":379,"sideResp":1,"stimulus":[],"xmouse":[776,776,776,776,776,776,776,776,776,776,776,776,776,776,776,776,776,776,776,776,776,776,776,776,776,776,776,776,776,776,776,776,776,776,776,776,776,776,776,776,776,776,776,776,776,776,776,776,776,776,776,776,776,776,776,776,776,776,776,776,776,776,776,776,776,776,776,776,776,776,776,776,776,776,776,773,767,750,716,676,597,565,565,565,565,565,565,565,565,565,565,565,565,565,565,471],"ymouse":[536,536,536,536,536,536,536,536,536,536,536,536,536,536,536,536,536,536,536,535,535,535,535,535,535,535,535,535,535,535,535,535,535,535,535,535,535,535,535,535,535,535,535,535,535,535,535,535,535,535,535,535,535,535,535,535,535,535,535,535,535,535,535,535,535,535,535,535,535,535,535,535,535,534,526,484,451,391,308,219,66,7,7,7,7,7,7,7,7,7,7,7,7,7,7,5],"timestamp_mouse":[12,39,49,70,90,108,128,150,170,189,208,229,250,270,289,309,329,349,370,389,410,429,449,470,489,508,528,548,569,589,609,629,650,670,688,709,728,748,769,788,810,828,849,868,889,909,930,950,969,988,1009,1029,1049,1068,1090,1109,1129,1148,1169,1189,1208,1229,1250,1268,1288,1308,1330,1349,1370,1390,1408,1429,1449,1470,1490,1508,1530,1550,1569,1589,1609,1628,1649,1669,1688,1708,1729,1749,1769,1788,1809,1829,1848,1868,1888,1909],"xSR":741.5,"ySR":469.95,"xT1":424.9,"yT1":0,"xT2":1058.1,"yT2":0,"toosoon":0,"cond_shown":"Incongruent","ratio_trial":200,"L_num":7,"L_den":15,"R_num":6,"R_den":9,"correct_side":2,"subjID":"Danielcobos9","gender":"0","school":"4","age":"9"},{"start_time":1552327306501,"click_time":1552327307753,"finger_time":1552327307132,"fix_duration":927.7565223722104,"trial":14,"RT":631,"MT":621,"sideResp":2,"stimulus":[],"xmouse":[803,803,803,803,803,803,803,803,803,803,803,803,803,802,802,802,801,800,800,800,799,799,799,799,799,799,799,799,815,826,840,854,873,910,927,941,950,956,967,971,974,980,986,1002,1012,1027,1049,1076,1134,1150,1166,1178,1189,1206,1211,1214,1214,1214,1213,1208,1197,1179,1155],"ymouse":[546,546,546,546,546,546,546,545,545,545,545,544,544,539,536,533,530,526,525,524,522,521,519,518,518,518,517,516,510,508,504,500,497,484,477,467,460,454,433,428,422,413,402,371,347,315,278,241,177,160,145,130,116,93,85,80,78,78,78,78,78,71,60],"timestamp_mouse":[15,40,50,71,91,111,131,151,170,191,211,232,251,271,292,310,331,351,371,391,412,432,450,470,492,512,530,551,571,590,611,631,651,671,691,710,731,751,771,791,811,832,852,871,891,912,931,952,971,991,1012,1032,1051,1071,1091,1112,1131,1151,1171,1191,1210,1231,1252],"xSR":741.5,"ySR":469.95,"xT1":424.9,"yT1":0,"xT2":1058.1,"yT2":0,"toosoon":0,"cond_shown":"Incongruent","ratio_trial":100,"L_num":3,"L_den":5,"R_num":11,"R_den":22,"correct_side":1,"subjID":"Danielcobos9","gender":"0","school":"4","age":"9"},{"start_time":1552327308909,"click_time":1552327309913,"finger_time":1552327309451,"fix_duration":274.6825769717899,"trial":15,"RT":542,"MT":462,"sideResp":2,"stimulus":[],"xmouse":[767,767,767,767,767,767,767,767,767,767,767,767,767,767,767,767,767,767,767,767,767,767,767,767,767,767,764,757,753,751,754,761,788,831,879,905,912,932,940,940,940,940,940,950,981,998,1011,1031,1082,1103,1126],"ymouse":[494,494,494,494,494,494,494,494,494,494,494,494,494,494,494,494,494,494,494,494,492,492,492,489,483,474,471,468,467,466,463,458,440,414,380,359,353,331,315,314,314,314,309,296,259,237,218,195,140,108,77],"timestamp_mouse":[2,35,42,62,84,103,122,143,163,183,202,223,242,263,283,304,324,344,362,389,402,423,444,462,483,502,523,542,563,582,603,624,643,663,682,702,723,744,764,782,803,823,842,862,882,903,923,944,964,982,1003],"xSR":741.5,"ySR":469.95,"xT1":424.9,"yT1":0,"xT2":1058.1,"yT2":0,"toosoon":0,"cond_shown":"Incongruent","ratio_trial":300,"L_num":8,"L_den":10,"R_num":14,"R_den":28,"correct_side":1,"subjID":"Danielcobos9","gender":"0","school":"4","age":"9"},{"start_time":1552327313408,"click_time":1552327315651,"finger_time":1552327314512,"fix_duration":1053.5839618333464,"trial":16,"RT":1104,"MT":1139,"sideResp":2,"stimulus":[],"xmouse":[799,799,799,799,799,799,799,799,799,799,799,799,799,799,799,799,799,799,799,799,799,799,799,799,799,799,799,799,799,799,799,799,799,799,799,799,799,799,799,799,799,799,799,799,799,799,799,799,799,799,799,803,808,809,810,810,810,808,805,800,799,797,797,794,791,786,782,773,762,717,703,695,691,691,693,712,748,809,877,1031,1069,1088,1093,1095,1098,1101,1104,1107,1111,1127,1131,1133,1137,1145,1159,1162,1165,1168,1172,1182,1182,1182,1182,1182,1183,1183,1183,1182,1177,1168,1162,1156,1151],"ymouse":[536,536,536,536,536,536,536,536,536,536,536,536,536,536,536,536,536,536,536,536,536,536,536,536,536,536,536,536,536,536,536,536,536,536,536,536,536,536,536,536,536,536,536,536,536,536,536,536,536,536,532,521,509,500,470,451,434,418,401,391,387,384,380,377,368,362,349,328,303,220,195,181,175,175,178,195,225,274,322,434,459,467,468,467,460,457,454,451,448,437,431,426,415,393,333,307,287,272,256,206,193,185,179,176,172,170,167,163,151,131,118,106,97],"timestamp_mouse":[11,39,44,64,84,104,123,145,165,185,204,224,244,265,285,304,324,344,365,385,403,424,445,464,484,503,525,543,565,585,605,624,643,663,684,704,725,743,763,785,804,824,845,864,885,904,923,943,963,983,1004,1024,1044,1064,1085,1104,1125,1143,1163,1183,1204,1224,1244,1265,1283,1305,1324,1344,1365,1384,1403,1424,1445,1464,1483,1504,1523,1543,1564,1583,1604,1625,1644,1664,1683,1704,1725,1744,1765,1783,1803,1824,1843,1863,1883,1905,1923,1944,1964,1984,2004,2025,2044,2063,2084,2103,2123,2143,2164,2183,2203,2224,2243],"xSR":741.5,"ySR":469.95,"xT1":424.9,"yT1":0,"xT2":1058.1,"yT2":0,"toosoon":0,"cond_shown":"Incongruent","ratio_trial":100,"L_num":3,"L_den":9,"R_num":7,"R_den":30,"correct_side":1,"subjID":"Danielcobos9","gender":"0","school":"4","age":"9"},{"start_time":1552327316844,"click_time":1552327318133,"finger_time":1552327317191,"fix_duration":250,"trial":17,"RT":347,"MT":942,"sideResp":1,"stimulus":[],"xmouse":[776,776,776,776,779,781,784,787,789,791,792,792,793,794,794,795,796,791,785,780,777,773,759,751,741,730,726,716,710,705,699,692,673,659,644,623,614,606,606,606,606,606,606,606,606,605,603,596,588,574,558,542,527,526,526,526,526,526,526,526,526,526,526,525,522],"ymouse":[546,546,546,546,546,546,545,544,543,543,543,543,542,540,538,529,502,460,437,419,405,394,367,348,332,317,310,294,283,272,258,246,221,205,191,171,161,152,151,151,151,151,151,151,151,150,149,141,135,125,111,98,83,83,83,83,83,83,83,83,83,83,83,82,81],"timestamp_mouse":[20,27,48,68,88,108,129,148,169,187,208,229,248,267,288,309,328,347,367,388,407,428,448,467,488,509,528,548,568,588,608,628,647,667,688,709,728,747,768,789,807,829,848,868,888,908,927,948,967,988,1009,1028,1047,1067,1088,1108,1128,1148,1168,1187,1208,1227,1248,1267,1289],"xSR":741.5,"ySR":469.95,"xT1":424.9,"yT1":0,"xT2":1058.1,"yT2":0,"toosoon":0,"cond_shown":"Congruent","ratio_trial":300,"L_num":3,"L_den":6,"R_num":4,"R_den":5,"correct_side":2,"subjID":"Danielcobos9","gender":"0","school":"4","age":"9"},{"start_time":1552327320989,"click_time":1552327323432,"finger_time":1552327323072,"fix_duration":295.57199379301227,"trial":18,"RT":2083,"MT":360,"sideResp":2,"stimulus":[],"xmouse":[784,784,784,784,784,784,784,784,784,784,784,784,784,784,784,784,784,784,784,784,784,784,784,784,784,784,784,784,784,784,784,784,784,784,784,784,784,784,784,784,784,784,784,784,784,784,784,784,784,784,784,784,784,784,784,784,784,784,784,784,784,784,784,784,784,784,784,784,784,784,784,784,784,784,784,784,784,784,784,784,784,784,784,784,784,784,784,784,784,784,784,784,784,784,784,784,784,784,784,785,787,800,810,823,844,874,925,945,965,984,999,1016,1025,1036,1046,1055,1062,1062,1062,1062,1065,1073,1080],"ymouse":[507,507,507,507,509,510,511,512,512,512,512,512,512,512,512,512,512,512,514,514,514,514,514,514,514,514,514,514,514,514,514,514,514,514,514,514,514,514,514,514,514,514,514,514,514,514,514,514,514,514,514,514,514,514,514,514,514,514,514,514,514,514,514,514,514,514,514,514,514,514,514,514,514,514,514,514,514,514,514,514,514,514,514,514,514,514,514,514,514,514,514,514,514,514,514,514,514,514,514,514,514,514,510,502,488,466,421,401,383,367,350,316,293,262,229,198,153,142,135,130,122,102,85],"timestamp_mouse":[12,39,43,63,82,102,123,142,161,182,202,223,243,262,281,303,323,341,363,382,402,422,441,462,482,503,521,543,563,583,603,622,643,662,682,701,723,743,762,781,802,823,843,863,882,902,922,943,962,983,1001,1021,1042,1062,1083,1102,1122,1142,1163,1183,1201,1223,1242,1262,1281,1302,1323,1343,1362,1383,1403,1423,1442,1463,1483,1502,1523,1542,1562,1581,1602,1623,1643,1662,1683,1702,1722,1743,1762,1783,1803,1823,1842,1861,1883,1903,1922,1943,1963,1983,2002,2023,2042,2062,2083,2102,2122,2143,2161,2182,2202,2223,2243,2262,2283,2303,2322,2343,2362,2382,2402,2422,2443],"xSR":741.5,"ySR":469.95,"xT1":424.9,"yT1":0,"xT2":1058.1,"yT2":0,"toosoon":0,"cond_shown":"Congruent","ratio_trial":100,"L_num":3,"L_den":20,"R_num":4,"R_den":16,"correct_side":2,"subjID":"Danielcobos9","gender":"0","school":"4","age":"9"},{"start_time":1552327325968,"click_time":1552327328031,"finger_time":1552327327331,"fix_duration":1354.3245188948952,"trial":19,"RT":1363,"MT":700,"sideResp":1,"stimulus":[],"xmouse":[799,799,799,799,799,799,799,799,799,799,799,799,799,799,799,799,799,799,799,799,799,799,799,799,799,799,799,799,799,799,799,799,799,799,799,799,799,799,799,799,799,799,799,799,799,799,799,799,799,799,799,799,799,799,799,799,799,799,799,799,799,799,799,799,799,799,799,792,787,781,772,753,725,696,696,696,696,696,696,696,696,696,696,696,696,696,696,696,696,696,696,696,696,696,696,696,696,696,696,696,696,696,696,518],"ymouse":[502,502,502,502,502,502,502,502,502,502,502,502,502,502,502,502,502,502,502,502,502,502,502,503,503,503,503,503,503,503,503,503,503,503,503,503,503,503,503,503,503,503,503,503,503,503,503,503,503,503,503,503,503,503,503,503,503,503,503,503,503,503,503,503,503,503,500,471,438,387,319,229,129,8,8,8,8,8,8,8,8,8,8,8,8,8,8,8,8,8,8,8,8,8,8,8,8,8,8,8,8,8,8,1],"timestamp_mouse":[12,23,43,63,83,103,122,144,164,183,202,223,243,264,284,303,323,344,363,384,403,424,443,463,483,503,524,544,564,584,603,624,643,664,683,704,724,742,763,784,804,823,843,864,884,902,923,943,964,983,1003,1024,1044,1062,1083,1104,1123,1143,1163,1183,1203,1223,1243,1264,1283,1303,1323,1343,1363,1384,1403,1424,1444,1464,1484,1503,1524,1543,1563,1583,1604,1623,1644,1663,1684,1704,1724,1743,1764,1784,1804,1824,1843,1863,1884,1904,1923,1943,1963,1982,2002,2024,2043,2063],"xSR":741.5,"ySR":469.95,"xT1":424.9,"yT1":0,"xT2":1058.1,"yT2":0,"toosoon":0,"cond_shown":"Congruent","ratio_trial":200,"L_num":11,"L_den":22,"R_num":3,"R_den":10,"correct_side":1,"subjID":"Danielcobos9","gender":"0","school":"4","age":"9"},{"start_time":1552327331634,"click_time":1552327333371,"finger_time":1552327332892,"fix_duration":1320.940590557108,"trial":20,"RT":1258,"MT":479,"sideResp":2,"stimulus":[],"xmouse":[800,800,800,800,800,800,800,800,800,800,800,800,800,800,800,800,800,800,800,800,800,800,800,800,800,800,800,800,800,800,800,800,800,800,800,800,800,800,800,800,800,800,800,800,800,800,800,800,800,800,800,800,800,800,800,800,800,801,807,823,828,834,848,867,947,994,1040,1080,1119,1193,1209,1220,1226,1228,1229,1229,1229,1229,1229,1226,1213,1202,1189,1178,1169,1159,1157],"ymouse":[543,543,543,543,543,543,543,543,543,543,543,543,543,543,543,543,543,543,543,543,543,543,543,543,543,543,543,543,543,543,543,543,543,543,543,543,543,543,543,543,543,543,543,543,543,543,543,543,543,543,543,543,543,543,543,543,543,545,547,557,557,557,544,520,415,361,318,276,230,139,115,100,91,87,85,85,85,84,84,81,75,71,65,58,51,44,43],"timestamp_mouse":[16,46,57,77,97,116,138,157,176,198,216,237,257,278,298,317,337,358,377,398,418,438,456,478,498,518,538,558,578,597,617,637,657,676,698,718,737,758,777,798,816,838,856,878,896,917,938,956,977,998,1017,1038,1057,1077,1098,1117,1137,1158,1178,1197,1218,1237,1258,1277,1297,1317,1337,1356,1376,1396,1417,1438,1457,1477,1497,1517,1538,1556,1576,1597,1617,1637,1657,1676,1696,1717,1737],"xSR":741.5,"ySR":469.95,"xT1":424.9,"yT1":0,"xT2":1058.1,"yT2":0,"toosoon":0,"cond_shown":"Incongruent","ratio_trial":100,"L_num":3,"L_den":5,"R_num":11,"R_den":22,"correct_side":1,"subjID":"Danielcobos9","gender":"0","school":"4","age":"9"},{"start_time":1552327336643,"click_time":1552327339411,"finger_time":1552327338451,"fix_duration":250,"trial":21,"RT":1808,"MT":960,"sideResp":1,"stimulus":[],"xmouse":[822,822,822,822,822,822,822,822,822,822,822,822,822,822,822,822,822,822,822,822,822,822,822,821,821,821,820,820,820,820,820,820,820,820,820,820,820,820,820,820,820,820,820,820,820,820,820,820,820,820,820,820,820,820,820,820,820,820,820,820,820,820,820,820,820,820,820,820,820,820,820,820,820,820,820,820,820,820,820,820,820,820,820,821,823,826,829,831,835,838,840,840,836,828,799,780,752,724,688,656,600,582,574,571,571,571,569,569,567,564,556,551,549,547,546,544,542,539,538,538,538,538,538,538,538,536,536,536,536,536,536,536,536,536,536,534,530,525,518],"ymouse":[524,524,524,524,524,524,524,524,524,524,524,524,524,524,524,524,524,524,524,524,524,524,523,522,520,520,520,518,517,517,517,517,516,515,515,515,515,515,515,515,515,515,515,515,515,515,515,515,515,515,515,515,515,515,515,515,515,515,515,515,515,515,515,515,515,515,515,515,515,515,515,515,515,515,515,515,515,515,515,515,515,515,514,510,506,501,495,489,481,471,446,429,412,393,350,327,298,274,248,221,180,168,162,159,159,158,150,145,139,130,107,94,88,85,83,82,82,82,83,83,83,83,83,83,83,83,81,80,80,80,80,80,80,80,80,77,73,69,65],"timestamp_mouse":[20,46,48,69,88,108,129,148,169,188,207,228,248,267,289,308,327,349,368,388,409,428,448,468,488,509,529,549,569,588,608,628,649,668,689,709,729,749,768,787,809,829,849,868,888,909,929,949,969,987,1009,1028,1049,1068,1089,1108,1127,1148,1167,1189,1209,1229,1249,1268,1288,1308,1328,1347,1368,1389,1409,1428,1449,1469,1488,1508,1529,1548,1567,1589,1609,1629,1649,1668,1689,1708,1729,1749,1768,1788,1808,1828,1848,1869,1890,1908,1928,1949,1969,1988,2008,2028,2048,2068,2087,2108,2127,2149,2168,2188,2208,2228,2249,2268,2288,2308,2328,2348,2368,2389,2408,2428,2448,2469,2487,2507,2528,2549,2568,2589,2609,2629,2649,2668,2689,2708,2728,2749,2768],"xSR":741.5,"ySR":469.95,"xT1":424.9,"yT1":0,"xT2":1058.1,"yT2":0,"toosoon":0,"cond_shown":"Incongruent","ratio_trial":200,"L_num":9,"L_den":15,"R_num":8,"R_den":10,"correct_side":2,"subjID":"Danielcobos9","gender":"0","school":"4","age":"9"},{"start_time":1552327342788,"click_time":1552327343551,"finger_time":1552327343132,"fix_duration":1336.7584553700178,"trial":22,"RT":344,"MT":419,"sideResp":2,"stimulus":[],"xmouse":[769,770,770,772,773,773,774,774,774,774,774,775,776,779,783,803,813,861,1021,1130,1233,1309,1350,1389,1389,1389,1389,1389,1389,1389,1389,1389,1389,1389,1389,1389,1389,1389,1157],"ymouse":[498,497,497,494,492,491,490,490,490,490,490,489,488,485,484,476,473,453,344,256,163,91,53,4,4,4,4,4,4,4,4,4,4,4,4,4,4,4,6],"timestamp_mouse":[4,36,43,63,83,103,124,144,163,183,204,223,244,263,284,304,323,344,363,383,403,423,443,463,483,504,524,542,563,583,603,624,643,664,684,703,724,743,763],"xSR":741.5,"ySR":469.95,"xT1":424.9,"yT1":0,"xT2":1058.1,"yT2":0,"toosoon":0,"cond_shown":"Congruent","ratio_trial":100,"L_num":7,"L_den":14,"R_num":9,"R_den":15,"correct_side":2,"subjID":"Danielcobos9","gender":"0","school":"4","age":"9"},{"start_time":1552327350084,"click_time":1552327350731,"finger_time":1552327350671,"fix_duration":1192.4631838882683,"trial":23,"RT":587,"MT":60,"sideResp":1,"stimulus":[],"xmouse":[795,795,795,795,795,795,795,795,795,795,795,795,795,795,795,795,795,795,795,795,794,792,791,791,791,793,795,797,798,767,683,561,429],"ymouse":[545,545,545,545,545,545,545,545,545,545,545,545,545,545,545,545,545,545,545,547,548,552,553,554,555,555,555,553,551,469,357,202,31],"timestamp_mouse":[13,34,47,66,88,107,128,148,166,187,207,226,248,267,286,308,328,348,366,387,408,428,448,466,487,508,528,547,568,587,608,628,647],"xSR":741.5,"ySR":469.95,"xT1":424.9,"yT1":0,"xT2":1058.1,"yT2":0,"toosoon":0,"cond_shown":"Incongruent","ratio_trial":100,"L_num":8,"L_den":16,"R_num":6,"R_den":10,"correct_side":2,"subjID":"Danielcobos9","gender":"0","school":"4","age":"9"},{"start_time":1552327354774,"click_time":1552327356673,"finger_time":1552327356372,"fix_duration":362.5778029877854,"trial":24,"RT":1598,"MT":301,"sideResp":2,"stimulus":[],"xmouse":[782,782,782,782,782,782,782,782,782,782,782,782,782,782,782,782,782,782,782,782,782,782,782,782,782,782,782,782,782,782,782,782,782,782,782,782,782,782,782,782,782,782,782,782,782,782,782,782,782,782,782,782,782,782,782,782,782,782,782,782,782,782,782,782,782,782,782,782,782,782,782,782,782,782,782,784,792,807,835,939,1007,1111,1152,1176,1186,1186,1186,1186,1186,1186,1185,1182,1175,1163,1129],"ymouse":[530,530,530,530,530,530,530,530,530,530,530,530,530,530,530,530,530,530,530,530,530,530,530,530,530,530,530,530,530,530,530,530,530,530,530,530,530,530,530,530,530,530,530,530,530,530,530,530,530,530,530,530,530,530,530,530,530,530,530,530,530,530,530,530,530,530,530,530,530,530,530,530,530,530,530,530,526,514,492,420,372,300,271,246,231,231,231,231,231,231,214,196,178,152,95],"timestamp_mouse":[17,46,57,77,97,117,137,157,178,196,217,236,257,277,297,317,337,357,378,397,418,437,458,477,498,518,537,557,577,597,618,638,657,677,698,717,737,756,776,798,817,837,858,878,898,916,937,957,978,996,1016,1037,1056,1077,1097,1118,1137,1157,1178,1198,1218,1238,1257,1278,1297,1318,1337,1358,1377,1398,1418,1438,1457,1478,1496,1518,1537,1556,1577,1598,1616,1638,1657,1677,1699,1717,1737,1757,1778,1797,1817,1837,1858,1877,1899],"xSR":741.5,"ySR":469.95,"xT1":424.9,"yT1":0,"xT2":1058.1,"yT2":0,"toosoon":0,"cond_shown":"Congruent","ratio_trial":300,"L_num":1,"L_den":20,"R_num":7,"R_den":20,"correct_side":2,"subjID":"Danielcobos9","gender":"0","school":"4","age":"9"},{"start_time":1552327362177,"click_time":1552327364252,"finger_time":1552327362810,"fix_duration":564.4109394164175,"trial":25,"RT":633,"MT":1442,"sideResp":2,"stimulus":[],"xmouse":[767,767,767,767,767,767,767,767,767,767,767,767,767,767,767,767,767,767,767,767,767,767,767,767,767,766,764,762,760,758,752,751,751,751,751,765,775,780,783,785,786,786,786,786,786,786,786,785,783,782,774,771,768,766,764,764,764,764,765,765,771,775,783,790,798,810,840,873,907,940,980,989,998,1006,1013,1020,1030,1033,1033,1033,1033,1033,1035,1038,1038,1039,1039,1042,1043,1043,1044,1045,1045,1047,1049,1050,1052,1053,1054,1056,1058,1063,1068,1071],"ymouse":[544,544,544,544,544,544,544,544,544,544,544,544,544,544,544,544,544,544,544,544,544,544,544,544,544,545,546,548,550,554,567,571,574,575,576,580,581,582,582,581,581,581,581,581,581,581,576,567,559,547,528,520,515,509,505,504,500,499,497,495,488,484,478,473,467,460,443,420,382,331,246,218,199,183,173,163,135,120,118,118,118,117,118,121,121,121,121,120,119,118,116,116,114,112,112,111,111,111,111,109,109,105,101,98],"timestamp_mouse":[14,35,53,75,95,113,133,155,175,194,215,235,255,274,294,315,334,354,375,395,414,435,453,474,494,514,535,554,575,594,614,633,655,674,694,714,746,753,774,795,814,834,854,874,894,914,935,954,974,995,1016,1034,1054,1075,1095,1113,1134,1155,1175,1195,1214,1235,1254,1273,1294,1315,1334,1363,1375,1394,1415,1434,1454,1475,1494,1514,1535,1553,1575,1594,1615,1635,1654,1674,1695,1715,1734,1754,1774,1794,1815,1833,1854,1875,1894,1914,1935,1955,1974,1994,2013,2034,2054,2075],"xSR":741.5,"ySR":469.95,"xT1":424.9,"yT1":0,"xT2":1058.1,"yT2":0,"toosoon":0,"cond_shown":"Congruent","ratio_trial":200,"L_num":1,"L_den":2,"R_num":21,"R_den":30,"correct_side":2,"subjID":"Danielcobos9","gender":"0","school":"4","age":"9"},{"start_time":1552327368067,"click_time":1552327369911,"finger_time":1552327369251,"fix_duration":1353.5597016953132,"trial":26,"RT":1184,"MT":660,"sideResp":2,"stimulus":[],"xmouse":[797,797,797,797,797,797,797,797,797,797,797,797,797,797,797,797,797,797,797,797,797,797,797,797,797,797,797,797,797,797,797,797,797,797,797,797,797,797,797,797,797,797,797,797,797,797,797,797,797,797,797,797,797,798,801,801,803,811,820,843,855,914,971,1119,1193,1258,1332,1332,1332,1332,1332,1332,1332,1332,1332,1332,1332,1332,1340,1326,1321,1317,1316,1307,1298,1292,1284,1275,1273,1265,1249,1214,1101],"ymouse":[546,546,546,546,546,546,546,546,546,546,546,546,546,546,546,546,546,546,546,546,546,546,546,546,546,546,546,546,546,546,546,546,546,546,546,546,546,546,546,546,546,546,546,546,546,546,546,546,546,546,546,546,546,546,546,545,545,542,540,527,516,458,396,252,180,107,6,6,6,6,6,6,6,6,6,6,6,6,7,22,26,28,29,34,38,40,41,40,38,38,40,54,94],"timestamp_mouse":[13,24,44,64,85,105,124,143,163,185,204,224,245,265,283,304,324,344,365,385,405,424,444,464,485,504,524,543,565,585,605,623,644,664,685,704,725,744,765,783,804,825,844,865,885,905,924,944,963,985,1004,1024,1044,1065,1085,1105,1123,1144,1164,1184,1205,1223,1244,1264,1285,1304,1325,1344,1364,1385,1405,1424,1444,1463,1484,1504,1524,1545,1565,1584,1604,1624,1644,1664,1684,1704,1725,1744,1764,1784,1805,1824,1844],"xSR":741.5,"ySR":469.95,"xT1":424.9,"yT1":0,"xT2":1058.1,"yT2":0,"toosoon":0,"cond_shown":"Congruent","ratio_trial":100,"L_num":4,"L_den":8,"R_num":6,"R_den":10,"correct_side":2,"subjID":"Danielcobos9","gender":"0","school":"4","age":"9"},{"start_time":1552327373702,"click_time":1552327375431,"finger_time":1552327375051,"fix_duration":350.2148096152489,"trial":27,"RT":1349,"MT":380,"sideResp":1,"stimulus":[],"xmouse":[790,790,790,790,789,789,789,789,789,789,789,789,789,789,789,789,791,792,792,792,792,792,792,792,792,792,792,792,792,792,792,793,793,793,793,793,793,793,794,794,794,794,794,796,798,798,798,798,798,798,798,798,798,798,798,798,798,798,798,798,798,798,798,798,798,798,793,784,761,721,663,527,482,460,458,458,457,457,457,457,457,457,457,457,457,457,458],"ymouse":[546,546,546,546,546,546,546,546,546,546,545,544,543,542,539,538,530,530,529,528,527,526,523,520,518,517,517,517,517,517,516,514,514,514,514,514,514,514,512,512,512,512,512,509,507,506,506,506,506,506,506,506,506,506,506,506,506,506,506,506,506,506,506,506,506,505,477,449,405,335,259,148,122,114,113,113,113,113,113,113,113,113,113,113,112,111,96],"timestamp_mouse":[10,41,49,70,89,110,130,150,168,190,210,229,250,269,289,309,330,350,369,390,410,429,449,469,489,510,530,549,570,590,609,629,650,670,689,710,728,749,770,789,809,830,849,870,890,909,930,949,970,990,1010,1029,1049,1069,1089,1109,1130,1148,1170,1189,1209,1230,1250,1270,1289,1309,1330,1349,1369,1389,1409,1429,1449,1469,1490,1509,1529,1549,1570,1589,1610,1629,1650,1669,1690,1709,1728],"xSR":741.5,"ySR":469.95,"xT1":424.9,"yT1":0,"xT2":1058.1,"yT2":0,"toosoon":0,"cond_shown":"Congruent","ratio_trial":300,"L_num":18,"L_den":20,"R_num":9,"R_den":15,"correct_side":1,"subjID":"Danielcobos9","gender":"0","school":"4","age":"9"},{"start_time":1552327377400,"click_time":1552327380591,"finger_time":1552327378831,"fix_duration":1308.1187142836036,"trial":28,"RT":1431,"MT":1760,"sideResp":1,"stimulus":[],"xmouse":[769,769,769,769,769,769,770,770,770,771,771,771,771,771,771,771,771,771,771,771,771,771,771,772,772,772,772,772,773,774,774,774,774,774,775,775,775,775,775,775,775,775,775,775,775,776,776,777,777,777,777,777,777,777,777,777,777,777,777,777,777,777,777,779,779,780,784,792,802,826,841,868,875,881,883,884,884,884,882,880,873,845,821,794,759,718,677,665,657,642,631,597,586,580,579,578,577,575,572,566,562,559,554,549,547,543,539,537,537,537,537,537,537,536,536,534,528,527,527,527,527,527,527,527,527,527,527,527,526,526,524,523,523,523,523,523,522,521,521,520,519,515,514,513,513,513,513,513,513,513,513,513,513,513,513,513,513,513,513,512],"ymouse":[503,503,503,503,503,503,504,505,505,506,506,506,506,506,506,506,506,506,506,506,506,506,506,507,507,507,507,507,507,507,507,507,507,507,507,507,507,507,507,507,507,507,507,507,507,506,506,506,506,506,506,506,506,506,506,506,506,506,506,506,506,506,506,505,504,504,501,498,493,479,470,447,434,422,412,404,398,387,383,379,374,362,352,339,324,307,283,274,267,250,236,197,182,171,165,158,150,142,138,130,126,121,118,115,113,111,108,107,107,107,107,107,107,107,107,106,103,102,102,102,102,102,102,102,102,102,102,102,102,102,100,100,100,100,100,100,100,100,100,100,100,100,100,100,100,100,100,100,100,100,100,100,100,100,100,100,100,100,100,99],"timestamp_mouse":[13,39,51,72,91,112,130,151,171,191,210,231,252,271,290,310,331,352,372,392,411,431,452,471,492,510,531,551,572,591,612,630,652,671,691,712,731,752,771,791,811,831,851,871,892,911,931,951,971,992,1011,1031,1051,1072,1092,1112,1131,1152,1172,1191,1212,1231,1252,1272,1292,1311,1331,1352,1372,1392,1410,1431,1451,1471,1492,1511,1532,1552,1571,1592,1611,1631,1651,1672,1691,1711,1732,1750,1772,1792,1811,1832,1851,1871,1891,1911,1932,1951,1971,1991,2010,2031,2051,2072,2092,2112,2132,2150,2170,2191,2212,2232,2251,2272,2292,2311,2332,2351,2372,2391,2412,2431,2452,2471,2492,2512,2532,2550,2572,2591,2612,2631,2651,2671,2691,2712,2733,2751,2771,2791,2812,2831,2850,2871,2891,2912,2931,2951,2976,2990,3010,3031,3051,3071,3091,3112,3131,3150,3171,3191],"xSR":741.5,"ySR":469.95,"xT1":424.9,"yT1":0,"xT2":1058.1,"yT2":0,"toosoon":0,"cond_shown":"Incongruent","ratio_trial":100,"L_num":11,"L_den":22,"R_num":9,"R_den":15,"correct_side":2,"subjID":"Danielcobos9","gender":"0","school":"4","age":"9"},{"start_time":1552327385104,"click_time":1552327386311,"finger_time":1552327385432,"fix_duration":250,"trial":29,"RT":328,"MT":879,"sideResp":1,"stimulus":[],"xmouse":[810,810,810,810,810,810,807,805,804,801,798,797,796,801,809,819,829,839,839,839,839,840,840,841,841,841,841,842,843,843,843,844,844,844,844,844,844,840,829,801,789,760,695,669,650,635,623,607,603,601,597,591,586,585,584,584,583,569,555,533,500],"ymouse":[565,565,565,565,563,554,549,542,540,537,533,532,529,520,505,488,465,414,391,368,348,332,309,306,303,302,302,300,300,298,296,294,294,294,294,294,293,288,279,258,249,225,160,135,113,101,91,81,80,80,80,80,80,80,80,80,80,77,71,61,48],"timestamp_mouse":[12,35,48,68,89,108,128,147,168,188,208,228,247,267,288,308,328,349,368,388,407,427,447,469,488,508,528,548,568,587,608,627,647,667,687,708,728,748,768,787,808,829,848,869,888,909,928,948,968,989,1007,1027,1047,1069,1088,1108,1129,1147,1168,1187,1207],"xSR":741.5,"ySR":469.95,"xT1":424.9,"yT1":0,"xT2":1058.1,"yT2":0,"toosoon":0,"cond_shown":"Incongruent","ratio_trial":300,"L_num":13,"L_den":26,"R_num":12,"R_den":15,"correct_side":2,"subjID":"Danielcobos9","gender":"0","school":"4","age":"9"},{"start_time":1552327392636,"click_time":1552327394432,"finger_time":1552327393933,"fix_duration":1261.1036758382138,"trial":30,"RT":1297,"MT":499,"sideResp":1,"stimulus":[],"xmouse":[798,798,798,798,798,798,798,798,798,798,798,798,798,798,798,798,798,798,798,798,798,798,798,798,798,798,798,798,798,798,798,798,798,798,798,798,798,798,798,798,798,798,798,798,798,798,798,800,801,804,807,808,808,808,808,808,805,801,798,794,791,786,782,776,769,759,731,716,696,678,657,632,624,617,614,612,610,608,606,604,602,600,597,591,584,574,553,542,534,524],"ymouse":[518,518,518,518,518,518,518,518,518,518,518,518,518,518,518,518,518,518,518,518,518,518,518,518,518,518,518,518,518,518,518,518,518,518,518,518,518,518,518,518,518,518,518,518,518,518,518,517,515,512,507,506,506,506,506,505,504,503,502,501,500,496,492,481,465,442,370,330,272,219,146,89,70,61,58,57,54,51,47,44,42,41,41,40,38,38,33,33,33,34],"timestamp_mouse":[15,37,55,77,96,115,135,156,177,197,215,235,256,276,297,317,336,355,376,397,417,435,455,476,497,516,537,555,575,595,616,637,655,676,695,715,737,756,776,797,816,836,855,877,896,916,935,956,976,997,1017,1036,1056,1075,1095,1116,1137,1155,1176,1196,1216,1236,1256,1276,1297,1316,1336,1356,1377,1396,1417,1435,1455,1476,1496,1516,1536,1555,1577,1597,1617,1637,1655,1675,1695,1716,1736,1757,1777,1796],"xSR":741.5,"ySR":469.95,"xT1":424.9,"yT1":0,"xT2":1058.1,"yT2":0,"toosoon":0,"cond_shown":"Incongruent","ratio_trial":200,"L_num":7,"L_den":15,"R_num":4,"R_den":6,"correct_side":2,"subjID":"Danielcobos9","gender":"0","school":"4","age":"9"},{"start_time":1552327401747,"click_time":1552327403792,"finger_time":1552327402891,"fix_duration":273.09353463640474,"trial":31,"RT":1144,"MT":901,"sideResp":2,"stimulus":[],"xmouse":[809,809,809,809,809,809,809,809,809,809,809,809,809,809,809,809,809,809,809,809,809,809,809,809,809,809,809,809,809,809,809,809,809,809,809,809,809,809,809,809,809,809,809,809,809,809,812,814,814,814,814,814,814,816,823,833,839,844,844,844,844,844,844,844,844,844,844,844,844,844,844,844,844,862,928,1019,1100,1192,1218,1245,1276,1287,1294,1297,1295,1291,1287,1271,1258,1239,1218,1182,1149,1144,1141,1139,1138,1136,1136,1134,1132,1132,1129],"ymouse":[532,532,532,532,532,532,532,532,532,532,532,532,532,532,532,532,532,532,532,532,532,532,532,532,532,532,532,532,532,532,532,532,532,532,532,532,532,532,532,532,532,532,532,532,532,532,532,532,532,532,532,532,532,533,538,541,544,546,546,546,546,546,546,546,546,546,546,546,546,546,546,546,546,538,498,447,409,351,333,316,298,293,290,277,261,244,232,211,200,187,176,151,138,136,136,136,136,135,132,127,118,112,86],"timestamp_mouse":[12,25,44,65,86,105,125,145,166,185,205,225,245,266,284,305,324,345,364,385,406,426,445,465,484,505,525,546,565,586,605,625,644,664,686,705,725,744,764,786,805,825,846,866,884,905,925,945,966,985,1005,1025,1045,1065,1086,1105,1124,1144,1165,1184,1205,1226,1245,1266,1285,1305,1325,1344,1364,1386,1406,1424,1444,1465,1485,1505,1525,1545,1565,1586,1606,1625,1644,1665,1685,1706,1725,1744,1765,1786,1805,1824,1845,1865,1885,1905,1925,1945,1964,1984,2004,2025,2045],"xSR":741.5,"ySR":469.95,"xT1":424.9,"yT1":0,"xT2":1058.1,"yT2":0,"toosoon":0,"cond_shown":"Congruent","ratio_trial":300,"L_num":1,"L_den":5,"R_num":3,"R_den":6,"correct_side":2,"subjID":"Danielcobos9","gender":"0","school":"4","age":"9"},{"start_time":1552327405508,"click_time":1552327407293,"finger_time":1552327406913,"fix_duration":1053.2663729216633,"trial":32,"RT":1405,"MT":380,"sideResp":1,"stimulus":[],"xmouse":[780,780,780,780,780,780,780,780,780,780,780,780,780,780,780,780,780,780,780,780,780,780,780,780,780,780,780,780,780,780,780,780,780,780,780,780,780,780,780,780,780,780,780,780,780,780,780,780,780,780,780,780,780,780,780,780,780,780,780,780,780,780,780,780,780,780,780,780,783,782,749,650,572,546,546,546,546,546,546,546,546,546,546,546,546,348,360,374,391,429],"ymouse":[536,536,536,536,536,536,536,536,536,536,536,536,536,536,536,536,536,536,536,536,536,536,536,536,536,536,536,536,536,536,536,536,536,536,536,536,536,536,536,536,536,536,536,536,536,536,536,536,536,536,536,536,536,536,536,536,536,536,536,536,536,536,536,536,536,536,536,536,529,475,382,195,84,36,36,36,36,36,36,36,36,36,36,36,36,6,21,36,49,67],"timestamp_mouse":[13,43,43,64,84,103,125,144,165,184,205,224,244,263,285,304,323,343,364,384,405,423,444,464,485,505,525,543,565,584,605,623,645,664,684,705,724,744,765,785,804,825,844,864,884,905,925,943,964,985,1004,1024,1043,1064,1084,1103,1124,1144,1165,1184,1204,1224,1244,1264,1285,1304,1324,1344,1364,1385,1405,1423,1443,1463,1485,1503,1524,1544,1564,1583,1603,1624,1645,1665,1684,1703,1725,1745,1764,1784],"xSR":741.5,"ySR":469.95,"xT1":424.9,"yT1":0,"xT2":1058.1,"yT2":0,"toosoon":0,"cond_shown":"Incongruent","ratio_trial":200,"L_num":6,"L_den":20,"R_num":3,"R_den":6,"correct_side":2,"subjID":"Danielcobos9","gender":"0","school":"4","age":"9"},{"start_time":1552327413717,"click_time":1552327415432,"finger_time":1552327415011,"fix_duration":1203.343542698729,"trial":33,"RT":1294,"MT":421,"sideResp":2,"stimulus":[],"xmouse":[786,786,786,786,786,789,792,797,801,803,803,803,803,803,803,803,803,803,803,803,803,803,803,803,803,803,803,803,803,803,803,803,803,803,803,803,803,803,803,803,803,803,803,803,803,803,803,803,803,803,803,805,807,809,816,820,821,823,824,825,826,828,831,837,845,858,861,861,861,861,861,863,869,879,915,942,1001,1041,1077,1125,1131,1132,1132,1132,1132,1132],"ymouse":[509,509,509,509,509,509,509,509,510,511,511,511,511,511,511,511,511,511,511,511,511,511,511,511,511,511,511,511,511,511,511,511,511,511,511,511,511,511,511,511,511,511,511,511,511,511,511,511,511,511,511,511,511,511,510,508,507,505,504,504,503,501,496,489,477,448,428,421,417,417,415,411,403,391,346,314,258,224,198,164,157,151,145,139,129,94],"timestamp_mouse":[17,37,54,76,96,115,135,156,175,194,215,236,256,275,296,314,335,356,375,395,415,435,456,476,494,516,534,555,576,594,614,635,655,675,695,716,735,754,775,794,816,835,856,875,894,914,935,956,974,996,1016,1036,1054,1075,1095,1116,1135,1155,1175,1196,1215,1235,1256,1275,1294,1316,1336,1355,1375,1395,1415,1435,1455,1475,1496,1515,1535,1554,1575,1596,1614,1636,1656,1676,1695,1715],"xSR":741.5,"ySR":469.95,"xT1":424.9,"yT1":0,"xT2":1058.1,"yT2":0,"toosoon":0,"cond_shown":"Incongruent","ratio_trial":200,"L_num":7,"L_den":10,"R_num":12,"R_den":24,"correct_side":1,"subjID":"Danielcobos9","gender":"0","school":"4","age":"9"},{"start_time":1552327421443,"click_time":1552327423133,"finger_time":1552327422472,"fix_duration":250,"trial":34,"RT":1029,"MT":661,"sideResp":2,"stimulus":[],"xmouse":[786,786,786,786,786,786,786,786,786,786,786,786,786,786,786,786,786,786,786,786,786,786,786,786,786,786,786,786,786,786,786,786,786,786,786,786,786,786,786,786,786,786,786,786,786,786,786,786,786,789,830,857,899,942,988,1009,1024,1039,1045,1047,1047,1047,1047,1047,1047,1046,1042,1035,1024,1016,1013,1014,1019,1026,1031,1038,1039,1039,1039,1042,1048,1051,1054,1058,1062],"ymouse":[555,555,555,555,555,555,555,555,555,555,555,555,555,555,555,555,555,555,555,555,555,555,555,555,555,555,555,555,555,555,555,555,555,555,555,555,555,555,555,555,555,555,555,555,555,555,555,555,555,555,536,519,495,461,396,372,353,321,298,263,256,252,249,248,247,238,217,187,146,120,103,99,95,91,87,82,81,81,81,81,81,79,77,72,67],"timestamp_mouse":[9,29,50,68,88,108,129,150,168,188,208,229,250,268,289,309,329,349,370,388,409,429,449,470,489,509,529,550,569,589,608,630,650,668,689,710,728,750,769,788,810,830,850,869,888,908,928,950,970,989,1010,1029,1049,1068,1090,1108,1129,1150,1169,1189,1209,1228,1250,1270,1290,1310,1329,1350,1370,1389,1410,1430,1450,1468,1489,1510,1530,1550,1570,1589,1608,1629,1649,1668,1689],"xSR":741.5,"ySR":469.95,"xT1":424.9,"yT1":0,"xT2":1058.1,"yT2":0,"toosoon":0,"cond_shown":"Congruent","ratio_trial":100,"L_num":4,"L_den":10,"R_num":15,"R_den":30,"correct_side":2,"subjID":"Danielcobos9","gender":"0","school":"4","age":"9"},{"start_time":1552327425764,"click_time":1552327427432,"finger_time":1552327427192,"fix_duration":250,"trial":35,"RT":1428,"MT":240,"sideResp":2,"stimulus":[],"xmouse":[783,783,783,783,783,783,783,783,783,783,783,783,783,783,783,783,783,783,783,783,783,783,783,783,783,783,783,783,783,783,783,783,783,783,783,783,783,783,783,783,783,783,783,783,783,783,783,783,783,783,783,783,783,783,783,783,783,783,783,783,783,783,783,783,783,783,783,783,788,819,833,849,868,899,954,972,988,1004,1016,1053,1064,1074,1084,1093],"ymouse":[511,511,511,511,511,511,511,511,511,511,511,511,511,511,511,511,511,511,511,511,511,511,511,511,511,511,511,511,511,511,511,511,511,511,511,511,511,511,511,511,511,511,511,511,511,511,511,511,511,511,511,511,511,511,511,511,511,511,511,511,511,511,511,511,511,511,511,509,506,483,471,452,427,392,328,302,279,257,237,170,147,127,104,82],"timestamp_mouse":[13,37,48,67,87,108,128,147,168,187,207,228,249,268,289,309,328,348,369,389,407,428,449,469,488,508,529,547,569,588,609,627,649,667,687,709,728,749,769,788,808,829,847,869,888,908,929,949,969,988,1007,1029,1048,1067,1089,1108,1128,1149,1169,1189,1207,1227,1248,1267,1288,1309,1328,1348,1368,1388,1408,1428,1448,1468,1489,1508,1529,1549,1567,1588,1608,1628,1648,1668],"xSR":741.5,"ySR":469.95,"xT1":424.9,"yT1":0,"xT2":1058.1,"yT2":0,"toosoon":0,"cond_shown":"Incongruent","ratio_trial":300,"L_num":7,"L_den":10,"R_num":8,"R_den":20,"correct_side":1,"subjID":"Danielcobos9","gender":"0","school":"4","age":"9"},{"start_time":1552327433140,"click_time":1552327434693,"finger_time":1552327434653,"fix_duration":525.966206841375,"trial":36,"RT":1513,"MT":40,"sideResp":1,"stimulus":[],"xmouse":[783,783,784,784,784,784,784,784,784,784,784,784,784,784,784,784,784,784,784,784,784,784,784,784,784,784,784,784,784,784,784,784,784,784,784,784,784,784,784,784,784,784,784,784,784,784,784,784,784,784,784,784,784,784,784,784,784,784,784,784,784,784,784,784,784,784,784,784,784,784,784,784,782,778,764,660,539,467],"ymouse":[537,537,537,537,537,537,537,537,537,537,537,537,537,537,537,537,537,537,537,537,537,537,537,537,537,537,537,537,537,537,537,537,537,537,537,537,537,537,537,537,537,537,537,537,537,537,537,537,537,537,537,537,537,537,537,537,537,537,537,537,537,537,537,537,537,537,537,537,537,537,537,537,533,526,493,299,140,66],"timestamp_mouse":[12,36,53,72,91,113,133,151,172,192,213,232,251,273,293,313,333,352,372,393,412,431,452,473,493,513,533,552,573,593,613,632,652,671,692,712,732,753,773,791,812,831,853,873,892,911,931,952,973,993,1013,1032,1052,1073,1091,1111,1132,1151,1173,1193,1212,1232,1253,1273,1292,1312,1332,1352,1372,1393,1413,1431,1452,1473,1493,1513,1532,1552],"xSR":741.5,"ySR":469.95,"xT1":424.9,"yT1":0,"xT2":1058.1,"yT2":0,"toosoon":0,"cond_shown":"Incongruent","ratio_trial":200,"L_num":7,"L_den":15,"R_num":6,"R_den":9,"correct_side":2,"subjID":"Danielcobos9","gender":"0","school":"4","age":"9"},{"start_time":1552327439948,"click_time":1552327441853,"finger_time":1552327441252,"fix_duration":1096.8426303528995,"trial":37,"RT":1304,"MT":601,"sideResp":1,"stimulus":[],"xmouse":[820,820,820,820,820,820,820,820,820,820,820,820,820,820,820,820,820,820,820,823,823,823,823,823,823,823,823,823,823,823,823,823,823,823,823,823,823,823,823,823,823,823,823,823,823,823,823,823,823,823,823,823,823,823,823,823,823,823,823,823,823,821,816,809,802,795,769,751,729,713,703,696,683,680,677,677,668,654,636,621,609,593,538,517,504,496,492,492,492,492,492,492,492,492,492,490],"ymouse":[549,549,549,549,549,549,549,549,549,549,549,549,549,549,549,549,549,549,549,549,549,549,549,549,549,549,549,549,549,549,549,549,549,549,549,549,549,549,549,549,549,549,549,549,549,549,549,549,549,549,549,549,549,549,549,549,549,549,549,547,544,529,513,494,483,469,425,393,360,341,329,320,301,297,294,294,281,255,228,205,190,172,134,123,118,115,113,113,113,113,113,113,113,111,106,92],"timestamp_mouse":[13,37,44,64,84,105,125,144,165,185,203,223,244,263,284,305,324,344,365,384,403,424,445,463,483,505,524,544,563,585,604,624,645,665,684,703,724,745,763,785,804,824,845,864,883,905,924,944,963,983,1003,1025,1045,1064,1084,1105,1124,1144,1163,1184,1205,1225,1244,1265,1284,1304,1324,1343,1364,1385,1404,1425,1443,1463,1483,1504,1525,1544,1564,1585,1604,1623,1643,1664,1684,1704,1725,1744,1764,1784,1805,1824,1844,1864,1885,1905],"xSR":741.5,"ySR":469.95,"xT1":424.9,"yT1":0,"xT2":1058.1,"yT2":0,"toosoon":0,"cond_shown":"Congruent","ratio_trial":100,"L_num":11,"L_den":22,"R_num":4,"R_den":10,"correct_side":1,"subjID":"Danielcobos9","gender":"0","school":"4","age":"9"},{"start_time":1552327444591,"click_time":1552327446072,"finger_time":1552327445872,"fix_duration":1337.9334539556796,"trial":38,"RT":1281,"MT":200,"sideResp":1,"stimulus":[],"xmouse":[790,790,790,790,790,790,790,790,790,790,790,790,790,790,790,790,790,790,790,790,790,790,790,790,790,790,790,790,790,790,790,790,790,790,790,790,790,790,790,790,790,790,790,790,790,790,790,790,790,790,790,790,790,790,790,790,790,790,790,790,788,783,775,763,744,691,653,622,577,563,503,491,483,476,472],"ymouse":[501,501,501,501,501,501,501,501,501,501,501,501,501,501,501,501,501,501,501,501,501,501,501,501,501,501,501,501,501,501,501,501,501,501,501,501,501,501,501,501,501,501,501,501,501,501,501,501,501,501,501,501,501,501,501,501,501,501,501,501,501,496,488,473,455,402,366,329,266,244,156,135,117,105,97],"timestamp_mouse":[9,36,42,62,81,102,121,141,161,181,201,220,242,261,281,300,322,341,362,381,402,422,441,462,481,502,520,542,562,581,601,621,641,661,681,702,722,742,760,782,800,821,842,861,881,902,921,942,961,981,1001,1021,1041,1062,1082,1101,1122,1142,1162,1181,1201,1222,1240,1262,1281,1301,1322,1342,1360,1382,1401,1422,1441,1461,1481],"xSR":741.5,"ySR":469.95,"xT1":424.9,"yT1":0,"xT2":1058.1,"yT2":0,"toosoon":0,"cond_shown":"Incongruent","ratio_trial":200,"L_num":11,"L_den":20,"R_num":3,"R_den":4,"correct_side":2,"subjID":"Danielcobos9","gender":"0","school":"4","age":"9"},{"start_time":1552327462061,"click_time":1552327463213,"finger_time":1552327462593,"fix_duration":526.2766376413997,"trial":39,"RT":532,"MT":620,"sideResp":1,"stimulus":[],"xmouse":[816,816,816,816,816,816,816,816,816,816,816,816,816,816,816,816,817,817,818,818,818,818,818,818,819,819,818,810,798,790,784,775,768,746,730,709,689,669,636,624,612,603,591,574,571,570,569,569,569,569,568,564,560,549,541,534,526,515],"ymouse":[505,505,505,505,505,505,505,505,505,505,505,505,505,505,505,505,504,503,498,498,498,498,496,493,484,473,459,435,402,380,362,345,335,323,316,309,296,286,251,237,223,214,200,178,173,171,170,170,170,169,165,156,148,123,111,103,92,79],"timestamp_mouse":[11,40,52,71,90,110,132,151,172,190,211,232,252,272,292,311,331,351,371,392,411,432,451,471,491,510,532,552,571,591,611,632,652,671,691,710,730,751,771,791,811,831,852,871,892,912,931,951,972,991,1011,1031,1051,1070,1090,1112,1131,1152],"xSR":741.5,"ySR":469.95,"xT1":424.9,"yT1":0,"xT2":1058.1,"yT2":0,"toosoon":0,"cond_shown":"Congruent","ratio_trial":300,"L_num":11,"L_den":22,"R_num":1,"R_den":5,"correct_side":1,"subjID":"Danielcobos9","gender":"0","school":"4","age":"9"},{"start_time":1552327465323,"click_time":1552327466653,"finger_time":1552327466232,"fix_duration":250,"trial":40,"RT":909,"MT":421,"sideResp":2,"stimulus":[],"xmouse":[796,796,796,796,796,796,796,797,797,797,797,797,797,797,797,797,797,797,798,801,810,810,810,810,810,810,810,810,810,810,810,810,810,810,810,810,810,810,810,810,810,810,810,814,817,829,836,848,864,891,937,955,971,979,988,1012,1024,1038,1038,1038,1038,1038,1038,1038,1038,1038,1065],"ymouse":[531,531,531,531,531,529,527,525,523,521,517,517,516,516,515,514,514,513,512,509,501,501,501,501,501,501,501,501,501,501,501,501,501,501,501,501,501,501,501,501,501,501,500,491,478,441,416,385,318,246,169,149,124,109,94,50,28,4,4,4,4,4,4,4,4,4,13],"timestamp_mouse":[10,42,48,68,89,109,129,150,170,189,210,230,250,270,290,310,328,349,370,390,408,429,450,470,490,509,530,550,569,590,609,629,650,669,690,710,730,750,770,789,809,830,849,869,889,909,928,949,969,989,1011,1029,1049,1069,1089,1109,1128,1149,1169,1190,1209,1228,1248,1269,1288,1309,1330],"xSR":741.5,"ySR":469.95,"xT1":424.9,"yT1":0,"xT2":1058.1,"yT2":0,"toosoon":0,"cond_shown":"Congruent","ratio_trial":200,"L_num":3,"L_den":10,"R_num":7,"R_den":14,"correct_side":2,"subjID":"Danielcobos9","gender":"0","school":"4","age":"9"},{"start_time":1552327470314,"click_time":1552327472452,"finger_time":1552327471632,"fix_duration":960.4385900161168,"trial":41,"RT":1318,"MT":820,"sideResp":2,"stimulus":[],"xmouse":[772,772,772,772,772,772,772,772,772,772,772,772,772,772,772,772,772,772,772,772,772,772,772,772,772,772,772,772,772,772,772,772,772,772,772,772,772,772,772,772,772,772,772,772,772,772,772,772,772,772,772,772,772,772,773,773,773,773,773,773,773,775,777,781,788,797,823,835,845,850,854,863,872,883,892,901,916,921,927,933,941,957,968,981,995,1007,1026,1032,1035,1036,1038,1038,1038,1038,1038,1038,1038,1039,1040,1043,1049,1055,1056,1056,1056,1056,1060],"ymouse":[522,522,522,522,522,522,522,522,522,522,522,522,522,522,522,522,522,522,522,522,522,522,522,522,522,522,522,522,522,522,522,522,522,522,522,522,522,522,522,522,522,522,522,522,522,522,522,522,522,522,522,522,522,522,522,522,522,522,522,522,522,517,510,498,481,460,417,403,395,391,384,354,333,308,287,270,242,232,222,213,202,188,178,168,159,150,135,129,124,121,118,117,117,117,117,117,116,113,112,108,102,96,96,96,96,96,96],"timestamp_mouse":[19,39,58,79,99,118,138,158,178,199,218,239,259,278,299,319,337,359,378,399,418,439,458,478,499,518,537,559,579,599,617,639,659,679,699,717,739,758,778,798,819,838,857,879,899,919,938,957,979,999,1018,1039,1057,1079,1099,1119,1138,1158,1178,1198,1218,1238,1258,1277,1298,1318,1338,1357,1378,1398,1418,1438,1459,1478,1498,1518,1538,1558,1578,1598,1618,1638,1659,1678,1698,1719,1738,1757,1779,1798,1818,1838,1858,1877,1897,1918,1938,1958,1979,1998,2018,2038,2057,2078,2099,2119,2138],"xSR":741.5,"ySR":469.95,"xT1":424.9,"yT1":0,"xT2":1058.1,"yT2":0,"toosoon":0,"cond_shown":"Incongruent","ratio_trial":100,"L_num":9,"L_den":15,"R_num":13,"R_den":26,"correct_side":1,"subjID":"Danielcobos9","gender":"0","school":"4","age":"9"},{"start_time":1552327479928,"click_time":1552327482532,"finger_time":1552327481252,"fix_duration":1155.1454102468958,"trial":42,"RT":1324,"MT":1280,"sideResp":1,"stimulus":[],"xmouse":[799,801,801,801,802,803,804,804,804,804,804,804,804,804,804,804,804,804,804,803,803,803,803,803,804,804,804,804,804,804,804,804,804,804,804,804,804,804,804,804,804,804,804,804,804,804,804,804,805,807,808,810,816,819,821,823,824,826,826,826,826,825,821,813,804,793,763,713,690,672,655,641,617,601,585,572,560,553,553,553,551,550,547,545,542,540,539,539,539,539,539,539,531,507,498,493,493,487,483,479,479,479,479,482,496,516,523,529,