[{"start_time":1552328003213,"click_time":1552328007063,"finger_time":1552328003222,"fix_duration":1050.0939974149076,"trial":0,"RT":9,"MT":3841,"sideResp":2,"stimulus":"img/500/equaldotanddens/L/13_Ratio_500_L_12_R_6.png","xmouse":[786,786,786,786,786,786,786,786,786,786,786,786,786,786,786,786,786,786,786,786,786,786,786,786,786,786,786,786,786,786,786,786,786,786,786,786,786,786,786,785,778,764,759,756,755,755,758,760,763,764,768,769,770,770,770,770,770,770,770,771,771,771,771,772,772,772,772,772,772,772,772,772,772,772,772,772,768,758,749,737,731,725,719,715,704,686,667,659,656,653,650,636,630,622,617,608,600,599,599,599,599,599,599,599,599,599,599,599,599,599,599,599,599,599,599,599,599,599,599,600,606,625,636,647,659,681,714,729,741,752,763,796,819,843,866,890,907,914,918,924,930,952,971,989,1005,1013,1016,1016,1016,1017,1019,1024,1024,1024,1024,1024,1024,1024,1026,1030,1033,1035,1036,1036,1036,1037,1037,1037,1037,1037,1037,1037,1037,1039,1039,1044,1048,1048,1049,1049,1050,1050,1051,1051,1051,1051,1052,1052,1053,1053,1055,1056,1059],"ymouse":[528,528,528,528,528,528,528,528,528,528,528,528,528,528,528,528,528,528,528,528,528,528,528,528,528,528,528,528,528,528,528,528,528,528,528,528,528,528,528,532,543,568,581,589,592,593,595,595,597,599,609,612,614,614,614,615,615,615,615,615,615,615,615,615,615,615,615,615,615,615,615,615,615,615,615,615,602,580,552,501,444,333,289,241,203,156,121,110,106,103,99,89,85,79,76,73,71,71,71,71,71,71,71,71,71,71,71,71,71,71,71,71,71,71,71,71,71,71,71,71,71,71,71,71,71,71,71,71,71,71,71,71,70,67,64,60,59,59,58,58,58,57,57,59,61,61,61,61,61,61,61,61,61,61,61,61,61,61,61,61,61,61,61,61,61,61,61,61,61,61,61,61,61,61,61,61,61,61,61,61,61,61,61,61,61,61,61,61,61,61,61,61,61],"timestamp_mouse":[9,28,48,69,88,109,128,148,168,188,208,229,248,268,290,308,328,349,368,390,409,428,448,468,488,510,528,549,569,589,609,629,649,668,689,709,728,749,769,788,809,828,849,868,889,909,929,948,969,988,1010,1028,1049,1069,1089,1109,1129,1149,1169,1189,1209,1229,1248,1268,1288,1310,1328,1349,1368,1389,1409,1429,1449,1469,1489,1508,1528,1548,1568,1589,1608,1628,1648,1668,1688,1708,1728,1749,1769,1789,1809,1828,1848,1869,1889,1908,1928,1949,1969,1989,2009,2029,2049,2069,2088,2109,2129,2149,2169,2189,2209,2229,2249,2269,2289,2309,2329,2348,2368,2388,2408,2428,2448,2468,2489,2508,2528,2548,2569,2589,2609,2628,2648,2669,2689,2709,2729,2749,2770,2789,2808,2828,2848,2868,2888,2908,2929,2949,2969,2989,3008,3028,3048,3069,3088,3109,3129,3148,3168,3188,3209,3228,3248,3269,3289,3308,3329,3349,3369,3389,3409,3428,3449,3468,3489,3508,3528,3548,3569,3588,3608,3628,3648,3669,3689,3709,3728,3748,3768,3788,3808,3828,3850],"xSR":741.5,"ySR":469.95,"xT1":424.9,"yT1":0,"xT2":1058.1,"yT2":0,"toosoon":0,"cond_shown":"equaldotanddens","ratio_trial":500,"smaller_num":"6","larger_num":"12","correct_side":1,"subjID":"DanielPabon26","gender":"0","age":"8","school":"4","test":{"fix_dur":[250,1500],"timestim":300,"targets_dim":[100,100],"targets_relative_coord":[0.3,0.7],"size_stim":[880,420],"start_dim":[100,100],"size_start":[300,300],"size_fix":60,"samplingrate":20,"img_types":["equaldotsize","equaldotanddens","randomdotsizeEA"],"ratios":[250,500,750,900],"rep_conds":9,"nTrials":120,"trials_to_rest":500,"Trials_order":[76,94,29,80,108,41,36,60,66,111,118,17,62,67,30,11,101,1,103,117,102,99,38,105,42,0,9,104,57,91,83,114,21,46,3,27,19,64,85,116,79,26,54,47,39,8,55,44,32,4,113,88,100,14,45,73,86,28,110,65,81,43,74,51,61,34,20,90,92,115,35,63,40,68,59,82,13,84,52,78,69,96,7,89,56,50,5,2,18,97,72,31,70,119,53,37,23,95,16,24,93,6,107,15,87,12,98,71,58,77,109,25,106,49,48,10,75,112,33,22],"cond_shown":["equaldotanddens","equaldotanddens","randomdotsizeEA","randomdotsizeEA","equaldotsize","randomdotsizeEA","equaldotsize","equaldotsize","equaldotsize","equaldotsize","equaldotanddens","randomdotsizeEA","randomdotsizeEA","equaldotanddens","equaldotsize","randomdotsizeEA","randomdotsizeEA","equaldotanddens","equaldotanddens","equaldotsize","equaldotsize","equaldotsize","randomdotsizeEA","equaldotsize","equaldotsize","equaldotsize","equaldotsize","randomdotsizeEA","equaldotsize","equaldotanddens","randomdotsizeEA","equaldotsize","equaldotsize","equaldotanddens","equaldotsize","equaldotsize","equaldotanddens","equaldotanddens","equaldotanddens","randomdotsizeEA","equaldotanddens","randomdotsizeEA","equaldotsize","randomdotsizeEA","equaldotsize","randomdotsizeEA","equaldotanddens","randomdotsizeEA","randomdotsizeEA","equaldotanddens","randomdotsizeEA","equaldotanddens","equaldotanddens","randomdotsizeEA","equaldotsize","equaldotanddens","randomdotsizeEA","equaldotanddens","randomdotsizeEA","randomdotsizeEA","equaldotsize","equaldotanddens","randomdotsizeEA","equaldotsize","equaldotanddens","equaldotanddens","randomdotsizeEA","equaldotsize","randomdotsizeEA","equaldotanddens","randomdotsizeEA","equaldotsize","equaldotanddens","randomdotsizeEA","randomdotsizeEA","equaldotanddens","equaldotanddens","equaldotsize","equaldotanddens","equaldotsize","equaldotsize","equaldotsize","equaldotanddens","randomdotsizeEA","randomdotsizeEA","randomdotsizeEA","randomdotsizeEA","randomdotsizeEA","equaldotsize","equaldotanddens","equaldotsize","equaldotanddens","equaldotanddens","randomdotsizeEA","randomdotsizeEA","equaldotanddens","randomdotsizeEA","randomdotsizeEA","equaldotanddens","equaldotsize","equaldotsize","equaldotsize","randomdotsizeEA","equaldotsize","equaldotsize","equaldotsize","randomdotsizeEA","randomdotsizeEA","equaldotanddens","randomdotsizeEA","equaldotanddens","equaldotanddens","equaldotanddens","equaldotanddens","equaldotsize","equaldotanddens","equaldotsize","equaldotanddens","equaldotsize","equaldotanddens"],"ratio_trial":[500,900,500,750,250,500,250,250,750,500,900,500,250,750,750,900,500,250,750,900,750,500,250,900,750,250,900,750,900,750,900,750,900,900,500,500,750,500,250,750,750,250,750,900,500,750,750,750,750,500,500,500,500,250,900,250,250,500,250,500,900,750,250,500,250,900,750,750,750,750,900,500,500,750,900,900,250,250,500,750,900,250,750,500,750,250,500,250,750,250,250,750,900,900,500,250,900,900,500,250,900,750,900,500,500,250,250,900,900,500,250,250,900,250,250,900,500,500,900,900],"smaller_num":["6","9","9","15","5","2","3","2","6","10","18","9","6","18","3","18","1","2","12","18","6","6","6","18","9","2","9","12","18","6","18","12","9","18","9","10","18","6","6","15","15","3","15","18","5","6","6","6","15","4","1","9","2","3","9","5","6","4","4","6","18","6","4","2","2","9","18","3","15","3","9","2","6","6","18","9","2","3","1","15","9","3","3","1","15","3","3","2","3","6","2","15","18","9","1","3","18","9","4","4","9","6","9","9","6","3","2","18","18","4","3","3","18","6","6","18","9","2","18","18"],"larger_num":["12","10","18","20","20","4","12","8","8","20","20","18","24","24","4","20","2","8","16","20","8","12","24","20","12","8","10","16","20","8","20","16","10","20","18","20","24","12","24","20","20","12","20","20","10","8","8","8","20","8","2","18","4","12","10","20","24","8","16","12","20","8","16","4","8","10","24","4","20","4","10","4","12","8","20","10","8","12","2","20","10","12","4","2","20","12","6","8","4","24","8","20","20","10","2","12","20","10","8","16","10","8","10","18","12","12","8","20","20","8","12","12","20","24","24","20","18","4","20","20"],"correct_side":[1,1,2,2,2,1,1,1,1,2,1,1,1,1,1,1,2,2,2,2,2,1,1,1,2,1,2,2,2,1,1,2,2,1,2,2,1,1,2,2,2,2,2,2,2,1,2,1,2,1,2,1,2,2,2,2,1,1,2,1,2,2,1,1,1,2,1,2,1,1,2,1,1,2,2,2,1,1,2,1,2,1,2,2,2,2,2,2,2,1,1,1,1,1,2,2,1,2,1,2,1,1,1,2,1,2,1,1,1,1,2,1,1,2,2,2,1,1,1,2],"img_shown":["img/500/equaldotanddens/L/13_Ratio_500_L_12_R_6.png","img/900/equaldotanddens/L/1_Ratio_900_L_10_R_9.png","img/500/randomdotsizeEA/R/6_Ratio_500_L_9_R_18.png","img/750/randomdotsizeEA/R/3_Ratio_750_L_15_R_20.png","img/250/equaldotsize/R/12_Ratio_250_L_5_R_20.png","img/500/randomdotsizeEA/L/5_Ratio_500_L_4_R_2.png","img/250/equaldotsize/L/15_Ratio_250_L_12_R_3.png","img/250/equaldotsize/L/7_Ratio_250_L_8_R_2.png","img/750/equaldotsize/L/14_Ratio_750_L_8_R_6.png","img/500/equaldotsize/R/3_Ratio_500_L_10_R_20.png","img/900/equaldotanddens/L/8_Ratio_900_L_20_R_18.png","img/500/randomdotsizeEA/L/4_Ratio_500_L_18_R_9.png","img/250/randomdotsizeEA/L/5_Ratio_250_L_24_R_6.png","img/750/equaldotanddens/L/6_Ratio_750_L_24_R_18.png","img/750/equaldotsize/L/8_Ratio_750_L_4_R_3.png","img/900/randomdotsizeEA/L/4_Ratio_900_L_20_R_18.png","img/500/randomdotsizeEA/R/12_Ratio_500_L_1_R_2.png","img/250/equaldotanddens/R/13_Ratio_250_L_2_R_8.png","img/750/equaldotanddens/R/11_Ratio_750_L_12_R_16.png","img/900/equaldotsize/R/12_Ratio_900_L_18_R_20.png","img/750/equaldotsize/R/2_Ratio_750_L_6_R_8.png","img/500/equaldotsize/L/13_Ratio_500_L_12_R_6.png","img/250/randomdotsizeEA/L/5_Ratio_250_L_24_R_6.png","img/900/equaldotsize/L/8_Ratio_900_L_20_R_18.png","img/750/equaldotsize/R/15_Ratio_750_L_9_R_12.png","img/250/equaldotsize/L/7_Ratio_250_L_8_R_2.png","img/900/equaldotsize/R/3_Ratio_900_L_9_R_10.png","img/750/randomdotsizeEA/R/11_Ratio_750_L_12_R_16.png","img/900/equaldotsize/R/13_Ratio_900_L_18_R_20.png","img/750/equaldotanddens/L/14_Ratio_750_L_8_R_6.png","img/900/randomdotsizeEA/L/8_Ratio_900_L_20_R_18.png","img/750/equaldotsize/R/11_Ratio_750_L_12_R_16.png","img/900/equaldotsize/R/3_Ratio_900_L_9_R_10.png","img/900/equaldotanddens/L/2_Ratio_900_L_20_R_18.png","img/500/equaldotsize/R/6_Ratio_500_L_9_R_18.png","img/500/equaldotsize/R/3_Ratio_500_L_10_R_20.png","img/750/equaldotanddens/L/6_Ratio_750_L_24_R_18.png","img/500/equaldotanddens/L/11_Ratio_500_L_12_R_6.png","img/250/equaldotanddens/R/6_Ratio_250_L_6_R_24.png","img/750/randomdotsizeEA/R/4_Ratio_750_L_15_R_20.png","img/750/equaldotanddens/R/4_Ratio_750_L_15_R_20.png","img/250/randomdotsizeEA/R/4_Ratio_250_L_3_R_12.png","img/750/equaldotsize/R/3_Ratio_750_L_15_R_20.png","img/900/randomdotsizeEA/R/12_Ratio_900_L_18_R_20.png","img/500/equaldotsize/R/14_Ratio_500_L_5_R_10.png","img/750/randomdotsizeEA/L/13_Ratio_750_L_8_R_6.png","img/750/equaldotanddens/R/2_Ratio_750_L_6_R_8.png","img/750/randomdotsizeEA/L/14_Ratio_750_L_8_R_6.png","img/750/randomdotsizeEA/R/5_Ratio_750_L_15_R_20.png","img/500/equaldotanddens/L/8_Ratio_500_L_8_R_4.png","img/500/randomdotsizeEA/R/12_Ratio_500_L_1_R_2.png","img/500/equaldotanddens/L/4_Ratio_500_L_18_R_9.png","img/500/equaldotanddens/R/9_Ratio_500_L_2_R_4.png","img/250/randomdotsizeEA/R/9_Ratio_250_L_3_R_12.png","img/900/equaldotsize/R/15_Ratio_900_L_9_R_10.png","img/250/equaldotanddens/R/12_Ratio_250_L_5_R_20.png","img/250/randomdotsizeEA/L/5_Ratio_250_L_24_R_6.png","img/500/equaldotanddens/L/8_Ratio_500_L_8_R_4.png","img/250/randomdotsizeEA/R/10_Ratio_250_L_4_R_16.png","img/500/randomdotsizeEA/L/13_Ratio_500_L_12_R_6.png","img/900/equaldotsize/R/14_Ratio_900_L_18_R_20.png","img/750/equaldotanddens/R/2_Ratio_750_L_6_R_8.png","img/250/randomdotsizeEA/L/2_Ratio_250_L_16_R_4.png","img/500/equaldotsize/L/5_Ratio_500_L_4_R_2.png","img/250/equaldotanddens/L/3_Ratio_250_L_8_R_2.png","img/900/equaldotanddens/R/15_Ratio_900_L_9_R_10.png","img/750/randomdotsizeEA/L/6_Ratio_750_L_24_R_18.png","img/750/equaldotsize/R/12_Ratio_750_L_3_R_4.png","img/750/randomdotsizeEA/L/1_Ratio_750_L_20_R_15.png","img/750/equaldotanddens/L/9_Ratio_750_L_4_R_3.png","img/900/randomdotsizeEA/R/3_Ratio_900_L_9_R_10.png","img/500/equaldotsize/L/10_Ratio_500_L_4_R_2.png","img/500/equaldotanddens/L/13_Ratio_500_L_12_R_6.png","img/750/randomdotsizeEA/R/2_Ratio_750_L_6_R_8.png","img/900/randomdotsizeEA/R/14_Ratio_900_L_18_R_20.png","img/900/equaldotanddens/R/7_Ratio_900_L_9_R_10.png","img/250/equaldotanddens/L/1_Ratio_250_L_8_R_2.png","img/250/equaldotsize/L/15_Ratio_250_L_12_R_3.png","img/500/equaldotanddens/R/12_Ratio_500_L_1_R_2.png","img/750/equaldotsize/L/1_Ratio_750_L_20_R_15.png","img/900/equaldotsize/R/7_Ratio_900_L_9_R_10.png","img/250/equaldotsize/L/14_Ratio_250_L_12_R_3.png","img/750/equaldotanddens/R/7_Ratio_750_L_3_R_4.png","img/500/randomdotsizeEA/R/12_Ratio_500_L_1_R_2.png","img/750/randomdotsizeEA/R/3_Ratio_750_L_15_R_20.png","img/250/randomdotsizeEA/R/4_Ratio_250_L_3_R_12.png","img/500/randomdotsizeEA/R/2_Ratio_500_L_3_R_6.png","img/250/randomdotsizeEA/R/13_Ratio_250_L_2_R_8.png","img/750/equaldotsize/R/12_Ratio_750_L_3_R_4.png","img/250/equaldotanddens/L/5_Ratio_250_L_24_R_6.png","img/250/equaldotsize/L/1_Ratio_250_L_8_R_2.png","img/750/equaldotanddens/L/1_Ratio_750_L_20_R_15.png","img/900/equaldotanddens/L/8_Ratio_900_L_20_R_18.png","img/900/randomdotsizeEA/L/1_Ratio_900_L_10_R_9.png","img/500/randomdotsizeEA/R/12_Ratio_500_L_1_R_2.png","img/250/equaldotanddens/R/4_Ratio_250_L_3_R_12.png","img/900/randomdotsizeEA/L/10_Ratio_900_L_20_R_18.png","img/900/randomdotsizeEA/R/15_Ratio_900_L_9_R_10.png","img/500/equaldotanddens/L/8_Ratio_500_L_8_R_4.png","img/250/equaldotsize/R/10_Ratio_250_L_4_R_16.png","img/900/equaldotsize/L/1_Ratio_900_L_10_R_9.png","img/750/equaldotsize/L/13_Ratio_750_L_8_R_6.png","img/900/randomdotsizeEA/L/1_Ratio_900_L_10_R_9.png","img/500/equaldotsize/R/1_Ratio_500_L_9_R_18.png","img/500/equaldotsize/L/13_Ratio_500_L_12_R_6.png","img/250/equaldotsize/R/9_Ratio_250_L_3_R_12.png","img/250/randomdotsizeEA/L/1_Ratio_250_L_8_R_2.png","img/900/randomdotsizeEA/L/4_Ratio_900_L_20_R_18.png","img/900/equaldotanddens/L/8_Ratio_900_L_20_R_18.png","img/500/randomdotsizeEA/L/8_Ratio_500_L_8_R_4.png","img/250/equaldotanddens/R/4_Ratio_250_L_3_R_12.png","img/250/equaldotanddens/L/15_Ratio_250_L_12_R_3.png","img/900/equaldotanddens/L/8_Ratio_900_L_20_R_18.png","img/250/equaldotanddens/R/6_Ratio_250_L_6_R_24.png","img/250/equaldotsize/R/6_Ratio_250_L_6_R_24.png","img/900/equaldotanddens/R/14_Ratio_900_L_18_R_20.png","img/500/equaldotsize/L/4_Ratio_500_L_18_R_9.png","img/500/equaldotanddens/L/10_Ratio_500_L_4_R_2.png","img/900/equaldotsize/L/4_Ratio_900_L_20_R_18.png","img/900/equaldotanddens/R/11_Ratio_900_L_18_R_20.png"],"Rat0":[["12_Ratio_0_L_9_R_0.png","13_Ratio_0_L_6_R_0.png","5_Ratio_0_L_2_R_0.png","6_Ratio_0_L_4_R_0.png","8_Ratio_0_L_6_R_0.png"],["1_Ratio_0_L_0_R_17.png","10_Ratio_0_L_0_R_22.png","11_Ratio_0_L_0_R_1.png","14_Ratio_0_L_0_R_24.png","15_Ratio_0_L_0_R_4.png","2_Ratio_0_L_0_R_5.png","3_Ratio_0_L_0_R_17.png","4_Ratio_0_L_0_R_7.png","7_Ratio_0_L_0_R_19.png","9_Ratio_0_L_0_R_15.png"]],"Rat250":[["1_Ratio_250_L_8_R_2.png","14_Ratio_250_L_12_R_3.png","15_Ratio_250_L_12_R_3.png","2_Ratio_250_L_16_R_4.png","3_Ratio_250_L_8_R_2.png","5_Ratio_250_L_24_R_6.png","7_Ratio_250_L_8_R_2.png"],["10_Ratio_250_L_4_R_16.png","11_Ratio_250_L_3_R_12.png","12_Ratio_250_L_5_R_20.png","13_Ratio_250_L_2_R_8.png","4_Ratio_250_L_3_R_12.png","6_Ratio_250_L_6_R_24.png","8_Ratio_250_L_1_R_4.png","9_Ratio_250_L_3_R_12.png"]],"Rat500":[["10_Ratio_500_L_4_R_2.png","11_Ratio_500_L_12_R_6.png","13_Ratio_500_L_12_R_6.png","4_Ratio_500_L_18_R_9.png","5_Ratio_500_L_4_R_2.png","7_Ratio_500_L_10_R_5.png","8_Ratio_500_L_8_R_4.png"],["1_Ratio_500_L_9_R_18.png","12_Ratio_500_L_1_R_2.png","14_Ratio_500_L_5_R_10.png","15_Ratio_500_L_1_R_2.png","2_Ratio_500_L_3_R_6.png","3_Ratio_500_L_10_R_20.png","6_Ratio_500_L_9_R_18.png","9_Ratio_500_L_2_R_4.png"]],"Rat750":[["1_Ratio_750_L_20_R_15.png","10_Ratio_750_L_4_R_3.png","13_Ratio_750_L_8_R_6.png","14_Ratio_750_L_8_R_6.png","6_Ratio_750_L_24_R_18.png","8_Ratio_750_L_4_R_3.png","9_Ratio_750_L_4_R_3.png"],["11_Ratio_750_L_12_R_16.png","12_Ratio_750_L_3_R_4.png","15_Ratio_750_L_9_R_12.png","2_Ratio_750_L_6_R_8.png","3_Ratio_750_L_15_R_20.png","4_Ratio_750_L_15_R_20.png","5_Ratio_750_L_15_R_20.png","7_Ratio_750_L_3_R_4.png"]],"Rat900":[["1_Ratio_900_L_10_R_9.png","10_Ratio_900_L_20_R_18.png","2_Ratio_900_L_20_R_18.png","4_Ratio_900_L_20_R_18.png","8_Ratio_900_L_20_R_18.png"],["11_Ratio_900_L_18_R_20.png","12_Ratio_900_L_18_R_20.png","13_Ratio_900_L_18_R_20.png","14_Ratio_900_L_18_R_20.png","15_Ratio_900_L_9_R_10.png","3_Ratio_900_L_9_R_10.png","5_Ratio_900_L_9_R_10.png","6_Ratio_900_L_9_R_10.png","7_Ratio_900_L_9_R_10.png","9_Ratio_900_L_18_R_20.png"]],"Rat1000":[["10_Ratio_1000_L_16_R_16.png","11_Ratio_1000_L_6_R_6.png","12_Ratio_1000_L_14_R_14.png","13_Ratio_1000_L_20_R_20.png","15_Ratio_1000_L_15_R_15.png","2_Ratio_1000_L_17_R_17.png","4_Ratio_1000_L_9_R_9.png","5_Ratio_1000_L_6_R_6.png","6_Ratio_1000_L_19_R_19.png","8_Ratio_1000_L_14_R_14.png","9_Ratio_1000_L_25_R_25.png"],["1_Ratio_1000_L_1_R_1.png","14_Ratio_1000_L_17_R_17.png","3_Ratio_1000_L_17_R_17.png","7_Ratio_1000_L_6_R_6.png"]]}},{"start_time":1552328010242,"click_time":1552328011302,"finger_time":1552328011001,"fix_duration":1378.6047114620505,"trial":1,"RT":759,"MT":301,"sideResp":2,"stimulus":"img/900/equaldotanddens/L/1_Ratio_900_L_10_R_9.png","xmouse":[787,787,787,787,787,787,787,787,787,787,787,787,787,787,787,787,787,787,787,787,787,787,787,787,787,787,787,787,787,787,787,787,787,788,791,795,803,828,884,979,1017,1050,1132,1150,1159,1159,1160,1161,1162,1163,1163,1162,1157],"ymouse":[590,590,590,590,590,590,590,590,590,590,590,590,590,590,591,591,591,591,591,591,591,591,591,591,591,591,591,591,591,591,591,591,591,591,591,591,588,571,528,408,342,281,178,136,112,111,110,106,100,73,52,38,27],"timestamp_mouse":[32,39,59,80,100,120,140,159,180,200,220,239,260,279,300,320,341,360,380,400,419,440,459,479,500,520,540,559,580,600,619,640,661,679,700,719,740,759,779,799,820,840,860,879,899,919,939,959,980,999,1019,1040,1059],"xSR":741.5,"ySR":573.95,"xT1":424.9,"yT1":0,"xT2":1058.1,"yT2":0,"toosoon":0,"cond_shown":"equaldotanddens","ratio_trial":900,"smaller_num":"9","larger_num":"10","correct_side":1,"subjID":"DanielPabon26","gender":"0","age":"8","school":"4"},{"start_time":1552328012456,"click_time":1552328014582,"finger_time":1552328013281,"fix_duration":253.24048703475287,"trial":2,"RT":825,"MT":1301,"sideResp":1,"stimulus":"img/500/randomdotsizeEA/R/6_Ratio_500_L_9_R_18.png","xmouse":[790,790,790,790,790,790,790,790,790,790,790,790,790,790,790,790,790,790,790,790,790,790,790,790,790,790,790,790,790,790,790,790,790,790,790,790,790,790,790,790,792,792,792,792,757,740,727,718,715,702,690,678,676,676,676,676,676,677,680,692,699,709,723,763,791,820,864,921,969,1019,1023,1024,1024,1024,1026,1030,1035,1038,1039,1039,1038,1032,1022,1000,984,969,948,924,878,769,687,608,534,450,436,429,424,420,415,410,410,410,410,410,420,424,426],"ymouse":[628,628,628,628,628,628,628,628,628,628,628,628,628,628,628,628,628,628,628,628,628,628,628,628,628,628,628,628,628,628,628,628,628,628,628,628,628,628,628,628,607,560,484,379,195,145,117,104,101,99,96,90,89,88,88,88,88,88,89,91,91,91,88,85,85,89,102,118,129,133,130,129,129,129,129,128,127,124,123,123,122,122,123,129,131,131,131,122,104,61,35,9,0,0,0,0,0,0,0,0,0,0,0,1,3,4,4],"timestamp_mouse":[11,34,45,65,85,105,125,145,165,186,205,225,245,265,286,306,326,345,365,386,407,425,445,465,485,506,526,545,567,586,605,626,645,665,685,705,725,746,765,786,805,825,846,866,885,906,926,945,965,985,1007,1025,1046,1066,1086,1106,1125,1145,1166,1185,1206,1226,1246,1266,1285,1306,1326,1346,1366,1385,1405,1425,1446,1465,1485,1505,1527,1545,1566,1586,1605,1625,1645,1667,1685,1705,1726,1745,1765,1785,1805,1826,1847,1867,1886,1906,1926,1945,1965,1986,2006,2026,2045,2066,2086,2106,2126],"xSR":741.5,"ySR":573.95,"xT1":424.9,"yT1":0,"xT2":1058.1,"yT2":0,"toosoon":0,"cond_shown":"randomdotsizeEA","ratio_trial":500,"smaller_num":"9","larger_num":"18","correct_side":2,"subjID":"DanielPabon26","gender":"0","age":"8","school":"4"},{"start_time":1552328016274,"click_time":1552328017341,"finger_time":1552328017041,"fix_duration":250,"trial":3,"RT":767,"MT":300,"sideResp":2,"stimulus":"img/750/randomdotsizeEA/R/3_Ratio_750_L_15_R_20.png","xmouse":[805,805,805,805,805,805,805,805,805,805,805,805,805,805,805,805,805,805,805,805,805,805,805,805,805,805,805,805,805,805,805,804,804,804,804,804,807,808,821,834,858,900,986,1011,1022,1032,1035,1035,1035,1035,1035,1037,1047,1079],"ymouse":[619,619,619,619,619,619,619,619,619,619,619,619,619,619,619,619,619,619,619,619,619,619,619,619,619,619,619,619,619,619,619,619,618,615,613,611,606,598,554,505,453,372,171,112,92,79,73,73,73,73,73,71,63,35],"timestamp_mouse":[12,31,48,68,87,107,127,148,168,187,207,228,247,267,288,308,328,348,367,387,409,428,447,468,487,507,527,548,568,589,608,627,648,667,687,708,727,748,767,788,807,828,849,868,888,907,927,948,967,987,1007,1028,1047,1067],"xSR":741.5,"ySR":573.95,"xT1":424.9,"yT1":0,"xT2":1058.1,"yT2":0,"toosoon":0,"cond_shown":"randomdotsizeEA","ratio_trial":750,"smaller_num":"15","larger_num":"20","correct_side":2,"subjID":"DanielPabon26","gender":"0","age":"8","school":"4"},{"start_time":1552328021315,"click_time":1552328022582,"finger_time":1552328022061,"fix_duration":1452.1048295973453,"trial":4,"RT":746,"MT":521,"sideResp":2,"stimulus":"img/250/equaldotsize/R/12_Ratio_250_L_5_R_20.png","xmouse":[792,792,792,792,792,792,792,792,792,792,792,792,792,792,792,792,792,792,792,792,792,778,770,767,767,767,767,767,767,767,767,773,783,794,803,807,827,847,891,940,995,1042,1041,1033,1033,1033,1033,1033,1032,1032,1034,1036,1031,1030,1030,1030,1030,1032,1045,1056,1057,1058,1058,1059],"ymouse":[637,637,637,637,637,637,637,637,637,637,637,637,637,637,637,637,637,637,637,637,636,642,647,649,649,649,649,649,649,649,649,636,621,605,594,590,584,577,548,502,430,291,238,217,214,214,214,212,207,185,147,102,87,84,84,84,84,80,68,53,48,46,46,45],"timestamp_mouse":[14,35,47,66,87,108,127,147,166,187,207,227,247,267,286,307,326,346,367,386,406,427,446,467,486,506,527,546,566,587,606,626,646,666,686,706,726,746,766,786,806,828,846,866,886,907,926,946,967,986,1007,1026,1046,1066,1086,1107,1126,1146,1166,1187,1206,1226,1247,1267],"xSR":741.5,"ySR":573.95,"xT1":424.9,"yT1":0,"xT2":1058.1,"yT2":0,"toosoon":0,"cond_shown":"equaldotsize","ratio_trial":250,"smaller_num":"5","larger_num":"20","correct_side":2,"subjID":"DanielPabon26","gender":"0","age":"8","school":"4"},{"start_time":1552328023874,"click_time":1552328024881,"finger_time":1552328024461,"fix_duration":250,"trial":5,"RT":587,"MT":420,"sideResp":1,"stimulus":"img/500/randomdotsizeEA/L/5_Ratio_500_L_4_R_2.png","xmouse":[787,787,787,787,787,787,787,787,787,787,787,787,787,787,787,787,787,787,787,787,787,787,787,787,787,787,787,787,794,806,820,829,834,813,786,757,730,705,663,645,639,639,639,639,638,637,628,613,573,551,517],"ymouse":[608,608,608,608,608,608,608,608,608,608,608,608,608,608,608,608,608,608,608,608,608,608,608,608,608,608,608,608,597,568,512,449,374,169,97,34,2,0,0,0,0,0,0,0,0,0,0,0,4,7,11],"timestamp_mouse":[11,31,48,68,88,108,127,147,167,187,208,227,248,268,288,308,328,349,368,388,408,428,447,467,487,507,529,548,567,587,607,628,648,667,687,709,728,747,768,787,807,828,848,869,887,907,927,948,967,989,1007],"xSR":741.5,"ySR":573.95,"xT1":424.9,"yT1":0,"xT2":1058.1,"yT2":0,"toosoon":0,"cond_shown":"randomdotsizeEA","ratio_trial":500,"smaller_num":"2","larger_num":"4","correct_side":1,"subjID":"DanielPabon26","gender":"0","age":"8","school":"4"},{"start_time":1552328026731,"click_time":1552328027624,"finger_time":1552328027241,"fix_duration":489.6586532746079,"trial":6,"RT":510,"MT":383,"sideResp":1,"stimulus":"img/250/equaldotsize/L/15_Ratio_250_L_12_R_3.png","xmouse":[777,777,777,777,777,777,777,777,777,777,777,777,777,777,777,777,777,777,777,777,777,777,777,777,778,779,779,779,764,694,514,434,389,379,377,375,375,375,375,378,378,378,380,391,435],"ymouse":[592,592,592,592,592,592,592,592,592,592,592,592,592,592,592,592,592,592,592,592,592,592,592,592,592,544,489,411,292,57,0,0,0,0,0,2,2,2,2,2,2,2,2,11,60],"timestamp_mouse":[13,30,52,70,90,111,130,151,170,190,210,232,250,270,291,311,331,351,371,391,411,431,451,471,490,510,531,550,570,590,611,630,650,670,690,711,731,751,770,790,810,830,851,870,892],"xSR":741.5,"ySR":573.95,"xT1":424.9,"yT1":0,"xT2":1058.1,"yT2":0,"toosoon":0,"cond_shown":"equaldotsize","ratio_trial":250,"smaller_num":"3","larger_num":"12","correct_side":1,"subjID":"DanielPabon26","gender":"0","age":"8","school":"4"},{"start_time":1552328029649,"click_time":1552328031482,"finger_time":1552328030161,"fix_duration":1424.2407708099715,"trial":7,"RT":512,"MT":1321,"sideResp":1,"stimulus":"img/250/equaldotsize/L/7_Ratio_250_L_8_R_2.png","xmouse":[781,781,781,781,781,781,781,781,781,781,781,781,781,781,781,781,781,781,781,781,781,781,781,781,783,787,796,799,799,729,664,592,520,444,405,397,392,388,387,387,387,387,387,387,387,387,387,392,469,536,580,603,604,604,604,604,603,603,603,614,625,634,639,639,639,634,605,542,454,290,239,224,223,223,223,223,227,236,250,285,305,330,337,338,338,338,338,338,339,349,373,446],"ymouse":[614,614,614,614,614,614,614,614,614,614,614,614,614,614,614,614,614,614,614,614,614,614,614,614,598,565,505,439,358,146,43,0,0,0,0,0,0,0,0,0,0,0,0,0,0,2,21,43,111,148,170,178,178,178,178,184,217,285,345,423,452,472,479,479,474,450,392,295,188,0,0,0,0,0,0,0,0,0,0,0,0,0,0,0,0,0,0,0,0,1,4,19],"timestamp_mouse":[13,33,52,72,93,113,132,153,172,193,213,232,252,272,292,312,333,353,372,392,413,432,452,472,492,512,532,553,573,592,613,632,652,672,693,712,733,752,773,792,812,833,852,873,892,912,933,952,974,992,1012,1033,1052,1074,1094,1112,1133,1152,1173,1192,1213,1232,1253,1272,1292,1313,1332,1353,1373,1392,1412,1433,1453,1472,1493,1512,1533,1553,1572,1592,1613,1632,1652,1674,1693,1713,1732,1752,1772,1792,1813,1833],"xSR":741.5,"ySR":573.95,"xT1":424.9,"yT1":0,"xT2":1058.1,"yT2":0,"toosoon":0,"cond_shown":"equaldotsize","ratio_trial":250,"smaller_num":"2","larger_num":"8","correct_side":1,"subjID":"DanielPabon26","gender":"0","age":"8","school":"4"},{"start_time":1552328032653,"click_time":1552328033721,"finger_time":1552328033441,"fix_duration":250,"trial":8,"RT":788,"MT":280,"sideResp":1,"stimulus":"img/750/equaldotsize/L/14_Ratio_750_L_8_R_6.png","xmouse":[770,770,770,770,770,770,771,771,771,772,772,772,774,774,774,774,775,775,775,775,775,776,776,776,776,776,776,776,776,776,776,776,776,776,776,776,776,776,776,772,750,708,653,583,559,559,562,566,568,555,544,533,526,519],"ymouse":[586,586,586,586,586,586,586,586,586,587,587,587,587,587,587,587,587,587,587,587,588,588,589,589,589,589,589,589,589,589,589,589,589,589,589,589,589,586,581,541,483,401,310,216,180,171,157,134,106,56,41,34,33,32],"timestamp_mouse":[10,29,48,68,89,108,130,149,168,188,208,229,249,270,289,309,328,349,369,388,408,428,449,469,488,509,529,549,569,589,609,629,648,669,689,708,729,748,768,788,808,828,848,868,888,909,928,948,969,988,1009,1029,1048,1068],"xSR":741.5,"ySR":573.95,"xT1":424.9,"yT1":0,"xT2":1058.1,"yT2":0,"toosoon":0,"cond_shown":"equaldotsize","ratio_trial":750,"smaller_num":"6","larger_num":"8","correct_side":1,"subjID":"DanielPabon26","gender":"0","age":"8","school":"4"},{"start_time":1552328034851,"click_time":1552328035941,"finger_time":1552328035461,"fix_duration":307.2382382237765,"trial":9,"RT":610,"MT":480,"sideResp":2,"stimulus":"img/500/equaldotsize/R/3_Ratio_500_L_10_R_20.png","xmouse":[814,814,814,814,814,814,814,814,814,814,814,814,814,814,814,814,814,813,812,812,812,812,812,812,812,812,812,812,813,821,827,849,879,940,963,962,962,962,962,966,968,971,986,1010,1048,1058,1063,1070,1078,1084,1084,1084,1084,1084,1083],"ymouse":[627,627,627,627,627,627,627,627,627,627,627,627,627,627,627,627,627,627,629,629,629,629,629,629,629,629,629,629,627,607,572,491,386,191,40,23,21,20,19,10,6,2,0,0,0,0,0,0,0,0,0,0,0,0,4],"timestamp_mouse":[12,32,51,71,91,111,131,150,170,191,211,230,250,272,290,310,330,351,371,391,410,430,451,471,491,510,531,551,570,590,610,631,650,671,691,710,731,750,771,790,810,831,851,870,890,910,930,950,970,990,1010,1030,1051,1070,1090],"xSR":741.5,"ySR":573.95,"xT1":424.9,"yT1":0,"xT2":1058.1,"yT2":0,"toosoon":0,"cond_shown":"equaldotsize","ratio_trial":500,"smaller_num":"10","larger_num":"20","correct_side":2,"subjID":"DanielPabon26","gender":"0","age":"8","school":"4"},{"start_time":1552328038566,"click_time":1552328039761,"finger_time":1552328039142,"fix_duration":1383.4676491847745,"trial":10,"RT":576,"MT":619,"sideResp":1,"stimulus":"img/900/equaldotanddens/L/8_Ratio_900_L_20_R_18.png","xmouse":[793,793,793,793,793,793,793,793,793,793,793,793,793,793,793,793,793,793,793,793,793,793,793,793,793,793,793,780,762,742,723,710,704,704,694,669,656,641,639,638,637,635,630,592,551,510,483,470,470,480,487,490,490,490,490,490,490,490,490,490],"ymouse":[629,629,629,629,629,629,629,629,629,629,629,629,629,629,629,629,629,629,629,629,629,629,629,629,629,622,616,574,550,522,490,455,380,328,280,231,220,218,218,218,218,218,217,208,195,184,175,168,162,151,139,130,122,118,118,118,118,118,104,93],"timestamp_mouse":[15,35,57,76,95,115,137,155,175,197,216,235,255,275,295,315,336,355,375,396,416,436,455,475,496,515,536,557,576,595,615,635,656,675,695,715,736,756,775,796,816,836,855,875,896,916,936,955,975,996,1015,1035,1055,1075,1095,1115,1136,1156,1176,1195],"xSR":741.5,"ySR":573.95,"xT1":424.9,"yT1":0,"xT2":1058.1,"yT2":0,"toosoon":0,"cond_shown":"equaldotanddens","ratio_trial":900,"smaller_num":"18","larger_num":"20","correct_side":1,"subjID":"DanielPabon26","gender":"0","age":"8","school":"4"},{"start_time":1552328040794,"click_time":1552328041862,"finger_time":1552328041581,"fix_duration":250,"trial":11,"RT":787,"MT":281,"sideResp":2,"stimulus":"img/500/randomdotsizeEA/L/4_Ratio_500_L_18_R_9.png","xmouse":[798,797,795,795,795,795,795,795,795,795,795,795,795,795,795,795,795,795,795,795,795,795,795,795,795,795,795,795,795,795,795,795,795,795,795,795,793,791,791,791,795,838,870,897,919,944,966,974,983,994,1006,1030,1050,1069],"ymouse":[611,611,612,612,612,612,612,612,612,612,612,612,612,612,612,612,612,612,612,612,612,612,612,612,612,612,612,612,612,612,612,612,612,612,612,612,612,608,593,565,508,347,259,187,138,105,91,87,82,76,69,53,40,28],"timestamp_mouse":[8,29,55,68,88,107,127,147,167,188,207,228,247,267,287,308,327,348,367,388,407,428,448,468,488,509,528,548,567,587,608,627,647,669,687,708,727,748,767,787,808,828,847,867,887,908,928,947,968,988,1008,1028,1048,1068],"xSR":741.5,"ySR":573.95,"xT1":424.9,"yT1":0,"xT2":1058.1,"yT2":0,"toosoon":0,"cond_shown":"randomdotsizeEA","ratio_trial":500,"smaller_num":"9","larger_num":"18","correct_side":1,"subjID":"DanielPabon26","gender":"0","age":"8","school":"4"},{"start_time":1552328045149,"click_time":1552328046341,"finger_time":1552328045723,"fix_duration":644.9283465722574,"trial":12,"RT":574,"MT":618,"sideResp":1,"stimulus":"img/250/randomdotsizeEA/L/5_Ratio_250_L_24_R_6.png","xmouse":[798,798,798,798,798,798,798,798,798,798,798,798,798,798,798,798,798,798,798,798,798,798,798,798,798,799,801,803,800,794,788,783,775,767,746,736,731,722,692,681,679,679,679,685,685,680,668,653,628,598,579,563,554,554,554,554,554,551,536,506],"ymouse":[625,625,625,625,625,625,625,625,625,625,625,625,625,625,625,625,625,625,625,625,625,625,625,625,625,614,605,579,514,495,482,471,463,453,433,425,421,413,374,352,330,305,274,194,156,130,100,79,55,39,31,24,21,20,20,20,20,20,23,25],"timestamp_mouse":[15,40,52,72,92,113,132,153,172,193,213,233,253,274,293,313,333,352,372,392,413,434,453,473,492,513,532,554,574,592,612,633,653,673,692,713,732,753,773,792,813,832,852,873,892,913,933,952,972,993,1012,1032,1053,1073,1093,1113,1133,1154,1172,1192],"xSR":741.5,"ySR":573.95,"xT1":424.9,"yT1":0,"xT2":1058.1,"yT2":0,"toosoon":0,"cond_shown":"randomdotsizeEA","ratio_trial":250,"smaller_num":"6","larger_num":"24","correct_side":1,"subjID":"DanielPabon26","gender":"0","age":"8","school":"4"},{"start_time":1552328048057,"click_time":1552328049241,"finger_time":1552328048723,"fix_duration":815.3372256315635,"trial":13,"RT":666,"MT":518,"sideResp":2,"stimulus":"img/750/equaldotanddens/L/6_Ratio_750_L_24_R_18.png","xmouse":[807,807,807,807,807,807,807,807,807,807,807,807,807,807,807,807,807,807,807,807,807,807,807,807,807,807,807,807,807,807,807,808,811,855,891,928,960,986,1008,1012,1014,1015,1017,1021,1031,1036,1040,1042,1043,1052,1057,1061,1061,1061,1061,1061,1061,1062,1080,1094],"ymouse":[652,652,652,652,652,652,652,652,652,652,652,652,652,652,652,652,652,652,652,652,652,652,652,652,652,652,652,652,652,652,652,644,637,533,447,356,273,194,103,80,66,58,51,41,19,9,3,1,0,0,0,0,0,0,0,0,0,0,0,2],"timestamp_mouse":[19,28,44,64,85,106,124,145,164,184,205,226,245,264,285,305,325,344,365,385,405,425,445,465,485,505,526,545,564,584,605,624,646,666,684,705,724,744,765,785,805,824,845,864,884,904,925,944,964,985,1005,1025,1045,1064,1085,1104,1124,1144,1166,1184],"xSR":741.5,"ySR":573.95,"xT1":424.9,"yT1":0,"xT2":1058.1,"yT2":0,"toosoon":0,"cond_shown":"equaldotanddens","ratio_trial":750,"smaller_num":"18","larger_num":"24","correct_side":1,"subjID":"DanielPabon26","gender":"0","age":"8","school":"4"},{"start_time":1552328051068,"click_time":1552328052502,"finger_time":1552328052141,"fix_duration":985.5714978288271,"trial":14,"RT":1073,"MT":361,"sideResp":1,"stimulus":"img/750/equaldotsize/L/8_Ratio_750_L_4_R_3.png","xmouse":[776,776,776,776,776,776,776,776,776,776,776,776,776,776,776,777,777,777,777,777,777,777,777,777,777,777,777,777,777,777,777,777,777,777,777,777,777,777,777,777,777,777,777,777,777,777,777,777,777,777,777,777,777,759,730,696,672,659,646,646,646,644,625,582,567,564,564,564,564,563,535,511],"ymouse":[596,596,596,596,596,596,596,596,596,596,596,596,596,597,597,597,597,597,597,597,597,597,597,597,597,597,597,597,597,597,597,597,597,597,597,597,597,597,597,597,597,597,597,597,597,597,597,597,597,597,597,597,596,504,409,251,104,0,0,0,0,0,1,6,6,6,6,6,6,6,10,17],"timestamp_mouse":[13,37,54,73,93,114,134,154,175,193,213,233,253,274,293,314,335,354,373,394,413,433,454,474,493,514,533,554,574,593,615,634,655,674,693,713,733,755,774,794,813,834,854,874,894,914,934,955,974,994,1013,1033,1053,1073,1093,1114,1134,1155,1174,1195,1214,1235,1255,1274,1295,1314,1334,1355,1374,1394,1413,1434],"xSR":741.5,"ySR":573.95,"xT1":424.9,"yT1":0,"xT2":1058.1,"yT2":0,"toosoon":0,"cond_shown":"equaldotsize","ratio_trial":750,"smaller_num":"3","larger_num":"4","correct_side":1,"subjID":"DanielPabon26","gender":"0","age":"8","school":"4"},{"start_time":1552328053634,"click_time":1552328054803,"finger_time":1552328054321,"fix_duration":250,"trial":15,"RT":687,"MT":482,"sideResp":1,"stimulus":"img/900/randomdotsizeEA/L/4_Ratio_900_L_20_R_18.png","xmouse":[800,800,800,800,800,800,800,800,800,800,800,800,800,800,800,800,800,800,800,800,800,800,800,800,800,800,800,800,800,800,800,800,800,797,784,745,716,661,607,542,463,446,437,428,425,423,423,423,423,423,425,426,428,434,448,463,468,471,474],"ymouse":[602,602,602,602,602,602,602,602,602,602,602,602,602,602,602,602,602,602,602,602,602,602,602,602,602,602,602,602,602,602,602,602,591,575,504,338,240,137,56,0,0,0,0,0,0,0,0,0,0,0,0,0,0,0,0,0,0,0,1],"timestamp_mouse":[14,29,47,68,87,107,127,148,167,187,208,227,248,267,289,308,328,347,367,389,409,427,448,467,488,508,527,548,567,588,607,628,647,667,687,707,727,748,768,787,807,829,848,869,888,908,927,948,967,988,1007,1029,1048,1067,1087,1108,1127,1148,1168],"xSR":741.5,"ySR":573.95,"xT1":424.9,"yT1":0,"xT2":1058.1,"yT2":0,"toosoon":0,"cond_shown":"randomdotsizeEA","ratio_trial":900,"smaller_num":"18","larger_num":"20","correct_side":1,"subjID":"DanielPabon26","gender":"0","age":"8","school":"4"},{"start_time":1552328056906,"click_time":1552328058062,"finger_time":1552328057622,"fix_duration":780.1623375856118,"trial":16,"RT":716,"MT":440,"sideResp":2,"stimulus":"img/500/randomdotsizeEA/R/12_Ratio_500_L_1_R_2.png","xmouse":[788,788,788,788,788,788,788,788,788,788,788,788,788,788,788,788,788,788,788,788,788,788,788,788,788,788,788,788,788,788,788,789,791,792,793,797,801,809,821,831,842,916,961,1005,1032,1050,1068,1073,1092,1112,1129,1139,1139,1139,1139,1139,1139,1138],"ymouse":[589,589,591,591,591,591,591,591,591,591,591,591,591,591,591,591,591,591,591,591,591,591,591,591,591,591,591,591,591,590,589,588,585,583,580,573,564,547,519,471,416,237,165,95,47,14,0,0,0,0,0,0,0,0,0,0,0,1],"timestamp_mouse":[16,36,55,75,96,116,136,156,176,195,215,236,257,276,296,315,336,357,376,395,417,435,455,475,496,516,536,555,575,595,617,636,655,675,695,716,735,755,776,796,815,835,856,877,896,916,935,956,975,997,1015,1035,1055,1076,1095,1117,1135,1156],"xSR":741.5,"ySR":573.95,"xT1":424.9,"yT1":0,"xT2":1058.1,"yT2":0,"toosoon":0,"cond_shown":"randomdotsizeEA","ratio_trial":500,"smaller_num":"1","larger_num":"2","correct_side":2,"subjID":"DanielPabon26","gender":"0","age":"8","school":"4"},{"start_time":1552328060255,"click_time":1552328061162,"finger_time":1552328061041,"fix_duration":1431.4737345401072,"trial":17,"RT":786,"MT":121,"sideResp":2,"stimulus":"img/250/equaldotanddens/R/13_Ratio_250_L_2_R_8.png","xmouse":[788,788,788,788,788,788,788,788,788,788,788,788,788,788,788,788,788,788,788,788,788,788,788,788,788,788,788,788,788,788,788,788,788,788,788,788,789,790,802,809,818,835,893,945,1054,1099],"ymouse":[643,643,643,643,643,643,643,643,643,643,643,643,643,643,643,643,643,643,643,643,643,643,643,643,643,643,643,643,643,643,643,643,643,643,643,643,642,637,598,567,530,485,384,313,148,70],"timestamp_mouse":[26,38,46,66,87,106,126,147,168,186,208,227,246,267,286,307,326,347,366,387,407,427,447,466,486,507,527,547,567,586,606,627,647,667,686,706,727,747,767,786,807,826,846,866,886,907],"xSR":741.5,"ySR":573.95,"xT1":424.9,"yT1":0,"xT2":1058.1,"yT2":0,"toosoon":0,"cond_shown":"equaldotanddens","ratio_trial":250,"smaller_num":"2","larger_num":"8","correct_side":2,"subjID":"DanielPabon26","gender":"0","age":"8","school":"4"},{"start_time":1552328062901,"click_time":1552328063782,"finger_time":1552328063702,"fix_duration":777.5908041765246,"trial":18,"RT":801,"MT":80,"sideResp":2,"stimulus":"img/750/equaldotanddens/R/11_Ratio_750_L_12_R_16.png","xmouse":[832,832,832,832,832,832,832,832,832,832,832,832,832,832,832,832,832,832,832,832,832,832,832,832,832,832,832,832,832,832,832,832,836,837,837,837,837,838,838,838,845,857,1012,1091,1152],"ymouse":[625,625,625,625,625,625,625,625,625,625,625,625,625,625,625,625,625,625,625,625,625,625,625,625,625,625,625,625,625,625,625,623,609,605,604,604,604,604,604,602,588,571,334,215,93],"timestamp_mouse":[10,20,41,60,80,100,121,140,161,181,201,221,241,262,280,300,320,341,361,381,400,421,441,462,482,501,521,540,562,580,601,620,640,660,680,700,722,740,760,780,800,821,842,861,881],"xSR":741.5,"ySR":573.95,"xT1":424.9,"yT1":0,"xT2":1058.1,"yT2":0,"toosoon":0,"cond_shown":"equaldotanddens","ratio_trial":750,"smaller_num":"12","larger_num":"16","correct_side":2,"subjID":"DanielPabon26","gender":"0","age":"8","school":"4"},{"start_time":1552328066048,"click_time":1552328066741,"finger_time":1552328066622,"fix_duration":1425.842019502106,"trial":19,"RT":574,"MT":119,"sideResp":2,"stimulus":"img/900/equaldotsize/R/12_Ratio_900_L_18_R_20.png","xmouse":[770,770,770,770,770,770,770,770,770,770,770,770,770,770,770,770,770,770,770,770,770,770,770,770,770,770,770,777,801,835,875,916,958,1053,1069],"ymouse":[605,605,605,605,605,605,605,605,605,605,605,605,605,605,605,605,605,605,605,605,605,605,605,605,605,605,605,599,565,518,446,354,257,60,31],"timestamp_mouse":[15,34,55,73,93,114,133,153,173,193,214,233,253,273,294,313,334,353,375,394,413,434,454,473,493,514,533,553,574,593,614,633,654,674,693],"xSR":741.5,"ySR":573.95,"xT1":424.9,"yT1":0,"xT2":1058.1,"yT2":0,"toosoon":0,"cond_shown":"equaldotsize","ratio_trial":900,"smaller_num":"18","larger_num":"20","correct_side":2,"subjID":"DanielPabon26","gender":"0","age":"8","school":"4"},{"start_time":1552328068851,"click_time":1552328069901,"finger_time":1552328069481,"fix_duration":1448.7112468566977,"trial":20,"RT":630,"MT":420,"sideResp":2,"stimulus":"img/750/equaldotsize/R/2_Ratio_750_L_6_R_8.png","xmouse":[786,786,786,786,786,786,786,786,786,786,786,786,786,786,786,786,786,786,786,786,786,786,786,786,786,786,788,790,793,797,801,815,824,866,924,957,983,1005,1027,1050,1054,1055,1055,1055,1055,1055,1055,1055,1055,1055,1055,1057,1059],"ymouse":[621,621,621,621,621,621,621,621,621,621,621,621,621,621,621,621,621,621,621,621,621,621,621,621,621,621,617,614,610,600,593,569,554,477,345,269,210,166,126,78,64,55,54,51,51,51,51,51,51,51,51,51,51],"timestamp_mouse":[10,30,50,70,91,110,132,151,170,190,211,230,251,270,290,311,331,351,371,392,411,431,450,471,491,511,531,550,570,590,611,630,651,671,690,710,731,750,770,790,812,830,852,871,890,911,930,950,972,990,1025,1030,1050],"xSR":741.5,"ySR":573.95,"xT1":424.9,"yT1":0,"xT2":1058.1,"yT2":0,"toosoon":0,"cond_shown":"equaldotsize","ratio_trial":750,"smaller_num":"6","larger_num":"8","correct_side":2,"subjID":"DanielPabon26","gender":"0","age":"8","school":"4"},{"start_time":1552328071274,"click_time":1552328072243,"finger_time":1552328071881,"fix_duration":630.7769602711504,"trial":21,"RT":607,"MT":362,"sideResp":1,"stimulus":"img/500/equaldotsize/L/13_Ratio_500_L_12_R_6.png","xmouse":[775,775,775,775,775,775,775,775,775,775,775,775,775,775,775,775,775,775,775,775,775,775,775,775,775,775,775,775,776,776,776,776,760,715,687,661,635,600,594,590,585,583,549,535,530,529,529,529,521],"ymouse":[600,600,600,600,600,600,600,600,600,600,600,600,600,600,600,600,600,600,600,600,600,600,600,600,600,600,600,600,593,575,527,494,386,214,131,77,34,6,4,4,4,3,0,0,0,0,0,0,1],"timestamp_mouse":[20,29,47,68,87,108,128,149,168,188,208,227,247,268,287,307,327,347,367,388,408,427,448,468,487,508,529,549,567,587,607,628,647,668,687,707,728,748,768,787,807,828,850,867,887,907,928,948,968],"xSR":741.5,"ySR":573.95,"xT1":424.9,"yT1":0,"xT2":1058.1,"yT2":0,"toosoon":0,"cond_shown":"equaldotsize","ratio_trial":500,"smaller_num":"6","larger_num":"12","correct_side":1,"subjID":"DanielPabon26","gender":"0","age":"8","school":"4"},{"start_time":1552328073433,"click_time":1552328074522,"finger_time":1552328074342,"fix_duration":250,"trial":22,"RT":909,"MT":180,"sideResp":1,"stimulus":"img/250/randomdotsizeEA/L/5_Ratio_250_L_24_R_6.png","xmouse":[775,775,775,775,775,775,775,775,775,775,775,775,775,775,775,775,775,775,775,775,775,775,775,775,775,775,776,776,777,777,777,777,777,777,777,777,777,777,777,777,777,777,777,776,773,744,713,689,670,659,636,621,590,546,454],"ymouse":[604,604,604,604,604,604,604,604,604,604,604,604,604,604,604,604,604,604,604,604,604,604,604,604,604,604,604,604,604,604,604,604,604,604,604,604,604,604,604,604,604,604,604,601,598,559,518,475,437,396,282,218,145,82,12],"timestamp_mouse":[12,33,49,69,89,109,128,148,170,189,209,229,248,269,289,308,328,349,368,388,409,428,449,468,489,509,528,548,569,589,609,628,649,668,689,708,730,749,769,789,808,829,848,869,888,909,928,948,968,988,1008,1029,1049,1069,1089],"xSR":741.5,"ySR":573.95,"xT1":424.9,"yT1":0,"xT2":1058.1,"yT2":0,"toosoon":0,"cond_shown":"randomdotsizeEA","ratio_trial":250,"smaller_num":"6","larger_num":"24","correct_side":1,"subjID":"DanielPabon26","gender":"0","age":"8","school":"4"},{"start_time":1552328076393,"click_time":1552328077241,"finger_time":1552328077002,"fix_duration":1089.0654692426112,"trial":23,"RT":609,"MT":239,"sideResp":2,"stimulus":"img/900/equaldotsize/L/8_Ratio_900_L_20_R_18.png","xmouse":[765,765,765,765,765,765,765,765,765,765,765,765,765,765,765,765,765,765,765,765,765,765,765,765,765,765,765,765,771,778,789,810,856,875,892,911,932,995,1014,1031,1042,1050,1062],"ymouse":[604,604,604,604,604,604,604,604,604,604,604,604,604,604,604,604,604,604,604,604,604,604,604,604,604,604,604,604,596,584,570,548,498,473,444,410,364,217,167,124,91,62,18],"timestamp_mouse":[19,29,48,68,89,110,128,148,169,189,208,229,248,268,288,308,330,349,369,389,408,428,448,468,489,508,528,549,568,588,609,628,648,668,688,708,729,748,768,788,808,829,848],"xSR":741.5,"ySR":573.95,"xT1":424.9,"yT1":0,"xT2":1058.1,"yT2":0,"toosoon":0,"cond_shown":"equaldotsize","ratio_trial":900,"smaller_num":"18","larger_num":"20","correct_side":1,"subjID":"DanielPabon26","gender":"0","age":"8","school":"4"},{"start_time":1552328079168,"click_time":1552328079541,"finger_time":1552328079481,"fix_duration":1204.4377926712498,"trial":24,"RT":313,"MT":60,"sideResp":1,"stimulus":"img/750/equaldotsize/R/15_Ratio_750_L_9_R_12.png","xmouse":[804,804,804,804,804,804,804,804,804,804,804,804,804,804,801,763,734,623,479],"ymouse":[636,636,636,636,636,636,636,636,636,636,636,636,636,636,637,541,483,280,46],"timestamp_mouse":[13,37,53,74,94,114,133,154,173,195,215,234,254,273,295,313,334,354,373],"xSR":741.5,"ySR":573.95,"xT1":424.9,"yT1":0,"xT2":1058.1,"yT2":0,"toosoon":0,"cond_shown":"equaldotsize","ratio_trial":750,"smaller_num":"9","larger_num":"12","correct_side":2,"subjID":"DanielPabon26","gender":"0","age":"8","school":"4"},{"start_time":1552328083007,"click_time":1552328083962,"finger_time":1552328083781,"fix_duration":1122.3279589898682,"trial":25,"RT":774,"MT":181,"sideResp":1,"stimulus":"img/250/equaldotsize/L/7_Ratio_250_L_8_R_2.png","xmouse":[780,780,780,780,780,780,780,780,780,780,780,780,780,780,780,780,780,780,780,780,780,780,780,780,780,780,780,780,780,780,780,780,780,780,781,781,783,782,757,705,668,636,626,618,607,547,525,515],"ymouse":[646,646,646,646,646,646,646,646,646,646,646,646,646,646,646,646,646,646,646,646,646,646,646,646,646,646,646,646,646,646,646,646,646,646,644,640,606,574,506,410,321,210,180,160,146,103,94,89],"timestamp_mouse":[14,34,55,74,94,115,135,155,175,195,216,235,254,276,295,315,334,354,375,394,416,435,455,474,494,516,535,554,575,594,616,636,655,675,694,715,735,754,774,795,816,834,854,874,895,916,934,955],"xSR":741.5,"ySR":573.95,"xT1":424.9,"yT1":0,"xT2":1058.1,"yT2":0,"toosoon":0,"cond_shown":"equaldotsize","ratio_trial":250,"smaller_num":"2","larger_num":"8","correct_side":1,"subjID":"DanielPabon26","gender":"0","age":"8","school":"4"},{"start_time":1552328084932,"click_time":1552328085762,"finger_time":1552328085682,"fix_duration":250,"trial":26,"RT":750,"MT":80,"sideResp":2,"stimulus":"img/900/equaldotsize/R/3_Ratio_900_L_9_R_10.png","xmouse":[802,802,802,802,802,802,802,802,802,802,802,802,802,802,802,802,802,802,802,802,802,802,802,802,802,802,802,802,802,802,802,802,802,802,803,811,821,847,896,981,1056,1065],"ymouse":[661,661,661,661,661,661,661,661,661,661,661,661,661,661,661,661,661,661,661,661,661,661,661,661,661,661,661,661,661,661,661,661,661,661,657,641,617,570,494,362,170,83],"timestamp_mouse":[10,34,49,70,89,110,130,149,169,190,210,230,249,269,290,310,330,349,370,389,409,431,451,469,490,509,530,550,570,590,609,631,650,669,689,709,730,750,770,790,809,829],"xSR":741.5,"ySR":573.95,"xT1":424.9,"yT1":0,"xT2":1058.1,"yT2":0,"toosoon":0,"cond_shown":"equaldotsize","ratio_trial":900,"smaller_num":"9","larger_num":"10","correct_side":2,"subjID":"DanielPabon26","gender":"0","age":"8","school":"4"},{"start_time":1552328087518,"click_time":1552328088325,"finger_time":1552328088021,"fix_duration":875.7807935670135,"trial":27,"RT":503,"MT":304,"sideResp":2,"stimulus":"img/750/randomdotsizeEA/R/11_Ratio_750_L_12_R_16.png","xmouse":[808,808,808,808,808,808,808,808,808,808,808,808,808,808,808,808,808,808,808,808,808,808,808,808,811,825,849,928,960,992,1000,1063,1099,1129,1153,1162,1164,1164,1165,1164,1155],"ymouse":[596,596,596,596,596,596,596,596,596,596,596,596,596,596,596,596,596,596,596,596,596,596,596,597,593,569,526,373,267,81,25,0,0,0,0,0,0,0,2,12,64],"timestamp_mouse":[12,32,44,63,83,105,123,143,164,184,205,224,244,264,284,303,323,344,363,383,404,424,444,463,484,503,524,544,565,583,603,623,643,663,683,703,724,744,763,783,806],"xSR":741.5,"ySR":573.95,"xT1":424.9,"yT1":0,"xT2":1058.1,"yT2":0,"toosoon":0,"cond_shown":"randomdotsizeEA","ratio_trial":750,"smaller_num":"12","larger_num":"16","correct_side":2,"subjID":"DanielPabon26","gender":"0","age":"8","school":"4"},{"start_time":1552328089854,"click_time":1552328090542,"finger_time":1552328090441,"fix_duration":250,"trial":28,"RT":587,"MT":101,"sideResp":2,"stimulus":"img/900/equaldotsize/R/13_Ratio_900_L_18_R_20.png","xmouse":[808,808,808,808,808,808,808,808,808,808,808,808,808,808,808,808,808,808,808,808,808,808,808,808,808,808,808,809,812,836,871,933,1035,1065,1132],"ymouse":[581,581,581,581,581,581,581,581,581,581,581,581,581,581,581,581,581,581,581,581,581,581,581,581,581,581,581,581,575,533,481,413,291,243,49],"timestamp_mouse":[12,31,47,68,88,108,128,147,169,188,208,228,248,268,287,309,327,347,369,388,407,428,447,469,488,508,528,547,567,587,607,627,648,668,688],"xSR":741.5,"ySR":573.95,"xT1":424.9,"yT1":0,"xT2":1058.1,"yT2":0,"toosoon":0,"cond_shown":"equaldotsize","ratio_trial":900,"smaller_num":"18","larger_num":"20","correct_side":2,"subjID":"DanielPabon26","gender":"0","age":"8","school":"4"},{"start_time":1552328092177,"click_time":1552328093101,"finger_time":1552328092862,"fix_duration":734.1130944487304,"trial":29,"RT":685,"MT":239,"sideResp":1,"stimulus":"img/750/equaldotanddens/L/14_Ratio_750_L_8_R_6.png","xmouse":[802,802,802,802,802,802,802,802,802,802,802,802,802,802,802,802,802,802,802,802,802,802,802,802,802,802,802,802,802,802,802,803,805,816,822,823,816,795,745,726,705,682,615,577,544,518,500],"ymouse":[652,652,652,652,652,652,652,652,652,652,652,652,652,652,652,652,652,652,652,652,652,652,652,652,652,652,652,652,652,652,652,644,636,585,536,418,376,310,246,240,238,234,209,184,152,112,69],"timestamp_mouse":[12,25,45,66,86,106,125,145,164,184,205,226,245,264,285,305,324,344,364,385,404,425,445,464,484,505,525,545,565,585,605,624,644,665,685,704,725,746,765,785,805,824,845,864,885,904,924],"xSR":741.5,"ySR":573.95,"xT1":424.9,"yT1":0,"xT2":1058.1,"yT2":0,"toosoon":0,"cond_shown":"equaldotanddens","ratio_trial":750,"smaller_num":"6","larger_num":"8","correct_side":1,"subjID":"DanielPabon26","gender":"0","age":"8","school":"4"},{"start_time":1552328094753,"click_time":1552328095842,"finger_time":1552328095081,"fix_duration":670.9597901681022,"trial":30,"RT":328,"MT":761,"sideResp":2,"stimulus":"img/900/randomdotsizeEA/L/8_Ratio_900_L_20_R_18.png","xmouse":[815,815,815,815,815,815,815,815,815,815,815,815,815,815,818,819,818,807,791,788,788,788,790,790,790,786,782,780,781,787,805,838,872,893,915,919,929,934,949,1028,1059,1073,1081,1087,1091,1099,1121,1132,1140,1141,1141,1141,1141,1141,1132],"ymouse":[652,652,652,652,652,652,652,652,652,652,652,652,652,640,622,596,555,492,407,354,338,327,318,311,299,289,279,276,275,275,275,275,275,275,272,270,258,249,213,21,0,0,0,0,0,0,0,0,0,0,0,0,0,0,2],"timestamp_mouse":[13,32,49,68,89,109,128,149,168,189,209,228,248,269,288,308,328,348,368,388,409,428,448,469,489,509,528,549,569,589,608,629,649,668,688,709,728,749,768,788,808,829,848,869,889,909,928,948,971,988,1010,1028,1049,1069,1088],"xSR":741.5,"ySR":573.95,"xT1":424.9,"yT1":0,"xT2":1058.1,"yT2":0,"toosoon":0,"cond_shown":"randomdotsizeEA","ratio_trial":900,"smaller_num":"18","larger_num":"20","correct_side":1,"subjID":"DanielPabon26","gender":"0","age":"8","school":"4"},{"start_time":1552328096893,"click_time":1552328097701,"finger_time":1552328097543,"fix_duration":250,"trial":31,"RT":650,"MT":158,"sideResp":2,"stimulus":"img/750/equaldotsize/R/11_Ratio_750_L_12_R_16.png","xmouse":[768,768,768,768,769,772,773,774,774,774,774,774,774,774,774,774,774,774,774,774,774,774,774,774,774,774,774,774,774,774,774,775,779,789,804,823,850,934,985,1057,1078],"ymouse":[605,605,605,605,603,601,601,601,601,601,601,601,601,601,601,601,601,601,601,601,601,601,601,601,601,601,601,601,601,601,595,584,524,481,441,403,355,242,176,61,21],"timestamp_mouse":[13,31,49,68,89,109,129,148,168,189,208,230,249,268,289,310,329,349,368,389,408,429,448,469,489,509,529,549,569,588,608,629,650,669,690,709,728,748,768,788,808],"xSR":741.5,"ySR":573.95,"xT1":424.9,"yT1":0,"xT2":1058.1,"yT2":0,"toosoon":0,"cond_shown":"equaldotsize","ratio_trial":750,"smaller_num":"12","larger_num":"16","correct_side":2,"subjID":"DanielPabon26","gender":"0","age":"8","school":"4"},{"start_time":1552328099393,"click_time":1552328100462,"finger_time":1552328100361,"fix_duration":250,"trial":32,"RT":968,"MT":101,"sideResp":2,"stimulus":"img/900/equaldotsize/R/3_Ratio_900_L_9_R_10.png","xmouse":[775,775,775,775,775,775,775,775,775,775,775,775,775,775,775,775,775,775,775,775,775,775,775,775,775,775,775,775,775,775,775,775,775,775,775,775,775,775,775,775,775,775,775,777,780,783,787,809,831,871,923,1050,1108,1154],"ymouse":[653,653,653,653,653,653,653,653,653,653,653,653,653,653,653,653,653,653,653,653,653,653,653,653,653,653,653,653,653,653,653,653,653,653,653,653,653,653,653,653,653,653,653,648,644,639,631,598,566,520,461,284,172,72],"timestamp_mouse":[12,32,48,69,88,110,130,148,169,189,209,229,249,268,289,308,330,349,370,389,408,429,449,469,489,508,529,549,569,589,609,629,649,670,689,709,729,748,769,790,809,829,848,869,888,908,928,948,968,989,1009,1030,1048,1069],"xSR":741.5,"ySR":573.95,"xT1":424.9,"yT1":0,"xT2":1058.1,"yT2":0,"toosoon":0,"cond_shown":"equaldotsize","ratio_trial":900,"smaller_num":"9","larger_num":"10","correct_side":2,"subjID":"DanielPabon26","gender":"0","age":"8","school":"4"},{"start_time":1552328102017,"click_time":1552328103241,"finger_time":1552328102881,"fix_duration":592.7128318178483,"trial":33,"RT":864,"MT":360,"sideResp":2,"stimulus":"img/900/equaldotanddens/L/2_Ratio_900_L_20_R_18.png","xmouse":[803,803,803,803,803,802,801,801,800,800,800,800,800,800,800,800,800,800,800,800,800,800,800,800,800,800,800,800,800,800,800,800,800,800,800,800,800,800,800,800,803,811,820,834,840,873,884,903,939,977,1009,1039,1041,1041,1041,1044,1049,1053,1053,1053,1053,1059],"ymouse":[631,631,631,631,631,631,631,631,631,631,631,631,631,631,631,631,631,631,631,631,631,631,631,631,631,631,631,631,631,631,631,631,631,631,631,631,631,631,631,631,626,612,596,555,533,376,289,185,79,0,0,0,0,0,0,5,12,16,16,16,17,18],"timestamp_mouse":[13,33,46,64,84,104,125,145,164,184,204,225,245,265,285,305,324,344,365,384,405,424,446,466,485,505,524,545,565,584,605,625,645,664,684,704,724,744,765,784,804,824,846,864,884,905,924,944,964,985,1004,1025,1044,1065,1084,1106,1124,1145,1166,1185,1204,1224],"xSR":741.5,"ySR":573.95,"xT1":424.9,"yT1":0,"xT2":1058.1,"yT2":0,"toosoon":0,"cond_shown":"equaldotanddens","ratio_trial":900,"smaller_num":"18","larger_num":"20","correct_side":1,"subjID":"DanielPabon26","gender":"0","age":"8","school":"4"},{"start_time":1552328104702,"click_time":1552328105383,"finger_time":1552328105242,"fix_duration":439.25306644569764,"trial":34,"RT":540,"MT":141,"sideResp":2,"stimulus":"img/500/equaldotsize/R/6_Ratio_500_L_9_R_18.png","xmouse":[798,798,798,798,798,798,798,798,798,798,798,798,798,798,798,798,798,798,798,798,798,798,798,798,801,809,823,874,910,952,1001,1044,1129,1144,1151],"ymouse":[652,652,652,652,652,652,652,652,652,652,652,652,652,652,652,652,652,652,652,652,652,652,652,652,650,639,619,549,501,437,368,298,150,110,83],"timestamp_mouse":[2,20,39,60,79,100,121,140,160,179,200,220,239,260,279,300,321,340,360,380,400,419,440,459,481,500,520,540,559,580,601,620,640,661,680],"xSR":741.5,"ySR":573.95,"xT1":424.9,"yT1":0,"xT2":1058.1,"yT2":0,"toosoon":0,"cond_shown":"equaldotsize","ratio_trial":500,"smaller_num":"9","larger_num":"18","correct_side":2,"subjID":"DanielPabon26","gender":"0","age":"8","school":"4"},{"start_time":1552328107889,"click_time":1552328108923,"finger_time":1552328108542,"fix_duration":325.6660654545608,"trial":35,"RT":653,"MT":381,"sideResp":2,"stimulus":"img/500/equaldotsize/R/3_Ratio_500_L_10_R_20.png","xmouse":[780,780,780,780,780,780,780,780,780,780,780,780,780,780,780,780,780,780,780,780,780,780,780,780,780,780,781,782,783,787,790,795,810,817,825,833,850,858,869,877,882,891,904,909,916,925,937,977,1003,1030,1048,1069],"ymouse":[600,600,600,600,600,600,600,600,600,600,600,600,600,600,600,600,600,600,600,600,600,600,600,600,600,600,600,599,598,594,587,574,534,514,496,479,444,424,406,386,368,345,316,304,290,273,256,204,168,131,104,66],"timestamp_mouse":[13,33,52,73,94,114,132,154,172,194,214,232,254,274,294,313,334,353,373,393,414,434,452,472,493,513,533,552,574,593,613,633,653,673,694,713,734,752,773,793,814,832,852,873,893,913,934,952,973,993,1012,1034],"xSR":741.5,"ySR":573.95,"xT1":424.9,"yT1":0,"xT2":1058.1,"yT2":0,"toosoon":0,"cond_shown":"equaldotsize","ratio_trial":500,"smaller_num":"10","larger_num":"20","correct_side":2,"subjID":"DanielPabon26","gender":"0","age":"8","school":"4"},{"start_time":1552328110169,"click_time":1552328111303,"finger_time":1552328111041,"fix_duration":485.35318396646034,"trial":36,"RT":872,"MT":262,"sideResp":1,"stimulus":"img/750/equaldotanddens/L/6_Ratio_750_L_24_R_18.png","xmouse":[779,779,779,779,779,779,779,779,779,779,779,779,779,779,779,779,779,779,779,779,779,779,779,779,779,779,779,779,779,779,779,779,779,779,779,779,779,779,779,777,777,775,774,768,763,752,724,698,644,618,599,585,562,553,541,529,515],"ymouse":[606,606,606,606,606,606,606,606,606,606,606,606,606,606,606,606,606,606,606,606,606,606,606,606,606,606,606,606,606,606,606,606,606,606,606,606,606,606,606,605,602,594,583,531,490,435,354,302,207,168,143,121,97,87,81,76,70],"timestamp_mouse":[20,40,53,73,92,114,133,153,173,194,213,232,252,274,292,313,334,353,373,392,414,433,454,473,493,513,533,553,573,593,614,633,654,674,693,714,732,753,774,792,813,832,852,872,893,913,933,954,974,993,1012,1033,1054,1072,1093,1113,1134],"xSR":741.5,"ySR":573.95,"xT1":424.9,"yT1":0,"xT2":1058.1,"yT2":0,"toosoon":0,"cond_shown":"equaldotanddens","ratio_trial":750,"smaller_num":"18","larger_num":"24","correct_side":1,"subjID":"DanielPabon26","gender":"0","age":"8","school":"4"},{"start_time":1552328114878,"click_time":1552328116223,"finger_time":1552328115561,"fix_duration":1335.858047715664,"trial":37,"RT":683,"MT":662,"sideResp":1,"stimulus":"img/500/equaldotanddens/L/11_Ratio_500_L_12_R_6.png","xmouse":[798,798,798,798,798,798,798,798,798,798,798,798,798,798,798,798,798,798,798,798,798,798,798,797,796,796,796,795,795,794,792,787,757,742,725,709,686,661,626,617,603,598,589,573,562,551,540,531,521,520,520,520,520,519,518,517,516,513,511,509,507,506,505,503,501,501,500,500],"ymouse":[659,659,659,659,659,659,659,659,659,659,659,659,659,659,659,659,659,659,659,659,659,658,657,657,657,657,657,657,657,656,654,648,617,600,569,524,473,423,363,339,309,299,276,251,237,224,215,208,203,203,203,203,203,194,189,184,178,169,164,161,154,151,138,119,111,106,102,99],"timestamp_mouse":[13,23,44,64,83,105,125,145,165,185,205,224,244,264,285,304,324,344,363,384,404,423,444,465,484,505,525,544,563,584,604,623,645,664,683,705,724,744,763,784,804,824,844,864,884,904,924,945,964,984,1003,1024,1044,1064,1083,1104,1124,1145,1164,1185,1204,1225,1244,1265,1285,1305,1324,1345],"xSR":741.5,"ySR":573.95,"xT1":424.9,"yT1":0,"xT2":1058.1,"yT2":0,"toosoon":0,"cond_shown":"equaldotanddens","ratio_trial":500,"smaller_num":"6","larger_num":"12","correct_side":1,"subjID":"DanielPabon26","gender":"0","age":"8","school":"4"},{"start_time":1552328118585,"click_time":1552328120002,"finger_time":1552328119343,"fix_duration":1242.0661150309315,"trial":38,"RT":758,"MT":659,"sideResp":2,"stimulus":"img/250/equaldotanddens/R/6_Ratio_250_L_6_R_24.png","xmouse":[763,763,763,763,763,763,763,763,763,763,763,763,763,763,763,763,763,763,763,763,763,763,763,763,763,763,763,763,763,763,763,763,763,763,763,764,771,792,806,820,840,868,925,955,972,985,991,992,992,992,992,995,997,1000,1002,1004,1006,1008,1009,1011,1013,1021,1024,1026,1027,1031,1042,1049,1060,1069,1079],"ymouse":[593,593,593,593,593,593,593,593,593,593,593,593,593,593,593,593,593,593,593,593,593,593,593,593,593,593,593,593,593,593,593,593,593,593,593,593,588,566,546,516,468,406,288,244,222,210,204,203,203,202,201,194,188,183,177,174,172,171,169,168,165,160,158,157,155,152,143,134,123,111,98],"timestamp_mouse":[18,38,57,76,96,117,138,157,177,197,216,237,258,278,297,317,336,356,378,396,416,438,458,476,498,516,536,557,576,598,617,638,657,677,696,716,736,758,777,797,817,837,856,877,897,917,936,957,976,996,1017,1038,1056,1078,1097,1118,1137,1157,1177,1198,1217,1238,1256,1276,1297,1317,1338,1356,1377,1398,1417],"xSR":741.5,"ySR":573.95,"xT1":424.9,"yT1":0,"xT2":1058.1,"yT2":0,"toosoon":0,"cond_shown":"equaldotanddens","ratio_trial":250,"smaller_num":"6","larger_num":"24","correct_side":2,"subjID":"DanielPabon26","gender":"0","age":"8","school":"4"},{"start_time":1552328123372,"click_time":1552328124662,"finger_time":1552328124281,"fix_duration":1468.6771258457295,"trial":39,"RT":909,"MT":381,"sideResp":2,"stimulus":"img/750/randomdotsizeEA/R/4_Ratio_750_L_15_R_20.png","xmouse":[793,793,793,793,793,793,793,793,793,793,793,793,793,793,793,793,793,793,793,793,793,793,793,793,793,793,793,793,793,793,793,793,793,793,793,793,793,793,793,793,793,793,793,798,807,821,827,842,866,883,887,897,902,913,920,924,931,945,967,977,988,1004,1020,1054,1066],"ymouse":[620,620,620,620,620,620,620,620,620,620,620,620,620,620,620,620,620,620,620,620,620,620,620,620,620,620,620,620,620,620,620,620,620,620,620,620,620,620,620,620,620,620,620,611,587,538,516,439,338,270,254,221,201,161,142,126,111,92,73,67,62,58,53,46,45],"timestamp_mouse":[12,32,50,71,90,110,129,150,170,190,209,230,251,270,289,309,331,351,369,390,410,430,451,470,491,510,529,551,570,591,611,630,649,671,691,710,731,751,770,791,810,829,851,870,891,909,929,949,970,994,1010,1030,1050,1070,1089,1111,1130,1149,1169,1190,1209,1230,1250,1270,1290],"xSR":741.5,"ySR":573.95,"xT1":424.9,"yT1":0,"xT2":1058.1,"yT2":0,"toosoon":0,"cond_shown":"randomdotsizeEA","ratio_trial":750,"smaller_num":"15","larger_num":"20","correct_side":2,"subjID":"DanielPabon26","gender":"0","age":"8","school":"4"},{"start_time":1552328127053,"click_time":1552328128323,"finger_time":1552328127901,"fix_duration":250,"trial":40,"RT":848,"MT":422,"sideResp":2,"stimulus":"img/750/equaldotanddens/R/4_Ratio_750_L_15_R_20.png","xmouse":[790,790,790,790,790,790,790,790,790,790,790,790,790,790,790,790,790,790,790,790,790,790,790,790,790,790,790,790,790,790,790,790,790,790,790,790,790,790,790,790,801,817,828,930,962,994,1011,1025,1046,1056,1068,1078,1087,1088,1088,1088,1086,1085,1085,1085,1087,1089,1093,1103],"ymouse":[622,622,622,622,622,622,622,622,622,622,622,622,622,622,622,622,622,622,622,622,622,622,622,622,622,622,622,622,622,622,622,622,622,622,622,622,622,622,622,622,607,582,566,444,402,351,311,278,225,199,175,160,147,144,141,140,138,136,136,132,126,121,112,69],"timestamp_mouse":[13,29,50,70,90,110,128,149,170,189,210,229,250,270,290,309,329,350,369,389,409,430,449,470,489,510,529,548,569,589,610,629,650,669,690,709,728,749,770,789,809,829,848,870,889,909,930,949,970,989,1009,1029,1049,1070,1089,1108,1130,1149,1169,1189,1208,1228,1248,1269],"xSR":741.5,"ySR":573.95,"xT1":424.9,"yT1":0,"xT2":1058.1,"yT2":0,"toosoon":0,"cond_shown":"equaldotanddens","ratio_trial":750,"smaller_num":"15","larger_num":"20","correct_side":2,"subjID":"DanielPabon26","gender":"0","age":"8","school":"4"},{"start_time":1552328130041,"click_time":1552328130881,"finger_time":1552328130721,"fix_duration":958.5264314156356,"trial":41,"RT":680,"MT":160,"sideResp":2,"stimulus":"img/250/randomdotsizeEA/R/4_Ratio_250_L_3_R_12.png","xmouse":[809,809,809,809,809,809,809,809,809,809,809,809,809,809,809,809,809,809,809,809,809,809,809,809,809,809,809,809,809,809,809,809,812,818,832,872,905,934,967,1001,1043,1053,1059],"ymouse":[605,605,605,605,605,605,605,605,605,605,605,605,605,605,605,605,605,605,605,605,605,605,605,605,605,605,605,605,605,605,605,604,591,574,542,440,365,290,214,151,75,58,47],"timestamp_mouse":[16,26,41,60,80,102,122,142,160,182,202,221,242,260,281,301,321,342,361,380,401,422,441,462,482,502,521,541,562,582,602,621,641,662,680,700,721,741,761,781,801,821,840],"xSR":741.5,"ySR":573.95,"xT1":424.9,"yT1":0,"xT2":1058.1,"yT2":0,"toosoon":0,"cond_shown":"randomdotsizeEA","ratio_trial":250,"smaller_num":"3","larger_num":"12","correct_side":2,"subjID":"DanielPabon26","gender":"0","age":"8","school":"4"},{"start_time":1552328133212,"click_time":1552328134943,"finger_time":1552328134662,"fix_duration":1368.6401424854378,"trial":42,"RT":1450,"MT":281,"sideResp":2,"stimulus":"img/750/equaldotsize/R/3_Ratio_750_L_15_R_20.png","xmouse":[775,775,775,775,775,775,775,775,775,775,775,775,775,775,775,775,775,775,775,775,775,775,775,775,775,775,775,775,775,775,775,775,775,775,775,775,775,775,775,775,775,775,775,775,775,775,775,775,775,775,775,775,775,775,775,775,775,775,775,775,775,775,775,775,775,775,775,775,775,775,776,783,791,809,855,896,981,1024,1060,1084,1097,1097,1097,1097,1098,1101,1103],"ymouse":[593,593,593,593,593,593,593,593,593,593,593,593,593,593,593,593,593,593,593,593,593,593,593,593,593,593,593,593,593,594,594,594,594,594,594,594,594,594,594,594,594,594,594,594,594,594,594,594,594,594,594,594,594,594,594,594,594,594,594,594,594,594,594,594,594,594,594,594,594,594,593,582,564,533,451,369,162,62,0,0,0,0,0,0,0,0,1],"timestamp_mouse":[13,38,51,71,90,111,130,151,170,189,209,230,251,269,291,311,331,349,371,390,410,430,450,471,491,511,530,551,570,590,611,630,651,670,690,709,729,749,770,791,809,830,851,870,890,911,929,949,971,989,1011,1030,1050,1070,1089,1110,1129,1151,1170,1191,1211,1230,1251,1270,1290,1311,1330,1350,1371,1391,1410,1430,1450,1470,1491,1510,1530,1550,1570,1590,1612,1629,1650,1671,1691,1710,1731],"xSR":741.5,"ySR":573.95,"xT1":424.9,"yT1":0,"xT2":1058.1,"yT2":0,"toosoon":0,"cond_shown":"equaldotsize","ratio_trial":750,"smaller_num":"15","larger_num":"20","correct_side":2,"subjID":"DanielPabon26","gender":"0","age":"8","school":"4"},{"start_time":1552328136454,"click_time":1552328138503,"finger_time":1552328137382,"fix_duration":450.24669647818826,"trial":43,"RT":928,"MT":1121,"sideResp":2,"stimulus":"img/900/randomdotsizeEA/R/12_Ratio_900_L_18_R_20.png","xmouse":[815,815,815,815,815,815,815,815,815,815,815,815,815,815,815,815,815,815,815,815,815,815,815,815,815,815,815,815,815,815,815,815,815,815,815,815,815,815,815,815,815,815,815,815,823,834,848,867,914,936,951,964,970,981,989,1001,1012,1017,1021,1023,1026,1028,1030,1032,1035,1038,1041,1044,1047,1053,1057,1060,1062,1064,1065,1065,1066,1066,1068,1069,1069,1069,1069,1069,1069,1069,1069,1069,1069,1069,1070,1070,1070,1070,1070,1070,1070,1071,1071,1073,1075,1078,1082],"ymouse":[623,623,623,623,623,623,623,623,623,623,623,623,623,623,623,623,623,623,623,623,623,623,623,623,623,623,623,623,623,623,623,623,623,623,623,623,623,623,623,623,623,623,623,623,607,588,564,527,436,385,350,326,319,305,299,290,282,276,267,265,259,255,250,243,231,223,217,211,207,196,191,188,184,179,177,176,175,173,168,166,166,166,166,166,166,166,166,166,166,166,165,163,162,159,157,156,154,151,149,134,124,114,98],"timestamp_mouse":[20,49,49,69,88,107,128,147,167,188,208,228,247,269,288,308,328,348,369,388,408,429,449,469,488,507,529,549,569,588,608,628,649,669,687,707,728,749,768,789,809,829,849,867,888,908,928,949,968,987,1008,1027,1048,1069,1088,1108,1128,1148,1169,1187,1208,1228,1248,1269,1288,1308,1329,1348,1368,1388,1408,1428,1449,1469,1487,1508,1528,1548,1569,1588,1608,1629,1647,1668,1687,1707,1727,1749,1769,1789,1808,1827,1847,1868,1887,1908,1928,1948,1969,1987,2009,2027,2048],"xSR":741.5,"ySR":573.95,"xT1":424.9,"yT1":0,"xT2":1058.1,"yT2":0,"toosoon":0,"cond_shown":"randomdotsizeEA","ratio_trial":900,"smaller_num":"18","larger_num":"20","correct_side":2,"subjID":"DanielPabon26","gender":"0","age":"8","school":"4"},{"start_time":1552328140664,"click_time":1552328141523,"finger_time":1552328141402,"fix_duration":1260.3575789985496,"trial":44,"RT":738,"MT":121,"sideResp":2,"stimulus":"img/500/equaldotsize/R/14_Ratio_500_L_5_R_10.png","xmouse":[758,758,758,758,758,758,758,758,758,758,758,758,758,758,758,758,758,758,758,758,758,758,758,758,758,758,758,758,758,758,758,758,758,758,762,772,785,844,890,936,981,1016,1083],"ymouse":[613,613,613,613,613,613,613,613,613,613,613,613,613,613,613,613,613,613,613,613,613,613,613,613,613,613,613,613,613,613,613,613,613,613,609,594,570,457,380,297,222,156,39],"timestamp_mouse":[18,38,59,79,99,117,139,159,179,199,219,237,259,278,298,318,339,359,378,398,417,439,459,479,498,519,538,557,578,599,618,638,657,678,698,719,738,759,778,798,817,838,859],"xSR":741.5,"ySR":573.95,"xT1":424.9,"yT1":0,"xT2":1058.1,"yT2":0,"toosoon":0,"cond_shown":"equaldotsize","ratio_trial":500,"smaller_num":"5","larger_num":"10","correct_side":2,"subjID":"DanielPabon26","gender":"0","age":"8","school":"4"},{"start_time":1552328142950,"click_time":1552328144042,"finger_time":1552328143703,"fix_duration":505.90785797648107,"trial":45,"RT":753,"MT":339,"sideResp":1,"stimulus":"img/750/randomdotsizeEA/L/13_Ratio_750_L_8_R_6.png","xmouse":[791,791,791,791,791,791,791,791,791,791,791,791,791,791,791,791,791,791,791,791,791,791,791,791,791,791,791,791,791,791,791,791,791,791,791,791,791,791,788,758,732,700,672,649,644,638,626,622,581,561,532,509,497,489,487],"ymouse":[630,630,630,630,630,630,630,630,630,630,630,630,630,630,630,630,630,630,630,630,630,630,630,630,630,630,630,630,630,630,630,630,630,630,630,620,605,567,528,400,313,233,165,97,75,56,31,25,0,0,0,0,0,0,1],"timestamp_mouse":[27,35,53,71,91,111,132,151,173,191,211,231,252,273,291,311,332,353,373,391,411,432,452,471,492,513,533,553,573,592,611,633,651,671,691,713,732,753,771,791,812,832,852,873,892,912,931,953,974,994,1011,1031,1052,1073,1092],"xSR":741.5,"ySR":573.95,"xT1":424.9,"yT1":0,"xT2":1058.1,"yT2":0,"toosoon":0,"cond_shown":"randomdotsizeEA","ratio_trial":750,"smaller_num":"6","larger_num":"8","correct_side":1,"subjID":"DanielPabon26","gender":"0","age":"8","school":"4"},{"start_time":1552328146875,"click_time":1552328147623,"finger_time":1552328147521,"fix_duration":611.7279900939998,"trial":46,"RT":646,"MT":102,"sideResp":2,"stimulus":"img/750/equaldotanddens/R/2_Ratio_750_L_6_R_8.png","xmouse":[808,808,808,808,808,808,808,808,808,808,808,808,808,808,808,808,808,808,808,808,808,808,808,808,808,808,808,808,808,810,821,827,855,917,956,987,1017,1067],"ymouse":[648,648,648,648,648,648,648,648,648,648,648,648,648,648,648,648,648,648,648,648,648,648,648,648,648,648,648,648,647,637,612,598,534,399,325,250,172,59],"timestamp_mouse":[12,31,46,66,86,108,128,146,168,188,206,228,248,268,287,306,327,347,367,387,408,426,447,467,488,508,526,547,566,588,607,627,646,666,686,706,726,748],"xSR":741.5,"ySR":573.95,"xT1":424.9,"yT1":0,"xT2":1058.1,"yT2":0,"toosoon":0,"cond_shown":"equaldotanddens","ratio_trial":750,"smaller_num":"6","larger_num":"8","correct_side":2,"subjID":"DanielPabon26","gender":"0","age":"8","school":"4"},{"start_time":1552328148963,"click_time":1552328150742,"finger_time":1552328149823,"fix_duration":339.4690792276274,"trial":47,"RT":860,"MT":919,"sideResp":1,"stimulus":"img/750/randomdotsizeEA/L/14_Ratio_750_L_8_R_6.png","xmouse":[785,785,785,785,785,785,785,785,785,785,785,785,785,785,785,785,785,785,785,785,785,785,785,785,785,785,785,785,785,785,785,785,785,785,785,785,785,785,785,785,785,785,782,748,723,715,713,709,697,688,675,659,641,626,595,581,562,556,532,529,529,529,529,529,529,529,529,529,529,529,529,529,529,529,529,529,529,529,529,529,529,529,529,529,529,529,529,529,528,505],"ymouse":[599,599,599,599,599,599,599,599,599,599,599,599,599,599,599,599,599,599,599,599,599,599,599,599,599,599,599,599,599,599,599,599,599,599,599,599,599,599,599,599,599,593,575,500,455,428,407,375,334,311,292,270,248,231,203,192,179,174,158,156,156,156,156,156,156,156,156,156,156,155,151,144,136,117,111,109,108,108,108,108,108,108,108,108,108,108,108,108,106,90],"timestamp_mouse":[1,19,39,60,80,100,120,140,159,179,199,219,239,259,279,299,319,338,359,380,400,419,438,460,479,499,519,539,560,580,599,618,640,660,679,699,720,739,760,778,798,820,839,860,878,899,919,939,960,978,999,1019,1039,1060,1079,1099,1118,1139,1160,1178,1199,1219,1239,1260,1280,1299,1319,1338,1360,1379,1399,1419,1439,1459,1479,1499,1519,1540,1558,1578,1599,1620,1639,1660,1678,1699,1720,1738,1759,1779],"xSR":741.5,"ySR":573.95,"xT1":424.9,"yT1":0,"xT2":1058.1,"yT2":0,"toosoon":0,"cond_shown":"randomdotsizeEA","ratio_trial":750,"smaller_num":"6","larger_num":"8","correct_side":1,"subjID":"DanielPabon26","gender":"0","age":"8","school":"4"},{"start_time":1552328152114,"click_time":1552328152941,"finger_time":1552328152802,"fix_duration":250,"trial":48,"RT":688,"MT":139,"sideResp":2,"stimulus":"img/750/randomdotsizeEA/R/5_Ratio_750_L_15_R_20.png","xmouse":[805,805,805,805,805,805,805,805,805,805,805,805,805,805,805,805,805,805,805,805,805,805,805,805,805,804,804,804,804,804,804,804,805,806,811,833,855,888,925,989,1035,1105],"ymouse":[584,584,584,584,584,584,584,584,584,584,584,584,584,584,584,584,584,584,584,584,584,584,584,584,584,584,584,584,584,584,584,584,580,574,559,501,442,367,293,198,139,54],"timestamp_mouse":[13,35,48,67,88,109,128,149,169,188,209,229,248,269,288,308,329,348,368,387,409,427,447,469,488,509,528,547,568,587,608,629,648,668,688,709,728,748,768,789,808,827],"xSR":741.5,"ySR":573.95,"xT1":424.9,"yT1":0,"xT2":1058.1,"yT2":0,"toosoon":0,"cond_shown":"randomdotsizeEA","ratio_trial":750,"smaller_num":"15","larger_num":"20","correct_side":2,"subjID":"DanielPabon26","gender":"0","age":"8","school":"4"},{"start_time":1552328154468,"click_time":1552328156162,"finger_time":1552328155202,"fix_duration":743.069775265437,"trial":49,"RT":734,"MT":960,"sideResp":1,"stimulus":"img/500/equaldotanddens/L/8_Ratio_500_L_8_R_4.png","xmouse":[824,824,824,824,824,824,824,824,824,824,824,824,824,824,824,824,824,824,824,824,824,824,824,824,824,824,824,824,824,824,824,824,824,825,825,825,825,786,741,702,679,674,666,650,639,623,597,552,543,537,534,534,534,533,533,533,534,540,552,554,554,554,553,556,561,566,567,567,567,565,552,514,469,466,466,465,465,465,466,466,466,466,468,473,477],"ymouse":[624,624,624,624,624,624,624,624,624,624,624,624,624,624,624,624,624,624,624,624,624,624,624,624,624,624,624,624,624,624,624,623,621,611,601,585,564,466,389,315,259,223,169,102,69,39,1,0,0,0,0,0,0,0,7,25,50,76,122,143,148,161,173,205,222,232,236,237,237,237,229,200,159,152,149,145,145,143,139,135,130,122,119,103,89],"timestamp_mouse":[14,33,54,74,94,113,134,155,173,195,214,233,254,274,295,314,335,353,374,394,415,435,455,474,494,514,533,555,574,595,615,634,654,674,694,714,734,754,774,794,814,834,854,874,895,914,933,954,974,993,1013,1034,1054,1074,1095,1114,1135,1153,1173,1194,1214,1233,1253,1273,1293,1314,1334,1355,1373,1394,1413,1434,1454,1473,1494,1514,1534,1554,1574,1594,1614,1634,1654,1673,1694],"xSR":741.5,"ySR":573.95,"xT1":424.9,"yT1":0,"xT2":1058.1,"yT2":0,"toosoon":0,"cond_shown":"equaldotanddens","ratio_trial":500,"smaller_num":"4","larger_num":"8","correct_side":1,"subjID":"DanielPabon26","gender":"0","age":"8","school":"4"},{"start_time":1552328159597,"click_time":1552328160583,"finger_time":1552328160423,"fix_duration":455.7603235089491,"trial":50,"RT":826,"MT":160,"sideResp":2,"stimulus":"img/500/randomdotsizeEA/R/12_Ratio_500_L_1_R_2.png","xmouse":[773,773,773,773,773,773,773,773,773,773,773,773,773,773,773,773,773,773,773,773,773,773,773,773,773,773,773,773,773,773,773,773,772,771,771,771,779,781,781,781,783,797,814,843,885,952,981,1033,1055,1064],"ymouse":[618,618,618,618,618,618,618,618,618,618,618,618,618,618,618,618,618,618,618,618,618,618,618,618,618,618,618,618,618,618,618,618,616,613,609,604,589,588,588,588,581,548,523,481,421,301,226,119,91,75],"timestamp_mouse":[20,34,44,65,86,104,125,145,166,185,205,225,245,266,284,305,326,344,365,385,404,424,445,466,484,505,526,546,566,585,605,626,645,665,685,705,726,744,765,786,805,826,845,865,885,905,925,945,966,986],"xSR":741.5,"ySR":573.95,"xT1":424.9,"yT1":0,"xT2":1058.1,"yT2":0,"toosoon":0,"cond_shown":"randomdotsizeEA","ratio_trial":500,"smaller_num":"1","larger_num":"2","correct_side":2,"subjID":"DanielPabon26","gender":"0","age":"8","school":"4"},{"start_time":1552328162565,"click_time":1552328163823,"finger_time":1552328163322,"fix_duration":1020.1235977323574,"trial":51,"RT":757,"MT":501,"sideResp":1,"stimulus":"img/500/equaldotanddens/L/4_Ratio_500_L_18_R_9.png","xmouse":[774,774,774,774,774,774,774,774,774,774,774,774,774,774,774,774,774,774,774,774,774,774,774,774,774,774,774,774,774,774,774,774,774,774,774,774,780,788,803,805,805,786,755,737,723,703,688,668,637,623,612,608,597,590,579,566,558,558,558,556,549,529,501],"ymouse":[604,604,604,604,604,604,604,604,604,604,604,604,604,604,604,604,604,604,604,604,604,604,604,604,604,604,604,604,604,604,604,604,604,604,604,600,588,563,490,448,396,338,239,199,166,131,108,86,55,46,44,44,42,40,39,35,34,34,34,34,34,34,34],"timestamp_mouse":[17,38,57,77,96,117,137,158,177,197,218,237,258,277,298,317,336,356,377,398,418,438,456,477,496,518,537,556,577,598,617,638,658,678,698,717,737,757,777,797,818,837,858,877,897,916,938,957,977,997,1017,1037,1058,1076,1097,1117,1137,1157,1177,1197,1217,1237,1258],"xSR":741.5,"ySR":573.95,"xT1":424.9,"yT1":0,"xT2":1058.1,"yT2":0,"toosoon":0,"cond_shown":"equaldotanddens","ratio_trial":500,"smaller_num":"9","larger_num":"18","correct_side":1,"subjID":"DanielPabon26","gender":"0","age":"8","school":"4"},{"start_time":1552328167129,"click_time":1552328167983,"finger_time":1552328167803,"fix_duration":1062.6334099455887,"trial":52,"RT":674,"MT":180,"sideResp":2,"stimulus":"img/500/equaldotanddens/R/9_Ratio_500_L_2_R_4.png","xmouse":[820,820,820,820,820,820,820,820,820,820,820,820,820,820,820,820,820,820,820,820,820,820,820,820,820,820,820,820,820,820,820,828,839,849,894,922,948,971,1004,1034,1046,1055,1059],"ymouse":[649,649,649,649,649,649,649,649,649,649,649,649,649,649,649,649,649,649,649,649,649,649,649,649,649,649,649,649,649,649,649,633,611,588,504,452,397,340,256,150,107,81,54],"timestamp_mouse":[15,35,55,75,95,114,135,154,174,196,215,235,255,275,296,315,335,356,374,394,414,435,454,476,494,516,535,556,576,596,615,635,655,674,695,715,735,755,775,796,815,835,854],"xSR":741.5,"ySR":573.95,"xT1":424.9,"yT1":0,"xT2":1058.1,"yT2":0,"toosoon":0,"cond_shown":"equaldotanddens","ratio_trial":500,"smaller_num":"2","larger_num":"4","correct_side":2,"subjID":"DanielPabon26","gender":"0","age":"8","school":"4"},{"start_time":1552328169177,"click_time":1552328170544,"finger_time":1552328170064,"fix_duration":250,"trial":53,"RT":887,"MT":480,"sideResp":2,"stimulus":"img/250/randomdotsizeEA/R/9_Ratio_250_L_3_R_12.png","xmouse":[793,793,793,793,793,793,793,793,793,793,793,793,794,794,794,794,794,788,787,786,786,786,786,786,786,786,786,786,786,786,786,786,786,786,786,786,786,786,786,786,786,786,790,811,840,884,953,1002,1011,1016,1017,1017,1017,1016,1016,1014,1011,1010,1011,1012,1015,1017,1027,1035,1042,1054,1060,1085,1093],"ymouse":[656,656,656,656,656,656,656,656,656,651,648,643,637,632,632,632,632,632,634,635,635,635,635,635,635,635,635,635,635,635,635,635,635,635,635,635,635,635,635,635,635,635,627,600,560,509,416,313,281,262,251,248,246,245,242,236,227,213,211,209,206,203,193,183,175,158,149,111,96],"timestamp_mouse":[10,27,46,67,88,106,126,146,168,186,207,226,246,266,288,308,328,347,367,388,407,427,447,467,487,507,527,547,567,588,607,627,647,666,687,707,728,748,767,787,808,826,847,866,887,906,928,948,966,986,1008,1027,1048,1067,1087,1106,1128,1147,1166,1187,1208,1227,1248,1267,1287,1306,1326,1348,1367],"xSR":741.5,"ySR":573.95,"xT1":424.9,"yT1":0,"xT2":1058.1,"yT2":0,"toosoon":0,"cond_shown":"randomdotsizeEA","ratio_trial":250,"smaller_num":"3","larger_num":"12","correct_side":2,"subjID":"DanielPabon26","gender":"0","age":"8","school":"4"},{"start_time":1552328171634,"click_time":1552328172984,"finger_time":1552328172485,"fix_duration":329.4535133189248,"trial":54,"RT":851,"MT":499,"sideResp":1,"stimulus":"img/900/equaldotsize/R/15_Ratio_900_L_9_R_10.png","xmouse":[770,770,770,770,770,770,770,770,770,770,770,770,770,770,770,770,770,770,770,770,770,770,770,770,770,770,771,771,773,774,774,774,774,775,775,775,775,775,775,775,775,775,775,770,741,671,648,635,629,620,616,613,610,606,603,599,590,573,559,536,532,532,532,532,532,528,525,524],"ymouse":[616,616,616,616,616,616,616,616,616,616,616,616,616,616,616,616,616,616,616,616,616,616,616,616,616,616,614,612,611,609,607,607,607,606,606,606,606,606,606,605,597,588,570,546,468,321,262,218,183,116,89,69,53,46,41,40,39,37,34,31,31,31,31,31,31,33,39,42],"timestamp_mouse":[12,31,50,69,90,110,130,151,171,190,210,231,251,270,291,309,329,351,370,391,411,431,451,469,490,511,530,550,571,591,611,629,650,671,689,711,729,751,771,791,810,831,851,871,890,911,930,950,969,990,1011,1030,1050,1070,1090,1109,1130,1150,1170,1190,1210,1231,1250,1271,1291,1311,1330,1350],"xSR":741.5,"ySR":573.95,"xT1":424.9,"yT1":0,"xT2":1058.1,"yT2":0,"toosoon":0,"cond_shown":"equaldotsize","ratio_trial":900,"smaller_num":"9","larger_num":"10","correct_side":2,"subjID":"DanielPabon26","gender":"0","age":"8","school":"4"},{"start_time":1552328174879,"click_time":1552328175625,"finger_time":1552328175243,"fix_duration":1032.4227628246697,"trial":55,"RT":364,"MT":382,"sideResp":2,"stimulus":"img/250/equaldotanddens/R/12_Ratio_250_L_5_R_20.png","xmouse":[791,791,791,791,791,791,791,791,791,791,791,791,791,791,793,795,798,803,817,824,838,852,877,928,954,983,1002,1019,1036,1037,1039,1043,1048,1050,1052,1053,1057,1065],"ymouse":[619,619,619,619,619,619,619,619,619,619,619,619,619,619,618,615,607,595,564,546,527,506,462,377,322,264,221,183,129,110,96,86,71,66,63,61,58,53],"timestamp_mouse":[13,31,45,64,85,106,126,146,165,184,206,225,246,265,284,306,324,344,364,385,405,425,445,466,485,505,524,546,564,585,605,626,645,665,685,705,725,746],"xSR":741.5,"ySR":573.95,"xT1":424.9,"yT1":0,"xT2":1058.1,"yT2":0,"toosoon":0,"cond_shown":"equaldotanddens","ratio_trial":250,"smaller_num":"5","larger_num":"20","correct_side":2,"subjID":"DanielPabon26","gender":"0","age":"8","school":"4"},{"start_time":1552328177249,"click_time":1552328178229,"finger_time":1552328177784,"fix_duration":683.6199736937713,"trial":56,"RT":535,"MT":445,"sideResp":1,"stimulus":"img/250/randomdotsizeEA/L/5_Ratio_250_L_24_R_6.png","xmouse":[784,784,784,784,784,784,784,784,784,784,784,784,784,784,784,784,784,784,784,784,784,784,784,784,784,784,782,771,745,650,607,576,568,568,578,581,582,581,570,560,560,560,560,560,558,552,541,530,510],"ymouse":[590,590,590,590,590,590,590,590,590,590,590,590,590,590,590,590,590,590,590,590,590,590,590,590,589,583,569,544,504,372,293,218,163,122,42,18,9,0,0,0,0,0,0,0,0,0,0,1,3],"timestamp_mouse":[15,37,54,76,95,115,136,155,176,195,214,234,256,276,294,314,335,354,376,396,416,434,454,476,495,515,535,554,575,595,616,634,654,675,694,715,735,755,775,795,816,835,855,876,894,915,935,954,980],"xSR":741.5,"ySR":573.95,"xT1":424.9,"yT1":0,"xT2":1058.1,"yT2":0,"toosoon":0,"cond_shown":"randomdotsizeEA","ratio_trial":250,"smaller_num":"6","larger_num":"24","correct_side":1,"subjID":"DanielPabon26","gender":"0","age":"8","school":"4"},{"start_time":1552328179735,"click_time":1552328180724,"finger_time":1552328180344,"fix_duration":849.9525787222324,"trial":57,"RT":609,"MT":380,"sideResp":1,"stimulus":"img/500/equaldotanddens/L/8_Ratio_500_L_8_R_4.png","xmouse":[770,770,770,770,770,770,770,770,770,770,770,770,770,770,770,770,770,770,770,770,770,770,770,770,770,770,771,773,776,785,801,807,809,807,793,739,727,717,706,687,654,628,601,576,556,537,537,536,533,520],"ymouse":[652,652,652,652,652,652,652,652,652,652,652,652,652,652,652,652,652,652,652,652,652,652,652,652,652,652,649,644,634,601,518,461,398,337,266,161,141,129,117,104,91,79,67,57,48,43,42,42,44,52],"timestamp_mouse":[13,33,49,70,88,110,128,150,169,188,209,230,248,269,290,309,330,349,369,388,409,429,450,470,488,509,529,549,569,589,609,629,648,669,690,709,729,749,769,790,809,829,849,869,888,909,929,949,969,989],"xSR":741.5,"ySR":573.95,"xT1":424.9,"yT1":0,"xT2":1058.1,"yT2":0,"toosoon":0,"cond_shown":"equaldotanddens","ratio_trial":500,"smaller_num":"4","larger_num":"8","correct_side":1,"subjID":"DanielPabon26","gender":"0","age":"8","school":"4"},{"start_time":1552328182539,"click_time":1552328183264,"finger_time":1552328183144,"fix_duration":1034.6924065610747,"trial":58,"RT":605,"MT":120,"sideResp":2,"stimulus":"img/250/randomdotsizeEA/R/10_Ratio_250_L_4_R_16.png","xmouse":[808,808,808,808,808,808,808,807,806,805,805,805,805,805,805,805,805,805,805,805,805,805,805,805,805,805,808,811,818,832,858,883,919,951,1034,1070,1097],"ymouse":[622,622,622,622,622,622,622,622,622,622,622,622,622,622,622,622,622,622,622,622,622,622,622,622,622,622,620,617,605,575,495,438,375,307,175,127,93],"timestamp_mouse":[11,25,44,66,85,105,124,144,165,185,206,225,246,266,284,306,325,346,365,384,404,424,445,465,484,505,526,545,565,585,605,626,645,664,686,705,725],"xSR":741.5,"ySR":573.95,"xT1":424.9,"yT1":0,"xT2":1058.1,"yT2":0,"toosoon":0,"cond_shown":"randomdotsizeEA","ratio_trial":250,"smaller_num":"4","larger_num":"16","correct_side":2,"subjID":"DanielPabon26","gender":"0","age":"8","school":"4"},{"start_time":1552328184966,"click_time":1552328186444,"finger_time":1552328185484,"fix_duration":800.5191672339118,"trial":59,"RT":518,"MT":960,"sideResp":1,"stimulus":"img/500/randomdotsizeEA/L/13_Ratio_500_L_12_R_6.png","xmouse":[820,820,820,820,820,820,820,820,820,820,820,820,820,820,820,820,820,820,820,820,820,820,820,820,830,842,853,876,884,890,899,911,935,945,950,953,954,954,954,954,955,957,963,965,971,981,1000,1016,1038,1042,1043,1043,1043,1018,1000,983,952,888,831,768,695,624,506,460,447,442,441,441,441,441,441,441,441,455],"ymouse":[590,590,590,590,590,590,590,590,590,590,590,590,590,590,590,590,590,590,590,590,590,590,590,590,580,569,554,513,496,477,452,425,353,329,309,297,291,288,286,285,282,277,259,249,241,229,209,194,168,160,157,157,157,155,155,155,160,172,178,178,178,169,129,109,103,101,101,101,101,101,101,100,100,93],"timestamp_mouse":[19,43,58,78,98,118,139,157,178,197,217,238,259,279,299,318,338,359,379,398,419,438,458,477,499,518,538,559,577,598,619,637,658,678,698,718,737,758,778,797,817,837,859,878,897,917,938,958,977,998,1017,1039,1058,1078,1098,1118,1138,1159,1177,1198,1218,1237,1259,1278,1298,1319,1338,1359,1379,1399,1418,1438,1459,1478],"xSR":741.5,"ySR":573.95,"xT1":424.9,"yT1":0,"xT2":1058.1,"yT2":0,"toosoon":0,"cond_shown":"randomdotsizeEA","ratio_trial":500,"smaller_num":"6","larger_num":"12","correct_side":1,"subjID":"DanielPabon26","gender":"0","age":"8","school":"4"},{"start_time":1552328187596,"click_time":1552328188585,"finger_time":1552328188244,"fix_duration":250,"trial":60,"RT":648,"MT":341,"sideResp":2,"stimulus":"img/900/equaldotsize/R/14_Ratio_900_L_18_R_20.png","xmouse":[784,784,784,784,784,784,784,784,784,784,784,784,784,784,784,784,784,784,784,784,784,784,784,784,784,784,784,784,784,784,786,788,793,805,821,834,858,899,920,940,959,996,1012,1028,1047,1054,1064,1070,1070,1070],"ymouse":[590,590,590,590,590,590,590,590,590,590,590,590,590,590,590,590,590,590,590,590,590,590,590,590,590,590,590,590,590,590,584,576,511,468,439,413,363,308,289,272,258,232,219,206,183,175,155,123,107,94],"timestamp_mouse":[13,27,47,68,89,109,127,148,167,187,208,228,247,267,289,309,329,348,368,388,407,428,447,468,487,509,527,547,568,589,608,627,648,668,688,707,727,747,767,788,807,829,847,868,887,908,927,947,968,989],"xSR":741.5,"ySR":573.95,"xT1":424.9,"yT1":0,"xT2":1058.1,"yT2":0,"toosoon":0,"cond_shown":"equaldotsize","ratio_trial":900,"smaller_num":"18","larger_num":"20","correct_side":2,"subjID":"DanielPabon26","gender":"0","age":"8","school":"4"},{"start_time":1552328190158,"click_time":1552328190904,"finger_time":1552328190785,"fix_duration":692.221618510696,"trial":61,"RT":627,"MT":119,"sideResp":2,"stimulus":"img/750/equaldotanddens/R/2_Ratio_750_L_6_R_8.png","xmouse":[768,768,768,768,768,768,768,768,768,768,768,768,768,768,768,768,768,768,768,768,768,768,768,768,768,768,768,768,769,782,795,813,850,935,988,1041,1072,1113],"ymouse":[634,634,634,634,634,634,634,634,634,634,634,634,634,634,634,634,634,634,634,634,634,634,634,634,634,634,634,634,634,614,593,560,501,357,283,207,139,67],"timestamp_mouse":[12,31,47,65,87,107,126,147,165,186,207,226,246,266,287,306,327,347,366,386,407,425,447,465,486,505,526,547,566,585,606,627,646,667,685,707,725,746],"xSR":741.5,"ySR":573.95,"xT1":424.9,"yT1":0,"xT2":1058.1,"yT2":0,"toosoon":0,"cond_shown":"equaldotanddens","ratio_trial":750,"smaller_num":"6","larger_num":"8","correct_side":2,"subjID":"DanielPabon26","gender":"0","age":"8","school":"4"},{"start_time":1552328193985,"click_time":1552328195185,"finger_time":1552328194744,"fix_duration":739.6661200620687,"trial":62,"RT":759,"MT":441,"sideResp":1,"stimulus":"img/250/randomdotsizeEA/L/2_Ratio_250_L_16_R_4.png","xmouse":[761,761,761,761,761,761,761,761,761,761,761,761,761,761,761,761,761,761,761,761,761,761,761,761,761,761,761,761,761,761,761,761,761,761,761,761,761,761,759,743,717,682,670,660,634,618,496,473,462,461,461,461,461,461,462,463,464,468,472,477],"ymouse":[642,642,642,642,642,642,642,642,642,642,642,642,642,642,642,642,642,642,642,642,642,642,642,642,642,642,642,642,642,642,642,642,637,629,616,612,586,526,479,424,372,316,304,296,284,278,220,207,199,197,197,197,194,189,182,166,154,128,110,93],"timestamp_mouse":[19,38,59,78,100,119,140,160,179,200,219,239,260,278,300,319,339,358,379,400,419,439,459,480,498,520,540,559,580,600,618,639,659,679,699,719,739,759,779,798,818,840,859,879,898,920,939,958,978,1000,1019,1040,1060,1079,1098,1118,1138,1159,1178,1200],"xSR":741.5,"ySR":573.95,"xT1":424.9,"yT1":0,"xT2":1058.1,"yT2":0,"toosoon":0,"cond_shown":"randomdotsizeEA","ratio_trial":250,"smaller_num":"4","larger_num":"16","correct_side":1,"subjID":"DanielPabon26","gender":"0","age":"8","school":"4"},{"start_time":1552328197106,"click_time":1552328198164,"finger_time":1552328197704,"fix_duration":1020.7747396507162,"trial":63,"RT":598,"MT":460,"sideResp":1,"stimulus":"img/500/equaldotsize/L/5_Ratio_500_L_4_R_2.png","xmouse":[781,781,781,781,781,781,781,781,781,781,781,781,781,781,781,781,782,783,783,783,783,783,783,783,783,783,783,783,782,771,749,705,677,645,606,536,522,521,521,521,521,519,517,513,506,500,498,498,498,498,497,497,497],"ymouse":[631,631,631,631,631,631,631,631,631,631,631,631,631,631,631,631,629,628,627,627,627,627,627,627,627,626,623,615,589,556,507,368,291,200,109,0,0,0,0,0,0,0,0,0,0,0,0,0,0,0,0,0,1],"timestamp_mouse":[21,38,58,79,98,117,138,159,177,198,217,238,258,278,298,319,338,358,378,399,418,438,459,479,497,517,537,559,578,598,618,638,658,679,697,720,739,758,778,799,819,837,858,877,898,917,938,958,978,998,1018,1037,1058],"xSR":741.5,"ySR":573.95,"xT1":424.9,"yT1":0,"xT2":1058.1,"yT2":0,"toosoon":0,"cond_shown":"equaldotsize","ratio_trial":500,"smaller_num":"2","larger_num":"4","correct_side":1,"subjID":"DanielPabon26","gender":"0","age":"8","school":"4"},{"start_time":1552328200019,"click_time":1552328201025,"finger_time":1552328200644,"fix_duration":493.87827813384774,"trial":64,"RT":625,"MT":381,"sideResp":1,"stimulus":"img/250/equaldotanddens/L/3_Ratio_250_L_8_R_2.png","xmouse":[796,796,796,796,796,796,796,796,796,796,796,796,796,796,796,796,796,796,796,796,796,796,796,796,796,796,796,795,795,795,789,765,715,648,541,426,390,376,375,375,374,373,372,372,372,372,374,382,393,416,485],"ymouse":[635,635,635,635,635,635,635,635,635,635,635,635,635,635,635,635,635,635,635,635,635,635,635,635,635,635,635,634,631,624,575,514,416,306,134,0,0,0,0,0,0,0,0,0,0,0,0,0,0,14,62],"timestamp_mouse":[12,33,45,65,86,106,125,146,165,184,205,224,244,265,286,305,325,346,365,385,406,426,444,465,486,506,525,545,564,585,606,625,645,665,685,706,727,745,765,785,805,824,845,864,884,906,924,945,965,985,1005],"xSR":741.5,"ySR":573.95,"xT1":424.9,"yT1":0,"xT2":1058.1,"yT2":0,"toosoon":0,"cond_shown":"equaldotanddens","ratio_trial":250,"smaller_num":"2","larger_num":"8","correct_side":1,"subjID":"DanielPabon26","gender":"0","age":"8","school":"4"},{"start_time":1552328203275,"click_time":1552328203964,"finger_time":1552328203824,"fix_duration":1130.075674480953,"trial":65,"RT":549,"MT":140,"sideResp":2,"stimulus":"img/900/equaldotanddens/R/15_Ratio_900_L_9_R_10.png","xmouse":[829,829,829,829,829,828,828,828,828,828,828,828,828,828,828,828,828,828,828,828,828,828,828,828,828,828,832,850,868,889,940,979,1042,1056,1063],"ymouse":[601,601,601,601,601,602,602,602,602,602,602,602,602,602,602,602,602,602,602,602,602,602,602,602,602,602,588,543,486,412,290,214,102,77,66],"timestamp_mouse":[13,38,49,69,89,110,130,150,168,188,209,230,249,269,288,309,329,349,369,388,410,429,449,469,489,508,528,549,569,588,608,629,649,669,689],"xSR":741.5,"ySR":573.95,"xT1":424.9,"yT1":0,"xT2":1058.1,"yT2":0,"toosoon":0,"cond_shown":"equaldotanddens","ratio_trial":900,"smaller_num":"9","larger_num":"10","correct_side":2,"subjID":"DanielPabon26","gender":"0","age":"8","school":"4"},{"start_time":1552328205972,"click_time":1552328206884,"finger_time":1552328206544,"fix_duration":1045.5029283046351,"trial":66,"RT":572,"MT":340,"sideResp":1,"stimulus":"img/750/randomdotsizeEA/L/6_Ratio_750_L_24_R_18.png","xmouse":[807,807,807,807,807,807,807,807,807,807,807,807,807,807,807,807,807,807,807,807,807,807,807,807,807,807,807,807,808,808,808,808,808,808,807,796,770,641,609,593,576,565,543,535,525,522],"ymouse":[587,587,587,587,587,587,587,587,587,587,587,587,587,587,587,587,587,587,587,587,587,587,587,587,587,587,584,580,566,560,555,552,550,545,539,526,497,384,348,321,283,242,168,135,104,87],"timestamp_mouse":[13,33,52,72,92,112,133,151,171,191,212,233,251,272,293,313,333,352,371,392,413,433,453,471,493,512,532,552,571,592,612,632,652,672,692,712,731,752,771,792,811,832,853,872,892,912],"xSR":741.5,"ySR":573.95,"xT1":424.9,"yT1":0,"xT2":1058.1,"yT2":0,"toosoon":0,"cond_shown":"randomdotsizeEA","ratio_trial":750,"smaller_num":"18","larger_num":"24","correct_side":1,"subjID":"DanielPabon26","gender":"0","age":"8","school":"4"},{"start_time":1552328208421,"click_time":1552328209905,"finger_time":1552328209145,"fix_duration":694.3041119753764,"trial":67,"RT":724,"MT":760,"sideResp":2,"stimulus":"img/750/equaldotsize/R/12_Ratio_750_L_3_R_4.png","xmouse":[801,801,801,801,801,801,801,801,801,801,801,801,801,801,801,801,801,801,801,801,801,801,801,801,801,801,801,801,801,801,801,801,803,805,810,832,850,870,893,949,965,973,975,976,976,976,976,976,976,976,976,976,976,976,976,976,976,976,976,976,969,962,958,958,956,956,956,958,964,970,987,1001,1029,1077],"ymouse":[599,599,599,599,599,599,599,599,599,599,599,599,599,599,599,599,599,599,599,599,599,599,599,599,599,599,599,599,599,599,599,599,597,594,583,545,515,482,440,344,311,291,282,279,279,279,279,279,277,276,276,276,276,276,276,276,276,276,275,275,274,274,273,273,273,273,273,273,273,268,242,216,166,62],"timestamp_mouse":[22,44,63,84,104,122,142,164,182,202,222,243,264,282,302,322,343,364,382,404,423,443,463,483,502,523,543,563,584,604,624,643,663,683,702,724,743,763,782,804,823,843,863,882,904,923,943,963,982,1003,1022,1043,1063,1084,1104,1124,1143,1163,1182,1203,1222,1242,1262,1284,1304,1322,1343,1364,1384,1402,1422,1442,1463,1483],"xSR":741.5,"ySR":573.95,"xT1":424.9,"yT1":0,"xT2":1058.1,"yT2":0,"toosoon":0,"cond_shown":"equaldotsize","ratio_trial":750,"smaller_num":"3","larger_num":"4","correct_side":2,"subjID":"DanielPabon26","gender":"0","age":"8","school":"4"},{"start_time":1552328211055,"click_time":1552328211985,"finger_time":1552328211884,"fix_duration":250,"trial":68,"RT":829,"MT":101,"sideResp":1,"stimulus":"img/750/randomdotsizeEA/L/1_Ratio_750_L_20_R_15.png","xmouse":[793,793,793,793,793,793,793,793,793,793,793,793,793,793,793,793,793,793,793,793,793,793,793,793,793,793,793,793,793,793,793,793,793,793,793,793,795,795,797,797,797,787,777,675,618,560,510],"ymouse":[656,656,656,656,656,656,656,656,656,656,656,656,656,656,656,656,656,656,656,656,656,656,656,656,656,656,656,656,656,656,656,656,656,656,656,656,654,653,637,622,601,537,504,306,220,141,70],"timestamp_mouse":[12,33,48,69,88,110,130,149,169,189,208,228,250,269,289,309,329,350,370,389,408,430,450,470,488,508,528,548,570,589,608,629,650,670,689,710,728,748,770,789,809,829,849,869,888,908,929],"xSR":741.5,"ySR":573.95,"xT1":424.9,"yT1":0,"xT2":1058.1,"yT2":0,"toosoon":0,"cond_shown":"randomdotsizeEA","ratio_trial":750,"smaller_num":"15","larger_num":"20","correct_side":1,"subjID":"DanielPabon26","gender":"0","age":"8","school":"4"},{"start_time":1552328213237,"click_time":1552328214344,"finger_time":1552328213863,"fix_duration":292.0563229297026,"trial":69,"RT":626,"MT":481,"sideResp":1,"stimulus":"img/750/equaldotanddens/L/9_Ratio_750_L_4_R_3.png","xmouse":[816,816,816,816,816,816,816,816,816,816,816,816,816,816,816,816,816,816,816,816,816,816,816,816,816,816,816,816,816,816,821,821,822,824,829,831,836,841,847,853,857,858,858,852,847,839,836,825,813,759,721,675,627,573,542,499],"ymouse":[650,650,650,650,650,650,650,650,650,650,650,650,650,650,650,650,650,650,650,650,650,650,650,650,650,650,646,642,636,625,581,556,533,510,494,486,477,470,463,455,440,434,427,413,407,400,397,391,384,351,326,294,258,195,142,32],"timestamp_mouse":[12,27,46,66,88,106,127,148,167,186,207,228,247,268,287,306,327,347,366,387,408,427,447,468,488,508,526,548,566,587,607,626,647,667,688,706,727,747,768,786,806,826,846,866,887,908,926,947,966,987,1006,1027,1047,1067,1087,1107],"xSR":741.5,"ySR":573.95,"xT1":424.9,"yT1":0,"xT2":1058.1,"yT2":0,"toosoon":0,"cond_shown":"equaldotanddens","ratio_trial":750,"smaller_num":"3","larger_num":"4","correct_side":1,"subjID":"DanielPabon26","gender":"0","age":"8","school":"4"},{"start_time":1552328216766,"click_time":1552328218244,"finger_time":1552328217403,"fix_duration":1439.9601518316292,"trial":70,"RT":637,"MT":841,"sideResp":2,"stimulus":"img/900/randomdotsizeEA/R/3_Ratio_900_L_9_R_10.png","xmouse":[805,805,805,805,805,805,805,805,805,805,805,805,805,805,805,805,805,805,805,805,805,805,805,805,805,805,805,805,815,825,836,845,858,881,888,899,907,936,989,1006,1018,1022,1024,1025,1027,1032,1036,1043,1045,1046,1046,1046,1046,1046,1046,1046,1046,1046,1046,1046,1046,1046,1046,1046,1046,1046,1046,1046,1046,1046,1046,1048,1057,1073],"ymouse":[670,670,670,670,670,670,670,670,670,670,670,670,670,670,670,670,670,670,670,670,670,670,670,670,670,670,667,659,634,618,597,572,540,468,429,364,339,259,171,139,120,107,103,99,96,87,79,66,60,58,58,58,58,58,58,58,58,58,58,58,58,58,58,58,58,58,58,58,58,58,58,57,57,57],"timestamp_mouse":[19,40,59,79,99,117,137,159,179,199,218,239,257,279,299,318,337,359,379,399,419,439,459,479,498,519,537,557,577,598,618,637,658,678,699,717,739,757,779,797,818,837,859,877,899,918,937,958,978,998,1018,1039,1058,1079,1097,1118,1138,1159,1177,1198,1219,1237,1258,1279,1298,1319,1338,1359,1377,1398,1417,1437,1459,1478],"xSR":741.5,"ySR":573.95,"xT1":424.9,"yT1":0,"xT2":1058.1,"yT2":0,"toosoon":0,"cond_shown":"randomdotsizeEA","ratio_trial":900,"smaller_num":"9","larger_num":"10","correct_side":2,"subjID":"DanielPabon26","gender":"0","age":"8","school":"4"},{"start_time":1552328220085,"click_time":1552328221325,"finger_time":1552328220705,"fix_duration":1039.2645224530295,"trial":71,"RT":620,"MT":620,"sideResp":1,"stimulus":"img/500/equaldotsize/L/10_Ratio_500_L_4_R_2.png","xmouse":[801,801,801,801,801,801,801,801,801,801,801,801,801,801,801,801,801,801,801,801,801,801,801,801,801,801,801,801,801,801,801,793,752,675,640,606,590,583,581,581,581,581,579,559,552,544,539,535,533,533,533,533,533,532,532,532,532,531,530,530,530,528,510],"ymouse":[637,637,637,637,637,637,637,637,637,637,637,637,637,637,637,637,637,637,637,637,637,637,637,637,637,637,637,634,622,604,580,540,442,296,235,191,162,144,132,131,130,130,127,108,97,83,70,49,41,38,38,38,38,38,38,38,38,38,40,42,42,43,43],"timestamp_mouse":[2,19,39,58,78,100,120,140,160,179,200,219,239,259,280,299,320,340,360,380,399,418,439,460,479,498,518,540,559,579,599,620,640,659,680,698,719,740,759,779,799,820,838,858,878,898,918,940,958,978,999,1019,1040,1060,1080,1099,1118,1140,1158,1178,1199,1218,1240],"xSR":741.5,"ySR":573.95,"xT1":424.9,"yT1":0,"xT2":1058.1,"yT2":0,"toosoon":0,"cond_shown":"equaldotsize","ratio_trial":500,"smaller_num":"2","larger_num":"4","correct_side":1,"subjID":"DanielPabon26","gender":"0","age":"8","school":"4"},{"start_time":1552328223306,"click_time":1552328224364,"finger_time":1552328224024,"fix_duration":960.1533836195866,"trial":72,"RT":718,"MT":340,"sideResp":1,"stimulus":"img/500/equaldotanddens/L/13_Ratio_500_L_12_R_6.png","xmouse":[785,785,785,785,785,785,785,785,785,785,785,785,785,785,785,785,785,785,785,785,785,785,785,785,785,785,785,785,785,785,785,785,786,786,786,786,786,764,724,682,645,632,632,630,619,604,587,586,586,583,563,542,523],"ymouse":[607,607,607,607,607,607,607,607,607,607,607,607,607,607,607,607,607,607,607,607,607,607,607,607,607,607,607,607,607,607,607,607,603,600,588,569,477,381,272,175,94,76,76,76,82,85,86,86,85,75,58,45,39],"timestamp_mouse":[18,38,58,79,97,118,138,159,