[{"start_time":1552327474417,"click_time":1552327483498,"finger_time":1552327474427,"fix_duration":1334.5623222561364,"trial":0,"RT":10,"MT":9071,"sideResp":1,"stimulus":[],"xmouse":[801,801,801,801,801,801,800,798,798,797,797,797,797,797,797,797,797,797,797,797,797,797,797,797,797,797,797,797,797,797,797,797,797,797,797,797,797,797,797,796,796,792,783,782,782,782,782,783,786,788,790,792,792,801,801,801,801,801,801,801,801,801,801,801,801,801,801,801,801,801,801,801,801,801,801,801,801,801,801,801,801,801,801,801,801,801,801,801,801,801,801,801,801,801,801,801,801,801,801,801,801,801,801,801,801,801,801,801,801,801,801,801,801,801,801,801,801,801,801,801,801,801,801,801,801,801,801,801,801,801,801,801,801,801,801,801,801,801,801,0,0,0,0,0,0,0,0,0,0,0,0,0,0,0,0,0,0,0,0,0,0,0,0,0,0,0,0,0,0,0,0,0,0,0,0,0,0,0,0,0,0,0,0,0,0,0,0,0,0,0,0,0,0,0,0,0,0,0,0,0,0,0,0,0,0,0,0,0,0,0,0,0,0,0,0,0,0,0,24,92,196,333,594,667,681,681,678,582,506,427,343,343,343,343,343,343,343,204,225,246,261,275,299,318,332,342,347,347,350,356,367,388,480,555,638,739,771,796,801,803,806,811,836,848,856,864,869,873,873,870,865,863,862,860,845,840,830,825,824,823,822,821,821,821,821,825,828,830,830,828,825,822,812,807,805,805,805,805,805,805,805,805,805,805,805,805,805,805,805,805,805,805,805,805,805,805,805,805,805,805,803,800,788,787,785,785,785,785,785,785,785,785,784,784,784,784,784,784,784,784,784,784,784,784,784,784,784,784,784,784,784,784,784,784,784,784,784,784,785,787,788,788,788,788,788,790,791,792,792,792,792,792,792,792,792,792,792,792,792,791,791,790,789,788,788,787,787,786,785,785,785,785,785,785,785,785,785,785,785,785,785,785,787,788,789,789,790,791,791,791,791,791,791,791,792,793,793,785,770,754,740,729,700,666,639,628,606,599,593,585,576,572,572,572,571,571,567,552,543,536,532,530,530,530,530,530,530,530,530,530,530,530,521,514,496],"ymouse":[531,531,531,531,531,531,531,530,530,529,529,529,529,529,529,529,529,529,529,529,529,529,529,529,529,529,529,529,529,529,529,529,529,529,529,529,529,529,529,529,531,542,590,618,643,664,688,717,732,751,766,778,797,834,834,834,834,834,834,834,834,834,834,834,834,834,834,834,834,834,834,834,834,834,834,834,834,834,834,834,834,834,834,834,834,834,834,834,834,834,834,834,834,834,834,834,834,834,834,834,834,834,834,834,834,834,834,834,834,834,834,834,834,834,834,834,834,834,834,834,834,834,834,834,834,834,834,834,834,834,834,834,834,834,834,834,834,834,834,870,860,860,860,862,877,877,877,877,877,877,877,877,877,877,877,877,877,877,877,877,877,877,877,877,877,877,877,877,877,877,877,877,877,877,861,782,727,727,727,727,727,727,727,727,727,727,727,727,727,727,727,727,715,715,753,814,814,814,814,814,814,814,814,814,814,814,814,814,814,814,814,814,814,814,814,814,814,814,871,827,768,715,642,624,619,619,624,701,754,812,868,868,868,868,868,868,868,879,852,824,797,767,717,689,672,659,654,654,654,654,654,662,717,750,780,800,800,799,795,792,789,784,765,754,737,707,685,642,625,610,600,597,596,596,600,604,614,621,625,629,632,634,634,634,634,633,630,629,627,625,625,625,630,633,634,634,634,634,634,634,634,634,634,634,634,634,634,634,634,634,634,634,634,634,634,634,634,634,634,634,634,634,634,634,634,634,634,634,634,634,633,633,631,631,631,631,631,631,631,631,631,630,625,624,623,623,623,623,623,623,622,621,617,616,615,615,615,615,613,611,610,610,610,610,610,608,608,607,607,606,605,604,602,601,599,598,598,598,596,594,592,590,584,582,581,578,573,566,563,563,563,563,563,563,563,563,563,563,563,566,570,574,583,590,598,602,605,606,606,606,606,606,606,604,601,592,571,491,447,407,377,348,291,256,240,236,227,225,225,224,221,220,220,220,220,212,194,163,149,138,133,131,131,131,131,131,131,131,131,131,131,129,119,112,95],"timestamp_mouse":[10,22,40,61,80,100,121,140,161,181,201,221,241,261,280,300,321,340,361,381,401,420,441,461,480,501,521,541,561,581,601,621,641,661,681,701,720,740,760,780,801,821,841,861,881,900,921,940,960,980,1001,1021,1040,1060,1081,1100,1121,1140,1161,1181,1201,1221,1240,1261,1281,1300,1320,1341,1360,1380,1401,1421,1441,1461,1481,1500,1521,1540,1561,1581,1601,1620,1640,1660,1680,1701,1721,1741,1761,1782,1801,1820,1841,1860,1880,1900,1921,1941,1961,1981,2001,2021,2041,2061,2080,2101,2121,2141,2161,2181,2201,2221,2241,2261,2281,2300,2321,2340,2360,2381,2401,2420,2440,2461,2482,2501,2522,2541,2561,2581,2601,2621,2641,2661,2680,2701,2720,2741,2760,2780,2800,2821,2841,2861,2881,2901,2920,2940,2961,2981,3001,3021,3040,3061,3081,3101,3121,3141,3161,3181,3201,3221,3240,3260,3281,3301,3321,3340,3361,3381,3400,3421,3440,3460,3481,3501,3520,3541,3560,3580,3601,3621,3641,3660,3681,3700,3721,3741,3761,3780,3800,3820,3841,3862,3882,3901,3920,3940,3961,3980,4001,4021,4041,4060,4081,4100,4121,4141,4161,4180,4200,4221,4240,4261,4281,4300,4321,4340,4361,4381,4401,4420,4441,4461,4481,4500,4521,4540,4561,4580,4601,4620,4641,4660,4680,4700,4721,4741,4761,4781,4801,4821,4840,4861,4880,4900,4921,4940,4960,4982,5000,5021,5040,5062,5081,5100,5121,5140,5161,5180,5200,5221,5240,5261,5280,5300,5321,5340,5361,5380,5401,5422,5441,5461,5480,5501,5521,5540,5560,5580,5601,5620,5641,5661,5681,5700,5721,5740,5761,5780,5800,5821,5841,5861,5881,5900,5921,5942,5960,5980,6001,6021,6040,6060,6080,6100,6120,6140,6160,6181,6201,6220,6241,6260,6280,6301,6321,6340,6360,6380,6400,6421,6440,6460,6480,6501,6521,6540,6560,6580,6601,6620,6640,6661,6680,6701,6720,6740,6761,6781,6800,6820,6841,6860,6881,6900,6921,6940,6961,6982,7001,7021,7040,7061,7082,7100,7120,7140,7161,7181,7200,7221,7240,7261,7281,7301,7321,7340,7361,7380,7401,7421,7440,7460,7481,7501,7521,7541,7560,7581,7600,7620,7640,7662,7681,7701,7721,7740,7761,7781,7801,7821,7841,7860,7881,7900,7921,7940,7960,7981,8000,8020,8040,8061,8080,8101,8121,8140,8161,8181,8201,8222,8240,8260,8281,8301,8321,8340,8360,8381,8401,8421,8440,8460,8480,8501,8521,8540,8561,8581,8600,8621,8642,8661,8680,8700,8720,8740,8760,8781,8800,8820,8841,8861,8880,8901,8921,8941,8961,8980,9001,9020,9040,9060,9080],"xSR":741.5,"ySR":469.95,"xT1":424.9,"yT1":0,"xT2":1058.1,"yT2":0,"toosoon":0,"cond_shown":"Incongruent","ratio_trial":200,"L_num":4,"L_den":30,"R_num":1,"R_den":3,"correct_side":2,"subjID":"DanielPabon26","gender":"0","age":"8","school":"4","test":{"fix_dur":[250,1500],"timestim":1000,"targets_dim":[100,100],"targets_relative_coord":[0.3,0.7],"size_stim":[880,420],"start_dim":[100,100],"size_start":[300,300],"size_fix":60,"samplingrate":20,"img_types":["Congruent","Incongruent"],"ratios":[100,200,300],"rep_conds":19,"nTrials":120,"trials_to_rest":500,"Trials_order":[3,118,27,82,80,89,22,48,13,57,12,36,14,105,91,58,35,109,6,94,110,59,29,103,5,42,81,39,62,73,9,43,8,55,37,64,25,18,54,60,79,0,46,21,34,7,90,107,100,74,24,87,53,44,2,63,76,11,68,15,47,84,40,85,93,113,98,119,56,97,41,77,112,1,116,49,104,17,23,26,96,28,106,10,52,86,75,117,69,102,50,16,83,20,71,95,65,99,51,114,45,33,61,32,108,92,88,38,111,101,19,30,78,70,115,4,67,31,66,72],"cond_shown":["Incongruent","Congruent","Incongruent","Congruent","Congruent","Incongruent","Congruent","Congruent","Incongruent","Incongruent","Congruent","Congruent","Congruent","Incongruent","Incongruent","Congruent","Incongruent","Incongruent","Congruent","Congruent","Congruent","Incongruent","Incongruent","Incongruent","Incongruent","Congruent","Incongruent","Incongruent","Congruent","Incongruent","Incongruent","Incongruent","Congruent","Incongruent","Incongruent","Congruent","Incongruent","Congruent","Congruent","Congruent","Incongruent","Congruent","Congruent","Incongruent","Congruent","Incongruent","Congruent","Incongruent","Congruent","Congruent","Congruent","Incongruent","Incongruent","Congruent","Congruent","Incongruent","Congruent","Incongruent","Congruent","Incongruent","Incongruent","Congruent","Congruent","Incongruent","Incongruent","Incongruent","Congruent","Incongruent","Congruent","Incongruent","Incongruent","Incongruent","Congruent","Incongruent","Congruent","Incongruent","Congruent","Incongruent","Incongruent","Congruent","Congruent","Congruent","Congruent","Congruent","Congruent","Congruent","Incongruent","Incongruent","Incongruent","Congruent","Congruent","Congruent","Incongruent","Congruent","Incongruent","Incongruent","Incongruent","Incongruent","Incongruent","Congruent","Incongruent","Incongruent","Incongruent","Congruent","Congruent","Congruent","Congruent","Congruent","Incongruent","Incongruent","Incongruent","Congruent","Congruent","Congruent","Incongruent","Congruent","Incongruent","Incongruent","Congruent","Congruent"],"ratio_trial":[200,300,200,300,200,300,300,100,100,200,100,100,200,200,100,300,300,100,100,300,200,300,300,100,300,100,200,200,200,100,200,100,200,100,100,300,100,100,100,100,100,100,300,200,300,100,100,300,300,200,100,200,300,200,200,200,300,300,200,200,300,100,300,100,200,300,200,300,200,100,300,300,300,100,200,100,200,300,300,200,100,300,300,300,300,200,200,200,200,100,200,300,300,200,300,300,300,200,200,100,200,200,100,200,100,200,300,200,200,300,100,100,100,300,100,300,100,100,100,100],"left_num":[4,7,1,11,6,8,5,10,6,7,3,3,16,3,10,11,8,8,3,2,11,4,1,2,4,1,7,11,3,3,14,3,7,1,2,3,3,7,1,7,3,6,20,1,5,9,9,4,2,7,11,4,4,1,6,1,1,1,20,14,8,8,24,8,7,8,7,4,21,11,4,13,8,9,7,11,4,4,8,3,6,5,4,11,8,3,14,7,4,2,6,4,3,13,4,4,13,9,7,2,3,7,17,9,8,3,11,7,4,4,6,7,3,3,9,5,9,10,3,4],"right_num":[1,20,3,2,7,14,7,3,11,6,2,2,12,1,8,2,14,1,2,12,3,2,2,6,2,18,14,3,14,4,12,7,18,8,6,4,8,9,18,15,11,15,8,3,7,14,8,2,10,18,6,6,6,21,3,2,8,2,9,6,14,2,2,6,6,9,2,2,2,9,2,12,10,6,18,9,3,2,14,11,15,7,2,4,10,7,12,14,6,6,11,13,4,14,8,2,12,8,4,6,11,4,10,4,2,14,2,18,6,8,7,15,4,4,13,7,13,9,4,6],"left_den":[30,14,2,22,12,10,25,25,10,15,6,6,20,10,25,22,10,20,6,10,22,20,2,4,20,2,10,20,10,6,30,9,15,2,4,6,5,14,2,14,5,12,25,2,25,15,15,20,20,15,22,5,5,2,15,3,30,2,25,30,10,16,30,16,15,10,21,20,30,22,20,26,15,18,15,22,10,20,10,10,12,25,5,22,15,10,30,10,5,5,20,20,6,26,5,20,26,15,15,5,4,15,30,20,16,6,22,15,5,5,10,14,20,6,15,25,15,25,20,8],"right_den":[3,25,10,10,10,28,14,10,22,9,5,5,20,2,16,10,28,2,5,24,10,4,10,15,4,30,28,4,28,10,18,30,27,20,15,5,16,15,30,25,22,25,16,10,14,28,16,4,25,27,15,10,12,30,15,15,24,10,15,9,28,5,4,10,9,18,15,4,4,15,4,15,12,10,27,15,15,4,28,22,25,14,4,20,12,14,18,28,10,12,22,26,20,20,16,4,15,10,6,12,20,6,15,16,5,20,10,27,10,16,14,25,16,5,26,14,26,18,16,10],"correct_side":[2,2,1,1,2,1,2,1,1,2,1,1,1,2,2,1,1,2,1,2,1,2,1,1,2,2,1,2,2,1,2,1,2,1,1,2,1,2,2,2,1,2,1,1,2,1,1,2,2,2,1,1,1,2,1,1,2,1,1,2,1,1,1,2,2,1,1,2,1,2,2,2,2,2,2,2,1,2,1,2,2,2,1,1,2,2,2,1,1,2,2,2,1,2,1,2,2,2,2,2,1,2,2,1,1,2,1,2,1,1,1,2,2,2,1,2,1,2,2,2],"img_shown":["img2/200/Incongruent/R/I_Dist_200_LN_4_LD_30_RN_1_RD_3_1.png","img2/300/Congruent/R/C_Dist_300_LN_7_LD_14_RN_20_RD_25_1.png","img2/200/Incongruent/L/I_Dist_200_LN_1_LD_2_RN_3_RD_10_0.png","img2/300/Congruent/L/C_Dist_300_LN_11_LD_22_RN_2_RD_10_0.png","img2/200/Congruent/R/C_Dist_200_LN_6_LD_12_RN_7_RD_10_1.png","img2/300/Incongruent/L/I_Dist_300_LN_8_LD_10_RN_14_RD_28_0.png","img2/300/Congruent/R/C_Dist_300_LN_5_LD_25_RN_7_RD_14_1.png","img2/100/Congruent/L/C_Dist_100_LN_10_LD_25_RN_3_RD_10_0.png","img2/100/Incongruent/L/I_Dist_100_LN_6_LD_10_RN_11_RD_22_0.png","img2/200/Incongruent/R/I_Dist_200_LN_7_LD_15_RN_6_RD_9_1.png","img2/100/Congruent/L/C_Dist_100_LN_3_LD_6_RN_2_RD_5_0.png","img2/100/Congruent/L/C_Dist_100_LN_3_LD_6_RN_2_RD_5_0.png","img2/200/Congruent/L/C_Dist_200_LN_16_LD_20_RN_12_RD_20_0.png","img2/200/Incongruent/R/I_Dist_200_LN_3_LD_10_RN_1_RD_2_1.png","img2/100/Incongruent/R/I_Dist_100_LN_10_LD_25_RN_8_RD_16_1.png","img2/300/Congruent/L/C_Dist_300_LN_11_LD_22_RN_2_RD_10_0.png","img2/300/Incongruent/L/I_Dist_300_LN_8_LD_10_RN_14_RD_28_0.png","img2/100/Incongruent/R/I_Dist_100_LN_8_LD_20_RN_1_RD_2_1.png","img2/100/Congruent/L/C_Dist_100_LN_3_LD_6_RN_2_RD_5_0.png","img2/300/Congruent/R/C_Dist_300_LN_2_LD_10_RN_12_RD_24_1.png","img2/200/Congruent/L/C_Dist_200_LN_11_LD_22_RN_3_RD_10_0.png","img2/300/Incongruent/R/I_Dist_300_LN_4_LD_20_RN_2_RD_4_1.png","img2/300/Incongruent/L/I_Dist_300_LN_1_LD_2_RN_2_RD_10_0.png","img2/100/Incongruent/L/I_Dist_100_LN_2_LD_4_RN_6_RD_15_0.png","img2/300/Incongruent/R/I_Dist_300_LN_4_LD_20_RN_2_RD_4_1.png","img2/100/Congruent/R/C_Dist_100_LN_1_LD_2_RN_18_RD_30_1.png","img2/200/Incongruent/L/I_Dist_200_LN_7_LD_10_RN_14_RD_28_0.png","img2/200/Incongruent/R/I_Dist_200_LN_11_LD_20_RN_3_RD_4_1.png","img2/200/Congruent/R/C_Dist_200_LN_3_LD_10_RN_14_RD_28_1.png","img2/100/Incongruent/L/I_Dist_100_LN_3_LD_6_RN_4_RD_10_0.png","img2/200/Incongruent/R/I_Dist_200_LN_14_LD_30_RN_12_RD_18_1.png","img2/100/Incongruent/L/I_Dist_100_LN_3_LD_9_RN_7_RD_30_0.png","img2/200/Congruent/R/C_Dist_200_LN_7_LD_15_RN_18_RD_27_1.png","img2/100/Incongruent/L/I_Dist_100_LN_1_LD_2_RN_8_RD_20_0.png","img2/100/Incongruent/L/I_Dist_100_LN_2_LD_4_RN_6_RD_15_0.png","img2/300/Congruent/R/C_Dist_300_LN_3_LD_6_RN_4_RD_5_1.png","img2/100/Incongruent/L/I_Dist_100_LN_3_LD_5_RN_8_RD_16_0.png","img2/100/Congruent/R/C_Dist_100_LN_7_LD_14_RN_9_RD_15_1.png","img2/100/Congruent/R/C_Dist_100_LN_1_LD_2_RN_18_RD_30_1.png","img2/100/Congruent/R/C_Dist_100_LN_7_LD_14_RN_15_RD_25_1.png","img2/100/Incongruent/L/I_Dist_100_LN_3_LD_5_RN_11_RD_22_0.png","img2/100/Congruent/R/C_Dist_100_LN_6_LD_12_RN_15_RD_25_1.png","img2/300/Congruent/L/C_Dist_300_LN_20_LD_25_RN_8_RD_16_0.png","img2/200/Incongruent/L/I_Dist_200_LN_1_LD_2_RN_3_RD_10_0.png","img2/300/Congruent/R/C_Dist_300_LN_5_LD_25_RN_7_RD_14_1.png","img2/100/Incongruent/L/I_Dist_100_LN_9_LD_15_RN_14_RD_28_0.png","img2/100/Congruent/L/C_Dist_100_LN_9_LD_15_RN_8_RD_16_0.png","img2/300/Incongruent/R/I_Dist_300_LN_4_LD_20_RN_2_RD_4_1.png","img2/300/Congruent/R/C_Dist_300_LN_2_LD_20_RN_10_RD_25_1.png","img2/200/Congruent/R/C_Dist_200_LN_7_LD_15_RN_18_RD_27_1.png","img2/100/Congruent/L/C_Dist_100_LN_11_LD_22_RN_6_RD_15_0.png","img2/200/Incongruent/L/I_Dist_200_LN_4_LD_5_RN_6_RD_10_0.png","img2/300/Incongruent/L/I_Dist_300_LN_4_LD_5_RN_6_RD_12_0.png","img2/200/Congruent/R/C_Dist_200_LN_1_LD_2_RN_21_RD_30_1.png","img2/200/Congruent/L/C_Dist_200_LN_6_LD_15_RN_3_RD_15_0.png","img2/200/Incongruent/L/I_Dist_200_LN_1_LD_3_RN_2_RD_15_0.png","img2/300/Congruent/R/C_Dist_300_LN_1_LD_30_RN_8_RD_24_1.png","img2/300/Incongruent/L/I_Dist_300_LN_1_LD_2_RN_2_RD_10_0.png","img2/200/Congruent/L/C_Dist_200_LN_20_LD_25_RN_9_RD_15_0.png","img2/200/Incongruent/R/I_Dist_200_LN_14_LD_30_RN_6_RD_9_1.png","img2/300/Incongruent/L/I_Dist_300_LN_8_LD_10_RN_14_RD_28_0.png","img2/100/Congruent/L/C_Dist_100_LN_8_LD_16_RN_2_RD_5_0.png","img2/300/Congruent/L/C_Dist_300_LN_24_LD_30_RN_2_RD_4_0.png","img2/100/Incongruent/R/I_Dist_100_LN_8_LD_16_RN_6_RD_10_1.png","img2/200/Incongruent/R/I_Dist_200_LN_7_LD_15_RN_6_RD_9_1.png","img2/300/Incongruent/L/I_Dist_300_LN_8_LD_10_RN_9_RD_18_0.png","img2/200/Congruent/L/C_Dist_200_LN_7_LD_21_RN_2_RD_15_0.png","img2/300/Incongruent/R/I_Dist_300_LN_4_LD_20_RN_2_RD_4_1.png","img2/200/Congruent/L/C_Dist_200_LN_21_LD_30_RN_2_RD_4_0.png","img2/100/Incongruent/R/I_Dist_100_LN_11_LD_22_RN_9_RD_15_1.png","img2/300/Incongruent/R/I_Dist_300_LN_4_LD_20_RN_2_RD_4_1.png","img2/300/Incongruent/R/I_Dist_300_LN_13_LD_26_RN_12_RD_15_1.png","img2/300/Congruent/R/C_Dist_300_LN_8_LD_15_RN_10_RD_12_1.png","img2/100/Incongruent/R/I_Dist_100_LN_9_LD_18_RN_6_RD_10_1.png","img2/200/Congruent/R/C_Dist_200_LN_7_LD_15_RN_18_RD_27_1.png","img2/100/Incongruent/R/I_Dist_100_LN_11_LD_22_RN_9_RD_15_1.png","img2/200/Congruent/L/C_Dist_200_LN_4_LD_10_RN_3_RD_15_0.png","img2/300/Incongruent/R/I_Dist_300_LN_4_LD_20_RN_2_RD_4_1.png","img2/300/Incongruent/L/I_Dist_300_LN_8_LD_10_RN_14_RD_28_0.png","img2/200/Congruent/R/C_Dist_200_LN_3_LD_10_RN_11_RD_22_1.png","img2/100/Congruent/R/C_Dist_100_LN_6_LD_12_RN_15_RD_25_1.png","img2/300/Congruent/R/C_Dist_300_LN_5_LD_25_RN_7_RD_14_1.png","img2/300/Congruent/L/C_Dist_300_LN_4_LD_5_RN_2_RD_4_0.png","img2/300/Congruent/L/C_Dist_300_LN_11_LD_22_RN_4_RD_20_0.png","img2/300/Congruent/R/C_Dist_300_LN_8_LD_15_RN_10_RD_12_1.png","img2/200/Congruent/R/C_Dist_200_LN_3_LD_10_RN_7_RD_14_1.png","img2/200/Incongruent/R/I_Dist_200_LN_14_LD_30_RN_12_RD_18_1.png","img2/200/Incongruent/L/I_Dist_200_LN_7_LD_10_RN_14_RD_28_0.png","img2/200/Incongruent/L/I_Dist_200_LN_4_LD_5_RN_6_RD_10_0.png","img2/100/Congruent/R/C_Dist_100_LN_2_LD_5_RN_6_RD_12_1.png","img2/200/Congruent/R/C_Dist_200_LN_6_LD_20_RN_11_RD_22_1.png","img2/300/Congruent/R/C_Dist_300_LN_4_LD_20_RN_13_RD_26_1.png","img2/300/Incongruent/L/I_Dist_300_LN_3_LD_6_RN_4_RD_20_0.png","img2/200/Congruent/R/C_Dist_200_LN_13_LD_26_RN_14_RD_20_1.png","img2/300/Incongruent/L/I_Dist_300_LN_4_LD_5_RN_8_RD_16_0.png","img2/300/Incongruent/R/I_Dist_300_LN_4_LD_20_RN_2_RD_4_1.png","img2/300/Incongruent/R/I_Dist_300_LN_13_LD_26_RN_12_RD_15_1.png","img2/200/Incongruent/R/I_Dist_200_LN_9_LD_15_RN_8_RD_10_1.png","img2/200/Incongruent/R/I_Dist_200_LN_7_LD_15_RN_4_RD_6_1.png","img2/100/Congruent/R/C_Dist_100_LN_2_LD_5_RN_6_RD_12_1.png","img2/200/Incongruent/L/I_Dist_200_LN_3_LD_4_RN_11_RD_20_0.png","img2/200/Incongruent/R/I_Dist_200_LN_7_LD_15_RN_4_RD_6_1.png","img2/100/Incongruent/R/I_Dist_100_LN_17_LD_30_RN_10_RD_15_1.png","img2/200/Congruent/L/C_Dist_200_LN_9_LD_20_RN_4_RD_16_0.png","img2/100/Congruent/L/C_Dist_100_LN_8_LD_16_RN_2_RD_5_0.png","img2/200/Congruent/R/C_Dist_200_LN_3_LD_6_RN_14_RD_20_1.png","img2/300/Congruent/L/C_Dist_300_LN_11_LD_22_RN_2_RD_10_0.png","img2/200/Congruent/R/C_Dist_200_LN_7_LD_15_RN_18_RD_27_1.png","img2/200/Incongruent/L/I_Dist_200_LN_4_LD_5_RN_6_RD_10_0.png","img2/300/Incongruent/L/I_Dist_300_LN_4_LD_5_RN_8_RD_16_0.png","img2/100/Incongruent/L/I_Dist_100_LN_6_LD_10_RN_7_RD_14_0.png","img2/100/Congruent/R/C_Dist_100_LN_7_LD_14_RN_15_RD_25_1.png","img2/100/Congruent/R/C_Dist_100_LN_3_LD_20_RN_4_RD_16_1.png","img2/300/Congruent/R/C_Dist_300_LN_3_LD_6_RN_4_RD_5_1.png","img2/100/Incongruent/L/I_Dist_100_LN_9_LD_15_RN_13_RD_26_0.png","img2/300/Congruent/R/C_Dist_300_LN_5_LD_25_RN_7_RD_14_1.png","img2/100/Incongruent/L/I_Dist_100_LN_9_LD_15_RN_13_RD_26_0.png","img2/100/Incongruent/R/I_Dist_100_LN_10_LD_25_RN_9_RD_18_1.png","img2/100/Congruent/R/C_Dist_100_LN_3_LD_20_RN_4_RD_16_1.png","img2/100/Congruent/R/C_Dist_100_LN_4_LD_8_RN_6_RD_10_1.png"],"dist100_C":[["C_Dist_100_LN_10_LD_25_RN_3_RD_10_0.png","C_Dist_100_LN_11_LD_22_RN_4_RD_10_0.png","C_Dist_100_LN_11_LD_22_RN_6_RD_15_0.png","C_Dist_100_LN_15_LD_25_RN_13_RD_26_0.png","C_Dist_100_LN_3_LD_6_RN_2_RD_5_0.png","C_Dist_100_LN_6_LD_20_RN_5_RD_25_0.png","C_Dist_100_LN_8_LD_16_RN_2_RD_5_0.png","C_Dist_100_LN_9_LD_15_RN_8_RD_16_0.png"],["C_Dist_100_LN_1_LD_2_RN_18_RD_30_1.png","C_Dist_100_LN_1_LD_2_RN_3_RD_5_1.png","C_Dist_100_LN_12_LD_30_RN_13_RD_26_1.png","C_Dist_100_LN_2_LD_5_RN_11_RD_22_1.png","C_Dist_100_LN_2_LD_5_RN_6_RD_12_1.png","C_Dist_100_LN_3_LD_20_RN_4_RD_16_1.png","C_Dist_100_LN_4_LD_10_RN_15_RD_30_1.png","C_Dist_100_LN_4_LD_8_RN_6_RD_10_1.png","C_Dist_100_LN_6_LD_12_RN_15_RD_25_1.png","C_Dist_100_LN_7_LD_14_RN_15_RD_25_1.png","C_Dist_100_LN_7_LD_14_RN_9_RD_15_1.png"]],"dist100_I":[["I_Dist_100_LN_1_LD_2_RN_8_RD_20_0.png","I_Dist_100_LN_2_LD_4_RN_6_RD_15_0.png","I_Dist_100_LN_2_LD_4_RN_8_RD_20_0.png","I_Dist_100_LN_3_LD_5_RN_11_RD_22_0.png","I_Dist_100_LN_3_LD_5_RN_8_RD_16_0.png","I_Dist_100_LN_3_LD_6_RN_4_RD_10_0.png","I_Dist_100_LN_3_LD_9_RN_7_RD_30_0.png","I_Dist_100_LN_4_LD_8_RN_8_RD_20_0.png","I_Dist_100_LN_6_LD_10_RN_11_RD_22_0.png","I_Dist_100_LN_6_LD_10_RN_13_RD_26_0.png","I_Dist_100_LN_6_LD_10_RN_7_RD_14_0.png","I_Dist_100_LN_9_LD_10_RN_20_RD_25_0.png","I_Dist_100_LN_9_LD_15_RN_13_RD_26_0.png","I_Dist_100_LN_9_LD_15_RN_14_RD_28_0.png"],["I_Dist_100_LN_10_LD_25_RN_8_RD_16_1.png","I_Dist_100_LN_10_LD_25_RN_9_RD_18_1.png","I_Dist_100_LN_11_LD_22_RN_9_RD_15_1.png","I_Dist_100_LN_12_LD_24_RN_9_RD_15_1.png","I_Dist_100_LN_12_LD_30_RN_2_RD_4_1.png","I_Dist_100_LN_13_LD_26_RN_12_RD_20_1.png","I_Dist_100_LN_13_LD_26_RN_6_RD_10_1.png","I_Dist_100_LN_17_LD_30_RN_10_RD_15_1.png","I_Dist_100_LN_6_LD_12_RN_3_RD_5_1.png","I_Dist_100_LN_8_LD_16_RN_6_RD_10_1.png","I_Dist_100_LN_8_LD_20_RN_1_RD_2_1.png","I_Dist_100_LN_9_LD_18_RN_6_RD_10_1.png"]],"dist100_S":[["E_Dist_100_LN_2_LD_12_RN_2_RD_30_0.png","E_Dist_100_LN_6_LD_10_RN_6_RD_12_0.png"],["E_Dist_100_LN_6_LD_12_RN_6_RD_10_1.png"]],"dist200_C":[["C_Dist_200_LN_11_LD_22_RN_3_RD_10_0.png","C_Dist_200_LN_12_LD_15_RN_6_RD_10_0.png","C_Dist_200_LN_12_LD_20_RN_6_RD_15_0.png","C_Dist_200_LN_14_LD_28_RN_6_RD_20_0.png","C_Dist_200_LN_15_LD_25_RN_4_RD_10_0.png","C_Dist_200_LN_16_LD_20_RN_12_RD_20_0.png","C_Dist_200_LN_16_LD_30_RN_9_RD_27_0.png","C_Dist_200_LN_20_LD_25_RN_9_RD_15_0.png","C_Dist_200_LN_21_LD_30_RN_2_RD_4_0.png","C_Dist_200_LN_4_LD_10_RN_3_RD_15_0.png","C_Dist_200_LN_4_LD_8_RN_3_RD_10_0.png","C_Dist_200_LN_6_LD_15_RN_3_RD_15_0.png","C_Dist_200_LN_7_LD_21_RN_2_RD_15_0.png","C_Dist_200_LN_8_LD_15_RN_2_RD_6_0.png","C_Dist_200_LN_8_LD_15_RN_3_RD_9_0.png","C_Dist_200_LN_8_LD_15_RN_7_RD_21_0.png","C_Dist_200_LN_9_LD_20_RN_4_RD_16_0.png"],["C_Dist_200_LN_1_LD_2_RN_21_RD_30_1.png","C_Dist_200_LN_13_LD_26_RN_14_RD_20_1.png","C_Dist_200_LN_3_LD_10_RN_11_RD_22_1.png","C_Dist_200_LN_3_LD_10_RN_14_RD_28_1.png","C_Dist_200_LN_3_LD_10_RN_7_RD_14_1.png","C_Dist_200_LN_3_LD_12_RN_9_RD_20_1.png","C_Dist_200_LN_3_LD_6_RN_14_RD_20_1.png","C_Dist_200_LN_5_LD_10_RN_14_RD_20_1.png","C_Dist_200_LN_6_LD_12_RN_7_RD_10_1.png","C_Dist_200_LN_6_LD_20_RN_11_RD_22_1.png","C_Dist_200_LN_7_LD_15_RN_18_RD_27_1.png","C_Dist_200_LN_9_LD_30_RN_13_RD_26_1.png"]],"dist200_I":[["I_Dist_200_LN_1_LD_2_RN_3_RD_10_0.png","I_Dist_200_LN_1_LD_3_RN_2_RD_15_0.png","I_Dist_200_LN_3_LD_4_RN_11_RD_20_0.png","I_Dist_200_LN_4_LD_5_RN_6_RD_10_0.png","I_Dist_200_LN_4_LD_6_RN_14_RD_30_0.png","I_Dist_200_LN_7_LD_10_RN_12_RD_24_0.png","I_Dist_200_LN_7_LD_10_RN_14_RD_28_0.png","I_Dist_200_LN_7_LD_10_RN_8_RD_16_0.png"],["I_Dist_200_LN_11_LD_20_RN_3_RD_4_1.png","I_Dist_200_LN_14_LD_30_RN_12_RD_18_1.png","I_Dist_200_LN_14_LD_30_RN_6_RD_9_1.png","I_Dist_200_LN_3_LD_10_RN_1_RD_2_1.png","I_Dist_200_LN_4_LD_30_RN_1_RD_3_1.png","I_Dist_200_LN_6_LD_20_RN_3_RD_6_1.png","I_Dist_200_LN_7_LD_15_RN_4_RD_6_1.png","I_Dist_200_LN_7_LD_15_RN_6_RD_9_1.png","I_Dist_200_LN_9_LD_15_RN_8_RD_10_1.png"]],"dist200_S":[["E_Dist_200_LN_3_LD_6_RN_3_RD_10_0.png"],["E_Dist_200_LN_3_LD_10_RN_3_RD_6_1.png"]],"dist300_C":[["C_Dist_300_LN_11_LD_22_RN_1_RD_5_0.png","C_Dist_300_LN_11_LD_22_RN_2_RD_10_0.png","C_Dist_300_LN_11_LD_22_RN_4_RD_20_0.png","C_Dist_300_LN_12_LD_24_RN_2_RD_10_0.png","C_Dist_300_LN_18_LD_20_RN_9_RD_15_0.png","C_Dist_300_LN_20_LD_25_RN_13_RD_26_0.png","C_Dist_300_LN_20_LD_25_RN_14_RD_28_0.png","C_Dist_300_LN_20_LD_25_RN_5_RD_10_0.png","C_Dist_300_LN_20_LD_25_RN_8_RD_16_0.png","C_Dist_300_LN_20_LD_25_RN_9_RD_18_0.png","C_Dist_300_LN_24_LD_30_RN_2_RD_4_0.png","C_Dist_300_LN_24_LD_30_RN_8_RD_16_0.png","C_Dist_300_LN_3_LD_6_RN_2_RD_10_0.png","C_Dist_300_LN_4_LD_10_RN_1_RD_10_0.png","C_Dist_300_LN_4_LD_5_RN_2_RD_4_0.png","C_Dist_300_LN_8_LD_16_RN_1_RD_5_0.png","C_Dist_300_LN_9_LD_10_RN_3_RD_5_0.png"],["C_Dist_300_LN_1_LD_20_RN_7_RD_20_1.png","C_Dist_300_LN_1_LD_3_RN_19_RD_30_1.png","C_Dist_300_LN_1_LD_30_RN_8_RD_24_1.png","C_Dist_300_LN_1_LD_5_RN_11_RD_22_1.png","C_Dist_300_LN_1_LD_5_RN_3_RD_6_1.png","C_Dist_300_LN_1_LD_5_RN_6_RD_12_1.png","C_Dist_300_LN_2_LD_10_RN_12_RD_24_1.png","C_Dist_300_LN_2_LD_20_RN_10_RD_25_1.png","C_Dist_300_LN_3_LD_12_RN_11_RD_20_1.png","C_Dist_300_LN_3_LD_6_RN_4_RD_5_1.png","C_Dist_300_LN_4_LD_20_RN_13_RD_26_1.png","C_Dist_300_LN_5_LD_25_RN_6_RD_12_1.png","C_Dist_300_LN_5_LD_25_RN_7_RD_14_1.png","C_Dist_300_LN_7_LD_14_RN_20_RD_25_1.png","C_Dist_300_LN_8_LD_15_RN_10_RD_12_1.png"]],"dist300_I":[["I_Dist_300_LN_1_LD_2_RN_2_RD_10_0.png","I_Dist_300_LN_1_LD_2_RN_3_RD_15_0.png","I_Dist_300_LN_2_LD_4_RN_6_RD_30_0.png","I_Dist_300_LN_3_LD_6_RN_4_RD_20_0.png","I_Dist_300_LN_4_LD_5_RN_6_RD_12_0.png","I_Dist_300_LN_4_LD_5_RN_8_RD_16_0.png","I_Dist_300_LN_7_LD_10_RN_8_RD_20_0.png","I_Dist_300_LN_8_LD_10_RN_14_RD_28_0.png","I_Dist_300_LN_8_LD_10_RN_9_RD_18_0.png"],["I_Dist_300_LN_13_LD_26_RN_12_RD_15_1.png","I_Dist_300_LN_4_LD_20_RN_2_RD_4_1.png"]],"dist300_S":[["E_Dist_300_LN_9_LD_12_RN_9_RD_20_0.png"],["E_Dist_300_LN_18_LD_30_RN_18_RD_20_1.png","E_Dist_300_LN_3_LD_10_RN_3_RD_5_1.png","E_Dist_300_LN_9_LD_20_RN_9_RD_12_1.png"]],"dist500_C":[["C_Dist_500_LN_10_LD_13_RN_7_RD_26_0.png","C_Dist_500_LN_10_LD_15_RN_4_RD_24_0.png","C_Dist_500_LN_12_LD_16_RN_3_RD_12_0.png","C_Dist_500_LN_12_LD_18_RN_4_RD_24_0.png","C_Dist_500_LN_15_LD_18_RN_5_RD_15_0.png","C_Dist_500_LN_15_LD_20_RN_1_RD_4_0.png","C_Dist_500_LN_18_LD_27_RN_1_RD_6_0.png","C_Dist_500_LN_20_LD_24_RN_1_RD_3_0.png","C_Dist_500_LN_20_LD_24_RN_3_RD_9_0.png","C_Dist_500_LN_20_LD_24_RN_7_RD_21_0.png","C_Dist_500_LN_20_LD_28_RN_3_RD_14_0.png","C_Dist_500_LN_21_LD_28_RN_6_RD_24_0.png","C_Dist_500_LN_22_LD_28_RN_2_RD_7_0.png","C_Dist_500_LN_25_LD_30_RN_9_RD_27_0.png","C_Dist_500_LN_4_LD_6_RN_1_RD_6_0.png","C_Dist_500_LN_5_LD_6_RN_2_RD_6_0.png","C_Dist_500_LN_6_LD_9_RN_1_RD_6_0.png","C_Dist_500_LN_7_LD_10_RN_1_RD_5_0.png","C_Dist_500_LN_8_LD_12_RN_1_RD_6_0.png","C_Dist_500_LN_8_LD_12_RN_4_RD_24_0.png"],["C_Dist_500_LN_1_LD_4_RN_12_RD_16_1.png","C_Dist_500_LN_1_LD_4_RN_9_RD_12_1.png","C_Dist_500_LN_1_LD_9_RN_11_RD_18_1.png","C_Dist_500_LN_10_LD_24_RN_22_RD_24_1.png","C_Dist_500_LN_2_LD_12_RN_10_RD_15_1.png","C_Dist_500_LN_2_LD_12_RN_12_RD_18_1.png","C_Dist_500_LN_2_LD_12_RN_4_RD_6_1.png","C_Dist_500_LN_2_LD_24_RN_7_RD_12_1.png","C_Dist_500_LN_2_LD_5_RN_18_RD_20_1.png","C_Dist_500_LN_2_LD_5_RN_9_RD_10_1.png","C_Dist_500_LN_2_LD_8_RN_12_RD_16_1.png","C_Dist_500_LN_2_LD_8_RN_21_RD_28_1.png","C_Dist_500_LN_3_LD_10_RN_4_RD_5_1.png","C_Dist_500_LN_3_LD_12_RN_15_RD_20_1.png","C_Dist_500_LN_3_LD_30_RN_6_RD_10_1.png","C_Dist_500_LN_3_LD_8_RN_14_RD_16_1.png","C_Dist_500_LN_4_LD_16_RN_15_RD_20_1.png","C_Dist_500_LN_4_LD_24_RN_12_RD_18_1.png","C_Dist_500_LN_5_LD_14_RN_6_RD_7_1.png","C_Dist_500_LN_7_LD_21_RN_20_RD_24_1.png","C_Dist_500_LN_7_LD_28_RN_12_RD_16_1.png","C_Dist_500_LN_7_LD_28_RN_9_RD_12_1.png","C_Dist_500_LN_9_LD_27_RN_20_RD_24_1.png"]],"dist500_I":[["I_Dist_500_LN_2_LD_3_RN_4_RD_24_0.png","I_Dist_500_LN_5_LD_6_RN_6_RD_18_0.png","I_Dist_500_LN_7_LD_8_RN_9_RD_24_0.png"],["I_Dist_500_LN_7_LD_21_RN_5_RD_6_1.png"]],"dist500_S":[["E_Dist_500_LN_6_LD_8_RN_6_RD_24_0.png"],["E_Dist_500_LN_2_LD_12_RN_2_RD_3_1.png","E_Dist_500_LN_6_LD_24_RN_6_RD_8_1.png"]]}},{"start_time":1552327485334,"click_time":1552327487038,"finger_time":1552327486557,"fix_duration":474.53748216065094,"trial":1,"RT":1223,"MT":481,"sideResp":2,"stimulus":[],"xmouse":[796,796,796,796,796,796,796,796,796,796,796,796,796,796,796,796,796,796,796,796,796,796,796,796,796,796,796,796,796,796,796,796,796,796,796,796,796,796,796,796,796,796,796,796,796,796,796,796,796,796,796,796,796,797,799,805,816,820,820,821,822,828,833,842,856,886,939,949,958,966,968,972,974,976,978,978,982,988,1003,1025,1048,1058,1062,1066,1070,1073],"ymouse":[642,642,642,642,642,642,642,642,642,642,642,642,642,642,642,642,642,642,642,642,642,642,642,642,642,642,642,642,642,642,642,642,642,642,642,642,642,642,642,642,642,642,642,642,642,642,642,642,642,642,642,642,642,642,642,629,598,589,585,582,579,556,540,519,493,443,353,325,295,251,238,186,177,173,171,171,171,170,167,162,149,129,120,111,102,96],"timestamp_mouse":[13,41,44,64,85,104,123,143,164,183,204,224,243,264,284,303,324,343,365,383,404,424,443,464,484,504,524,544,563,583,604,623,643,664,683,703,724,743,764,783,804,823,843,864,885,904,924,943,964,983,1004,1023,1044,1064,1084,1103,1123,1144,1164,1183,1205,1223,1244,1263,1284,1303,1323,1343,1364,1384,1403,1423,1443,1463,1483,1504,1524,1543,1564,1583,1605,1624,1643,1663,1683,1704],"xSR":741.5,"ySR":573.95,"xT1":424.9,"yT1":0,"xT2":1058.1,"yT2":0,"toosoon":0,"cond_shown":"Congruent","ratio_trial":300,"L_num":7,"L_den":14,"R_num":20,"R_den":25,"correct_side":2,"subjID":"DanielPabon26","gender":"0","school":"4","age":"8"},{"start_time":1552327489214,"click_time":1552327490798,"finger_time":1552327490618,"fix_duration":1215.9951008310347,"trial":2,"RT":1404,"MT":180,"sideResp":2,"stimulus":[],"xmouse":[801,801,801,801,801,801,801,801,801,801,801,801,801,801,801,801,801,801,801,801,801,801,801,801,801,801,801,801,801,801,801,801,801,801,801,801,801,801,801,801,801,801,801,801,801,801,801,801,801,801,801,801,801,801,801,801,801,801,801,801,801,801,801,801,801,801,801,801,802,817,840,868,933,964,983,999,1021,1046,1055,1059],"ymouse":[634,634,634,634,634,634,634,634,634,634,634,634,634,634,634,634,634,634,634,634,634,634,634,634,634,634,634,634,634,634,634,634,634,634,634,634,634,634,634,634,634,634,634,634,634,634,634,634,634,634,634,634,634,634,634,634,634,634,634,634,634,634,634,634,634,634,634,634,626,591,537,473,309,224,154,102,51,20,15,11],"timestamp_mouse":[13,25,43,63,84,103,124,143,164,184,204,223,243,264,283,304,325,344,363,383,403,423,444,463,484,503,523,543,563,585,603,623,643,665,683,704,723,743,764,784,803,824,843,864,884,903,924,943,964,985,1003,1024,1045,1063,1084,1104,1124,1143,1163,1184,1203,1224,1243,1263,1284,1304,1324,1343,1364,1383,1404,1424,1444,1463,1483,1503,1525,1544,1563,1584],"xSR":741.5,"ySR":573.95,"xT1":424.9,"yT1":0,"xT2":1058.1,"yT2":0,"toosoon":0,"cond_shown":"Incongruent","ratio_trial":200,"L_num":1,"L_den":2,"R_num":3,"R_den":10,"correct_side":1,"subjID":"DanielPabon26","gender":"0","school":"4","age":"8"},{"start_time":1552327492930,"click_time":1552327494458,"finger_time":1552327494319,"fix_duration":1070.859997806914,"trial":3,"RT":1389,"MT":139,"sideResp":1,"stimulus":[],"xmouse":[770,770,770,770,770,770,770,770,770,770,770,770,770,770,770,770,770,770,770,770,770,770,770,770,770,770,770,770,770,770,770,770,770,770,770,770,770,770,770,770,770,770,770,770,770,770,770,770,770,770,770,770,770,770,770,770,770,770,770,770,770,770,770,770,770,771,771,771,767,756,751,689,646,599,557,534,523],"ymouse":[614,614,614,614,614,614,614,614,614,614,614,614,614,614,614,614,614,614,614,614,614,614,614,614,614,614,614,614,614,614,614,614,614,614,614,614,614,614,614,614,614,614,614,614,614,614,614,614,614,614,614,614,614,614,614,614,614,614,614,614,614,614,614,614,614,612,606,600,585,552,538,413,343,263,184,113,36],"timestamp_mouse":[12,39,48,67,88,107,127,148,169,188,207,228,247,268,287,308,328,348,368,388,409,427,447,468,488,508,527,547,568,587,607,627,647,669,687,708,729,748,767,788,808,827,847,868,887,908,927,947,969,988,1007,1027,1047,1068,1087,1107,1127,1148,1167,1187,1207,1228,1247,1268,1287,1308,1327,1347,1367,1388,1407,1427,1448,1467,1488,1507,1527],"xSR":741.5,"ySR":573.95,"xT1":424.9,"yT1":0,"xT2":1058.1,"yT2":0,"toosoon":0,"cond_shown":"Congruent","ratio_trial":300,"L_num":11,"L_den":22,"R_num":2,"R_den":10,"correct_side":1,"subjID":"DanielPabon26","gender":"0","school":"4","age":"8"},{"start_time":1552327496996,"click_time":1552327499078,"finger_time":1552327498438,"fix_duration":1416.4803984929918,"trial":4,"RT":1442,"MT":640,"sideResp":2,"stimulus":[],"xmouse":[800,800,800,800,800,800,800,800,800,800,800,800,800,800,800,800,800,800,800,800,800,800,800,800,800,800,800,800,800,800,800,800,800,800,800,800,800,800,800,800,800,800,800,800,800,800,800,800,800,800,800,800,800,800,800,800,800,800,800,800,800,800,800,800,800,800,800,800,800,800,798,796,793,804,827,877,893,963,1074,1114,1140,1152,1155,1155,1155,1155,1155,1155,1155,1155,1155,1155,1155,1155,1155,1155,1155,1155,1155,1155,1155,1155,1155,1156,1154],"ymouse":[604,604,604,604,604,604,604,604,604,604,604,604,604,604,604,604,604,604,604,604,604,604,604,604,604,604,604,604,604,604,604,604,604,604,604,604,604,604,604,604,604,604,604,604,604,604,604,604,604,604,604,604,604,604,604,604,604,604,604,604,604,604,604,604,604,604,604,604,604,604,600,591,571,493,425,308,271,139,0,0,0,0,0,0,0,0,0,0,0,0,0,0,0,0,0,0,0,0,0,0,0,0,0,0,4],"timestamp_mouse":[9,21,42,62,82,101,122,141,161,181,202,221,241,263,281,301,321,341,361,382,401,421,441,461,482,502,521,541,563,581,602,621,641,661,681,701,721,741,762,781,803,821,842,862,881,902,922,941,961,981,1001,1022,1041,1061,1083,1101,1121,1142,1163,1182,1202,1221,1241,1262,1281,1302,1322,1341,1361,1381,1402,1421,1442,1461,1483,1502,1521,1542,1561,1582,1602,1621,1642,1661,1681,1701,1721,1742,1761,1781,1802,1821,1841,1861,1881,1902,1922,1942,1961,1981,2001,2021,2041,2062,2082],"xSR":741.5,"ySR":573.95,"xT1":424.9,"yT1":0,"xT2":1058.1,"yT2":0,"toosoon":0,"cond_shown":"Congruent","ratio_trial":200,"L_num":6,"L_den":12,"R_num":7,"R_den":10,"correct_side":2,"subjID":"DanielPabon26","gender":"0","school":"4","age":"8"},{"start_time":1552327500861,"click_time":1552327502678,"finger_time":1552327502317,"fix_duration":502.5660526405198,"trial":5,"RT":1456,"MT":361,"sideResp":1,"stimulus":[],"xmouse":[808,808,808,808,808,808,808,808,808,808,808,808,808,808,808,808,808,808,808,808,808,808,808,808,808,808,808,808,808,808,808,808,808,808,808,808,808,808,808,808,808,808,808,808,808,808,808,808,808,808,808,808,808,808,808,808,808,808,808,808,808,808,808,808,808,808,808,808,808,808,806,801,787,765,719,698,687,680,672,664,660,657,654,650,643,637,627,611,586,527,496],"ymouse":[655,655,655,655,655,655,655,655,655,655,655,655,655,655,655,655,655,655,655,655,655,655,655,655,655,655,655,655,655,655,655,655,655,655,655,655,655,655,655,655,655,655,655,655,655,655,655,655,655,655,655,655,655,655,655,655,655,655,655,655,655,655,655,655,655,655,655,655,655,655,645,610,547,465,303,232,174,132,93,46,36,28,22,20,20,20,20,20,23,31,33],"timestamp_mouse":[17,45,57,77,98,117,136,156,176,196,216,237,256,277,296,316,337,356,376,396,416,438,457,476,496,516,537,557,576,597,618,637,656,677,697,717,737,756,777,796,817,836,856,876,898,916,936,956,977,997,1018,1037,1056,1076,1096,1116,1136,1157,1177,1196,1216,1237,1256,1277,1296,1316,1337,1356,1376,1396,1417,1436,1456,1477,1496,1516,1536,1556,1577,1596,1616,1637,1656,1676,1696,1728,1736,1756,1776,1797,1817],"xSR":741.5,"ySR":573.95,"xT1":424.9,"yT1":0,"xT2":1058.1,"yT2":0,"toosoon":0,"cond_shown":"Incongruent","ratio_trial":300,"L_num":8,"L_den":10,"R_num":14,"R_den":28,"correct_side":1,"subjID":"DanielPabon26","gender":"0","school":"4","age":"8"},{"start_time":1552327504284,"click_time":1552327505758,"finger_time":1552327505658,"fix_duration":583.517035420029,"trial":6,"RT":1374,"MT":100,"sideResp":2,"stimulus":[],"xmouse":[781,781,781,781,781,781,781,781,781,781,781,781,781,781,781,781,781,781,781,781,781,781,781,781,781,781,780,780,780,780,780,780,780,780,780,780,780,780,780,780,780,780,780,780,780,780,780,780,780,780,780,780,780,780,780,780,780,780,780,780,780,780,780,780,780,780,783,793,859,904,947,1007,1041,1084],"ymouse":[644,644,644,644,644,644,644,644,644,644,644,644,644,644,644,644,644,644,644,644,644,644,644,644,644,644,644,644,644,644,644,644,644,644,644,644,644,644,644,644,644,644,644,644,644,644,644,644,644,644,644,644,644,644,644,644,644,644,644,644,644,644,644,644,644,642,634,617,508,418,321,172,101,28],"timestamp_mouse":[13,37,53,73,94,113,134,153,174,193,213,233,253,274,293,315,334,353,374,393,415,433,453,473,493,513,534,553,573,593,614,633,653,673,693,714,733,754,773,793,813,835,853,873,894,913,933,953,973,994,1013,1033,1053,1073,1094,1113,1134,1154,1173,1194,1215,1234,1255,1275,1294,1314,1334,1354,1373,1394,1414,1434,1453,1474],"xSR":741.5,"ySR":573.95,"xT1":424.9,"yT1":0,"xT2":1058.1,"yT2":0,"toosoon":0,"cond_shown":"Congruent","ratio_trial":300,"L_num":5,"L_den":25,"R_num":7,"R_den":14,"correct_side":2,"subjID":"DanielPabon26","gender":"0","school":"4","age":"8"},{"start_time":1552327507752,"click_time":1552327509599,"finger_time":1552327509258,"fix_duration":1151.67473829449,"trial":7,"RT":1506,"MT":341,"sideResp":1,"stimulus":[],"xmouse":[793,793,793,793,793,793,793,793,793,793,793,793,793,793,793,793,793,793,793,793,793,793,793,793,793,793,793,793,793,793,793,793,793,793,793,793,793,793,793,793,793,793,793,793,793,793,793,793,793,793,793,793,793,793,793,793,793,793,793,793,793,793,793,793,793,793,793,793,793,793,793,793,793,793,793,769,713,650,591,580,579,579,579,579,579,577,567,562,562,560,545,527,501],"ymouse":[604,604,604,604,604,604,604,604,604,604,604,604,604,604,604,604,604,604,604,604,604,604,604,604,604,604,604,604,604,604,604,604,604,604,604,604,604,604,604,604,604,604,604,604,604,604,604,604,604,604,604,604,604,604,604,604,604,604,604,604,604,604,604,604,604,604,604,604,604,604,604,604,604,604,602,548,469,379,273,233,195,188,184,183,182,180,172,169,168,165,143,116,80],"timestamp_mouse":[13,37,46,66,87,106,126,147,167,186,207,226,246,267,287,306,327,347,367,387,407,426,447,467,486,507,526,546,566,587,606,626,647,667,686,707,726,747,767,787,807,826,846,867,886,906,926,947,966,986,1006,1026,1047,1066,1086,1106,1127,1147,1166,1186,1206,1226,1247,1267,1287,1306,1327,1347,1366,1386,1407,1426,1446,1466,1487,1506,1526,1547,1567,1586,1606,1627,1646,1666,1686,1706,1726,1746,1767,1787,1806,1827,1847],"xSR":741.5,"ySR":573.95,"xT1":424.9,"yT1":0,"xT2":1058.1,"yT2":0,"toosoon":0,"cond_shown":"Congruent","ratio_trial":100,"L_num":10,"L_den":25,"R_num":3,"R_den":10,"correct_side":1,"subjID":"DanielPabon26","gender":"0","school":"4","age":"8"},{"start_time":1552327511175,"click_time":1552327512660,"finger_time":1552327511998,"fix_duration":915.8882317118145,"trial":8,"RT":823,"MT":662,"sideResp":2,"stimulus":[],"xmouse":[773,773,773,773,773,773,773,773,773,773,773,773,773,773,773,773,773,773,773,773,773,773,773,773,773,773,773,773,773,773,773,773,773,773,773,773,773,773,773,773,795,846,926,1012,1184,1247,1293,1323,1323,1321,1321,1321,1319,1309,1293,1282,1277,1255,1232,1187,1156,1133,1116,1108,1102,1101,1099,1096,1094,1092,1092,1092,1092,1092,1102],"ymouse":[621,621,621,621,621,621,621,621,621,621,621,621,621,621,621,621,621,621,621,621,621,621,621,621,621,621,621,621,621,621,621,621,621,621,621,621,621,621,621,621,605,559,465,338,10,0,0,0,0,0,0,0,0,5,19,29,33,47,63,98,117,130,136,138,138,138,138,137,137,136,136,136,136,129,95],"timestamp_mouse":[9,34,43,63,84,103,125,144,164,183,204,224,243,263,283,303,323,344,363,383,403,424,444,463,484,504,523,544,563,583,603,623,643,664,684,703,724,743,764,784,803,823,843,863,884,904,924,943,963,983,1003,1024,1043,1063,1084,1103,1123,1143,1163,1185,1203,1223,1244,1263,1283,1303,1323,1343,1364,1383,1403,1424,1443,1464,1484],"xSR":741.5,"ySR":573.95,"xT1":424.9,"yT1":0,"xT2":1058.1,"yT2":0,"toosoon":0,"cond_shown":"Incongruent","ratio_trial":100,"L_num":6,"L_den":10,"R_num":11,"R_den":22,"correct_side":1,"subjID":"DanielPabon26","gender":"0","school":"4","age":"8"},{"start_time":1552327513835,"click_time":1552327515539,"finger_time":1552327515318,"fix_duration":296.9502954059386,"trial":9,"RT":1483,"MT":221,"sideResp":1,"stimulus":[],"xmouse":[785,785,785,785,785,785,785,785,784,785,785,785,785,785,785,785,785,785,785,785,785,785,785,785,785,785,785,785,785,785,785,785,785,785,785,785,785,785,785,785,785,785,785,785,785,785,785,785,785,785,785,785,785,785,785,785,785,785,785,785,785,785,785,785,785,785,785,785,785,785,785,785,786,786,793,801,763,737,640,577,526,480,473,466,460,449],"ymouse":[632,632,632,632,632,632,632,632,631,630,630,630,630,630,630,630,630,630,630,630,630,630,630,630,630,630,630,630,630,630,630,630,630,630,630,630,630,630,630,630,630,630,630,630,630,630,630,630,630,630,630,630,630,630,630,630,630,630,630,630,630,630,630,630,630,630,630,630,630,630,630,630,626,606,504,400,114,35,0,0,0,0,0,0,0,13],"timestamp_mouse":[13,38,44,64,83,104,124,143,165,184,203,223,243,264,284,303,323,343,364,384,404,424,443,464,483,504,523,544,563,584,603,624,644,664,683,703,723,743,764,783,804,824,844,865,884,903,923,943,963,983,1003,1023,1043,1063,1083,1103,1123,1144,1164,1183,1203,1223,1244,1264,1283,1304,1324,1344,1364,1384,1403,1423,1444,1464,1483,1503,1523,1543,1563,1583,1604,1623,1643,1663,1683,1704],"xSR":741.5,"ySR":573.95,"xT1":424.9,"yT1":0,"xT2":1058.1,"yT2":0,"toosoon":0,"cond_shown":"Incongruent","ratio_trial":200,"L_num":7,"L_den":15,"R_num":6,"R_den":9,"correct_side":2,"subjID":"DanielPabon26","gender":"0","school":"4","age":"8"},{"start_time":1552327518978,"click_time":1552327520578,"finger_time":1552327520498,"fix_duration":1076.7792716187398,"trial":10,"RT":1520,"MT":80,"sideResp":1,"stimulus":[],"xmouse":[773,773,773,773,773,773,773,773,773,773,773,773,773,773,773,773,773,773,773,773,773,773,773,773,773,773,773,773,772,772,772,772,772,772,772,772,772,772,772,772,772,772,772,772,772,772,772,772,772,772,772,772,772,772,772,772,772,772,772,772,772,772,772,772,772,772,772,772,772,772,772,772,772,772,771,767,754,733,676,555,482],"ymouse":[641,641,641,641,641,641,641,641,641,641,641,641,641,641,641,641,641,641,641,641,641,641,641,641,641,641,641,641,641,641,641,641,641,641,641,641,641,641,641,641,641,641,641,641,641,641,641,641,641,641,641,641,641,641,641,641,641,641,641,641,641,641,641,641,641,641,641,641,641,641,641,641,641,641,634,612,572,504,373,165,52],"timestamp_mouse":[10,20,41,60,80,100,120,141,161,180,200,221,240,261,280,301,320,340,361,380,400,421,440,461,481,500,521,540,561,580,601,621,640,660,681,700,721,741,760,780,800,821,841,861,881,900,922,941,961,980,1001,1020,1041,1061,1080,1100,1120,1141,1160,1181,1201,1221,1241,1261,1281,1300,1321,1341,1361,1380,1401,1420,1440,1461,1480,1500,1520,1540,1561,1580,1600],"xSR":741.5,"ySR":573.95,"xT1":424.9,"yT1":0,"xT2":1058.1,"yT2":0,"toosoon":0,"cond_shown":"Congruent","ratio_trial":100,"L_num":3,"L_den":6,"R_num":2,"R_den":5,"correct_side":1,"subjID":"DanielPabon26","gender":"0","school":"4","age":"8"},{"start_time":1552327523405,"click_time":1552327526219,"finger_time":1552327524759,"fix_duration":405.55656396983267,"trial":11,"RT":1354,"MT":1460,"sideResp":2,"stimulus":[],"xmouse":[796,796,797,798,798,798,798,798,798,798,798,798,798,798,798,798,798,798,798,798,798,798,798,798,798,798,798,798,798,798,798,798,798,798,798,798,798,798,798,798,798,798,798,798,798,798,798,798,798,798,798,798,798,798,798,798,798,798,798,798,798,798,798,798,798,799,806,840,870,905,939,977,1016,1025,1032,1033,1034,1034,1034,1034,1034,1034,1034,1034,1034,1034,1034,1034,1034,1034,1034,1034,1034,1034,1034,1033,1029,1027,1027,1027,1027,1027,1027,1027,1027,1026,1015,976,953,930,912,906,906,906,906,906,911,941,957,963,965,965,965,966,969,987,1002,1026,1032,1038,1041,1043,1049,1051,1051,1051,1051,1051,1052,1056,1059],"ymouse":[663,659,652,648,646,643,642,641,641,641,641,641,641,641,641,641,641,641,641,641,641,641,641,641,641,641,641,641,641,641,641,641,641,641,641,641,641,641,641,641,641,641,641,641,641,641,641,641,641,641,641,641,641,641,641,641,641,641,641,641,641,641,641,641,641,641,630,571,521,457,391,322,226,194,171,165,165,165,165,165,165,165,165,165,165,165,165,165,165,165,165,165,165,165,165,165,165,164,164,164,164,164,164,164,164,164,164,164,164,167,172,175,175,175,175,175,175,173,167,162,160,160,160,160,159,155,149,134,128,121,115,109,101,99,99,99,99,99,99,99,99],"timestamp_mouse":[14,33,53,73,94,114,133,153,173,194,213,234,254,273,293,314,334,353,374,394,414,434,453,473,494,513,534,553,573,594,613,633,653,674,693,714,733,753,774,794,813,834,853,873,894,914,934,953,974,993,1014,1033,1053,1074,1094,1113,1134,1153,1173,1193,1213,1233,1253,1274,1294,1313,1333,1354,1373,1394,1414,1433,1454,1473,1493,1514,1533,1553,1574,1593,1613,1633,1653,1674,1694,1713,1734,1754,1774,1794,1814,1834,1853,1874,1893,1914,1933,1953,1973,1993,2014,2033,2053,2072,2093,2113,2134,2153,2174,2193,2214,2233,2254,2273,2294,2314,2333,2353,2373,2394,2414,2433,2453,2473,2493,2513,2533,2553,2574,2593,2613,2634,2653,2674,2693,2713,2734,2754,2773,2793,2814],"xSR":741.5,"ySR":573.95,"xT1":424.9,"yT1":0,"xT2":1058.1,"yT2":0,"toosoon":0,"cond_shown":"Congruent","ratio_trial":100,"L_num":3,"L_den":6,"R_num":2,"R_den":5,"correct_side":1,"subjID":"DanielPabon26","gender":"0","school":"4","age":"8"},{"start_time":1552327532220,"click_time":1552327533758,"finger_time":1552327533679,"fix_duration":1400.0850317317575,"trial":12,"RT":1459,"MT":79,"sideResp":1,"stimulus":[],"xmouse":[788,788,788,788,788,788,788,788,788,788,788,788,788,788,788,788,788,788,788,788,788,788,788,788,788,788,788,788,788,788,788,788,788,788,788,788,788,788,788,788,788,788,788,788,788,788,788,788,788,788,788,788,788,788,788,788,788,788,788,788,788,788,788,788,788,788,788,788,788,788,788,783,731,695,619,532,484],"ymouse":[655,655,655,655,655,655,655,655,655,655,655,655,655,655,655,655,655,655,655,655,655,655,655,655,655,655,655,655,655,655,655,655,655,655,655,655,655,655,655,655,655,655,655,655,655,655,655,655,655,655,655,655,655,655,655,655,655,655,655,655,655,655,655,655,655,655,655,655,655,655,653,590,442,373,257,130,29],"timestamp_mouse":[18,40,59,79,98,118,139,158,179,198,218,239,258,279,299,318,338,358,378,398,418,439,458,478,498,519,538,559,579,598,618,638,658,679,698,719,738,758,778,799,818,838,858,879,899,919,939,958,978,999,1018,1038,1058,1079,1098,1119,1138,1159,1178,1199,1219,1239,1259,1278,1299,1319,1339,1359,1378,1399,1418,1438,1459,1478,1499,1518,1538],"xSR":741.5,"ySR":573.95,"xT1":424.9,"yT1":0,"xT2":1058.1,"yT2":0,"toosoon":0,"cond_shown":"Congruent","ratio_trial":200,"L_num":16,"L_den":20,"R_num":12,"R_den":20,"correct_side":1,"subjID":"DanielPabon26","gender":"0","school":"4","age":"8"},{"start_time":1552327536496,"click_time":1552327537718,"finger_time":1552327537599,"fix_duration":1435.8709233063462,"trial":13,"RT":1103,"MT":119,"sideResp":1,"stimulus":[],"xmouse":[778,778,779,781,782,783,784,784,784,784,784,784,784,784,784,784,784,784,784,784,784,784,784,784,784,784,784,784,784,784,784,784,784,784,784,784,784,784,784,784,784,784,784,784,784,784,784,784,784,784,784,784,784,785,777,754,711,673,602,566,532,499],"ymouse":[625,625,625,625,625,625,625,625,625,625,625,625,625,625,625,625,625,625,625,625,625,625,625,625,625,625,625,625,625,625,625,625,625,625,625,625,625,625,625,625,625,625,625,625,625,625,625,625,625,625,625,625,625,621,601,554,479,413,273,190,102,11],"timestamp_mouse":[10,23,50,62,82,103,122,142,163,182,202,222,242,262,283,302,322,343,362,382,402,422,443,462,482,502,522,542,563,583,602,623,642,662,683,702,723,743,762,783,803,822,843,862,883,903,922,942,963,982,1002,1022,1043,1062,1082,1103,1122,1143,1162,1183,1203,1222],"xSR":741.5,"ySR":573.95,"xT1":424.9,"yT1":0,"xT2":1058.1,"yT2":0,"toosoon":0,"cond_shown":"Incongruent","ratio_trial":200,"L_num":3,"L_den":10,"R_num":1,"R_den":2,"correct_side":2,"subjID":"DanielPabon26","gender":"0","school":"4","age":"8"},{"start_time":1552327539111,"click_time":1552327540880,"finger_time":1552327540518,"fix_duration":352.1440307829106,"trial":14,"RT":1407,"MT":362,"sideResp":2,"stimulus":[],"xmouse":[768,768,768,768,768,768,768,768,768,768,768,768,768,768,768,768,768,768,768,768,768,768,768,768,768,768,768,768,768,768,768,768,768,768,768,768,768,768,768,768,768,768,768,768,768,768,768,768,768,768,768,769,769,769,769,769,769,769,769,769,769,769,769,769,769,769,769,773,782,795,845,910,967,973,990,1001,1004,1004,1005,1006,1012,1015,1015,1015,1016,1019,1025,1046,1061],"ymouse":[647,647,647,647,647,647,647,647,647,647,647,647,647,647,647,647,647,647,647,647,647,647,647,647,647,647,647,647,647,647,647,647,647,647,647,647,647,647,647,647,647,647,647,647,647,647,647,647,647,646,646,645,645,645,645,645,645,645,645,645,645,645,645,645,645,645,645,641,622,588,481,333,52,5,0,0,0,0,0,0,0,0,0,0,0,0,0,5,7],"timestamp_mouse":[13,28,47,67,87,107,128,148,167,188,207,227,248,267,288,307,328,347,367,387,407,428,447,467,488,507,528,548,567,587,608,628,648,667,687,708,728,747,767,788,807,828,848,867,888,907,927,947,967,987,1007,1028,1047,1067,1088,1107,1127,1147,1168,1188,1207,1227,1247,1268,1288,1307,1328,1348,1367,1387,1407,1427,1447,1467,1487,1507,1527,1547,1567,1587,1608,1627,1648,1667,1687,1707,1728,1748,1768],"xSR":741.5,"ySR":573.95,"xT1":424.9,"yT1":0,"xT2":1058.1,"yT2":0,"toosoon":0,"cond_shown":"Incongruent","ratio_trial":100,"L_num":10,"L_den":25,"R_num":8,"R_den":16,"correct_side":2,"subjID":"DanielPabon26","gender":"0","school":"4","age":"8"},{"start_time":1552327542851,"click_time":1552327543799,"finger_time":1552327543598,"fix_duration":1091.4926738746926,"trial":15,"RT":747,"MT":201,"sideResp":1,"stimulus":[],"xmouse":[808,808,809,809,809,809,809,809,809,809,809,809,809,809,809,809,809,809,809,809,809,809,809,809,809,810,810,811,811,811,811,811,811,811,812,813,813,813,802,772,686,629,570,475,439,433,433,432],"ymouse":[618,617,616,616,616,616,616,616,616,616,616,616,616,616,616,616,616,616,616,616,616,616,616,616,616,614,614,613,613,612,612,611,610,609,606,595,582,556,490,389,118,0,0,0,0,0,0,4],"timestamp_mouse":[14,37,48,68,87,108,127,148,167,187,208,228,248,267,288,307,328,348,368,388,407,427,447,467,487,507,528,548,567,588,607,627,647,668,688,706,728,747,768,787,807,827,847,867,887,909,927,948],"xSR":741.5,"ySR":573.95,"xT1":424.9,"yT1":0,"xT2":1058.1,"yT2":0,"toosoon":0,"cond_shown":"Congruent","ratio_trial":300,"L_num":11,"L_den":22,"R_num":2,"R_den":10,"correct_side":1,"subjID":"DanielPabon26","gender":"0","school":"4","age":"8"},{"start_time":1552327544824,"click_time":1552327545898,"finger_time":1552327545599,"fix_duration":365.3881643326945,"trial":16,"RT":775,"MT":299,"sideResp":2,"stimulus":[],"xmouse":[811,811,811,811,811,811,811,811,811,811,811,811,811,811,811,811,811,811,811,811,811,811,811,811,811,811,811,811,811,811,811,811,811,811,811,811,814,824,843,873,914,1012,1058,1102,1143,1149,1155,1156,1156,1156,1156,1156,1156,1153],"ymouse":[659,659,659,659,659,659,659,659,659,659,659,659,659,659,659,659,659,659,659,659,659,659,659,659,659,659,659,659,659,659,659,659,659,659,659,659,652,630,588,520,431,205,84,0,0,0,0,0,0,0,0,0,0,2],"timestamp_mouse":[14,34,54,74,94,114,135,154,175,195,214,234,254,275,294,315,334,354,374,394,415,435,455,474,495,514,535,554,574,594,615,635,654,674,694,714,734,754,775,795,814,834,854,875,894,915,935,954,974,995,1014,1035,1055,1074],"xSR":741.5,"ySR":573.95,"xT1":424.9,"yT1":0,"xT2":1058.1,"yT2":0,"toosoon":0,"cond_shown":"Incongruent","ratio_trial":300,"L_num":8,"L_den":10,"R_num":14,"R_den":28,"correct_side":1,"subjID":"DanielPabon26","gender":"0","school":"4","age":"8"},{"start_time":1552327547048,"click_time":1552327547658,"finger_time":1552327547558,"fix_duration":368.1617954699542,"trial":17,"RT":510,"MT":100,"sideResp":1,"stimulus":[],"xmouse":[784,784,784,784,784,784,784,784,784,784,784,784,784,784,784,784,784,784,784,784,784,784,783,782,778,734,685,626,572,523,473],"ymouse":[607,607,607,607,607,607,607,607,607,607,607,607,607,607,607,607,607,607,607,607,607,607,605,597,580,474,383,279,188,113,27],"timestamp_mouse":[10,32,50,70,90,110,131,151,170,191,210,231,251,271,291,311,331,351,371,390,411,430,450,471,491,510,531,550,570,591,610],"xSR":741.5,"ySR":573.95,"xT1":424.9,"yT1":0,"xT2":1058.1,"yT2":0,"toosoon":0,"cond_shown":"Incongruent","ratio_trial":100,"L_num":8,"L_den":20,"R_num":1,"R_den":2,"correct_side":2,"subjID":"DanielPabon26","gender":"0","school":"4","age":"8"},{"start_time":1552327548947,"click_time":1552327550119,"finger_time":1552327549319,"fix_duration":288.97194718730634,"trial":18,"RT":372,"MT":800,"sideResp":2,"stimulus":[],"xmouse":[778,778,778,778,778,778,778,778,778,778,778,778,778,778,778,775,771,768,764,764,760,757,753,746,739,731,730,730,730,730,730,730,730,730,730,730,730,730,730,730,730,730,730,730,730,730,729,729,744,770,801,816,836,865,898,1000,1047,1078,1097],"ymouse":[636,636,636,636,636,636,636,636,636,636,636,636,636,636,636,622,601,580,555,540,503,484,468,452,440,434,434,434,434,434,434,434,434,434,434,434,434,434,434,434,434,434,434,434,434,434,434,433,426,406,371,350,328,303,274,187,149,120,95],"timestamp_mouse":[11,31,50,72,91,111,131,152,171,192,212,231,252,272,291,312,331,351,372,391,413,432,451,471,492,511,532,551,571,592,611,632,651,671,691,712,732,752,771,791,812,832,852,871,891,911,932,951,971,991,1011,1031,1051,1072,1092,1111,1131,1151,1172],"xSR":741.5,"ySR":573.95,"xT1":424.9,"yT1":0,"xT2":1058.1,"yT2":0,"toosoon":0,"cond_shown":"Congruent","ratio_trial":100,"L_num":3,"L_den":6,"R_num":2,"R_den":5,"correct_side":1,"subjID":"DanielPabon26","gender":"0","school":"4","age":"8"},{"start_time":1552327553349,"click_time":1552327554738,"finger_time":1552327554198,"fix_duration":909.4322448972757,"trial":19,"RT":849,"MT":540,"sideResp":2,"stimulus":[],"xmouse":[790,790,790,790,790,790,790,790,790,790,790,790,790,790,790,790,790,790,790,790,790,790,790,790,790,790,790,790,790,790,790,790,790,790,790,790,790,790,790,790,793,810,853,924,1016,1184,1238,1264,1267,1267,1267,1263,1251,1233,1211,1157,1104,1063,1021,979,927,920,919,919,919,926,961,976,1032,1071],"ymouse":[620,620,620,620,620,620,620,620,620,620,620,620,620,620,620,620,620,620,620,620,620,620,620,620,620,620,620,620,620,620,620,620,620,620,620,620,620,620,620,620,617,588,518,403,242,0,0,0,0,0,0,4,26,55,90,167,237,281,325,367,431,443,446,446,446,438,352,314,176,84],"timestamp_mouse":[21,42,49,70,89,110,129,149,169,189,210,229,250,271,290,310,330,350,370,389,409,429,449,469,490,510,530,550,569,590,609,629,650,669,689,709,729,750,769,790,809,829,849,870,890,909,930,949,969,989,1011,1029,1050,1069,1089,1110,1130,1150,1169,1190,1210,1229,1249,1269,1289,1309,1330,1350,1369,1389],"xSR":741.5,"ySR":573.95,"xT1":424.9,"yT1":0,"xT2":1058.1,"yT2":0,"toosoon":0,"cond_shown":"Congruent","ratio_trial":300,"L_num":2,"L_den":10,"R_num":12,"R_den":24,"correct_side":2,"subjID":"DanielPabon26","gender":"0","school":"4","age":"8"},{"start_time":1552327557049,"click_time":1552327559018,"finger_time":1552327558060,"fix_duration":1348.2549943945373,"trial":20,"RT":1011,"MT":958,"sideResp":1,"stimulus":[],"xmouse":[821,821,821,821,821,821,821,821,821,821,821,821,821,821,821,821,821,821,821,821,821,821,821,821,821,821,821,821,821,821,821,821,821,821,821,821,821,821,821,821,821,821,821,821,821,821,821,821,818,803,738,679,614,536,424,343,336,336,336,336,336,336,336,339,342,345,345,345,345,342,303,273,246,237,236,240,248,267,288,308,322,324,333,366,383,390,390,390,390,393,406,408,408,408,408,408,413,423,437],"ymouse":[626,626,626,626,626,626,626,626,626,626,626,626,626,626,626,626,626,626,626,626,626,626,626,626,626,626,626,626,626,626,626,626,626,626,626,626,626,626,626,626,626,626,626,626,626,626,626,621,614,587,470,368,248,114,0,0,0,0,0,0,0,0,0,0,0,0,0,0,0,0,0,0,0,0,1,9,11,12,12,12,12,12,12,12,12,12,12,12,12,12,12,13,13,13,13,13,13,13,13],"timestamp_mouse":[11,29,49,69,89,109,130,150,170,189,209,229,250,270,290,310,330,349,370,389,409,430,449,470,489,510,529,550,569,590,609,629,649,669,689,710,729,750,770,789,810,829,849,869,889,910,929,950,969,989,1011,1030,1049,1070,1089,1110,1130,1150,1169,1190,1209,1229,1249,1269,1289,1310,1330,1350,1369,1389,1409,1430,1449,1469,1489,1510,1529,1549,1569,1589,1609,1631,1650,1669,1690,1709,1730,1750,1769,1789,1809,1829,1850,1868,1889,1910,1929,1950,1969],"xSR":741.5,"ySR":573.95,"xT1":424.9,"yT1":0,"xT2":1058.1,"yT2":0,"toosoon":0,"cond_shown":"Congruent","ratio_trial":200,"L_num":11,"L_den":22,"R_num":3,"R_den":10,"correct_side":1,"subjID":"DanielPabon26","gender":"0","school":"4","age":"8"},{"start_time":1552327561098,"click_time":1552327562798,"finger_time":1552327562578,"fix_duration":1177.8028077751842,"trial":21,"RT":1480,"MT":220,"sideResp":1,"stimulus":[],"xmouse":[791,791,791,791,791,791,791,791,791,791,791,791,791,791,791,791,791,791,791,791,791,791,791,791,791,791,791,791,791,791,791,791,791,791,791,791,791,791,791,791,791,791,791,791,791,791,791,791,791,791,791,791,791,791,791,791,791,791,791,791,791,791,791,791,791,791,791,791,791,791,791,791,790,782,764,734,698,611,581,560,545,532,527,525,517],"ymouse":[616,616,616,616,616,616,616,616,616,616,616,616,616,616,616,616,616,616,616,616,616,616,616,616,616,616,616,616,616,616,616,616,616,616,616,616,616,616,616,616,616,616,616,616,616,616,616,616,616,616,616,616,616,616,616,616,616,616,616,616,616,616,616,616,616,616,616,616,616,616,616,615,590,559,504,434,350,193,140,110,92,83,83,83,83],"timestamp_mouse":[20,40,61,80,100,121,141,161,180,201,220,241,260,280,300,321,340,360,380,401,421,441,461,480,500,520,541,560,580,601,621,640,660,680,700,720,740,760,780,801,820,840,861,880,901,921,941,960,980,1001,1020,1040,1061,1080,1101,1120,1141,1161,1180,1201,1221,1241,1260,1281,1301,1320,1340,1360,1381,1400,1421,1440,1460,1480,1500,1521,1541,1560,1580,1600,1621,1640,1660,1681,1700],"xSR":741.5,"ySR":573.95,"xT1":424.9,"yT1":0,"xT2":1058.1,"yT2":0,"toosoon":0,"cond_shown":"Incongruent","ratio_trial":300,"L_num":4,"L_den":20,"R_num":2,"R_den":4,"correct_side":2,"subjID":"DanielPabon26","gender":"0","school":"4","age":"8"},{"start_time":1552327567386,"click_time":1552327569219,"finger_time":1552327568720,"fix_duration":1006.2949475203698,"trial":22,"RT":1334,"MT":499,"sideResp":2,"stimulus":[],"xmouse":[809,808,808,808,808,808,808,808,808,808,808,808,808,808,808,808,808,808,808,808,808,808,808,808,808,808,808,808,808,808,808,808,808,808,808,808,808,807,807,807,807,807,807,807,807,807,807,807,806,806,805,805,805,805,805,805,805,805,805,805,805,805,805,805,805,808,829,914,975,979,978,964,934,893,892,894,900,900,900,900,902,904,917,974,995,1008,1011,1011,1013,1026,1044,1061],"ymouse":[622,622,622,622,622,622,622,622,622,622,622,622,622,622,622,622,622,622,622,622,622,622,622,622,622,622,622,622,622,622,622,622,622,622,622,622,622,621,616,615,614,614,614,614,614,614,614,614,611,610,609,609,609,609,609,609,609,609,609,609,609,609,609,609,606,598,572,483,366,310,255,178,103,19,13,8,6,6,6,6,6,6,7,27,39,43,43,43,43,45,48,49],"timestamp_mouse":[15,40,51,72,92,112,132,152,172,192,213,232,251,272,293,312,332,352,372,393,413,432,452,472,493,513,532,552,572,592,612,632,653,673,692,713,732,753,772,793,814,832,852,873,893,912,933,953,974,993,1012,1032,1052,1072,1092,1112,1132,1153,1172,1193,1213,1233,1252,1273,1292,1313,1334,1352,1373,1393,1412,1433,1452,1472,1494,1513,1533,1552,1573,1593,1612,1632,1652,1672,1693,1712,1732,1752,1772,1792,1813,1833],"xSR":741.5,"ySR":573.95,"xT1":424.9,"yT1":0,"xT2":1058.1,"yT2":0,"toosoon":0,"cond_shown":"Incongruent","ratio_trial":300,"L_num":1,"L_den":2,"R_num":2,"R_den":10,"correct_side":1,"subjID":"DanielPabon26","gender":"0","school":"4","age":"8"},{"start_time":1552327571053,"click_time":1552327572818,"finger_time":1552327572458,"fix_duration":532.8683244093032,"trial":23,"RT":1405,"MT":360,"sideResp":1,"stimulus":[],"xmouse":[790,790,790,790,790,790,790,790,790,790,790,790,790,790,790,790,790,790,790,790,790,790,790,790,790,790,790,790,790,790,790,790,790,790,790,790,790,790,790,790,790,790,790,790,790,790,790,790,790,790,790,790,790,790,790,790,790,790,790,790,790,790,790,790,790,790,790,789,785,773,700,630,514,479,403,370,364,363,362,362,362,362,362,368,376,396,410,422,432],"ymouse":[644,644,644,644,644,644,644,644,644,644,644,644,644,644,644,644,644,644,644,644,644,644,644,644,644,644,644,644,644,644,644,644,644,644,644,644,644,644,644,644,644,644,644,644,644,644,644,644,644,644,644,644,644,644,644,644,644,644,644,644,644,644,644,644,644,644,644,640,627,603,485,400,259,220,128,85,77,76,76,76,76,76,76,75,73,71,69,67,64],"timestamp_mouse":[14,35,45,65,86,106,126,146,166,185,206,225,246,265,286,307,326,346,366,385,405,425,446,466,486,506,526,545,567,586,606,625,646,666,686,706,725,746,765,785,806,826,846,865,885,907,927,946,965,985,1005,1025,1045,1066,1085,1105,1125,1146,1166,1185,1205,1225,1246,1267,1285,1306,1326,1345,1366,1387,1405,1426,1445,1467,1486,1505,1525,1545,1565,1586,1605,1626,1646,1665,1685,1705,1725,1745,1765],"xSR":741.5,"ySR":573.95,"xT1":424.9,"yT1":0,"xT2":1058.1,"yT2":0,"toosoon":0,"cond_shown":"Incongruent","ratio_trial":100,"L_num":2,"L_den":4,"R_num":6,"R_den":15,"correct_side":1,"subjID":"DanielPabon26","gender":"0","school":"4","age":"8"},{"start_time":1552327576131,"click_time":1552327577078,"finger_time":1552327577000,"fix_duration":1049.3394277002797,"trial":24,"RT":869,"MT":78,"sideResp":2,"stimulus":[],"xmouse":[809,809,809,809,809,809,809,809,796,785,755,744,744,744,744,744,744,744,744,744,744,744,744,744,755,763,790,798,806,814,818,823,828,831,834,834,834,834,834,834,834,835,836,846,880,922,1035,1122],"ymouse":[633,633,633,633,633,633,633,633,631,629,625,624,624,624,624,624,624,624,624,624,624,624,624,624,624,624,623,623,622,621,621,621,621,621,621,621,621,621,621,621,621,620,604,570,487,380,185,60],"timestamp_mouse":[19,36,48,67,88,109,128,147,168,188,207,228,248,268,288,308,328,348,369,387,407,428,447,467,487,507,527,547,567,588,607,627,648,669,687,707,729,747,768,787,807,827,848,869,887,908,927,947],"xSR":741.5,"ySR":573.95,"xT1":424.9,"yT1":0,"xT2":1058.1,"yT2":0,"toosoon":0,"cond_shown":"Incongruent","ratio_trial":300,"L_num":4,"L_den":20,"R_num":2,"R_den":4,"correct_side":2,"subjID":"DanielPabon26","gender":"0","school":"4","age":"8"},{"start_time":1552327579200,"click_time":1552327580958,"finger_time":1552327580258,"fix_duration":1158.2690408662463,"trial":25,"RT":1058,"MT":700,"sideResp":1,"stimulus":[],"xmouse":[798,798,798,798,798,798,798,798,798,798,798,798,798,798,798,798,798,798,798,798,798,798,798,798,798,798,798,798,798,798,798,798,798,798,798,798,798,798,798,798,798,798,798,798,798,797,797,796,796,796,796,795,790,768,737,692,653,633,633,633,633,633,633,638,648,657,668,669,669,669,670,672,669,608,561,508,444,435,435,435,435,435,435,435,435,435,435,433,429],"ymouse":[653,653,653,653,653,653,653,653,653,653,653,653,653,653,653,653,653,653,653,653,653,653,653,653,653,653,653,653,653,653,653,653,653,653,653,653,653,653,653,653,653,653,653,653,649,643,639,635,631,629,625,619,605,556,495,423,361,334,334,334,334,334,334,339,343,347,350,350,350,350,350,340,293,115,8,0,0,0,0,0,0,0,0,0,0,0,0,0,21],"timestamp_mouse":[1,18,38,59,78,98,118,139,158,178,199,218,238,260,278,298,319,338,359,378,399,419,439,460,479,499,518,538,558,578,598,620,639,658,678,699,718,738,759,778,798,818,839,859,878,898,919,938,958,978,998,1018,1038,1058,1080,1098,1119,1138,1158,1178,1199,1218,1239,1258,1278,1299,1318,1339,1358,1379,1398,1418,1438,1458,1478,1498,1519,1538,1560,1580,1599,1619,1640,1658,1678,1698,1719,1739,1758],"xSR":741.5,"ySR":573.95,"xT1":424.9,"yT1":0,"xT2":1058.1,"yT2":0,"toosoon":0,"cond_shown":"Congruent","ratio_trial":100,"L_num":1,"L_den":2,"R_num":18,"R_den":30,"correct_side":2,"subjID":"DanielPabon26","gender":"0","school":"4","age":"8"},{"start_time":1552327582933,"click_time":1552327584439,"finger_time":1552327583839,"fix_duration":773.5494282652022,"trial":26,"RT":906,"MT":600,"sideResp":1,"stimulus":[],"xmouse":[829,829,829,829,829,829,829,829,829,829,829,829,829,829,829,829,829,829,829,829,829,829,829,829,829,829,829,829,829,829,829,829,829,829,829,829,829,829,829,829,829,829,829,823,809,785,736,721,713,711,708,708,705,698,688,677,647,628,608,583,541,487,475,474,474,474,474,474,475,480,481,486,488,490,491,492],"ymouse":[611,611,611,611,611,611,611,611,611,611,611,611,611,611,611,611,611,611,611,611,611,611,611,611,611,611,611,611,611,611,611,611,611,611,611,611,611,611,611,611,611,611,611,601,579,543,472,444,414,403,371,335,324,313,303,296,284,275,268,253,224,180,169,166,166,166,163,159,153,144,138,125,120,111,102,93],"timestamp_mouse":[23,37,45,65,85,106,125,146,165,186,207,227,245,265,286,307,327,346,366,385,406,426,445,466,487,505,526,545,566,586,606,627,645,665,685,706,725,746,765,786,806,825,845,865,885,906,925,947,966,985,1006,1026,1045,1066,1086,1106,1125,1145,1165,1185,1205,1225,1245,1265,1286,1306,1325,1346,1365,1386,1405,1425,1445,1465,1486,1506],"xSR":741.5,"ySR":573.95,"xT1":424.9,"yT1":0,"xT2":1058.1,"yT2":0,"toosoon":0,"cond_shown":"Incongruent","ratio_trial":200,"L_num":7,"L_den":10,"R_num":14,"R_den":28,"correct_side":1,"subjID":"DanielPabon26","gender":"0","school":"4","age":"8"},{"start_time":1552327587382,"click_time":1552327589519,"finger_time":1552327588779,"fix_duration":541.7964830187897,"trial":27,"RT":1397,"MT":740,"sideResp":2,"stimulus":[],"xmouse":[807,807,807,807,807,807,807,807,807,807,807,807,807,807,807,807,807,807,807,807,807,807,807,807,807,807,807,807,807,807,807,807,807,807,807,807,807,807,807,807,807,807,807,807,807,806,806,805,804,804,804,804,804,804,804,804,804,804,804,804,804,804,804,804,804,804,804,804,798,782,762,735,713,656,630,616,609,609,607,605,604,602,602,602,602,602,602,602,602,602,602,607,616,700,796,849,874,890,907,914,917,919,927,964,1004,1042,1086],"ymouse":[628,628,628,628,628,628,628,628,628,628,628,628,628,628,628,628,628,628,628,628,628,628,628,628,628,628,628,628,628,628,628,628,628,628,628,628,628,628,628,628,628,628,628,628,628,625,623,619,616,616,616,616,616,616,616,616,616,616,616,616,616,616,616,616,616,616,616,615,593,559,505,436,355,198,139,108,93,93,92,92,92,92,92,92,92,92,92,92,92,92,92,92,93,105,119,128,130,130,130,128,125,123,120,114,101,84,57],"timestamp_mouse":[16,38,57,76,96,118,136,156,177,197,217,236,256,277,297,317,336,356,377,396,417,437,457,477,497,517,536,556,577,596,618,637,656,677,696,716,736,757,776,797,817,837,857,877,896,916,937,956,978,997,1016,1036,1057,1076,1096,1116,1138,1156,1177,1196,1216,1238,1256,1277,1297,1317,1337,1356,1376,1397,1417,1436,1457,1476,1497,1516,1536,1556,1576,1597,1617,1636,1657,1677,1697,1716,1736,1757,1776,1796,1816,1836,1857,1876,1896,1916,1936,1956,1976,1996,2016,2036,2056,2076,2097,2117,2137],"xSR":741.5,"ySR":573.95,"xT1":424.9,"yT1":0,"xT2":1058.1,"yT2":0,"toosoon":0,"cond_shown":"Incongruent","ratio_trial":200,"L_num":11,"L_den":20,"R_num":3,"R_den":4,"correct_side":2,"subjID":"DanielPabon26","gender":"0","school":"4","age":"8"},{"start_time":1552327591598,"click_time":1552327593139,"finger_time":1552327592740,"fix_duration":1038.1067541657646,"trial":28,"RT":1142,"MT":399,"sideResp":2,"stimulus":[],"xmouse":[792,792,792,792,792,792,792,792,792,792,792,792,792,792,792,792,792,792,792,792,792,792,792,792,792,792,792,792,792,792,792,792,792,792,792,792,792,792,792,792,792,792,792,792,792,792,792,792,792,792,792,792,792,792,793,797,813,828,866,888,907,935,961,995,1005,1012,1019,1025,1031,1033,1036,1041,1046,1052,1055,1056,1058,1059],"ymouse":[611,611,611,611,611,611,611,611,611,611,611,611,611,611,611,611,611,611,611,611,611,611,611,611,611,611,611,611,611,611,611,611,611,611,611,611,611,611,611,611,611,611,611,611,611,611,611,611,611,611,611,611,611,611,611,608,588,564,479,421,355,288,226,148,128,115,106,102,98,96,94,89,82,72,67,64,61,60],"timestamp_mouse":[10,21,42,60,80,100,121,142,161,181,201,220,241,260,281,300,321,340,360,381,400,420,440,461,480,501,521,542,562,580,601,622,641,661,680,702,722,741,761,780,801,821,841,861,881,900,920,941,960,980,1000,1022,1041,1062,1081,1100,1121,1142,1160,1180,1201,1221,1240,1260,1281,1300,1321,1342,1360,1381,1400,1421,1440,1461,1481,1500,1521,1540],"xSR":741.5,"ySR":573.95,"xT1":424.9,"yT1":0,"xT2":1058.1,"yT2":0,"toosoon":0,"cond_shown":"Congruent","ratio_trial":200,"L_num":3,"L_den":10,"R_num":14,"R_den":28,"correct_side":2,"subjID":"DanielPabon26","gender":"0","school":"4","age":"8"},{"start_time":1552327596661,"click_time":1552327598658,"finger_time":1552327598158,"fix_duration":1181.667128872622,"trial":29,"RT":1497,"MT":500,"sideResp":1,"stimulus":[],"xmouse":[795,795,795,795,795,795,795,795,795,795,795,795,795,795,795,795,795,795,795,795,795,795,795,795,795,795,795,795,795,795,795,795,795,795,795,795,795,795,795,795,795,795,795,795,795,795,795,795,795,795,795,795,795,795,795,795,795,795,795,795,795,795,795,795,795,795,795,795,797,804,808,812,816,823,828,833,833,830,820,781,750,713,656,623,596,591,586,578,566,543,541,541,541,540,535,532,531,529,528,523],"ymouse":[635,635,635,635,635,635,635,635,635,635,635,635,635,635,635,635,635,635,635,635,635,635,635,635,635,635,635,635,635,635,635,635,635,635,635,635,635,635,635,635,635,635,635,635,635,635,635,635,635,635,635,635,635,635,635,635,635,635,635,635,635,635,635,635,635,635,635,635,630,623,617,608,599,580,541,514,488,459,423,339,297,256,191,153,105,92,80,68,56,42,41,41,41,41,41,41,42,45,47,52],"timestamp_mouse":[17,44,58,77,98,118,137,158,177,199,218,238,259,277,298,318,337,357,378,399,417,438,457,478,497,518,538,557,578,597,618,637,657,678,697,717,739,758,778,797,817,838,857,878,897,917,938,957,978,999,1017,1037,1057,1077,1099,1118,1138,1157,1179,1198,1217,1238,1257,1278,1297,1317,1337,1358,1378,1397,1417,1437,1458,1478,1497,1518,1537,1558,1578,1597,1617,1638,1657,1677,1698,1717,1737,1758,1777,1797,1817,1837,1857,1877,1897,1917,1937,1957,1977,1997],"xSR":741.5,"ySR":573.95,"xT1":424.9,"yT1":0,"xT2":1058.1,"yT2":0,"toosoon":0,"cond_shown":"Incongruent","ratio_trial":100,"L_num":3,"L_den":6,"R_num":4,"R_den":10,"correct_side":1,"subjID":"DanielPabon26","gender":"0","school":"4","age":"8"},{"start_time":1552327600116,"click_time":1552327601878,"finger_time":1552327601458,"fix_duration":655.2796349260509,"trial":30,"RT":1342,"MT":420,"sideResp":2,"stimulus":[],"xmouse":[805,805,805,805,805,805,805,805,805,805,805,805,805,805,805,805,805,805,805,805,805,805,805,805,805,805,805,805,805,804,804,804,804,804,804,804,804,804,804,804,804,804,804,804,804,804,804,804,804,804,804,804,804,804,804,804,804,804,804,804,804,804,804,804,804,806,812,848,875,895,908,919,938,949,957,962,967,971,973,977,985,1003,1024,1033,1039,1045,1050,1056,1060],"ymouse":[616,616,616,616,616,616,616,616,616,616,616,616,616,616,616,616,616,616,616,616,616,616,616,616,616,616,616,616,616,616,616,616,616,616,616,616,616,616,616,616,616,616,616,616,616,616,616,616,616,616,616,616,616,616,616,616,616,616,616,616,616,616,616,616,615,610,600,516,442,367,290,204,155,137,123,115,108,103,100,96,92,86,78,73,69,65,62,58,55],"timestamp_mouse":[11,23,42,62,83,103,122,142,162,182,203,222,244,263,283,302,322,342,362,383,402,422,444,463,483,502,523,544,562,582,603,622,642,662,683,703,722,742,762,783,804,822,842,862,883,903,923,943,962,983,1002,1023,1043,1063,1082,1102,1122,1144,1163,1183,1202,1222,1244,1264,1283,1303,1323,1342,1364,1382,1403,1422,1442,1462,1482,1502,1524,1542,1563,1583,1603,1622,1642,1662,1683,1704,1722,1742,1762],"xSR":741.5,"ySR":573.95,"xT1":424.9,"yT1":0,"xT2":1058.1,"yT2":0,"toosoon":0,"cond_shown":"Incongruent","ratio_trial":200,"L_num":14,"L_den":30,"R_num":12,"R_den":18,"correct_side":2,"subjID":"DanielPabon26","gender":"0","school":"4","age":"8"},{"start_time":1552327603581,"click_time":1552327604758,"finger_time":1552327604419,"fix_duration":1002.2501443387508,"trial":31,"RT":838,"MT":339,"sideResp":1,"stimulus":[],"xmouse":[778,778,778,778,778,778,778,778,778,778,778,778,778,778,778,778,778,778,778,778,778,778,778,778,778,778,778,778,778,778,778,778,778,778,778,778,778,778,778,778,771,738,686,608,598,598,598,605,605,605,601,594,588,582,578,569,548,526,452],"ymouse":[646,646,646,646,646,646,646,646,646,646,646,646,646,646,646,646,646,646,646,646,646,646,646,646,646,646,646,646,646,646,646,646,646,646,646,646,646,646,646,646,629,578,497,340,279,241,213,185,177,175,174,173,172,171,170,164,148,130,64],"timestamp_mouse":[27,38,58,78,98,117,138,158,178,199,217,237,257,277,298,317,337,358,378,397,417,437,459,478,497,518,538,558,578,597,617,637,658,678,699,719,738,758,779,797,818,838,858,878,897,917,937,958,977,998,1017,1038,1058,1078,1098,1117,1137,1158,1177],"xSR":741.5,"ySR":573.95,"xT1":424.9,"yT1":0,"xT2":1058.1,"yT2":0,"toosoon":0,"cond_shown":"Incongruent","ratio_trial":100,"L_num":3,"L_den":9,"R_num":7,"R_den":30,"correct_side":1,"subjID":"DanielPabon26","gender":"0","school":"4","age":"8"},{"start_time":1552327608472,"click_time":1552327609919,"finger_time":1552327609518,"fix_duration":1393.9377003749282,"trial":32,"RT":1046,"MT":401,"sideResp":1,"stimulus":[],"xmouse":[785,785,785,785,785,785,785,785,785,785,785,785,785,785,785,785,785,785,785,785,785,785,785,785,785,785,785,785,785,785,785,785,785,785,785,785,785,785,785,785,785,785,785,785,785,785,785,785,785,785,779,767,752,751,751,752,752,753,753,749,737,731,703,672,599,562,532,502,473,454,450,450,447],"ymouse":[637,637,637,637,637,637,637,637,637,637,637,637,637,637,637,637,637,637,637,637,637,637,637,637,637,637,637,637,637,637,637,637,637,637,637,637,637,637,637,637,637,637,637,637,637,637,637,637,637,634,619,598,562,548,535,533,531,529,526,505,475,461,400,339,182,86,0,0,0,0,0,0,4],"timestamp_mouse":[13,39,46,67,88,106,127,147,166,188,206,226,247,268,287,307,327,346,366,386,406,427,447,466,487,506,527,547,568,587,606,626,647,666,686,706,727,748,767,786,806,827,846,867,887,906,928,946,967,987,1007,1026,1046,1066,1087,1106,1126,1147,1166,1186,1206,1227,1246,1267,1288,1307,1327,1346,1366,1386,1407,1426,1447],"xSR":741.5,"ySR":573.95,"xT1":424.9,"yT1":0,"xT2":1058.1,"yT2":0,"toosoon":0,"cond_shown":"Congruent","ratio_trial":200,"L_num":7,"L_den":15,"R_num":18,"R_den":27,"correct_side":2,"subjID":"DanielPabon26","gender":"0","school":"4","age":"8"},{"start_time":1552327611935,"click_time":1552327613079,"finger_time":1552327612698,"fix_duration":1154.6639460349386,"trial":33,"RT":763,"MT":381,"sideResp":1,"stimulus":[],"xmouse":[803,803,803,803,803,803,803,803,803,803,803,803,803,803,803,803,803,803,803,803,803,803,803,803,803,803,803,803,803,803,803,803,803,803,803,803,799,781,753,701,667,621,608,594,573,547,496,479,472,468,468,468,468,466,466,464,460,456],"ymouse":[620,620,620,620,620,620,620,620,620,620,620,620,620,620,620,620,620,620,620,620,620,620,620,620,620,620,620,620,620,620,620,620,620,620,620,617,603,577,522,387,286,131,90,55,20,0,0,0,0,0,0,0,0,0,0,0,0,1],"timestamp_mouse":[12,36,44,63,83,105,124,143,164,184,203,225,244,263,283,303,324,344,365,384,404,424,443,463,484,503,524,543,563,583,603,625,643,663,683,703,723,743,763,783,803,823,843,864,884,903,924,944,963,983,1004,1023,1043,1064,1084,1103,1124,1144],"xSR":741.5,"ySR":573.95,"xT1":424.9,"yT1":0,"xT2":1058.1,"yT2":0,"toosoon":0,"cond_shown":"Incongruent","ratio_trial":100,"L_num":1,"L_den":2,"R_num":8,"R_den":20,"correct_side":1,"subjID":"DanielPabon26","gender":"0","school":"4","age":"8"},{"start_time":1552327614489,"click_time":1552327617298,"finger_time":1552327615939,"fix_duration":448.4532581387733,"trial":34,"RT":1450,"MT":1359,"sideResp":1,"stimulus":[],"xmouse":[792,792,792,792,792,792,792,792,792,792,792,792,792,792,792,792,792,792,792,792,792,792,792,792,792,792,792,792,792,792,792,792,792,792,792,792,792,792,792,792,792,792,792,792,792,792,792,792,792,792,792,792,792,792,792,792,792,792,792,792,792,792,792,792,792,792,792,792,792,792,800,809,842,874,876,869,865,865,865,865,868,875,884,903,911,915,922,929,948,956,962,964,964,964,964,964,964,964,964,964,964,964,964,964,964,964,964,964,957,945,927,907,872,823,797,770,749,730,706,695,679,651,629,578,554,540,530,525,510,500,499,497,497,497,497,497,497,497,497,496,496],"ymouse":[608,608,608,609,609,609,609,609,609,609,609,609,609,609,609,609,609,609,609,609,609,609,609,609,609,609,609,609,609,609,609,609,609,609,609,609,609,609,609,609,609,609,609,609,609,609,609,609,609,609,609,609,609,609,609,609,609,609,609,609,609,609,609,609,609,609,609,609,609,609,600,590,550,463,405,353,315,282,221,194,173,156,146,146,146,146,146,146,146,144,143,142,142,142,142,142,142,142,142,142,142,142,142,142,142,142,142,142,141,140,138,136,131,125,121,117,114,111,109,109,109,109,109,107,105,105,105,105,105,104,103,103,103,103,103,103,103,103,103,100,98],"timestamp_mouse":[13,38,49,70,90,109,131,149,170,189,209,230,249,270,290,310,329,351,370,389,410,431,450,471,490,509,529,550,570,589,609,630,650,670,690,711,730,750,769,790,809,830,850,871,891,910,930,949,970,989,1009,1030,1051,1069,1089,1110,1131,1149,1171,1190,1209,1229,1250,1270,1290,1309,1329,1349,1371,1390,1409,1429,1450,1469,1490,1510,1529,1549,1569,1590,1609,1629,1650,1669,1690,1709,1729,1750,1769,1789,1809,1830,1851,1869,1890,1909,1929,1949,1969,1990,2009,2029,2049,2070,2089,2111,2131,2150,2169,2190,2210,2229,2250,2269,2291,2309,2329,2350,2369,2390,2410,2430,2451,2469,2489,2510,2530,2549,2569,2589,2609,2629,2650,2670,2689,2711,2729,2749,2769,2789,2809],"xSR":741.5,"ySR":573.95,"xT1":424.9,"yT1":0,"xT2":1058.1,"yT2":0,"toosoon":0,"cond_shown":"Incongruent","ratio_trial":100,"L_num":2,"L_den":4,"R_num":6,"R_den":15,"correct_side":1,"subjID":"DanielPabon26","gender":"0","school":"4","age":"8"},{"start_time":1552327618511,"click_time":1552327621378,"finger_time":1552327619958,"fix_duration":250,"trial":35,"RT":1447,"MT":1420,"sideResp":2,"stimulus":[],"xmouse":[796,796,796,796,796,796,796,796,796,796,796,796,796,796,796,796,796,796,796,796,796,796,796,796,796,796,796,796,796,796,796,796,796,796,796,796,796,796,796,796,796,796,796,796,796,796,796,796,795,795,795,795,795,795,795,795,795,795,795,795,795,795,795,795,795,795,795,795,793,790,781,763,731,720,709,701,693,662,638,615,601,590,579,572,563,555,548,546,546,546,546,546,546,546,546,546,546,546,546,546,544,544,544,544,544,544,544,544,544,544,549,567,623,668,725,796,889,1097,1191,1247,1259,1259,1259,1259,1259,1260,1260,1261,1261,1261,1261,1261,1259,1256,1255,1255,1255,1255,1254,1254,1252,1243,1196,1158],"ymouse":[599,599,599,599,599,599,599,599,599,599,599,599,599,599,599,599,599,599,599,599,599,599,599,599,599,599,599,599,599,599,599,599,599,599,599,599,599,599,599,599,599,599,599,599,599,599,600,600,600,600,600,600,600,600,600,600,600,600,600,600,600,600,600,600,601,601,601,601,601,601,595,580,545,520,482,428,365,269,224,182,152,125,91,73,54,40,29,26,26,26,26,26,26,26,26,26,26,26,26,26,25,25,25,25,25,25,25,25,25,25,25,25,25,32,40,51,70,129,152,165,167,167,167,167,167,167,165,157,154,150,150,148,146,146,146,146,146,146,146,146,146,136,93,58],"timestamp_mouse":[13,27,48,67,87,107,128,147,167,187,208,228,249,268,288,309,328,347,367,388,407,428,448,467,488,508,527,547,568,587,608,628,647,668,687,708,727,748,768,788,808,828,847,867,888,907,927,947,967,989,1009,1027,1047,1068,1088,1108,1128,1148,1168,1189,1207,1227,1248,1267,1287,1308,1327,1347,1367,1388,1408,1427,1447,1467,1487,1508,1528,1547,1567,1588,1607,1627,1647,1667,1687,1708,1727,1748,1767,1789,1807,1827,1848,1868,1888,1907,1927,1947,1967,1987,2008,2028,2047,2067,2088,2108,2127,2147,2168,2187,2207,2229,2249,2268,2288,2308,2328,2347,2367,2387,2407,2427,2448,2467,2488,2508,2527,2547,2567,2587,2608,2628,2649,2668,2688,2708,2727,2747,2769,2788,2808,2828,2847,2867],"xSR":741.5,"ySR":573.95,"xT1":424.9,"yT1":0,"xT2":1058.1,"yT2":0,"toosoon":0,"cond_shown":"Congruent","ratio_trial":300,"L_num":3,"L_den":6,"R_num":4,"R_den":5,"correct_side":2,"subjID":"DanielPabon26","gender":"0","school":"4","age":"8"},{"start_time":1552327626151,"click_time":1552327627880,"finger_time":1552327627518,"fix_duration":250,"trial":36,"RT":1367,"MT":362,"sideResp":1,"stimulus":[],"xmouse":[801,801,801,801,801,801,801,801,801,801,801,801,801,801,801,801,801,801,801,801,801,801,801,801,801,801,801,801,801,801,801,801,801,801,801,801,801,801,801,801,801,801,801,801,801,801,801,801,801,801,801,801,801,801,801,801,801,801,801,801,801,801,801,801,801,801,801,801,801,801,810,815,817,817,814,791,762,756,743,738,728,714,692,657,612,497,462],"ymouse":[628,628,628,628,628,628,628,628,628,628,628,628,628,628,628,628,628,628,628,628,628,628,628,628,628,628,628,628,628,628,628,628,628,628,628,628,628,628,628,628,628,628,628,628,628,628,628,628,628,628,628,628,628,628,628,628,628,628,628,628,628,628,628,628,628,628,619,603,508,445,378,358,342,333,328,325,322,322,321,320,317,310,293,262,227,118,80],"timestamp_mouse":[15,41,48,67,88,108,127,148,167,188,207,227,247,268,287,308,327,347,368,388,408,428,447,468,489,507,527,547,567,588,607,627,647,668,689,708,728,747,769,789,808,827,848,867,888,908,927,947,968,988,1007,1028,1047,1067,1087,1109,1127,1147,1168,1188,1207,1228,1247,1267,1287,1308,1327,1347,1367,1387,1407,1427,1447,1467,1488,1507,1527,1548,1568,1587,1607,1627,1647,1667,1688,1707,1729],"xSR":741.5,"ySR":573.95,"xT1":424.9,"yT1":0,"xT2":1058.1,"yT2":0,"toosoon":0,"cond_shown":"Incongruent","ratio_trial":100,"L_num":3,"L_den":5,"R_num":8,"R_den":16,"correct_side":1,"subjID":"DanielPabon26","gender":"0","school":"4","age":"8"},{"start_time":1552327629968,"click_time":1552327630979,"finger_time":1552327630858,"fix_duration":1208.3359959380418,"trial":37,"RT":890,"MT":121,"sideResp":1,"stimulus":[],"xmouse":[770,770,770,770,770,770,770,770,770,772,772,772,772,772,772,772,772,772,772,772,772,772,772,772,772,772,772,772,772,772,772,772,772,772,772,772,772,772,772,772,773,774,773,773,771,763,746,719,661,556,523],"ymouse":[625,625,625,625,625,625,625,625,625,625,625,625,625,625,625,625,625,625,625,625,625,625,625,625,625,625,625,625,625,625,625,625,625,625,625,625,625,625,625,625,625,618,603,582,492,435,380,322,233,121,93],"timestamp_mouse":[10,40,50,71,91,112,131,150,171,190,211,230,251,272,292,310,331,351,370,390,411,431,450,471,492,510,531,552,571,591,610,630,652,672,692,710,731,751,770,790,810,830,851,871,890,912,931,951,971,990,1011],"xSR":741.5,"ySR":573.95,"xT1":424.9,"yT1":0,"xT2":1058.1,"yT2":0,"toosoon":0,"cond_shown":"Congruent","ratio_trial":100,"L_num":7,"L_den":14,"R_num":9,"R_den":15,"correct_side":2,"subjID":"DanielPabon26","gender":"0","school":"4","age":"8"},{"start_time":1552327632999,"click_time":1552327634518,"finger_time":1552327634419,"fix_duration":538.4337168025486,"trial":38,"RT":1420,"MT":99,"sideResp":1,"stimulus":[],"xmouse":[799,799,799,799,799,799,799,799,799,799,799,799,799,799,799,799,799,799,799,799,799,799,799,799,799,799,799,799,799,799,799,799,799,799,799,799,799,799,799,799,799,799,799,799,799,799,799,799,799,799,799,799,799,799,799,799,799,799,799,799,799,799,799,799,799,799,799,799,797,791,781,766,736,649,606,556,508],"ymouse":[628,628,628,628,628,628,628,628,628,628,628,628,628,628,628,628,628,628,628,628,628,628,628,628,628,628,628,628,628,628,628,628,628,628,628,628,628,628,628,628,628,628,628,628,628,628,628,628,628,628,628,628,628,628,628,628,628,628,628,628,628,628,628,628,628,628,628,628,619,604,581,542,489,344,255,159,71],"timestamp_mouse":[1,19,40,59,80,99,120,140,160,181,200,221,240,260,279,300,319,341,361,380,400,419,441,461,479,499,519,539,559,579,601,621,641,661,679,700,720,740,761,779,800,819,840,861,879,900,920,940,959,980,999,1020,1040,1061,1080,1099,1119,1141,1161,1179,1200,1220,1239,1260,1280,1299,1320,1341,1359,1380,1401,1420,1439,1459,1479,1500,1519],"xSR":741.5,"ySR":573.95,"xT1":424.9,"yT1":0,"xT2":1058.1,"yT2":0,"toosoon":0,"cond_shown":"Congruent","ratio_trial":100,"L_num":1,"L_den":2,"R_num":18,"R_den":30,"correct_side":2,"subjID":"DanielPabon26","gender":"0","school":"4","age":"8"},{"start_time":1552327635951,"click_time":1552327637899,"finger_time":1552327637358,"fix_duration":250,"trial":39,"RT":1407,"MT":541,"sideResp":1,"stimulus":[],"xmouse":[783,783,783,783,783,783,782,782,782,782,782,782,782,782,782,782,782,782,782,782,782,782,782,782,782,782,782,782,782,782,782,782,782,782,782,782,782,782,782,782,782,782,782,782,782,782,782,782,782,782,782,782,782,782,782,782,782,782,782,782,782,782,782,782,782,782,782,782,783,789,796,798,799,799,799,793,786,774,768,753,731,717,697,679,659,629,616,608,604,604,604,603,590,575,558,534,525,519],"ymouse":[638,638,638,638,638,638,638,638,638,638,638,638,638,638,638,638,638,638,638,638,638,638,638,638,638,638,638,638,638,638,638,638,638,638,638,638,638,638,638,638,638,638,638,638,638,638,638,638,638,638,638,638,638,638,638,638,638,638,638,638,638,638,638,638,638,638,638,638,621,595,553,534,513,494,474,432,407,365,346,289,227,197,162,131,98,50,32,20,16,16,16,16,16,16,16,16,16,16],"timestamp_mouse":[13,38,47,69,87,107,127,148,168,188,209,227,248,268,288,307,327,349,368,387,408,427,448,467,487,508,527,549,569,588,608,627,648,669,687,707,727,747,768,788,808,827,848,868,888,907,929,947,967,988,1007,1028,1047,1067,1087,1107,1128,1147,1167,1187,1207,1228,1247,1269,1288,1308,1328,1347,1367,1388,1407,1427,1447,1467,1487,1507,1528,1548,1568,1588,1607,1627,1647,1668,1687,1708,1728,1747,1767,1788,1808,1827,1847,1867,1888,1907,1928,1948],"xSR":741.5,"ySR":573.95,"xT1":424.9,"yT1":0,"xT2":1058.1,"yT2":0,"toosoon":0,"cond_shown":"Congruent","ratio_trial":100,"L_num":7,"L_den":14,"R_num":15,"R_den":25,"correct_side":2,"subjID":"DanielPabon26","gender":"0","school":"4","age":"8"},{"start_time":1552327639372,"click_time":1552327640578,"finger_time":1552327640220,"fix_duration":250,"trial":40,"RT":848,"MT":358,"sideResp":2,"stimulus":[],"xmouse":[787,787,787,787,787,787,787,787,787,787,787,787,787,787,787,787,787,787,787,787,787,787,787,787,787,787,787,787,787,787,787,787,787,787,787,787,787,787,787,787,789,793,808,841,894,913,938,950,957,957,957,957,957,957,957,957,958,967,985,1034,1059],"ymouse":[623,623,623,623,623,623,623,623,623,623,623,623,623,623,623,623,623,623,623,623,623,623,623,623,623,623,623,623,623,623,623,623,623,623,623,623,623,623,623,623,614,588,527,403,99,11,0,0,0,0,0,0,0,0,0,0,0,0,2,2,2],"timestamp_mouse":[15,39,48,66,86,106,127,147,167,187,207,227,247,267,286,308,328,346,367,386,406,427,447,467,486,506,526,547,567,588,607,627,646,667,687,707,727,746,766,786,806,827,848,868,886,907,926,947,966,988,1007,1027,1047,1067,1087,1107,1127,1146,1166,1187,1206],"xSR":741.5,"ySR":573.95,"xT1":424.9,"yT1":0,"xT2":1058.1,"yT2":0,"toosoon":0,"cond_shown":"Incongruent","ratio_trial":100,"L_num":3,"L_den":5,"R_num":11,"R_den":22,"correct_side":1,"subjID":"DanielPabon26","gender":"0","school":"4","age":"8"},{"start_time":1552327642624,"click_time":1552327644118,"finger_time":1552327643739,"fix_duration":843.5201424443425,"trial":41,"RT":1115,"MT":379,"sideResp":1,"stimulus":[],"xmouse":[813,813,813,813,813,813,813,813,813,813,813,813,813,813,813,813,813,813,813,813,813,813,802,789,784,781,781,781,781,781,782,782,782,782,782,782,782,782,782,782,782,782,782,782,782,782,782,782,782,782,782,782,782,782,782,774,760,750,735,712,682,625,608,596,581,570,549,541,537,534,534,533,531,527,521],"ymouse":[611,611,611,611,611,611,611,611,611,611,611,611,611,611,611,611,611,611,611,611,611,611,611,610,609,607,607,607,607,607,607,607,607,607,607,607,607,607,607,607,607,607,607,607,607,607,607,607,607,607,607,607,607,602,596,573,513,468,413,360,304,220,192,173,146,129,101,95,91,89,89,89,89,89,88],"timestamp_mouse":[14,36,55,76,94,114,134,154,175,195,215,235,254,274,295,315,336,355,375,395,414,434,454,474,496,515,534,554,574,595,616,636,655,675,694,715,734,755,774,796,815,835,854,874,895,915,935,954,975,995,1014,1034,1055,1074,1094,1115,1134,1154,1174,1194,1214,1234,1254,1274,1294,1314,1335,1355,1375,1394,1414,1434,1455,1475,1494],"xSR":741.5,"ySR":573.95,"xT1":424.9,"yT1":0,"xT2":1058.1,"yT2":0,"toosoon":0,"cond_shown":"Congruent","ratio_trial":100,"L_num":6,"L_den":12,"R_num":15,"R_den":25,"correct_side":2,"subjID":"DanielPabon26","gender":"0","school":"4","age":"8"},{"start_time":1552327647460,"click_time":1552327648539,"finger_time":1552327648320,"fix_duration":1039.471545615329,"trial":42,"RT":860,"MT":219,"sideResp":1,"stimulus":[],"xmouse":[806,806,806,806,806,806,806,806,806,806,806,806,808,809,811,814,815,815,817,817,818,819,819,819,819,819,819,819,819,819,819,819,819,819,819,819,819,819,819,819,819,820,821,822,822,819,812,799,782,756,688,647,602,539,512],"ymouse":[616,616,616,616,616,616,616,616,616,616,616,616,614,613,610,607,606,605,604,603,601,601,601,601,601,601,601,601,601,601,601,601,601,601,601,601,601,601,601,601,600,594,585,572,561,532,510,477,436,375,221,149,93,43,27],"timestamp_mouse":[1,18,38,64,78,99,119,139,158,178,198,218,238,259,278,298,318,340,358,379,398,418,440,460,479,499,518,539,559,580,600,618,638,658,678,699,719,739,758,779,798,819,838,860,879,900,918,939,958,978,998,1018,1039,1059,1078],"xSR":741.5,"ySR":573.95,"xT1":424.9,"yT1":0,"xT2":1058.1,"yT2":0,"toosoon":0,"cond_shown":"Congruent","ratio_trial":300,"L_num":20,"L_den":25,"R_num":8,"R_den":16,"correct_side":1,"subjID":"DanielPabon26","gender":"0","school":"4","age":"8"},{"start_time":1552327649969,"click_time":1552327651258,"finger_time":1552327650738,"fix_duration":250,"trial":43,"RT":769,"MT":520,"sideResp":2,"stimulus":[],"xmouse":[780,780,780,780,780,780,780,780,780,780,780,780,780,780,780,780,780,780,780,780,780,780,780,780,780,780,780,780,780,780,780,780,780,780,780,780,785,803,854,890,897,902,907,915,938,949,964,973,976,980,982,984,986,988,997,1003,1008,1017,1033,1050,1054,1058,1061,1064,1070],"ymouse":[590,590,590,590,590,590,590,590,590,590,590,590,590,590,590,590,590,590,590,590,590,590,590,590,590,590,590,590,590,590,590,590,590,590,590,591,591,575,538,506,495,486,477,464,421,392,347,312,286,259,251,243,234,224,197,179,162,145,127,113,109,106,103,100,92],"timestamp_mouse":[21,47,50,70,89,109,131,149,170,190,210,230,249,269,290,310,331,350,369,390,411,430,449,469,489,509,529,550,570,590,609,630,650,670,690,711,731,749,769,790,809,829,849,869,889,910,929,949,970,989,1010,1030,1049,1071,1089,1109,1130,1149,1170,1189,1209,1229,1249,1269,1289],"xSR":741.5,"ySR":573.95,"xT1":424.9,"yT1":0,"xT2":1058.1,"yT2":0,"toosoon":0,"cond_shown":"Incongruent","ratio_trial":200,"L_num":1,"L_den":2,"R_num":3,"R_den":10,"correct_side":1,"subjID":"DanielPabon26","gender":"0","school":"4","age":"8"},{"start_time":1552327652590,"click_time":1552327653618,"finger_time":1552327653539,"fix_duration":389.0962521377929,"trial":44,"RT":949,"MT":79,"sideResp":2,"stimulus":[],"xmouse":[804,804,804,804,804,804,804,804,804,804,804,804,804,804,804,804,804,804,804,804,804,804,804,804,804,804,804,804,804,804,804,804,804,804,804,804,804,804,804,804,804,804,804,804,804,806,810,847,996,1064,1115,1131],"ymouse":[647,647,647,647,647,647,647,647,647,647,647,647,647,647,647,647,647,647,647,647,647,647,647,647,647,647,647,647,647,647,647,647,647,647,647,647,647,647,647,647,647,647,647,647,647,638,632,584,405,280,143,19],"timestamp_mouse":[12,37,49,69,88,108,129,149,170,189,208,228,249,270,288,309,328,349,370,388,408,430,448,469,488,509,530,550,568,588,609,628,649,669,688,708,728,748,770,788,808,828,848,869,888,908,928,949,968,988,1008,1028],"xSR":741.5,"ySR":573.95,"xT1":424.9,"yT1":0,"xT2":1058.1,"yT2":0,"toosoon":0,"cond_shown":"Congruent","ratio_trial":300,"L_num":5,"L_den":25,"R_num":7,"R_den":14,"correct_side":2,"subjID":"DanielPabon26","gender":"0","school":"4","age":"8"},{"start_time":1552327657684,"click_time":1552327659479,"finger_time":1552327659058,"fix_duration":1463.9307446299156,"trial":45,"RT":1374,"MT":421,"sideResp":2,"stimulus":[],"xmouse":[802,802,802,802,802,802,802,802,802,802,802,802,802,802,802,802,802,802,802,802,802,802,802,802,802,802,802,802,802,802,802,802,802,802,802,802,802,802,802,802,802,802,802,802,802,802,802,802,802,802,802,802,802,802,802,802,802,802,801,801,801,801,801,801,801,802,803,807,825,844,866,888,903,934,948,955,961,967,977,988,1019,1029,1056,1082,1085,1085,1085,1085,1085,1085],"ymouse":[622,622,622,622,622,622,622,622,622,622,622,622,622,622,622,622,622,622,622,622,622,622,622,622,622,622,622,622,622,622,622,622,622,622,622,622,622,622,622,622,622,622,622,622,622,622,622,622,622,622,622,622,622,622,622,622,622,622,622,619,617,615,613,612,610,608,606,601,573,541,487,412,262,64,26,9,0,0,0,0,0,0,0,0,0,0,0,0,0,5],"timestamp_mouse":[15,34,66,76,94,114,135,155,175,194,215,235,254,275,295,314,335,355,374,395,416,435,455,476,494,515,535,556,576,594,614,634,654,675,694,715,734,755,776,794,815,834,855,876,894,915,935,955,976,994,1014,1035,1054,1074,1095,1115,1135,1155,1174,1195,1214,1235,1254,1276,1294,1315,1334,1354,1374,1394,1415,1434,1454,1474,1495,1515,1534,1554,1574,1595,1615,1634,1654,1675,1695,1715,1735,1755,1775,1795],"xSR":741.5,"ySR":573.95,"xT1":424.9,"yT1":0,"xT2":1058.1,"yT2":0,"toosoon":0,"cond_shown":"Incongruent","ratio_trial":100,"L_num":9,"L_den":15,"R_num":14,"R_den":28,"correct_side":1,"subjID":"DanielPabon26","gender":"0","school":"4","age":"8"},{"start_time":1552327662199,"click_time":1552327664000,"finger_time":1552327663739,"fix_duration":1338.593555061167,"trial":46,"RT":1540,"MT":261,"sideResp":1,"stimulus":[],"xmouse":[778,778,778,779,781,784,785,788,790,790,790,790,790,790,790,790,790,790,790,790,790,790,790,790,790,790,790,790,790,790,790,790,790,790,790,790,790,790,790,790,790,790,790,790,790,790,790,790,790,790,790,790,790,790,790,790,790,790,790,790,791,791,791,791,791,791,791,791,791,791,791,791,791,791,791,789,781,778,735,718,695,669,636,578,556,552,545,535,531,525,513],"ymouse":[620,620,620,619,618,618,618,617,616,616,616,616,616,616,616,616,616,616,616,616,616,616,616,616,616,616,616,616,616,616,616,616,616,616,616,616,616,616,616,616,616,616,616,616,616,616,616,616,616,616,616,616,616,616,616,616,616,616,616,616,615,615,615,615,615,615,615,615,615,615,615,615,615,615,609,598,575,561,438,374,305,200,71,0,0,0,0,0,0,0,2],"timestamp_mouse":[1,20,42,59,79,99,119,139,159,179,199,219,240,260,279,299,319,341,361,379,400,427,439,460,480,500,519,540,561,581,599,620,640,660,679,699,719,741,759,779,799,820,839,859,880,899,919,939,960,979,999,1020,1039,1060,1079,1099,1120,1139,1161,1180,1200,1219,1240,1259,1279,1299,1321,1340,1361,1380,1400,1419,1439,1461,1481,1499,1519,1540,1560,1579,1599,1620,1639,1660,1679,1700,1719,1739,1760,1779,1801],"xSR":741.5,"ySR":573.95,"xT1":424.9,"yT1":0,"xT2":1058.1,"yT2":0,"toosoon":0,"cond_shown":"Congruent","ratio_trial":100,"L_num":9,"L_den":15,"R_num":8,"R_den":16,"correct_side":1,"subjID":"DanielPabon26","gender":"0","school":"4","age":"8"},{"start_time":1552327666019,"click_time":1552327668098,"finger_time":1552327667479,"fix_duration":1040.965438832369,"trial":47,"RT":1460,"MT":619,"sideResp":2,"stimulus":[],"xmouse":[801,801,801,801,801,801,801,801,801,801,801,801,801,801,801,801,801,801,801,801,801,801,801,801,801,801,801,801,801,801,801,801,801,801,801,801,801,801,801,801,801,801,801,801,801,801,801,801,801,801,801,801,801,801,801,801,801,801,801,801,801,801,801,801,801,801,801,801,801,801,811,839,902,1020,1063,1168,1232,1255,1271,1281,1289,1296,1298,1298,1298,1298,1298,1298,1291,1272,1251,1214,1199,1190,1190,1190,1190,1190,1190,1190,1188,1184,1161,1145],"ymouse":[612,612,612,612,612,612,612,612,612,612,612,612,612,612,612,612,612,612,612,612,612,612,612,612,612,612,612,612,612,612,612,612,612,612,612,612,612,612,612,612,612,612,612,612,612,612,612,612,612,612,612,612,612,612,612,612,612,612,612,612,612,612,612,612,612,612,612,612,612,612,610,602,573,466,416,247,84,10,0,0,0,0,0,0,0,0,0,0,0,0,1,8,12,15,15,15,15,15,15,15,16,18,19,20],"timestamp_mouse":[19,40,59,80,100,121,141,159,179,200,220,241,259,280,300,320,339,359,380,399,419,441,461,479,500,520,539,560,579,600,620,640,659,679,700,720,739,761,779,800,820,840,859,880,900,920,940,960,980,1001,1020,1039,1060,1080,1100,1121,1140,1160,1180,1200,1221,1240,1260,1280,1299,1320,1341,1361,1380,1400,1420,1439,1460,1480,1501,1520,1539,1560,1579,1600,1619,1641,1660,1679,1699,1719,1740,1759,1780,1799,1820,1840,1859,1880,1900,1920,1939,1959,1980,1999,2020,2039,2059,2079],"xSR":741.5,"ySR":573.95,"xT1":424.9,"yT1":0,"xT2":1058.1,"yT2":0,"toosoon":0,"cond_shown":"Incongruent","ratio_trial":300,"L_num":4,"L_den":20,"R_num":2,"R_den":4,"correct_side":2,"subjID":"DanielPabon26","gender":"0","school":"4","age":"8"},{"start_time":1552327670357,"click_time":1552327672119,"finger_time":1552327671639,"fix_duration":1156.9713172443885,"trial":48,"RT":1282,"MT":480,"sideResp":2,"stimulus":[],"xmouse":[787,787,787,787,787,787,787,787,787,787,787,787,787,787,787,787,787,787,787,787,787,787,787,787,787,787,787,787,787,787,787,787,787,787,787,787,787,787,787,787,787,787,787,787,787,787,787,787,787,787,787,787,787,787,787,787,787,787,787,787,794,817,841,876,950,1006,1077,1143,1207,1267,1297,1315,1321,1322,1321,1317,1308,1296,1282,1260,1253,1248,1245,1242,1219,1197,1169,1101],"ymouse":[593,593,593,593,593,593,593,593,593,593,593,593,593,593,593,593,593,593,593,593,593,593,593,593,593,593,593,593,593,593,593,593,593,593,593,593,593,593,593,593,593,593,593,593,593,593,593,593,593,593,593,593,593,593,593,593,593,593,593,593,593,590,587,578,547,517,466,400,310,203,146,103,75,58,24,1,0,0,0,0,0,0,0,0,1,8,16,31],"timestamp_mouse":[21,41,61,81,102,121,142,161,181,203,222,241,261,281,302,323,342,363,383,401,422,441,462,482,503,522,542,562,581,603,622,642,662,681,703,721,741,761,782,803,822,841,861,882,902,921,943,962,982,1001,1021,1042,1061,1083,1102,1123,1142,1162,1182,1202,1221,1241,1261,1282,1301,1322,1341,1362,1382,1402,1422,1441,1461,1482,1501,1521,1541,1561,1582,1602,1621,1642,1661,1682,1702,1721,1741,1762],"xSR":741.5,"ySR":573.95,"xT1":424.9,"yT1":0,"xT2":1058.1,"yT2":0,"toosoon":0,"cond_shown":"Congruent","ratio_trial":300,"L_num":2,"L_den":20,"R_num":10,"R_den":25,"correct_side":2,"subjID":"DanielPabon26","gender":"0","school":"4","age":"8"},{"start_time":1552327674279,"click_time":1552327675558,"finger_time":1552327675199,"fix_duration":939.2375046794349,"trial":49,"RT":920,"MT":359,"sideResp":2,"stimulus":[],"xmouse":[802,802,802,802,802,802,802,802,802,802,802,802,802,802,802,802,802,802,802,802,802,802,802,802,802,802,802,802,802,802,802,802,802,802,802,802,802,802,802,802,802,802,802,802,805,823,843,861,869,883,917,935,981,1034,1067,1073,1077,1081,1084,1090,1092,1093,1093,1093,1087],"ymouse":[632,632,632,632,632,632,632,632,632,632,632,632,632,632,632,632,632,632,632,632,632,632,632,632,632,632,632,632,632,632,632,632,632,632,632,632,632,632,632,632,632,632,632,632,631,629,626,623,621,610,564,532,435,281,224,215,206,196,189,171,163,144,122,102,60],"timestamp_mouse":[1,19,41,59,80,99,119,140,160,180,199,220,239,260,279,300,320,339,360,380,401,419,440,461,480,500,520,540,560,580,599,620,641,659,680,699,719,739,760,779,801,821,840,859,880,899,920,939,960,979,999,1020,1040,1059,1079,1099,1120,1140,1160,1179,1199,1219,1240,1259,1279],"xSR":741.5,"ySR":573.95,"xT1":424.9,"yT1":0,"xT2":1058.1,"yT2":0,"toosoon":0,"cond_shown":"Congruent","ratio_trial":200,"L_num":7,"L_den":15,"R_num":18,"R_den":27,"correct_side":2,"subjID":"DanielPabon26","gender":"0","school":"4","age":"8"},{"start_time":1552327677189,"click_time":1552327680558,"finger_time":1552327678739,"fix_duration":348.1981817076356,"trial":50,"RT":1550,"MT":1819,"sideResp":1,"stimulus":[],"xmouse":[772,772,772,772,772,772,772,772,772,772,772,772,772,772,772,772,772,772,772,772,772,772,772,772,772,772,772,772,772,772,772,772,772,772,772,772,772,772,772,772,772,772,772,772,772,772,772,772,772,772,772,772,772,772,772,772,772,772,772,772,772,772,772,772,772,772,772,772,772,772,772,772,777,793,804,814,825,845,898,937,980,1037,1109,1273,1334,1372,1395,1400,1397,1392,1385,1375,1366,1344,1335,1328,1319,1310,1280,1263,1254,1254,1254,1254,1254,1254,1252,1239,1192,1176,1169,1167,1167,1167,1167,1167,1167,1167,1167,1167,1167,1167,1167,1167,1167,1167,1167,1167,1167,1167,1167,1167,1167,1167,1168,1209,1230,1295,1347,1354,1355,1354,1346,1310,1257,1236,1186,1085,880,745,591,441,318,200,187,187,191,208,231,239,241,243,249,261,277,323,351,405,476],"ymouse":[607,607,607,607,607,607,607,607,607,607,607,607,607,607,607,607,607,607,607,607,607,607,607,607,607,607,607,607,607,607,607,607,607,607,607,607,607,607,607,607,607,607,607,607,607,607,607,607,607,607,607,607,607,607,607,607,607,607,607,607,607,607,607,607,607,607,607,607,607,607,607,607,607,607,607,607,607,607,598,594,581,565,536,438,385,340,280,252,211,194,174,159,143,111,96,84,73,62,40,30,25,25,25,25,25,25,25,26,33,36,38,39,39,39,39,39,39,39,39,39,39,39,39,39,39,39,39,39,39,39,39,39,39,39,41,62,74,115,162,179,195,212,231,277,315,326,345,357,348,327,288,254,225,205,202,202,198,180,134,117,110,106,104,103,103,103,103,103,99],"timestamp_mouse":[21,43,50,70,89,110,130,149,170,191,209,229,249,271,290,309,329,349,369,389,410,430,450,469,490,509,530,551,570,589,611,630,650,669,689,710,729,749,769,789,811,831,850,870,889,909,930,950,969,989,1010,1029,1050,1070,1089,1110,1130,1150,1171,1189,1211,1230,1250,1270,1289,1310,1329,1349,1370,1389,1410,1429,1450,1469,1490,1510,1530,1550,1569,1589,1609,1629,1649,1669,1689,1711,1731,1750,1769,1789,1809,1829,1849,1869,1890,1909,1929,1949,1969,1990,2009,2029,2050,2070,2090,2109,2129,2149,2169,2189,2210,2229,2250,2270,2290,2310,2329,2350,2370,2389,2410,2429,2450,2469,2490,2509,2529,2550,2570,2590,2610,2629,2649,2669,2690,2709,2731,2750,2771,2789,2809,2829,2849,2869,2890,2910,2930,2949,2970,2990,3009,3030,3049,3069,3089,3109,3129,3149,3169,3189,3209,3230,3250,3270,3290,3310,3329,3349,3369],"xSR":741.5,"ySR":573.95,"xT1":424.9,"yT1":0,"xT2":1058.1,"yT2":0,"toosoon":0,"cond_shown":"Congruent","ratio_trial":100,"L_num":11,"L_den":22,"R_num":6,"R_den":15,"correct_side":1,"subjID":"DanielPabon26","gender":"0","school":"4","age":"8"},{"start_time":1552327682191,"click_time":1552327683958,"finger_time":1552327683178,"fix_duration":671.7760405761767,"trial":51,"RT":987,"MT":780,"sideResp":2,"stimulus":[],"xmouse":[826,826,826,826,826,826,826,826,826,826,826,826,826,826,826,826,826,826,826,826,826,826,826,826,826,826,826,826,826,826,826,826,826,826,826,826,826,8