[{"start_time":1552309756258,"click_time":1552309760119,"finger_time":1552309758760,"fix_duration":1255.7045530131863,"trial":0,"RT":2502,"MT":1359,"sideResp":1,"stimulus":"img/250/equaldotsize/L/15_Ratio_250_L_12_R_3.png","xmouse":[792,792,792,792,792,792,792,792,792,792,792,792,792,792,792,792,792,792,792,792,792,792,792,792,792,792,792,792,792,792,792,792,792,792,792,792,792,792,792,792,792,792,792,792,792,792,792,792,792,792,792,792,792,792,792,792,792,792,792,792,792,792,792,792,792,792,792,792,792,792,792,792,792,792,792,792,792,792,792,792,792,792,792,792,792,792,792,792,792,792,792,792,792,792,792,792,792,792,792,792,792,792,792,792,792,792,792,792,792,792,792,792,792,792,792,792,792,792,792,792,797,800,808,827,833,847,861,874,900,916,932,952,966,997,1011,1024,1035,1045,1061,1066,1071,1074,1076,1076,1076,1076,1076,1076,1076,1076,1076,1076,1074,1013,879,807,763,726,726,726,726,726,726,726,726,726,726,726,726,726,726,726,726,726,726,726,726,726,410,409,409,410,410,415,417,418,419,419,419,420,421,422,424,429],"ymouse":[552,552,552,552,552,552,552,552,552,552,552,552,552,552,552,552,552,552,552,552,552,552,552,552,552,552,552,552,552,552,552,552,552,552,552,552,552,552,552,552,552,552,552,552,552,552,552,552,552,552,552,552,552,552,552,552,552,552,552,552,552,552,552,552,552,552,552,552,552,552,552,552,552,552,552,552,552,552,552,552,552,552,552,552,552,552,552,552,552,552,552,552,552,552,552,552,552,552,552,552,552,552,552,552,552,552,552,552,552,552,552,552,552,552,552,552,552,552,552,552,548,543,533,515,507,495,482,471,448,436,423,407,394,369,357,345,335,328,310,301,296,291,288,287,287,287,287,287,287,287,287,287,284,249,153,95,52,6,6,6,6,6,6,6,6,6,6,6,6,6,6,6,6,6,6,6,6,6,0,1,2,4,5,13,14,16,17,17,18,20,21,22,23,26],"timestamp_mouse":[4,22,41,61,81,101,121,141,161,181,201,221,243,262,282,301,322,342,361,381,402,423,443,461,482,502,521,541,562,582,601,622,642,662,681,702,722,742,762,781,801,823,841,861,883,901,922,942,961,982,1002,1021,1042,1062,1082,1103,1122,1142,1161,1181,1201,1221,1241,1261,1281,1301,1321,1341,1361,1381,1401,1421,1441,1461,1482,1503,1522,1541,1561,1582,1602,1621,1641,1661,1682,1701,1722,1742,1761,1781,1802,1822,1841,1861,1881,1901,1922,1943,1963,1981,2002,2021,2042,2061,2083,2101,2122,2141,2161,2182,2202,2222,2241,2261,2282,2302,2322,2341,2362,2381,2401,2422,2441,2462,2481,2502,2522,2541,2562,2582,2601,2623,2641,2661,2681,2701,2722,2741,2763,2782,2802,2822,2841,2861,2883,2902,2921,2942,2962,2982,3001,3023,3042,3061,3082,3103,3121,3141,3162,3182,3202,3222,3242,3262,3281,3301,3321,3341,3362,3381,3401,3422,3441,3461,3483,3501,3521,3541,3562,3581,3601,3621,3641,3662,3681,3701,3722,3742,3763,3782,3802,3822,3841,3861],"xSR":741.5,"ySR":500.5,"xT1":424.9,"yT1":0,"xT2":1058.1,"yT2":0,"toosoon":0,"cond_shown":"equaldotsize","ratio_trial":250,"smaller_num":"3","larger_num":"12","correct_side":1,"subjID":"dannavalentinaherrera16","gender":"1","age":"9","school":"4","test":{"fix_dur":[250,1500],"timestim":300,"targets_dim":[100,100],"targets_relative_coord":[0.3,0.7],"size_stim":[880,420],"start_dim":[100,100],"size_start":[300,300],"size_fix":60,"samplingrate":20,"img_types":["equaldotsize","equaldotanddens","randomdotsizeEA"],"ratios":[250,500,750,900],"rep_conds":9,"nTrials":120,"trials_to_rest":500,"Trials_order":[96,11,88,18,85,90,42,41,81,53,74,118,9,86,48,105,108,36,67,46,44,33,106,73,79,98,16,119,26,77,38,52,35,102,54,43,28,1,110,80,19,12,95,20,30,7,2,97,29,57,117,31,68,0,23,56,65,71,32,61,84,58,6,104,107,27,89,59,40,14,39,112,70,93,55,116,60,111,78,87,15,37,34,66,62,103,115,8,5,4,17,50,109,3,49,100,22,82,113,75,21,51,94,10,76,24,69,92,91,64,45,83,25,114,13,63,72,47,101,99],"cond_shown":["equaldotsize","randomdotsizeEA","equaldotanddens","equaldotsize","equaldotanddens","equaldotsize","equaldotsize","randomdotsizeEA","equaldotsize","randomdotsizeEA","randomdotsizeEA","equaldotanddens","equaldotsize","randomdotsizeEA","equaldotsize","equaldotsize","equaldotsize","equaldotsize","equaldotanddens","equaldotanddens","randomdotsizeEA","equaldotsize","equaldotanddens","equaldotanddens","equaldotanddens","randomdotsizeEA","equaldotanddens","randomdotsizeEA","randomdotsizeEA","randomdotsizeEA","randomdotsizeEA","equaldotanddens","randomdotsizeEA","equaldotsize","equaldotsize","equaldotanddens","equaldotanddens","equaldotanddens","randomdotsizeEA","randomdotsizeEA","equaldotanddens","equaldotsize","randomdotsizeEA","randomdotsizeEA","equaldotsize","equaldotanddens","randomdotsizeEA","equaldotanddens","randomdotsizeEA","equaldotsize","equaldotsize","equaldotanddens","randomdotsizeEA","equaldotsize","randomdotsizeEA","randomdotsizeEA","randomdotsizeEA","randomdotsizeEA","randomdotsizeEA","equaldotanddens","equaldotsize","equaldotanddens","equaldotsize","randomdotsizeEA","randomdotsizeEA","equaldotsize","randomdotsizeEA","randomdotsizeEA","equaldotanddens","randomdotsizeEA","equaldotsize","equaldotanddens","equaldotanddens","equaldotsize","equaldotanddens","randomdotsizeEA","equaldotsize","equaldotsize","equaldotsize","equaldotsize","equaldotsize","equaldotanddens","equaldotanddens","equaldotsize","randomdotsizeEA","equaldotanddens","equaldotanddens","randomdotsizeEA","randomdotsizeEA","equaldotanddens","randomdotsizeEA","randomdotsizeEA","equaldotanddens","equaldotsize","equaldotanddens","equaldotanddens","equaldotanddens","equaldotanddens","randomdotsizeEA","equaldotsize","equaldotsize","equaldotsize","equaldotanddens","equaldotanddens","equaldotanddens","equaldotsize","equaldotsize","randomdotsizeEA","equaldotanddens","equaldotanddens","equaldotsize","randomdotsizeEA","equaldotanddens","equaldotsize","equaldotanddens","equaldotsize","equaldotsize","randomdotsizeEA","randomdotsizeEA","equaldotsize"],"ratio_trial":[250,900,500,750,250,750,750,500,900,500,250,900,900,250,250,900,250,250,750,900,750,900,900,250,750,250,500,900,250,500,250,500,900,750,750,750,500,250,250,750,750,250,900,750,750,750,250,250,500,900,900,750,750,250,900,750,500,900,750,250,250,900,750,750,900,500,500,900,500,250,500,500,900,900,750,750,250,500,750,500,500,250,900,750,250,750,750,750,500,500,500,250,250,500,250,500,900,900,500,500,900,500,900,900,500,250,900,750,750,500,900,900,250,750,250,500,250,900,500,500],"smaller_num":["3","9","2","3","2","15","6","2","9","1","3","18","18","5","2","18","3","2","12","18","15","18","18","2","3","3","9","18","3","2","3","4","18","9","6","18","2","1","4","3","18","6","18","6","6","15","5","6","4","18","9","9","15","3","18","18","2","18","3","3","3","18","15","3","18","1","5","9","2","3","3","1","18","18","15","15","3","6","6","4","2","3","18","18","3","15","12","18","6","3","9","6","6","5","1","1","18","9","2","2","18","6","9","9","5","6","9","3","18","6","18","18","2","15","3","9","1","9","2","2"],"larger_num":["12","10","4","4","8","20","8","4","10","2","12","20","20","20","8","20","12","8","16","20","20","20","20","8","4","12","18","20","12","4","12","8","20","12","8","24","4","4","16","4","24","24","20","8","8","20","20","24","8","20","10","12","20","12","20","24","4","20","4","12","12","20","20","4","20","2","10","10","4","12","6","2","20","20","20","20","12","12","8","8","4","12","20","24","12","20","16","24","12","6","18","24","24","10","4","2","20","10","4","4","20","12","10","10","10","24","10","4","24","12","20","20","8","20","12","18","4","10","4","4"],"correct_side":[1,1,1,2,2,1,2,1,2,2,2,2,1,2,1,2,2,1,2,1,2,2,1,1,1,2,2,1,2,1,2,1,1,2,2,1,2,2,2,1,1,1,1,1,1,2,2,2,1,2,1,2,2,1,1,1,1,1,1,2,2,1,2,2,1,2,2,1,1,2,2,2,1,1,1,2,1,1,1,1,1,1,1,1,1,1,2,1,1,2,1,2,2,1,2,2,2,1,1,1,1,1,2,2,2,1,2,2,1,1,1,1,2,2,1,1,2,1,2,2],"img_shown":["img/250/equaldotsize/L/15_Ratio_250_L_12_R_3.png","img/900/randomdotsizeEA/L/1_Ratio_900_L_10_R_9.png","img/500/equaldotanddens/L/10_Ratio_500_L_4_R_2.png","img/750/equaldotsize/R/7_Ratio_750_L_3_R_4.png","img/250/equaldotanddens/R/13_Ratio_250_L_2_R_8.png","img/750/equaldotsize/L/1_Ratio_750_L_20_R_15.png","img/750/equaldotsize/R/2_Ratio_750_L_6_R_8.png","img/500/randomdotsizeEA/L/5_Ratio_500_L_4_R_2.png","img/900/equaldotsize/R/15_Ratio_900_L_9_R_10.png","img/500/randomdotsizeEA/R/12_Ratio_500_L_1_R_2.png","img/250/randomdotsizeEA/R/4_Ratio_250_L_3_R_12.png","img/900/equaldotanddens/R/14_Ratio_900_L_18_R_20.png","img/900/equaldotsize/L/2_Ratio_900_L_20_R_18.png","img/250/randomdotsizeEA/R/12_Ratio_250_L_5_R_20.png","img/250/equaldotsize/L/1_Ratio_250_L_8_R_2.png","img/900/equaldotsize/R/14_Ratio_900_L_18_R_20.png","img/250/equaldotsize/R/4_Ratio_250_L_3_R_12.png","img/250/equaldotsize/L/7_Ratio_250_L_8_R_2.png","img/750/equaldotanddens/R/11_Ratio_750_L_12_R_16.png","img/900/equaldotanddens/L/2_Ratio_900_L_20_R_18.png","img/750/randomdotsizeEA/R/3_Ratio_750_L_15_R_20.png","img/900/equaldotsize/R/14_Ratio_900_L_18_R_20.png","img/900/equaldotanddens/L/4_Ratio_900_L_20_R_18.png","img/250/equaldotanddens/L/3_Ratio_250_L_8_R_2.png","img/750/equaldotanddens/L/9_Ratio_750_L_4_R_3.png","img/250/randomdotsizeEA/R/11_Ratio_250_L_3_R_12.png","img/500/equaldotanddens/R/6_Ratio_500_L_9_R_18.png","img/900/randomdotsizeEA/L/2_Ratio_900_L_20_R_18.png","img/250/randomdotsizeEA/R/11_Ratio_250_L_3_R_12.png","img/500/randomdotsizeEA/L/10_Ratio_500_L_4_R_2.png","img/250/randomdotsizeEA/R/11_Ratio_250_L_3_R_12.png","img/500/equaldotanddens/L/8_Ratio_500_L_8_R_4.png","img/900/randomdotsizeEA/L/4_Ratio_900_L_20_R_18.png","img/750/equaldotsize/R/15_Ratio_750_L_9_R_12.png","img/750/equaldotsize/R/2_Ratio_750_L_6_R_8.png","img/750/equaldotanddens/L/6_Ratio_750_L_24_R_18.png","img/500/equaldotanddens/R/9_Ratio_500_L_2_R_4.png","img/250/equaldotanddens/R/8_Ratio_250_L_1_R_4.png","img/250/randomdotsizeEA/R/10_Ratio_250_L_4_R_16.png","img/750/randomdotsizeEA/L/8_Ratio_750_L_4_R_3.png","img/750/equaldotanddens/L/6_Ratio_750_L_24_R_18.png","img/250/equaldotsize/L/5_Ratio_250_L_24_R_6.png","img/900/randomdotsizeEA/L/8_Ratio_900_L_20_R_18.png","img/750/randomdotsizeEA/L/14_Ratio_750_L_8_R_6.png","img/750/equaldotsize/L/13_Ratio_750_L_8_R_6.png","img/750/equaldotanddens/R/5_Ratio_750_L_15_R_20.png","img/250/randomdotsizeEA/R/12_Ratio_250_L_5_R_20.png","img/250/equaldotanddens/R/6_Ratio_250_L_6_R_24.png","img/500/randomdotsizeEA/L/8_Ratio_500_L_8_R_4.png","img/900/equaldotsize/R/9_Ratio_900_L_18_R_20.png","img/900/equaldotsize/L/1_Ratio_900_L_10_R_9.png","img/750/equaldotanddens/R/15_Ratio_750_L_9_R_12.png","img/750/randomdotsizeEA/R/3_Ratio_750_L_15_R_20.png","img/250/equaldotsize/L/15_Ratio_250_L_12_R_3.png","img/900/randomdotsizeEA/L/4_Ratio_900_L_20_R_18.png","img/750/randomdotsizeEA/L/6_Ratio_750_L_24_R_18.png","img/500/randomdotsizeEA/L/5_Ratio_500_L_4_R_2.png","img/900/randomdotsizeEA/L/4_Ratio_900_L_20_R_18.png","img/750/randomdotsizeEA/L/10_Ratio_750_L_4_R_3.png","img/250/equaldotanddens/R/9_Ratio_250_L_3_R_12.png","img/250/equaldotsize/R/9_Ratio_250_L_3_R_12.png","img/900/equaldotanddens/L/8_Ratio_900_L_20_R_18.png","img/750/equaldotsize/R/4_Ratio_750_L_15_R_20.png","img/750/randomdotsizeEA/R/12_Ratio_750_L_3_R_4.png","img/900/randomdotsizeEA/L/4_Ratio_900_L_20_R_18.png","img/500/equaldotsize/R/15_Ratio_500_L_1_R_2.png","img/500/randomdotsizeEA/R/14_Ratio_500_L_5_R_10.png","img/900/randomdotsizeEA/L/1_Ratio_900_L_10_R_9.png","img/500/equaldotanddens/L/10_Ratio_500_L_4_R_2.png","img/250/randomdotsizeEA/R/4_Ratio_250_L_3_R_12.png","img/500/equaldotsize/R/2_Ratio_500_L_3_R_6.png","img/500/equaldotanddens/R/15_Ratio_500_L_1_R_2.png","img/900/equaldotanddens/L/10_Ratio_900_L_20_R_18.png","img/900/equaldotsize/L/4_Ratio_900_L_20_R_18.png","img/750/equaldotanddens/L/1_Ratio_750_L_20_R_15.png","img/750/randomdotsizeEA/R/3_Ratio_750_L_15_R_20.png","img/250/equaldotsize/L/15_Ratio_250_L_12_R_3.png","img/500/equaldotsize/L/13_Ratio_500_L_12_R_6.png","img/750/equaldotsize/L/13_Ratio_750_L_8_R_6.png","img/500/equaldotsize/L/8_Ratio_500_L_8_R_4.png","img/500/equaldotsize/L/5_Ratio_500_L_4_R_2.png","img/250/equaldotanddens/L/15_Ratio_250_L_12_R_3.png","img/900/equaldotanddens/L/2_Ratio_900_L_20_R_18.png","img/750/equaldotsize/L/6_Ratio_750_L_24_R_18.png","img/250/randomdotsizeEA/L/14_Ratio_250_L_12_R_3.png","img/750/equaldotanddens/L/1_Ratio_750_L_20_R_15.png","img/750/equaldotanddens/R/11_Ratio_750_L_12_R_16.png","img/750/randomdotsizeEA/L/6_Ratio_750_L_24_R_18.png","img/500/randomdotsizeEA/L/11_Ratio_500_L_12_R_6.png","img/500/equaldotanddens/R/2_Ratio_500_L_3_R_6.png","img/500/randomdotsizeEA/L/4_Ratio_500_L_18_R_9.png","img/250/randomdotsizeEA/R/6_Ratio_250_L_6_R_24.png","img/250/equaldotanddens/R/6_Ratio_250_L_6_R_24.png","img/500/equaldotsize/L/7_Ratio_500_L_10_R_5.png","img/250/equaldotanddens/R/8_Ratio_250_L_1_R_4.png","img/500/equaldotanddens/R/12_Ratio_500_L_1_R_2.png","img/900/equaldotanddens/R/14_Ratio_900_L_18_R_20.png","img/900/equaldotanddens/L/1_Ratio_900_L_10_R_9.png","img/500/randomdotsizeEA/L/10_Ratio_500_L_4_R_2.png","img/500/equaldotsize/L/10_Ratio_500_L_4_R_2.png","img/900/equaldotsize/L/8_Ratio_900_L_20_R_18.png","img/500/equaldotsize/L/11_Ratio_500_L_12_R_6.png","img/900/equaldotanddens/R/15_Ratio_900_L_9_R_10.png","img/900/equaldotanddens/R/7_Ratio_900_L_9_R_10.png","img/500/equaldotanddens/R/14_Ratio_500_L_5_R_10.png","img/250/equaldotsize/L/5_Ratio_250_L_24_R_6.png","img/900/equaldotsize/R/15_Ratio_900_L_9_R_10.png","img/750/randomdotsizeEA/R/12_Ratio_750_L_3_R_4.png","img/750/equaldotanddens/L/6_Ratio_750_L_24_R_18.png","img/500/equaldotanddens/L/11_Ratio_500_L_12_R_6.png","img/900/equaldotsize/L/4_Ratio_900_L_20_R_18.png","img/900/randomdotsizeEA/L/8_Ratio_900_L_20_R_18.png","img/250/equaldotanddens/R/13_Ratio_250_L_2_R_8.png","img/750/equaldotsize/R/3_Ratio_750_L_15_R_20.png","img/250/equaldotanddens/L/14_Ratio_250_L_12_R_3.png","img/500/equaldotsize/L/4_Ratio_500_L_18_R_9.png","img/250/equaldotsize/R/8_Ratio_250_L_1_R_4.png","img/900/randomdotsizeEA/L/1_Ratio_900_L_10_R_9.png","img/500/randomdotsizeEA/R/9_Ratio_500_L_2_R_4.png","img/500/equaldotsize/R/9_Ratio_500_L_2_R_4.png"],"Rat0":[["12_Ratio_0_L_9_R_0.png","13_Ratio_0_L_6_R_0.png","5_Ratio_0_L_2_R_0.png","6_Ratio_0_L_4_R_0.png","8_Ratio_0_L_6_R_0.png"],["1_Ratio_0_L_0_R_17.png","10_Ratio_0_L_0_R_22.png","11_Ratio_0_L_0_R_1.png","14_Ratio_0_L_0_R_24.png","15_Ratio_0_L_0_R_4.png","2_Ratio_0_L_0_R_5.png","3_Ratio_0_L_0_R_17.png","4_Ratio_0_L_0_R_7.png","7_Ratio_0_L_0_R_19.png","9_Ratio_0_L_0_R_15.png"]],"Rat250":[["1_Ratio_250_L_8_R_2.png","14_Ratio_250_L_12_R_3.png","15_Ratio_250_L_12_R_3.png","2_Ratio_250_L_16_R_4.png","3_Ratio_250_L_8_R_2.png","5_Ratio_250_L_24_R_6.png","7_Ratio_250_L_8_R_2.png"],["10_Ratio_250_L_4_R_16.png","11_Ratio_250_L_3_R_12.png","12_Ratio_250_L_5_R_20.png","13_Ratio_250_L_2_R_8.png","4_Ratio_250_L_3_R_12.png","6_Ratio_250_L_6_R_24.png","8_Ratio_250_L_1_R_4.png","9_Ratio_250_L_3_R_12.png"]],"Rat500":[["10_Ratio_500_L_4_R_2.png","11_Ratio_500_L_12_R_6.png","13_Ratio_500_L_12_R_6.png","4_Ratio_500_L_18_R_9.png","5_Ratio_500_L_4_R_2.png","7_Ratio_500_L_10_R_5.png","8_Ratio_500_L_8_R_4.png"],["1_Ratio_500_L_9_R_18.png","12_Ratio_500_L_1_R_2.png","14_Ratio_500_L_5_R_10.png","15_Ratio_500_L_1_R_2.png","2_Ratio_500_L_3_R_6.png","3_Ratio_500_L_10_R_20.png","6_Ratio_500_L_9_R_18.png","9_Ratio_500_L_2_R_4.png"]],"Rat750":[["1_Ratio_750_L_20_R_15.png","10_Ratio_750_L_4_R_3.png","13_Ratio_750_L_8_R_6.png","14_Ratio_750_L_8_R_6.png","6_Ratio_750_L_24_R_18.png","8_Ratio_750_L_4_R_3.png","9_Ratio_750_L_4_R_3.png"],["11_Ratio_750_L_12_R_16.png","12_Ratio_750_L_3_R_4.png","15_Ratio_750_L_9_R_12.png","2_Ratio_750_L_6_R_8.png","3_Ratio_750_L_15_R_20.png","4_Ratio_750_L_15_R_20.png","5_Ratio_750_L_15_R_20.png","7_Ratio_750_L_3_R_4.png"]],"Rat900":[["1_Ratio_900_L_10_R_9.png","10_Ratio_900_L_20_R_18.png","2_Ratio_900_L_20_R_18.png","4_Ratio_900_L_20_R_18.png","8_Ratio_900_L_20_R_18.png"],["11_Ratio_900_L_18_R_20.png","12_Ratio_900_L_18_R_20.png","13_Ratio_900_L_18_R_20.png","14_Ratio_900_L_18_R_20.png","15_Ratio_900_L_9_R_10.png","3_Ratio_900_L_9_R_10.png","5_Ratio_900_L_9_R_10.png","6_Ratio_900_L_9_R_10.png","7_Ratio_900_L_9_R_10.png","9_Ratio_900_L_18_R_20.png"]],"Rat1000":[["10_Ratio_1000_L_16_R_16.png","11_Ratio_1000_L_6_R_6.png","12_Ratio_1000_L_14_R_14.png","13_Ratio_1000_L_20_R_20.png","15_Ratio_1000_L_15_R_15.png","2_Ratio_1000_L_17_R_17.png","4_Ratio_1000_L_9_R_9.png","5_Ratio_1000_L_6_R_6.png","6_Ratio_1000_L_19_R_19.png","8_Ratio_1000_L_14_R_14.png","9_Ratio_1000_L_25_R_25.png"],["1_Ratio_1000_L_1_R_1.png","14_Ratio_1000_L_17_R_17.png","3_Ratio_1000_L_17_R_17.png","7_Ratio_1000_L_6_R_6.png"]]}},{"start_time":1552309763266,"click_time":1552309766819,"finger_time":1552309764361,"fix_duration":984.757053167396,"trial":1,"RT":1095,"MT":2458,"sideResp":1,"stimulus":"img/900/randomdotsizeEA/L/1_Ratio_900_L_10_R_9.png","xmouse":[797,797,797,797,797,797,797,797,797,797,797,797,797,797,797,797,797,797,797,797,797,797,797,797,797,797,797,797,797,797,797,797,797,797,797,797,797,797,797,797,797,797,797,797,797,797,797,797,797,797,797,797,797,799,804,806,806,807,807,807,807,807,807,808,816,826,835,855,864,873,878,883,896,919,936,965,997,1043,1061,1067,1069,1070,1070,1070,1070,1070,1070,1070,1070,1070,1070,1070,1059,1037,1029,1028,1028,1028,1028,1028,1028,1028,1028,1042,1056,1066,1073,1088,1093,1096,1097,1097,1097,1097,1097,1097,1097,1098,1099,1099,1099,1099,1099,1099,1099,1099,1099,1099,1099,1099,1099,1099,1099,1099,1099,1099,1099,1099,1099,1099,1099,1089,1071,1060,1052,1043,1011,982,938,881,819,757,680,662,646,634,620,599,599,599,599,599,599,599,599,599,599,599,599,599,599,599,599,599,543,537,532,522],"ymouse":[490,490,490,490,490,490,490,490,490,490,490,490,490,490,490,490,490,490,490,490,490,490,490,490,490,490,490,490,490,490,490,490,490,490,490,490,490,490,490,490,490,490,490,490,490,490,490,490,490,490,490,490,490,482,459,445,438,436,436,436,436,436,436,430,419,406,397,377,368,361,356,352,341,327,318,306,293,273,265,263,262,261,261,261,261,261,261,261,261,261,261,261,238,214,206,205,205,205,205,205,205,205,205,205,203,201,196,183,177,173,172,172,172,172,172,172,170,153,145,143,143,143,143,143,143,143,143,143,143,143,143,143,143,143,143,143,143,143,143,143,140,127,111,103,98,94,85,78,65,49,32,15,2,0,0,0,0,0,0,0,0,0,0,0,0,0,0,0,0,0,0,0,0,0,1,7,14,22],"timestamp_mouse":[14,34,53,73,93,115,133,153,174,193,215,234,253,273,293,314,334,354,374,393,413,433,453,474,495,513,533,553,573,593,613,633,653,673,693,714,733,753,773,793,813,833,853,873,893,913,933,953,974,995,1013,1034,1053,1073,1095,1113,1134,1153,1173,1193,1214,1235,1255,1274,1294,1313,1334,1354,1375,1393,1414,1433,1453,1475,1494,1513,1534,1554,1573,1594,1613,1633,1655,1673,1694,1714,1733,1753,1773,1795,1813,1834,1853,1874,1893,1914,1933,1953,1973,1994,2014,2034,2053,2073,2095,2113,2134,2153,2174,2193,2213,2235,2255,2273,2294,2313,2334,2354,2374,2393,2413,2433,2453,2473,2494,2513,2533,2553,2574,2594,2615,2634,2653,2674,2693,2713,2734,2754,2774,2794,2813,2835,2854,2873,2894,2914,2934,2953,2974,2994,3014,3033,3053,3073,3094,3115,3134,3154,3175,3194,3213,3233,3255,3274,3293,3313,3334,3354,3374,3395,3414,3433,3453,3473,3494,3513,3534,3553],"xSR":741.5,"ySR":469.95,"xT1":424.9,"yT1":0,"xT2":1058.1,"yT2":0,"toosoon":0,"cond_shown":"randomdotsizeEA","ratio_trial":900,"smaller_num":"9","larger_num":"10","correct_side":1,"subjID":"dannavalentinaherrera16","gender":"1","age":"9","school":"4"},{"start_time":1552309776183,"click_time":1552309777619,"finger_time":1552309777020,"fix_duration":1463.0567784914479,"trial":2,"RT":837,"MT":599,"sideResp":1,"stimulus":"img/500/equaldotanddens/L/10_Ratio_500_L_4_R_2.png","xmouse":[790,790,790,790,790,790,790,790,790,790,790,790,790,790,790,790,790,790,790,790,790,790,790,790,790,790,790,790,790,790,790,790,790,790,790,790,790,790,790,792,797,819,830,838,838,838,838,838,838,838,838,819,799,789,768,729,698,676,656,638,624,617,613,607,598,590,569,555,546,539,529,512],"ymouse":[533,533,533,533,533,533,533,533,533,533,533,533,533,533,533,533,533,533,533,533,533,533,533,533,533,533,533,533,533,533,533,533,533,533,533,533,533,532,528,522,509,465,441,418,414,408,405,405,405,404,392,347,312,299,268,203,165,147,137,131,128,127,126,122,117,111,97,90,89,87,85,82],"timestamp_mouse":[16,38,57,77,96,117,138,157,177,198,216,237,256,276,297,317,337,358,376,397,416,437,457,477,497,517,537,558,576,596,616,636,658,677,696,716,736,757,777,796,816,837,856,877,898,917,936,956,977,996,1016,1036,1057,1078,1097,1117,1136,1157,1178,1196,1217,1237,1256,1276,1296,1316,1337,1356,1377,1396,1416,1436],"xSR":741.5,"ySR":469.95,"xT1":424.9,"yT1":0,"xT2":1058.1,"yT2":0,"toosoon":0,"cond_shown":"equaldotanddens","ratio_trial":500,"smaller_num":"2","larger_num":"4","correct_side":1,"subjID":"dannavalentinaherrera16","gender":"1","age":"9","school":"4"},{"start_time":1552309784693,"click_time":1552309785941,"finger_time":1552309785479,"fix_duration":312.30249555101574,"trial":3,"RT":786,"MT":462,"sideResp":2,"stimulus":"img/750/equaldotsize/R/7_Ratio_750_L_3_R_4.png","xmouse":[818,818,818,818,818,818,818,818,818,818,818,818,818,818,818,818,818,818,818,818,818,818,818,818,818,818,818,818,818,818,818,818,818,818,818,818,818,822,834,851,867,901,941,974,1014,1055,1126,1151,1176,1199,1219,1243,1251,1251,1251,1251,1251,1249,1244,1231,1211,1163,1129],"ymouse":[516,516,516,516,516,516,516,516,516,516,516,516,516,516,516,516,516,516,516,516,516,516,516,516,516,516,516,516,516,516,516,516,516,516,516,516,516,512,495,472,449,397,352,320,290,261,208,182,155,128,105,73,56,56,56,54,54,52,52,50,47,40,35],"timestamp_mouse":[8,26,46,66,87,107,127,146,166,186,206,228,247,267,287,307,326,346,366,388,406,427,447,468,487,508,527,546,566,587,606,628,646,666,686,707,727,748,767,786,808,827,847,867,887,906,926,947,967,987,1007,1028,1048,1066,1086,1107,1127,1146,1167,1188,1207,1226,1248],"xSR":741.5,"ySR":469.95,"xT1":424.9,"yT1":0,"xT2":1058.1,"yT2":0,"toosoon":0,"cond_shown":"equaldotsize","ratio_trial":750,"smaller_num":"3","larger_num":"4","correct_side":2,"subjID":"dannavalentinaherrera16","gender":"1","age":"9","school":"4"},{"start_time":1552309788859,"click_time":1552309790019,"finger_time":1552309789659,"fix_duration":1397.1345896908322,"trial":4,"RT":800,"MT":360,"sideResp":2,"stimulus":"img/250/equaldotanddens/R/13_Ratio_250_L_2_R_8.png","xmouse":[785,785,785,785,785,785,785,785,785,785,785,785,785,785,785,785,785,785,785,785,785,785,785,785,785,785,785,785,785,785,785,785,785,785,785,785,785,785,795,810,833,865,897,962,983,1003,1019,1031,1047,1052,1057,1060,1064,1070,1071,1071,1073,1074,1079],"ymouse":[500,500,500,500,500,500,500,500,500,500,500,500,500,500,500,500,500,500,500,500,500,500,500,500,500,500,500,500,500,500,500,500,500,500,500,500,500,500,491,471,441,397,348,256,228,200,179,161,138,132,125,119,114,106,105,104,102,101,96],"timestamp_mouse":[3,20,42,60,81,100,120,141,160,181,200,220,241,260,281,300,321,342,360,381,401,420,440,460,481,500,520,540,560,580,601,622,641,660,681,700,720,740,760,781,800,822,840,860,881,901,921,942,961,980,1000,1021,1040,1060,1080,1101,1120,1141,1160],"xSR":741.5,"ySR":469.95,"xT1":424.9,"yT1":0,"xT2":1058.1,"yT2":0,"toosoon":0,"cond_shown":"equaldotanddens","ratio_trial":250,"smaller_num":"2","larger_num":"8","correct_side":2,"subjID":"dannavalentinaherrera16","gender":"1","age":"9","school":"4"},{"start_time":1552309792863,"click_time":1552309794039,"finger_time":1552309793601,"fix_duration":1403.2985337027847,"trial":5,"RT":738,"MT":438,"sideResp":1,"stimulus":"img/750/equaldotsize/L/1_Ratio_750_L_20_R_15.png","xmouse":[782,782,782,782,782,782,782,782,782,782,782,782,782,782,782,782,782,782,782,782,782,782,782,782,782,782,782,782,782,782,782,782,782,782,782,782,779,776,774,773,773,771,762,748,735,716,700,665,650,637,626,617,598,591,586,575,561,527,514],"ymouse":[512,512,512,512,512,512,512,512,512,512,512,512,512,512,512,512,512,512,512,512,512,512,512,512,512,512,512,512,512,512,512,512,512,509,489,474,454,425,416,407,399,385,346,302,274,243,218,176,160,149,141,135,126,122,119,115,109,99,94],"timestamp_mouse":[17,37,57,77,98,116,137,158,176,197,218,236,256,277,296,316,337,357,378,396,417,437,458,478,497,517,537,558,577,597,617,636,656,676,697,717,738,756,777,797,817,837,857,877,896,917,938,957,977,996,1017,1037,1058,1076,1097,1116,1137,1158,1176],"xSR":741.5,"ySR":469.95,"xT1":424.9,"yT1":0,"xT2":1058.1,"yT2":0,"toosoon":0,"cond_shown":"equaldotsize","ratio_trial":750,"smaller_num":"15","larger_num":"20","correct_side":1,"subjID":"dannavalentinaherrera16","gender":"1","age":"9","school":"4"},{"start_time":1552309798430,"click_time":1552309799519,"finger_time":1552309799101,"fix_duration":510.24490648594025,"trial":6,"RT":671,"MT":418,"sideResp":2,"stimulus":"img/750/equaldotsize/R/2_Ratio_750_L_6_R_8.png","xmouse":[777,777,777,777,777,777,777,777,777,777,777,777,777,777,777,777,777,777,777,777,777,777,777,777,777,777,777,777,777,777,779,781,786,804,818,826,836,844,852,865,872,882,892,903,930,952,965,975,979,987,1002,1016,1029,1040,1062],"ymouse":[516,516,516,516,516,516,516,516,516,516,516,516,516,516,516,516,516,516,516,516,516,516,516,516,516,516,516,516,516,516,514,504,485,434,394,369,346,326,309,278,264,247,228,211,177,162,150,141,136,125,109,91,74,58,26],"timestamp_mouse":[9,30,49,70,91,109,129,150,170,189,209,231,251,269,290,310,331,351,370,389,410,431,451,469,491,510,531,550,570,589,609,631,651,671,689,710,730,751,770,790,810,829,850,870,890,910,930,949,970,991,1011,1031,1051,1069,1089],"xSR":741.5,"ySR":469.95,"xT1":424.9,"yT1":0,"xT2":1058.1,"yT2":0,"toosoon":0,"cond_shown":"equaldotsize","ratio_trial":750,"smaller_num":"6","larger_num":"8","correct_side":2,"subjID":"dannavalentinaherrera16","gender":"1","age":"9","school":"4"},{"start_time":1552309806144,"click_time":1552309807900,"finger_time":1552309807060,"fix_duration":383.4410435990835,"trial":7,"RT":916,"MT":840,"sideResp":1,"stimulus":"img/500/randomdotsizeEA/L/5_Ratio_500_L_4_R_2.png","xmouse":[791,791,791,791,791,791,791,791,791,791,791,791,791,791,791,791,791,791,791,791,791,791,791,791,791,791,791,791,791,791,791,791,791,791,791,791,791,791,791,791,791,791,800,812,827,846,867,876,905,910,910,910,910,910,902,894,878,853,822,801,771,738,700,631,602,584,570,558,538,532,531,531,531,531,531,531,531,531,531,531,531,531,531,531,531,528,517,499],"ymouse":[550,550,550,550,550,550,550,550,550,550,550,550,550,550,550,550,550,550,550,550,550,550,550,550,550,550,550,550,550,550,550,550,550,550,550,550,550,550,550,550,550,550,537,519,493,459,418,401,321,302,290,286,285,285,285,285,284,281,269,262,253,244,235,215,204,195,186,178,158,149,147,147,147,147,147,147,147,147,147,147,147,147,147,147,147,143,130,99],"timestamp_mouse":[19,36,55,75,96,117,135,155,176,196,216,236,256,275,297,316,337,356,376,395,415,436,456,477,496,515,537,555,575,596,617,636,657,675,696,716,737,755,775,796,817,837,857,875,896,916,936,955,975,996,1016,1035,1055,1075,1096,1116,1135,1156,1175,1196,1216,1236,1256,1276,1296,1315,1336,1357,1377,1396,1416,1435,1457,1477,1496,1517,1537,1556,1576,1596,1617,1636,1656,1676,1697,1716,1735,1756],"xSR":741.5,"ySR":469.95,"xT1":424.9,"yT1":0,"xT2":1058.1,"yT2":0,"toosoon":0,"cond_shown":"randomdotsizeEA","ratio_trial":500,"smaller_num":"2","larger_num":"4","correct_side":1,"subjID":"dannavalentinaherrera16","gender":"1","age":"9","school":"4"},{"start_time":1552309811833,"click_time":1552309813420,"finger_time":1552309812699,"fix_duration":872.7232680831896,"trial":8,"RT":866,"MT":721,"sideResp":2,"stimulus":"img/900/equaldotsize/R/15_Ratio_900_L_9_R_10.png","xmouse":[775,775,775,775,775,775,775,775,775,775,775,775,775,775,775,775,775,775,775,775,773,773,773,773,773,773,773,773,773,773,773,773,773,773,773,773,773,773,773,773,773,774,778,783,799,812,820,832,838,894,923,953,995,995,995,995,995,995,995,995,995,995,995,995,995,995,995,995,995,995,995,995,995,995,995,995,995,995,995,1100],"ymouse":[481,481,481,481,481,481,481,481,481,481,481,481,481,481,481,481,481,481,481,481,479,479,479,478,478,478,478,478,478,478,478,478,478,478,478,478,478,478,478,478,478,476,471,468,449,429,415,395,382,274,197,129,24,24,24,24,24,24,24,24,24,24,24,24,24,24,24,24,24,24,24,24,24,24,24,24,24,24,24,3],"timestamp_mouse":[6,26,47,67,87,106,128,148,166,187,208,227,246,267,287,307,327,347,366,388,408,427,447,468,488,507,527,548,568,586,606,628,648,666,686,706,727,748,768,787,808,827,846,866,886,907,927,947,968,987,1008,1027,1047,1067,1087,1108,1128,1148,1167,1187,1207,1227,1248,1267,1287,1307,1327,1348,1368,1386,1407,1427,1447,1467,1487,1507,1528,1547,1567,1587],"xSR":741.5,"ySR":469.95,"xT1":424.9,"yT1":0,"xT2":1058.1,"yT2":0,"toosoon":0,"cond_shown":"equaldotsize","ratio_trial":900,"smaller_num":"9","larger_num":"10","correct_side":2,"subjID":"dannavalentinaherrera16","gender":"1","age":"9","school":"4"},{"start_time":1552309815643,"click_time":1552309819840,"finger_time":1552309816121,"fix_duration":1002.5068503804977,"trial":9,"RT":478,"MT":3719,"sideResp":2,"stimulus":"img/500/randomdotsizeEA/R/12_Ratio_500_L_1_R_2.png","xmouse":[802,802,802,802,802,802,802,802,802,802,802,802,802,802,802,802,802,802,802,802,805,807,809,811,812,812,812,812,812,812,812,812,812,812,812,812,812,812,812,812,812,812,812,812,812,812,812,812,812,812,812,812,812,812,812,812,812,812,812,812,812,812,812,812,812,812,812,812,812,812,812,812,812,812,812,812,812,812,812,812,818,824,829,835,835,837,838,839,844,850,858,867,885,899,910,920,923,930,935,938,940,943,944,948,954,959,968,976,988,990,991,991,991,991,991,991,991,993,1001,1007,1012,1022,1030,1036,1040,1041,1042,1042,1042,1042,1043,1044,1045,1052,1058,1063,1067,1071,1074,1074,1074,1074,1074,1074,1074,1075,1076,1076,1077,1079,1081,1082,1084,1086,1086,1087,1087,1090,1093,1094,1096,1100,1105,1110,1111,1111,1111,1111,1111,1111,1111,1111,1111,1111,1111,1111,1111,1111,1111,1111,1111,1111,1111,1111,1111,1111,1111,1111,1111,1111,1111,1111,1111,1111,1111,1111,1111,1111,1111,1111,1111,1111,1111,1111,1111,1111,1111,1112,1114,1117],"ymouse":[492,492,492,492,492,492,492,492,492,492,492,492,492,492,492,492,492,492,492,492,485,479,472,460,460,460,460,460,460,460,460,460,460,460,460,460,460,460,460,460,460,460,460,460,460,460,460,460,460,460,460,460,460,460,460,460,460,460,460,460,460,460,460,460,460,460,460,460,460,460,460,460,460,460,460,460,460,460,460,453,444,434,427,420,418,417,417,415,409,403,397,391,381,374,367,362,360,354,352,350,349,348,347,344,339,335,328,322,313,311,311,311,311,311,311,311,311,308,299,292,286,276,261,249,244,242,242,241,239,238,237,235,230,204,188,168,154,140,123,122,122,122,122,122,122,121,121,121,121,121,121,120,119,119,119,119,119,118,117,116,114,111,108,105,104,104,104,104,104,104,104,104,104,104,104,104,104,104,104,104,104,104,104,104,104,104,104,104,104,104,104,104,104,104,104,104,104,104,104,104,104,104,104,104,104,104,104,103,101,99],"timestamp_mouse":[16,38,56,78,98,116,137,158,178,198,217,237,257,278,296,317,338,357,378,397,417,437,456,478,498,518,538,557,576,598,617,637,658,678,697,718,736,757,778,797,817,837,856,877,898,917,937,959,976,997,1018,1038,1058,1078,1096,1118,1138,1158,1178,1197,1217,1237,1257,1277,1296,1316,1338,1357,1378,1397,1417,1437,1458,1476,1498,1518,1537,1557,1577,1597,1617,1637,1656,1676,1696,1717,1737,1758,1778,1797,1818,1836,1858,1877,1898,1917,1938,1957,1976,1997,2017,2037,2057,2077,2097,2117,2137,2157,2178,2198,2217,2237,2257,2277,2296,2317,2337,2356,2376,2398,2418,2437,2456,2476,2498,2518,2537,2557,2577,2598,2618,2636,2657,2676,2698,2717,2738,2758,2777,2796,2817,2837,2856,2877,2896,2917,2938,2956,2976,2998,3017,3038,3057,3077,3097,3117,3137,3158,3176,3197,3217,3237,3257,3277,3296,3317,3337,3357,3376,3397,3418,3437,3457,3477,3496,3517,3537,3558,3577,3598,3616,3637,3659,3676,3697,3717,3737,3756,3777,3797,3818,3837,3857,3877,3898,3917,3937,3958,3978,3997,4017,4038,4057,4078,4097,4117,4136,4158,4178,4197],"xSR":741.5,"ySR":469.95,"xT1":424.9,"yT1":0,"xT2":1058.1,"yT2":0,"toosoon":0,"cond_shown":"randomdotsizeEA","ratio_trial":500,"smaller_num":"1","larger_num":"2","correct_side":2,"subjID":"dannavalentinaherrera16","gender":"1","age":"9","school":"4"},{"start_time":1552309823541,"click_time":1552309824741,"finger_time":1552309824339,"fix_duration":459.1208498967425,"trial":10,"RT":798,"MT":402,"sideResp":2,"stimulus":"img/250/randomdotsizeEA/R/4_Ratio_250_L_3_R_12.png","xmouse":[795,795,795,795,795,795,795,795,795,795,795,795,795,795,795,795,795,795,795,795,795,795,795,795,795,795,795,795,795,795,795,795,795,795,795,795,795,795,795,846,920,975,1013,1053,1070,1078,1081,1082,1082,1081,1081,1079,1079,1079,1078,1078,1078,1080,1103,1135],"ymouse":[489,489,489,489,489,489,489,489,489,489,489,489,489,489,489,489,489,489,489,489,489,489,489,489,489,489,489,489,489,489,489,489,489,489,489,489,489,489,489,478,456,428,395,328,287,266,244,225,209,209,208,208,208,208,207,203,193,174,106,20],"timestamp_mouse":[18,39,58,80,98,120,139,160,179,200,220,239,259,279,299,319,339,359,379,399,420,439,460,480,498,520,540,559,580,599,620,639,660,679,698,719,739,760,780,798,819,838,858,879,900,919,939,959,979,999,1018,1039,1059,1079,1100,1119,1140,1159,1179,1200],"xSR":741.5,"ySR":469.95,"xT1":424.9,"yT1":0,"xT2":1058.1,"yT2":0,"toosoon":0,"cond_shown":"randomdotsizeEA","ratio_trial":250,"smaller_num":"3","larger_num":"12","correct_side":2,"subjID":"dannavalentinaherrera16","gender":"1","age":"9","school":"4"},{"start_time":1552309827542,"click_time":1552309829301,"finger_time":1552309828421,"fix_duration":1041.229600831791,"trial":11,"RT":879,"MT":880,"sideResp":2,"stimulus":"img/900/equaldotanddens/R/14_Ratio_900_L_18_R_20.png","xmouse":[781,781,781,781,781,781,781,781,781,781,781,781,781,781,781,781,781,781,781,781,781,781,781,781,781,781,781,781,781,781,780,780,780,780,779,779,779,779,779,779,779,780,784,799,812,825,842,860,890,899,902,904,905,906,907,907,908,909,917,923,929,937,946,967,977,987,996,1007,1010,1012,1012,1013,1013,1015,1018,1023,1030,1041,1046,1049,1049,1049,1049,1049,1049,1049,1053,1064],"ymouse":[535,535,535,535,535,535,535,535,535,535,535,535,535,535,535,535,535,535,535,535,535,535,535,535,535,535,535,535,535,535,533,529,521,505,502,500,500,500,500,500,498,494,485,458,438,421,401,382,349,335,327,325,320,313,309,304,297,289,264,250,240,225,211,179,164,151,137,117,109,106,104,103,103,100,98,95,90,82,77,76,75,75,75,75,75,75,75,75],"timestamp_mouse":[19,38,58,79,97,119,138,159,178,198,218,238,259,279,298,319,338,358,379,397,418,439,459,479,497,518,539,557,578,598,619,638,657,679,699,717,738,759,779,798,818,839,859,879,897,918,938,958,978,998,1017,1038,1059,1079,1099,1118,1138,1157,1177,1199,1219,1239,1259,1278,1298,1318,1338,1359,1377,1398,1418,1437,1459,1478,1497,1518,1539,1559,1577,1598,1618,1639,1658,1679,1697,1718,1739,1759],"xSR":741.5,"ySR":469.95,"xT1":424.9,"yT1":0,"xT2":1058.1,"yT2":0,"toosoon":0,"cond_shown":"equaldotanddens","ratio_trial":900,"smaller_num":"18","larger_num":"20","correct_side":2,"subjID":"dannavalentinaherrera16","gender":"1","age":"9","school":"4"},{"start_time":1552309848756,"click_time":1552309850461,"finger_time":1552309849601,"fix_duration":1375.1517683517252,"trial":12,"RT":845,"MT":860,"sideResp":1,"stimulus":"img/900/equaldotsize/L/2_Ratio_900_L_20_R_18.png","xmouse":[773,773,773,773,773,773,773,773,773,773,773,773,773,773,773,773,773,773,773,773,773,773,773,773,773,773,773,773,773,773,773,773,773,773,773,773,773,773,773,773,773,773,776,830,855,855,875,894,894,894,894,894,894,894,896,898,903,911,940,957,961,961,961,959,933,916,916,898,859,815,783,773,755,727,713,712,697,667,667,667,667,667,667,667,667,480],"ymouse":[513,513,513,513,513,513,513,513,513,513,513,513,513,513,513,513,513,513,513,513,513,513,513,513,513,513,513,513,513,513,513,513,513,513,513,513,513,513,513,513,513,492,465,319,265,264,212,154,153,153,153,153,153,153,152,152,150,146,137,133,132,132,132,132,131,130,130,130,125,112,100,94,76,43,26,26,14,1,1,1,1,1,1,1,1,4],"timestamp_mouse":[3,23,44,64,84,104,124,144,163,184,204,225,245,264,284,304,324,344,363,384,404,424,443,463,485,504,523,543,564,584,604,624,645,664,683,705,724,745,763,783,803,825,845,864,884,903,925,945,964,984,1004,1025,1045,1065,1084,1104,1125,1144,1164,1184,1204,1225,1245,1263,1283,1304,1324,1343,1363,1385,1405,1423,1444,1464,1484,1505,1523,1543,1564,1584,1605,1625,1644,1664,1683,1705],"xSR":741.5,"ySR":469.95,"xT1":424.9,"yT1":0,"xT2":1058.1,"yT2":0,"toosoon":0,"cond_shown":"equaldotsize","ratio_trial":900,"smaller_num":"18","larger_num":"20","correct_side":1,"subjID":"dannavalentinaherrera16","gender":"1","age":"9","school":"4"},{"start_time":1552309852681,"click_time":1552309854020,"finger_time":1552309853501,"fix_duration":519.3988706200838,"trial":13,"RT":820,"MT":519,"sideResp":2,"stimulus":"img/250/randomdotsizeEA/R/12_Ratio_250_L_5_R_20.png","xmouse":[759,759,759,759,759,759,759,759,759,759,759,759,759,759,759,759,759,759,759,759,759,759,759,759,759,759,759,759,759,759,759,759,762,772,783,795,799,809,814,814,821,828,847,847,847,847,848,881,903,911,911,912,919,921,924,926,927,941,947,951,955,959,970,983,995,1008,1029,1059],"ymouse":[512,512,512,512,512,512,512,512,512,512,512,512,512,512,512,512,512,512,512,512,512,512,512,512,512,512,512,512,512,512,512,512,510,505,501,494,491,483,478,478,471,464,435,435,435,435,434,417,409,403,403,399,379,350,343,334,330,300,287,276,266,258,241,223,208,189,157,97],"timestamp_mouse":[0,19,38,58,79,99,118,139,160,179,200,220,238,258,280,299,319,338,359,380,400,420,439,460,480,498,518,539,559,580,600,620,640,660,678,699,719,739,760,778,800,820,839,860,878,898,920,939,960,979,999,1019,1038,1059,1079,1099,1120,1139,1159,1179,1198,1220,1239,1259,1279,1300,1319,1338],"xSR":741.5,"ySR":469.95,"xT1":424.9,"yT1":0,"xT2":1058.1,"yT2":0,"toosoon":0,"cond_shown":"randomdotsizeEA","ratio_trial":250,"smaller_num":"5","larger_num":"20","correct_side":2,"subjID":"dannavalentinaherrera16","gender":"1","age":"9","school":"4"},{"start_time":1552309856895,"click_time":1552309858281,"finger_time":1552309857501,"fix_duration":1492.4151240595725,"trial":14,"RT":606,"MT":780,"sideResp":1,"stimulus":"img/250/equaldotsize/L/1_Ratio_250_L_8_R_2.png","xmouse":[786,786,786,786,786,786,786,786,786,786,786,786,786,786,786,786,786,786,786,786,786,786,786,786,786,786,786,786,786,786,784,782,777,775,775,773,760,756,755,752,751,747,745,742,737,733,720,720,711,705,705,705,703,698,685,671,650,640,629,611,593,565,553,546,537,533,527,526,525,524],"ymouse":[494,494,494,494,494,494,494,494,494,494,494,494,494,494,494,494,494,494,494,494,494,494,494,494,494,494,494,494,494,484,457,426,414,412,412,406,386,381,378,374,372,369,367,364,359,355,344,344,329,316,316,316,315,313,307,303,291,282,268,237,201,146,117,100,85,79,74,73,73,72],"timestamp_mouse":[9,25,47,65,86,105,125,145,165,186,205,225,246,266,285,305,326,346,365,385,406,426,445,465,486,506,525,547,565,585,606,625,645,665,685,705,725,746,765,785,806,825,845,866,885,905,925,945,965,985,1006,1026,1047,1066,1086,1106,1126,1145,1166,1186,1205,1225,1246,1265,1286,1306,1325,1346,1365,1386],"xSR":741.5,"ySR":469.95,"xT1":424.9,"yT1":0,"xT2":1058.1,"yT2":0,"toosoon":0,"cond_shown":"equaldotsize","ratio_trial":250,"smaller_num":"2","larger_num":"8","correct_side":1,"subjID":"dannavalentinaherrera16","gender":"1","age":"9","school":"4"},{"start_time":1552309860432,"click_time":1552309861741,"finger_time":1552309861222,"fix_duration":631.5822251037508,"trial":15,"RT":790,"MT":519,"sideResp":2,"stimulus":"img/900/equaldotsize/R/14_Ratio_900_L_18_R_20.png","xmouse":[816,816,816,816,816,816,816,816,816,816,816,816,816,816,816,816,816,816,816,816,816,816,816,816,816,816,816,816,816,816,816,816,816,816,816,816,823,828,833,856,858,858,874,885,903,909,912,917,923,927,929,932,936,937,946,957,965,973,980,1049,1083,1102,1108,1125,1134,1139],"ymouse":[513,513,513,513,513,513,513,513,513,513,513,513,513,513,513,513,513,513,513,513,513,513,513,513,513,513,513,513,513,513,513,513,513,513,513,513,498,494,491,483,482,482,473,464,453,443,431,415,392,363,348,329,306,305,286,270,258,247,238,185,156,138,132,113,100,90],"timestamp_mouse":[9,28,48,69,89,110,129,149,168,189,208,228,248,268,289,310,329,348,369,390,409,429,449,469,488,509,529,549,569,588,608,628,648,668,689,709,728,749,768,790,808,828,848,868,888,908,929,949,968,988,1009,1029,1048,1068,1088,1109,1130,1148,1169,1188,1208,1228,1249,1269,1289,1309],"xSR":741.5,"ySR":469.95,"xT1":424.9,"yT1":0,"xT2":1058.1,"yT2":0,"toosoon":0,"cond_shown":"equaldotsize","ratio_trial":900,"smaller_num":"18","larger_num":"20","correct_side":2,"subjID":"dannavalentinaherrera16","gender":"1","age":"9","school":"4"},{"start_time":1552309864318,"click_time":1552309865441,"finger_time":1552309864941,"fix_duration":916.0993759162717,"trial":16,"RT":623,"MT":500,"sideResp":2,"stimulus":"img/250/equaldotsize/R/4_Ratio_250_L_3_R_12.png","xmouse":[752,752,752,752,752,752,752,752,753,753,755,755,756,757,757,757,757,758,759,760,760,760,760,761,763,767,769,769,769,769,777,788,801,816,816,861,862,862,864,869,889,898,909,922,936,956,963,972,978,980,999,1014,1022,1034,1044,1054,1062],"ymouse":[528,528,528,528,528,528,528,528,525,521,515,515,511,509,507,507,507,507,506,505,505,505,505,501,500,496,494,494,494,493,478,461,443,417,417,353,352,352,350,344,325,316,306,291,274,247,234,210,201,195,142,113,101,87,80,74,73],"timestamp_mouse":[3,22,43,62,83,102,124,143,163,183,203,222,243,263,283,302,323,343,362,383,403,422,443,463,482,503,522,544,563,583,603,623,642,663,682,702,722,743,763,783,802,823,842,862,883,903,922,943,962,982,1003,1022,1042,1062,1082,1103,1123],"xSR":741.5,"ySR":469.95,"xT1":424.9,"yT1":0,"xT2":1058.1,"yT2":0,"toosoon":0,"cond_shown":"equaldotsize","ratio_trial":250,"smaller_num":"3","larger_num":"12","correct_side":2,"subjID":"dannavalentinaherrera16","gender":"1","age":"9","school":"4"},{"start_time":1552309867030,"click_time":1552309869141,"finger_time":1552309868220,"fix_duration":250,"trial":17,"RT":1190,"MT":921,"sideResp":1,"stimulus":"img/250/equaldotsize/L/7_Ratio_250_L_8_R_2.png","xmouse":[814,814,814,814,814,814,814,814,814,814,814,814,814,814,814,814,814,814,814,814,814,814,814,814,814,814,814,814,814,814,814,814,814,814,814,814,814,814,814,814,814,814,814,814,814,814,814,814,814,814,814,814,814,814,814,814,813,809,795,749,729,704,688,674,662,654,652,648,630,617,617,616,616,616,616,616,616,616,616,616,616,613,608,607,607,606,599,599,599,598,598,598,598,597,572,555,549,549,549,547,537,535,526,523,522,517],"ymouse":[493,493,493,493,493,493,493,493,493,493,493,493,493,493,493,493,493,493,493,493,493,493,493,493,493,493,493,493,493,493,493,493,493,493,493,493,493,493,493,493,493,493,493,493,489,487,484,482,480,480,480,480,480,480,480,480,480,479,475,459,448,435,423,408,378,333,315,304,262,241,239,238,238,238,238,238,238,238,238,238,237,227,211,208,208,207,196,196,196,194,194,194,194,192,177,163,157,157,157,154,138,133,116,110,107,97],"timestamp_mouse":[10,30,51,70,90,111,131,152,171,191,210,230,251,271,291,310,330,351,371,390,410,431,451,471,490,511,530,550,571,590,610,630,650,670,692,710,731,750,770,792,810,830,850,870,890,910,930,951,972,990,1010,1031,1051,1070,1090,1110,1130,1150,1170,1190,1211,1231,1251,1271,1290,1310,1330,1350,1370,1390,1410,1431,1450,1471,1490,1510,1530,1550,1570,1590,1610,1630,1650,1672,1690,1711,1730,1750,1770,1790,1812,1831,1850,1870,1890,1911,1930,1951,1970,1990,2010,2030,2050,2070,2090,2111],"xSR":741.5,"ySR":469.95,"xT1":424.9,"yT1":0,"xT2":1058.1,"yT2":0,"toosoon":0,"cond_shown":"equaldotsize","ratio_trial":250,"smaller_num":"2","larger_num":"8","correct_side":1,"subjID":"dannavalentinaherrera16","gender":"1","age":"9","school":"4"},{"start_time":1552309871502,"click_time":1552309873260,"finger_time":1552309871821,"fix_duration":1201.9901284563907,"trial":18,"RT":319,"MT":1439,"sideResp":2,"stimulus":"img/750/equaldotanddens/R/11_Ratio_750_L_12_R_16.png","xmouse":[783,783,783,783,783,783,783,783,785,786,789,789,792,796,799,808,812,819,823,823,824,828,829,829,829,829,829,829,829,829,829,829,829,829,829,813,804,792,786,786,786,786,786,786,786,786,786,786,786,786,787,793,807,822,836,912,936,954,958,967,994,1004,1012,1016,1021,1031,1048,1066,1071,1089,1145,1148,1148,1148,1148,1115,1098,1092,1092,1092,1092,1092,1092,1092,1092,1092,1092,1097],"ymouse":[507,507,507,507,507,507,507,507,505,502,496,496,489,483,476,452,441,418,404,404,400,392,390,390,390,390,390,390,390,390,390,390,390,390,390,391,391,391,391,391,391,391,391,391,391,391,391,391,391,391,391,391,387,382,375,332,312,293,287,271,231,218,209,206,201,190,176,158,153,144,108,106,106,106,106,106,105,104,104,104,104,103,103,103,103,103,100,92],"timestamp_mouse":[21,39,59,80,98,119,138,159,178,198,218,239,259,279,299,319,338,359,378,399,419,439,459,478,499,518,538,558,579,598,618,639,658,678,698,720,738,758,780,800,819,839,859,878,898,919,938,958,978,998,1018,1038,1058,1078,1099,1119,1138,1158,1179,1200,1218,1238,1259,1278,1299,1318,1338,1359,1379,1399,1419,1439,1458,1478,1499,1519,1539,1559,1580,1599,1618,1638,1658,1678,1698,1719,1739,1758],"xSR":741.5,"ySR":469.95,"xT1":424.9,"yT1":0,"xT2":1058.1,"yT2":0,"toosoon":0,"cond_shown":"equaldotanddens","ratio_trial":750,"smaller_num":"12","larger_num":"16","correct_side":2,"subjID":"dannavalentinaherrera16","gender":"1","age":"9","school":"4"},{"start_time":1552309876013,"click_time":1552309877840,"finger_time":1552309877021,"fix_duration":1192.1496702513928,"trial":19,"RT":1008,"MT":819,"sideResp":1,"stimulus":"img/900/equaldotanddens/L/2_Ratio_900_L_20_R_18.png","xmouse":[773,773,773,773,773,773,773,773,773,773,773,773,773,773,773,773,773,773,773,773,773,773,773,773,773,773,773,773,773,773,773,773,773,773,773,773,773,778,783,790,794,795,795,795,795,795,795,792,788,774,750,743,742,742,748,774,790,792,792,792,792,792,792,792,792,792,792,792,792,792,792,792,792,792,792,792,792,792,792,792,792,792,792,792,792,567,559,557,551,541,528,523],"ymouse":[531,531,531,531,531,531,531,531,531,531,531,531,531,531,531,531,531,531,531,531,531,531,531,531,531,531,531,531,531,531,531,531,531,531,531,529,529,524,519,511,506,504,504,504,504,504,504,494,489,472,433,413,385,347,282,134,32,17,17,17,17,17,17,17,17,17,17,17,17,17,17,17,17,17,17,17,17,17,17,17,17,17,17,17,17,0,9,11,18,29,42,46],"timestamp_mouse":[10,27,47,68,87,108,127,148,167,187,207,227,247,269,288,307,328,348,368,389,408,428,448,468,488,508,527,548,568,589,607,628,647,667,687,707,727,747,768,787,808,827,847,867,887,909,928,948,968,987,1008,1028,1047,1067,1087,1107,1128,1147,1167,1187,1207,1227,1248,1267,1287,1307,1327,1348,1367,1387,1407,1428,1447,1468,1488,1508,1527,1547,1567,1588,1608,1628,1647,1668,1687,1707,1727,1747,1768,1788,1807,1827],"xSR":741.5,"ySR":469.95,"xT1":424.9,"yT1":0,"xT2":1058.1,"yT2":0,"toosoon":0,"cond_shown":"equaldotanddens","ratio_trial":900,"smaller_num":"18","larger_num":"20","correct_side":1,"subjID":"dannavalentinaherrera16","gender":"1","age":"9","school":"4"},{"start_time":1552309881591,"click_time":1552309919360,"finger_time":1552309881780,"fix_duration":250,"trial":20,"RT":189,"MT":37580,"sideResp":2,"stimulus":"img/750/randomdotsizeEA/R/3_Ratio_750_L_15_R_20.png","xmouse":[772,772,772,771,767,749,755,773,811,872,943,1062,1090,1106,1118,1125,1134,1136,1139,1139,1139,1139,1139,1139,1139,1139,1139,1139,1139,1139,1139,1139,1139,1139,1139,1139,1139,1139,1139,1139,1139,1139,1139,1139,1139,1139,1139,1139,1139,1139,1138,1128,1120,1113,1103,1091,1090,1090,1090,1090,1090,1090,1090,1090,1090,1090,1090,1090,1090,1090,1090,1090,1090,1090,1090,1090,1090,1090,1090,1090,1090,1090,1090,1090,1090,1090,1090,1090,1090,1090,1090,1090,1090,1090,1090,1090,1090,1090,1090,1090,1090,1090,1090,1090,1090,1090,1090,1090,1090,1090,1090,1090,1090,1090,1090,1090,1090,1090,1090,1090,1090,1090,1090,1090,1090,1090,1090,1090,1090,1090,1090,1090,1090,1090,1090,1090,1090,1090,1090,1090,1090,1090,1090,1090,1090,1090,1090,1090,1090,1090,1090,1090,1090,1090,1090,1090,1090,1090,1090,1090,1090,1090,1090,1090,1090,1090,1090,1090,1090,1090,1090,1090,1090,1090,1090,1090,1090,1090,1090,1090,1090,1090,1090,1090,1090,1090,1090,1090,1090,1090,1090,1090,1090,1090,1090,1090,1090,1090,1090,1090,1090,1090,1090,1090,1090,1090,1090,1090,1090,1090,1090,1090,1090,1090,1090,1090,1090,1090,1090,1090,1090,1090,1090,1090,1090,1090,1090,1090,1090,1090,1090,1090,1090,1090,1090,1090,1090,1090,1090,1090,1090,1090,1090,1090,1090,1090,1090,1090,1090,1090,1090,1090,1090,1090,1090,1090,1090,1090,1090,1090,1090,1090,1090,1090,1090,1090,1090,1090,1090,1090,1090,1090,1090,1090,1090,1090,1090,1090,1090,1090,1090,1090,1090,1090,1090,1090,1090,1090,1090,1090,1090,1090,1090,1090,1090,1090,1090,1090,1090,1090,1090,1090,1090,1090,1090,1090,1090,1090,1090,1090,1090,1090,1090,1090,1090,1090,1090,1090,1090,1090,1090,1090,1090,1090,1090,1090,1090,1090,1090,1090,1090,1090,1090,1090,1090,1090,1090,1090,1090,1090,1090,1090,1090,1090,1090,1090,1090,1090,1090,1090,1090,1090,1090,1090,1090,1090,1090,1090,1090,1090,1090,1090,1090,1090,1090,1090,1090,1090,1090,1090,1090,1090,1090,1090,1090,1090,1090,1090,1090,1090,1090,1090,1090,1090,1090,1090,1090,1090,1090,1090,1090,1090,1090,1090,1090,1090,1090,1090,1090,1090,1090,1090,1090,1090,1090,1090,1090,1090,1090,1090,1090,1090,1090,1090,1090,1090,1090,1090,1090,1090,1090,1090,1090,1090,1090,1090,1090,1090,1090,1090,1090,1090,1090,1090,1090,1090,1090,1090,1090,1090,1090,1090,1090,1090,1090,1090,1090,1090,1090,1090,1090,1090,1090,1090,1090,1090,1090,1090,1090,1090,1090,1090,1090,1090,1090,1090,1090,1090,1090,1090,1090,1090,1090,1090,1090,1090,1090,1090,1090,1090,1090,1090,1090,1090,1090,1090,1090,1090,1090,1090,1090,1090,1090,1090,1090,1090,1090,1090,1090,1090,1090,1090,1090,1090,1090,1090,1090,1090,1090,1090,1090,1090,1090,1090,1090,1090,1090,1090,1090,1090,1090,1090,1090,1090,1090,1090,1090,1090,1090,1090,1090,1090,1090,1090,1090,1090,1090,1090,1090,1090,1090,1090,1090,1090,1090,1090,1090,1090,1090,1090,1090,1090,1090,1090,1090,1090,1090,1090,1090,1090,1090,1090,1090,1090,1090,1090,1090,1090,1090,1090,1090,1090,1090,1090,1090,1090,1090,1090,1090,1090,1090,1090,1090,1090,1090,1090,1090,1090,1090,1090,1090,1090,1090,1090,1090,1090,1090,1090,1090,1090,1090,1090,1090,1090,1090,1090,1090,1090,1090,1090,1090,1090,1090,1090,1090,1090,1090,1090,1090,1090,1090,1090,1090,1090,1090,1090,1090,1090,1090,1090,1090,1090,1090,1090,1090,1090,1090,1090,1090,1090,1090,1090,1090,1090,1090,1090,1090,1090,1090,1090,1090,1090,1090,1090,1090,1090,1090,1090,1090,1090,1090,1090,1090,1090,1090,1090,1090,1090,1090,1090,1090,1090,1090,1090,1090,1090,1090,1090,1090,1090,1090,1090,1090,1090,1090,1090,1090,1090,1090,1090,1090,1090,1090,1090,1090,1090,1090,1090,1090,1090,1090,1090,1090,1090,1090,1090,1090,1090,1090,1090,1090,1090,1090,1090,1090,1090,1090,1090,1090,1090,1090,1090,1090,1090,1090,1090,1090,1090,1090,1090,1090,1090,1090,1090,1090,1090,1090,1090,1090,1090,1090,1090,1090,1090,1090,1090,1090,1090,1090,1090,1090,1090,1090,1090,1090,1090,1090,1090,1090,1090,1090,1090,1090,1090,1090,1090,1090,1090,1090,1090,1090,1090,1090,1090,1090,1090,1090,1090,1090,1090,1090,1090,1090,1090,1090,1090,1090,1090,1090,1090,1090,1090,1090,1090,1090,1090,1090,1090,1090,1090,1090,1090,1090,1090,1090,1090,1090,1090,1090,1090,1090,1090,1090,1090,1090,1090,1090,1090,1090,1090,1090,1090,1090,1090,1090,1090,1090,1090,1090,1090,1090,1090,1090,1090,1090,1090,1090,1090,1090,1090,1090,1090,1090,1090,1090,1090,1090,1090,1090,1090,1090,1090,1090,1090,1090,1090,1090,1090,1090,1090,1090,1090,1090,1090,1090,1090,1090,1090,1090,1090,1090,1090,1090,1090,1090,1090,1090,1090,1090,1090,1090,1090,1090,1090,1090,1090,1090,1090,1090,1090,1090,1090,1090,1090,1090,1090,1090,1090,1090,1090,1090,1090,1090,1090,1090,1090,1090,1090,1090,1090,1090,1090,1090,1090,1090,1090,1090,1090,1090,1090,1090,1090,1090,1090,1090,1090,1090,1090,1090,1090,1090,1090,1090,1090,1090,1090,1090,1090,1090,1090,1090,1090,1090,1090,1090,1090,1090,1090,1090,1090,1090,1090,1090,1090,1090,1090,1090,1090,1090,1090,1090,1090,1090,1090,1090,1090,1090,1090,1090,1090,1090,1090,1090,1090,1090,1090,1090,1090,1090,1090,1090,1090,1090,1090,1090,1090,1090,1090,1090,1090,1090,1090,1090,1090,1090,1090,1090,1090,1090,1090,1090,1090,1090,1090,1090,1090,1090,1090,1090,1090,1090,1090,1090,1090,1090,1090,1090,1090,1090,1090,1090,1090,1090,1090,1090,1090,1090,1090,1090,1090,1090,1090,1090,1090,1090,1090,1090,1090,1090,1090,1090,1090,1090,1090,1090,1090,1090,1090,1090,1090,1090,1090,1090,1090,1090,1090,1090,1090,1090,1090,1090,1090,1090,1090,1090,1090,1090,1090,1090,1090,1090,1090,1090,1090,1090,1090,1090,1090,1090,1090,1090,1090,1090,1090,1090,1090,1090,1090,1090,1090,1090,1090,1090,1090,1090,1090,1090,1090,1090,1090,1090,1090,1090,1090,1090,1090,1090,1090,1090,1090,1090,1090,1090,1090,1090,1090,1090,1090,1090,1090,1090,1090,1090,1090,1090,1090,1090,1090,1090,1090,1090,1090,1090,1090,1090,1090,1090,1090,1090,1090,1090,1090,1090,1090,1090,1090,1090,1090,1090,1090,1090,1090,1090,1090,1090,1090,1090,1090,1090,1090,1090,1090,1090,1090,1090,1090,1090,1090,1090,1090,1090,1090,1090,1090,1090,1090,1090,1090,1090,1090,1090,1090,1090,1090,1090,1090,1090,1090,1090,1090,1090,1090,1090,1090,1090,1090,1090,1090,1090,1090,1090,1090,1090,1090,1090,1090,1090,1090,1090,1090,1090,1090,1090,1090,1090,1090,1090,1090,1090,1090,1090,1090,1090,1090,1090,1090,1090,1090,1090,1090,1090,1090,1090,1090,1090,1090,1090,1090,1090,1090,1090,1090,1090,1090,1090,1090,1090,1090,1090,1090,1090,1090,1090,1090,1090,1090,1090,1090,1090,1090,1090,1090,1090,1090,1090,1090,1090,1090,1090,1090,1090,1090,1090,1090,1090,1090,1090,1090,1090,1090,1090,1090,1090,1090,1090,1090,1090,1090,1090,1090,1090,1090,1090,1090,1090,1090,1090,1090,1090,1090,1090,1090,1090,1090,1090,1090,1090,1090,1090,1090,1090,1090,1090,1090,1090,1090,1090,1090,1090,1090,1090,1090,1090,1090,1090,1090,1090,1090,1090,1090,1090,1090,1090,1090,1090,1090,1090,1090,1090,1090,1090,1090,1090,1090,1090,1090,1090,1090,1090,1090,1090,1090,1090,1090,1090,1090,1090,1090,1090,1090,1090,1090,1090,1090,1090,1090,1090,1090,1090,1090,1090,1090,1090,1090,1090,1090,1090,1090,1090,1090,1090,1090,1090,1090,1090,1090,1090,1090,1090,1090,1090,1090,1090,1090,1090,1090,1090,1090,1090,1090,1090,1090,1090,1090,1090,1090,1090,1090,1090,1090,1090,1090,1090,1090,1090,1090,1090,1090,1090,1090,1090,1090,1090,1090,1090,1090,1090,1090,1090,1090,1090,1090,1090,1090,1090,1090,1090,1090,1090,1090,1090,1090,1090,1090,1090,1090,1090,1090,1090,1090,1090,1090,1090,1090,1090,1090,1090,1090,1090,1090,1090,1090,1090,1090,1090,1090,1090,1090,1090,1090,1090,1090,1090,1090,1090,1090,1090,1090,1090,1090,1090,1090,1090,1090,1090,797,624,467,383,324,292,236,201,161,136,120,114,114,114,114,114,114,114,114,114,114,113,107,95,95,95,95,95,95,95,95,95,95,95,95,95,95,95,95,95,95,95,95,95,95,95,95,95,95,95,95,95,95,95,95,95,95,95,95,95,95,0,0,0,0,0,0,0,0,0,0,0,0,0,0,0,0,0,0,0,0,0,0,0,0,0,0,0,0,0,0,0,0,0,0,0,0,0,0,0,0,0,0,0,0,0,0,0,0,0,0,0,0,0,0,0,0,0,0,0,0,0,0,0,0,0,0,0,0,0,0,0,0,0,0,0,0,0,0,0,0,0,0,0,0,0,0,0,0,0,0,0,0,0,0,0,0,0,0,0,0,0,0,0,0,0,0,0,0,0,0,0,0,0,0,0,0,0,0,0,0,0,0,0,0,0,0,0,0,0,0,0,0,0,0,0,0,0,0,0,0,0,0,0,0,0,0,0,0,0,0,0,0,0,0,0,0,0,0,0,0,0,0,0,0,0,0,0,0,0,0,0,0,0,0,0,0,0,0,0,0,0,0,0,0,0,0,0,0,0,0,0,0,0,0,0,0,0,0,0,0,0,0,0,0,0,0,0,0,0,0,0,0,0,0,0,0,0,0,0,0,0,0,0,0,0,0,0,0,0,0,0,0,0,0,0,0,0,0,1,3,4,4,4,4,4,4,4,4,0,0,0,0,0,0,0,0,0,0,0,0,0,0,0,0,0,678,793,852,867,867,834,814,788,772,767,764,764,764,764,764,764,768,772,774,777,781,781,781,781,781,789,792,799,809,823,829,831,831,831,831,831,831,831,831,831,831,831,831,831,831,831,831,831,831,831,831,831,831,831,831,831,831,831,831,831,831,831,834,849,874,932,959,967,973,982,984,990,996,1002,1009,1037,1065,1087],"ymouse":[541,541,541,541,541,554,565,568,568,564,554,539,539,540,545,549,556,557,557,557,557,557,557,557,557,557,557,557,557,557,557,557,557,557,557,557,557,557,557,557,557,557,557,557,557,557,557,557,557,559,562,574,588,602,620,643,645,645,645,645,645,645,645,645,645,645,645,645,645,645,645,645,645,645,645,645,645,645,645,645,645,645,645,645,645,645,645,645,645,645,645,645,645,645,645,645,645,645,645,645,645,645,645,645,645,645,645,645,645,645,645,645,645,645,645,645,645,645,645,645,645,645,645,645,645,645,645,645,645,645,645,645,645,645,645,645,645,645,645,645,645,645,645,645,645,645,645,645,645,645,645,645,645,645,645,645,645,645,645,645,645,645,645,645,645,645,645,645,645,645,645,645,645,645,645,645,645,645,645,645,645,645,645,645,645,645,645,645,645,645,645,645,645,645,645,645,645,645,645,645,645,645,645,645,645,645,645,645,645,645,645,645,645,645,645,645,645,645,645,645,645,645,645,645,645,645,645,645,645,645,645,645,645,645,645,645,645,645,645,645,645,645,645,645,645,645,645,645,645,645,645,645,645,645,645,645,645,645,645,645,645,645,645,645,645,645,645,645,645,645,645,645,645,645,645,645,645,645,645,645,645,645,645,645,645,645,645,645,645,645,645,645,645,645,645,645,645,645,645,645,645,645,645,645,645,645,645,645,645,645,645,645,645,645,645,645,645,645,645,645,645,645,645,645,645,645,645,645,645,645,645,645,645,645,645,645,645,645,645,645,645,645,645,645,645,645,645,645,645,645,645,645,645,645,645,645,645,645,645,645,645,645,645,645,645,645,645,645,645,645,645,645,645,645,645,645,645,645,645,645,645,645,645,645,645,645,645,645,645,645,645,645,645,645,645,645,645,645,645,645,645,645,645,645,645,645,645,645,645,645,645,645,645,645,645,645,645,645,645,645,645,645,645,645,645,645,645,645,645,645,645,645,645,645,645,645,645,645,645,645,645,645,645,645,645,645,645,645,645,645,645,645,645,645,645,645,645,645,645,645,645,645,645,645,645,645,645,645,645,645,645,645,645,645,645,645,645,645,645,645,645,645,645,645,645,645,645,645,645,645,645,645,645,645,645,645,645,645,645,645,645,645,645,645,645,645,645,645,645,645,645,645,645,645,645,645,645,645,645,645,645,645,645,645,645,645,645,645,645,645,645,645,645,645,645,645,645,645,645,645,645,645,645,645,645,645,645,645,645,645,645,645,645,645,645,645,645,645,645,645,645,645,645,645,645,645,645,645,645,645,645,645,645,645,645,645,645,645,645,645,645,645,645,645,645,645,645,645,645,645,645,645,645,645,645,645,645,645,645,645,645,645,645,645,645,645,645,645,645,645,645,645,645,645,645,645,645,645,645,645,645,645,645,645,645,645,645,645,645,645,645,645,645,645,645,645,645,645,645,645,645,645,645,645,645,645,645,645,645,645,645,645,645,645,645,645,645,645,645,645,645,645,645,645,645,645,645,645,645,645,645,645,645,645,645,645,645,645,645,645,645,645,645,645,645,645,645,645,645,645,645,645,645,645,645,645,645,645,645,645,645,645,645,645,645,645,645,645,645,645,645,645,645,645,645,645,645,645,645,645,645,645,645,645,645,645,645,645,645,645,645,645,645,645,645,645,645,645,645,645,645,645,645,645,645,645,645,645,645,645,645,645,645,645,645,645,645,645,645,645,645,645,645,645,645,645,645,645,645,645,645,645,645,645,645,645,645,645,645,645,645,645,645,645,645,645,645,645,645,645,645,645,645,645,645,645,645,645,645,645,645,645,645,645,645,645,645,645,645,645,645,645,645,645,645,645,645,645,645,645,645,645,645,645,645,645,645,645,645,645,645,645,645,645,645,645,645,645,645,645,645,645,645,645,645,645,645,645,645,645,645,645,645,645,645,645,645,645,645,645,645,645,645,645,645,645,645,645,645,645,645,645,645,645,645,645,645,645,645,645,645,645,645,645,645,645,645,645,645,645,645,645,645,645,645,645,645,645,645,645,645,645,645,645,645,645,645,645,645,645,645,645,645,645,645,645,645,645,645,645,645,645,645,645,645,645,645,645,645,645,645,645,645,645,645,645,645,645,645,645,645,645,645,645,645,645,645,645,645,645,645,645,645,645,645,645,645,645,645,645,645,645,645,645,645,645,645,645,645,645,645,645,645,645,645,645,645,645,645,645,645,645,645,645,645,645,645,645,645,645,645,645,645,645,645,645,645,645,645,645,645,645,645,645,645,645,645,645,645,645,645,645,645,645,645,645,645,645,645,645,645,645,645,645,645,645,645,645,645,645,645,645,645,645,645,645,645,645,645,645,645,645,645,645,645,645,645,645,645,645,645,645,645,645,645,645,645,645,645,645,645,645,645,645,645,645,645,645,645,645,645,645,645,645,645,645,645,645,645,645,645,645,645,645,645,645,645,645,645,645,645,645,645,645,645,645,645,645,645,645,645,645,645,645,645,645,645,645,645,645,645,645,645,645,645,645,645,645,645,645,645,645,645,645,645,645,645,645,645,645,645,645,645,645,645,645,645,645,645,645,645,645,645,645,645,645,645,645,645,645,645,645,645,645,645,645,645,645,645,645,645,645,645,645,645,645,645,645,645,645,645,645,645,645,645,645,645,645,645,645,645,645,645,645,645,645,645,645,645,645,645,645,645,645,645,645,645,645,645,645,645,645,645,645,645,645,645,645,645,645,645,645,645,645,645,645,645,645,645,645,645,645,645,645,645,645,645,645,645,645,645,645,645,645,645,645,645,645,645,645,645,645,645,645,645,645,645,645,645,645,645,645,645,645,645,645,645,645,645,645,645,645,645,645,645,645,645,645,645,645,645,645,645,645,645,645,645,645,645,645,645,645,645,645,645,645,645,645,645,645,645,645,645,645,645,645,645,645,645,645,645,645,645,645,645,645,645,645,645,645,645,645,645,645,645,645,645,645,645,645,645,645,645,645,645,645,645,645,645,645,645,645,645,645,645,645,645,645,645,645,645,645,645,645,645,645,645,645,645,645,645,645,645,645,645,645,645,645,645,645,645,645,645,645,645,645,645,645,645,645,645,645,645,645,645,645,645,645,645,645,645,645,645,645,645,645,645,645,645,645,645,645,645,645,645,645,645,645,645,645,645,645,645,645,645,645,645,645,645,645,645,645,645,645,645,645,645,645,645,645,645,645,645,645,645,645,645,653,691,712,712,712,712,712,712,712,712,712,712,712,712,712,712,712,712,712,712,712,712,712,712,712,712,712,712,712,712,712,712,712,712,712,712,712,712,712,712,712,712,712,712,712,712,712,712,712,712,712,712,712,712,712,712,712,712,720,621,554,530,527,533,569,596,632,660,677,683,683,683,683,683,683,683,683,683,683,686,701,715,715,715,715,715,715,715,715,715,715,715,715,715,715,715,715,715,715,715,715,715,715,715,715,715,715,715,715,715,715,715,715,715,715,715,715,715,715,722,719,718,717,715,714,712,710,710,709,707,702,698,693,684,666,656,645,637,629,629,629,629,629,629,629,629,629,629,629,629,629,629,629,629,629,629,629,629,629,629,629,626,620,616,610,609,607,607,605,603,603,602,602,602,602,602,602,601,600,597,594,592,590,589,589,589,589,589,589,589,589,589,589,589,589,589,589,589,589,589,589,589,589,589,589,589,589,589,589,589,589,589,589,589,589,589,589,589,589,589,589,589,589,589,589,589,589,589,589,589,589,589,589,589,589,589,589,589,589,589,589,589,589,589,589,589,589,589,589,589,589,589,589,589,589,589,589,589,589,589,589,589,589,589,589,589,589,589,589,589,589,589,589,589,589,589,589,589,589,589,589,589,589,589,589,589,589,589,589,589,589,589,589,589,589,589,589,589,589,589,589,589,589,589,589,589,589,589,589,589,589,589,589,589,589,589,589,589,589,589,589,589,589,589,589,589,589,589,589,589,589,589,589,589,589,589,589,589,589,589,589,589,589,589,589,589,589,589,589,589,589,589,589,589,589,589,587,585,582,580,580,580,580,580,580,580,580,575,547,404,236,114,0,0,0,0,0,0,0,0,0,0,0,0,41,77,104,117,124,144,151,156,155,152,151,151,151,151,151,151,163,179,197,219,269,293,318,345,372,426,445,467,491,526,536,540,540,540,540,540,540,540,540,540,540,540,540,540,540,540,540,540,540,540,540,540,540,540,540,540,540,540,540,540,540,538,523,485,447,374,336,323,309,287,283,276,261,244,221,165,122,92],"timestamp_mouse":[11,29,49,70,90,109,130,149,169,189,210,230,249,269,289,309,330,350,370,389,410,429,449,470,491,510,530,550,570,589,610,629,649,669,691,709,730,749,770,789,811,829,849,869,889,910,929,950,969,990,1009,1029,1050,1069,1091,1110,1129,1150,1169,1190,1211,1229,1249,1270,1289,1309,1329,1349,1369,1389,1410,1430,1449,1470,1489,1510,1529,1550,1570,1589,1610,1629,1649,1670,1689,1710,1730,1749,1769,1789,1811,1829,1850,1870,1889,1909,1930,1949,1969,1990,2011,2030,2049,2069,2089,2110,2131,2149,2170,2189,2210,2229,2251,2270,2289,2309,2329,2350,2369,2390,2409,2430,2450,2469,2489,2510,2530,2550,2570,2590,2609,2629,2650,2670,2690,2710,2729,2749,2770,2790,2810,2829,2849,2869,2890,2909,2930,2949,2969,2989,3009,3030,3050,3069,3089,3111,3129,3149,3170,3191,3209,3231,3249,3269,3289,3310,3329,3349,3369,3389,3410,3429,3450,3469,3489,3509,3529,3550,3569,3590,3610,3629,3650,3670,3691,3710,3729,3749,3769,3789,3809,3829,3850,3869,3889,3910,3930,3950,3969,3989,4010,4030,4049,4069,4089,4111,4129,4149,4169,4189,4211,4229,4249,4269,4291,4310,4329,4349,4369,4389,4409,4430,4450,4470,4489,4509,4530,4550,4570,4589,4610,4629,4649,4670,4690,4709,4729,4749,4769,4790,4809,4829,4850,4870,4889,4909,4929,4949,4970,4989,5009,5030,5049,5069,5090,5110,5130,5149,5169,5189,5210,5229,5249,5269,5289,5310,5329,5349,5369,5389,5409,5430,5449,5470,5490,5509,5529,5549,5569,5589,5609,5630,5649,5669,5689,5710,5730,5749,5769,5789,5809,5829,5849,5869,5889,5909,5929,5949,5970,5989,6009,6031,6050,6070,6090,6109,6130,6150,6170,6189,6210,6229,6249,6269,6289,6311,6329,6349,6369,6389,6409,6429,6450,6469,6491,6509,6529,6549,6570,6589,6610,6630,6649,6669,6689,6710,6730,6749,6770,6789,6811,6829,6849,6869,6890,6911,6929,6949,6970,6990,7009,7029,7049,7069,7090,7110,7129,7149,7170,7190,7211,7231,7249,7270,7290,7309,7330,7350,7371,7390,7411,7430,7450,7469,7489,7509,7530,7550,7570,7589,7610,7630,7650,7670,7690,7709,7729,7751,7769,7789,7811,7829,7849,7869,7889,7911,7929,7949,7970,7989,8009,8030,8049,8069,8090,8111,8129,8149,8170,8189,8209,8229,8249,8270,8290,8309,8329,8350,8370,8389,8410,8429,8450,8469,8489,8509,8530,8550,8569,8589,8609,8629,8651,8671,8691,8711,8731,8749,8770,8790,8810,8829,8849,8870,8891,8910,8929,8949,8970,8990,9010,9030,9049,9070,9089,9109,9129,9149,9170,9190,9210,9230,9250,9270,9289,9309,9329,9350,9370,9390,9411,9430,9449,9469,9490,9511,9529,9550,9569,9591,9610,9629,9649,9670,9689,9709,9729,9749,9769,9789,9811,9830,9851,9871,9889,9909,9929,9950,9969,9989,10010,10031,10049,10070,10089,10109,10129,10149,10169,10189,10211,10230,10250,10269,10289,10310,10330,10349,10369,10390,10409,10429,10450,10469,10490,10510,10529,10550,10570,10589,10611,10630,10649,10670,10689,10709,10730,10749,10769,10791,10810,10829,10849,10869,10889,10909,10930,10949,10970,10989,11010,11030,11049,11070,11090,11110,11129,11149,11169,11189,11211,11229,11249,11269,11289,11309,11330,11349,11369,11389,11409,11429,11450,11469,11490,11509,11529,11549,11569,11590,11611,11629,11649,11670,11690,11710,11729,11749,11771,11790,11810,11830,11849,11870,11889,11911,11929,11949,11969,11989,12009,12030,12051,12070,12089,12109,12129,12149,12169,12189,12209,12230,12249,12270,12290,12310,12329,12349,12370,12390,12411,12429,12449,12469,12490,12511,12529,12550,12569,12589,12610,12630,12649,12670,12690,12709,12730,12749,12769,12789,12811,12831,12850,12869,12889,12909,12929,12949,12969,12989,13009,13030,13049,13069,13090,13110,13129,13150,13169,13190,13209,13229,13250,13269,13289,13309,13329,13350,13370,13389,13410,13429,13450,13470,13489,13509,13529,13549,13569,13590,13609,13629,13649,13669,13689,13710,13730,13749,13769,13790,13811,13829,13849,13869,13890,13911,13929,13951,13969,13989,14010,14030,14049,14070,14090,14110,14129,14149,14169,14189,14209,14229,14250,14269,14290,14311,14329,14349,14369,14390,14411,14429,14449,14469,14490,14511,14529,14550,14570,14590,14609,14629,14649,14669,14689,14709,14729,14750,14769,14790,14810,14830,14849,14869,14889,14911,14929,14949,14970,14990,15011,15029,15049,15070,15089,15109,15129,15149,15169,15189,15210,15230,15249,15269,15289,15310,15329,15349,15370,15391,15409,15429,15450,15470,15489,15509,15529,15550,15569,15589,15609,15629,15649,15669,15690,15711,15730,15750,15769,15789,15809,15830,15849,15870,15890,15910,15930,15949,15969,15990,16011,16031,16049,16069,16089,16109,16129,16149,16169,16191,16211,16229,16249,16269,16289,16309,16330,16351,16370,16389,16410,16429,16449,16469,16490,16509,16530,16549,16570,16589,16610,16630,16650,16669,16689,16709,16730,16751,16770,16789,16811,16829,16849,16870,16890,16910,16929,16949,16969,16990,17009,17029,17049,17070,17090,17111,17129,17149,17170,17190,17210,17229,17249,17269,17289,17309,17331,17349,17369,17389,17409,17429,17449,17469,17489,17509,17529,17550,17570,17590,17609,17630,17649,17669,17690,17711,17729,17749,17769,17790,17810,17830,17850,17870,17889,17910,17929,17949,17970,17990,18011,18029,18049,18069,18089,18109,18129,18151,18170,18190,18211,18229,18249,18270,18289,18310,18330,18350,18369,18389,18410,18430,18449,18470,18489,18509,18530,18549,18570,18589,18610,18629,18650,18670,18690,18709,18729,18749,18770,18790,18811,18830,18849,18869,18890,18909,18930,18949,18969,18990,19010,19030,19049,19070,19089,19110,19131,19149,19169,19190,19209,19230,19249,19269,19289,19309,19330,19349,19369,19389,19410,19430,19449,19469,19490,19509,19530,19549,19569,19589,19610,19630,19649,19669,19689,19709,19729,19749,19769,19789,19810,19830,19849,19870,19889,19909,19929,19949,19969,19989,20010,20030,20049,20069,20089,20109,20130,20150,20169,20190,20210,20229,20249,20270,20290,20311,20329,20350,20371,20389,20409,20429,20450,20469,20489,20510,20530,20549,20569,20591,20609,20630,20650,20670,20690,20711,20729,20749,20769,20789,20810,20829,20849,20869,20889,20909,20930,20949,20970,20990,21010,21029,21050,21070,21090,21109,21130,21149,21169,21190,21211,21229,21249,21269,21289,21310,21330,21349,21370,21389,21409,21430,21450,21470,21489,21511,21529,21549,21569,21590,21611,21631,21649,21670,21689,21709,21730,21749,21769,21789,21809,21830,21850,21870,21890,21909,21929,21949,21969,21989,22010,22030,22051,22069,22090,22111,22131,22149,22170,22189,22210,22230,22249,22270,22289,22309,22330,22349,22369,22389,22409,22429,22450,22470,22489,22509,22530,22549,22570,22590,22609,22629,22650,22669,22690,22709,22729,22750,22769,22789,22810,22830,22849,22870,22891,22909,22929,22949,22969,22990,23009,23030,23049,23069,23089,23111,23129,23149,23169,23189,23210,23230,23250,23270,23290,23309,23329,23349,23369,23390,23409,23429,23449,23469,23490,23510,23531,23549,23569,23590,23611,23629,23650,23670,23689,23710,23730,23750,23769,23789,23809,23830,23850,23869,23889,23909,23930,23950,23969,23990,24009,24030,24049,24069,24089,24111,24129,24149,24169,24189,24210,24229,24249,24269,24289,24311,24329,24349,24370,24390,24411,24429,24449,24470,24489,24510,24529,24549,24570,24590,24610,24629,24650,24669,24689,24709,24729,24749,24769,24789,24810,24830,24849,24869,24889,24909,24930,24950,24969,24989,25010,25029,25049,25070,25091,25110,25130,25149,25169,25189,25211,25230,25249,25269,25290,25311,25329,25349,25370,25390,25409,25431,25450,25470,25489,25510,25529,25549,25569,25589,25610,25630,25650,25669,25689,25709,25729,25750,25771,25790,25810,25830,25849,25869,25889,25909,25930,25950,25971,25989,26010,26029,26050,26070,26089,26110,26129,26150,26169,26189,26209,26229,26249,26269,26290,26309,26330,26349,26369,26389,26410,26429,26449,26470,26489,26509,26530,26551,26569,26589,26609,26630,26649,26670,26691,26710,26729,26749,26770,26789,26809,26829,26850,26869,26889,26909,26929,26949,26970,26989,27010,27029,27051,27069,27089,27110,27130,27149,27169,27190,27211,27230,27249,27269,27289,27309,27329,27349,27369,27390,27410,27430,27449,27469,27490,27509,27530,27549,27570,27590,27610,27629,27650,27669,27690,27710,27729,27749,27769,27790,27810,27831,27849,27869,27889,27909,27929,27949,27969,27990,28011,28029,28049,28069,28089,28111,28129,28150,28169,28189,28209,28230,28250,28269,28290,28311,28329,28349,28370,28389,28409,28431,28449,28469,28489,28510,28529,28551,28569,28589,28609,28629,28649,28669,28689,28710,28730,28750,28770,28789,28810,28829,28849,28870,28889,28909,28930,28949,28970,28989,29009,29030,29049,29070,29089,29110,29129,29149,29169,29190,29211,29229,29249,29270,29289,29311,29329,29350,29369,29389,29410,29430,29449,29469,29490,29510,29529,29549,29570,29590,29609,29629,29650,29669,29689,29709,29729,29750,29770,29789,29809,29830,29849,29869,29889,29911,29930,29949,29969,29990,30009,30030,30049,30070,30089,30110,30129,30149,30169,30189,30209,30229,30249,30269,30289,30309,30330,30349,30369,30390,30409,30429,30449,30469,30490,30509,30530,30549,30570,30590,30609,30629,30649,30669,30689,30709,30730,30749,30770,30790,30810,30829,30849,30870,30890,30909,30930,30949,30970,30990,31011,31029,31049,31069,31090,31109,31129,31149,31170,31190,31209,31229,31250,31270,31289,31310,31330,31349,31369,31390,31411,31429,31450,31469,31489,31509,31529,31549,31570,31589,31609,31629,31649,31669,31689,31710,31729,31749,31770,31789,31810,31830,31851,31870,31890,31910,31930,31951,31969,31990,32009,32029,32049,32069,32090,32110,32130,32150,32170,32190,32211,32230,32250,32269,32290,32309,32330,32349,32370,32389,32409,32429,32449,32469,32490,32511,32529,32549,32569,32590,32610,32631,32650,32670,32689,32709,32730,32750,32770,32789,32811,32829,32849,32869,32890,32911,32930,32950,32969,32990,33009,33029,33049,33070,33089,33109,33129,33149,33169,33189,33209,33229,33249,33270,33289,33310,33329,33349,33370,33390,33410,33431,33450,33469,33490,33511,33529,33549,33569,33589,33611,33630,33649,33670,33689,33709,33729,33751,33769,33789,33811,33829,33849,33870,33891,33909,33929,33949,33970,33991,34010,34029,34049,34070,34091,34110,34129,34149,34170,34191,34211,34230,34249,34269,34290,34311,34330,34349,34369,34390,34411,34430,34450,34470,34489,34510,34530,34549,34570,34589,34611,34629,34649,34670,34689,34710,34729,34749,34770,34790,34811,34829,34849,34869,34889,34910,34929,34951,34970,34989,35010,35030,35049,35070,35090,35109,35129,35149,35170,35189,35209,35230,35250,35269,35289,35309,35329,35349,35369,35391,35411,35429,35449,35469,35490,35510,35531,35551,35569,35590,35611,35629,35649,35669,35690,35709,35729,35749,35770,35789,35810,35830,35850,35870,35890,35909,35930,35949,35970,35991,36009,36029,36049,36070,36089,36111,36129,36150,36170,36190,36209,36229,36249,36270,36290,36310,36329,36349,36369,36390,36411,36430,36450,36470,36490,36511,36530,36549,36569,36589,36609,36629,36651,36669,36689,36709,36729,36750,36769,36789,36810,36830,36850,36871,36890,36909,36929,36949,36969,36989,37010,37031,37049,37069,37090,37109,37129,37149,37171,37190,37209,37230,37251,37269,37289,37309,37329,37349,37369,37391,37409,37431,37450,37470,37489,37511,37530,37550,37569,37590,37610,37630,37650,37669,37689,37711,37730,37749,37769],"xSR":741.5,"ySR":469.95,"xT1":424.9,"yT1":0,"xT2":1058.1,"yT2":0,"toosoon":0,"cond_shown":"randomdotsizeEA","ratio_trial":750,"smaller_num":"15","larger_num":"20","correct_side":2,"subjID":"dannavalentinaherrera16","gender":"1","age":"9","school":"4"},{"start_time":1552309921004,"click_time":1552309922461,"finger_time":1552309921761,"fix_duration":762.2011106005779,"trial":21,"RT":757,"MT":700,"sideResp":2,"stimulus":"img/900/equaldotsize/R/14_Ratio_900_L_18_R_20.png","xmouse":[791,791,791,791,791,791,791,791,791,791,791,791,791,791,791,791,791,787,779,770,759,758,758,758,758,758,758,758,758,758,758,758,758,758,763,775,788,809,843,890,1008,1064,1115,1156,1186,1219,1242,1255,1255,1255,1255,1255,1255,1255,1255,1255,1255,1255,1255,1255,1255,1255,1255,1255,1255,1255,1255,1255,1255,1255,1255,1255,1147],"ymouse":[518,518,518,518,518,518,518,518,518,518,518,518,518,518,518,518,518,521,527,532,534,535,535,535,535,535,535,535,535,535,535,535,535,531,518,496,480,460,433,399,315,267,223,183,152,97,42,3,3,3,3,3,3,3,3,3,3,3,3,3,3,3,3,3,3,3,3,3,3,3,3,3,3],"timestamp_mouse":[19,36,56,77,98,116,137,157,178,196,216,237,258,277,296,317,336,356,376,398,416,436,456,477,496,516,537,558,578,596,616,637,658,678,697,716,736,757,776,796,816,837,857,876,896,917,936,957,976,996,1016,1037,1056,1076,1098,1116,1137,1157,1177,1196,1216,1236,1257,1277,1297,1318,1337,1357,1376,1396,1417,1437,1456],"xSR":741.5,"ySR":469.95,"xT1":424.9,"yT1":0,"xT2":1058.1,"yT2":0,"toosoon":0,"cond_shown":"equaldotsize","ratio_trial":900,"smaller_num":"18","larger_num":"20","correct_side":2,"subjID":"dannavalentinaherrera16","gender":"1","age":"9","school":"4"},{"start_time":1552309924906,"click_time":1552309925981,"finger_time":1552309925581,"fix_duration":1104.9809088004945,"trial":22,"RT":675,"MT":400,"sideResp":1,"stimulus":"img/900/equaldotanddens/L/4_Ratio_900_L_20_R_18.png","xmouse":[798,798,798,798,798,798,798,798,798,798,798,798,798,798,798,798,798,798,798,798,798,798,798,798,798,798,798,798,798,798,798,798,798,788,760,739,717,702,683,664,657,653,645,639,625,619,615,609,604,599,582,556,538,519],"ymouse":[490,490,490,490,490,490,490,490,490,490,490,490,490,490,490,490,490,490,490,490,490,490,490,490,490,490,490,490,490,490,490,490,490,462,398,342,293,246,205,161,147,143,138,132,127,125,121,115,110,104,93,81,74,65],"timestamp_mouse":[14,34,56,76,94,114,135,155,175,195,215,235,255,276,295,314,335,355,374,394,414,435,455,474,495,514,536,555,574,596,616,635,655,675,696,714,734,755,775,795,814,834,854,875,896,914,934,954,975,995,1015,1035,1054,1075],"xSR":741.5,"ySR":469.95,"xT1":424.9,"yT1":0,"xT2":1058.1,"yT2":0,"toosoon":0,"cond_shown":"equaldotanddens","ratio_trial":900,"smaller_num":"18","larger_num":"20","correct_side":1,"subjID":"dannavalentinaherrera16","gender":"1","age":"9","school":"4"},{"start_time":1552309928263,"click_time":1552309929020,"finger_time":1552309928541,"fix_duration":1342.704330330756,"trial":23,"RT":278,"MT":479,"sideResp":1,"stimulus":"img/250/equaldotanddens/L/3_Ratio_250_L_8_R_2.png","xmouse":[808,808,808,808,808,808,808,808,808,808,809,813,823,831,835,835,835,835,835,835,835,835,835,835,835,835,835,835,835,835,813,774,658,614,580,558,541,516],"ymouse":[523,523,523,523,523,523,514,507,501,498,493,486,471,463,459,459,459,459,459,459,459,459,459,459,459,459,459,459,459,458,434,395,277,228,188,151,108,56],"timestamp_mouse":[18,38,59,78,97,118,138,157,178,198,217,237,258,278,298,317,337,359,378,397,417,438,458,478,497,518,538,558,579,597,618,639,659,678,698,718,738,757],"xSR":741.5,"ySR":469.95,"xT1":424.9,"yT1":0,"xT2":1058.1,"yT2":0,"toosoon":0,"cond_shown":"equaldotanddens","ratio_trial":250,"smaller_num":"2","larger_num":"8","correct_side":1,"subjID":"dannavalentinaherrera16","gender":"1","age":"9","school":"4"},{"start_time":1552309931787,"click_time":1552309933682,"finger_time":1552309932261,"fix_duration":1465.815181561904,"trial":24,"RT":474,"MT":1421,"sideResp":2,"stimulus":"img/750/equaldotanddens/L/9_Ratio_750_L_4_R_3.png","xmouse":[831,831,831,831,831,831,831,831,831,831,831,831,831,831,831,831,831,831,831,831,831,831,825,818,812,808,804,803,802,802,801,798,796,796,796,796,796,796,796,796,795,786,778,767,754,725,700,687,675,668,665,661,659,657,655,653,647,643,642,639,635,634,633,633,633,633,633,644,686,735,788,902,954,987,1008,1029,1046,1066,1101,1158,1222,1295,1306,1309,1309,1309,1309,1302,1293,1278,1259,1222,1203,1180,1152],"ymouse":[492,492,492,492,492,492,492,492,492,492,492,492,492,492,492,492,492,492,492,492,492,486,474,464,457,452,450,449,448,448,448,446,444,444,444,444,444,444,444,444,443,430,419,404,387,349,323,313,305,300,298,294,292,289,287,284,279,276,275,273,270,269,268,268,268,268,268,268,268,268,276,292,300,303,303,302,298,292,283,267,246,208,193,179,168,157,139,125,118,114,108,99,97,94,89],"timestamp_mouse":[19,35,53,74,93,115,133,153,173,194,215,234,254,273,295,315,333,353,373,394,415,433,454,474,494,513,533,554,575,594,613,633,654,675,693,713,734,753,774,793,814,834,853,873,893,914,934,953,973,994,1015,1034,1053,1073,1094,1113,1133,1154,1173,1194,1214,1234,1253,1273,1294,1313,1334,1355,1373,1393,1414,1434,1453,1474,1494,1514,1533,1553,1573,1594,1614,1633,1655,1673,1694,1713,1733,1754,1773,1794,1813,1834,1853,1873,1895],"xSR":741.5,"ySR":469.95,"xT1":424.9,"yT1":0,"xT2":1058.1,"yT2":0,"toosoon":0,"cond_shown":"equaldotanddens","ratio_trial":750,"smaller_num":"3","larger_num":"4","correct_side":1,"subjID":"dannavalentinaherrera16","gender":"1","age":"9","school":"4"},{"start_time":1552309938711,"click_time":1552309940000,"finger_time":1552309939620,"fix_duration":410.7819821835289,"trial":25,"RT":909,"MT":380,"sideResp":2,"stimulus":"img/250/randomdotsizeEA/R/11_Ratio_250_L_3_R_12.png","xmouse":[766,766,766,766,766,766,766,766,766,766,766,766,766,766,766,766,766,766,766,766,766,766,766,766,766,766,766,766,766,766,766,766,766,766,766,766,766,766,766,766,766,766,766,766,766,786,810,850,906,950,995,1002,1003,1005,1005,1005,1005,1006,1008,1014,1039,1070,1091,1105,1114],"ymouse":[471,471,471,471,471,471,471,471,471,471,471,471,471,471,471,471,471,471,471,471,471,471,471,471,471,471,471,471,471,471,471,471,471,471,471,471,471,471,471,471,471,471,471,471,470,445,422,388,345,305,234,211,200,192,190,188,187,185,183,178,159,136,119,101,86],"timestamp_mouse":[9,29,49,69,89,109,130,149,170,191,210,229,250,270,291,311,329,350,370,391,409,430,449,469,489,510,531,550,570,591,609,630,650,670,691,711,729,751,771,789,810,829,851,871,890,909,930,950,969,990,1009,1029,1050,1069,1090,1110,1129,1149,1169,1189,1209,1229,1249,1269,1289],"xSR":741.5,"ySR":469.95,"xT1":424.9,"yT1":0,"xT2":1058.1,"yT2":0,"toosoon":0,"cond_shown":"randomdotsizeEA","ratio_trial":250,"smaller_num":"3","larger_num":"12","correct_side":2,"subjID":"dannavalentinaherrera16","gender":"1","age":"9","school":"4"},{"start_time":1552309941446,"click_time":1552309943121,"finger_time":1552309942580,"fix_duration":704.9964249910635,"trial":26,"RT":1134,"MT":541,"sideResp":2,"stimulus":"img/500/equaldotanddens/R/6_Ratio_500_L_9_R_18.png","xmouse":[788,788,788,788,788,788,788,788,788,788,788,788,788,788,788,788,788,788,788,788,788,788,788,788,788,788,788,788,788,788,788,788,788,788,788,788,788,788,788,788,788,788,788,788,788,788,788,788,788,788,788,788,788,793,799,809,824,837,863,869,875,879,881,887,898,909,923,954,970,985,998,1009,1015,1021,1027,1034,1041,1045,1050,1052,1055,1061,1069,1087],"ymouse":[520,520,520,520,520,520,520,520,520,520,520,520,520,520,520,520,520,520,520,520,520,520,520,520,520,520,520,520,520,520,520,520,520,520,520,520,520,520,520,520,520,520,520,520,520,520,520,520,520,520,520,520,520,513,498,476,449,427,386,373,364,358,354,347,337,324,309,282,272,262,255,249,245,241,236,229,222,218,207,202,191,170,143,80],"timestamp_mouse":[14,35,55,74,96,114,134,154,175,196,215,235,256,274,295,315,336,354,375,395,414,434,456,475,496,515,534,555,574,594,616,636,656,674,695,715,735,755,776,794,814,835,854,875,896,914,935,955,975,996,1016,1034,1054,1075,1095,1116,1134,1154,1174,1194,1214,1234,1254,1274,1295,1314,1335,1356,1374,1394,1415,1435,1454,1474,1496,1515,1535,1554,1575,1595,1616,1634,1656,1675],"xSR":741.5,"ySR":469.95,"xT1":424.9,"yT1":0,"xT2":1058.1,"yT2":0,"toosoon":0,"cond_shown":"equaldotanddens","ratio_trial":500,"smaller_num":"9","larger_num":"18","correct_side":2,"subjID":"dannavalentinaherrera16","gender":"1","age":"9","school":"4"},{"start_time":1552309945810,"click_time":1552309946981,"finger_time":1552309946602,"fix_duration":1446.213266297202,"trial":27,"RT":792,"MT":379,"sideResp":1,"stimulus":"img/900/randomdotsizeEA/L/2_Ratio_900_L_20_R_18.png","xmouse":[790,790,790,790,790,790,790,790,790,790,790,790,790,790,790,790,790,790,790,790,790,790,790,790,790,790,790,790,790,790,790,790,790,790,790,791,791,790,783,770,743,728,713,699,684,651,640,630,623,618,610,607,602,597,591,577,557,535,514],"ymouse":[491,491,491,491,491,491,491,491,491,491,491,491,491,491,491,491,491,491,491,491,491,491,491,491,491,491,491,491,491,491,491,491,491,491,491,490,489,486,479,468,440,421,400,380,359,304,285,268,251,239,222,215,207,198,187,164,136,112,99],"timestamp_mouse":[10,30,50,70,92,110,130,151,172,192,211,230,251,270,290,311,331,351,371,391,410,430,451,472,491,510,530,551,571,591,610,631,650,672,690,710,730,751,771,792,811,831,851,872,892,910,931,950,970,992,1011,1031,1050,1072,1092,1110,1131,1150,1171],"xSR":741.5,"ySR":469.95,"xT1":424.9,"yT1":0,"xT2":1058.1,"yT2":0,"toosoon":0,"cond_shown":"randomdotsizeEA","ratio_trial":900,"smaller_num":"18","larger_num":"20","correct_side":1,"subjID":"dannavalentinaherrera16","gender":"1","age":"9","school":"4"},{"start_time":1552309948451,"click_time":1552309949540,"finger_time":1552309949300,"fix_duration":250,"trial":28,"RT":849,"MT":240,"sideResp":2,"stimulus":"img/250/randomdotsizeEA/R/11_Ratio_250_L_3_R_12.png","xmouse":[797,797,797,797,797,797,797,797,797,797,797,797,797,797,797,797,797,797,797,797,797,797,797,797,797,797,797,797,797,797,797,797,797,797,797,797,797,799,803,810,821,833,850,885,928,955,985,1030,1051,1066,1074,1085,1094,1107,1113],"ymouse":[518,518,518,518,518,518,518,518,518,518,518,518,518,518,518,518,518,518,518,518,518,518,518,518,518,518,518,518,518,518,518,518,518,518,518,518,518,518,517,511,502,489,473,432,382,346,309,243,210,186,167,149,132,102,86],"timestamp_mouse":[10,29,51,69,90,109,131,150,169,189,210,231,249,269,290,310,329,349,369,389,410,430,450,469,491,510,530,551,569,589,609,630,650,669,689,711,730,749,769,789,810,830,849,869,890,909,930,950,969,989,1010,1030,1049,1069,1089],"xSR":741.5,"ySR":469.95,"xT1":424.9,"yT1":0,"xT2":1058.1,"yT2":0,"toosoon":0,"cond_shown":"randomdotsizeEA","ratio_trial":250,"smaller_num":"3","larger_num":"12","correct_side":2,"subjID":"dannavalentinaherrera16","gender":"1","age":"9","school":"4"},{"start_time":1552309951399,"click_time":1552309952560,"finger_time":1552309952081,"fix_duration":537.928380261838,"trial":29,"RT":682,"MT":479,"sideResp":1,"stimulus":"img/500/randomdotsizeEA/L/10_Ratio_500_L_4_R_2.png","xmouse":[773,773,773,773,773,773,773,773,773,773,773,773,773,773,773,773,773,773,773,773,773,773,773,773,773,773,773,773,773,773,773,773,773,786,812,844,854,858,859,859,858,845,831,812,781,739,621,602,594,590,585,571,562,553,545,538,529,526,524],"ymouse":[502,502,502,502,502,502,502,502,502,502,502,502,502,502,502,502,502,502,502,502,502,502,502,502,502,502,502,502,502,502,502,502,499,485,459,415,386,372,358,348,341,323,312,298,279,255,184,166,153,144,133,110,97,85,73,65,55,53,52],"timestamp_mouse":[3,21,43,63,82,101,121,141,163,181,202,222,241,262,282,302,321,341,363,381,402,421,441,462,481,502,521,542,562,581,601,621,642,662,682,703,721,741,761,782,801,821,842,863,882,901,921,941,961,981,1001,1022,1042,1061,1081,1103,1121,1142,1161],"xSR":741.5,"ySR":469.95,"xT1":424.9,"yT1":0,"xT2":1058.1,"yT2":0,"toosoon":0,"cond_shown":"randomdotsizeEA","ratio_trial":500,"smaller_num":"2","larger_num":"4","correct_side":1,"subjID":"dannavalentinaherrera16","gender":"1","age":"9","school":"4"},{"start_time":1552309954481,"click_time":1552309955320,"finger_time":1552309955041,"fix_duration":1179.6885804260578,"trial":30,"RT":560,"MT":279,"sideResp":2,"stimulus":"img/250/randomdotsizeEA/R/11_Ratio_250_L_3_R_12.png","xmouse":[801,801,801,801,801,801,801,801,801,801,801,801,801,801,801,801,801,801,801,801,801,801,801,801,801,803,808,813,821,835,857,915,977,1008,1032,1055,1072,1097,1112,1123,1132,1138,1148],"ymouse":[525,525,525,525,525,525,525,525,525,525,525,525,525,525,525,525,525,525,525,525,525,525,525,525,525,506,485,472,457,441,425,388,342,318,296,275,252,201,168,140,118,104,82],"timestamp_mouse":[1,19,39,60,80,101,119,140,160,181,200,219,240,259,280,300,321,339,359,379,400,419,439,459,480,499,520,539,560,580,600,621,639,660,680,701,720,740,760,779,799,820,839],"xSR":741.5,"ySR":469.95,"xT1":424.9,"yT1":0,"xT2":1058.1,"yT2":0,"toosoon":0,"cond_shown":"randomdotsizeEA","ratio_trial":250,"smaller_num":"3","larger_num":"12","correct_side":2,"subjID":"dannavalentinaherrera16","gender":"1","age":"9","school":"4"},{"start_time":1552309956484,"click_time":1552309957860,"finger_time":1552309957341,"fix_duration":281.12460490011205,"trial":31,"RT":857,"MT":519,"sideResp":1,"stimulus":"img/500/equaldotanddens/L/8_Ratio_500_L_8_R_4.png","xmouse":[820,820,820,820,820,820,820,820,820,820,820,820,820,820,820,820,820,820,820,820,820,820,820,820,820,820,820,820,820,820,820,820,820,820,820,820,820,820,820,820,820,800,759,707,671,643,622,616,610,605,604,582,559,546,542,541,541,541,541,540,538,537,537,537,537,537,536,527,508],"ymouse":[520,520,520,520,520,520,520,520,520,520,520,520,520,520,520,520,520,520,520,520,520,520,520,520,520,520,520,520,520,520,520,520,520,520,520,520,520,520,520,520,520,500,443,376,308,220,84,55,37,28,27,27,27,33,36,36,36,38,41,45,49,50,50,50,50,50,50,50,50],"timestamp_mouse":[17,37,56,76,96,116,136,156,178,196,216,236,257,276,297,318,338,358,376,397,416,438,458,476,497,516,536,558,577,596,617,638,656,677,696,717,736,758,777,796,817,837,857,876,896,917,937,958,977,997,1017,1036,1057,1077,1096,1118,1136,1157,1176,1196,1216,1236,1256,1276,1296,1316,1337,1356,1376],"xSR":741.5,"ySR":469.95,"xT1":424.9,"yT1":0,"xT2":1058.1,"yT2":0,"toosoon":0,"cond_shown":"equaldotanddens","ratio_trial":500,"smaller_num":"4","larger_num":"8","correct_side":1,"subjID":"dannavalentinaherrera16","gender":"1","age":"9","school":"4"},{"start_time":1552309959173,"click_time":1552309960220,"finger_time":1552309959820,"fix_duration":351.81531680958824,"trial":32,"RT":647,"MT":400,"sideResp":2,"stimulus":"img/900/randomdotsizeEA/L/4_Ratio_900_L_20_R_18.png","xmouse":[767,767,767,767,767,767,767,767,767,767,767,767,767,767,767,767,767,767,767,767,767,767,767,767,767,767,767,767,768,768,785,798,840,859,871,882,903,917,924,933,945,959,986,999,1011,1021,1028,1041,1046,1051,1057,1062,1074],"ymouse":[496,496,496,496,496,496,496,496,496,496,496,496,496,496,496,496,496,496,496,496,496,496,496,496,496,496,496,496,497,497,487,482,453,436,423,409,384,367,356,346,331,315,280,261,241,222,205,162,147,134,118,103,73],"timestamp_mouse":[8,28,48,68,87,107,129,148,168,187,209,228,248,268,288,309,328,347,367,388,409,427,448,468,489,508,528,547,569,588,608,627,647,667,687,707,728,748,768,787,807,827,847,867,887,908,927,947,967,987,1007,1027,1047],"xSR":741.5,"ySR":469.95,"xT1":424.9,"yT1":0,"xT2":1058.1,"yT2":0,"toosoon":0,"cond_shown":"randomdotsizeEA","ratio_trial":900,"smaller_num":"18","larger_num":"20","correct_side":1,"subjID":"dannavalentinaherrera16","gender":"1","age":"9","school":"4"},{"start_time":1552309971802,"click_time":1552309973800,"finger_time":1552309972561,"fix_duration":1240.7577663299664,"trial":33,"RT":759,"MT":1239,"sideResp":2,"stimulus":"img/750/equaldotsize/R/15_Ratio_750_L_9_R_12.png","xmouse":[768,774,777,780,781,781,781,781,781,781,781,781,781,781,781,781,781,781,781,781,781,782,782,782,782,782,782,782,782,782,782,782,782,782,782,774,766,752,728,683,613,595,587,586,586,585,580,575,569,557,549,542,539,538,561,632,678,714,738,752,755,755,755,757,777,791,793,795,798,810,845,872,905,927,963,970,977,982,998,1016,1065,1082,1093,1094,1092,1091,1091,1091,1091,1090,1089,1089,1089,1089,1089,1089,1092,1095,1098,1102],"ymouse":[527,527,527,527,527,527,527,527,527,527,527,527,527,527,527,527,527,527,527,527,527,527,527,527,527,527,527,527,527,527,527,527,527,525,521,493,481,469,457,440,416,411,408,407,407,403,390,380,364,328,302,280,264,255,252,254,260,265,269,270,271,271,271,270,261,256,254,254,253,252,244,236,227,219,207,205,202,200,197,191,177,166,158,153,148,146,146,146,146,144,144,144,144,144,144,142,133,123,107,90],"timestamp_mouse":[18,38,58,78,99,119,138,159,178,198,220,238,259,280,299,318,338,360,378,398,420,439,458,480,498,520,539,559,578,599,620,640,658,679,699,718,740,759,778,798,818,838,859,878,899,918,939,958,978,1000,1018,1038,1058,1078,1099,1120,1139,1159,1178,1198,1219,1239,1258,1279,1299,1318,1338,1358,1379,1398,1418,1438,1459,1478,1500,1518,1539,1558,1579,1598,1618,1638,1660,1678,1698,1718,1738,1758,1780,1799,1819,1838,1859,1879,1899,1918,1939,1958,1979,1998],"xSR":741.5,"ySR":469.95,"xT1":424.9,"yT1":0,"xT2":1058.1,"yT2":0,"toosoon":0,"cond_shown":"equaldotsize","ratio_trial":750,"smaller_num":"9","larger_num":"12","correct_side":2,"subjID":"dannavalentinaherrera16","gender":"1","age":"9","school":"4"},{"start_time":1552309975396,"click_time":1552309976620,"finger_time":1552309976260,"fix_duration":613.2415725649699,"trial":34,"RT":864,"MT":360,"sideResp":2,"stimulus":"img/750/equaldotsize/R/2_Ratio_750_L_6_R_8.png","xmouse":[791,791,791,791,791,791,791,791,791,791,791,791,791,791,791,791,791,791,791,791,791,791,791,791,791,791,791,791,791,791,791,791,791,791,791,791,791,791,791,791,794,807,813,819,821,826,829,831,835,837,842,858,870,888,905,942,963,1007,1048,1075,1091,1107],"ymouse":[529,529,529,529,529,529,529,529,529,529,529,529,529,529,529,529,529,529,529,529,529,529,529,529,529,529,529,529,529,529,529,529,529,529,529,529,529,529,529,527,523,497,479,462,446,413,391,379,367,358,348,324,314,301,288,253,231,197,172,149,134,97],"timestamp_mouse":[5,27,46,65,85,104,126,145,165,186,206,225,244,266,284,305,325,346,364,384,405,425,445,465,485,505,526,545,566,584,604,624,645,665,686,704,724,746,766,785,805,825,845,864,885,905,925,944,964,985,1005,1024,1044,1065,1085,1106,1124,1144,1164,1185,1204,1224],"xSR":741.5,"ySR":469.95,"xT1":424.9,"yT1":0,"xT2":1058.1,"yT2":0,"toosoon":0,"cond_shown":"equaldotsize","ratio_trial":750,"smaller_num":"6","larger_num":"8","correct_side":2,"subjID":"dannavalentinaherrera16","gender":"1","age":"9","school":"4"},{"start_time":1552309978974,"click_time":1552309979921,"finger_time":1552309979442,"fix_duration":1251.2318074353436,"trial":35,"RT":468,"MT":479,"sideResp":1,"stimulus":"img/750/equaldotanddens/L/6_Ratio_750_L_24_R_18.png","xmouse":[801,801,801,801,801,801,801,801,801,801,801,801,801,801,801,801,801,801,801,801,802,804,805,805,802,794,784,742,685,645,606,572,527,514,507,503,496,493,491,486,481,476,468,466,465,464,463,459],"ymouse":[531,531,531,531,531,531,531,531,531,531,531,531,531,531,531,531,531,531,531,531,509,502,475,456,439,417,396,351,315,293,271,253,228,218,208,199,184,177,172,162,152,139,118,112,109,108,104,92],"timestamp_mouse":[7,27,46,66,86,108,126,146,167,187,206,226,248,268,287,306,327,348,368,387,406,426,447,468,488,507,528,546,568,587,607,626,647,666,686,708,728,746,766,787,806,826,846,866,887,906,926,947],"xSR":741.5,"ySR":469.95,"xT1":424.9,"yT1":0,"xT2":1058.1,"yT2":0,"toosoon":0,"cond_shown":"equaldotanddens","ratio_trial":750,"smaller_num":"18","larger_num":"24","correct_side":1,"subjID":"dannavalentinaherrera16","gender":"1","age":"9","school":"4"},{"start_time":1552309982174,"click_time":1552309983461,"finger_time":1552309982981,"fix_duration":1212.3258326449125,"trial":36,"RT":807,"MT":480,"sideResp":2,"stimulus":"img/500/equaldotanddens/R/9_Ratio_500_L_2_R_4.png","xmouse":[778,778,778,778,778,778,778,778,778,778,778,778,778,778,778,778,778,778,778,778,778,778,778,778,778,778,778,778,778,778,778,778,778,778,778,778,778,781,800,839,887,926,966,978,992,1005,1023,1033,1039,1043,1048,1052,1057,1060,1062,1064,1068,1071,1071,1071,1071,1071,1078,1081,1085],"ymouse":[502,502,502,502,502,502,502,502,502,502,502,502,502,502,502,502,502,502,502,502,502,502,502,502,502,502,502,502,502,502,502,502,502,502,502,502,502,501,495,478,458,438,400,379,355,327,280,250,231,213,195,179,148,134,126,121,112,110,109,109,109,109,105,102,99],"timestamp_mouse":[6,26,47,67,87,108,127,147,166,188,208,227,246,267,287,307,328,346,367,386,408,426,447,466,487,507,528,546,567,587,607,626,647,667,686,707,726,748,767,787,807,828,847,866,886,908,928,946,967,987,1006,1026,1047,1067,1086,1108,1128,1147,1167,1187,1208,1227,1246,1267,1287],"xSR":741.5,"ySR":469.95,"xT1":424.9,"yT1":0,"xT2":1058.1,"yT2":0,"toosoon":0,"cond_shown":"equaldotanddens","ratio_trial":500,"smaller_num":"2","larger_num":"4","correct_side":2,"subjID":"dannavalentinaherrera16","gender":"1","age":"9","school":"4"},{"start_time":1552309987962,"click_time":1552309991660,"finger_time":1552309990922,"fix_duration":940.4579085124816,"trial":37,"RT":2960,"MT":738,"sideResp":1,"stimulus":"img/250/equaldotanddens/R/8_Ratio_250_L_1_R_4.png","xmouse":[784,784,784,784,784,784,784,784,784,784,784,784,784,784,784,784,784,784,784,784,784,784,784,784,784,784,784,784,784,784,784,784,784,784,784,784,784,784,784,784,784,784,784,784,784,784,784,784,784,785,785,785,785,785,785,785,785,785,785,785,785,785,785,785,785,785,786,787,787,787,787,787,786,779,779,779,779,779,779,779,779,779,779,779,779,779,779,779,779,779,779,779,779,779,779,779,779,779,779,779,779,779,779,779,779,779,779,779,779,779,779,779,779,779,779,779,779,779,779,779,779,779,779,779,779,779,779,779,779,779,779,779,788,788,788,788,788,788,788,788,788,788,788,788,788,788,788,706,655,642,641,641,641,644,645,648,654,659,668,671,676,681,682,684,686,687,688,688,688,688,685,681,677,677,677,677,677,679,685,690,698,676,628,557,517],"ymouse":[508,508,508,508,508,508,508,508,508,508,508,508,508,508,508,508,508,508,508,508,508,508,508,508,508,508,508,508,508,508,508,508,508,508,508,508,508,508,508,508,508,508,508,508,508,508,508,508,508,508,508,508,508,508,508,508,508,508,508,508,508,508,508,508,508,508,504,500,500,500,500,500,506,515,516,516,516,516,516,516,516,516,516,516,516,516,516,516,516,516,516,516,516,516,516,516,516,516,516,516,516,516,516,516,516,516,516,516,516,516,516,516,516,516,516,516,516,516,516,516,516,516,516,516,516,516,516,516,516,516,516,517,544,544,544,544,544,544,544,544,544,544,544,544,544,544,544,595,637,656,660,660,660,655,651,645,630,616,585,556,523,456,430,408,394,388,387,387,387,418,455,485,510,510,510,510,501,485,450,415,355,218,135,52,12],"timestamp_mouse":[19,39,59,79,99,120,139,159,180,198,218,238,259,279,298,319,339,360,379,398,418,439,460,478,498,519,539,560,580,599,619,640,659,679,699,718,740,759,779,799,818,840,858,879,899,919,940,958,979,1000,1019,1038,1058,1080,1100,1119,1139,1158,1179,1198,1219,1240,1260,1279,1299,1320,1340,1358,1378,1399,1420,1439,1459,1480,1500,1519,1539,1559,1580,1599,1618,1639,1659,1680,1700,1720,1738,1758,1780,1799,1820,1839,1859,1879,1898,1920,1938,1959,1980,2000,2020,2038,2059,2080,2100,2120,2138,2159,2180,2200,2219,2240,2259,2279,2298,2320,2340,2360,2379,2398,2419,2439,2460,2479,2499,2518,2539,2558,2580,2599,2619,2640,2658,2680,2700,2718,2739,2759,2780,2800,2820,2840,2858,2879,2899,2918,2940,2960,2980,2999,3018,3040,3059,3078,3099,3119,3140,3158,3178,3198,3218,3239,3258,3278,3299,3319,3338,3359,3378,3399,3419,3438,3458,3479,3499,3520,3540,3558,3579,3599,3618,3639,3659,3678,3698],"xSR":741.5,"ySR":469.95,"xT1":424.9,"yT1":0,"xT2":1058.1,"yT2":0,"toosoon":0,"cond_shown":"equaldotanddens","ratio_trial":250,"smaller_num":"1","larger_num":"4","correct_side":2,"subjID":"dannavalentinaherrera16","gender":"1","age":"9","school":"4"},{"start_time":1552309996170,"click_time":1552309997580,"finger_time":1552309996921,"fix_duration":508.3632922936604,"trial":38,"RT":751,"MT":659,"sideResp":2,"stimulus":"img/250/randomdotsizeEA/R/10_Ratio_250_L_4_R_16.png","xmouse":[770,770,770,770,770,770,770,770,770,770,770,770,770,770,770,770,770,770,770,770,770,770,770,770,770,770,770,770,770,770,770,770,770,770,770,770,770,792,843,879,912,964,985,1001,1013,1021,1024,1027,1031,1034,1036,1036,1037,1037,1037,1038,1040,1044,1046,1046,1046,1046,1046,1046,1046,1047,1047,1051,1059,1062,1064],"ymouse":[483,483,483,483,483,483,483,483,483,483,483,483,483,483,483,483,483,483,483,483,483,483,483,483,483,483,483,483,483,483,483,483,483,483,483,483,479,461,421,390,356,284,256,233,217,207,204,202,202,202,202,202,202,202,202,202,202,201,201,201,201,201,201,201,201,200,200,171,124,100,80],"timestamp_mouse":[11,30,50,71,92,111,131,151,170,191,212,232,251,270,291,311,331,352,372,391,412,432,451,471,490,510,531,551,572,592,610,631,650,670,692,711,730,751,771,790,811,831,851,870,890,910,932,950,971,991,1011,1032,1050,1070,1091,1111,1130,1150,1170,1190,1210,1232,1252,1270,1290,1311,1330,1350,1372,1391,1410],"xSR":741.5,"ySR":469.95,"xT1":424.9,"yT1":0,"xT2":1058.1,"yT2":0,"toosoon":0,"cond_shown":"randomdotsizeEA","ratio_trial":250,"smaller_num":"4","larger_num":"16","correct_side":2,"subjID":"dannavalentinaherrera16","gender":"1","age":"9","school":"4"},{"start_time":1552309999070,"click_time":1552310000320,"finger_time":1552309999761,"fix_duration":489.7732250575871,"trial":39,"RT":691,"MT":559,"sideResp":1,"stimulus":"img/750/randomdotsizeEA/L/8_Ratio_750_L_4_R_3.png","xmouse":[821,821,821,821,821,821,821,821,821,821,821,821,821,821,821,821,821,821,821,821,821,821,821,821,821,821,821,821,821,821,821,821,821,825,832,838,844,849,849,839,827,813,775,745,727,712,683,671,660,647,636,626,610,605,602,597,594,585,582,580,574,561,520],"ymouse":[531,531,531,531,531,531,531,531,531,531,531,531,531,531,531,531,531,531,531,531,531,531,531,531,531,531,531,531,531,531,531,529,515,488,465,439,406,343,318,299,283,270,255,247,244,241,235,232,227,221,217,211,180,148,118,92,70,47,44,44,43,43,43],"timestamp_mouse":[11,32,53,71,90,112,132,150,171,191,212,232,251,271,291,310,332,352,372,391,411,430,452,472,490,511,532,551,572,590,610,631,651,670,691,712,732,751,770,790,810,830,850,872,890,911,931,951,970,990,1010,1032,1051,1071,1090,1111,1130,1150,1170,1192,1211,1231,1250],"xSR":741.5,"ySR":469.95,"xT1":424.9,"yT1":0,"xT2":1058.1,"yT2":0,"toosoon":0,"cond_shown":"randomdotsizeEA","ratio_trial":750,"smaller_num":"3","l