[{"start_time":1552308478403,"click_time":1552308486183,"finger_time":1552308484081,"fix_duration":499.7656088101,"trial":0,"RT":5678,"MT":2102,"sideResp":2,"stimulus":[],"xmouse":[773,773,773,773,773,773,773,773,773,773,773,773,773,773,773,773,773,773,773,773,773,773,773,773,773,773,773,773,773,773,773,773,773,773,773,773,773,773,773,773,773,773,773,773,773,773,773,773,773,773,773,773,773,773,773,773,773,773,773,773,773,773,773,773,773,773,773,773,773,773,773,773,773,773,773,773,773,773,773,773,773,773,773,773,773,773,773,773,773,773,773,773,773,773,773,773,773,773,773,773,773,773,773,773,773,773,773,773,773,773,773,773,773,773,773,773,773,773,773,773,773,773,773,773,773,773,773,773,773,773,773,773,773,773,773,773,773,773,773,773,773,773,773,773,773,773,773,773,773,773,773,773,773,773,773,773,773,773,773,773,773,773,773,773,773,773,773,773,773,773,773,773,773,773,773,773,773,773,773,773,773,773,773,773,773,773,773,773,773,773,773,773,773,773,773,773,773,773,773,773,773,773,773,773,773,773,773,773,773,773,773,773,773,773,773,773,773,773,773,773,773,773,773,773,773,773,773,773,773,773,773,773,773,773,773,773,773,773,773,773,773,773,773,773,773,773,773,773,773,773,773,773,773,776,778,781,784,786,786,786,786,786,786,786,786,786,786,786,786,786,786,786,786,786,786,786,786,786,786,786,786,788,791,803,822,822,822,822,822,822,822,822,822,822,822,822,822,1205,1106,1006,998,1007,1024,1034,1037,1037,1037,1037,1037,1037,1037,1037,1044,1063,1078,1085,1080,1069,1044,1022,990,977,964,950,934,904,877,870,858,854,852,850,847,844,840,832,831,830,830,830,823,820,815,811,806,805,805,805,805,805,804,804,804,804,804,804,804,803,801,800,800,800,800,800,800,800,800,800,800,801,809,820,830,840,859,898,917,939,948,955,966,972,980,993,1016,1048,1054,1055,1058,1063],"ymouse":[561,561,561,561,561,561,561,561,561,561,561,561,561,561,561,561,561,561,561,561,561,561,561,561,561,561,561,561,561,561,561,561,561,561,561,561,561,561,561,561,561,561,561,561,561,561,561,561,561,561,561,561,561,561,561,561,561,561,561,561,561,561,561,561,561,561,561,561,561,561,561,561,561,561,561,561,561,561,561,561,561,561,561,561,561,561,561,561,561,561,561,561,561,561,561,561,561,561,561,561,561,561,561,561,561,561,561,561,561,561,561,561,561,561,561,561,561,561,561,561,561,561,561,561,561,561,561,561,561,561,561,561,561,561,561,561,561,561,561,561,561,561,561,561,561,561,561,561,561,561,561,561,561,561,561,561,561,561,561,561,561,561,561,561,561,561,561,561,561,561,561,561,561,561,561,561,561,561,561,561,561,561,561,561,561,561,561,561,561,561,561,561,561,561,561,561,561,561,561,561,561,561,561,561,561,561,561,561,561,561,561,561,561,561,561,561,561,561,561,561,561,561,561,561,561,561,561,561,561,561,561,561,561,561,561,561,561,561,561,561,561,561,561,561,561,561,561,561,561,561,561,561,561,556,541,530,519,506,501,501,501,501,501,501,501,501,501,501,501,501,501,501,501,501,501,501,501,501,501,501,501,502,512,561,691,691,691,691,691,691,691,691,691,691,691,691,691,654,522,276,174,103,58,36,30,30,30,30,36,48,101,123,152,191,218,251,266,286,309,320,327,327,328,329,331,332,338,340,347,357,366,375,385,398,412,437,438,440,440,440,447,452,458,461,466,467,467,467,467,469,475,479,482,483,485,494,499,508,518,520,520,520,520,520,520,520,520,520,520,520,512,497,478,453,412,313,268,218,196,180,161,152,140,123,96,61,56,55,55,55],"timestamp_mouse":[1,22,38,60,78,99,120,139,158,179,198,219,239,259,279,298,318,338,358,378,398,418,440,458,479,500,518,538,559,579,598,618,639,660,678,698,719,738,759,778,798,819,839,858,878,899,918,938,958,978,999,1019,1039,1059,1079,1100,1118,1139,1159,1179,1199,1218,1239,1259,1280,1298,1319,1338,1358,1379,1398,1418,1439,1458,1480,1498,1519,1538,1559,1580,1599,1618,1639,1660,1679,1699,1718,1740,1759,1779,1799,1818,1838,1858,1879,1899,1920,1939,1958,1978,1999,2019,2040,2059,2079,2098,2118,2138,2159,2178,2199,2220,2238,2259,2279,2298,2320,2338,2358,2379,2398,2418,2438,2458,2479,2498,2519,2538,2560,2579,2598,2618,2638,2660,2678,2698,2719,2738,2759,2780,2798,2819,2839,2858,2879,2898,2919,2939,2958,2980,2998,3018,3038,3059,3079,3100,3119,3138,3159,3179,3198,3219,3239,3258,3278,3298,3318,3338,3359,3379,3398,3419,3439,3459,3479,3499,3519,3538,3560,3578,3598,3619,3639,3658,3678,3698,3718,3739,3759,3779,3798,3818,3838,3858,3879,3898,3919,3939,3958,3978,3999,4019,4039,4058,4078,4099,4118,4138,4158,4179,4198,4219,4238,4259,4278,4298,4318,4340,4358,4379,4400,4418,4438,4458,4478,4498,4518,4539,4560,4579,4600,4618,4639,4659,4678,4698,4719,4738,4758,4779,4799,4818,4839,4860,4880,4898,4918,4938,4958,4979,4998,5019,5038,5058,5079,5098,5118,5138,5158,5178,5198,5219,5239,5258,5278,5300,5319,5338,5358,5378,5399,5420,5438,5458,5479,5498,5519,5539,5558,5578,5598,5618,5640,5658,5678,5698,5718,5738,5758,5778,5798,5819,5838,5859,5880,5898,5919,5940,5958,5979,5999,6018,6039,6058,6080,6098,6118,6138,6158,6180,6198,6218,6238,6259,6280,6298,6319,6338,6359,6378,6399,6418,6438,6459,6478,6498,6519,6538,6558,6579,6598,6618,6638,6660,6680,6700,6718,6740,6758,6778,6798,6818,6839,6859,6878,6899,6920,6938,6958,6980,6999,7019,7040,7059,7078,7098,7120,7139,7158,7179,7198,7218,7238,7258,7278,7298,7320,7338,7358,7379,7399,7418,7439,7458,7480,7498,7518,7538,7559,7578,7598,7618,7638,7658,7679,7698,7718,7738,7758,7780],"xSR":741.5,"ySR":500.5,"xT1":424.9,"yT1":0,"xT2":1058.1,"yT2":0,"toosoon":0,"cond_shown":"Congruent","ratio_trial":100,"L_num":7,"L_den":14,"R_num":15,"R_den":25,"correct_side":2,"subjID":"dannavalentinaherera16","gender":"1","age":"9","school":"4","test":{"fix_dur":[250,1500],"timestim":1000,"targets_dim":[100,100],"targets_relative_coord":[0.3,0.7],"size_stim":[880,420],"start_dim":[100,100],"size_start":[300,300],"size_fix":60,"samplingrate":20,"img_types":["Congruent","Incongruent"],"ratios":[100,200,300],"rep_conds":19,"nTrials":120,"trials_to_rest":500,"Trials_order":[48,80,49,24,40,5,8,115,76,89,50,59,116,101,23,100,20,79,102,41,37,73,64,7,87,83,108,96,60,77,6,84,56,44,30,113,65,26,68,14,82,45,38,32,35,97,95,104,62,3,11,12,22,13,109,72,43,98,107,4,118,27,19,114,69,47,39,15,70,17,117,53,18,0,21,86,46,10,25,91,51,94,9,58,55,67,92,78,52,2,31,36,103,88,112,106,1,81,33,119,71,63,90,34,85,61,93,105,42,54,57,99,29,16,28,110,74,75,111,66],"cond_shown":["Congruent","Congruent","Incongruent","Congruent","Congruent","Incongruent","Congruent","Incongruent","Congruent","Incongruent","Congruent","Incongruent","Congruent","Incongruent","Incongruent","Congruent","Congruent","Incongruent","Congruent","Incongruent","Incongruent","Incongruent","Congruent","Incongruent","Incongruent","Incongruent","Congruent","Congruent","Congruent","Incongruent","Congruent","Congruent","Congruent","Congruent","Congruent","Incongruent","Incongruent","Congruent","Congruent","Congruent","Congruent","Incongruent","Congruent","Congruent","Incongruent","Incongruent","Incongruent","Congruent","Congruent","Incongruent","Incongruent","Congruent","Congruent","Incongruent","Incongruent","Congruent","Incongruent","Congruent","Incongruent","Congruent","Congruent","Incongruent","Incongruent","Congruent","Incongruent","Incongruent","Incongruent","Incongruent","Congruent","Incongruent","Incongruent","Incongruent","Congruent","Congruent","Incongruent","Congruent","Congruent","Congruent","Incongruent","Incongruent","Incongruent","Congruent","Incongruent","Congruent","Incongruent","Incongruent","Congruent","Congruent","Congruent","Congruent","Incongruent","Congruent","Incongruent","Congruent","Congruent","Congruent","Incongruent","Incongruent","Incongruent","Incongruent","Incongruent","Incongruent","Congruent","Congruent","Incongruent","Incongruent","Incongruent","Incongruent","Congruent","Congruent","Incongruent","Incongruent","Incongruent","Congruent","Congruent","Congruent","Congruent","Incongruent","Incongruent","Congruent"],"ratio_trial":[100,200,100,100,300,300,200,100,300,300,200,300,200,300,300,300,200,100,100,300,100,100,300,100,200,300,100,100,100,300,100,100,200,200,100,300,300,200,200,200,300,200,200,200,300,100,300,200,200,200,300,100,300,100,100,100,100,200,300,300,300,200,100,100,200,300,200,200,300,300,200,300,100,100,200,200,300,300,100,100,200,300,200,300,100,100,200,100,300,200,100,100,100,300,300,300,100,200,200,300,300,200,100,300,100,100,200,200,100,100,200,200,300,300,300,200,200,200,200,100],"left_num":[7,13,9,3,20,8,9,11,20,13,3,4,13,4,3,11,4,8,6,3,8,8,20,12,14,4,12,4,4,8,9,6,7,4,1,8,4,3,20,6,4,7,3,9,8,9,4,14,8,11,4,1,11,4,13,11,1,13,7,1,11,7,10,3,11,1,9,7,24,13,11,13,12,1,6,12,7,3,2,3,7,3,7,1,3,6,7,4,11,7,10,4,9,4,5,20,9,14,7,3,8,9,3,5,9,6,7,9,10,11,4,9,13,20,1,16,9,4,4,3],"right_num":[15,14,13,4,8,9,13,9,9,12,9,2,14,2,4,4,3,6,15,4,1,6,9,2,12,2,13,15,6,9,8,15,18,3,18,9,6,14,9,11,13,12,7,13,9,13,6,6,7,3,2,18,4,8,12,4,8,14,8,8,1,8,9,4,3,3,8,12,2,12,3,12,13,18,3,6,20,4,6,8,12,2,8,7,11,11,2,15,1,18,9,15,14,1,7,14,14,6,4,4,14,8,2,7,14,3,12,8,3,6,1,8,12,14,3,9,13,6,6,2],"left_den":[14,26,15,20,25,10,30,22,25,26,12,20,26,20,6,22,8,16,12,6,20,16,25,30,30,20,30,10,8,10,15,12,15,8,2,10,5,6,25,20,20,10,10,30,10,15,5,28,15,20,20,2,22,8,26,22,2,26,10,30,22,10,25,20,20,2,15,10,30,26,20,26,30,2,20,15,14,6,4,5,10,6,10,20,5,10,21,10,22,15,25,10,15,10,25,25,15,30,15,6,10,15,6,25,15,12,10,15,25,22,30,15,26,25,5,30,30,5,5,6],"right_den":[25,20,26,16,16,18,26,15,18,15,20,4,20,4,20,20,10,10,25,20,2,10,18,4,18,4,26,30,10,18,16,25,27,10,30,18,12,20,15,22,26,24,14,26,18,26,12,20,21,4,4,30,20,20,20,10,20,20,20,24,5,16,18,16,4,15,10,24,4,15,4,15,26,30,6,10,25,5,15,16,24,10,16,20,22,22,15,30,5,27,18,30,28,10,14,28,28,9,6,20,28,10,5,14,28,5,24,10,10,15,3,10,15,28,6,27,26,10,10,5],"correct_side":[2,2,1,2,1,1,2,2,1,2,2,2,2,2,1,1,1,2,2,1,2,2,1,2,2,2,2,2,2,1,1,2,2,1,2,1,1,2,1,2,2,1,2,2,1,1,1,1,1,2,2,2,1,1,2,1,1,2,1,2,1,1,2,2,2,1,2,1,1,2,2,2,2,2,2,1,2,2,1,1,1,1,1,2,1,1,1,2,1,2,2,2,1,1,2,1,1,2,2,1,1,2,1,2,1,2,1,2,1,1,2,2,2,1,2,1,2,1,1,1],"img_shown":["img2/100/Congruent/R/C_Dist_100_LN_7_LD_14_RN_15_RD_25_1.png","img2/200/Congruent/R/C_Dist_200_LN_13_LD_26_RN_14_RD_20_1.png","img2/100/Incongruent/L/I_Dist_100_LN_9_LD_15_RN_13_RD_26_0.png","img2/100/Congruent/R/C_Dist_100_LN_3_LD_20_RN_4_RD_16_1.png","img2/300/Congruent/L/C_Dist_300_LN_20_LD_25_RN_8_RD_16_0.png","img2/300/Incongruent/L/I_Dist_300_LN_8_LD_10_RN_9_RD_18_0.png","img2/200/Congruent/R/C_Dist_200_LN_9_LD_30_RN_13_RD_26_1.png","img2/100/Incongruent/R/I_Dist_100_LN_11_LD_22_RN_9_RD_15_1.png","img2/300/Congruent/L/C_Dist_300_LN_20_LD_25_RN_9_RD_18_0.png","img2/300/Incongruent/R/I_Dist_300_LN_13_LD_26_RN_12_RD_15_1.png","img2/200/Congruent/R/C_Dist_200_LN_3_LD_12_RN_9_RD_20_1.png","img2/300/Incongruent/R/I_Dist_300_LN_4_LD_20_RN_2_RD_4_1.png","img2/200/Congruent/R/C_Dist_200_LN_13_LD_26_RN_14_RD_20_1.png","img2/300/Incongruent/R/I_Dist_300_LN_4_LD_20_RN_2_RD_4_1.png","img2/300/Incongruent/L/I_Dist_300_LN_3_LD_6_RN_4_RD_20_0.png","img2/300/Congruent/L/C_Dist_300_LN_11_LD_22_RN_4_RD_20_0.png","img2/200/Congruent/L/C_Dist_200_LN_4_LD_8_RN_3_RD_10_0.png","img2/100/Incongruent/R/I_Dist_100_LN_8_LD_16_RN_6_RD_10_1.png","img2/100/Congruent/R/C_Dist_100_LN_6_LD_12_RN_15_RD_25_1.png","img2/300/Incongruent/L/I_Dist_300_LN_3_LD_6_RN_4_RD_20_0.png","img2/100/Incongruent/R/I_Dist_100_LN_8_LD_20_RN_1_RD_2_1.png","img2/100/Incongruent/R/I_Dist_100_LN_8_LD_16_RN_6_RD_10_1.png","img2/300/Congruent/L/C_Dist_300_LN_20_LD_25_RN_9_RD_18_0.png","img2/100/Incongruent/R/I_Dist_100_LN_12_LD_30_RN_2_RD_4_1.png","img2/200/Incongruent/R/I_Dist_200_LN_14_LD_30_RN_12_RD_18_1.png","img2/300/Incongruent/R/I_Dist_300_LN_4_LD_20_RN_2_RD_4_1.png","img2/100/Congruent/R/C_Dist_100_LN_12_LD_30_RN_13_RD_26_1.png","img2/100/Congruent/R/C_Dist_100_LN_4_LD_10_RN_15_RD_30_1.png","img2/100/Congruent/R/C_Dist_100_LN_4_LD_8_RN_6_RD_10_1.png","img2/300/Incongruent/L/I_Dist_300_LN_8_LD_10_RN_9_RD_18_0.png","img2/100/Congruent/L/C_Dist_100_LN_9_LD_15_RN_8_RD_16_0.png","img2/100/Congruent/R/C_Dist_100_LN_6_LD_12_RN_15_RD_25_1.png","img2/200/Congruent/R/C_Dist_200_LN_7_LD_15_RN_18_RD_27_1.png","img2/200/Congruent/L/C_Dist_200_LN_4_LD_8_RN_3_RD_10_0.png","img2/100/Congruent/R/C_Dist_100_LN_1_LD_2_RN_18_RD_30_1.png","img2/300/Incongruent/L/I_Dist_300_LN_8_LD_10_RN_9_RD_18_0.png","img2/300/Incongruent/L/I_Dist_300_LN_4_LD_5_RN_6_RD_12_0.png","img2/200/Congruent/R/C_Dist_200_LN_3_LD_6_RN_14_RD_20_1.png","img2/200/Congruent/L/C_Dist_200_LN_20_LD_25_RN_9_RD_15_0.png","img2/200/Congruent/R/C_Dist_200_LN_6_LD_20_RN_11_RD_22_1.png","img2/300/Congruent/R/C_Dist_300_LN_4_LD_20_RN_13_RD_26_1.png","img2/200/Incongruent/L/I_Dist_200_LN_7_LD_10_RN_12_RD_24_0.png","img2/200/Congruent/R/C_Dist_200_LN_3_LD_10_RN_7_RD_14_1.png","img2/200/Congruent/R/C_Dist_200_LN_9_LD_30_RN_13_RD_26_1.png","img2/300/Incongruent/L/I_Dist_300_LN_8_LD_10_RN_9_RD_18_0.png","img2/100/Incongruent/L/I_Dist_100_LN_9_LD_15_RN_13_RD_26_0.png","img2/300/Incongruent/L/I_Dist_300_LN_4_LD_5_RN_6_RD_12_0.png","img2/200/Congruent/L/C_Dist_200_LN_14_LD_28_RN_6_RD_20_0.png","img2/200/Congruent/L/C_Dist_200_LN_8_LD_15_RN_7_RD_21_0.png","img2/200/Incongruent/R/I_Dist_200_LN_11_LD_20_RN_3_RD_4_1.png","img2/300/Incongruent/R/I_Dist_300_LN_4_LD_20_RN_2_RD_4_1.png","img2/100/Congruent/R/C_Dist_100_LN_1_LD_2_RN_18_RD_30_1.png","img2/300/Congruent/L/C_Dist_300_LN_11_LD_22_RN_4_RD_20_0.png","img2/100/Incongruent/L/I_Dist_100_LN_4_LD_8_RN_8_RD_20_0.png","img2/100/Incongruent/R/I_Dist_100_LN_13_LD_26_RN_12_RD_20_1.png","img2/100/Congruent/L/C_Dist_100_LN_11_LD_22_RN_4_RD_10_0.png","img2/100/Incongruent/L/I_Dist_100_LN_1_LD_2_RN_8_RD_20_0.png","img2/200/Congruent/R/C_Dist_200_LN_13_LD_26_RN_14_RD_20_1.png","img2/300/Incongruent/L/I_Dist_300_LN_7_LD_10_RN_8_RD_20_0.png","img2/300/Congruent/R/C_Dist_300_LN_1_LD_30_RN_8_RD_24_1.png","img2/300/Congruent/L/C_Dist_300_LN_11_LD_22_RN_1_RD_5_0.png","img2/200/Incongruent/L/I_Dist_200_LN_7_LD_10_RN_8_RD_16_0.png","img2/100/Incongruent/R/I_Dist_100_LN_10_LD_25_RN_9_RD_18_1.png","img2/100/Congruent/R/C_Dist_100_LN_3_LD_20_RN_4_RD_16_1.png","img2/200/Incongruent/R/I_Dist_200_LN_11_LD_20_RN_3_RD_4_1.png","img2/300/Incongruent/L/I_Dist_300_LN_1_LD_2_RN_3_RD_15_0.png","img2/200/Incongruent/R/I_Dist_200_LN_9_LD_15_RN_8_RD_10_1.png","img2/200/Incongruent/L/I_Dist_200_LN_7_LD_10_RN_12_RD_24_0.png","img2/300/Congruent/L/C_Dist_300_LN_24_LD_30_RN_2_RD_4_0.png","img2/300/Incongruent/R/I_Dist_300_LN_13_LD_26_RN_12_RD_15_1.png","img2/200/Incongruent/R/I_Dist_200_LN_11_LD_20_RN_3_RD_4_1.png","img2/300/Incongruent/R/I_Dist_300_LN_13_LD_26_RN_12_RD_15_1.png","img2/100/Congruent/R/C_Dist_100_LN_12_LD_30_RN_13_RD_26_1.png","img2/100/Congruent/R/C_Dist_100_LN_1_LD_2_RN_18_RD_30_1.png","img2/200/Incongruent/R/I_Dist_200_LN_6_LD_20_RN_3_RD_6_1.png","img2/200/Congruent/L/C_Dist_200_LN_12_LD_15_RN_6_RD_10_0.png","img2/300/Congruent/R/C_Dist_300_LN_7_LD_14_RN_20_RD_25_1.png","img2/300/Congruent/R/C_Dist_300_LN_3_LD_6_RN_4_RD_5_1.png","img2/100/Incongruent/L/I_Dist_100_LN_2_LD_4_RN_6_RD_15_0.png","img2/100/Incongruent/L/I_Dist_100_LN_3_LD_5_RN_8_RD_16_0.png","img2/200/Incongruent/L/I_Dist_200_LN_7_LD_10_RN_12_RD_24_0.png","img2/300/Congruent/L/C_Dist_300_LN_3_LD_6_RN_2_RD_10_0.png","img2/200/Incongruent/L/I_Dist_200_LN_7_LD_10_RN_8_RD_16_0.png","img2/300/Congruent/R/C_Dist_300_LN_1_LD_20_RN_7_RD_20_1.png","img2/100/Incongruent/L/I_Dist_100_LN_3_LD_5_RN_11_RD_22_0.png","img2/100/Incongruent/L/I_Dist_100_LN_6_LD_10_RN_11_RD_22_0.png","img2/200/Congruent/L/C_Dist_200_LN_7_LD_21_RN_2_RD_15_0.png","img2/100/Congruent/R/C_Dist_100_LN_4_LD_10_RN_15_RD_30_1.png","img2/300/Congruent/L/C_Dist_300_LN_11_LD_22_RN_1_RD_5_0.png","img2/200/Congruent/R/C_Dist_200_LN_7_LD_15_RN_18_RD_27_1.png","img2/100/Incongruent/R/I_Dist_100_LN_10_LD_25_RN_9_RD_18_1.png","img2/100/Congruent/R/C_Dist_100_LN_4_LD_10_RN_15_RD_30_1.png","img2/100/Incongruent/L/I_Dist_100_LN_9_LD_15_RN_14_RD_28_0.png","img2/300/Congruent/L/C_Dist_300_LN_4_LD_10_RN_1_RD_10_0.png","img2/300/Congruent/R/C_Dist_300_LN_5_LD_25_RN_7_RD_14_1.png","img2/300/Congruent/L/C_Dist_300_LN_20_LD_25_RN_14_RD_28_0.png","img2/100/Incongruent/L/I_Dist_100_LN_9_LD_15_RN_14_RD_28_0.png","img2/200/Incongruent/R/I_Dist_200_LN_14_LD_30_RN_6_RD_9_1.png","img2/200/Incongruent/R/I_Dist_200_LN_7_LD_15_RN_4_RD_6_1.png","img2/300/Incongruent/L/I_Dist_300_LN_3_LD_6_RN_4_RD_20_0.png","img2/300/Incongruent/L/I_Dist_300_LN_8_LD_10_RN_14_RD_28_0.png","img2/200/Incongruent/R/I_Dist_200_LN_9_LD_15_RN_8_RD_10_1.png","img2/100/Congruent/L/C_Dist_100_LN_3_LD_6_RN_2_RD_5_0.png","img2/300/Congruent/R/C_Dist_300_LN_5_LD_25_RN_7_RD_14_1.png","img2/100/Incongruent/L/I_Dist_100_LN_9_LD_15_RN_14_RD_28_0.png","img2/100/Incongruent/R/I_Dist_100_LN_6_LD_12_RN_3_RD_5_1.png","img2/200/Incongruent/L/I_Dist_200_LN_7_LD_10_RN_12_RD_24_0.png","img2/200/Incongruent/R/I_Dist_200_LN_9_LD_15_RN_8_RD_10_1.png","img2/100/Congruent/L/C_Dist_100_LN_10_LD_25_RN_3_RD_10_0.png","img2/100/Congruent/L/C_Dist_100_LN_11_LD_22_RN_6_RD_15_0.png","img2/200/Incongruent/R/I_Dist_200_LN_4_LD_30_RN_1_RD_3_1.png","img2/200/Incongruent/R/I_Dist_200_LN_9_LD_15_RN_8_RD_10_1.png","img2/300/Incongruent/R/I_Dist_300_LN_13_LD_26_RN_12_RD_15_1.png","img2/300/Congruent/L/C_Dist_300_LN_20_LD_25_RN_14_RD_28_0.png","img2/300/Congruent/R/C_Dist_300_LN_1_LD_5_RN_3_RD_6_1.png","img2/200/Congruent/L/C_Dist_200_LN_16_LD_30_RN_9_RD_27_0.png","img2/200/Congruent/R/C_Dist_200_LN_9_LD_30_RN_13_RD_26_1.png","img2/200/Incongruent/L/I_Dist_200_LN_4_LD_5_RN_6_RD_10_0.png","img2/200/Incongruent/L/I_Dist_200_LN_4_LD_5_RN_6_RD_10_0.png","img2/100/Congruent/L/C_Dist_100_LN_3_LD_6_RN_2_RD_5_0.png"],"dist100_C":[["C_Dist_100_LN_10_LD_25_RN_3_RD_10_0.png","C_Dist_100_LN_11_LD_22_RN_4_RD_10_0.png","C_Dist_100_LN_11_LD_22_RN_6_RD_15_0.png","C_Dist_100_LN_15_LD_25_RN_13_RD_26_0.png","C_Dist_100_LN_3_LD_6_RN_2_RD_5_0.png","C_Dist_100_LN_6_LD_20_RN_5_RD_25_0.png","C_Dist_100_LN_8_LD_16_RN_2_RD_5_0.png","C_Dist_100_LN_9_LD_15_RN_8_RD_16_0.png"],["C_Dist_100_LN_1_LD_2_RN_18_RD_30_1.png","C_Dist_100_LN_1_LD_2_RN_3_RD_5_1.png","C_Dist_100_LN_12_LD_30_RN_13_RD_26_1.png","C_Dist_100_LN_2_LD_5_RN_11_RD_22_1.png","C_Dist_100_LN_2_LD_5_RN_6_RD_12_1.png","C_Dist_100_LN_3_LD_20_RN_4_RD_16_1.png","C_Dist_100_LN_4_LD_10_RN_15_RD_30_1.png","C_Dist_100_LN_4_LD_8_RN_6_RD_10_1.png","C_Dist_100_LN_6_LD_12_RN_15_RD_25_1.png","C_Dist_100_LN_7_LD_14_RN_15_RD_25_1.png","C_Dist_100_LN_7_LD_14_RN_9_RD_15_1.png"]],"dist100_I":[["I_Dist_100_LN_1_LD_2_RN_8_RD_20_0.png","I_Dist_100_LN_2_LD_4_RN_6_RD_15_0.png","I_Dist_100_LN_2_LD_4_RN_8_RD_20_0.png","I_Dist_100_LN_3_LD_5_RN_11_RD_22_0.png","I_Dist_100_LN_3_LD_5_RN_8_RD_16_0.png","I_Dist_100_LN_3_LD_6_RN_4_RD_10_0.png","I_Dist_100_LN_3_LD_9_RN_7_RD_30_0.png","I_Dist_100_LN_4_LD_8_RN_8_RD_20_0.png","I_Dist_100_LN_6_LD_10_RN_11_RD_22_0.png","I_Dist_100_LN_6_LD_10_RN_13_RD_26_0.png","I_Dist_100_LN_6_LD_10_RN_7_RD_14_0.png","I_Dist_100_LN_9_LD_10_RN_20_RD_25_0.png","I_Dist_100_LN_9_LD_15_RN_13_RD_26_0.png","I_Dist_100_LN_9_LD_15_RN_14_RD_28_0.png"],["I_Dist_100_LN_10_LD_25_RN_8_RD_16_1.png","I_Dist_100_LN_10_LD_25_RN_9_RD_18_1.png","I_Dist_100_LN_11_LD_22_RN_9_RD_15_1.png","I_Dist_100_LN_12_LD_24_RN_9_RD_15_1.png","I_Dist_100_LN_12_LD_30_RN_2_RD_4_1.png","I_Dist_100_LN_13_LD_26_RN_12_RD_20_1.png","I_Dist_100_LN_13_LD_26_RN_6_RD_10_1.png","I_Dist_100_LN_17_LD_30_RN_10_RD_15_1.png","I_Dist_100_LN_6_LD_12_RN_3_RD_5_1.png","I_Dist_100_LN_8_LD_16_RN_6_RD_10_1.png","I_Dist_100_LN_8_LD_20_RN_1_RD_2_1.png","I_Dist_100_LN_9_LD_18_RN_6_RD_10_1.png"]],"dist100_S":[["E_Dist_100_LN_2_LD_12_RN_2_RD_30_0.png","E_Dist_100_LN_6_LD_10_RN_6_RD_12_0.png"],["E_Dist_100_LN_6_LD_12_RN_6_RD_10_1.png"]],"dist200_C":[["C_Dist_200_LN_11_LD_22_RN_3_RD_10_0.png","C_Dist_200_LN_12_LD_15_RN_6_RD_10_0.png","C_Dist_200_LN_12_LD_20_RN_6_RD_15_0.png","C_Dist_200_LN_14_LD_28_RN_6_RD_20_0.png","C_Dist_200_LN_15_LD_25_RN_4_RD_10_0.png","C_Dist_200_LN_16_LD_20_RN_12_RD_20_0.png","C_Dist_200_LN_16_LD_30_RN_9_RD_27_0.png","C_Dist_200_LN_20_LD_25_RN_9_RD_15_0.png","C_Dist_200_LN_21_LD_30_RN_2_RD_4_0.png","C_Dist_200_LN_4_LD_10_RN_3_RD_15_0.png","C_Dist_200_LN_4_LD_8_RN_3_RD_10_0.png","C_Dist_200_LN_6_LD_15_RN_3_RD_15_0.png","C_Dist_200_LN_7_LD_21_RN_2_RD_15_0.png","C_Dist_200_LN_8_LD_15_RN_2_RD_6_0.png","C_Dist_200_LN_8_LD_15_RN_3_RD_9_0.png","C_Dist_200_LN_8_LD_15_RN_7_RD_21_0.png","C_Dist_200_LN_9_LD_20_RN_4_RD_16_0.png"],["C_Dist_200_LN_1_LD_2_RN_21_RD_30_1.png","C_Dist_200_LN_13_LD_26_RN_14_RD_20_1.png","C_Dist_200_LN_3_LD_10_RN_11_RD_22_1.png","C_Dist_200_LN_3_LD_10_RN_14_RD_28_1.png","C_Dist_200_LN_3_LD_10_RN_7_RD_14_1.png","C_Dist_200_LN_3_LD_12_RN_9_RD_20_1.png","C_Dist_200_LN_3_LD_6_RN_14_RD_20_1.png","C_Dist_200_LN_5_LD_10_RN_14_RD_20_1.png","C_Dist_200_LN_6_LD_12_RN_7_RD_10_1.png","C_Dist_200_LN_6_LD_20_RN_11_RD_22_1.png","C_Dist_200_LN_7_LD_15_RN_18_RD_27_1.png","C_Dist_200_LN_9_LD_30_RN_13_RD_26_1.png"]],"dist200_I":[["I_Dist_200_LN_1_LD_2_RN_3_RD_10_0.png","I_Dist_200_LN_1_LD_3_RN_2_RD_15_0.png","I_Dist_200_LN_3_LD_4_RN_11_RD_20_0.png","I_Dist_200_LN_4_LD_5_RN_6_RD_10_0.png","I_Dist_200_LN_4_LD_6_RN_14_RD_30_0.png","I_Dist_200_LN_7_LD_10_RN_12_RD_24_0.png","I_Dist_200_LN_7_LD_10_RN_14_RD_28_0.png","I_Dist_200_LN_7_LD_10_RN_8_RD_16_0.png"],["I_Dist_200_LN_11_LD_20_RN_3_RD_4_1.png","I_Dist_200_LN_14_LD_30_RN_12_RD_18_1.png","I_Dist_200_LN_14_LD_30_RN_6_RD_9_1.png","I_Dist_200_LN_3_LD_10_RN_1_RD_2_1.png","I_Dist_200_LN_4_LD_30_RN_1_RD_3_1.png","I_Dist_200_LN_6_LD_20_RN_3_RD_6_1.png","I_Dist_200_LN_7_LD_15_RN_4_RD_6_1.png","I_Dist_200_LN_7_LD_15_RN_6_RD_9_1.png","I_Dist_200_LN_9_LD_15_RN_8_RD_10_1.png"]],"dist200_S":[["E_Dist_200_LN_3_LD_6_RN_3_RD_10_0.png"],["E_Dist_200_LN_3_LD_10_RN_3_RD_6_1.png"]],"dist300_C":[["C_Dist_300_LN_11_LD_22_RN_1_RD_5_0.png","C_Dist_300_LN_11_LD_22_RN_2_RD_10_0.png","C_Dist_300_LN_11_LD_22_RN_4_RD_20_0.png","C_Dist_300_LN_12_LD_24_RN_2_RD_10_0.png","C_Dist_300_LN_18_LD_20_RN_9_RD_15_0.png","C_Dist_300_LN_20_LD_25_RN_13_RD_26_0.png","C_Dist_300_LN_20_LD_25_RN_14_RD_28_0.png","C_Dist_300_LN_20_LD_25_RN_5_RD_10_0.png","C_Dist_300_LN_20_LD_25_RN_8_RD_16_0.png","C_Dist_300_LN_20_LD_25_RN_9_RD_18_0.png","C_Dist_300_LN_24_LD_30_RN_2_RD_4_0.png","C_Dist_300_LN_24_LD_30_RN_8_RD_16_0.png","C_Dist_300_LN_3_LD_6_RN_2_RD_10_0.png","C_Dist_300_LN_4_LD_10_RN_1_RD_10_0.png","C_Dist_300_LN_4_LD_5_RN_2_RD_4_0.png","C_Dist_300_LN_8_LD_16_RN_1_RD_5_0.png","C_Dist_300_LN_9_LD_10_RN_3_RD_5_0.png"],["C_Dist_300_LN_1_LD_20_RN_7_RD_20_1.png","C_Dist_300_LN_1_LD_3_RN_19_RD_30_1.png","C_Dist_300_LN_1_LD_30_RN_8_RD_24_1.png","C_Dist_300_LN_1_LD_5_RN_11_RD_22_1.png","C_Dist_300_LN_1_LD_5_RN_3_RD_6_1.png","C_Dist_300_LN_1_LD_5_RN_6_RD_12_1.png","C_Dist_300_LN_2_LD_10_RN_12_RD_24_1.png","C_Dist_300_LN_2_LD_20_RN_10_RD_25_1.png","C_Dist_300_LN_3_LD_12_RN_11_RD_20_1.png","C_Dist_300_LN_3_LD_6_RN_4_RD_5_1.png","C_Dist_300_LN_4_LD_20_RN_13_RD_26_1.png","C_Dist_300_LN_5_LD_25_RN_6_RD_12_1.png","C_Dist_300_LN_5_LD_25_RN_7_RD_14_1.png","C_Dist_300_LN_7_LD_14_RN_20_RD_25_1.png","C_Dist_300_LN_8_LD_15_RN_10_RD_12_1.png"]],"dist300_I":[["I_Dist_300_LN_1_LD_2_RN_2_RD_10_0.png","I_Dist_300_LN_1_LD_2_RN_3_RD_15_0.png","I_Dist_300_LN_2_LD_4_RN_6_RD_30_0.png","I_Dist_300_LN_3_LD_6_RN_4_RD_20_0.png","I_Dist_300_LN_4_LD_5_RN_6_RD_12_0.png","I_Dist_300_LN_4_LD_5_RN_8_RD_16_0.png","I_Dist_300_LN_7_LD_10_RN_8_RD_20_0.png","I_Dist_300_LN_8_LD_10_RN_14_RD_28_0.png","I_Dist_300_LN_8_LD_10_RN_9_RD_18_0.png"],["I_Dist_300_LN_13_LD_26_RN_12_RD_15_1.png","I_Dist_300_LN_4_LD_20_RN_2_RD_4_1.png"]],"dist300_S":[["E_Dist_300_LN_9_LD_12_RN_9_RD_20_0.png"],["E_Dist_300_LN_18_LD_30_RN_18_RD_20_1.png","E_Dist_300_LN_3_LD_10_RN_3_RD_5_1.png","E_Dist_300_LN_9_LD_20_RN_9_RD_12_1.png"]],"dist500_C":[["C_Dist_500_LN_10_LD_13_RN_7_RD_26_0.png","C_Dist_500_LN_10_LD_15_RN_4_RD_24_0.png","C_Dist_500_LN_12_LD_16_RN_3_RD_12_0.png","C_Dist_500_LN_12_LD_18_RN_4_RD_24_0.png","C_Dist_500_LN_15_LD_18_RN_5_RD_15_0.png","C_Dist_500_LN_15_LD_20_RN_1_RD_4_0.png","C_Dist_500_LN_18_LD_27_RN_1_RD_6_0.png","C_Dist_500_LN_20_LD_24_RN_1_RD_3_0.png","C_Dist_500_LN_20_LD_24_RN_3_RD_9_0.png","C_Dist_500_LN_20_LD_24_RN_7_RD_21_0.png","C_Dist_500_LN_20_LD_28_RN_3_RD_14_0.png","C_Dist_500_LN_21_LD_28_RN_6_RD_24_0.png","C_Dist_500_LN_22_LD_28_RN_2_RD_7_0.png","C_Dist_500_LN_25_LD_30_RN_9_RD_27_0.png","C_Dist_500_LN_4_LD_6_RN_1_RD_6_0.png","C_Dist_500_LN_5_LD_6_RN_2_RD_6_0.png","C_Dist_500_LN_6_LD_9_RN_1_RD_6_0.png","C_Dist_500_LN_7_LD_10_RN_1_RD_5_0.png","C_Dist_500_LN_8_LD_12_RN_1_RD_6_0.png","C_Dist_500_LN_8_LD_12_RN_4_RD_24_0.png"],["C_Dist_500_LN_1_LD_4_RN_12_RD_16_1.png","C_Dist_500_LN_1_LD_4_RN_9_RD_12_1.png","C_Dist_500_LN_1_LD_9_RN_11_RD_18_1.png","C_Dist_500_LN_10_LD_24_RN_22_RD_24_1.png","C_Dist_500_LN_2_LD_12_RN_10_RD_15_1.png","C_Dist_500_LN_2_LD_12_RN_12_RD_18_1.png","C_Dist_500_LN_2_LD_12_RN_4_RD_6_1.png","C_Dist_500_LN_2_LD_24_RN_7_RD_12_1.png","C_Dist_500_LN_2_LD_5_RN_18_RD_20_1.png","C_Dist_500_LN_2_LD_5_RN_9_RD_10_1.png","C_Dist_500_LN_2_LD_8_RN_12_RD_16_1.png","C_Dist_500_LN_2_LD_8_RN_21_RD_28_1.png","C_Dist_500_LN_3_LD_10_RN_4_RD_5_1.png","C_Dist_500_LN_3_LD_12_RN_15_RD_20_1.png","C_Dist_500_LN_3_LD_30_RN_6_RD_10_1.png","C_Dist_500_LN_3_LD_8_RN_14_RD_16_1.png","C_Dist_500_LN_4_LD_16_RN_15_RD_20_1.png","C_Dist_500_LN_4_LD_24_RN_12_RD_18_1.png","C_Dist_500_LN_5_LD_14_RN_6_RD_7_1.png","C_Dist_500_LN_7_LD_21_RN_20_RD_24_1.png","C_Dist_500_LN_7_LD_28_RN_12_RD_16_1.png","C_Dist_500_LN_7_LD_28_RN_9_RD_12_1.png","C_Dist_500_LN_9_LD_27_RN_20_RD_24_1.png"]],"dist500_I":[["I_Dist_500_LN_2_LD_3_RN_4_RD_24_0.png","I_Dist_500_LN_5_LD_6_RN_6_RD_18_0.png","I_Dist_500_LN_7_LD_8_RN_9_RD_24_0.png"],["I_Dist_500_LN_7_LD_21_RN_5_RD_6_1.png"]],"dist500_S":[["E_Dist_500_LN_6_LD_8_RN_6_RD_24_0.png"],["E_Dist_500_LN_2_LD_12_RN_2_RD_3_1.png","E_Dist_500_LN_6_LD_24_RN_6_RD_8_1.png"]]}},{"start_time":1552308511762,"click_time":1552308515603,"finger_time":1552308513382,"fix_duration":520.5677569147049,"trial":1,"RT":1620,"MT":2221,"sideResp":1,"stimulus":[],"xmouse":[754,754,754,754,754,754,754,754,754,754,754,754,754,754,754,754,754,754,754,754,754,754,754,754,754,754,754,754,754,754,754,754,754,754,754,754,754,754,754,754,754,754,754,754,754,754,754,754,754,754,754,754,754,754,754,754,754,754,754,754,754,754,754,754,754,754,754,754,754,754,754,754,754,754,754,754,754,754,754,755,820,872,896,915,929,940,946,946,946,946,946,946,946,946,947,960,969,986,992,1011,1026,1032,1035,1035,1035,1035,1035,1035,1035,1035,1035,1035,1035,1035,1035,1035,1038,1039,1040,1040,1040,1040,1040,1040,1040,1040,1040,1040,1040,1040,1041,1042,1042,1042,1042,1041,1040,1040,1040,1040,1040,1040,1040,1040,1040,1039,1028,1016,1009,1004,1002,991,972,938,895,854,792,754,726,707,700,695,695,695,695,695,695,693,685,664,643,616,611,611,611,611,611,607,601,582,562,556,554,553,552,549,545,543,538,534,529,524],"ymouse":[518,518,518,518,518,518,518,518,518,518,518,518,518,518,518,518,518,518,518,518,518,518,518,518,518,518,518,518,518,518,518,518,518,518,518,518,518,518,518,518,518,518,518,518,518,518,518,518,518,518,518,518,518,518,518,518,518,518,518,518,518,518,518,518,518,518,518,518,518,518,518,518,518,518,518,518,518,518,518,518,463,416,389,368,353,343,337,337,337,337,337,337,337,337,336,320,308,287,279,254,234,225,220,218,218,218,218,218,218,218,218,218,218,218,218,218,213,213,210,210,210,210,210,210,210,210,210,210,210,210,208,205,205,205,204,204,204,204,204,204,204,204,204,204,204,205,210,216,219,220,220,220,218,208,196,186,181,181,181,181,181,181,181,181,181,181,181,179,172,153,132,99,92,92,92,92,92,92,92,92,92,92,93,94,94,94,94,94,94,93,90,86],"timestamp_mouse":[20,39,60,80,99,120,140,159,179,200,220,241,260,280,300,320,340,359,379,400,420,440,461,481,500,519,540,559,579,599,620,639,660,680,700,720,741,760,780,800,820,839,860,880,900,920,941,959,980,1000,1019,1040,1059,1080,1100,1119,1140,1159,1179,1200,1220,1239,1261,1279,1299,1320,1341,1359,1380,1400,1421,1439,1459,1480,1500,1520,1541,1559,1580,1599,1620,1639,1659,1679,1699,1719,1740,1759,1779,1799,1819,1839,1859,1880,1899,1920,1939,1959,1979,1999,2021,2039,2059,2080,2099,2121,2140,2159,2180,2200,2220,2239,2259,2280,2299,2319,2339,2360,2379,2401,2419,2439,2459,2479,2500,2521,2540,2559,2580,2600,2619,2641,2661,2679,2700,2721,2739,2759,2779,2800,2820,2839,2860,2879,2900,2919,2939,2960,2980,3000,3019,3040,3059,3079,3099,3119,3139,3160,3180,3199,3221,3239,3261,3279,3300,3319,3340,3359,3380,3399,3421,3440,3461,3480,3501,3521,3541,3561,3581,3601,3621,3641,3660,3680,3701,3721,3740,3760,3781,3801,3822,3840],"xSR":741.5,"ySR":469.95,"xT1":424.9,"yT1":0,"xT2":1058.1,"yT2":0,"toosoon":0,"cond_shown":"Congruent","ratio_trial":200,"L_num":13,"L_den":26,"R_num":14,"R_den":20,"correct_side":2,"subjID":"dannavalentinaherera16","gender":"1","school":"4","age":"9"},{"start_time":1552308520057,"click_time":1552308522103,"finger_time":1552308521724,"fix_duration":452.40484224241715,"trial":2,"RT":1667,"MT":379,"sideResp":2,"stimulus":[],"xmouse":[800,800,800,800,800,800,800,800,800,800,800,800,800,800,800,800,800,800,800,800,800,800,800,800,800,800,800,800,800,800,800,800,800,800,800,800,800,800,800,800,800,800,800,800,800,800,800,800,800,800,800,800,800,800,800,800,800,800,800,800,800,800,800,800,800,800,800,800,800,800,800,800,800,800,800,800,800,800,800,800,800,801,811,827,860,895,929,959,959,959,959,959,959,959,959,959,959,959,959,959,959,959,1086],"ymouse":[535,535,535,535,535,535,535,535,535,535,535,535,535,535,535,535,535,535,535,535,535,535,535,535,535,535,535,535,535,535,535,535,535,535,535,535,535,535,535,535,535,535,535,535,535,535,535,535,535,535,535,535,535,535,535,535,535,535,535,535,535,535,535,535,535,535,535,535,535,535,535,535,535,535,535,535,535,535,535,535,535,530,502,460,349,256,147,42,42,42,42,42,42,42,42,42,42,42,42,42,42,42,6],"timestamp_mouse":[5,25,45,65,87,107,126,145,166,187,206,225,245,265,286,307,326,346,366,387,407,425,445,466,487,507,525,547,566,586,605,627,646,666,685,705,727,747,765,786,806,826,847,866,887,907,926,945,965,987,1006,1025,1047,1067,1086,1106,1127,1145,1167,1186,1206,1225,1247,1267,1285,1306,1326,1345,1366,1386,1406,1426,1447,1466,1487,1507,1527,1547,1565,1585,1606,1625,1647,1667,1687,1707,1725,1747,1766,1786,1807,1826,1846,1867,1887,1907,1926,1946,1966,1986,2005,2025,2046],"xSR":741.5,"ySR":469.95,"xT1":424.9,"yT1":0,"xT2":1058.1,"yT2":0,"toosoon":0,"cond_shown":"Incongruent","ratio_trial":100,"L_num":9,"L_den":15,"R_num":13,"R_den":26,"correct_side":1,"subjID":"dannavalentinaherera16","gender":"1","school":"4","age":"9"},{"start_time":1552308524694,"click_time":1552308526984,"finger_time":1552308526804,"fix_duration":391.58147704708665,"trial":3,"RT":2110,"MT":180,"sideResp":1,"stimulus":[],"xmouse":[763,763,763,763,763,763,763,763,763,763,763,763,763,763,763,763,763,763,763,763,763,763,763,763,763,763,763,763,763,763,763,763,763,763,763,763,763,763,763,763,763,763,763,763,763,763,763,763,763,763,763,763,763,763,763,763,763,763,763,763,763,763,763,763,763,763,763,763,763,763,763,763,763,763,763,763,763,763,763,763,763,763,763,763,763,763,763,763,763,763,763,763,763,763,763,763,763,763,763,763,763,763,763,763,755,745,713,680,646,615,551,530,513,488,473],"ymouse":[520,520,520,520,520,520,520,520,520,520,520,520,520,520,520,520,520,520,520,520,520,520,520,520,520,520,520,520,520,520,520,520,520,520,520,520,520,520,520,520,520,520,520,520,520,520,520,520,520,520,520,520,520,520,520,520,520,520,520,520,520,520,520,520,520,520,520,520,520,520,520,520,520,520,520,520,520,520,520,520,520,520,520,520,520,520,520,520,520,520,520,520,520,520,520,520,520,520,520,520,520,520,520,520,494,464,405,347,288,240,160,136,119,101,93],"timestamp_mouse":[9,28,48,69,89,109,128,148,170,190,209,229,249,269,289,309,328,349,370,389,409,429,450,470,489,509,529,550,570,589,609,628,649,670,689,708,728,750,770,789,810,829,848,869,888,909,929,949,970,990,1010,1030,1048,1070,1088,1108,1129,1149,1169,1189,1210,1228,1248,1270,1289,1309,1329,1350,1369,1390,1410,1428,1449,1469,1488,1509,1530,1550,1569,1590,1609,1630,1648,1669,1690,1710,1728,1750,1768,1788,1810,1828,1849,1870,1889,1909,1928,1950,1970,1988,2008,2029,2050,2068,2090,2110,2130,2150,2170,2188,2208,2228,2249,2269,2289],"xSR":741.5,"ySR":469.95,"xT1":424.9,"yT1":0,"xT2":1058.1,"yT2":0,"toosoon":0,"cond_shown":"Congruent","ratio_trial":100,"L_num":3,"L_den":20,"R_num":4,"R_den":16,"correct_side":2,"subjID":"dannavalentinaherera16","gender":"1","school":"4","age":"9"},{"start_time":1552308529750,"click_time":1552308531703,"finger_time":1552308531364,"fix_duration":1266.294451421086,"trial":4,"RT":1614,"MT":339,"sideResp":1,"stimulus":[],"xmouse":[787,787,787,787,787,787,787,787,787,787,787,787,787,787,787,787,787,787,787,787,787,787,787,787,787,787,787,787,787,787,787,787,787,787,787,787,787,787,787,787,787,787,787,787,787,787,787,787,787,787,787,787,787,787,787,787,787,787,787,787,787,787,787,787,787,787,787,787,787,787,787,787,787,787,787,787,787,787,774,745,705,659,578,551,537,531,527,527,527,527,527,527,527,527,527,527,526,509],"ymouse":[553,553,553,553,553,553,553,553,553,553,553,553,553,553,553,553,553,553,553,553,553,553,553,553,553,553,553,553,553,553,553,553,553,553,553,553,553,553,553,553,553,553,553,553,553,553,553,553,553,553,553,553,553,553,553,553,553,553,553,553,553,553,553,553,553,553,553,553,553,553,553,553,553,553,553,553,553,553,527,486,431,363,215,148,96,60,20,16,15,15,15,15,15,15,15,15,14,14],"timestamp_mouse":[12,34,53,73,93,112,132,152,173,194,213,232,252,272,293,312,332,354,374,392,412,432,453,473,493,513,533,553,572,592,612,633,653,673,692,713,734,752,772,793,814,833,854,873,892,912,932,952,972,992,1013,1032,1052,1072,1093,1112,1134,1154,1173,1193,1213,1232,1252,1273,1293,1312,1333,1354,1373,1393,1413,1432,1453,1474,1492,1512,1533,1554,1573,1594,1614,1632,1652,1674,1693,1712,1734,1753,1774,1793,1814,1834,1852,1873,1893,1914,1933,1953],"xSR":741.5,"ySR":469.95,"xT1":424.9,"yT1":0,"xT2":1058.1,"yT2":0,"toosoon":0,"cond_shown":"Congruent","ratio_trial":300,"L_num":20,"L_den":25,"R_num":8,"R_den":16,"correct_side":1,"subjID":"dannavalentinaherera16","gender":"1","school":"4","age":"9"},{"start_time":1552308535013,"click_time":1552308536903,"finger_time":1552308536444,"fix_duration":908.5282099746015,"trial":5,"RT":1431,"MT":459,"sideResp":2,"stimulus":[],"xmouse":[826,826,826,826,826,826,826,826,826,827,827,829,829,829,830,830,830,830,830,830,830,830,830,830,830,830,830,830,830,830,830,830,830,830,830,830,830,830,830,830,830,830,830,830,830,830,830,830,830,830,830,830,830,830,830,830,830,830,830,830,830,830,830,830,830,830,830,830,830,833,841,853,864,875,896,907,915,927,937,940,943,946,950,952,964,973,985,1004,1025,1033,1041,1046,1050,1055,1060],"ymouse":[504,504,504,504,504,504,504,504,504,502,502,501,501,501,501,501,501,501,501,501,501,501,501,501,501,501,501,501,501,501,501,501,501,501,501,501,501,501,501,501,501,501,501,501,501,501,501,501,501,501,501,501,501,501,501,501,501,501,501,501,501,501,501,501,501,501,501,501,501,497,481,461,441,423,385,365,351,330,312,307,301,295,286,281,259,242,221,188,142,124,105,93,82,72,60],"timestamp_mouse":[11,30,49,70,90,109,130,151,169,190,211,229,251,271,291,309,330,350,371,389,411,430,449,469,491,511,531,549,569,591,611,630,651,671,689,710,731,749,770,791,811,830,850,871,891,910,930,950,971,990,1010,1029,1050,1070,1091,1110,1129,1150,1170,1191,1211,1230,1251,1269,1291,1309,1329,1351,1371,1389,1410,1431,1449,1471,1489,1510,1530,1549,1571,1590,1609,1630,1650,1670,1690,1710,1730,1750,1771,1790,1810,1830,1850,1870,1890],"xSR":741.5,"ySR":469.95,"xT1":424.9,"yT1":0,"xT2":1058.1,"yT2":0,"toosoon":0,"cond_shown":"Incongruent","ratio_trial":300,"L_num":8,"L_den":10,"R_num":9,"R_den":18,"correct_side":1,"subjID":"dannavalentinaherera16","gender":"1","school":"4","age":"9"},{"start_time":1552308541225,"click_time":1552308546243,"finger_time":1552308545683,"fix_duration":741.9273091119983,"trial":6,"RT":4458,"MT":560,"sideResp":1,"stimulus":[],"xmouse":[788,788,788,788,788,788,788,788,788,788,788,788,788,788,788,788,788,788,788,788,788,788,788,788,788,788,788,788,788,788,788,788,788,788,788,788,788,788,788,788,788,788,788,788,788,788,788,788,788,788,788,788,788,788,788,788,788,788,788,788,788,788,788,788,788,788,788,788,788,788,788,788,788,788,788,788,788,788,788,788,788,788,788,788,788,788,788,788,788,788,788,788,788,788,788,788,788,788,788,788,788,788,788,788,788,788,788,788,788,788,788,788,788,788,788,788,788,788,788,788,788,788,788,788,788,788,788,788,788,788,788,788,788,788,788,788,788,788,788,788,788,788,788,788,788,788,788,788,788,788,788,788,788,788,788,788,788,788,788,788,788,788,788,788,788,788,788,788,788,788,788,788,788,788,788,788,788,788,788,788,788,788,788,788,788,788,788,788,788,788,788,788,788,788,788,788,788,788,788,788,788,788,788,788,788,788,788,788,788,788,788,788,788,788,788,788,788,788,788,788,771,745,638,594,558,541,530,527,521,515,509,508,508,507,507,507,507,508,508,508,508,509,510,513,514,515,516,516,516,516,516],"ymouse":[536,536,536,536,536,536,536,536,536,536,536,536,536,536,536,536,536,536,536,536,536,536,536,536,536,536,536,536,536,536,536,536,536,536,536,536,536,536,536,536,536,536,536,536,536,536,536,536,536,536,536,536,536,536,536,536,536,536,536,536,536,536,536,536,536,536,536,536,536,536,536,536,536,536,536,536,536,536,536,536,536,536,536,536,536,536,536,536,536,536,536,536,536,536,536,536,536,536,536,536,536,536,536,536,536,536,536,536,536,536,536,536,536,536,536,536,536,536,536,536,536,536,536,536,536,536,536,536,536,536,536,536,536,536,536,536,536,536,536,536,536,536,536,536,536,536,536,536,536,536,536,536,536,536,536,536,536,536,536,536,536,536,536,536,536,536,536,536,536,536,536,536,536,536,536,536,536,536,536,536,536,536,536,536,536,536,536,536,536,536,536,536,536,536,536,536,536,536,536,536,536,536,536,536,536,536,536,536,536,536,536,536,536,536,536,536,536,536,536,536,507,483,407,375,349,334,325,322,318,317,315,315,315,314,314,313,309,296,285,276,265,254,241,222,205,190,174,138,119,103,87],"timestamp_mouse":[19,39,57,77,99,118,137,158,179,198,218,238,257,277,299,319,338,357,378,398,419,439,459,477,498,517,539,558,578,598,617,638,659,679,699,718,737,759,779,798,819,838,857,879,898,919,937,958,978,998,1018,1038,1059,1077,1097,1119,1138,1157,1177,1197,1219,1238,1259,1277,1297,1318,1338,1358,1377,1397,1418,1439,1458,1479,1499,1518,1539,1557,1577,1599,1619,1638,1658,1677,1697,1719,1738,1757,1777,1798,1819,1837,1857,1878,1899,1919,1938,1958,1979,1998,2018,2037,2058,2077,2099,2119,2137,2159,2178,2199,2219,2237,2257,2277,2298,2319,2339,2358,2377,2397,2419,2439,2459,2477,2498,2519,2539,2559,2577,2598,2618,2639,2659,2678,2698,2718,2738,2757,2777,2798,2818,2838,2857,2878,2899,2919,2938,2958,2978,2999,3018,3039,3058,3077,3099,3119,3138,3158,3178,3199,3219,3237,3257,3278,3299,3319,3337,3358,3377,3398,3418,3438,3459,3479,3497,3518,3538,3558,3578,3597,3617,3638,3659,3677,3698,3718,3737,3758,3779,3797,3819,3838,3859,3879,3898,3918,3939,3959,3979,3997,4018,4039,4057,4079,4099,4117,4137,4158,4178,4199,4217,4237,4258,4277,4299,4319,4338,4359,4377,4397,4418,4439,4458,4478,4499,4519,4537,4559,4577,4597,4618,4638,4659,4678,4697,4718,4738,4758,4779,4798,4818,4838,4857,4877,4897,4917,4938,4958,4978,4999,5018],"xSR":741.5,"ySR":469.95,"xT1":424.9,"yT1":0,"xT2":1058.1,"yT2":0,"toosoon":0,"cond_shown":"Congruent","ratio_trial":200,"L_num":9,"L_den":30,"R_num":13,"R_den":26,"correct_side":2,"subjID":"dannavalentinaherera16","gender":"1","school":"4","age":"9"},{"start_time":1552308548490,"click_time":1552308550124,"finger_time":1552308549904,"fix_duration":885.7810106637872,"trial":7,"RT":1414,"MT":220,"sideResp":1,"stimulus":[],"xmouse":[794,794,794,794,794,794,794,794,794,794,794,794,794,794,794,794,794,794,794,794,794,794,794,794,794,794,794,794,794,794,794,794,794,794,794,794,794,794,794,794,794,794,794,794,794,794,794,794,794,795,798,801,802,802,802,802,802,802,802,802,802,802,802,802,802,802,802,802,802,777,749,720,675,650,634,616,611,603,597,561,532,505],"ymouse":[523,523,523,523,523,523,523,523,523,523,523,523,523,523,523,523,523,523,523,523,523,523,523,523,523,523,523,523,523,523,523,523,523,523,523,523,523,523,523,523,523,523,523,523,523,523,523,523,521,516,508,500,498,498,498,498,498,498,498,498,498,498,498,498,498,498,498,498,496,473,443,402,324,257,200,133,116,104,101,101,101,97],"timestamp_mouse":[12,32,54,72,93,114,133,153,173,194,212,232,253,274,292,313,334,353,373,392,413,433,452,472,493,514,533,552,572,593,614,632,654,673,694,712,732,753,772,793,812,833,853,874,892,913,933,954,972,993,1013,1033,1053,1074,1093,1114,1134,1154,1172,1193,1213,1233,1253,1274,1293,1312,1334,1354,1374,1393,1414,1434,1452,1473,1492,1514,1533,1553,1574,1594,1613,1634],"xSR":741.5,"ySR":469.95,"xT1":424.9,"yT1":0,"xT2":1058.1,"yT2":0,"toosoon":0,"cond_shown":"Incongruent","ratio_trial":100,"L_num":11,"L_den":22,"R_num":9,"R_den":15,"correct_side":2,"subjID":"dannavalentinaherera16","gender":"1","school":"4","age":"9"},{"start_time":1552308551856,"click_time":1552308553884,"finger_time":1552308553283,"fix_duration":451.0409198368616,"trial":8,"RT":1427,"MT":601,"sideResp":1,"stimulus":[],"xmouse":[808,808,808,808,808,808,808,808,808,808,808,808,808,808,808,808,808,808,808,808,808,808,808,808,808,808,808,808,808,808,808,808,808,808,808,808,808,808,808,808,808,808,808,808,808,808,808,808,808,808,808,808,808,808,808,808,808,808,808,808,808,808,808,808,808,808,808,808,808,807,797,680,572,458,349,245,217,217,217,218,221,225,229,234,247,255,263,265,268,274,281,292,319,341,345,352,364,376,389,405,422,451],"ymouse":[516,516,516,516,516,516,516,516,516,516,516,516,516,516,516,516,516,516,516,516,516,516,516,516,516,516,516,516,516,516,516,516,516,516,516,516,516,516,516,516,516,516,516,516,516,516,516,516,516,516,516,516,516,516,516,516,516,516,516,516,516,516,516,516,516,516,516,516,516,513,496,425,380,340,289,226,200,198,194,192,185,174,168,158,137,121,105,104,103,102,102,102,102,102,102,102,102,102,102,102,99,89],"timestamp_mouse":[8,27,48,66,86,108,128,147,167,187,206,227,247,267,288,307,327,346,366,388,406,428,446,468,488,506,527,547,566,586,608,628,646,667,688,708,727,746,767,787,806,828,848,868,886,908,928,948,967,986,1007,1027,1048,1066,1087,1107,1127,1147,1168,1187,1208,1227,1247,1268,1287,1307,1327,1348,1367,1387,1408,1427,1448,1468,1487,1507,1527,1547,1568,1587,1606,1628,1646,1666,1688,1707,1728,1747,1767,1787,1806,1827,1847,1868,1887,1907,1928,1947,1967,1986,2006,2028],"xSR":741.5,"ySR":469.95,"xT1":424.9,"yT1":0,"xT2":1058.1,"yT2":0,"toosoon":0,"cond_shown":"Congruent","ratio_trial":300,"L_num":20,"L_den":25,"R_num":9,"R_den":18,"correct_side":1,"subjID":"dannavalentinaherera16","gender":"1","school":"4","age":"9"},{"start_time":1552308557214,"click_time":1552308559123,"finger_time":1552308558804,"fix_duration":1171.8776960653704,"trial":9,"RT":1590,"MT":319,"sideResp":1,"stimulus":[],"xmouse":[789,789,790,790,790,790,790,790,790,790,790,790,790,790,790,790,790,790,790,790,790,790,790,790,790,790,790,790,790,790,790,790,790,790,790,790,790,790,790,790,790,790,790,790,790,790,790,790,790,790,790,790,790,790,790,790,790,790,790,790,790,790,790,790,790,790,790,790,790,790,790,790,790,790,790,790,790,790,790,786,777,772,776,784,787,787,787,787,787,780,763,736,700,599,550,509],"ymouse":[494,494,494,494,494,494,494,494,494,494,494,494,494,494,494,494,494,494,494,494,494,494,494,494,494,494,494,494,494,494,494,494,494,494,494,494,494,494,494,494,494,494,494,494,494,494,494,494,494,494,494,494,494,494,494,494,494,494,494,494,494,494,494,494,494,494,494,494,494,494,494,494,494,494,494,494,494,494,494,457,387,312,253,199,138,126,123,123,123,123,122,117,111,97,91,84],"timestamp_mouse":[9,30,49,70,90,110,128,150,169,189,209,229,249,269,288,309,330,350,368,390,408,429,450,468,490,509,529,549,569,589,608,629,649,668,690,709,728,748,769,790,809,828,850,869,890,908,928,950,970,989,1010,1029,1049,1069,1090,1110,1130,1149,1168,1190,1209,1230,1248,1269,1290,1310,1328,1349,1370,1390,1410,1429,1450,1469,1490,1509,1528,1548,1569,1590,1610,1629,1650,1669,1690,1709,1729,1749,1769,1788,1809,1829,1849,1869,1889,1909],"xSR":741.5,"ySR":469.95,"xT1":424.9,"yT1":0,"xT2":1058.1,"yT2":0,"toosoon":0,"cond_shown":"Incongruent","ratio_trial":300,"L_num":13,"L_den":26,"R_num":12,"R_den":15,"correct_side":2,"subjID":"dannavalentinaherera16","gender":"1","school":"4","age":"9"},{"start_time":1552308563559,"click_time":1552308565403,"finger_time":1552308564942,"fix_duration":275.24935877427646,"trial":10,"RT":1383,"MT":461,"sideResp":2,"stimulus":[],"xmouse":[814,814,814,814,814,814,814,814,814,814,814,814,814,814,814,814,814,814,814,814,814,814,814,814,814,814,814,814,814,814,814,814,814,814,814,814,814,814,814,814,814,814,814,814,814,814,814,814,814,814,814,814,814,814,814,814,814,814,814,814,814,814,814,814,814,814,814,814,822,850,871,902,907,910,912,913,916,919,922,926,931,941,947,953,958,965,972,994,1011,1016,1033,1052,1061],"ymouse":[515,515,515,515,515,515,515,515,515,515,515,515,515,515,515,515,515,515,515,515,515,515,515,515,515,515,515,515,515,515,515,515,515,515,515,515,515,515,515,515,515,515,515,515,515,515,515,515,515,515,515,515,515,515,515,515,515,515,515,515,515,515,515,515,515,515,515,510,495,455,424,383,375,368,364,360,352,347,339,330,317,288,273,260,247,232,218,182,150,142,112,77,62],"timestamp_mouse":[3,25,45,63,83,104,125,145,163,184,204,223,245,265,283,303,324,345,364,384,404,425,444,465,484,505,524,544,564,583,604,625,643,664,684,703,723,745,763,783,803,825,845,864,883,903,923,943,965,985,1004,1025,1045,1063,1083,1105,1124,1143,1165,1185,1203,1223,1243,1265,1285,1304,1325,1345,1363,1383,1404,1425,1444,1464,1484,1504,1525,1543,1563,1584,1605,1625,1644,1664,1685,1703,1724,1743,1763,1784,1804,1824,1844],"xSR":741.5,"ySR":469.95,"xT1":424.9,"yT1":0,"xT2":1058.1,"yT2":0,"toosoon":0,"cond_shown":"Congruent","ratio_trial":200,"L_num":3,"L_den":12,"R_num":9,"R_den":20,"correct_side":2,"subjID":"dannavalentinaherera16","gender":"1","school":"4","age":"9"},{"start_time":1552308567196,"click_time":1552308569222,"finger_time":1552308568844,"fix_duration":250,"trial":11,"RT":1648,"MT":378,"sideResp":1,"stimulus":[],"xmouse":[806,806,806,806,806,806,806,806,806,806,806,806,806,806,806,806,806,806,806,806,806,806,806,806,806,806,806,806,806,806,806,806,806,806,806,806,806,806,806,806,806,806,806,806,806,806,806,806,806,806,806,806,806,806,806,806,806,806,806,806,806,806,806,806,806,806,806,806,806,806,806,806,806,806,806,806,806,806,806,806,809,810,810,807,798,774,751,720,687,665,658,649,641,630,621,593,564,554,520,479,458,440],"ymouse":[530,530,530,530,530,530,530,530,530,530,530,530,530,530,530,530,530,530,530,530,530,530,530,530,530,530,530,530,530,530,530,530,530,530,530,530,530,530,530,530,530,530,530,530,530,530,530,530,530,530,530,530,530,530,530,530,530,530,530,530,530,530,530,530,530,530,530,530,530,530,530,530,530,530,530,530,530,530,530,527,494,472,452,431,411,376,358,336,304,267,254,239,227,214,204,180,160,154,135,113,105,97],"timestamp_mouse":[7,26,48,67,87,108,128,147,167,186,206,228,247,267,287,307,326,347,368,387,408,426,448,468,486,506,527,546,568,586,606,627,648,666,687,708,727,748,767,787,808,827,848,866,886,908,926,947,967,988,1007,1027,1046,1067,1087,1106,1128,1148,1168,1186,1208,1228,1248,1267,1286,1308,1327,1348,1366,1387,1408,1428,1447,1467,1488,1508,1528,1546,1568,1586,1607,1626,1648,1667,1687,1706,1726,1747,1767,1788,1806,1827,1848,1867,1886,1906,1928,1947,1967,1988,2006,2026],"xSR":741.5,"ySR":469.95,"xT1":424.9,"yT1":0,"xT2":1058.1,"yT2":0,"toosoon":0,"cond_shown":"Incongruent","ratio_trial":300,"L_num":4,"L_den":20,"R_num":2,"R_den":4,"correct_side":2,"subjID":"dannavalentinaherera16","gender":"1","school":"4","age":"9"},{"start_time":1552308570813,"click_time":1552308572784,"finger_time":1552308572304,"fix_duration":369.67492416633974,"trial":12,"RT":1491,"MT":480,"sideResp":2,"stimulus":[],"xmouse":[779,779,779,779,779,779,779,779,779,779,779,779,779,779,779,779,779,779,779,779,779,779,779,779,779,779,779,779,779,779,779,779,779,779,779,779,779,779,779,779,779,779,779,779,779,779,779,779,779,779,779,779,779,779,779,779,779,779,779,779,779,779,779,779,779,779,779,779,779,779,779,784,787,791,806,824,838,857,902,930,950,964,974,992,1000,1008,1017,1021,1024,1034,1037,1038,1040,1042,1048,1050,1052,1056,1059],"ymouse":[508,508,508,508,508,508,508,508,508,508,508,508,508,508,508,508,508,508,508,508,508,508,508,508,508,508,508,508,508,508,508,508,508,508,508,508,508,508,508,508,508,508,508,508,508,508,508,508,508,508,508,508,508,508,508,508,508,508,508,508,508,508,508,508,508,508,508,508,508,508,508,500,495,489,469,450,436,420,379,352,330,313,298,272,263,255,242,234,227,204,190,178,165,153,125,113,105,94,86],"timestamp_mouse":[10,29,49,70,89,110,130,150,170,190,211,230,251,270,289,309,329,350,369,391,411,430,451,470,489,511,530,550,570,591,610,630,649,670,691,710,729,749,769,791,810,830,850,869,891,911,930,949,970,991,1010,1030,1049,1069,1091,1111,1129,1149,1171,1190,1209,1231,1249,1271,1291,1309,1329,1351,1370,1389,1410,1431,1450,1470,1491,1509,1529,1550,1571,1590,1609,1630,1651,1670,1690,1709,1729,1750,1770,1790,1810,1830,1849,1869,1890,1911,1931,1949,1971],"xSR":741.5,"ySR":469.95,"xT1":424.9,"yT1":0,"xT2":1058.1,"yT2":0,"toosoon":0,"cond_shown":"Congruent","ratio_trial":200,"L_num":13,"L_den":26,"R_num":14,"R_den":20,"correct_side":2,"subjID":"dannavalentinaherera16","gender":"1","school":"4","age":"9"},{"start_time":1552308575365,"click_time":1552308578085,"finger_time":1552308576925,"fix_duration":1160.057175536666,"trial":13,"RT":1560,"MT":1160,"sideResp":1,"stimulus":[],"xmouse":[807,807,807,807,807,807,807,807,807,807,807,807,807,807,807,807,807,807,807,807,807,807,807,807,807,807,807,807,807,807,807,807,807,807,807,807,807,807,807,807,807,807,807,807,807,807,807,807,807,807,807,807,807,807,807,807,807,807,807,807,807,807,807,807,807,807,807,807,807,807,807,807,807,807,807,807,815,829,854,872,886,907,914,920,925,928,928,928,929,929,929,929,929,929,929,929,929,929,929,929,927,925,924,921,918,914,904,896,894,883,876,864,861,857,853,850,843,837,823,809,794,760,744,731,720,711,698,688,670,652,631,588,569,548,526,481],"ymouse":[499,499,499,499,499,499,499,499,499,499,499,499,499,499,499,499,499,499,499,499,499,499,499,499,499,499,499,499,499,499,499,499,499,499,499,499,499,499,499,499,499,499,499,499,499,499,499,499,499,499,499,499,499,499,499,499,499,499,499,499,499,499,499,499,499,499,499,499,499,499,499,499,499,499,499,499,477,447,390,351,314,268,250,237,226,221,219,219,218,218,218,218,218,218,218,218,218,218,218,218,224,230,234,239,247,254,268,277,279,286,290,293,293,293,293,293,291,286,270,255,236,194,172,152,134,119,101,94,84,78,70,58,56,53,49,43],"timestamp_mouse":[18,39,59,78,98,119,138,159,179,200,218,238,259,278,299,319,339,359,379,399,419,438,458,480,498,519,540,558,578,599,620,639,658,678,700,718,738,758,779,798,819,838,860,879,898,919,939,958,979,999,1020,1038,1058,1079,1098,1118,1139,1159,1179,1200,1218,1238,1258,1279,1299,1320,1338,1359,1378,1398,1418,1439,1458,1478,1498,1519,1539,1560,1578,1598,1619,1638,1660,1678,1699,1719,1738,1758,1778,1799,1818,1839,1859,1879,1898,1919,1938,1959,1978,1999,2020,2039,2058,2079,2099,2118,2138,2158,2178,2199,2218,2238,2258,2280,2298,2318,2338,2358,2379,2398,2418,2438,2458,2478,2498,2518,2539,2558,2578,2598,2620,2639,2659,2678,2698,2720],"xSR":741.5,"ySR":469.95,"xT1":424.9,"yT1":0,"xT2":1058.1,"yT2":0,"toosoon":0,"cond_shown":"Incongruent","ratio_trial":300,"L_num":4,"L_den":20,"R_num":2,"R_den":4,"correct_side":2,"subjID":"dannavalentinaherera16","gender":"1","school":"4","age":"9"},{"start_time":1552308582075,"click_time":1552308584344,"finger_time":1552308583704,"fix_duration":750.2473046732638,"trial":14,"RT":1629,"MT":640,"sideResp":2,"stimulus":[],"xmouse":[820,820,820,820,820,820,820,820,820,820,820,821,824,824,825,826,826,826,826,826,826,826,826,826,826,826,826,826,826,826,826,826,826,826,826,826,826,826,826,826,826,826,826,826,826,826,826,826,826,826,826,826,826,826,826,826,826,826,826,826,826,826,826,826,826,826,826,826,826,826,826,826,826,826,826,827,828,829,830,831,836,840,844,850,870,892,934,949,964,976,986,1005,1015,1024,1033,1036,1038,1038,1038,1038,1038,1038,1038,1038,1038,1038,1038,1038,1038,1039,1044,1056,1058,1059],"ymouse":[529,529,529,529,529,529,529,529,529,529,525,517,510,504,501,499,499,499,499,499,499,499,499,499,499,499,499,499,499,499,499,499,499,499,499,499,499,499,499,499,499,499,499,499,499,499,499,499,499,499,499,499,499,499,499,499,499,499,499,499,499,499,499,499,499,499,499,499,499,499,499,499,495,494,492,489,488,485,483,481,470,461,454,442,413,378,302,267,232,204,177,135,118,102,89,84,82,82,82,82,82,82,82,82,82,82,82,82,82,82,82,82,82,82],"timestamp_mouse":[9,30,49,69,89,110,128,148,169,189,208,230,248,268,289,309,329,348,368,389,408,428,450,468,489,509,529,549,570,588,609,629,649,668,688,708,729,750,769,788,809,829,849,869,888,909,928,948,969,989,1010,1028,1049,1069,1089,1108,1129,1148,1169,1189,1210,1228,1248,1269,1289,1310,1330,1349,1368,1389,1409,1428,1448,1469,1488,1508,1530,1549,1568,1589,1609,1629,1649,1669,1690,1708,1728,1748,1768,1789,1810,1828,1848,1869,1890,1908,1928,1948,1968,1988,2009,2029,2050,2069,2088,2108,2129,2149,2170,2189,2209,2229,2248,2269],"xSR":741.5,"ySR":469.95,"xT1":424.9,"yT1":0,"xT2":1058.1,"yT2":0,"toosoon":0,"cond_shown":"Incongruent","ratio_trial":300,"L_num":3,"L_den":6,"R_num":4,"R_den":20,"correct_side":1,"subjID":"dannavalentinaherera16","gender":"1","school":"4","age":"9"},{"start_time":1552308587032,"click_time":1552308588804,"finger_time":1552308588464,"fix_duration":1047.7349348447776,"trial":15,"RT":1432,"MT":340,"sideResp":1,"stimulus":[],"xmouse":[772,772,772,772,772,772,772,772,772,772,772,772,772,772,772,772,772,772,772,772,772,772,772,772,772,772,772,772,772,772,772,772,772,772,772,772,772,772,772,772,772,772,772,772,772,772,772,772,772,772,772,772,772,772,772,772,772,772,772,772,772,772,772,772,772,772,772,772,772,772,772,772,746,740,738,738,738,736,736,735,728,712,669,647,640,614,592,569,516],"ymouse":[506,506,506,506,506,506,506,506,506,506,506,506,506,506,506,506,506,506,506,506,506,506,506,506,506,506,506,506,506,506,506,506,506,506,506,506,506,506,506,506,506,506,506,506,506,506,506,506,506,506,506,506,506,506,506,506,506,506,506,506,506,506,506,506,506,506,506,506,506,506,496,454,298,257,229,205,182,171,170,169,169,166,159,153,151,137,125,111,76],"timestamp_mouse":[12,32,53,71,91,112,131,153,171,191,211,231,252,271,291,313,332,352,371,391,411,431,451,472,492,511,531,551,571,591,611,631,651,671,693,712,731,752,772,791,811,831,851,872,892,912,932,953,971,992,1012,1031,1051,1072,1091,1111,1131,1153,1172,1192,1211,1231,1252,1273,1291,1312,1332,1352,1371,1392,1411,1432,1452,1472,1491,1511,1531,1553,1571,1591,1611,1631,1652,1672,1692,1711,1732,1751,1772],"xSR":741.5,"ySR":469.95,"xT1":424.9,"yT1":0,"xT2":1058.1,"yT2":0,"toosoon":0,"cond_shown":"Congruent","ratio_trial":300,"L_num":11,"L_den":22,"R_num":4,"R_den":20,"correct_side":1,"subjID":"dannavalentinaherera16","gender":"1","school":"4","age":"9"},{"start_time":1552308591995,"click_time":1552308595284,"finger_time":1552308594823,"fix_duration":250,"trial":16,"RT":2828,"MT":461,"sideResp":1,"stimulus":[],"xmouse":[784,784,784,784,784,784,784,784,784,784,784,784,784,784,784,784,784,784,784,784,784,784,784,784,784,784,784,784,784,784,784,784,784,784,784,784,784,784,784,784,784,784,784,784,784,784,784,784,784,784,784,784,784,784,784,784,784,784,784,784,784,784,784,784,784,784,784,784,784,784,784,784,784,784,784,784,784,784,784,784,784,784,784,784,784,783,783,783,783,783,783,783,783,783,783,783,783,783,783,783,783,783,783,783,783,783,783,783,783,783,783,783,783,783,783,783,783,783,783,783,783,783,783,783,783,783,783,783,783,783,783,783,783,783,783,783,783,783,783,783,779,747,699,650,609,576,572,571,571,571,571,571,573,574,575,576,577,577,574,568,544,529,511,497,489],"ymouse":[512,512,512,512,512,512,512,512,512,512,512,512,512,512,512,512,512,512,512,512,512,512,512,512,512,512,512,512,512,512,512,512,512,512,512,512,512,512,512,512,512,512,512,512,512,512,512,512,512,512,512,512,512,512,512,512,512,512,512,512,512,512,512,512,512,512,512,512,512,512,512,512,512,512,512,512,512,512,512,512,512,512,512,512,512,512,512,512,512,512,512,512,512,512,512,512,512,512,512,512,512,512,512,512,512,512,512,512,512,512,512,512,512,512,512,512,512,512,512,512,512,512,512,512,512,512,512,512,512,512,512,512,512,512,512,512,512,512,512,512,510,467,408,345,299,244,230,223,219,219,219,218,215,210,205,197,192,190,182,171,142,126,112,103,98],"timestamp_mouse":[9,28,49,69,89,110,129,148,168,188,208,228,248,270,288,309,328,348,368,389,408,429,448,468,489,509,528,549,570,588,608,629,648,670,689,708,728,750,769,789,808,828,849,868,888,910,929,948,970,988,1008,1028,1049,1068,1090,1110,1128,1149,1168,1189,1208,1228,1248,1268,1289,1309,1328,1349,1369,1388,1410,1429,1448,1469,1489,1510,1528,1549,1568,1589,1609,1628,1648,1669,1689,1709,1729,1750,1768,1788,1809,1829,1850,1869,1889,1909,1929,1948,1969,1989,2008,2028,2048,2070,2088,2109,2128,2150,2169,2189,2209,2229,2249,2268,2289,2309,2329,2349,2369,2388,2409,2428,2448,2470,2489,2509,2529,2548,2569,2588,2608,2629,2649,2668,2689,2710,2729,2748,2769,2789,2810,2828,2849,2868,2888,2909,2929,2949,2969,2990,3009,3028,3048,3069,3089,3108,3129,3148,3168,3188,3209,3228,3248,3270,3289],"xSR":741.5,"ySR":469.95,"xT1":424.9,"yT1":0,"xT2":1058.1,"yT2":0,"toosoon":0,"cond_shown":"Congruent","ratio_trial":200,"L_num":4,"L_den":8,"R_num":3,"R_den":10,"correct_side":1,"subjID":"dannavalentinaherera16","gender":"1","school":"4","age":"9"},{"start_time":1552308604096,"click_time":1552308610923,"finger_time":1552308609584,"fix_duration":812.19666642141,"trial":17,"RT":5488,"MT":1339,"sideResp":2,"stimulus":[],"xmouse":[802,802,802,802,802,802,802,802,802,802,802,802,802,802,802,802,802,802,802,802,802,802,802,802,802,802,802,802,802,802,802,802,802,802,802,802,802,802,802,802,802,802,802,802,802,802,802,802,802,802,802,802,802,802,802,802,802,802,802,802,802,802,802,802,802,802,802,802,802,802,802,802,802,802,802,802,802,802,802,802,802,802,802,802,802,802,802,802,802,802,802,802,802,802,802,802,802,802,802,802,802,802,802,802,802,802,802,802,802,802,802,802,802,802,802,802,802,802,802,802,802,802,802,802,802,802,802,802,802,802,802,802,802,802,802,802,802,802,802,802,802,802,802,802,802,802,802,802,802,802,802,802,802,802,802,802,802,802,802,802,802,802,802,802,802,802,802,802,802,802,802,802,802,802,802,802,802,802,802,802,802,802,802,802,802,802,802,802,802,802,802,802,802,802,802,802,802,802,802,802,802,802,802,802,802,802,802,802,802,802,802,802,802,802,802,802,802,802,802,802,802,802,802,802,802,802,802,802,802,802,802,802,802,802,802,802,802,802,802,802,802,802,802,802,802,802,802,802,802,802,802,802,802,802,802,802,802,802,802,802,802,802,802,802,802,802,802,802,802,802,802,802,807,818,837,884,900,912,920,924,928,928,928,928,928,928,928,928,928,928,928,928,928,928,928,928,932,941,952,966,990,1000,1014,1036,1049,1065,1068,1068,1068,1068,1068,1066,1066,1066,1066,1066,1066,1066,1066,1066,1066,1067,1070,1074,1075,1075,1075,1075,1075,1075,1075,1075,1075,1075,1076,1077,1077,1077,1077,1079,1081,1082],"ymouse":[493,493,493,493,493,493,493,493,493,493,493,493,493,493,493,493,493,493,493,493,493,493,493,493,493,493,493,493,493,493,493,493,493,493,493,493,493,493,493,493,493,493,493,493,493,493,493,493,493,493,493,493,493,493,493,493,493,493,493,493,493,493,493,493,493,493,493,493,493,493,493,493,493,493,493,493,493,493,493,493,493,493,493,493,493,493,493,493,493,493,493,493,493,493,493,493,493,493,493,493,493,493,493,493,493,493,493,493,493,493,493,493,493,493,493,493,493,493,493,493,493,493,493,493,493,493,493,493,493,493,493,493,493,493,493,493,493,493,493,493,493,493,493,493,493,493,493,493,493,493,493,493,493,493,493,493,493,493,493,493,493,493,493,493,493,493,493,493,493,493,493,493,493,493,493,493,493,493,493,493,493,493,493,493,493,493,493,493,493,493,493,493,493,493,493,493,493,493,493,493,493,493,493,493,493,493,493,493,493,493,493,493,493,493,493,493,493,493,493,493,493,493,493,493,493,493,493,493,493,493,493,493,493,493,493,493,493,493,493,493,493,493,493,493,493,493,493,493,493,493,493,493,493,493,493,493,493,493,493,493,493,493,493,493,493,493,493,493,493,493,493,493,487,473,451,391,369,348,332,322,312,310,310,310,310,310,310,310,310,310,310,310,310,310,310,310,303,292,278,262,232,216,199,174,160,140,137,137,137,137,139,142,142,142,142,142,142,142,142,142,142,137,131,123,120,118,118,118,118,118,118,118,118,118,117,115,114,113,111,107,101,98],"timestamp_mouse":[7,27,47,68,89,107,128,148,168,188,208,228,248,268,287,307,328,349,367,387,409,428,448,468,489,507,527,547,567,587,609,628,648,667,688,707,727,747,769,788,808,828,847,868,889,907,927,947,967,988,1008,1027,1047,1068,1087,1108,1128,1148,1168,1187,1207,1227,1247,1268,1289,1308,1327,1348,1367,1388,1407,1427,1449,1468,1487,1508,1527,1548,1568,1587,1608,1628,1648,1667,1687,1707,1727,1747,1768,1788,1807,1828,1848,1867,1887,1907,1928,1949,1968,1987,2008,2027,2047,2068,2088,2107,2127,2147,2168,2187,2207,2228,2247,2268,2289,2307,2328,2348,2367,2389,2407,2427,2449,2467,2487,2508,2527,2547,2568,2587,2607,2628,2647,2669,2687,2707,2728,2747,2767,2788,2807,2827,2848,2869,2888,2907,2927,2948,2967,2987,3009,3027,3049,3068,3087,3109,3127,3147,3169,3187,3207,3227,3247,3268,3288,3308,3327,3348,3367,3387,3408,3428,3449,3468,3488,3508,3527,3547,3569,3588,3608,3629,3647,3667,3687,3708,3727,3748,3767,3788,3808,3828,3847,3867,3887,3908,3928,3948,3968,3988,4009,4028,4048,4068,4088,4107,4127,4147,4167,4188,4208,4228,4249,4269,4289,4307,4328,4347,4367,4387,4407,4428,4448,4467,4487,4507,4527,4547,4569,4588,4607,4628,4648,4668,4687,4707,4727,4747,4767,4789,4807,4828,4849,4868,4887,4907,4927,4947,4967,4987,5009,5027,5048,5067,5087,5107,5127,5147,5167,5187,5207,5229,5247,5268,5289,5308,5328,5349,5368,5388,5407,5427,5447,5467,5488,5508,5529,5547,5568,5587,5609,5628,5648,5667,5688,5707,5727,5747,5768,5789,5807,5827,5847,5867,5888,5908,5927,5947,5967,5987,6007,6027,6047,6068,6087,6108,6127,6147,6168,6187,6207,6227,6247,6269,6287,6308,6328,6348,6367,6387,6407,6427,6447,6467,6487,6509,6527,6547,6567,6588,6607,6627,6648,6667,6688,6707,6727,6747,6767,6788,6807,6827],"xSR":741.5,"ySR":469.95,"xT1":424.9,"yT1":0,"xT2":1058.1,"yT2":0,"toosoon":0,"cond_shown":"Incongruent","ratio_trial":100,"L_num":8,"L_den":16,"R_num":6,"R_den":10,"correct_side":2,"subjID":"dannavalentinaherera16","gender":"1","school":"4","age":"9"},{"start_time":1552308617599,"click_time":1552308619243,"finger_time":1552308618703,"fix_duration":1052.1346761896637,"trial":18,"RT":1104,"MT":540,"sideResp":2,"stimulus":[],"xmouse":[792,792,792,792,792,792,792,792,792,792,792,792,792,792,792,792,792,792,792,792,792,792,792,792,792,792,792,792,792,792,792,792,792,792,792,792,792,792,792,792,792,792,792,792,792,792,792,792,792,792,792,792,792,793,813,828,854,862,896,940,960,980,998,1013,1023,1040,1040,1040,1040,1040,1040,1040,1040,1040,1040,1040,1040,1052,1052,1054,1055,1057,1059],"ymouse":[527,527,527,527,527,527,527,527,527,527,527,527,527,527,527,527,527,527,527,527,527,527,527,527,527,527,527,527,527,527,527,527,527,527,527,527,527,527,527,527,527,527,527,527,527,527,527,527,527,527,527,527,527,521,491,468,428,408,350,255,204,155,115,80,54,10,10,10,10,10,10,10,10,10,10,10,10,10,20,23,24,25,26],"timestamp_mouse":[6,24,45,64,84,105,126,150,164,185,204,224,245,264,285,306,324,345,364,385,404,424,444,464,484,506,524,545,565,584,605,625,645,665,684,704,724,744,765,786,805,824,845,864,884,904,925,944,965,984,1004,1024,1045,1064,1084,1104,1124,1145,1165,1186,1204,1224,1244,1265,1284,1304,1324,1344,1365,1385,1404,1424,1446,1465,1485,1505,1524,1544,1564,1585,1604,1624,1644],"xSR":741.5,"ySR":469.95,"xT1":424.9,"yT1":0,"xT2":1058.1,"yT2":0,"toosoon":0,"cond_shown":"Congruent","ratio_trial":100,"L_num":6,"L_den":12,"R_num":15,"R_den":25,"correct_side":2,"subjID":"dannavalentinaherera16","gender":"1","school":"4","age":"9"},{"start_time":1552308620747,"click_time":1552308622823,"finger_time":1552308622364,"fix_duration":403.5058673405932,"trial":19,"RT":1617,"MT":459,"sideResp":2,"stimulus":[],"xmouse":[785,785,785,785,785,785,785,785,785,785,785,785,785,785,785,785,785,785,785,785,785,785,785,785,785,785,785,785,785,785,785,785,785,785,785,785,785,785,785,785,785,785,785,785,785,785,785,785,785,785,785,785,785,785,785,785,785,785,785,785,785,785,785,785,785,785,785,785,785,785,785,785,785,785,785,785,785,785,803,816,854,873,893,897,897,897,897,897,897,901,906,932,948,959,970,977,997,1009,1025,1053,1076,1121,1140,1154],"ymouse":[553,553,553,553,553,553,553,553,553,553,553,553,553,553,553,553,553,553,553,553,553,553,553,553,553,553,553,553,553,553,553,553,553,553,553,553,553,553,553,553,553,553,553,553,553,553,553,553,553,553,553,553,553,553,553,553,553,553,553,553,553,553,553,553,553,553,553,553,553,553,553,553,553,553,553,553,553,553,525,506,449,417,377,369,367,367,367,367,367,364,358,330,317,307,298,292,277,268,256,235,215,165,128,98],"timestamp_mouse":[17,37,57,77,97,117,137,156,176,196,218,236,256,276,296,316,337,357,376,397,417,438,457,476,498,516,536,557,576,597,617,636,656,677,696,716,736,757,778,796,817,836,856,878,896,917,937,956,976,997,1017,1036,1057,1077,1096,1117,1138,1157,1177,1196,1217,1236,1256,1277,1298,1316,1337,1357,1376,1397,1417,1436,1458,1476,1497,1516,1538,1557,1577,1596,1617,1636,1657,1677,1696,1718,1736,1756,1777,1796,1816,1837,1856,1876,1897,1916,1937,1957,1977,1996,2016,2037,2057,2076],"xSR":741.5,"ySR":469.95,"xT1":424.9,"yT1":0,"xT2":1058.1,"yT2":0,"toosoon":0,"cond_shown":"Incongruent","ratio_trial":300,"L_num":3,"L_den":6,"R_num":4,"R_den":20,"correct_side":1,"subjID":"dannavalentinaherera16","gender":"1","school":"4","age":"9"},{"start_time":1552308624506,"click_time":1552308625963,"finger_time":1552308625423,"fix_duration":641.4496783658141,"trial":20,"RT":917,"MT":540,"sideResp":1,"stimulus":[],"xmouse":[801,801,801,801,801,801,801,801,801,801,801,801,801,801,801,801,801,801,801,801,801,801,801,801,801,801,801,801,801,801,801,801,801,801,801,801,801,801,801,801,801,801,801,801,801,785,752,713,633,603,585,573,566,564,562,560,559,558,557,557,557,557,557,557,557,557,557,557,557,557,555,543,521],"ymouse":[502,502,502,502,502,502,502,502,502,502,502,502,502,502,502,502,502,502,502,502,502,502,502,502,502,502,502,502,502,502,502,502,502,502,502,502,502,502,502,502,502,502,502,502,496,446,397,347,256,220,196,183,171,165,151,143,135,130,126,126,126,126,126,126,126,126,126,126,126,126,124,107,82],"timestamp_mouse":[17,38,58,77,97,117,139,158,178,199,217,238,258,277,297,319,337,358,379,397,418,439,457,477,497,518,538,558,578,597,618,637,657,678,697,718,738,758,777,798,818,838,857,877,897,917,937,957,979,997,1017,1037,1057,1077,1097,1118,1137,1157,1179,1197,1217,1237,1257,1278,1297,1319,1337,1357,1378,1398,1418,1437,1457],"xSR":741.5,"ySR":469.95,"xT1":424.9,"yT1":0,"xT2":1058.1,"yT2":0,"toosoon":0,"cond_shown":"Incongruent","ratio_trial":100,"L_num":8,"L_den":20,"R_num":1,"R_den":2,"correct_side":2,"subjID":"dannavalentinaherera16","gender":"1","school":"4","age":"9"},{"start_time":1552308629796,"click_time":1552308632123,"finger_time":1552308631363,"fix_duration":250,"trial":21,"RT":1567,"MT":760,"sideResp":1,"stimulus":[],"xmouse":[820,820,820,820,820,820,820,820,820,820,820,820,820,820,820,820,820,820,820,820,820,820,820,820,820,820,820,820,820,820,820,820,820,820,820,820,820,820,820,820,820,820,820,820,820,820,820,820,820,820,820,820,820,820,820,820,820,820,820,820,820,820,820,820,820,820,820,820,820,820,820,820,820,820,820,816,811,801,796,791,784,782,779,775,771,764,758,747,738,729,706,695,682,666,634,620,609,595,585,576,553,543,532,525,515,513,512,509,507,507,507,507,506,503,498,494,490],"ymouse":[521,521,521,521,521,521,521,521,521,521,521,521,521,521,521,521,521,521,521,521,521,521,521,521,521,521,521,521,521,521,521,521,521,521,521,521,521,521,521,521,521,521,521,521,521,521,521,521,521,521,521,521,521,521,521,521,521,521,521,521,521,521,521,521,521,521,521,521,521,521,521,521,521,521,521,514,505,483,467,451,427,420,412,404,397,379,368,351,336,321,295,284,273,261,239,228,221,210,205,202,194,189,185,181,174,171,168,161,157,155,145,141,135,127,112,104,97],"timestamp_mouse":[7,28,47,68,87,107,129,147,168,187,207,227,247,267,287,307,327,347,368,388,408,427,447,468,487,508,527,548,567,588,607,627,648,669,687,708,729,747,768,789,808,828,848,867,888,907,927,947,967,987,1007,1027,1047,1067,1087,1107,1127,1147,1167,1188,1207,1228,1247,1267,1288,1308,1327,1347,1367,1387,1407,1428,1447,1467,1487,1509,1528,1548,1567,1587,1608,1627,1648,1667,1687,1708,1728,1747,1767,1787,1808,1827,1847,1868,1888,1908,1927,1947,1968,1987,2008,2028,2047,2067,2088,2107,2128,2148,2167,2187,2207,2227,2247,2267,2289,2308,2327],"xSR":741.5,"ySR":469.95,"xT1":424.9,"yT1":0,"xT2":1058.1,"yT2":0,"toosoon":0,"cond_shown":"Incongruent","ratio_trial":100,"L_num":8,"L_den":16,"R_num":6,"R_den":10,"correct_side":2,"subjID":"dannavalentinaherera16","gender":"1","school":"4","age":"9"},{"start_time":1552308649984,"click_time":1552308652765,"finger_time":1552308652044,"fix_duration":938.2747880887013,"trial":22,"RT":2060,"MT":721,"sideResp":1,"stimulus":[],"xmouse":[809,809,809,809,809,809,809,809,809,809,809,809,809,809,809,809,809,809,809,809,809,809,809,809,809,809,809,809,809,809,809,809,809,809,809,809,809,809,809,809,809,809,809,809,809,809,809,809,809,809,809,809,809,809,809,809,809,809,809,809,809,809,809,809,809,809,809,809,809,809,809,809,809,809,809,809,809,809,809,809,809,809,809,809,809,809,809,809,809,809,809,809,809,809,809,809,809,809,809,809,809,801,771,735,698,653,617,615,611,601,598,597,597,601,605,608,612,608,592,569,569,569,569,569,569,569,569,569,569,569,569,569,569,569,569,569,569,569,569,493],"ymouse":[512,512,512,512,512,512,512,512,512,512,512,512,512,512,512,512,512,512,512,512,512,512,512,512,512,512,512,512,512,512,512,512,512,512,512,512,512,512,512,512,512,512,512,512,512,512,512,512,512,512,512,512,512,512,512,512,512,512,512,512,512,512,512,512,512,512,512,512,512,512,512,512,512,512,512,512,512,512,512,512,512,512,512,512,512,512,512,512,512,512,512,512,512,512,512,512,512,512,512,512,512,511,490,466,443,418,393,391,383,362,348,312,292,269,246,224,167,122,70,11,11,11,11,11,11,11,11,11,11,11,11,11,11,11,11,11,11,11,11,3],"timestamp_mouse":[3,24,42,61,82,101,120,140,161,181,200,221,241,261,282,301,320,341,362,380,400,421,442,461,480,500,522,541,561,581,601,620,640,661,681,700,721,742,761,781,800,821,840,860,880,900,921,942,960,980,1000,1021,1040,1061,1081,1100,1120,1140,1162,1182,1201,1220,1242,1261,1282,1300,1321,1341,1361,1382,1402,1420,1440,1461,1481,1501,1521,1540,1561,1581,1601,1621,1640,1661,1682,1701,1720,1741,1761,1781,1802,1821,1842,1862,1880,1901,1922,1942,1962,1981,2001,2021,2041,2060,2082,2101,2121,2140,2161,2181,2200,2221,2241,2260,2281,2301,2321,2341,2360,2381,2402,2420,2441,2461,2481,2501,2520,2540,2560,2581,2600,2620,2641,2661,2680,2701,2720,2740,2761,2780],"xSR":741.5,"ySR":469.95,"xT1":424.9,"yT1":0,"xT2":1058.1,"yT2":0,"toosoon":0,"cond_shown":"Congruent","ratio_trial":300,"L_num":20,"L_den":25,"R_num":9,"R_den":18,"correct_side":1,"subjID":"dannavalentinaherera16","gender":"1","school":"4","age":"9"},{"start_time":1552308656137,"click_time":1552308658065,"finger_time":1552308657965,"fix_duration":250,"trial":23,"RT":1828,"MT":100,"sideResp":1,"stimulus":[],"xmouse":[774,774,774,774,774,774,774,774,774,774,774,774,774,774,774,774,774,774,774,774,774,774,774,774,774,774,774,774,774,774,774,774,774,774,774,774,774,774,774,774,774,774,774,774,774,774,774,774,774,774,774,774,774,774,774,774,774,774,774,774,774,774,774,774,774,774,774,774,774,774,774,774,770,762,762,762,762,762,762,762,762,762,762,762,762,762,762,762,762,762,755,723,646,605,550,511,474],"ymouse":[527,527,527,527,527,527,527,527,527,527,527,527,527,527,527,527,527,527,527,527,527,527,527,527,527,527,527,527,527,527,527,527,527,527,527,527,527,527,527,527,527,527,527,527,527,527,527,527,527,527,527,527,527,527,527,527,527,527,527,527,527,527,527,527,527,527,527,527,527,527,527,526,514,493,493,493,493,493,493,493,493,493,493,493,493,493,493,493,493,492,479,428,306,244,172,120,72],"timestamp_mouse":[9,27,48,67,87,109,128,147,168,189,208,229,248,267,288,309,328,347,368,387,408,427,448,468,487,508,529,548,567,588,608,628,647,667,688,708,727,749,769,787,809,828,847,867,887,907,929,948,967,987,1008,1028,1047,1068,1089,1108,1127,1148,1168,1187,1209,1229,1248,1267,1287,1307,1329,1347,1368,1387,1408,1429,1448,1467,1489,1509,1527,1548,1568,1588,1607,1627,1648,1669,1687,1707,1729,1749,1769,1787,1807,1828,1848,1867,1887,1909,1928],"xSR":741.5,"ySR":469.95,"xT1":424.9,"yT1":0,"xT2":1058.1,"yT2":0,"toosoon":0,"cond_shown":"Incongruent","ratio_trial":100,"L_num":12,"L_den":30,"R_num":2,"R_den":4,"correct_side":2,"subjID":"dannavalentinaherera16","gender":"1","school":"4","age":"9"},{"start_time":1552308674346,"click_time":1552308676245,"finger_time":1552308675826,"fix_duration":1000.246957873953,"trial":24,"RT":1480,"MT":419,"sideResp":1,"stimulus":[],"xmouse":[771,771,771,771,771,771,771,771,771,771,771,771,771,771,771,771,771,771,771,771,771,771,771,771,771,771,771,771,771,771,771,771,771,771,771,771,771,771,771,771,771,771,771,771,771,771,771,771,771,771,771,771,771,771,771,771,771,771,771,771,771,771,771,771,771,771,771,771,771,771,771,771,760,712,659,616,572,561,553,548,546,546,546,546,546,546,546,546,546,546,546,546,518,491,466],"ymouse":[527,527,527,527,527,527,527,527,527,527,527,527,527,527,527,527,527,527,527,527,527,527,527,527,527,527,527,527,527,527,527,527,527,527,527,527,527,527,527,527,527,527,527,527,527,527,527,527,527,527,527,527,527,527,527,527,527,527,527,527,527,527,527,527,527,527,527,527,527,527,527,527,504,468,423,377,275,234,202,171,157,153,152,152,152,152,152,152,152,152,152,152,131,113,95],"timestamp_mouse":[18,39,59,79,98,119,140,158,178,198,220,238,258,278,299,319,338,358,380,398,419,438,458,480,499,518,539,559,578,600,620,638,658,679,699,718,740,760,778,800,820,838,858,879,899,918,938,958,978,999,1019,1040,1059,1080,1098,1118,1139,1160,1179,1199,1218,1238,1259,1279,1300,1319,1339,1358,1380,1399,1420,1438,1458,1480,1498,1518,1540,1559,1580,1598,1618,1638,1659,1678,1699,1718,1739,1759,1779,1799,1820,1838,1859,1878,1899],"xSR":741.5,"ySR":469.95,"xT1":424.9,"yT1":0,"xT2":1058.1,"yT2":0,"toosoon":0,"cond_shown":"Incongruent","ratio_trial":200,"L_num":14,"L_den":30,"R_num":12,"R_den":18,"correct_side":2,"subjID":"dannavalentinaherera16","gender":"1","school":"4","age":"9"},{"start_time":1552308680336,"click_time":1552308682405,"finger_time":1552308681785,"fix_duration":250,"trial":25,"RT":1449,"MT":620,"sideResp":1,"stimulus":[],"xmouse":[812,812,812,812,812,812,812,812,812,812,812,812,813,814,814,815,815,815,816,816,816,816,816,816,816,816,816,816,816,818,821,827,828,828,829,829,829,829,829,829,829,829,829,829,829,829,829,829,829,829,829,829,829,829,829,829,829,829,829,829,829,829,829,829,829,829,829,829,829,828,808,753,687,589,582,582,584,587,598,605,606,606,606,596,587,571,550,519,424,379,333,291,273,261,261,261,261,261,261,261,261,349,387,425],"ymouse":[557,557,557,557,557,557,557,557,557,557,557,557,557,557,557,557,557,557,557,557,557,557,557,557,557,557,557,557,557,557,557,557,557,557,557,557,557,557,557,557,557,557,557,557,557,557,557,557,557,557,557,557,557,557,557,557,557,557,557,557,557,557,557,557,557,557,557,557,557,557,543,507,458,382,372,368,364,359,347,333,327,308,297,277,265,252,238,214,138,101,62,25,11,1,1,1,1,1,1,1,1,7,12,23],"timestamp_mouse":[8,28,48,68,89,110,129,148,169,189,209,230,250,269,289,309,330,349,369,389,410,430,448,469,490,510,529,550,570,589,608,629,648,670,690,708,729,750,768,789,810,830,848,869,889,909,930,949,970,989,1010,1028,1048,1070,1090,1109,1128,1149,1170,1190,1210,1229,1248,1269,1288,1308,1329,1349,1370,1390,1408,1428,1449,1469,1488,1508,1529,1548,1568,1589,1608,1628,1649,1669,1689,1708,1728,1748,1768,1788,1808,1830,1848,1868,1888,1908,1929,1948,1968,1990,2008,2028,2048,2068],"xSR":741.5,"ySR":469.95,"xT1":424.9,"yT1":0,"xT2":1058.1,"yT2":0,"toosoon":0,"cond_shown":"Incongruent","ratio_trial":300,"L_num":4,"L_den":20,"R_num":2,"R_den":4,"correct_side":2,"subjID":"dannavalentinaherera16","gender":"1","school":"4","age":"9"},{"start_time":1552308693998,"click_time":1552308699104,"finger_time":1552308695586,"fix_duration":1490.1368561818579,"trial":26,"RT":1588,"MT":3518,"sideResp":2,"stimulus":[],"xmouse":[786,786,786,786,786,786,786,786,786,786,786,786,786,786,786,786,786,786,786,786,786,786,786,786,786,786,786,786,786,786,786,786,786,786,786,786,786,786,786,786,786,786,786,786,786,786,786,786,786,786,786,786,786,786,786,786,786,786,786,786,786,786,786,786,786,786,786,786,786,786,786,786,786,786,786,786,786,786,786,776,740,722,710,700,694,667,652,645,644,644,644,644,644,643,629,620,613,607,602,595,582,574,565,554,546,531,525,524,524,524,524,524,524,524,524,524,524,524,524,524,524,524,524,524,524,530,552,559,583,620,644,683,750,832,930,1125,1201,1275,1298,1303,1303,1303,1303,1303,1303,1303,1297,1278,1244,1218,1156,1128,1110,1101,1095,1093,1090,1088,1088,1088,1088,1088,1088,1088,1088,1089,1092,1093,1093,1098,1100,1100,1100,1100,1099,1099,1099,1099,1099,1099,1099,1099,1099,1099,1099,1099,1099,1099,1099,1099,1099,1099,1099,1099,1099,1099,1099,1099,1099,1099,1099,1099,1099,1099,1099,1099,1099,1099,1099,1099,1099,1099,1104,1109,1113,1113,1114,1114,1114,1114,1114,1114,1114,1114,1114,1114,1114,1114,1114,1114,1114,1114,1114,1114,1114,1114,1114,1114,1114,1114,1114,1114,1114,1114,1114,1114,1114,1114,1114,1114,1114,1114,1114,1115,1115,1116],"ymouse":[530,530,530,530,530,530,530,530,530,530,530,530,530,530,530,530,530,530,530,530,530,530,530,530,530,530,530,530,530,530,530,530,530,530,530,530,530,530,530,530,530,530,530,530,530,530,530,530,530,530,530,530,530,530,530,530,530,530,530,530,530,530,530,530,530,530,530,530,530,530,530,530,530,530,530,530,530,530,511,465,381,359,350,348,348,345,344,342,342,342,342,342,342,341,314,298,281,256,240,224,200,190,182,174,169,158,154,153,153,153,153,153,153,152,152,152,152,152,152,152,152,152,152,152,152,152,152,153,155,156,157,158,167,180,193,222,232,240,240,240,240,240,240,240,240,240,238,229,212,197,151,129,116,112,111,112,114,115,115,115,115,115,115,115,115,112,109,108,108,108,108,108,108,109,110,110,110,110,110,110,110,110,110,110,110,110,110,110,110,110,110,110,110,110,110,110,110,110,110,110,110,110,110,110,110,110,110,110,110,110,110,109,106,104,102,102,102,102,102,102,102,102,102,102,102,102,102,102,102,102,102,102,102,102,102,102,102,102,102,102,102,102,102,102,102,102,102,102,102,102,102,102,102,101,100,99],"timestamp_mouse":[6,26,46,68,86,107,126,148,168,186,207,227,247,268,287,306,328,346,367,386,407,426,448,467,487,507,526,548,567,588,607,626,647,667,688,706,726,747,767,786,806,828,847,868,888,907,927,947,967,986,1006,1027,1047,1068,1088,1107,1126,1147,1167,1187,1208,1226,1247,1266,1287,1307,1328,1348,1367,1387,1407,1427,1448,1468,1487,1506,1527,1547,1568,1588,1607,1626,1648,1666,1686,1707,1728,1746,1767,1787,1807,1828,1847,1866,1887,1906,1928,1948,1967,1987,2007,2027,2048,2068,2087,2106,2127,2148,2168,2188,2207,2227,2247,2266,2288,2307,2326,2347,2366,2386,2407,2427,2447,2467,2488,2507,2527,2547,2566,2587,2606,2626,2647,2666,2686,2706,2727,2747,2766,2786,2807,2826,2846,2867,2888,2906,2926,2947,2968,2988,3007,3027,3046,3067,3088,3106,3127,3146,3166,3186,3206,3226,3246,3266,3286,3307,3326,3347,3366,3388,3407,3427,3446,3466,3486,3507,3527,3547,3566,3586,3606,3626,3647,3667,3688,3707,3727,3747,3767,3788,3808,3828,3846,3866,3886,3906,3928,3947,3967,3987,4007,4026,4046,4067,4086,4107,4127,4147,4166,4187,4206,4227,4246,4266,4287,4306,4326,4346,4367,4386,4406,4426,4446,4466,4487,4507,4527,4547,4566,4587,4608,4628,4647,4666,4687,4707,4726,4747,4767,4788,4808,4826,4848,4867,4887,4907,4928,4947,4966,4987,5006,5027,5047,5066,5088,5106],"xSR":741.5,"ySR":469.95,"xT1":424.9,"yT1":0,"xT2":1058.1,"yT2":0,"toosoon":0,"cond_shown":"Congruent","ratio_trial":100,"L_num":12,"L_den":30,"R_num":13,"R_den":26,"correct_side":2,"subjID":"dannavalentinaherera16","gender":"1","school":"4","age":"9"},{"start_time":1552308706503,"click_time":1552308708504,"finger_time":1552308707965,"fix_duration":1458.5386505157792,"trial":27,"RT":1462,"MT":539,"sideResp":2,"stimulus":[],"xmouse":[775,775,775,775,775,775,775,775,775,775,775,775,775,775,775,775,775,775,775,775,775,775,776,777,777,777,778,778,778,778,778,778,778,778,778,778,777,777,777,776,776,776,776,776,776,776,776,776,776,776,776,776,776,776,776,776,776,776,776,776,777,777,777,777,778,778,778,778,778,779,784,792,801,811,816,855,876,901,928,954,1013,1035,1035,1035,1035,1035,1035,1035,1035,1035,1035,1035,1035,1035,1035,1035,1035,1035,1035,1035,1124],"ymouse":[558,558,558,558,558,558,558,558,558,558,558,558,558,558,558,558,558,558,558,558,558,558,557,556,554,553,552,552,552,551,551,550,549,548,547,547,546,546,546,545,545,545,545,545,545,545,545,545,545,545,545,545,545,545,545,545,545,545,545,544,542,540,539,538,538,538,537,536,535,533,524,506,489,468,457,383,330,273,213,149,41,1,1,1,1,1,1,1,1,1,1,1,1,1,1,1,1,1,1,1,2],"timestamp_mouse":[3,24,41,61,82,102,121,142,163,182,202,222,242,263,283,301,322,342,361,381,402,422,441,461,482,502,521,543,563,582,602,623,643,663,682,703,723,742,762,782,802,822,842,862,882,902,922,942,962,982,1001,1023,1042,1062,1082,1102,1122,1142,1162,1182,1203,1222,1242,1262,1282,1302,1322,1342,1363,1383,1401,1421,1441,1462,1481,1501,1521,1541,1561,1581,1601,1621,1641,1661,1681,1701,1721,1741,1761,1781,1801,1821,1841,1861,1882,1902,1921,1941,1961,1982,2001],"xSR":741.5,"ySR":469.95,"xT1":424.9,"yT1":0,"xT2":1058.1,"yT2":0,"toosoon":0,"cond_shown":"Congruent","ratio_trial":100,"L_num":4,"L_den":10,"R_num":15,"R_den":30,"correct_side":2,"subjID":"dannavalentinaherera16","gender":"1","school":"4","age":"9"},{"start_time":1552308711232,"click_time":1552308712327,"finger_time":1552308711685,"fix_duration":1386.6765357121055,"trial":28,"RT":453,"MT":642,"sideResp":2,"stimulus":[],"xmouse":[791,791,791,791,791,791,791,791,791,791,791,791,791,791,791,791,791,795,809,819,830,841,871,893,912,938,950,958,970,975,977,977,981,983,983,983,983,983,983,983,983,983,983,991,999,1013,1026,1059,1074,1086,1097,1105,1110,1119,1120],"ymouse":[537,537,537,537,537,537,537,537,537,537,537,537,537,537,537,537,537,532,517,507,497,490,468,451,436,415,402,393,373,364,357,357,348,342,342,342,342,342,342,342,342,341,341,326,313,289,269,219,197,178,159,144,131,109,96],"timestamp_mouse":[14,33,53,73,93,113,133,153,173,193,213,233,253,273,293,313,333,354,373,393,414,433,453,473,494,513,533,553,573,594,613,633,653,673,693,713,734,754,773,793,813,833,853,873,893,913,933,954,973,993,1013,1033,1053,1073,1095],"xSR":741.5,"ySR":469.95,"xT1":424.9,"yT1":0,"xT2":1058.1,"yT2":0,"toosoon":0,"cond_shown":"Congruent","ratio_trial":100,"L_num":4,"L_den":8,"R_num":6,"R_den":10,"correct_side":2,"subjID":"dannavalentinaherera16","gender":"1","school":"4","age":"9"},{"start_time":1552308713896,"click_time":1552308714886,"finger_time":1552308714366,"fix_duration":250,"trial":29,"RT":470,"MT":520,"sideResp":2,"stimulus":[],"xmouse":[806,806,806,806,806,806,806,806,806,806,806,806,806,806,806,806,806,806,806,808,817,820,829,842,861,912,934,945,968,985,1008,1025,1037,1049,1062,1082,1088,1091,1092,1094,1096,1096,1096,1096,1096,1094,1093,1092,1091,1091],"ymouse":[538,538,538,538,538,538,538,538,538,538,538,538,538,538,538,538,538,538,536,531,516,507,489,471,447,392,367,351,315,284,244,220,204,189,174,150,142,138,133,130,123,120,117,114,114,109,106,102,100,99],"timestamp_mouse":[10,29,49,69,89,109,129,149,171,191,211,230,250,270,290,310,330,349,369,390,410,430,449,470,490,510,529,549,570,590,609,629,650,670,690,710,730,749,769,790,809,829,850,869,889,910,929,949,970,989],"xSR":741.5,"ySR":469.95,"xT1":424.9,"yT1":0,"xT2":1058.1,"yT2":0,"toosoon":0,"cond_shown":"Incongruent","ratio_trial":300,"L_num":8,"L_den":10,"R_num":9,"R_den":18,"correct_side":1,"subjID":"dannavalentinaherera16","gender":"1","school":"4","age":"9"},{"start_time":1552308722181,"click_time":1552308724045,"finger_time":1552308723346,"fix_duration":754.2425065249764,"trial":30,"RT":1165,"MT":699,"sideResp":1,"stimulus":[],"xmouse":[789,789,789,789,789,789,789,789,789,789,789,789,789,789,789,789,789,789,789,789,789,789,789,789,789,789,789,789,789,789,789,789,789,789,789,789,789,789,788,787,786,786,786,786,786,786,786,786,785,785,783,782,781,780,778,770,766,759,745,731,712,674,652,628,612,600,600,600,600,600,600,600,600,600,600,600,600,600,600,600,600,600,600,600,600,600,600,600,600,600,600,600,600,461],"ymouse":[514,514,514,514,514,514,514,514,514,514,514,514,514,514,514,514,514,514,514,514,514,514,514,514,514,514,514,514,514,514,514,514,514,514,514,514,514,514,512,510,509,509,509,509,509,509,507,506,503,502,501,499,499,498,496,490,485,475,448,409,359,253,185,121,64,13,13,13,13,13,13,13,13,13,13,13,13,13,13,13,13,13,13,13,13,13,13,13,13,13,13,13,13,14],"timestamp_mouse":[4,27,45,64,84,104,124,144,164,184,204,224,244,264,284,304,324,344,364,384,404,424,444,464,484,504,524,546,566,586,605,626,646,665,686,705,725,744,765,786,805,824,844,864,884,904,924,945,965,985,1005,1024,1045,1065,1085,1105,1124,1145,1165,1185,1205,1225,1244,1265,1285,1304,1324,1344,1365,1384,1404,1425,1444,1464,1484,1504,1525,1545,1564,1584,1604,1624,1645,1664,1684,1704,1724,1745,1764,1784,1804,1824,1844,1864],"xSR":741.5,"ySR":469.95,"xT1":424.9,"yT1":0,"xT2":1058.1,"yT2":0,"toosoon":0,"cond_shown":"Congruent","ratio_trial":100,"L_num":9,"L_den":15,"R_num":8,"R_den":16,"correct_side":1,"subjID":"dannavalentinaherera16","gender":"1","school":"4","age":"9"},{"start_time":1552308728532,"click_time":1552308730166,"finger_time":1552308729786,"fix_duration":786.1790520942336,"trial":31,"RT":1254,"MT":380,"sideResp":1,"stimulus":[],"xmouse":[800,800,800,800,798,797,796,795,795,795,795,795,795,795,795,795,795,795,795,795,795,795,795,795,795,795,795,795,795,795,795,795,795,795,795,795,795,795,795,795,795,795,795,795,795,795,795,795,795,795,795,795,795,795,795,795,795,795,795,795,790,779,738,707,680,658,640,627,608,598,596,593,591,585,581,578,575,572,559,545,534,522],"ymouse":[504,504,504,504,508,511,514,517,517,517,517,517,517,517,517,517,517,517,518,518,518,518,518,518,518,518,518,518,518,518,518,518,518,518,518,518,518,518,518,518,518,518,518,518,518,518,518,518,518,518,518,518,518,518,518,518,518,518,518,513,502,486,437,399,371,340,317,299,266,247,240,234,226,207,193,182,169,156,115,75,54,36],"timestamp_mouse":[14,34,53,73,93,114,134,154,174,193,213,233,253,273,293,313,333,353,373,393,413,433,453,473,493,513,533,553,573,593,613,633,653,673,693,713,733,753,773,793,813,833,853,873,893,913,933,953,973,993,1013,1033,1053,1073,1093,1113,1133,1155,1175,1195,1215,1235,1254,1274,1294,1314,1335,1354,1374,1393,1413,1435,1454,1474,1494,1513,1533,1554,1573,1593,1614,1634],"xSR":741.5,"ySR":469.95,"xT1":424.9,"yT1":0,"xT2":1058.1,"yT2":0,"toosoon":0,"cond_shown":"Congruent","ratio_trial":100,"L_num":6,"L_den":12,"R_num":15,"R_den":25,"correct_side":2,"subjID":"dannavalentinaherera16","gender":"1","school":"4","age":"9"},{"start_time":1552308732881,"click_time":1552308733746,"finger_time":1552308733286,"fix_duration":614.967587968319,"trial":32,"RT":405,"MT":460,"sideResp":2,"stimulus":[],"xmouse":[792,792,792,792,792,792,792,792,792,792,792,792,792,792,792,792,793,801,810,822,845,858,872,893,907,918,928,930,932,933,934,938,939,944,948,954,970,982,995,1010,1052,1074,1092,1124],"ymouse":[508,508,508,508,508,508,508,508,508,508,508,508,508,508,508,508,506,498,491,479,456,440,424,392,374,358,339,337,333,332,329,324,322,316,310,301,279,264,247,226,168,135,103,45],"timestamp_mouse":[4,27,44,64,84,104,124,144,164,184,204,224,244,264,284,306,326,346,366,386,405,425,445,465,486,505,525,544,564,584,605,624,645,664,685,705,725,744,764,785,806,826,844,865],"xSR":741.5,"ySR":469.95,"xT1":424.9,"yT1":0,"xT2":1058.1,"yT2":0,"toosoon":0,"cond_shown":"Congruent","ratio_trial":200,"L_num":7,"L_den":15,"R_num":18,"R_den":27,"correct_side":2,"subjID":"dannavalentinaherera16","gender":"1","school":"4","age":"9"},{"start_time":1552308737604,"click_time":1552308738306,"finger_time":1552308737925,"fix_duration":919.9936603135042,"trial":33,"RT":321,"MT":381,"sideResp":2,"stimulus":[],"xmouse":[801,801,801,801,801,801,801,801,801,801,801,801,801,801,807,815,835,855,881,916,1029,1096,1152,1178,1184,1184,1183,1183,1183,1183,1183,1182,1180,1175,1167,1153],"ymouse":[506,506,505,505,505,504,504,504,504,504,504,504,504,498,487,472,442,414,378,333,238,184,118,81,67,55,50,50,50,50,50,49,48,47,45,44],"timestamp_mouse":[4,21,41,61,81,101,122,141,161,181,201,221,241,262,281,301,321,342,361,381,401,422,441,461,481,501,521,541,561,582,602,621,642,661,682,702],"xSR":741.5,"ySR":469.95,"xT1":424.9,"yT1":0,"xT2":1058.1,"yT2":0,"toosoon":0,"cond_shown":"Congruent","ratio_trial":200,"L_num":4,"L_den":8,"R_num":3,"R_den":10,"correct_side":1,"subjID":"dannavalentinaherera16","gender":"1","school":"4","age":"9"},{"start_time":1552308748173,"click_time":1552308751205,"finger_time":1552308749985,"fix_duration":646.8913449646969,"trial":34,"RT":1812,"MT":1220,"sideResp":2,"stimulus":[],"xmouse":[806,806,806,806,806,806,806,806,806,806,806,806,806,806,806,806,806,806,806,806,806,806,806,806,806,806,806,806,806,806,806,806,806,806,806,806,806,806,806,806,806,806,806,806,806,806,806,806,806,806,806,806,806,806,806,806,806,806,806,806,806,806,806,806,806,806,806,806,806,806,806,806,806,806,806,806,806,806,806,806,806,806,806,806,806,806,808,816,822,826,834,836,839,843,847,853,858,858,858,858,858,856,847,839,832,824,816,814,813,813,813,813,813,813,813,813,814,817,824,831,853,868,885,902,919,934,958,970,981,985,987,989,991,995,1001,1010,1028,1035,1043,1044,1044,1044,1044,1044,1044,1045,1047,1051,1057,1065,1075,1093],"ymouse":[519,519,519,519,519,519,519,519,519,519,519,519,519,519,519,519,519,519,519,519,519,519,519,519,519,519,519,519,519,519,519,519,519,519,519,519,519,519,519,519,519,519,519,519,519,519,519,519,519,519,519,519,519,519,519,519,519,519,519,519,519,519,519,519,519,519,519,519,519,519,519,519,519,519,519,519,513,505,500,496,494,493,493,493,493,493,490,484,477,471,460,456,452,448,442,436,424,419,419,418,418,415,411,407,404,401,396,395,394,394,394,394,394,394,394,394,392,385,373,361,330,313,296,282,268,254,228,215,201,196,193,191,188,185,177,167,145,136,127,126,126,126,126,126,126,126,124,122,119,114,106,87],"timestamp_mouse":[12,32,52,72,92,112,132,152,172,192,212,232,252,272,292,312,332,352,372,393,412,432,452,473,492,512,532,552,572,592,612,634,654,674,694,714,733,753,773,793,813,832,852,872,892,913,932,952,973,992,1013,1032,1052,1072,1092,1112,1132,1152,1172,1192,1212,1232,1252,1272,1292,1312,1332,1352,1372,1392,1412,1432,1452,1472,1492,1512,1533,1552,1572,1593,1613,1632,1652,1672,1692,1712,1733,1752,1772,1793,1812,1832,1853,1872,1893,1912,1933,1953,1972,1992,2012,2032,2053,2072,2092,2112,2132,2152,2172,2192,2212,2232,2252,2272,2292,2312,2332,2352,2373,2393,2413,2433,2453,2474,2494,2513,2534,2554,2574,2593,2613,2633,2653,2673,2693,2713,2732,2753,2772,2793,2813,2833,2852,2872,2892,2913,2932,2953,2972,2993,3013,3032],"xSR":741.5,"ySR":469.95,"xT1":424.9,"yT1":0,"xT2":1058.1,"yT2":0,"toosoon":0,"cond_shown":"Congruent","ratio_trial":100,"L_num":1,"L_den":2,"R_num":18,"R_den":30,"correct_side":2,"subjID":"dannavalentinaherera16","gender":"1","school":"4","age":"9"},{"start_time":1552308754919,"click_time":1552308757365,"finger_time":1552308755886,"fix_duration":512.851173019968,"trial":35,"RT":967,"MT":1479,"sideResp":2,"stimulus":[],"xmouse":[747,747,747,747,747,747,747,747,747,747,747,747,747,747,747,747,747,747,747,747,747,747,747,747,747,747,747,747,747,747,747,747,747,747,747,747,747,747,747,747,747,747,747,747,747,747,747,754,798,837,880,952,995,1027,1055,1064,1071,1074,1074,1073,1069,1063,1059,1055,1051,1051,1051,1051,1051,1050,1050,1050,1050,1050,1051,1051,1052,1053,1053,1054,1054,1054,1054,1054,1054,1054,1054,1054,1054,1054,1054,1054,1054,1054,1054,1054,1054,1054,1054,1054,1054,1054,1054,1054,1054,1054,1054,1054,1054,1054,1054,1054,1054,1054,1054,1054,1054,1054,1054,1054,1054,1054,1064],"ymouse":[522,522,522,522,522,522,522,522,522,522,522,522,522,522,522,522,522,522,522,522,522,522,522,522,522,522,522,522,522,522,522,522,522,522,522,522,522,522,522,522,522,522,522,522,522,522,522,513,463,426,387,326,289,261,227,206,175,142,131,122,116,108,106,103,102,102,102,102,102,100,99,97,96,96,95,94,94,93,93,93,93,93,93,93,93,93,93,93,93,93,93,93,93,93,93,93,93,93,93,93,93,93,93,93,93,93,93,93,93,93,93,93,93,93,93,93,93,93,93,93,93,93,93],"timestamp_mouse":[7,26,46,66,86,106,126,146,166,186,206,226,246,266,286,306,326,346,366,387,406,426,446,466,486,507,526,546,566,586,606,626,646,666,686,706,726,746,766,786,806,826,846,866,888,908,928,948,967,987,1007,1028,1048,1067,1087,1107,1127,1147,1167,1186,1207,1227,1247,1267,1286,1306,1327,1347,1367,1387,1407,1426,1447,1467,1486,1506,1527,1546,1566,1586,1606,1626,1646,1667,1686,1706,1726,1747,1766,1786,1807,1826,1846,1867,1886,1906,1927,1946,1966,1986,2006,2026,2046,2066,2087,2107,2126,2146,2166,2186,2206,2226,2246,2266,2286,2306,2326,2346,2366,2386,2407,2427,2446],"xSR":741.5,"ySR":469.95,"xT1":424.9,"yT1":0,"xT2":1058.1,"yT2":0,"toosoon":0,"cond_shown":"Incongruent","ratio_trial":300,"L_num":8,"L_den":10,"R_num":9,"R_den":18,"correct_side":1,"subjID":"dannavalentinaherera16","gender":"1","school":"4","age":"9"},{"start_time":1552308761119,"click_time":1552308762045,"finger_time":1552308761505,"fix_duration":291.7190174560744,"trial":36,"RT":386,"MT":540,"sideResp":1,"stimulus":[],"xmouse":[799,799,799,799,799,799,799,799,799,802,807,809,811,814,815,815,816,816,815,809,797,788,771,752,701,676,642,611,582,543,527,520,517,516,516,516,516,516,516,516,516,518,519,520,520,514,506],"ymouse":[542,542,542,542,542,542,542,542,542,535,527,522,519,515,511,510,508,501,489,446,406,376,341,307,243,214,188,172,158,146,144,144,144,144,144,144,144,144,144,144,144,143,142,141,130,113,94],"timestamp_mouse":[7,27,47,67,86,106,126,146,166,186,207,226,247,267,287,307,326,347,367,386,406,426,447,467,487,506,526,547,566,586,606,627,647,666,686,706,726,746,767,786,806,826,846,866,886,906,926],"xSR":741.5,"ySR":469.95,"xT1":424.9,"yT1":0,"xT2":1058.1,"yT2":0,"toosoon":0,"cond_shown":"Incongruent","ratio_trial":300,"L_num":4,"L_den":5,"R_num":6,"R_den":12,"correct_side":1,"subjID":"dannavalentinaherera16","gender":"1","school":"4","age":"9"},{"start_time":1552308781097,"click_time":1552308782946,"finger_time":1552308782525,"fix_duration":1209.2598315943608,"trial":37,"RT":1428,"MT":421,"sideResp":2,"stimulus":[],"xmouse":[813,813,813,813,813,813,813,813,813,813,813,813,813,813,813,813,813,813,813,813,813,813,813,813,813,813,813,813,813,813,813,813,814,814,814,814,814,814,814,814,814,814,814,814,814,814,814,814,814,814,814,814,814,814,814,814,814,814,814,814,814,814,814,814,814,814,814,814,818,827,840,866,926,970,1030,1030,1030,1030,1030,1030,1030,1030,1030,1030,1030,1030,1030,1030,1030,1030,1030,1030,1112],"ymouse":[543,543,543,543,543,543,543,543,543,543,543,543,543,543,543,543,543,543,543,543,543,543,543,543,543,543,543,543,543,543,543,543,542,542,542,542,542,542,542,542,542,542,542,542,542,542,542,542,542,542,542,542,542,542,542,542,542,542,542,542,542,542,542,542,542,542,542,542,540,530,514,475,359,252,64,64,64,64,64,64,64,64,64,64,64,64,64,64,64,64,64,64,6],"timestamp_mouse":[9,29,50,68,90,109,128,150,169,190,209,228,248,269,290,310,329,350,369,389,410,429,448,468,490,510,529,548,568,589,609,629,650,670,690,709,730,750,769,788,810,829,850,869,888,910,930,949,969,989,1008,1030,1050,1070,1090,1109,1130,1150,1168,1188,1209,1230,1250,1269,1290,1310,1329,1350,1369,1389,1409,1428,1449,1468,1489,1508,1529,1548,1570,1589,1609,1629,1649,1670,1689,1710,1729,1750,1769,1790,1809,1829,1849],"xSR":741.5,"ySR":469.95,"xT1":424.9,"yT1":0,"xT2":1058.1,"yT2":0,"toosoon":0,"cond_shown":"Congruent","ratio_trial":200,"L_num":3,"L_den":6,"R_num":14,"R_den":20,"correct_side":2,"subjID":"dannavalentinaherera16","gender":"1","school":"4","age":"9"},{"start_time":1552308817378,"click_time":1552308820107,"finger_time":1552308818786,"fix_duration":250,"trial":38,"RT":1408,"MT":1321,"sideResp":1,"stimulus":[],"xmouse":[800,800,800,800,800,800,800,800,800,800,800,800,800,800,800,800,800,800,800,800,800,800,800,800,800,800,800,800,801,801,801,801,801,801,801,801,801,802,802,803,803,804,804,804,804,804,805,805,805,803,799,798,796,794,793,793,792,792,792,792,792,792,792,792,792,792,792,792,789,781,759,739,715,684,653,591,569,550,538,531,522,518,515,511,509,506,504,502,498,494,487,484,482,480,478,475,473,472,472,472,472,471,471,471,471,471,471,471,471,471,471,471,471,471,471,471,471,471,471,471,471,471,471,471,471,471,471,471,471,471,471,471,471,471,471,471,471],"ymouse":[518,518,518,518,518,518,518,518,518,518,518,518,518,518,518,518,518,518,518,518,518,518,518,518,517,517,517,517,516,516,516,516,516,516,516,516,516,515,514,513,512,511,511,510,509,508,506,505,503,500,495,494,493,492,491,491,490,490,490,490,490,490,490,490,490,490,490,490,486,480,464,446,426,395,364,302,277,255,239,224,210,203,198,190,185,177,172,169,160,154,142,138,132,128,123,116,111,108,106,105,104,101,101,101,101,101,101,101,101,101,101,101,101,101,101,101,101,101,101,101,101,101,101,101,101,101,101,101,101,101,101,101,101,101,101,100,98],"timestamp_mouse":[8,27,48,69,89,107,128,149,168,188,207,228,249,268,289,309,327,348,369,389,409,428,448,469,489,508,527,548,569,587,607,629,648,669,688,708,728,748,769,788,808,829,849,869,889,908,928,947,968,987,1008,1028,1048,1068,1088,1107,1129,1148,1169,1188,1209,1229,1248,1267,1287,1308,1329,1347,1368,1389,1408,1429,1449,1468,1488,1509,1529,1548,1567,1588,1609,1628,1647,1668,1688,1709,1728,1749,1768,1789,1809,1829,1848,1868,1888,1908,1928,1949,1968,1988,2009,2029,2049,2069,2087,2107,2128,2148,2168,2187,2209,2227,2247,2268,2289,2309,2328,2348,2368,2388,2408,2428,2448,2468,2487,2509,2528,2548,2569,2587,2609,2628,2648,2668,2687,2709,2729],"xSR":741.5,"ySR":469.95,"xT1":424.9,"yT1":0,"xT2":1058.1,"yT2":0,"toosoon":0,"cond_shown":"Congruent","ratio_trial":200,"L_num":20,"L_den":25,"R_num":9,"R_den":15,"correct_side":1,"subjID":"dannavalentinaherera16","gender":"1","school":"4","age":"9"},{"start_time":1552308825019,"click_time":1552308832207,"finger_time":1552308826546,"fix_duration":1152.3368607551172,"trial":39,"RT":1527,"MT":5661,"sideResp":2,"stimulus":[],"xmouse":[808,808,808,808,808,808,808,808,808,808,808,808,808,808,808,808,808,808,808,808,808,808,808,808,808,808,808,808,808,808,808,808,808,808,808,808,806,805,804,804,804,804,803,803,803,803,803,803,803,803,803,803,803,803,803,803,802,801,800,798,797,797,796,796,795,795,795,795,795,795,795,795,795,795,796,798,802,805,812,816,819,820,821,828,832,838,851,859,870,883,886,887,889,890,892,892,893,895,895,898,901,906,911,924,932,939,944,946,947,947,947,947,947,949,949,951,961,973,988,988,989,989,989,989,989,989,989,989,989,994,1013,1037,1054,1059,1062,1062,1062,1062,1062,1062,1062,1062,1063,1063,1063,1063,1063,1063,1063,1063,1063,1063,1063,1063,1063,1063,1063,1063,1063,1063,1063,1063,1064,1068,1069,1068,1067,1067,1067,1067,1067,1067,1067,1066,1064,1062,1060,1056,1049,1047,1047,1047,1049,1053,1055,1055,1056,1056,1059,1065,1066,1068,1069,1069,1070,1070,1071,1071,1071,1075,1075,1075,1075,1075,1075,1075,1077,1077,1077,1077,1077,1077,1077,1077,1077,1077,1077,1077,1078,1079,1079,1079,1080,1080,1080,1080,1080,1080,1080,1080,1080,1080,1080,1080,1080,1080,1080,1080,1080,1080,1080,1080,1080,1080,1080,1080,1080,1080,1080,1080,1080,1080,1080,1080,1080,1080,1080,1080,1080,1080,1080,1080,1080,1080,1080,1080,1080,1080,1080,1080,1080,1080,1080,1080,1080,1080,1080,1080,1080,1080,1080,1080,1080,1080,1080,1079,1079,1078,1078,1078,1078,1078,1078,1078,1078,1077,1077,1077,1077,1077,1077,1077,1077,1075,1075,1075,1075,1075,1075,1075,1075,1075,1075,1075,1075,1075,1075,1075,1075,1075,1075,1075,1075,1075,1075,1075,1075,1075,1075,1075,1075,1075,1075,1075,1075,1075,1075,1075,1075,1075,1075,1075,1075,1075,1075,1075,1075,1075,1075,1075,1075,1075,1075,1075,1075,1075,1075,1075,1074,1074],"ymouse":[502,502,502,502,502,502,502,502,502,502,502,502,502,502,502,502,502,502,502,502,502,502,502,502,502,502,502,502,502,502,502,502,502,502,502,502,500,500,500,499,499,499,499,499,499,499,499,499,499,499,499,499,499,499,499,499,499,49