[{"start_time":1552055448121,"click_time":1552055450448,"finger_time":1552055450068,"fix_duration":1289.6744117541136,"trial":0,"RT":1947,"MT":380,"sideResp":1,"stimulus":[],"xmouse":[781,781,781,781,781,781,781,781,781,781,781,781,781,781,781,781,781,781,781,781,781,781,781,781,781,781,781,781,781,781,781,781,781,781,781,781,781,781,781,781,781,781,781,781,781,781,781,781,781,781,781,781,781,781,781,781,781,781,781,781,781,781,781,781,781,781,781,781,781,781,781,781,781,781,781,781,781,781,781,782,782,783,784,784,784,784,784,784,784,784,784,784,784,784,784,782,777,760,737,715,687,665,645,645,645,645,645,645,645,645,645,645,645,645,645,645,480],"ymouse":[498,498,498,498,498,498,498,498,498,498,498,498,498,498,498,498,498,498,498,498,498,498,498,498,498,498,498,498,498,498,498,498,498,498,498,498,498,498,498,498,498,498,498,498,498,498,498,498,498,498,498,498,498,498,498,498,498,498,498,498,498,498,498,498,498,498,498,498,498,498,498,498,498,498,498,498,498,498,498,498,496,494,491,491,491,491,491,491,491,491,491,491,491,491,487,483,475,425,356,277,193,117,34,34,34,34,34,34,34,34,34,34,34,34,34,34,2],"timestamp_mouse":[9,36,47,67,87,107,128,147,168,188,208,228,247,267,288,308,328,348,368,387,407,428,448,467,488,507,528,547,566,588,608,628,647,668,688,708,728,748,767,788,808,827,848,866,888,908,927,947,966,987,1007,1028,1047,1068,1087,1107,1127,1147,1168,1188,1206,1227,1247,1267,1288,1308,1328,1348,1367,1388,1408,1427,1447,1467,1487,1507,1528,1547,1566,1587,1607,1627,1648,1668,1688,1708,1728,1748,1767,1787,1808,1828,1848,1867,1887,1907,1927,1947,1967,1987,2007,2028,2047,2068,2087,2108,2127,2147,2168,2188,2207,2229,2248,2268,2287,2308,2327],"xSR":741.5,"ySR":469.95,"xT1":424.9,"yT1":0,"xT2":1058.1,"yT2":0,"toosoon":0,"cond_shown":"Incongruent","ratio_trial":300,"L_num":2,"L_den":4,"R_num":6,"R_den":30,"correct_side":1,"subjID":"DavidEstebanBallona28","gender":"0","age":"9","school":"4","test":{"fix_dur":[250,1500],"timestim":1000,"targets_dim":[100,100],"targets_relative_coord":[0.3,0.7],"size_stim":[880,420],"start_dim":[100,100],"size_start":[300,300],"size_fix":60,"samplingrate":20,"img_types":["Congruent","Incongruent"],"ratios":[100,200,300],"rep_conds":19,"nTrials":120,"trials_to_rest":500,"Trials_order":[23,42,49,102,63,73,93,3,96,13,90,72,47,16,88,24,59,98,6,4,22,117,11,34,114,119,33,38,30,103,109,20,51,36,75,48,1,58,67,113,79,89,87,31,17,39,66,116,28,115,64,77,54,92,44,80,45,86,78,85,112,111,19,29,21,68,8,65,76,69,37,12,60,46,56,108,15,7,2,27,97,82,70,101,83,43,52,26,99,57,10,118,40,110,53,81,32,84,35,55,91,0,62,95,105,5,25,14,61,94,106,9,50,41,100,104,107,71,18,74],"cond_shown":["Incongruent","Congruent","Incongruent","Congruent","Incongruent","Incongruent","Incongruent","Incongruent","Congruent","Incongruent","Congruent","Congruent","Incongruent","Congruent","Congruent","Congruent","Incongruent","Congruent","Congruent","Congruent","Congruent","Incongruent","Incongruent","Congruent","Congruent","Incongruent","Incongruent","Congruent","Congruent","Incongruent","Incongruent","Congruent","Incongruent","Congruent","Incongruent","Congruent","Incongruent","Congruent","Incongruent","Incongruent","Incongruent","Incongruent","Incongruent","Incongruent","Incongruent","Incongruent","Congruent","Congruent","Congruent","Incongruent","Congruent","Incongruent","Congruent","Congruent","Congruent","Congruent","Incongruent","Congruent","Congruent","Incongruent","Congruent","Incongruent","Incongruent","Incongruent","Incongruent","Congruent","Congruent","Incongruent","Congruent","Incongruent","Incongruent","Congruent","Congruent","Congruent","Congruent","Congruent","Incongruent","Incongruent","Congruent","Incongruent","Incongruent","Congruent","Congruent","Incongruent","Incongruent","Incongruent","Congruent","Congruent","Incongruent","Incongruent","Congruent","Congruent","Congruent","Congruent","Incongruent","Incongruent","Congruent","Congruent","Incongruent","Incongruent","Incongruent","Congruent","Congruent","Incongruent","Incongruent","Incongruent","Incongruent","Congruent","Incongruent","Congruent","Congruent","Incongruent","Congruent","Incongruent","Congruent","Congruent","Incongruent","Incongruent","Congruent","Congruent"],"ratio_trial":[300,100,100,100,200,100,200,200,100,100,100,100,300,300,300,100,300,200,100,300,300,200,300,300,100,300,200,200,100,100,100,200,200,100,200,100,100,300,100,300,100,300,200,100,300,200,100,200,300,100,300,300,100,200,200,200,200,200,100,100,300,200,100,300,200,200,200,300,300,200,100,100,100,300,200,100,200,100,200,200,100,300,300,300,300,100,300,200,200,200,300,300,300,200,300,200,200,100,300,100,100,100,200,300,200,300,100,200,100,300,300,200,200,300,300,200,300,300,100,200],"left_num":[2,11,2,1,7,3,3,7,1,6,4,15,4,20,1,6,2,3,6,1,3,4,4,4,12,4,7,16,4,8,13,12,9,7,1,3,9,20,6,4,8,8,14,3,13,7,3,16,3,17,8,4,6,13,20,3,7,3,8,10,5,4,6,8,6,14,11,8,7,14,8,7,2,3,20,6,1,13,9,7,10,7,5,4,4,3,8,16,9,7,7,4,20,7,8,3,3,11,4,17,6,6,6,7,9,8,10,21,10,20,5,9,8,4,7,7,4,13,7,13],"right_num":[6,6,8,3,14,4,11,14,18,13,6,13,2,13,8,5,6,7,5,11,11,1,6,1,13,8,4,9,15,1,12,6,8,15,2,4,20,14,3,6,6,14,6,7,12,6,4,12,4,10,10,8,15,14,9,11,12,14,2,9,6,6,7,14,3,6,3,14,20,6,6,15,11,2,9,5,3,12,13,4,8,20,7,6,2,4,1,12,8,14,20,2,13,2,9,1,14,6,2,10,7,5,3,8,8,9,8,2,9,5,6,8,7,2,20,18,6,12,9,14],"left_den":[4,22,4,2,10,6,4,10,2,10,8,25,20,25,30,20,4,10,20,5,12,30,5,10,30,5,15,30,10,20,26,15,15,14,3,20,10,25,12,5,16,10,30,9,26,15,20,20,6,30,15,5,12,26,25,10,10,10,16,25,25,5,10,10,20,28,22,10,14,30,16,14,5,6,25,20,2,26,30,15,25,14,25,5,20,6,16,20,15,10,14,5,25,21,10,10,6,22,20,30,10,20,15,10,15,10,25,30,25,25,25,15,15,20,14,15,5,26,14,26],"right_den":[30,15,20,5,28,10,20,28,30,26,10,26,4,26,24,25,30,14,25,22,20,3,12,10,26,16,6,27,30,2,20,10,10,25,15,16,25,28,5,12,10,28,9,30,15,9,16,20,5,15,12,16,25,20,15,22,24,28,5,18,12,10,14,28,6,20,10,28,25,9,10,25,22,10,15,25,10,20,26,6,16,25,14,12,4,10,5,20,10,28,25,4,26,15,18,2,20,15,4,15,14,25,15,20,10,18,16,4,18,10,12,10,21,4,25,27,12,15,15,20],"correct_side":[1,1,1,2,1,1,1,1,2,1,2,1,2,1,2,1,1,2,1,2,2,2,1,1,2,1,2,1,2,2,2,1,2,2,1,2,1,1,2,1,2,1,2,1,2,2,2,1,2,2,2,1,2,2,1,2,1,2,1,2,2,1,1,1,2,1,1,1,2,2,2,2,2,1,1,1,1,2,2,2,2,2,2,1,2,1,1,1,2,1,2,1,1,1,1,2,2,1,2,2,1,1,1,1,2,1,2,1,2,1,2,2,1,2,2,2,1,2,2,2],"img_shown":["img2/300/Incongruent/L/I_Dist_300_LN_2_LD_4_RN_6_RD_30_0.png","img2/100/Congruent/L/C_Dist_100_LN_11_LD_22_RN_6_RD_15_0.png","img2/100/Incongruent/L/I_Dist_100_LN_2_LD_4_RN_8_RD_20_0.png","img2/100/Congruent/R/C_Dist_100_LN_1_LD_2_RN_3_RD_5_1.png","img2/200/Incongruent/L/I_Dist_200_LN_7_LD_10_RN_14_RD_28_0.png","img2/100/Incongruent/L/I_Dist_100_LN_3_LD_6_RN_4_RD_10_0.png","img2/200/Incongruent/L/I_Dist_200_LN_3_LD_4_RN_11_RD_20_0.png","img2/200/Incongruent/L/I_Dist_200_LN_7_LD_10_RN_14_RD_28_0.png","img2/100/Congruent/R/C_Dist_100_LN_1_LD_2_RN_18_RD_30_1.png","img2/100/Incongruent/L/I_Dist_100_LN_6_LD_10_RN_13_RD_26_0.png","img2/100/Congruent/R/C_Dist_100_LN_4_LD_8_RN_6_RD_10_1.png","img2/100/Congruent/L/C_Dist_100_LN_15_LD_25_RN_13_RD_26_0.png","img2/300/Incongruent/R/I_Dist_300_LN_4_LD_20_RN_2_RD_4_1.png","img2/300/Congruent/L/C_Dist_300_LN_20_LD_25_RN_13_RD_26_0.png","img2/300/Congruent/R/C_Dist_300_LN_1_LD_30_RN_8_RD_24_1.png","img2/100/Congruent/L/C_Dist_100_LN_6_LD_20_RN_5_RD_25_0.png","img2/300/Incongruent/L/I_Dist_300_LN_2_LD_4_RN_6_RD_30_0.png","img2/200/Congruent/R/C_Dist_200_LN_3_LD_10_RN_7_RD_14_1.png","img2/100/Congruent/L/C_Dist_100_LN_6_LD_20_RN_5_RD_25_0.png","img2/300/Congruent/R/C_Dist_300_LN_1_LD_5_RN_11_RD_22_1.png","img2/300/Congruent/R/C_Dist_300_LN_3_LD_12_RN_11_RD_20_1.png","img2/200/Incongruent/R/I_Dist_200_LN_4_LD_30_RN_1_RD_3_1.png","img2/300/Incongruent/L/I_Dist_300_LN_4_LD_5_RN_6_RD_12_0.png","img2/300/Congruent/L/C_Dist_300_LN_4_LD_10_RN_1_RD_10_0.png","img2/100/Congruent/R/C_Dist_100_LN_12_LD_30_RN_13_RD_26_1.png","img2/300/Incongruent/L/I_Dist_300_LN_4_LD_5_RN_8_RD_16_0.png","img2/200/Incongruent/R/I_Dist_200_LN_7_LD_15_RN_4_RD_6_1.png","img2/200/Congruent/L/C_Dist_200_LN_16_LD_30_RN_9_RD_27_0.png","img2/100/Congruent/R/C_Dist_100_LN_4_LD_10_RN_15_RD_30_1.png","img2/100/Incongruent/R/I_Dist_100_LN_8_LD_20_RN_1_RD_2_1.png","img2/100/Incongruent/R/I_Dist_100_LN_13_LD_26_RN_12_RD_20_1.png","img2/200/Congruent/L/C_Dist_200_LN_12_LD_15_RN_6_RD_10_0.png","img2/200/Incongruent/R/I_Dist_200_LN_9_LD_15_RN_8_RD_10_1.png","img2/100/Congruent/R/C_Dist_100_LN_7_LD_14_RN_15_RD_25_1.png","img2/200/Incongruent/L/I_Dist_200_LN_1_LD_3_RN_2_RD_15_0.png","img2/100/Congruent/R/C_Dist_100_LN_3_LD_20_RN_4_RD_16_1.png","img2/100/Incongruent/L/I_Dist_100_LN_9_LD_10_RN_20_RD_25_0.png","img2/300/Congruent/L/C_Dist_300_LN_20_LD_25_RN_14_RD_28_0.png","img2/100/Incongruent/R/I_Dist_100_LN_6_LD_12_RN_3_RD_5_1.png","img2/300/Incongruent/L/I_Dist_300_LN_4_LD_5_RN_6_RD_12_0.png","img2/100/Incongruent/R/I_Dist_100_LN_8_LD_16_RN_6_RD_10_1.png","img2/300/Incongruent/L/I_Dist_300_LN_8_LD_10_RN_14_RD_28_0.png","img2/200/Incongruent/R/I_Dist_200_LN_14_LD_30_RN_6_RD_9_1.png","img2/100/Incongruent/L/I_Dist_100_LN_3_LD_9_RN_7_RD_30_0.png","img2/300/Incongruent/R/I_Dist_300_LN_13_LD_26_RN_12_RD_15_1.png","img2/200/Incongruent/R/I_Dist_200_LN_7_LD_15_RN_6_RD_9_1.png","img2/100/Congruent/R/C_Dist_100_LN_3_LD_20_RN_4_RD_16_1.png","img2/200/Congruent/L/C_Dist_200_LN_16_LD_20_RN_12_RD_20_0.png","img2/300/Congruent/R/C_Dist_300_LN_3_LD_6_RN_4_RD_5_1.png","img2/100/Incongruent/R/I_Dist_100_LN_17_LD_30_RN_10_RD_15_1.png","img2/300/Congruent/R/C_Dist_300_LN_8_LD_15_RN_10_RD_12_1.png","img2/300/Incongruent/L/I_Dist_300_LN_4_LD_5_RN_8_RD_16_0.png","img2/100/Congruent/R/C_Dist_100_LN_6_LD_12_RN_15_RD_25_1.png","img2/200/Congruent/R/C_Dist_200_LN_13_LD_26_RN_14_RD_20_1.png","img2/200/Congruent/L/C_Dist_200_LN_20_LD_25_RN_9_RD_15_0.png","img2/200/Congruent/R/C_Dist_200_LN_3_LD_10_RN_11_RD_22_1.png","img2/200/Incongruent/L/I_Dist_200_LN_7_LD_10_RN_12_RD_24_0.png","img2/200/Congruent/R/C_Dist_200_LN_3_LD_10_RN_14_RD_28_1.png","img2/100/Congruent/L/C_Dist_100_LN_8_LD_16_RN_2_RD_5_0.png","img2/100/Incongruent/R/I_Dist_100_LN_10_LD_25_RN_9_RD_18_1.png","img2/300/Congruent/R/C_Dist_300_LN_5_LD_25_RN_6_RD_12_1.png","img2/200/Incongruent/L/I_Dist_200_LN_4_LD_5_RN_6_RD_10_0.png","img2/100/Incongruent/L/I_Dist_100_LN_6_LD_10_RN_7_RD_14_0.png","img2/300/Incongruent/L/I_Dist_300_LN_8_LD_10_RN_14_RD_28_0.png","img2/200/Incongruent/R/I_Dist_200_LN_6_LD_20_RN_3_RD_6_1.png","img2/200/Congruent/L/C_Dist_200_LN_14_LD_28_RN_6_RD_20_0.png","img2/200/Congruent/L/C_Dist_200_LN_11_LD_22_RN_3_RD_10_0.png","img2/300/Incongruent/L/I_Dist_300_LN_8_LD_10_RN_14_RD_28_0.png","img2/300/Congruent/R/C_Dist_300_LN_7_LD_14_RN_20_RD_25_1.png","img2/200/Incongruent/R/I_Dist_200_LN_14_LD_30_RN_6_RD_9_1.png","img2/100/Incongruent/R/I_Dist_100_LN_8_LD_16_RN_6_RD_10_1.png","img2/100/Congruent/R/C_Dist_100_LN_7_LD_14_RN_15_RD_25_1.png","img2/100/Congruent/R/C_Dist_100_LN_2_LD_5_RN_11_RD_22_1.png","img2/300/Congruent/L/C_Dist_300_LN_3_LD_6_RN_2_RD_10_0.png","img2/200/Congruent/L/C_Dist_200_LN_20_LD_25_RN_9_RD_15_0.png","img2/100/Congruent/L/C_Dist_100_LN_6_LD_20_RN_5_RD_25_0.png","img2/200/Incongruent/L/I_Dist_200_LN_1_LD_2_RN_3_RD_10_0.png","img2/100/Incongruent/R/I_Dist_100_LN_13_LD_26_RN_12_RD_20_1.png","img2/200/Congruent/R/C_Dist_200_LN_9_LD_30_RN_13_RD_26_1.png","img2/200/Incongruent/R/I_Dist_200_LN_7_LD_15_RN_4_RD_6_1.png","img2/100/Incongruent/R/I_Dist_100_LN_10_LD_25_RN_8_RD_16_1.png","img2/300/Congruent/R/C_Dist_300_LN_7_LD_14_RN_20_RD_25_1.png","img2/300/Congruent/R/C_Dist_300_LN_5_LD_25_RN_7_RD_14_1.png","img2/300/Incongruent/L/I_Dist_300_LN_4_LD_5_RN_6_RD_12_0.png","img2/300/Incongruent/R/I_Dist_300_LN_4_LD_20_RN_2_RD_4_1.png","img2/100/Incongruent/L/I_Dist_100_LN_3_LD_6_RN_4_RD_10_0.png","img2/300/Congruent/L/C_Dist_300_LN_8_LD_16_RN_1_RD_5_0.png","img2/200/Congruent/L/C_Dist_200_LN_16_LD_20_RN_12_RD_20_0.png","img2/200/Incongruent/R/I_Dist_200_LN_9_LD_15_RN_8_RD_10_1.png","img2/200/Incongruent/L/I_Dist_200_LN_7_LD_10_RN_14_RD_28_0.png","img2/300/Congruent/R/C_Dist_300_LN_7_LD_14_RN_20_RD_25_1.png","img2/300/Congruent/L/C_Dist_300_LN_4_LD_5_RN_2_RD_4_0.png","img2/300/Congruent/L/C_Dist_300_LN_20_LD_25_RN_13_RD_26_0.png","img2/200/Congruent/L/C_Dist_200_LN_7_LD_21_RN_2_RD_15_0.png","img2/300/Incongruent/L/I_Dist_300_LN_8_LD_10_RN_9_RD_18_0.png","img2/200/Incongruent/R/I_Dist_200_LN_3_LD_10_RN_1_RD_2_1.png","img2/200/Congruent/R/C_Dist_200_LN_3_LD_6_RN_14_RD_20_1.png","img2/100/Congruent/L/C_Dist_100_LN_11_LD_22_RN_6_RD_15_0.png","img2/300/Incongruent/R/I_Dist_300_LN_4_LD_20_RN_2_RD_4_1.png","img2/100/Incongruent/R/I_Dist_100_LN_17_LD_30_RN_10_RD_15_1.png","img2/100/Incongruent/L/I_Dist_100_LN_6_LD_10_RN_7_RD_14_0.png","img2/100/Congruent/L/C_Dist_100_LN_6_LD_20_RN_5_RD_25_0.png","img2/200/Congruent/L/C_Dist_200_LN_6_LD_15_RN_3_RD_15_0.png","img2/300/Incongruent/L/I_Dist_300_LN_7_LD_10_RN_8_RD_20_0.png","img2/200/Incongruent/R/I_Dist_200_LN_9_LD_15_RN_8_RD_10_1.png","img2/300/Incongruent/L/I_Dist_300_LN_8_LD_10_RN_9_RD_18_0.png","img2/100/Incongruent/R/I_Dist_100_LN_10_LD_25_RN_8_RD_16_1.png","img2/200/Congruent/L/C_Dist_200_LN_21_LD_30_RN_2_RD_4_0.png","img2/100/Incongruent/R/I_Dist_100_LN_10_LD_25_RN_9_RD_18_1.png","img2/300/Congruent/L/C_Dist_300_LN_20_LD_25_RN_5_RD_10_0.png","img2/300/Congruent/R/C_Dist_300_LN_5_LD_25_RN_6_RD_12_1.png","img2/200/Incongruent/R/I_Dist_200_LN_9_LD_15_RN_8_RD_10_1.png","img2/200/Congruent/L/C_Dist_200_LN_8_LD_15_RN_7_RD_21_0.png","img2/300/Incongruent/R/I_Dist_300_LN_4_LD_20_RN_2_RD_4_1.png","img2/300/Congruent/R/C_Dist_300_LN_7_LD_14_RN_20_RD_25_1.png","img2/200/Congruent/R/C_Dist_200_LN_7_LD_15_RN_18_RD_27_1.png","img2/300/Incongruent/L/I_Dist_300_LN_4_LD_5_RN_6_RD_12_0.png","img2/300/Incongruent/R/I_Dist_300_LN_13_LD_26_RN_12_RD_15_1.png","img2/100/Congruent/R/C_Dist_100_LN_7_LD_14_RN_9_RD_15_1.png","img2/200/Congruent/R/C_Dist_200_LN_13_LD_26_RN_14_RD_20_1.png"],"dist100_C":[["C_Dist_100_LN_10_LD_25_RN_3_RD_10_0.png","C_Dist_100_LN_11_LD_22_RN_4_RD_10_0.png","C_Dist_100_LN_11_LD_22_RN_6_RD_15_0.png","C_Dist_100_LN_15_LD_25_RN_13_RD_26_0.png","C_Dist_100_LN_3_LD_6_RN_2_RD_5_0.png","C_Dist_100_LN_6_LD_20_RN_5_RD_25_0.png","C_Dist_100_LN_8_LD_16_RN_2_RD_5_0.png","C_Dist_100_LN_9_LD_15_RN_8_RD_16_0.png"],["C_Dist_100_LN_1_LD_2_RN_18_RD_30_1.png","C_Dist_100_LN_1_LD_2_RN_3_RD_5_1.png","C_Dist_100_LN_12_LD_30_RN_13_RD_26_1.png","C_Dist_100_LN_2_LD_5_RN_11_RD_22_1.png","C_Dist_100_LN_2_LD_5_RN_6_RD_12_1.png","C_Dist_100_LN_3_LD_20_RN_4_RD_16_1.png","C_Dist_100_LN_4_LD_10_RN_15_RD_30_1.png","C_Dist_100_LN_4_LD_8_RN_6_RD_10_1.png","C_Dist_100_LN_6_LD_12_RN_15_RD_25_1.png","C_Dist_100_LN_7_LD_14_RN_15_RD_25_1.png","C_Dist_100_LN_7_LD_14_RN_9_RD_15_1.png"]],"dist100_I":[["I_Dist_100_LN_1_LD_2_RN_8_RD_20_0.png","I_Dist_100_LN_2_LD_4_RN_6_RD_15_0.png","I_Dist_100_LN_2_LD_4_RN_8_RD_20_0.png","I_Dist_100_LN_3_LD_5_RN_11_RD_22_0.png","I_Dist_100_LN_3_LD_5_RN_8_RD_16_0.png","I_Dist_100_LN_3_LD_6_RN_4_RD_10_0.png","I_Dist_100_LN_3_LD_9_RN_7_RD_30_0.png","I_Dist_100_LN_4_LD_8_RN_8_RD_20_0.png","I_Dist_100_LN_6_LD_10_RN_11_RD_22_0.png","I_Dist_100_LN_6_LD_10_RN_13_RD_26_0.png","I_Dist_100_LN_6_LD_10_RN_7_RD_14_0.png","I_Dist_100_LN_9_LD_10_RN_20_RD_25_0.png","I_Dist_100_LN_9_LD_15_RN_13_RD_26_0.png","I_Dist_100_LN_9_LD_15_RN_14_RD_28_0.png"],["I_Dist_100_LN_10_LD_25_RN_8_RD_16_1.png","I_Dist_100_LN_10_LD_25_RN_9_RD_18_1.png","I_Dist_100_LN_11_LD_22_RN_9_RD_15_1.png","I_Dist_100_LN_12_LD_24_RN_9_RD_15_1.png","I_Dist_100_LN_12_LD_30_RN_2_RD_4_1.png","I_Dist_100_LN_13_LD_26_RN_12_RD_20_1.png","I_Dist_100_LN_13_LD_26_RN_6_RD_10_1.png","I_Dist_100_LN_17_LD_30_RN_10_RD_15_1.png","I_Dist_100_LN_6_LD_12_RN_3_RD_5_1.png","I_Dist_100_LN_8_LD_16_RN_6_RD_10_1.png","I_Dist_100_LN_8_LD_20_RN_1_RD_2_1.png","I_Dist_100_LN_9_LD_18_RN_6_RD_10_1.png"]],"dist100_S":[["E_Dist_100_LN_2_LD_12_RN_2_RD_30_0.png","E_Dist_100_LN_6_LD_10_RN_6_RD_12_0.png"],["E_Dist_100_LN_6_LD_12_RN_6_RD_10_1.png"]],"dist200_C":[["C_Dist_200_LN_11_LD_22_RN_3_RD_10_0.png","C_Dist_200_LN_12_LD_15_RN_6_RD_10_0.png","C_Dist_200_LN_12_LD_20_RN_6_RD_15_0.png","C_Dist_200_LN_14_LD_28_RN_6_RD_20_0.png","C_Dist_200_LN_15_LD_25_RN_4_RD_10_0.png","C_Dist_200_LN_16_LD_20_RN_12_RD_20_0.png","C_Dist_200_LN_16_LD_30_RN_9_RD_27_0.png","C_Dist_200_LN_20_LD_25_RN_9_RD_15_0.png","C_Dist_200_LN_21_LD_30_RN_2_RD_4_0.png","C_Dist_200_LN_4_LD_10_RN_3_RD_15_0.png","C_Dist_200_LN_4_LD_8_RN_3_RD_10_0.png","C_Dist_200_LN_6_LD_15_RN_3_RD_15_0.png","C_Dist_200_LN_7_LD_21_RN_2_RD_15_0.png","C_Dist_200_LN_8_LD_15_RN_2_RD_6_0.png","C_Dist_200_LN_8_LD_15_RN_3_RD_9_0.png","C_Dist_200_LN_8_LD_15_RN_7_RD_21_0.png","C_Dist_200_LN_9_LD_20_RN_4_RD_16_0.png"],["C_Dist_200_LN_1_LD_2_RN_21_RD_30_1.png","C_Dist_200_LN_13_LD_26_RN_14_RD_20_1.png","C_Dist_200_LN_3_LD_10_RN_11_RD_22_1.png","C_Dist_200_LN_3_LD_10_RN_14_RD_28_1.png","C_Dist_200_LN_3_LD_10_RN_7_RD_14_1.png","C_Dist_200_LN_3_LD_12_RN_9_RD_20_1.png","C_Dist_200_LN_3_LD_6_RN_14_RD_20_1.png","C_Dist_200_LN_5_LD_10_RN_14_RD_20_1.png","C_Dist_200_LN_6_LD_12_RN_7_RD_10_1.png","C_Dist_200_LN_6_LD_20_RN_11_RD_22_1.png","C_Dist_200_LN_7_LD_15_RN_18_RD_27_1.png","C_Dist_200_LN_9_LD_30_RN_13_RD_26_1.png"]],"dist200_I":[["I_Dist_200_LN_1_LD_2_RN_3_RD_10_0.png","I_Dist_200_LN_1_LD_3_RN_2_RD_15_0.png","I_Dist_200_LN_3_LD_4_RN_11_RD_20_0.png","I_Dist_200_LN_4_LD_5_RN_6_RD_10_0.png","I_Dist_200_LN_4_LD_6_RN_14_RD_30_0.png","I_Dist_200_LN_7_LD_10_RN_12_RD_24_0.png","I_Dist_200_LN_7_LD_10_RN_14_RD_28_0.png","I_Dist_200_LN_7_LD_10_RN_8_RD_16_0.png"],["I_Dist_200_LN_11_LD_20_RN_3_RD_4_1.png","I_Dist_200_LN_14_LD_30_RN_12_RD_18_1.png","I_Dist_200_LN_14_LD_30_RN_6_RD_9_1.png","I_Dist_200_LN_3_LD_10_RN_1_RD_2_1.png","I_Dist_200_LN_4_LD_30_RN_1_RD_3_1.png","I_Dist_200_LN_6_LD_20_RN_3_RD_6_1.png","I_Dist_200_LN_7_LD_15_RN_4_RD_6_1.png","I_Dist_200_LN_7_LD_15_RN_6_RD_9_1.png","I_Dist_200_LN_9_LD_15_RN_8_RD_10_1.png"]],"dist200_S":[["E_Dist_200_LN_3_LD_6_RN_3_RD_10_0.png"],["E_Dist_200_LN_3_LD_10_RN_3_RD_6_1.png"]],"dist300_C":[["C_Dist_300_LN_11_LD_22_RN_1_RD_5_0.png","C_Dist_300_LN_11_LD_22_RN_2_RD_10_0.png","C_Dist_300_LN_11_LD_22_RN_4_RD_20_0.png","C_Dist_300_LN_12_LD_24_RN_2_RD_10_0.png","C_Dist_300_LN_18_LD_20_RN_9_RD_15_0.png","C_Dist_300_LN_20_LD_25_RN_13_RD_26_0.png","C_Dist_300_LN_20_LD_25_RN_14_RD_28_0.png","C_Dist_300_LN_20_LD_25_RN_5_RD_10_0.png","C_Dist_300_LN_20_LD_25_RN_8_RD_16_0.png","C_Dist_300_LN_20_LD_25_RN_9_RD_18_0.png","C_Dist_300_LN_24_LD_30_RN_2_RD_4_0.png","C_Dist_300_LN_24_LD_30_RN_8_RD_16_0.png","C_Dist_300_LN_3_LD_6_RN_2_RD_10_0.png","C_Dist_300_LN_4_LD_10_RN_1_RD_10_0.png","C_Dist_300_LN_4_LD_5_RN_2_RD_4_0.png","C_Dist_300_LN_8_LD_16_RN_1_RD_5_0.png","C_Dist_300_LN_9_LD_10_RN_3_RD_5_0.png"],["C_Dist_300_LN_1_LD_20_RN_7_RD_20_1.png","C_Dist_300_LN_1_LD_3_RN_19_RD_30_1.png","C_Dist_300_LN_1_LD_30_RN_8_RD_24_1.png","C_Dist_300_LN_1_LD_5_RN_11_RD_22_1.png","C_Dist_300_LN_1_LD_5_RN_3_RD_6_1.png","C_Dist_300_LN_1_LD_5_RN_6_RD_12_1.png","C_Dist_300_LN_2_LD_10_RN_12_RD_24_1.png","C_Dist_300_LN_2_LD_20_RN_10_RD_25_1.png","C_Dist_300_LN_3_LD_12_RN_11_RD_20_1.png","C_Dist_300_LN_3_LD_6_RN_4_RD_5_1.png","C_Dist_300_LN_4_LD_20_RN_13_RD_26_1.png","C_Dist_300_LN_5_LD_25_RN_6_RD_12_1.png","C_Dist_300_LN_5_LD_25_RN_7_RD_14_1.png","C_Dist_300_LN_7_LD_14_RN_20_RD_25_1.png","C_Dist_300_LN_8_LD_15_RN_10_RD_12_1.png"]],"dist300_I":[["I_Dist_300_LN_1_LD_2_RN_2_RD_10_0.png","I_Dist_300_LN_1_LD_2_RN_3_RD_15_0.png","I_Dist_300_LN_2_LD_4_RN_6_RD_30_0.png","I_Dist_300_LN_3_LD_6_RN_4_RD_20_0.png","I_Dist_300_LN_4_LD_5_RN_6_RD_12_0.png","I_Dist_300_LN_4_LD_5_RN_8_RD_16_0.png","I_Dist_300_LN_7_LD_10_RN_8_RD_20_0.png","I_Dist_300_LN_8_LD_10_RN_14_RD_28_0.png","I_Dist_300_LN_8_LD_10_RN_9_RD_18_0.png"],["I_Dist_300_LN_13_LD_26_RN_12_RD_15_1.png","I_Dist_300_LN_4_LD_20_RN_2_RD_4_1.png"]],"dist300_S":[["E_Dist_300_LN_9_LD_12_RN_9_RD_20_0.png"],["E_Dist_300_LN_18_LD_30_RN_18_RD_20_1.png","E_Dist_300_LN_3_LD_10_RN_3_RD_5_1.png","E_Dist_300_LN_9_LD_20_RN_9_RD_12_1.png"]],"dist500_C":[["C_Dist_500_LN_10_LD_13_RN_7_RD_26_0.png","C_Dist_500_LN_10_LD_15_RN_4_RD_24_0.png","C_Dist_500_LN_12_LD_16_RN_3_RD_12_0.png","C_Dist_500_LN_12_LD_18_RN_4_RD_24_0.png","C_Dist_500_LN_15_LD_18_RN_5_RD_15_0.png","C_Dist_500_LN_15_LD_20_RN_1_RD_4_0.png","C_Dist_500_LN_18_LD_27_RN_1_RD_6_0.png","C_Dist_500_LN_20_LD_24_RN_1_RD_3_0.png","C_Dist_500_LN_20_LD_24_RN_3_RD_9_0.png","C_Dist_500_LN_20_LD_24_RN_7_RD_21_0.png","C_Dist_500_LN_20_LD_28_RN_3_RD_14_0.png","C_Dist_500_LN_21_LD_28_RN_6_RD_24_0.png","C_Dist_500_LN_22_LD_28_RN_2_RD_7_0.png","C_Dist_500_LN_25_LD_30_RN_9_RD_27_0.png","C_Dist_500_LN_4_LD_6_RN_1_RD_6_0.png","C_Dist_500_LN_5_LD_6_RN_2_RD_6_0.png","C_Dist_500_LN_6_LD_9_RN_1_RD_6_0.png","C_Dist_500_LN_7_LD_10_RN_1_RD_5_0.png","C_Dist_500_LN_8_LD_12_RN_1_RD_6_0.png","C_Dist_500_LN_8_LD_12_RN_4_RD_24_0.png"],["C_Dist_500_LN_1_LD_4_RN_12_RD_16_1.png","C_Dist_500_LN_1_LD_4_RN_9_RD_12_1.png","C_Dist_500_LN_1_LD_9_RN_11_RD_18_1.png","C_Dist_500_LN_10_LD_24_RN_22_RD_24_1.png","C_Dist_500_LN_2_LD_12_RN_10_RD_15_1.png","C_Dist_500_LN_2_LD_12_RN_12_RD_18_1.png","C_Dist_500_LN_2_LD_12_RN_4_RD_6_1.png","C_Dist_500_LN_2_LD_24_RN_7_RD_12_1.png","C_Dist_500_LN_2_LD_5_RN_18_RD_20_1.png","C_Dist_500_LN_2_LD_5_RN_9_RD_10_1.png","C_Dist_500_LN_2_LD_8_RN_12_RD_16_1.png","C_Dist_500_LN_2_LD_8_RN_21_RD_28_1.png","C_Dist_500_LN_3_LD_10_RN_4_RD_5_1.png","C_Dist_500_LN_3_LD_12_RN_15_RD_20_1.png","C_Dist_500_LN_3_LD_30_RN_6_RD_10_1.png","C_Dist_500_LN_3_LD_8_RN_14_RD_16_1.png","C_Dist_500_LN_4_LD_16_RN_15_RD_20_1.png","C_Dist_500_LN_4_LD_24_RN_12_RD_18_1.png","C_Dist_500_LN_5_LD_14_RN_6_RD_7_1.png","C_Dist_500_LN_7_LD_21_RN_20_RD_24_1.png","C_Dist_500_LN_7_LD_28_RN_12_RD_16_1.png","C_Dist_500_LN_7_LD_28_RN_9_RD_12_1.png","C_Dist_500_LN_9_LD_27_RN_20_RD_24_1.png"]],"dist500_I":[["I_Dist_500_LN_2_LD_3_RN_4_RD_24_0.png","I_Dist_500_LN_5_LD_6_RN_6_RD_18_0.png","I_Dist_500_LN_7_LD_8_RN_9_RD_24_0.png"],["I_Dist_500_LN_7_LD_21_RN_5_RD_6_1.png"]],"dist500_S":[["E_Dist_500_LN_6_LD_8_RN_6_RD_24_0.png"],["E_Dist_500_LN_2_LD_12_RN_2_RD_3_1.png","E_Dist_500_LN_6_LD_24_RN_6_RD_8_1.png"]]}},{"start_time":1552055452122,"click_time":1552055454029,"finger_time":1552055453568,"fix_duration":250,"trial":1,"RT":1446,"MT":461,"sideResp":1,"stimulus":[],"xmouse":[800,800,800,800,800,800,800,800,800,800,800,800,800,800,800,800,800,800,800,800,800,800,800,800,800,800,800,800,800,800,800,800,800,800,800,800,800,800,800,800,800,800,800,800,800,800,800,800,800,800,800,800,800,800,800,800,800,800,800,800,800,800,800,800,800,800,800,800,798,794,784,773,754,743,735,727,716,663,622,575,539,505,501,500,500,499,498,496,496,496,496,496,496,494,493,492],"ymouse":[521,521,521,521,521,521,521,521,521,521,521,521,521,521,521,521,521,521,521,521,521,521,521,521,521,521,521,521,521,521,521,521,521,521,521,521,521,521,521,521,521,521,521,521,521,521,521,521,521,521,521,521,521,521,521,521,521,521,521,521,521,521,521,521,521,521,521,521,511,505,492,474,438,415,399,383,367,324,296,262,236,207,201,197,194,190,187,181,178,175,168,157,127,106,100,90],"timestamp_mouse":[13,27,47,67,87,106,127,147,166,186,206,226,245,267,286,306,326,347,367,386,407,427,447,467,486,507,526,547,567,586,607,627,645,667,687,706,726,746,766,786,806,826,847,867,886,907,927,946,966,987,1006,1026,1046,1067,1085,1107,1127,1147,1167,1186,1206,1227,1247,1267,1286,1307,1327,1346,1365,1387,1406,1426,1446,1467,1486,1507,1526,1546,1565,1586,1606,1628,1646,1667,1686,1707,1726,1746,1765,1786,1806,1826,1846,1866,1886,1907],"xSR":741.5,"ySR":469.95,"xT1":424.9,"yT1":0,"xT2":1058.1,"yT2":0,"toosoon":0,"cond_shown":"Congruent","ratio_trial":100,"L_num":11,"L_den":22,"R_num":6,"R_den":15,"correct_side":1,"subjID":"DavidEstebanBallona28","gender":"0","school":"4","age":"9"},{"start_time":1552055455219,"click_time":1552055456450,"finger_time":1552055456250,"fix_duration":250,"trial":2,"RT":1031,"MT":200,"sideResp":1,"stimulus":[],"xmouse":[784,784,784,784,784,784,784,784,784,784,784,784,784,784,784,784,784,784,784,784,784,784,784,784,784,784,784,784,784,784,784,784,784,784,784,784,784,784,784,784,784,784,784,784,784,784,784,784,783,773,764,732,714,697,685,674,662,640,624,609,561,476],"ymouse":[534,534,534,534,534,534,534,534,534,534,534,534,534,534,534,534,534,534,534,534,534,534,534,534,534,534,534,534,534,534,534,534,534,534,534,534,534,534,534,534,534,534,534,534,534,534,534,534,528,512,487,412,369,328,299,275,251,208,188,167,122,62],"timestamp_mouse":[11,29,63,69,89,110,129,150,170,189,209,230,250,270,288,309,330,350,369,388,409,430,449,469,490,509,529,550,569,590,610,630,650,669,690,710,730,750,770,790,809,829,850,869,889,910,930,949,970,990,1009,1031,1049,1069,1090,1109,1129,1149,1169,1189,1210,1231],"xSR":741.5,"ySR":469.95,"xT1":424.9,"yT1":0,"xT2":1058.1,"yT2":0,"toosoon":0,"cond_shown":"Incongruent","ratio_trial":100,"L_num":2,"L_den":4,"R_num":8,"R_den":20,"correct_side":1,"subjID":"DavidEstebanBallona28","gender":"0","school":"4","age":"9"},{"start_time":1552055459427,"click_time":1552055462948,"finger_time":1552055461448,"fix_duration":1498.892413751235,"trial":3,"RT":2021,"MT":1500,"sideResp":1,"stimulus":[],"xmouse":[808,807,807,807,807,807,807,807,807,807,807,807,807,807,807,807,807,807,807,807,807,807,807,807,807,807,807,807,807,807,807,807,807,807,807,807,807,807,807,807,807,807,807,807,807,807,807,807,807,807,807,807,807,807,807,807,807,807,807,807,807,807,807,807,807,807,807,807,807,807,807,807,807,807,807,807,807,807,807,807,807,807,805,803,803,803,803,803,803,803,803,803,803,803,803,797,794,782,775,768,764,760,757,757,757,757,757,757,757,757,757,757,757,757,757,757,757,757,757,757,757,757,757,757,757,757,757,757,757,757,757,757,757,757,757,757,757,757,757,757,757,757,757,757,757,755,750,736,724,709,695,681,661,658,655,653,651,647,645,641,637,634,631,629,624,618,606,600,590,573,558,546,540,536,531,525,519],"ymouse":[514,514,514,514,514,514,514,514,514,514,514,514,514,514,514,514,514,514,514,514,514,514,514,514,514,514,514,514,514,514,514,514,514,514,514,514,514,514,514,514,514,514,514,514,514,514,514,514,514,514,514,514,514,514,514,514,514,514,514,514,514,514,514,514,514,514,514,514,514,514,514,514,514,514,514,514,514,514,514,514,514,514,514,513,513,513,513,513,513,513,513,513,513,513,513,507,503,492,485,477,470,464,458,458,458,458,458,458,458,458,458,458,458,458,458,458,458,458,458,458,458,458,458,458,458,458,458,458,458,458,458,458,458,458,458,458,458,458,458,458,458,458,458,458,458,456,452,437,420,399,379,355,310,287,268,252,238,222,214,204,196,191,186,184,182,179,172,168,160,146,133,119,109,97,84,67,53],"timestamp_mouse":[1,22,41,61,82,101,122,141,162,182,202,222,241,262,282,302,322,342,361,382,401,422,441,461,482,502,522,541,561,581,601,622,641,661,681,701,721,741,762,781,801,821,842,861,882,902,922,941,962,982,1000,1023,1042,1061,1081,1102,1122,1142,1161,1181,1202,1221,1241,1262,1281,1302,1322,1341,1362,1382,1401,1422,1442,1461,1481,1502,1522,1542,1562,1582,1601,1622,1641,1661,1682,1700,1722,1741,1761,1782,1801,1821,1841,1861,1882,1901,1921,1941,1962,1981,2001,2021,2041,2062,2081,2101,2121,2141,2161,2182,2201,2221,2241,2261,2282,2302,2321,2342,2361,2382,2402,2421,2442,2462,2482,2502,2521,2541,2562,2582,2602,2623,2642,2662,2682,2702,2722,2741,2760,2782,2802,2821,2841,2862,2881,2902,2922,2942,2962,2981,3001,3021,3041,3063,3082,3102,3121,3140,3161,3182,3202,3221,3241,3261,3281,3300,3324,3341,3362,3381,3402,3423,3441,3462,3481,3500,3521],"xSR":741.5,"ySR":469.95,"xT1":424.9,"yT1":0,"xT2":1058.1,"yT2":0,"toosoon":0,"cond_shown":"Congruent","ratio_trial":100,"L_num":1,"L_den":2,"R_num":3,"R_den":5,"correct_side":2,"subjID":"DavidEstebanBallona28","gender":"0","school":"4","age":"9"},{"start_time":1552055465484,"click_time":1552055466648,"finger_time":1552055466568,"fix_duration":915.19376530611,"trial":4,"RT":1084,"MT":80,"sideResp":1,"stimulus":[],"xmouse":[777,777,777,777,777,777,777,777,777,777,777,777,777,777,777,777,777,777,777,777,777,777,777,777,777,777,777,777,777,777,777,777,777,777,777,777,777,777,777,777,776,776,776,775,775,774,773,773,773,773,773,772,769,766,711,686,589,530,455],"ymouse":[545,543,543,542,542,542,542,542,542,542,542,542,542,542,542,542,542,542,542,542,542,542,542,542,542,542,542,542,542,542,542,542,542,542,542,542,542,541,538,537,536,535,534,532,531,530,529,529,529,529,529,528,525,522,425,392,251,164,26],"timestamp_mouse":[4,40,43,64,85,105,124,143,165,185,204,225,245,264,284,304,325,345,364,384,405,424,445,464,484,505,524,545,565,585,604,626,644,665,685,704,724,744,765,784,804,824,844,865,884,904,924,945,965,984,1004,1025,1044,1064,1084,1104,1123,1144,1164],"xSR":741.5,"ySR":469.95,"xT1":424.9,"yT1":0,"xT2":1058.1,"yT2":0,"toosoon":0,"cond_shown":"Incongruent","ratio_trial":200,"L_num":7,"L_den":10,"R_num":14,"R_den":28,"correct_side":1,"subjID":"DavidEstebanBallona28","gender":"0","school":"4","age":"9"},{"start_time":1552055467939,"click_time":1552055469968,"finger_time":1552055469408,"fix_duration":250,"trial":5,"RT":1469,"MT":560,"sideResp":1,"stimulus":[],"xmouse":[800,800,800,800,800,800,800,800,800,800,800,800,800,800,800,800,800,800,800,800,800,800,800,800,800,800,800,800,800,800,800,800,800,800,800,800,800,800,800,800,800,798,797,797,797,796,796,796,796,796,796,796,796,796,796,796,796,796,796,796,796,796,796,796,796,796,796,795,794,787,780,769,765,760,758,755,747,740,731,722,710,682,662,641,610,594,566,556,551,548,547,546,539,531,525,520,514,511,510,508,506,501],"ymouse":[513,513,513,513,513,513,513,513,513,513,513,513,513,513,513,513,513,513,513,513,513,513,513,513,513,513,513,513,513,513,513,513,513,513,513,513,513,513,513,513,513,513,513,513,513,513,513,513,513,513,513,513,513,513,513,513,513,513,513,513,513,513,513,513,513,513,513,512,511,501,495,480,474,468,464,459,439,426,413,396,378,334,306,276,234,209,171,159,152,149,148,147,142,135,128,123,114,111,110,106,103,95],"timestamp_mouse":[13,41,50,69,89,110,130,150,170,190,209,229,250,270,289,310,329,350,369,390,409,430,450,470,490,510,529,549,570,590,609,629,650,670,690,710,730,750,769,790,810,829,849,869,889,909,930,949,969,990,1009,1030,1050,1069,1089,1110,1129,1148,1170,1190,1210,1229,1249,1270,1290,1309,1329,1349,1370,1390,1409,1429,1451,1469,1489,1509,1529,1550,1569,1590,1609,1629,1649,1669,1689,1711,1729,1750,1768,1789,1810,1828,1849,1869,1889,1909,1929,1949,1969,1990,2009,2029],"xSR":741.5,"ySR":469.95,"xT1":424.9,"yT1":0,"xT2":1058.1,"yT2":0,"toosoon":0,"cond_shown":"Incongruent","ratio_trial":100,"L_num":3,"L_den":6,"R_num":4,"R_den":10,"correct_side":1,"subjID":"DavidEstebanBallona28","gender":"0","school":"4","age":"9"},{"start_time":1552055474195,"click_time":1552055475709,"finger_time":1552055475488,"fix_duration":1086.9224755303374,"trial":6,"RT":1293,"MT":221,"sideResp":1,"stimulus":[],"xmouse":[788,788,788,788,788,788,788,788,788,788,788,788,788,788,788,788,788,788,788,788,788,788,788,788,788,788,788,788,788,788,788,788,788,788,788,788,788,788,788,788,788,788,788,788,788,788,788,788,788,788,788,788,788,788,788,788,788,788,787,787,786,783,781,772,766,758,745,705,681,645,588,555,538,526,523,521],"ymouse":[531,531,531,531,531,531,531,531,531,531,531,531,531,531,531,531,531,531,531,531,531,531,531,531,531,531,531,531,531,531,531,531,531,531,531,531,531,531,531,531,531,531,531,531,531,531,531,531,531,531,531,531,531,531,531,531,531,530,530,530,525,518,508,482,466,451,432,387,360,319,251,199,161,123,108,95],"timestamp_mouse":[14,39,53,73,93,114,134,153,173,193,213,233,254,274,293,314,334,354,373,393,414,433,454,474,493,514,533,554,574,593,612,634,654,674,694,713,733,754,773,793,814,832,853,874,893,914,934,954,973,993,1013,1033,1053,1073,1093,1114,1134,1153,1173,1193,1213,1233,1253,1274,1293,1313,1333,1355,1373,1394,1412,1434,1453,1473,1493,1514],"xSR":741.5,"ySR":469.95,"xT1":424.9,"yT1":0,"xT2":1058.1,"yT2":0,"toosoon":0,"cond_shown":"Incongruent","ratio_trial":200,"L_num":3,"L_den":4,"R_num":11,"R_den":20,"correct_side":1,"subjID":"DavidEstebanBallona28","gender":"0","school":"4","age":"9"},{"start_time":1552055477031,"click_time":1552055478651,"finger_time":1552055478149,"fix_duration":320.4240432811041,"trial":7,"RT":1118,"MT":502,"sideResp":2,"stimulus":[],"xmouse":[821,821,821,821,821,821,821,821,821,821,821,821,821,821,821,821,821,821,821,821,821,821,821,821,821,821,821,821,821,821,821,821,821,821,821,821,821,821,821,821,821,821,821,821,821,821,821,821,821,821,821,823,827,833,839,848,869,882,900,911,923,943,951,961,974,983,1004,1016,1030,1038,1044,1045,1045,1043,1041,1041,1044,1050,1061,1067,1072],"ymouse":[536,536,536,536,536,536,536,536,536,536,536,536,536,536,536,536,536,536,536,536,536,536,536,536,536,536,536,536,536,536,536,536,536,536,536,536,536,536,536,536,536,536,536,536,536,536,536,536,536,535,534,531,527,521,514,504,477,460,430,416,400,379,368,358,347,338,314,300,275,258,229,216,202,191,182,176,153,138,120,110,99],"timestamp_mouse":[18,36,58,77,97,118,137,158,177,198,218,237,257,277,298,317,337,357,377,397,418,437,457,477,497,518,537,558,578,597,618,637,658,678,698,718,738,757,777,798,818,837,857,878,897,917,937,958,978,996,1017,1037,1056,1077,1097,1118,1137,1157,1177,1197,1219,1237,1257,1277,1298,1317,1337,1357,1377,1397,1419,1437,1457,1477,1498,1517,1536,1557,1577,1598,1619],"xSR":741.5,"ySR":469.95,"xT1":424.9,"yT1":0,"xT2":1058.1,"yT2":0,"toosoon":0,"cond_shown":"Incongruent","ratio_trial":200,"L_num":7,"L_den":10,"R_num":14,"R_den":28,"correct_side":1,"subjID":"DavidEstebanBallona28","gender":"0","school":"4","age":"9"},{"start_time":1552055483105,"click_time":1552055485968,"finger_time":1552055483849,"fix_duration":1076.5066611305415,"trial":8,"RT":744,"MT":2119,"sideResp":1,"stimulus":[],"xmouse":[819,819,819,819,819,819,819,819,819,818,818,817,816,815,815,812,811,809,807,806,805,804,802,802,802,801,801,801,801,801,801,801,801,801,801,801,801,804,807,812,816,819,823,826,826,826,826,826,826,826,826,826,826,826,828,835,846,891,931,989,1052,1118,1208,1208,1208,1208,1208,1208,1208,1208,1208,1208,1208,1208,1208,1208,1208,1208,1208,1208,1208,1208,1208,1208,1208,1208,1208,1208,1208,1208,1208,1208,1208,1208,1208,1208,1208,1208,1208,1208,1208,1208,1208,1208,1208,1208,1208,1208,1208,1208,1208,1208,1208,1208,1208,1208,1208,1208,1208,1208,1208,1208,1208,1208,1208,1208,1208,1208,1208,1208,1208,1208,1208,1208,1208,1208,1208,377,391,399,407,413,419,431],"ymouse":[499,499,499,499,499,499,499,499,499,500,500,500,500,500,500,499,498,496,490,486,482,477,476,474,474,473,473,473,473,473,473,473,473,473,473,473,471,464,456,447,438,432,426,421,421,421,421,421,421,421,421,421,421,421,420,412,400,347,305,250,189,123,31,31,31,31,31,31,31,31,31,31,31,31,31,31,31,31,31,31,31,31,31,31,31,31,31,31,31,31,31,31,31,31,31,31,31,31,31,31,31,31,31,31,31,31,31,31,31,31,31,31,31,31,31,31,31,31,31,31,31,31,31,31,31,31,31,31,31,31,31,31,31,31,31,31,31,2,9,10,12,13,14,14],"timestamp_mouse":[9,23,52,63,84,102,123,143,164,183,204,223,244,264,284,304,323,343,363,383,403,423,444,463,484,503,523,544,563,583,602,623,644,664,683,703,723,744,763,784,803,823,844,863,883,903,923,944,963,984,1003,1023,1043,1063,1084,1103,1123,1145,1163,1183,1203,1223,1243,1263,1283,1303,1323,1342,1362,1382,1402,1423,1443,1464,1484,1503,1524,1544,1563,1583,1603,1623,1644,1663,1683,1703,1723,1744,1763,1783,1803,1824,1844,1864,1883,1904,1924,1943,1963,1983,2003,2024,2043,2064,2084,2103,2123,2145,2163,2183,2203,2224,2243,2263,2283,2303,2324,2343,2363,2383,2403,2423,2444,2463,2484,2504,2523,2544,2563,2583,2604,2623,2644,2664,2683,2704,2723,2743,2763,2783,2804,2823,2843,2863],"xSR":741.5,"ySR":469.95,"xT1":424.9,"yT1":0,"xT2":1058.1,"yT2":0,"toosoon":0,"cond_shown":"Congruent","ratio_trial":100,"L_num":1,"L_den":2,"R_num":18,"R_den":30,"correct_side":2,"subjID":"DavidEstebanBallona28","gender":"0","school":"4","age":"9"},{"start_time":1552055488982,"click_time":1552055491150,"finger_time":1552055490568,"fix_duration":1370.7284838056646,"trial":9,"RT":1586,"MT":582,"sideResp":1,"stimulus":[],"xmouse":[774,774,774,774,774,774,774,774,774,774,774,774,774,774,774,774,774,774,774,774,774,774,774,774,774,774,774,774,774,774,774,774,774,774,774,774,774,774,774,774,774,774,774,774,774,774,774,774,774,774,774,774,774,774,774,774,774,774,774,774,774,774,774,774,774,774,774,774,774,774,774,774,774,774,771,769,768,763,757,724,698,684,678,661,649,643,636,627,608,595,583,568,566,566,566,564,560,558,557,557,557,555,550,544,535,532,530,526,520],"ymouse":[532,532,532,532,532,532,532,532,532,532,532,532,532,532,532,532,532,532,532,532,532,532,532,532,532,532,532,532,532,532,532,532,532,532,532,532,532,532,532,532,532,532,532,532,532,532,532,532,532,532,532,532,532,532,532,532,532,532,532,532,532,532,532,532,532,532,532,532,532,532,532,532,531,529,524,520,515,506,489,400,316,262,218,141,116,96,82,68,41,29,20,14,14,14,14,14,17,18,19,19,19,19,19,19,19,19,19,19,20],"timestamp_mouse":[12,34,47,67,87,106,126,147,167,187,206,227,246,267,286,307,327,347,367,386,406,426,447,467,486,507,526,547,567,586,605,627,646,667,685,706,727,746,765,785,805,827,847,867,887,906,926,947,967,986,1006,1027,1047,1066,1087,1107,1128,1146,1167,1187,1206,1227,1247,1267,1287,1306,1327,1347,1367,1386,1406,1426,1446,1466,1486,1506,1526,1547,1566,1586,1606,1626,1646,1668,1685,1706,1726,1746,1768,1786,1806,1826,1846,1866,1886,1906,1926,1945,1966,1986,2007,2026,2045,2065,2086,2106,2126,2146,2168],"xSR":741.5,"ySR":469.95,"xT1":424.9,"yT1":0,"xT2":1058.1,"yT2":0,"toosoon":0,"cond_shown":"Incongruent","ratio_trial":100,"L_num":6,"L_den":10,"R_num":13,"R_den":26,"correct_side":1,"subjID":"DavidEstebanBallona28","gender":"0","school":"4","age":"9"},{"start_time":1552055494323,"click_time":1552055495669,"finger_time":1552055495568,"fix_duration":533.8674432029179,"trial":10,"RT":1245,"MT":101,"sideResp":2,"stimulus":[],"xmouse":[774,774,774,774,774,774,774,774,774,774,774,774,774,774,774,774,774,774,774,774,774,774,774,774,774,774,774,774,774,774,774,774,774,774,774,774,774,774,774,774,774,774,774,774,774,774,774,774,774,774,774,774,774,774,774,774,774,774,774,774,776,786,814,842,901,940,989,1090],"ymouse":[516,516,516,516,516,516,516,516,516,516,516,516,516,516,516,516,516,516,516,516,516,516,516,516,516,516,516,516,516,516,516,516,516,516,516,516,516,516,516,516,516,516,516,516,516,516,516,516,516,516,516,516,516,516,516,516,516,516,516,511,508,495,453,416,331,265,194,59],"timestamp_mouse":[9,25,46,65,85,105,125,146,164,186,205,225,246,265,285,306,326,345,366,386,406,425,445,465,486,506,525,546,565,585,606,625,646,665,685,706,726,746,765,786,806,825,846,864,885,905,926,946,965,986,1006,1025,1045,1065,1086,1106,1126,1146,1165,1186,1206,1226,1245,1265,1284,1306,1325,1345],"xSR":741.5,"ySR":469.95,"xT1":424.9,"yT1":0,"xT2":1058.1,"yT2":0,"toosoon":0,"cond_shown":"Congruent","ratio_trial":100,"L_num":4,"L_den":8,"R_num":6,"R_den":10,"correct_side":2,"subjID":"DavidEstebanBallona28","gender":"0","school":"4","age":"9"},{"start_time":1552055498414,"click_time":1552055500748,"finger_time":1552055499928,"fix_duration":1383.957651846927,"trial":11,"RT":1514,"MT":820,"sideResp":2,"stimulus":[],"xmouse":[803,803,803,803,803,803,803,803,803,803,803,803,803,803,803,803,803,803,803,803,803,803,803,803,803,803,803,803,803,803,803,803,803,803,803,803,803,803,803,803,803,803,803,803,803,803,803,803,803,803,803,802,801,801,801,801,801,801,801,801,801,801,801,801,801,801,801,801,801,801,802,805,811,816,818,823,826,834,839,846,862,892,906,917,927,935,941,947,949,952,954,956,958,958,961,966,972,990,1004,1014,1022,1033,1038,1041,1043,1045,1046,1049,1050,1051,1051,1052,1054,1055,1056,1057,1060],"ymouse":[524,524,524,524,524,524,524,524,524,524,524,524,524,524,524,524,524,524,524,524,524,524,524,524,524,524,524,524,524,524,524,524,524,524,524,524,524,524,524,524,524,524,523,523,523,523,523,523,523,523,523,521,521,519,519,519,519,519,519,519,519,519,519,519,519,519,518,516,513,512,508,502,490,476,473,461,453,434,426,414,391,348,327,307,289,275,266,252,248,242,239,234,232,230,227,221,213,189,169,157,144,124,117,112,107,104,102,99,98,96,96,95,92,90,89,88,85],"timestamp_mouse":[14,36,54,75,94,115,134,155,175,194,214,235,254,274,294,315,334,355,374,395,415,435,455,475,494,515,535,555,575,594,614,635,654,675,695,714,735,755,775,795,814,835,861,875,894,915,934,955,975,995,1015,1033,1053,1074,1095,1115,1135,1153,1174,1195,1215,1234,1254,1275,1295,1314,1334,1355,1375,1394,1414,1434,1454,1478,1493,1514,1534,1553,1574,1594,1614,1636,1654,1675,1694,1714,1734,1753,1774,1794,1815,1836,1854,1876,1893,1915,1935,1954,1975,1994,2015,2036,2054,2075,2094,2114,2135,2154,2175,2194,2214,2233,2253,2274,2294,2313,2333],"xSR":741.5,"ySR":469.95,"xT1":424.9,"yT1":0,"xT2":1058.1,"yT2":0,"toosoon":0,"cond_shown":"Congruent","ratio_trial":100,"L_num":15,"L_den":25,"R_num":13,"R_den":26,"correct_side":1,"subjID":"DavidEstebanBallona28","gender":"0","school":"4","age":"9"},{"start_time":1552055506200,"click_time":1552055507868,"finger_time":1552055507269,"fix_duration":1470.9664946846942,"trial":12,"RT":1069,"MT":599,"sideResp":2,"stimulus":[],"xmouse":[791,791,791,791,791,791,791,791,791,791,791,791,791,791,791,791,791,791,791,791,791,791,791,791,791,791,791,791,791,791,791,791,791,791,791,791,791,791,791,791,791,791,791,791,791,791,792,792,794,798,805,810,814,829,838,847,856,873,882,884,890,896,906,911,916,924,929,936,943,949,953,959,963,977,985,993,1002,1014,1035,1046,1054,1065,1077,1084],"ymouse":[525,525,525,525,525,525,525,525,525,525,525,525,525,525,525,525,525,525,525,525,525,525,525,525,525,525,525,525,525,525,525,525,525,525,525,525,525,525,525,525,524,524,524,524,524,524,524,522,520,514,504,495,486,466,455,442,428,405,394,389,380,372,353,344,337,326,319,312,302,295,290,283,278,260,248,238,225,209,178,162,149,130,109,97],"timestamp_mouse":[10,42,49,68,87,109,128,149,168,188,209,229,248,269,289,309,328,349,368,389,408,429,448,468,489,508,529,548,569,589,609,628,648,669,688,708,729,749,768,788,808,829,848,867,887,909,929,949,968,988,1007,1027,1048,1069,1088,1108,1129,1150,1168,1188,1207,1229,1250,1268,1289,1308,1328,1348,1368,1388,1409,1427,1448,1468,1489,1508,1527,1548,1567,1589,1608,1629,1650,1667],"xSR":741.5,"ySR":469.95,"xT1":424.9,"yT1":0,"xT2":1058.1,"yT2":0,"toosoon":0,"cond_shown":"Incongruent","ratio_trial":300,"L_num":4,"L_den":20,"R_num":2,"R_den":4,"correct_side":2,"subjID":"DavidEstebanBallona28","gender":"0","school":"4","age":"9"},{"start_time":1552055512223,"click_time":1552055514268,"finger_time":1552055513647,"fix_duration":1233.207305041944,"trial":13,"RT":1424,"MT":621,"sideResp":1,"stimulus":[],"xmouse":[767,767,770,770,772,773,774,775,775,776,777,778,780,781,781,781,781,781,781,781,781,781,781,781,781,781,781,781,781,781,781,781,781,781,781,781,781,781,781,781,781,781,781,781,781,781,781,781,781,781,781,781,781,781,781,781,781,781,781,781,781,781,781,781,781,781,781,779,775,771,751,740,731,729,727,726,726,725,725,721,718,713,699,692,685,681,678,673,669,663,658,647,640,633,626,620,613,604,599,582,566,538,522],"ymouse":[530,530,528,528,527,526,526,525,525,524,524,524,522,520,520,520,520,520,520,520,520,520,520,520,520,520,520,520,520,520,520,520,520,520,520,520,520,520,520,520,520,520,520,520,520,520,520,520,520,520,520,520,520,520,520,520,520,520,520,520,520,520,520,520,520,520,520,516,510,505,484,469,450,441,436,433,431,428,423,414,402,389,354,336,319,310,301,284,271,251,237,211,198,186,175,167,160,151,146,127,109,68,45],"timestamp_mouse":[12,26,57,65,86,105,126,146,166,185,205,225,246,265,286,306,325,346,366,384,406,426,445,466,485,504,526,545,564,586,606,626,645,666,686,705,725,744,765,786,804,825,845,865,887,904,925,946,964,986,1004,1026,1046,1065,1085,1106,1125,1145,1165,1184,1206,1225,1246,1266,1285,1305,1326,1345,1366,1386,1405,1424,1445,1465,1485,1506,1525,1546,1566,1585,1606,1626,1645,1665,1685,1705,1725,1745,1765,1785,1806,1827,1845,1865,1885,1906,1927,1945,1966,1984,2005,2027,2044],"xSR":741.5,"ySR":469.95,"xT1":424.9,"yT1":0,"xT2":1058.1,"yT2":0,"toosoon":0,"cond_shown":"Congruent","ratio_trial":300,"L_num":20,"L_den":25,"R_num":13,"R_den":26,"correct_side":1,"subjID":"DavidEstebanBallona28","gender":"0","school":"4","age":"9"},{"start_time":1552055515881,"click_time":1552055518088,"finger_time":1552055517168,"fix_duration":250,"trial":14,"RT":1287,"MT":920,"sideResp":2,"stimulus":[],"xmouse":[774,774,774,774,774,774,774,774,774,774,774,774,774,774,774,774,774,774,774,774,774,774,774,774,774,774,774,774,774,774,774,774,774,774,774,774,774,774,774,774,774,776,776,776,776,776,776,776,776,776,776,776,776,776,776,776,776,776,776,777,777,778,779,780,784,788,794,804,817,826,836,847,857,866,888,896,906,916,937,948,958,969,982,995,1020,1038,1049,1058,1068,1069,1070,1071,1073,1077,1080,1083,1085,1087,1088,1088,1089,1089,1089,1089,1091,1091,1092,1094,1096,1097,1097],"ymouse":[477,477,477,477,477,477,477,477,477,477,477,477,477,477,477,477,477,477,477,477,477,477,477,477,477,477,477,477,477,477,477,477,477,477,477,477,477,477,477,477,477,477,476,475,475,475,475,475,475,475,475,475,475,475,475,475,475,475,475,475,474,474,472,472,466,458,449,431,408,398,389,380,371,362,345,339,329,319,303,293,285,275,264,254,235,220,210,201,188,185,182,181,178,173,168,161,156,152,148,147,146,146,144,139,134,132,125,121,108,102,96],"timestamp_mouse":[11,41,47,67,88,107,127,148,167,188,208,227,247,268,288,308,327,347,368,387,406,428,447,468,486,506,528,548,567,588,607,628,648,667,688,708,728,747,768,787,807,827,847,867,888,907,928,948,968,987,1008,1027,1048,1066,1087,1107,1126,1148,1168,1188,1208,1226,1246,1268,1287,1307,1327,1348,1368,1387,1407,1428,1448,1466,1487,1520,1527,1548,1569,1587,1607,1627,1647,1666,1686,1707,1727,1748,1769,1787,1807,1828,1848,1869,1887,1907,1927,1948,1967,1987,2007,2027,2047,2068,2086,2107,2130,2147,2168,2186,2207],"xSR":741.5,"ySR":469.95,"xT1":424.9,"yT1":0,"xT2":1058.1,"yT2":0,"toosoon":0,"cond_shown":"Congruent","ratio_trial":300,"L_num":1,"L_den":30,"R_num":8,"R_den":24,"correct_side":2,"subjID":"DavidEstebanBallona28","gender":"0","school":"4","age":"9"},{"start_time":1552055522093,"click_time":1552055524228,"finger_time":1552055523628,"fix_duration":702.4665134094031,"trial":15,"RT":1535,"MT":600,"sideResp":1,"stimulus":[],"xmouse":[769,769,769,769,769,769,769,769,769,769,769,769,769,769,769,769,769,769,769,769,769,769,769,769,769,769,769,769,769,769,769,769,769,769,769,769,769,769,769,769,769,769,769,769,769,769,769,769,769,769,769,769,769,769,769,769,769,769,769,769,769,769,769,769,769,769,769,769,769,769,768,767,764,760,758,756,748,742,735,731,728,724,719,708,701,693,681,667,662,656,650,646,642,637,634,634,632,631,628,623,618,615,611,574,559,531,521],"ymouse":[525,525,525,525,525,525,525,525,525,525,525,525,525,525,525,525,525,525,525,525,525,525,525,525,525,525,525,525,525,525,525,525,525,525,525,525,525,525,525,525,525,525,525,525,525,525,525,525,525,525,525,525,525,525,525,525,525,525,525,525,525,525,525,525,525,525,525,525,525,524,522,520,513,504,499,488,469,456,435,424,414,404,392,367,353,336,308,267,248,227,209,195,181,167,160,159,157,156,154,151,148,146,144,127,121,103,96],"timestamp_mouse":[16,35,55,75,95,116,136,156,176,195,216,235,256,274,295,315,335,355,376,395,416,434,456,476,495,515,536,556,576,595,616,636,655,674,695,715,736,756,775,795,814,836,856,875,896,915,935,955,976,996,1015,1035,1055,1075,1096,1115,1136,1155,1175,1195,1215,1236,1256,1276,1295,1316,1334,1356,1376,1395,1416,1435,1456,1475,1494,1515,1535,1555,1575,1595,1615,1635,1655,1675,1695,1715,1735,1757,1775,1795,1815,1835,1855,1875,1896,1916,1935,1955,1975,1995,2015,2036,2055,2075,2095,2114,2135],"xSR":741.5,"ySR":469.95,"xT1":424.9,"yT1":0,"xT2":1058.1,"yT2":0,"toosoon":0,"cond_shown":"Congruent","ratio_trial":100,"L_num":6,"L_den":20,"R_num":5,"R_den":25,"correct_side":1,"subjID":"DavidEstebanBallona28","gender":"0","school":"4","age":"9"},{"start_time":1552055527230,"click_time":1552055529250,"finger_time":1552055528128,"fix_duration":1101.5817100611282,"trial":16,"RT":898,"MT":1122,"sideResp":1,"stimulus":[],"xmouse":[792,792,792,792,792,792,792,792,792,792,792,792,792,792,792,792,792,792,792,792,792,792,792,792,792,792,792,792,792,792,792,792,792,792,792,792,792,792,791,790,790,787,787,785,784,783,782,782,781,781,781,780,780,778,778,774,769,767,762,759,754,740,734,728,721,714,698,690,677,672,663,661,658,656,653,650,647,645,639,634,622,585,570,559,554,552,550,548,546,546,543,542,541,539,537,532,530,529,527,526,523],"ymouse":[483,483,483,483,483,483,483,483,483,483,483,483,483,483,483,483,483,483,483,483,483,483,483,483,483,483,483,483,483,483,483,483,483,483,483,483,483,483,484,483,482,477,474,470,467,464,457,455,450,448,445,440,436,432,430,416,405,394,382,368,354,323,308,294,283,271,245,233,216,209,201,198,196,193,189,186,183,182,179,177,172,156,150,144,140,138,134,131,128,125,119,117,113,109,104,91,84,77,68,63,55],"timestamp_mouse":[20,41,58,79,97,118,139,159,178,198,218,238,258,278,298,318,338,359,378,399,418,438,458,478,499,518,538,558,578,599,618,639,658,678,699,718,738,758,779,798,818,838,858,878,898,918,938,958,978,999,1018,1037,1058,1078,1098,1120,1139,1158,1178,1199,1218,1238,1258,1278,1298,1319,1338,1358,1378,1398,1420,1438,1458,1478,1498,1518,1538,1558,1578,1598,1619,1638,1658,1678,1698,1717,1738,1758,1778,1798,1820,1838,1859,1878,1898,1920,1938,1959,1978,1998,2019],"xSR":741.5,"ySR":469.95,"xT1":424.9,"yT1":0,"xT2":1058.1,"yT2":0,"toosoon":0,"cond_shown":"Incongruent","ratio_trial":300,"L_num":2,"L_den":4,"R_num":6,"R_den":30,"correct_side":1,"subjID":"DavidEstebanBallona28","gender":"0","school":"4","age":"9"},{"start_time":1552055532483,"click_time":1552055534429,"finger_time":1552055533788,"fix_duration":1472.3280412003087,"trial":17,"RT":1305,"MT":641,"sideResp":2,"stimulus":[],"xmouse":[779,779,779,779,779,779,779,779,779,779,779,779,779,779,779,779,779,779,779,779,779,779,779,779,779,779,779,779,779,779,779,779,779,779,779,779,779,779,779,779,779,779,779,779,779,779,779,779,779,779,779,779,779,779,779,779,779,779,779,779,780,780,781,783,786,788,791,793,800,807,813,818,826,834,850,856,867,872,882,886,890,894,897,901,907,910,915,917,920,934,947,964,984,1022,1037,1049,1057,1066],"ymouse":[493,493,493,493,493,493,493,493,493,493,493,493,493,493,493,493,493,493,493,493,493,493,493,493,493,493,493,493,493,493,493,493,493,493,493,493,493,493,493,493,493,493,493,493,493,493,493,493,493,493,493,493,493,493,493,493,493,493,493,493,493,491,488,484,473,463,455,448,432,420,408,397,382,368,341,331,315,309,297,291,288,283,281,277,270,266,259,255,251,235,225,211,191,150,133,116,104,92],"timestamp_mouse":[9,25,45,79,85,105,125,147,166,186,206,226,246,264,285,305,326,345,366,386,405,425,446,465,486,505,524,546,566,585,605,626,646,665,685,705,725,745,766,784,806,826,845,865,886,906,925,946,966,984,1005,1026,1045,1064,1084,1106,1125,1145,1166,1186,1205,1225,1245,1266,1285,1305,1325,1345,1367,1385,1406,1425,1444,1465,1485,1505,1526,1546,1567,1584,1604,1625,1646,1665,1685,1705,1725,1745,1765,1785,1804,1826,1845,1867,1885,1905,1925,1946],"xSR":741.5,"ySR":469.95,"xT1":424.9,"yT1":0,"xT2":1058.1,"yT2":0,"toosoon":0,"cond_shown":"Congruent","ratio_trial":200,"L_num":3,"L_den":10,"R_num":7,"R_den":14,"correct_side":2,"subjID":"DavidEstebanBallona28","gender":"0","school":"4","age":"9"},{"start_time":1552055537559,"click_time":1552055539468,"finger_time":1552055538629,"fix_duration":1468.7969223015964,"trial":18,"RT":1070,"MT":839,"sideResp":1,"stimulus":[],"xmouse":[779,779,779,779,779,779,779,779,779,779,779,779,779,779,779,779,779,779,779,779,779,779,779,779,779,779,779,779,779,779,779,779,779,779,779,779,779,779,779,779,779,779,779,779,779,779,779,779,779,779,776,774,770,768,754,742,730,715,703,692,674,669,666,657,637,629,618,606,592,579,549,545,534,531,530,530,530,530,530,530,528,525,522,522,522,522,522,522,522,522,522,522,521,521,515,494],"ymouse":[517,517,517,517,517,517,517,517,517,517,517,517,517,517,517,517,517,517,517,517,517,517,517,517,517,517,517,517,517,517,517,517,517,517,517,517,517,517,517,517,517,517,517,517,517,517,517,514,511,508,498,493,481,467,420,391,367,340,315,293,261,253,248,239,228,222,215,205,194,182,147,140,125,122,120,120,120,120,120,120,118,116,114,114,114,114,114,114,114,114,114,114,114,112,106,79],"timestamp_mouse":[12,42,49,68,89,110,128,149,169,190,209,230,249,269,290,309,330,350,370,390,409,430,450,470,490,509,529,550,570,589,609,629,649,668,690,710,730,750,769,789,809,829,850,868,888,910,930,950,969,990,1009,1030,1050,1070,1090,1109,1130,1149,1170,1189,1209,1228,1249,1269,1291,1309,1329,1349,1369,1389,1409,1429,1449,1470,1490,1508,1529,1549,1569,1590,1609,1630,1649,1670,1689,1709,1730,1749,1769,1789,1809,1829,1849,1869,1891,1909],"xSR":741.5,"ySR":469.95,"xT1":424.9,"yT1":0,"xT2":1058.1,"yT2":0,"toosoon":0,"cond_shown":"Congruent","ratio_trial":100,"L_num":6,"L_den":20,"R_num":5,"R_den":25,"correct_side":1,"subjID":"DavidEstebanBallona28","gender":"0","school":"4","age":"9"},{"start_time":1552055541794,"click_time":1552055543468,"finger_time":1552055542469,"fix_duration":523.4957361180794,"trial":19,"RT":675,"MT":999,"sideResp":2,"stimulus":[],"xmouse":[797,797,797,797,797,797,797,797,797,797,797,797,797,797,797,797,797,797,797,797,797,797,797,797,797,797,797,797,798,801,806,810,820,824,827,829,830,833,836,840,847,853,860,874,885,893,899,903,910,912,915,917,919,924,927,935,942,963,973,982,995,1000,1003,1007,1008,1010,1011,1013,1014,1016,1018,1021,1030,1034,1036,1038,1040,1043,1046,1048,1052,1054,1057,1066],"ymouse":[536,536,536,536,536,536,536,536,536,536,536,536,536,536,536,536,536,536,536,536,536,536,536,536,536,536,536,534,530,522,509,499,475,465,460,453,451,446,437,428,419,410,398,375,362,350,341,336,327,323,319,316,314,307,301,293,284,259,245,231,212,203,197,191,188,186,184,182,180,178,175,172,162,158,155,153,150,145,138,136,127,121,114,95],"timestamp_mouse":[14,34,54,74,95,114,134,154,175,193,214,235,254,273,294,315,335,354,373,395,414,433,455,475,494,514,535,554,573,594,615,634,655,675,694,713,733,754,774,793,815,834,853,874,894,914,934,953,973,994,1013,1035,1055,1074,1095,1114,1134,1156,1174,1195,1214,1234,1254,1274,1294,1314,1335,1354,1373,1393,1413,1433,1455,1474,1495,1515,1534,1556,1574,1594,1615,1633,1654,1673],"xSR":741.5,"ySR":469.95,"xT1":424.9,"yT1":0,"xT2":1058.1,"yT2":0,"toosoon":0,"cond_shown":"Congruent","ratio_trial":300,"L_num":1,"L_den":5,"R_num":11,"R_den":22,"correct_side":2,"subjID":"DavidEstebanBallona28","gender":"0","school":"4","age":"9"},{"start_time":1552055545100,"click_time":1552055546750,"finger_time":1552055546247,"fix_duration":250,"trial":20,"RT":1147,"MT":503,"sideResp":2,"stimulus":[],"xmouse":[798,798,798,798,798,798,798,798,798,798,798,798,798,798,798,798,798,798,798,798,798,798,798,798,798,798,798,798,798,798,798,798,798,798,798,798,798,798,798,798,798,798,798,798,798,798,798,798,798,798,798,798,798,801,807,813,817,822,833,838,843,847,856,861,865,871,877,893,902,914,926,937,953,982,998,1012,1032,1044,1066,1076,1086,1097,1110],"ymouse":[524,524,524,524,524,524,524,524,524,524,524,524,524,524,524,524,524,524,524,524,524,524,524,524,524,524,524,524,524,524,524,524,524,524,524,524,524,524,524,524,524,524,524,524,524,524,524,524,524,524,524,524,524,516,502,489,477,464,442,430,419,410,394,387,380,371,362,344,333,320,309,299,284,255,241,224,200,183,152,136,120,102,68],"timestamp_mouse":[13,27,48,67,88,108,128,147,169,189,208,228,249,269,287,308,329,348,368,388,409,428,447,469,489,508,529,548,568,588,608,628,649,668,688,708,729,747,769,788,808,829,848,867,887,909,928,949,967,987,1008,1029,1048,1067,1088,1109,1127,1147,1168,1187,1208,1227,1250,1267,1288,1308,1328,1349,1368,1388,1409,1428,1447,1467,1488,1508,1528,1548,1568,1588,1608,1628,1650],"xSR":741.5,"ySR":469.95,"xT1":424.9,"yT1":0,"xT2":1058.1,"yT2":0,"toosoon":0,"cond_shown":"Congruent","ratio_trial":300,"L_num":3,"L_den":12,"R_num":11,"R_den":20,"correct_side":2,"subjID":"DavidEstebanBallona28","gender":"0","school":"4","age":"9"},{"start_time":1552055549233,"click_time":1552055551768,"finger_time":1552055550968,"fix_duration":1324.368720213137,"trial":21,"RT":1735,"MT":800,"sideResp":1,"stimulus":[],"xmouse":[776,776,776,776,776,776,776,776,776,776,776,776,776,776,776,776,776,776,776,776,776,776,776,776,776,776,776,776,776,776,776,776,776,776,776,776,776,776,776,776,776,776,776,776,776,776,776,776,776,776,776,776,776,776,776,776,776,776,776,776,776,776,776,776,776,776,776,776,776,776,776,776,776,776,776,776,776,776,776,776,776,776,776,776,773,760,702,672,638,627,624,622,619,616,611,600,593,586,579,575,564,557,551,546,540,532,526,524,519,517,515,514,512,512,511,510,508,508,505,504,503,498,498,496,495,493,491],"ymouse":[503,503,503,503,503,503,503,503,503,503,503,503,503,503,503,503,503,503,503,503,503,503,503,503,503,503,503,503,503,503,503,503,503,503,503,503,503,503,503,503,503,503,503,503,503,503,503,503,503,503,503,503,503,503,503,503,503,503,503,503,503,503,503,503,503,503,503,503,503,503,503,503,503,503,503,503,503,503,503,503,503,503,503,503,501,491,461,446,428,422,420,415,412,407,400,382,371,359,344,335,309,296,282,269,256,234,216,211,201,197,190,187,184,182,180,176,171,170,161,155,148,133,126,120,114,104,99],"timestamp_mouse":[14,36,55,75,94,114,135,155,176,195,214,235,256,275,296,314,336,355,375,396,415,434,454,476,496,515,536,556,575,595,616,634,654,674,695,716,736,754,774,794,816,836,855,875,895,916,936,955,976,995,1016,1036,1056,1074,1095,1116,1134,1155,1176,1196,1214,1236,1255,1274,1296,1316,1336,1355,1376,1395,1415,1434,1456,1476,1496,1514,1536,1555,1576,1596,1614,1634,1655,1676,1694,1715,1735,1755,1775,1794,1816,1836,1855,1875,1896,1917,1934,1956,1976,1996,2017,2035,2055,2075,2094,2117,2135,2155,2175,2195,2217,2235,2254,2275,2296,2317,2335,2355,2375,2395,2415,2435,2454,2475,2496,2517,2535],"xSR":741.5,"ySR":469.95,"xT1":424.9,"yT1":0,"xT2":1058.1,"yT2":0,"toosoon":0,"cond_shown":"Incongruent","ratio_trial":200,"L_num":4,"L_den":30,"R_num":1,"R_den":3,"correct_side":2,"subjID":"DavidEstebanBallona28","gender":"0","school":"4","age":"9"},{"start_time":1552055554799,"click_time":1552055555988,"finger_time":1552055555768,"fix_duration":1229.5949262644544,"trial":22,"RT":969,"MT":220,"sideResp":1,"stimulus":[],"xmouse":[784,784,784,784,784,784,784,784,784,784,784,784,784,784,784,784,784,784,784,784,784,784,784,784,784,784,784,784,784,784,784,784,784,784,784,784,784,784,784,784,784,784,784,784,779,772,768,751,737,733,717,704,691,633,581,536,507,484,479,475],"ymouse":[530,530,530,530,530,530,530,530,530,530,530,530,530,530,530,530,530,530,530,530,530,530,530,530,530,530,530,530,530,530,530,530,530,530,530,530,530,530,530,530,530,530,530,528,520,509,502,482,465,459,440,424,407,330,271,217,176,123,103,89],"timestamp_mouse":[10,37,50,69,90,110,128,148,170,189,209,229,248,269,290,310,329,350,370,389,408,428,448,469,489,510,530,550,570,589,609,630,649,670,690,710,729,748,770,790,810,830,849,869,890,908,930,950,969,989,1009,1030,1048,1069,1089,1109,1130,1152,1168,1189],"xSR":741.5,"ySR":469.95,"xT1":424.9,"yT1":0,"xT2":1058.1,"yT2":0,"toosoon":0,"cond_shown":"Incongruent","ratio_trial":300,"L_num":4,"L_den":5,"R_num":6,"R_den":12,"correct_side":1,"subjID":"DavidEstebanBallona28","gender":"0","school":"4","age":"9"},{"start_time":1552055558122,"click_time":1552055559608,"finger_time":1552055559247,"fix_duration":752.9040637645855,"trial":23,"RT":1125,"MT":361,"sideResp":1,"stimulus":[],"xmouse":[761,761,761,761,761,761,761,761,761,761,761,761,761,761,761,761,761,761,761,761,761,761,761,761,761,761,761,761,761,761,761,761,761,761,761,761,761,761,761,761,761,761,762,762,762,762,762,762,762,762,762,762,762,762,757,746,737,719,701,672,642,617,584,575,572,568,563,562,559,555,550,545,532,523,508],"ymouse":[527,527,527,527,527,527,527,527,527,527,527,527,527,527,527,527,527,527,527,527,527,527,527,527,527,527,527,527,527,527,527,527,526,526,526,526,526,525,522,520,517,515,512,512,512,512,512,512,512,512,512,512,512,512,506,497,486,458,432,393,347,313,260,236,230,215,200,194,188,181,169,156,124,107,81],"timestamp_mouse":[13,40,46,67,86,107,125,145,167,186,205,225,247,266,287,307,326,347,366,385,405,427,447,465,486,506,527,547,565,587,607,625,646,666,686,707,727,746,765,786,807,826,847,865,885,907,925,947,967,985,1005,1025,1045,1067,1086,1107,1125,1145,1167,1186,1206,1225,1245,1267,1286,1307,1328,1346,1366,1386,1406,1426,1445,1466,1486],"xSR":741.5,"ySR":469.95,"xT1":424.9,"yT1":0,"xT2":1058.1,"yT2":0,"toosoon":0,"cond_shown":"Congruent","ratio_trial":300,"L_num":4,"L_den":10,"R_num":1,"R_den":10,"correct_side":1,"subjID":"DavidEstebanBallona28","gender":"0","school":"4","age":"9"},{"start_time":1552055561962,"click_time":1552055563668,"finger_time":1552055563028,"fix_duration":1053.2303245762846,"trial":24,"RT":1066,"MT":640,"sideResp":2,"stimulus":[],"xmouse":[766,766,766,766,766,766,766,766,766,766,766,766,766,766,766,766,766,766,766,766,766,766,766,766,766,766,766,766,766,766,766,766,766,766,766,766,766,766,766,766,766,766,766,766,766,766,766,766,766,766,766,766,767,775,800,817,835,852,865,876,891,895,900,902,905,916,925,936,951,973,990,996,1017,1028,1036,1044,1045,1046,1046,1047,1047,1050,1054,1061,1067,1082],"ymouse":[477,477,477,477,477,477,477,477,477,477,477,477,477,477,477,477,477,477,477,477,477,477,477,477,477,477,477,477,477,477,477,477,477,477,477,477,477,477,477,477,477,477,477,477,477,477,477,477,477,477,477,477,477,467,434,415,395,372,351,331,301,293,282,277,271,257,247,232,220,205,196,192,177,169,163,155,153,152,152,150,148,142,132,124,113,87],"timestamp_mouse":[18,27,46,67,85,105,127,146,167,186,206,227,247,265,286,305,327,346,365,386,405,427,447,466,487,505,525,547,567,587,605,625,647,667,686,705,725,746,767,786,807,827,847,867,886,907,926,945,966,986,1007,1027,1045,1066,1087,1106,1126,1146,1166,1188,1206,1226,1246,1267,1285,1305,1326,1346,1367,1388,1406,1426,1447,1466,1486,1506,1525,1546,1565,1587,1605,1626,1646,1667,1686,1706],"xSR":741.5,"ySR":469.95,"xT1":424.9,"yT1":0,"xT2":1058.1,"yT2":0,"toosoon":0,"cond_shown":"Congruent","ratio_trial":100,"L_num":12,"L_den":30,"R_num":13,"R_den":26,"correct_side":2,"subjID":"DavidEstebanBallona28","gender":"0","school":"4","age":"9"},{"start_time":1552055565059,"click_time":1552055566388,"finger_time":1552055565988,"fix_duration":250,"trial":25,"RT":929,"MT":400,"sideResp":1,"stimulus":[],"xmouse":[795,795,795,795,795,795,795,795,795,795,795,795,795,795,795,794,794,794,794,794,794,794,794,794,794,794,794,794,794,794,794,794,794,794,794,794,794,793,790,787,777,774,771,767,753,746,735,724,707,684,673,662,650,640,622,612,599,588,576,565,542,531,523,514,508,501,498],"ymouse":[558,558,558,558,558,558,558,558,558,558,558,556,556,555,555,554,553,553,553,553,553,553,553,553,553,553,553,553,553,553,553,553,553,553,553,553,553,551,547,543,532,527,523,517,492,476,457,432,398,357,338,321,303,289,257,241,219,205,190,175,148,136,126,117,110,101,98],"timestamp_mouse":[14,38,49,68,90,108,129,149,170,190,208,229,249,269,288,309,329,349,368,388,408,430,449,469,489,510,529,548,568,590,608,629,648,668,689,710,728,750,769,789,809,829,850,870,890,908,929,949,969,991,1008,1028,1049,1069,1091,1109,1128,1149,1169,1189,1209,1229,1250,1270,1289,1309,1329],"xSR":741.5,"ySR":469.95,"xT1":424.9,"yT1":0,"xT2":1058.1,"yT2":0,"toosoon":0,"cond_shown":"Incongruent","ratio_trial":300,"L_num":4,"L_den":5,"R_num":8,"R_den":16,"correct_side":1,"subjID":"DavidEstebanBallona28","gender":"0","school":"4","age":"9"},{"start_time":1552055568708,"click_time":1552055570229,"finger_time":1552055569607,"fix_duration":838.1368921154841,"trial":26,"RT":899,"MT":622,"sideResp":1,"stimulus":[],"xmouse":[801,801,801,801,801,801,801,801,801,801,801,800,799,799,799,799,799,799,799,799,799,799,799,799,799,799,799,799,799,799,799,799,799,799,798,797,794,793,789,787,785,782,779,775,774,773,772,771,769,769,767,765,763,758,757,754,754,754,751,748,744,739,728,717,714,702,694,691,687,683,675,670,658,617,592,546,505],"ymouse":[519,519,519,519,519,519,519,519,519,519,519,518,516,515,515,515,515,515,515,515,515,515,515,515,515,515,515,515,515,515,515,515,515,514,512,510,508,506,498,493,488,483,480,474,471,468,466,462,460,459,456,452,449,437,429,407,389,350,330,312,293,275,244,228,223,206,198,194,188,185,177,174,165,134,116,85,55],"timestamp_mouse":[9,19,40,59,80,99,121,141,161,179,199,221,241,260,281,299,319,340,360,380,401,421,440,459,481,500,521,540,561,581,601,620,639,659,680,700,720,740,760,781,799,820,840,860,880,899,919,941,960,981,1000,1021,1042,1060,1080,1101,1120,1141,1160,1180,1200,1219,1241,1260,1280,1300,1320,1340,1359,1382,1400,1421,1440,1460,1480,1500,1521],"xSR":741.5,"ySR":469.95,"xT1":424.9,"yT1":0,"xT2":1058.1,"yT2":0,"toosoon":0,"cond_shown":"Incongruent","ratio_trial":200,"L_num":7,"L_den":15,"R_num":4,"R_den":6,"correct_side":2,"subjID":"DavidEstebanBallona28","gender":"0","school":"4","age":"9"},{"start_time":1552055572731,"click_time":1552055573968,"finger_time":1552055573848,"fix_duration":881.9021189091659,"trial":27,"RT":1117,"MT":120,"sideResp":1,"stimulus":[],"xmouse":[774,774,774,774,774,774,774,774,774,774,774,774,774,775,775,775,775,775,775,775,775,775,775,775,775,775,775,776,776,776,776,776,776,776,776,776,776,776,776,776,776,776,776,776,776,777,778,778,778,778,778,778,778,769,756,738,692,664,640,608,522,472],"ymouse":[526,526,526,526,526,526,526,526,526,526,525,525,524,522,520,518,517,517,517,517,517,517,517,517,517,517,517,516,515,515,515,515,515,515,515,515,515,515,515,515,515,515,515,515,515,513,513,512,512,511,511,507,503,492,474,453,391,352,312,265,140,76],"timestamp_mouse":[18,43,57,78,97,117,136,158,178,197,217,238,257,276,298,318,338,356,378,397,417,437,456,478,497,516,537,558,578,597,616,636,658,678,696,716,738,758,777,798,817,838,856,877,897,917,938,958,978,996,1017,1038,1057,1078,1097,1117,1137,1156,1177,1197,1218,1237],"xSR":741.5,"ySR":469.95,"xT1":424.9,"yT1":0,"xT2":1058.1,"yT2":0,"toosoon":0,"cond_shown":"Congruent","ratio_trial":200,"L_num":16,"L_den":30,"R_num":9,"R_den":27,"correct_side":1,"subjID":"DavidEstebanBallona28","gender":"0","school":"4","age":"9"},{"start_time":1552055576270,"click_time":1552055577808,"finger_time":1552055577248,"fix_duration":1060.1280350681955,"trial":28,"RT":978,"MT":560,"sideResp":1,"stimulus":[],"xmouse":[755,755,755,755,755,755,755,755,755,755,755,755,755,755,755,755,755,755,755,755,755,755,755,755,755,755,755,755,755,755,755,755,755,755,755,755,755,755,755,755,755,755,755,755,755,755,756,751,731,703,693,684,677,672,658,653,642,633,623,592,578,564,551,541,526,520,514,511,508,507,506,504,502,499,492,488,482],"ymouse":[491,491,491,491,491,491,491,491,491,491,491,491,491,491,491,491,491,491,491,491,491,491,491,491,491,491,491,491,491,491,491,491,491,491,491,491,491,491,491,491,491,491,491,491,491,491,490,484,473,454,445,432,419,405,373,357,326,304,286,242,222,206,191,180,160,152,142,140,137,135,133,131,129,125,111,105,94],"timestamp_mouse":[19,46,59,79,97,118,139,159,177,197,218,239,257,279,297,318,339,357,378,398,417,438,457,477,499,519,537,557,577,598,619,638,658,678,699,717,737,757,779,799,818,839,858,879,898,918,937,959,978,998,1019,1038,1058,1080,1097,1118,1138,1157,1178,1197,1219,1239,1258,1278,1299,1318,1338,1358,1377,1397,1418,1438,1459,1478,1499,1518,1538],"xSR":741.5,"ySR":469.95,"xT1":424.9,"yT1":0,"xT2":1058.1,"yT2":0,"toosoon":0,"cond_shown":"Congruent","ratio_trial":100,"L_num":4,"L_den":10,"R_num":15,"R_den":30,"correct_side":2,"subjID":"DavidEstebanBallona28","gender":"0","school":"4","age":"9"},{"start_time":1552055580153,"click_time":1552055581728,"finger_time":1552055580807,"fix_duration":722.7128771279266,"trial":29,"RT":654,"MT":921,"sideResp":2,"stimulus":[],"xmouse":[783,783,783,783,783,783,783,783,783,783,783,784,785,788,788,790,791,791,791,791,791,791,791,791,791,791,791,791,791,791,791,790,790,790,790,790,789,789,789,789,789,789,789,789,789,789,789,789,789,789,789,789,793,802,820,831,841,853,870,906,925,944,972,990,1023,1036,1046,1053,1058,1061,1061,1061,1061,1061,1061,1061,1062,1064,1067],"ymouse":[490,490,490,490,490,490,490,490,490,490,490,490,490,487,486,483,481,480,480,480,480,480,478,477,477,476,476,475,475,473,470,470,469,469,469,469,468,468,468,468,468,468,468,468,468,468,468,468,468,468,468,468,464,455,433,421,405,390,370,323,297,270,229,203,157,139,125,115,108,103,102,102,102,102,102,102,101,100,99],"timestamp_mouse":[20,37,54,74,94,115,135,154,174,195,215,236,255,274,294,316,335,354,374,396,416,434,454,476,496,515,535,556,575,595,615,635,654,675,695,715,735,755,774,796,815,836,855,876,896,915,935,955,976,994,1015,1036,1054,1075,1096,1115,1135,1155,1175,1197,1215,1236,1256,1274,1296,1314,1335,1354,1374,1396,1415,1435,1454,1475,1496,1515,1535,1556,1575],"xSR":741.5,"ySR":469.95,"xT1":424.9,"yT1":0,"xT2":1058.1,"yT2":0,"toosoon":0,"cond_shown":"Incongruent","ratio_trial":100,"L_num":8,"L_den":20,"R_num":1,"R_den":2,"correct_side":2,"subjID":"DavidEstebanBallona28","gender":"0","school":"4","age":"9"},{"start_time":1552055584397,"click_time":1552055586088,"finger_time":1552055585609,"fix_duration":1127.3567787344753,"trial":30,"RT":1212,"MT":479,"sideResp":2,"stimulus":[],"xmouse":[795,795,795,795,795,795,795,795,795,795,795,795,795,795,795,795,795,795,795,795,795,795,795,795,795,795,795,795,795,795,795,795,795,795,795,795,795,795,795,795,795,795,795,795,795,795,795,795,795,795,795,795,795,795,795,795,795,795,800,806,808,810,813,814,814,818,823,848,868,899,976,1023,1086,1102,1113,1119,1124,1128,1133,1136,1137,1139,1141,1142,1143],"ymouse":[495,495,495,495,495,495,495,495,495,495,495,495,495,495,495,495,495,495,495,495,495,495,495,495,495,495,495,495,495,495,495,495,495,495,495,495,495,495,495,495,495,495,495,495,495,495,495,495,495,495,495,495,495,495,495,495,493,489,479,470,465,462,458,458,457,453,448,427,411,385,332,298,241,220,200,186,173,163,150,141,136,131,116,108,97],"timestamp_mouse":[11,49,51,72,92,111,131,152,170,191,211,231,250,271,291,310,330,350,372,392,412,432,451,471,491,512,531,550,571,591,611,632,650,671,691,711,731,752,771,791,812,831,852,871,891,911,931,952,972,992,1011,1032,1050,1070,1091,1112,1130,1151,1170,1192,1212,1231,1253,1270,1292,1311,1330,1352,1371,1392,1411,1431,1452,1471,1492,1511,1531,1550,1570,1591,1612,1631,1652,1670,1691],"xSR":741.5,"ySR":469.95,"xT1":424.9,"yT1":0,"xT2":1058.1,"yT2":0,"toosoon":0,"cond_shown":"Incongruent","ratio_trial":100,"L_num":13,"L_den":26,"R_num":12,"R_den":20,"correct_side":2,"subjID":"DavidEstebanBallona28","gender":"0","school":"4","age":"9"},{"start_time":1552055589901,"click_time":1552055591328,"finger_time":1552055590649,"fix_duration":970.8672268479172,"trial":31,"RT":748,"MT":679,"sideResp":1,"stimulus":[],"xmouse":[770,770,770,770,770,770,770,770,770,770,770,770,770,770,770,770,770,770,770,770,770,770,770,770,770,770,770,770,770,770,770,770,770,770,770,763,747,678,632,585,518,458,367,355,349,342,339,337,335,335,335,335,335,335,335,340,348,354,367,373,375,378,379,380,381,382,384,391,401,413,423,430],"ymouse":[510,510,510,510,510,510,510,510,510,510,510,510,510,510,510,510,510,510,510,510,510,510,510,510,510,510,510,510,510,510,510,510,510,510,510,506,492,439,412,385,347,305,226,203,185,165,155,149,145,144,144,144,144,144,143,140,137,135,129,125,124,120,116,112,109,107,103,95,89,81,74,69],"timestamp_mouse":[13,35,48,66,88,106,126,148,166,187,207,228,248,268,287,307,327,347,367,386,408,428,448,466,486,508,526,546,567,588,608,628,646,666,686,708,728,748,767,787,806,827,849,867,888,907,928,947,967,987,1007,1027,1048,1066,1087,1107,1127,1147,1167,1187,1208,1228,1247,1266,1287,1307,1327,1349,1367,1387,1408,1427],"xSR":741.5,"ySR":469.95,"xT1":424.9,"yT1":0,"xT2":1058.1,"yT2":0,"toosoon":0,"cond_shown":"Congruent","ratio_trial":200,"L_num":12,"L_den":15,"R_num":6,"R_den":10,"correct_side":1,"subjID":"DavidEstebanBallona28","gender":"0","school":"4","age":"9"},{"start_time":1552055594839,"click_time":1552055596569,"finger_time":1552055596007,"fix_duration":250,"trial":32,"RT":1168,"MT":562,"sideResp":2,"stimulus":[],"xmouse":[776,776,776,776,776,776,776,776,776,776,776,776,776,776,776,776,776,776,776,776,776,776,776,776,776,776,776,776,776,776,776,776,776,776,776,776,776,776,776,776,776,776,776,776,776,776,776,776,776,776,776,776,776,776,778,801,819,839,845,848,852,855,860,865,871,878,903,927,944,961,977,1009,1021,1034,1045,1059,1062,1067,1069,1075,1079,1084,1087,1090,1094,1099,1112],"ymouse":[509,509,509,509,509,509,509,509,509,509,509,509,509,509,509,509,509,509,509,509,509,509,509,509,509,509,509,509,509,509,509,509,509,509,509,509,509,509,509,509,509,509,509,509,509,509,509,509,509,509,509,509,509,509,509,509,507,498,494,492,484,479,471,462,450,437,400,365,343,319,295,251,231,214,199,178,172,163,159,151,145,139,134,130,122,113,94],"timestamp_mouse":[10,43,49,68,88,108,128,150,168,188,210,230,250,269,289,309,330,350,369,388,410,428,448,470,488,508,530,549,569,589,608,630,649,669,689,709,729,750,769,788,809,829,850,870,889,910,930,949,969,989,1009,1029,1049,1070,1088,1110,1128,1150,1168,1190,1210,1228,1249,1269,1289,1309,1329,1349,1368,1388,1408,1428,1450,1469,1488,1511,1528,1549,1570,1589,1609,1629,1649,1669,1690,1710,1730],"xSR":741.5,"ySR":469.95,"xT1":424.9,"yT1":0,"xT2":1058.1,"yT2":0,"toosoon":0,"cond_shown":"Incongruent","ratio_trial":200,"L_num":9,"L_den":15,"R_num":8,"R_den":10,"correct_side":2,"subjID":"DavidEstebanBallona28","gender":"0","school":"4","age":"9"},{"start_time":1552055598849,"click_time":1552055600767,"finger_time":1552055600189,"fix_duration":898.959684551486,"trial":33,"RT":1340,"MT":578,"sideResp":2,"stimulus":[],"xmouse":[815,815,815,815,815,815,815,815,815,815,815,815,815,815,815,815,815,815,815,815,815,815,815,815,815,815,815,815,815,815,815,815,815,815,815,815,815,815,815,815,815,815,815,815,815,815,815,815,815,815,815,815,815,815,815,815,815,815,817,818,818,822,822,824,825,830,833,838,850,859,869,903,925,949,968,980,998,1005,1012,1014,1016,1018,1020,1021,1023,1026,1032,1038,1043,1047,1057,1062,1068,1071,1078,1084,1093],"ymouse":[491,491,491,491,491,491,491,491,491,491,491,491,491,491,491,491,491,491,491,491,491,491,491,491,491,491,491,491,491,491,491,491,491,491,491,491,491,491,491,491,491,491,491,491,491,491,491,491,491,491,491,491,491,491,491,491,491,490,490,489,488,486,485,484,483,477,474,467,451,440,424,384,358,329,304,285,251,240,227,224,220,216,213,212,208,205,194,182,174,166,149,141,132,123,112,101,82],"timestamp_mouse":[2,20,40,60,79,98,119,139,160,180,198,218,239,259,280,299,320,340,360,378,400,419,438,460,479,498,520,540,560,580,600,619,639,659,679,700,719,739,759,780,799,819,839,860,880,899,920,939,960,980,999,1019,1040,1059,1079,1100,1120,1139,1160,1179,1198,1219,1240,1260,1280,1299,1320,1340,1360,1379,1398,1419,1439,1459,1478,1498,1519,1539,1560,1578,1600,1619,1639,1659,1679,1698,1718,1739,1758,1778,1801,1818,1839,1859,1879,1899,1918],"xSR":741.5,"ySR":469.95,"xT1":424.9,"yT1":0,"xT2":1058.1,"yT2":0,"toosoon":0,"cond_shown":"Congruent","ratio_trial":100,"L_num":7,"L_den":14,"R_num":15,"R_den":25,"correct_side":2,"subjID":"DavidEstebanBallona28","gender":"0","school":"4","age":"9"},{"start_time":1552055603566,"click_time":1552055605867,"finger_time":1552055605128,"fix_duration":1254.0604476557855,"trial":34,"RT":1562,"MT":739,"sideResp":1,"stimulus":[],"xmouse":[798,798,798,798,798,798,798,798,798,798,798,798,798,798,798,798,798,798,798,798,798,798,798,798,798,798,798,798,798,798,798,798,798,798,798,798,798,798,798,798,798,798,798,798,798,798,798,798,798,798,798,798,798,798,798,798,798,798,798,798,798,798,798,798,798,798,798,798,798,798,798,795,792,791,788,787,784,782,778,771,756,751,740,735,729,720,713,703,700,695,683,676,667,659,653,643,635,629,622,616,601,598,589,583,576,564,559,555,550,544,540,538,534,532,529,517],"ymouse":[491,491,491,491,491,491,491,491,491,491,491,491,491,491,491,491,491,491,491,491,491,491,491,491,491,491,491,491,491,491,491,491,491,491,491,491,491,491,491,491,491,491,491,491,491,491,491,491,491,491,491,491,491,491,490,490,490,490,490,490,490,490,490,490,490,490,490,490,490,490,490,489,486,485,482,479,475,470,463,452,431,422,410,402,395,384,375,362,358,349,333,322,309,300,294,279,268,257,245,234,205,198,183,171,162,142,136,130,123,117,114,113,111,108,104,91],"timestamp_mouse":[9,23,43,62,82,101,123,142,161,182,203,223,242,262,282,302,322,342,361,382,403,421,442,461,482,501,523,542,562,581,601,623,641,662,681,703,721,743,762,782,802,822,841,861,881,902,923,941,962,982,1001,1021,1043,1062,1082,1102,1125,1141,1161,1181,1202,1222,1242,1263,1281,1302,1323,1341,1361,1383,1401,1422,1443,1461,1482,1503,1522,1542,1562,1581,1601,1621,1642,1662,1681,1701,1723,1746,1762,1782,1802,1821,1841,1861,1883,1902,1922,1942,1961,1983,2001,2022,2042,2061,2082,2103,2121,2142,2162,2183,2201,2221,2243,2261,2282,2301],"xSR":741.5,"ySR":469.95,"xT1":424.9,"yT1":0,"xT2":1058.1,"yT2":0,"toosoon":0,"cond_shown":"Incongruent","ratio_trial":200,"L_num":1,"L_den":3,"R_num":2,"R_den":15,"correct_side":1,"subjID":"DavidEstebanBallona28","gender":"0","school":"4","age":"9"},{"start_time":1552055608663,"click_time":1552055611649,"finger_time":1552055611408,"fix_duration":1275.1444440509927,"trial":35,"RT":2745,"MT":241,"sideResp":2,"stimulus":[],"xmouse":[773,773,773,773,773,773,773,773,773,773,773,772,772,772,772,772,772,772,772,772,772,772,772,772,772,772,772,772,772,772,772,772,772,772,772,772,772,772,772,772,772,772,772,772,772,772,772,772,772,772,772,772,772,772,772,772,772,772,772,772,772,772,772,772,772,772,772,772,772,772,772,772,772,772,772,772,772,772,772,772,772,772,772,772,772,772,772,772,772,772,772,772,772,772,772,772,772,772,772,772,772,772,772,772,772,772,772,772,772,772,772,772,772,772,772,772,772,772,772,772,772,772,772,772,772,772,772,772,772,773,774,774,775,777,782,786,795,817,851,894,962,991,1010,1028,1044,1068,1079,1093,1101,1114],"ymouse":[530,528,528,527,527,526,526,526,525,524,524,524,524,524,524,524,524,524,524,524,524,524,524,524,524,524,524,524,524,524,524,524,524,524,524,524,524,524,524,524,524,524,524,524,524,524,524,524,524,524,524,524,524,524,524,524,524,524,524,524,524,524,524,524,524,524,524,524,524,524,524,524,524,524,524,524,524,524,524,524,524,524,524,524,524,524,524,524,524,524,524,524,524,524,523,523,523,523,523,523,523,523,523,523,523,523,523,523,523,523,523,523,523,523,523,523,523,523,523,523,523,523,523,523,523,523,523,523,521,521,519,517,516,513,505,498,486,457,419,373,297,262,235,209,188,156,146,130,119,99],"timestamp_mouse":[13,38,45,65,86,104,125,144,166,184,205,225,244,264,286,305,324,345,366,385,404,425,444,465,484,504,524,546,564,586,605,624,645,664,684,704,725,744,764,786,804,824,845,864,885,906,924,945,966,984,1004,1025,1045,1064,1084,1105,1124,1145,1164,1184,1205,1224,1245,1265,1285,1305,1324,1344,1366,1384,1404,1424,1444,1464,1485,1506,1526,1545,1564,1585,1604,1624,1646,1665,1684,1705,1724,1745,1766,1786,1805,1826,1846,1865,1885,1904,1924,1945,1964,1985,2004,2024,2045,2064,2085,2106,2124,2144,2164,2186,2205,2225,2246,2265,2284,2305,2325,2344,2365,2385,2404,2424,2446,2464,2485,2505,2525,2546,2565,2584,2605,2625,2645,2665,2686,2704,2726,2745,2765,2786,2804,2824,2845,2865,2885,2905,2924,2945,2964,2986],"xSR":741.5,"ySR":469.95,"xT1":424.9,"yT1":0,"xT2":1058.1,"yT2":0,"toosoon":0,"cond_shown":"Congruent","ratio_trial":100,"L_num":3,"L_den":20,"R_num":4,"R_den":16,"correct_side":2,"subjID":"DavidEstebanBallona28","gender":"0","school":"4","age":"9"},{"start_time":1552055613458,"click_time":1552055615807,"finger_time":1552055614567,"fix_duration":470.8477331522483,"trial":36,"RT":1109,"MT":1240,"sideResp":2,"stimulus":[],"xmouse":[790,790,790,790,790,790,790,790,790,790,790,790,790,790,790,790,790,790,790,790,790,790,790,790,790,790,790,790,790,790,790,790,790,790,790,790,790,790,790,790,790,790,790,790,790,790,790,791,791,793,796,799,801,805,810,820,826,833,836,839,844,846,846,846,846,846,846,846,846,846,846,846,846,846,846,846,846,847,848,848,850,851,851,853,858,861,863,868,874,879,893,901,906,912,921,923,924,924,925,925,925,925,925,926,937,943,957,974,983,1004,1012,1021,1029,1035,1041,1050,1054,1061],"ymouse":[517,517,517,517,517,517,517,517,517,517,517,517,517,517,517,517,517,517,517,517,517,517,517,517,517,517,517,517,517,517,517,517,517,517,517,517,517,517,517,517,517,517,517,517,517,517,517,515,514,511,503,497,491,481,470,445,435,419,407,398,385,381,379,378,378,378,378,378,378,378,378,378,378,378,378,378,378,378,377,376,374,372,367,362,342,324,317,296,278,261,224,207,191,178,161,156,155,152,150,150,150,150,150,149,146,144,138,125,116,91,81,68,58,50,43,34,30,25],"timestamp_mouse":[12,37,49,71,91,110,129,150,171,190,211,230,250,271,289,309,329,350,369,389,410,429,449,470,491,510,529,551,569,590,611,630,650,670,689,709,730,749,771,790,810,831,849,870,890,911,929,949,971,989,1009,1029,1050,1071,1090,1109,1130,1150,1170,1189,1209,1229,1250,1269,1291,1310,1331,1350,1370,1390,1409,1429,1450,1469,1489,1509,1530,1550,1570,1591,1609,1630,1650,1669,1691,1709,1730,1751,1770,1789,1809,1829,1849,1870,1891,1909,1930,1949,1969,1991,2009,2030,2050,2069,2092,2109,2130,2149,2170,2191,2210,2230,2250,2270,2290,2310,2331,2349],"xSR":741.5,"ySR":469.95,"xT1":424.9,"yT1":0,"xT2":1058.1,"yT2":0,"toosoon":0,"cond_shown":"Incongruent","ratio_trial":100,"L_num":9,"L_den":10,"R_num":20,"R_den":25,"correct_side":1,"subjID":"DavidEstebanBallona28","gender":"0","school":"4","age":"9"},{"start_time":1552055617872,"click_time":1552055619547,"finger_time":1552055618728,"fix_duration":483.2959517940922,"trial":37,"RT":856,"MT":819,"sideResp":1,"stimulus":[],"xmouse":[788,788,788,788,788,788,788,787,787,785,784,783,783,781,780,778,776,776,776,774,774,774,773,773,773,773,773,773,773,773,773,773,773,773,773,773,773,773,773,773,772,770,766,764,761,760,757,756,751,749,747,744,739,735,727,719,714,707,699,681,669,658,646,620,609,597,592,590,589,584,580,576,573,566,558,551,545,540,537,533,531,530,527,522],"ymouse":[543,543,543,543,543,543,542,541,540,537,534,532,530,525,522,518,515,513,512,509,509,508,507,507,507,507,507,507,507,507,507,507,507,507,507,507,507,507,506,500,490,476,458,441,408,385,370,359,340,332,325,317,307,299,278,264,256,245,235,209,193,177,157,120,105,87,80,78,77,75,73,72,70,69,68,68,68,68,68,67,67,67,67,67],"timestamp_mouse":[15,49,56,75,97,116,135,156,175,196,216,236,255,277,296,316,335,355,375,395,415,435,456,475,495,515,536,557,575,597,615,636,655,675,695,715,735,756,776,795,817,836,856,875,896,915,935,956,976,995,1016,1036,1055,1076,1097,1115,1135,1155,1175,1195,1216,1236,1256,1277,1296,1317,1335,1355,1375,1395,1416,1435,1457,1477,1495,1515,1536,1555,1575,1596,1616,1635,1655,1675],"xSR":741.5,"ySR":469.95,"xT1":424.9,"yT1":0,"xT2":1058.1,"yT2":0,"toosoon":0,"cond_shown":"Congruent","ratio_trial":300,"L_num":20,"L_den":25,"R_num":14,"R_den":28,"correct_side":1,"subjID":"DavidEstebanBallona28","gender":"0","school":"4","age":"9"},{"start_time":1552055621907,"click_time":1552055624987,"finger_time":1552055623428,"fix_duration":1276.815508341646,"trial":38,"RT":1521,"MT":1559,"sideResp":2,"stimulus":[],"xmouse":[816,816,816,816,816,816,816,816,816,816,816,816,816,816,816,816,816,816,816,816,816,816,816,816,816,816,816,816,816,816,816,816,816,816,816,816,816,816,816,816,816,816,816,816,816,816,816,816,816,816,816,816,816,816,816,816,816,816,816,815,815,815,815,814,814,813,813,812,811,811,810,810,810,809,809,809,809,811,822,830,838,845,858,865,871,881,885,900,909,919,929,940,950,969,985,996,1004,1014,1032,1036,1040,1043,1044,1044,1044,1044,1044,1044,1044,1044,1044,1044,1044,1044,1044,1044,1044,1044,1044,1044,1044,1044,1044,1044,1044,1044,1044,1044,1044,1044,1044,1044,1044,1044,1044,1044,1044,1044,1044,1044,1044,1044,1044,1044,1044,1044,1044,1044,1044,1044,1044,1044,1044,1044,1061],"ymouse":[523,523,523,523,523,523,523,523,523,523,523,523,523,523,523,523,523,523,523,523,523,523,523,523,523,523,523,523,523,523,523,523,523,523,523,523,523,523,523,523,523,523,523,523,523,523,523,523,523,523,523,523,523,523,523,523,523,523,523,522,520,519,518,517,517,515,514,511,508,507,505,501,498,491,486,476,466,453,417,395,369,345,305,289,276,259,252,232,221,207,193,178,163,134,113,101,90,79,60,55,52,50,49,49,49,49,49,49,49,49,49,49,49,49,49,49,49,49,49,49,49,49,49,49,49,49,49,49,49,49,49,49,49,49,49,49,49,49,49,49,49,49,49,49,49,49,49,49,49,49,49,49,49,49,49],"timestamp_mouse":[9,21,41,61,80,102,121,140,160,181,202,220,241,261,280,302,321,340,360,381,400,421,441,461,482,501,520,540,561,582,601,620,640,660,680,701,720,741,762,781,801,821,841,860,880,900,920,942,961,982,1001,1020,1041,1061,1080,1101,1122,1140,1161,1181,1200,1221,1242,1260,1281,1300,1320,1342,1361,1380,1401,1420,1441,1461,1481,1501,1521,1542,1560,1580,1601,1620,1642,1660,1681,1701,1721,1742,1761,1781,1801,1821,1840,1860,1880,1900,1921,1940,1961,1981,2000,2020,2043,2061,2081,2101,2121,2142,2161,2180,2201,2220,2241,2262,2281,2300,2321,2340,2361,2381,2400,2422,2442,2460,2480,2500,2522,2542,2561,2580,2601,2622,2642,2661,2680,2700,2721,2740,2761,2781,2800,2821,2842,2861,2881,2900,2921,2940,2961,2980,3001,3020,3041,3061,3080],"xSR":741.5,"ySR":469.95,"xT1":424.9,"yT1":0,"xT2":1058.1,"yT2":0,"toosoon":0,"cond_shown":"Incongruent","ratio_trial":100,"L_num":6,"L_den":12,"R_num":3,"R_den":5,"correct_side":2,"subjID":"DavidEstebanBallona28","gender":"0","school":"4","age":"9"},{"start_time":1552055627319,"click_time":1552055628969,"finger_time":1552055628427,"fix_duration":909.3030211310574,"trial":39,"RT":1108,"MT":542,"sideResp":1,"stimulus":[],"xmouse":[778,778,778,778,778,778,778,778,778,778,778,778,778,778,778,778,778,778,778,778,778,778,778,778,778,778,778,778,778,778,778,778,778,778,778,778,778,778,778,778,778,778,778,778,778,778,778,778,779,779,778,777,772,768,763,759,757,749,744,738,730,711,701,691,676,668,656,650,647,644,641,628,620,613,597,582,549,533,520,509,501,494,484],"ymouse":[517,517,517,517,517,517,517,517,517,517,517,517,517,517,517,517,517,517,517,517,517,517,517,517,517,517,517,517,517,517,517,517,517,517,517,517,517,517,517,517,517,517,517,517,517,517,517,517,517,516,514,510,498,490,477,468,460,441,429,414,394,350,328,306,277,261,239,232,227,224,219,204,195,186,170,159,140,132,123,117,111,105,96],"timestamp_mouse":[12,31,48,69,88,110,129,149,168,188,209,230,248,270,288,308,329,350,368,389,409,430,450,468,488,509,528,548,568,589,610,628,649,668,688,709,729,749,770,790,809,828,849,870,888,909,930,950,969,989,1008,1028,1048,1069,1088,1108,1128,1148,1168,1188,1208,1230,1249,1269,1288,1309,1330,1348,1368,1388,1408,1430,1448,1470,1489,1510,1530,1548,1569,1589,1609,1630,1650],"xSR":741.5,"ySR":469.95,"xT1":424.9,"yT1":0,"xT2":1058.1,"yT2":0,"toosoon":0,"cond_shown":"Incongruent","ratio_trial":300,"L_num":4,"L_den":5,"R_num":6,"R_den":12,"correct_side":1,"subjID":"DavidEstebanBallona28","gender":"0","school":"4","age":"9"},{"start_time":1552055631603,"click_time":1552055633467,"finger_time":1552055632988,"fix_duration":674.3572702249031,"trial":40,"RT":1385,"MT":479,"sideResp":2,"stimulus":[],"xmouse":[764,764,764,764,764,764,764,764,764,764,765,767,771,772,773,774,775,776,777,778,779,780,780,780,780,780,780,780,780,780,780,780,780,780,780,780,780,780,780,780,780,780,780,780,780,780,780,780,780,780,780,780,780,780,780,780,780,780,780,780,780,780,780,780,780,780,780,782,792,808,824,845,889,911,924,932,937,940,945,950,960,968,985,992,997,1002,1004,1007,1016,1024,1036,1048,1061,1091],"ymouse":[483,483,483,483,483,483,483,483,483,483,483,483,483,483,483,483,483,483,483,483,483,483,483,483,483,483,483,483,483,483,483,483,483,483,483,483,483,483,483,483,483,483,483,483,483,483,483,483,483,483,483,483,483,483,483,483,483,483,483,483,483,483,483,483,483,483,483,483,475,456,437,417,366,340,321,311,305,300,294,288,278,268,242,232,224,218,213,209,197,189,174,160,140,88],"timestamp_mouse":[13,24,47,65,85,105,126,144,165,186,204,225,246,264,285,306,324,345,364,385,406,424,445,466,484,505,524,546,566,584,605,625,646,665,685,705,725,744,766,785,806,825,844,865,884,904,925,945,965,984,1004,1024,1045,1064,1086,1105,1125,1145,1165,1184,1206,1225,1246,1266,1285,1305,1324,1345,1364,1385,1405,1424,1446,1464,1484,1504,1525,1546,1564,1585,1605,1624,1645,1664,1685,1705,1725,1746,1764,1785,1805,1825,1844,1864],"xSR":741.5,"ySR":469.95,"xT1":424.9,"yT1":0,"xT2":1058.1,"yT2":0,"toosoon":0,"cond_shown":"Incongruent","ratio_trial":100,"L_num":8,"L_den":16,"R_num":6,"R_den":10,"correct_side":2,"subjID":"DavidEstebanBallona28","gender":"0","school":"4","age":"9"},{"start_time":1552055635399,"click_time":1552055637167,"finger_time":1552055636868,"fix_duration":268.68255854850264,"trial":41,"RT":1469,"MT":299,"sideResp":1,"stimulus":[],"xmouse":[805,805,805,805,804,804,803,802,802,802,802,802,802,802,802,802,802,802,801,801,799,799,799,798,796,796,796,796,796,796,796,796,796,796,796,796,796,796,796,796,796,796,796,796,796,796,796,796,796,796,796,796,796,796,795,794,789,776,765,750,746,746,746,746,746,746,746,746,746,746,746,746,743,733,719,707,693,666,643,633,609,587,547,525,514,504,500,497,496],"ymouse":[485,485,485,485,485,485,486,486,486,486,487,487,487,487,487,487,487,487,488,488,488,488,488,489,489,489,489,489,489,489,489,489,489,489,489,489,489,489,489,489,489,489,489,489,489,489,489,489,489,489,489,489,489,489,489,489,489,489,489,489,489,489,489,489,489,489,489,489,489,489,489,489,488,477,466,454,438,399,367,354,318,285,214,177,151,132,118,103,98],"timestamp_mouse":[12,35,49,68,88,109,128,150,169,189,208,229,248,268,289,310,328,349,368,389,409,429,449,468,490,509,529,550,570,588,609,629,649,670,689,710,729,750,768,789,809,829,850,868,889,908,930,949,969,989,1009,1028,1049,1070,1089,1109,1128,1150,1170,1189,1209,1229,1249,1270,1290,1309,1328,1349,1368,1389,1410,1429,1448,1469,1488,1509,1528,1549,1568,1589,1609,1629,1650,1668,1690,1708,1728,1750,1768],"xSR":741.5,"ySR":469.95,"xT1":424.9,"yT1":0,"xT2":1058.1,"yT2":0,"toosoon":0,"cond_shown":"Incongruent","ratio_trial":300,"L_num":8,"L_den":10,"R_num":14,"R_den":28,"correct_side":1,"subjID":"DavidEstebanBallona28","gender":"0","school":"4","age":"9"},{"start_time":1552055639933,"click_time":1552055642448,"finger_time":1552055641648,"fix_duration":982.8690244719252,"trial":42,"RT":1715,"MT":800,"sideResp":2,"stimulus":[],"xmouse":[787,787,787,787,787,787,787,787,787,787,787,787,787,787,787,787,787,787,787,787,787,787,787,787,787,787,787,787,787,787,787,787,787,787,787,787,787,787,787,787,787,787,787,787,787,787,787,787,787,787,787,787,787,787,787,787,787,787,787,787,787,787,787,787,787,787,787,787,787,787,787,787,787,787,787,787,787,787,787,788,789,795,798,800,802,818,830,843,857,867,878,898,907,921,930,942,949,957,964,971,975,983,988,991,993,996,998,1000,1003,1008,1014,1029,1034,1036,1037,1037,1039,1040,1041,1043,1046,1051,1052,1054,1057,1060],"ymouse":[498,498,498,498,498,498,498,498,498,498,498,498,498,498,498,498,498,498,498,498,498,498,498,498,498,498,498,498,498,498,498,498,498,498,498,498,498,498,498,498,498,498,498,498,498,498,498,498,498,498,498,498,498,498,498,498,498,498,498,498,498,498,498,498,498,498,498,498,498,498,498,498,498,498,498,498,498,498,498,498,496,488,484,483,480,469,457,444,426,413,397,368,353,329,314,286,270,251,233,215,202,178,167,162,156,150,147,144,139,133,126,111,104,101,100,100,97,97,94,93,90,84,81,78,75,73],"timestamp_mouse":[15,40,54,74,94,115,136,155,175,196,216,235,255,276,294,314,335,356,376,395,414,434,456,476,495,516,534,554,575,595,615,636,656,675,694,716,735,756,774,795,815,835,855,876,895,914,935,955,975,994,1016,1035,1054,1076,1096,1115,1135,1156,1176,1195,1215,1234,1256,1275,1296,1314,1334,1356,1374,1394,1415,1435,1454,1475,1494,1515,1536,1555,1575,1596,1615,1635,1662,1674,1694,1715,1734,1754,1774,1795,1816,1835,1854,1874,1895,1916,1934,1955,1975,1995,2016,2036,2055,2074,2095,2116,2134,2154,2174,2195,2214,2234,2254,2285,2296,2316,2336,2354,2374,2395,2416,2434,2455,2475,2495,2515],"xSR":741.5,"ySR":469.95,"xT1":424.9,"yT1":0,"xT2":1058.1,"yT2":0,"toosoon":0,"cond_shown":"Incongruent","ratio_trial":200,"L_num":14,"L_den":30,"R_num":6,"R_den":9,"correct_side":2,"subjID":"DavidEstebanBallona28","gender":"0","school":"4","age":"9"},{"start_time":1552055644520,"click_time":1552055646267,"finger_time":1552055645948,"fix_duration":250,"trial":43,"RT":1428,"MT":319,"sideResp":1,"stimulus":[],"xmouse":[787,787,787,787,787,787,787,783,783,783,783,783,783,783,783,783,783,783,783,783,783,783,783,783,783,783,783,783,783,783,783,783,783,783,783,783,783,783,783,783,783,783,783,783,783,783,783,783,783,783,783,783,783,783,783,783,783,783,783,783,783,783,783,783,783,783,783,783,779,772,751,727,685,671,652,639,615,605,599,591,580,566,536,531,528,527,527,520],"ymouse":[552,552,552,552,552,552,552,558,558,558,558,558,558,558,558,558,558,558,558,558,558,558,558,558,558,558,558,558,558,558,558,558,558,558,558,558,558,558,558,558,558,558,558,558,558,558,558,558,558,558,558,558,558,558,558,558,558,558,558,558,558,558,558,558,558,558,558,558,551,530,492,440,324,275,207,168,117,104,97,90,82,74,55,51,50,50,50,48],"timestamp_mouse":[9,36,48,68,89,107,127,147,167,189,207,227,247,268,289,308,328,347,368,389,407,428,447,467,489,507,527,549,569,587,608,628,649,667,688,707,727,749,768,788,808,829,849,868,888,907,927,948,967,989,1008,1028,1048,1069,1087,1108,1128,1148,1167,1188,1208,1229,1249,1269,1288,1308,1328,1349,1367,1388,1408,1428,1448,1468,1487,1508,1529,1547,1567,1589,1608,1627,1647,1667,1689,1708,1729,1747],"xSR":741.5,"ySR":469.95,"xT1":424.9,"yT1":0,"xT2":1058.1,"yT2":0,"toosoon":0,"cond_shown":"Incongruent","ratio_trial":100,"L_num":3,"L_den":9,"R_num":7,"R_den":30,"correct_side":1,"subjID":"DavidEstebanBallona28","gender":"0","school":"4","age":"9"},{"start_time":1552055648544,"click_time":1552055649928,"finger_time":1552055649509,"fix_duration":494.90332098181267,"trial":44,"RT":965,"MT":419,"sideResp":2,"stimulus":[],"xmouse":[781,781,781,781,781,781,781,781,781,781,781,781,781,781,781,781,781,781,781,781,781,781,781,781,781,781,781,781,781,781,781,781,781,781,781,781,781,781,781,781,781,781,781,781,781,781,781,785,789,801,838,855,867,883,893,905,911,915,921,925,928,937,942,953,958,980,997,1018,1052,1080],"ymouse":[479,479,479,479,479,479,479,479,479,479,479,479,479,479,479,479,479,479,479,479,479,479,479,479,479,479,479,479,479,479,479,479,479,479,479,479,479,479,479,479,479,479,479,479,479,479,479,476,468,450,400,377,361,334,317,291,281,271,261,254,248,236,229,216,209,181,162,138,98,64],"timestamp_mouse":[9,23,43,64,84,103,124,144,164,183,205,224,243,264,284,304,325,345,365,384,403,424,443,463,485,505,524,543,564,584,604,623,643,665,684,703,724,743,764,784,805,823,843,864,883,904,924,943,965,985,1007,1023,1044,1064,1084,1105,1123,1144,1164,1184,1204,1225,1243,1263,1284,1305,1323,1343,1363,1383],"xSR":741.5,"ySR":469.95,"xT1":424.9,"yT1":0,"xT2":1058.1,"yT2":0,"toosoon":0,"cond_shown":"Incongruent","ratio_trial":300,"L_num":13,"L_den":26,"R_num":12,"R_den":15,"correct_side":2,"subjID":"DavidEstebanBallona28","gender":"0","school":"4","age":"9"},{"start_time":1552055651731,"click_time":1552055654049,"finger_time":1552055653327,"fix_duration":741.3239716514372,"trial":45,"RT":1596,"MT":722,"sideResp":2,"stimulus":[],"xmouse":[803,803,803,803,803,799,798,797,797,797,797,797,797,797,797,797,797,797,797,797,797,797,797,797,797,797,797,797,797,797,797,797,797,797,797,797,797,797,797,797,797,797,797,797,797,797,797,797,797,797,797,797,797,797,797,797,797,797,797,797,797,797,797,797,797,797,797,797,797,797,797,797,797,797,797,801,805,810,815,820,832,837,843,853,860,867,884,896,915,934,955,993,1005,1024,1029,1036,1042,1044,1044,1044,1044,1044,1044,1044,1044,1044,1044,1044,1044,1044,1045,1049,1051,1054,1056,1060],"ymouse":[519,519,519,519,520,519,519,518,518,518,518,518,518,518,518,518,518,518,518,518,518,518,518,518,518,518,518,518,518,518,518,518,518,518,518,518,518,518,518,518,518,518,518,518,518,518,518,518,518,518,518,518,518,518,518,518,518,518,518,518,518,518,518,518,518,518,518,518,518,518,518,518,518,518,516,506,496,486,474,461,436,423,410,392,380,370,347,331,312,288,258,183,158,113,93,73,50,46,43,43,43,43,43,43,43,43,43,43,43,43,43,43,43,43,43,43],"timestamp_mouse":[17,40,57,78,97,117,136,156,177,198,216,236,256,278,298,316,337,358,376,397,417,438,456,476,497,517,538,557,576,597,616,637,657,678,697,717,736,758,777,796,818,836,856,876,897,917,938,956,976,998,1018,1037,1057,1076,1097,1117,1137,1156,1177,1197,1216,1237,1258,1276,1296,1318,1337,1357,1378,1396,1416,1436,1458,1476,1496,1517,1536,1557,1576,1596,1619,1636,1656,1677,1698,1716,1736,1756,1776,1798,1817,1837,1857,1877,1897,1917,1936,1956,1977,1998,2018,2036,2056,2077,2096,2117,2138,2157,2177,2196,2216,2238,2258,2277,2296,2317],"xSR":741.5,"ySR":469.95,"xT1":424.9,"yT1":0,"xT2":1058.1,"yT2":0,"toosoon":0,"cond_shown":"Incongruent","ratio_trial":200,"L_num":7,"L_den":15,"R_num":6,"R_den":9,"correct_side":2,"subjID":"DavidEstebanBallona28","gender":"0","school":"4","age":"9"},{"start_time":1552055656859,"click_time":1552055658647,"finger_time":1552055658167,"fix_duration":310.81879565295276,"trial":46,"RT":1308,"MT":480,"sideResp":2,"stimulus":[],"xmouse":[794,794,794,794,794,794,794,794,794,794,794,794,794,794,794,794,794,794,794,794,794,794,794,794,794,794,794,794,794,794,794,794,794,794,794,794,794,794,794,794,794,794,794,794,794,794,794,794,794,794,794,794,794,794,794,794,794,794,794,799,802,803,806,809,812,825,828,839,848,869,881,892,904,914,938,950,960,971,984,1000,1007,1014,1022,1028,1045,1055,1065,1075,1082,1089],"ymouse":[522,522,522,522,522,522,522,522,522,522,522,522,522,522,522,522,522,522,522,522,522,522,522,522,522,522,522,522,522,522,522,522,522,522,522,522,522,522,522,522,522,522,522,522,522,522,522,522,522,522,522,522,522,522,522,522,522,521,519,510,504,501,497,492,486,468,462,445,432,401,385,369,352,336,301,286,270,256,236,216,205,197,187,178,155,141,129,112,101,87],"timestamp_mouse":[12,38,49,70,89,108,129,150,169,188,209,228,249,269,290,309,328,348,370,388,409,428,448,469,490,509,528,550,569,588,610,629,649,668,690,708,728,748,770,789,809,828,850,869,889,909,929,949,969,990,1009,1028,1048,1070,1089,1109,1129,1148,1169,1189,1212,1229,1248,1269,1288,1308,1329,1350,1369,1389,1408,1428,1448,1468,1491,1508,1529,1549,1569,1590,1608,1628,1649,1669,1690,1708,1729,1748,1768,1788],"xSR":741.5,"ySR":469.95,"xT1":424.9,"yT1":0,"xT2":1058.1,"yT2":0,"toosoon":0,"cond_shown":"Congruent","ratio_trial":100,"L_num":3,"L_den":20,"R_num":4,"R_den":16,"correct_side":2,"subjID":"DavidEstebanBallona28","gender":"0","school":"4","age":"9"},{"start_time":1552055660995,"click_time":1552055662988,"finger_time":1552055662268,"fix_duration":504.7705641891459,"trial":47,"RT":1273,"MT":720,"sideResp":2,"stimulus":[],"xmouse":[813,813,813,813,813,813,813,813,813,813,813,813,813,813,813,813,813,813,813,813,813,813,813,813,813,813,813,813,813,813,813,813,813,813,813,813,813,813,812,812,812,812,812,812,812,812,812,812,812,812,812,812,812,812,812,812,812,815,817,819,821,822,825,829,833,837,842,850,877,881,893,897,901,901,902,902,903,903,911,912,919,925,934,939,945,951,958,966,980,988,996,1002,1012,1018,1024,1030,1039,1047,1066,1073],"ymouse":[493,493,493,493,493,493,493,493,493,493,493,493,493,493,493,493,493,493,493,493,493,493,493,493,493,493,493,493,493,493,493,493,493,493,493,493,493,492,490,490,490,489,489,489,489,489,489,489,489,489,489,489,489,489,489,487,485,481,479,476,475,473,470,465,459,453,445,434,395,388,366,357,347,346,345,345,343,342,331,328,317,310,296,290,284,278,269,261,242,231,217,209,193,184,174,164,153,139,111,98],"timestamp_mouse":[14,35,54,73,94,113,132,152,172,192,212,233,252,274,292,313,333,354,373,392,413,434,452,473,493,513,532,552,573,593,612,632,654,672,693,714,732,753,772,794,812,833,854,874,892,914,932,953,972,994,1013,1033,1052,1073,1092,1112,1132,1154,1173,1193,1213,1233,1254,1273,1292,1313,1332,1354,1372,1392,1413,1433,1454,1472,1493,1514,1533,1552,1572,1592,1613,1633,1653,1673,1692,1713,1733,1752,1772,1792,1813,1834,1854,1872,1892,1912,1932,1953,1974,1992],"xSR":741.5,"ySR":469.95,"xT1":424.9,"yT1":0,"xT2":1058.1,"yT2":0,"toosoon":0,"cond_shown":"Congruent","ratio_trial":200,"L_num":16,"L_den":20,"R_num":12,"R_den":20,"correct_side":1,"subjID":"DavidEstebanBallona28","gender":"0","school":"4","age":"9"},{"start_time":1552055665872,"click_time":1552055667608,"finger_time":1552055666868,"fix_duration":761.9599484440236,"trial":48,"RT":996,"MT":740,"sideResp":1,"stimulus":[],"xmouse":[753,753,753,753,753,753,753,753,753,753,753,753,753,753,753,753,753,753,753,753,753,753,753,753,753,753,753,753,749,747,747,747,747,747,747,747,747,747,747,747,747,747,747,746,746