[{"start_time":1552056079411,"click_time":1552056081817,"finger_time":1552056081256,"fix_duration":250,"trial":0,"RT":1845,"MT":561,"sideResp":1,"stimulus":"img/500/equaldotanddens/L/7_Ratio_500_L_10_R_5.png","xmouse":[789,789,789,789,789,789,789,788,787,787,786,785,784,784,784,784,784,784,784,784,784,784,784,784,784,784,784,784,784,784,784,783,783,783,783,783,783,783,783,783,783,783,783,783,783,783,783,783,783,783,783,783,783,783,783,783,783,783,783,783,783,783,783,783,783,783,783,783,783,783,783,783,783,783,783,783,783,783,783,783,783,783,783,783,783,783,783,783,783,783,783,758,737,730,726,724,716,708,691,680,668,653,652,650,646,642,623,611,605,598,594,588,586,583,573,560,535,527,524,520,519],"ymouse":[558,558,558,557,557,557,557,556,555,555,554,553,552,552,552,552,552,552,552,552,552,552,552,552,552,552,552,552,552,552,552,552,552,552,552,552,552,552,552,552,552,552,552,552,552,551,551,551,551,551,551,550,549,547,545,544,539,538,536,536,536,536,536,536,536,536,536,536,536,536,536,536,536,536,536,536,536,536,536,536,536,536,536,536,536,536,536,536,536,536,535,527,518,512,506,501,481,464,435,416,398,379,375,371,368,362,348,340,334,326,318,304,294,281,262,239,187,162,138,107,89],"timestamp_mouse":[8,37,46,67,86,106,126,148,167,187,206,226,247,266,288,306,326,346,366,387,407,427,447,467,488,507,527,546,567,586,606,627,647,667,688,707,727,747,767,787,807,826,847,867,887,906,927,947,967,987,1007,1026,1047,1067,1087,1106,1126,1148,1166,1186,1207,1227,1246,1267,1287,1305,1325,1345,1365,1387,1406,1425,1447,1466,1486,1506,1526,1546,1565,1585,1605,1626,1646,1666,1687,1706,1725,1746,1766,1787,1805,1825,1845,1866,1886,1905,1926,1945,1966,1985,2005,2026,2045,2065,2085,2105,2125,2146,2166,2185,2205,2226,2245,2265,2285,2306,2325,2347,2366,2386,2406],"xSR":741.5,"ySR":469.95,"xT1":424.9,"yT1":0,"xT2":1058.1,"yT2":0,"toosoon":0,"cond_shown":"equaldotanddens","ratio_trial":500,"smaller_num":"5","larger_num":"10","correct_side":1,"subjID":"davidestebanbayonamansilla28","gender":"0","age":"9","school":"4","test":{"fix_dur":[250,1500],"timestim":300,"targets_dim":[100,100],"targets_relative_coord":[0.3,0.7],"size_stim":[880,420],"start_dim":[100,100],"size_start":[300,300],"size_fix":60,"samplingrate":20,"img_types":["equaldotsize","equaldotanddens","randomdotsizeEA"],"ratios":[250,500,750,900],"rep_conds":9,"nTrials":120,"trials_to_rest":500,"Trials_order":[100,47,9,108,41,62,102,43,1,3,45,51,8,81,87,93,89,85,10,38,32,63,55,103,80,35,2,98,106,114,29,104,67,95,57,94,28,5,86,74,76,18,53,79,46,72,22,70,40,23,105,111,91,92,4,37,56,73,69,115,117,24,109,110,27,19,52,42,84,21,26,33,6,39,96,88,97,25,65,99,75,11,36,31,82,50,61,17,90,12,30,0,60,83,7,118,78,101,113,66,112,77,44,34,13,119,71,49,59,68,54,64,15,116,48,16,107,20,58,14],"cond_shown":["equaldotanddens","randomdotsizeEA","equaldotsize","equaldotsize","randomdotsizeEA","randomdotsizeEA","equaldotsize","equaldotanddens","equaldotanddens","equaldotsize","equaldotsize","equaldotsize","randomdotsizeEA","equaldotsize","equaldotsize","equaldotsize","randomdotsizeEA","equaldotanddens","equaldotanddens","randomdotsizeEA","randomdotsizeEA","equaldotsize","equaldotanddens","equaldotanddens","randomdotsizeEA","randomdotsizeEA","randomdotsizeEA","randomdotsizeEA","equaldotanddens","equaldotsize","randomdotsizeEA","randomdotsizeEA","equaldotanddens","randomdotsizeEA","equaldotsize","equaldotanddens","equaldotanddens","randomdotsizeEA","randomdotsizeEA","randomdotsizeEA","equaldotanddens","equaldotsize","randomdotsizeEA","equaldotanddens","equaldotanddens","equaldotsize","equaldotanddens","equaldotanddens","equaldotanddens","randomdotsizeEA","equaldotsize","equaldotsize","equaldotanddens","randomdotsizeEA","equaldotanddens","equaldotanddens","randomdotsizeEA","equaldotanddens","equaldotsize","equaldotanddens","equaldotsize","equaldotsize","equaldotanddens","randomdotsizeEA","equaldotsize","equaldotanddens","equaldotanddens","equaldotsize","equaldotsize","equaldotsize","randomdotsizeEA","equaldotsize","equaldotsize","equaldotsize","equaldotsize","equaldotanddens","equaldotanddens","equaldotanddens","randomdotsizeEA","equaldotsize","equaldotsize","randomdotsizeEA","equaldotsize","equaldotanddens","equaldotanddens","randomdotsizeEA","equaldotanddens","randomdotsizeEA","equaldotsize","equaldotsize","equaldotsize","equaldotsize","equaldotsize","randomdotsizeEA","equaldotanddens","equaldotanddens","equaldotsize","randomdotsizeEA","randomdotsizeEA","equaldotsize","equaldotanddens","randomdotsizeEA","randomdotsizeEA","equaldotanddens","equaldotanddens","randomdotsizeEA","randomdotsizeEA","equaldotanddens","randomdotsizeEA","randomdotsizeEA","equaldotsize","equaldotanddens","equaldotsize","randomdotsizeEA","equaldotsize","equaldotanddens","randomdotsizeEA","randomdotsizeEA","equaldotanddens","randomdotsizeEA"],"ratio_trial":[500,900,900,250,500,250,750,750,250,500,900,500,750,900,500,900,500,250,900,250,750,500,750,750,750,900,250,250,900,750,500,750,750,900,900,900,500,500,250,250,500,750,500,750,900,250,900,900,500,900,900,500,750,750,500,250,750,250,900,750,900,250,250,250,500,750,500,750,250,900,250,900,750,500,250,500,250,250,500,500,500,900,250,750,900,250,250,500,750,250,750,250,250,900,750,900,750,500,500,750,500,500,750,900,250,900,900,250,900,750,750,500,500,750,250,500,900,750,900,250],"smaller_num":["5","18","9","1","9","6","3","3","3","9","18","2","12","9","6","9","4","6","18","6","3","10","15","9","6","18","3","2","18","6","2","12","6","18","18","18","9","3","3","2","2","3","9","3","18","4","18","18","1","18","9","10","15","6","1","3","15","5","9","6","9","6","4","2","9","6","1","3","2","9","2","18","15","9","2","6","2","3","5","1","2","18","3","15","9","5","3","6","15","2","3","6","5","18","6","18","3","9","2","3","6","9","3","9","3","18","18","3","9","6","18","4","10","15","4","1","9","12","18","1"],"larger_num":["10","20","10","4","18","24","4","4","12","18","20","4","16","10","12","10","8","24","20","24","4","20","20","12","8","20","12","8","20","8","4","16","8","20","20","20","18","6","12","8","4","4","18","4","20","16","20","20","2","20","10","20","20","8","2","12","20","20","10","8","10","24","16","8","18","8","2","4","8","10","8","20","20","18","8","12","8","12","10","2","4","20","12","20","10","20","12","12","20","8","4","24","20","20","8","20","4","18","4","4","12","18","4","10","12","20","20","12","10","8","24","8","20","20","16","2","10","16","20","4"],"correct_side":[1,2,2,2,1,2,1,1,2,2,1,1,2,2,1,1,1,2,1,1,2,2,2,2,2,2,2,1,2,1,1,2,1,1,1,2,1,2,1,1,1,2,1,2,2,1,2,1,2,1,2,2,1,1,2,2,2,2,2,1,2,2,2,2,2,1,2,1,2,2,1,2,1,2,1,1,2,1,1,2,2,1,1,2,1,2,1,1,2,2,1,2,2,1,1,2,1,2,2,2,1,2,1,2,1,1,2,2,2,1,1,1,2,2,2,2,1,2,1,2],"img_shown":["img/500/equaldotanddens/L/7_Ratio_500_L_10_R_5.png","img/900/randomdotsizeEA/R/14_Ratio_900_L_18_R_20.png","img/900/equaldotsize/R/15_Ratio_900_L_9_R_10.png","img/250/equaldotsize/R/8_Ratio_250_L_1_R_4.png","img/500/randomdotsizeEA/L/4_Ratio_500_L_18_R_9.png","img/250/randomdotsizeEA/R/6_Ratio_250_L_6_R_24.png","img/750/equaldotsize/L/9_Ratio_750_L_4_R_3.png","img/750/equaldotanddens/L/10_Ratio_750_L_4_R_3.png","img/250/equaldotanddens/R/11_Ratio_250_L_3_R_12.png","img/500/equaldotsize/R/1_Ratio_500_L_9_R_18.png","img/900/equaldotsize/L/10_Ratio_900_L_20_R_18.png","img/500/equaldotsize/L/5_Ratio_500_L_4_R_2.png","img/750/randomdotsizeEA/R/11_Ratio_750_L_12_R_16.png","img/900/equaldotsize/R/7_Ratio_900_L_9_R_10.png","img/500/equaldotsize/L/11_Ratio_500_L_12_R_6.png","img/900/equaldotsize/L/1_Ratio_900_L_10_R_9.png","img/500/randomdotsizeEA/L/8_Ratio_500_L_8_R_4.png","img/250/equaldotanddens/R/6_Ratio_250_L_6_R_24.png","img/900/equaldotanddens/L/10_Ratio_900_L_20_R_18.png","img/250/randomdotsizeEA/L/5_Ratio_250_L_24_R_6.png","img/750/randomdotsizeEA/R/12_Ratio_750_L_3_R_4.png","img/500/equaldotsize/R/3_Ratio_500_L_10_R_20.png","img/750/equaldotanddens/R/5_Ratio_750_L_15_R_20.png","img/750/equaldotanddens/R/15_Ratio_750_L_9_R_12.png","img/750/randomdotsizeEA/R/2_Ratio_750_L_6_R_8.png","img/900/randomdotsizeEA/R/13_Ratio_900_L_18_R_20.png","img/250/randomdotsizeEA/R/11_Ratio_250_L_3_R_12.png","img/250/randomdotsizeEA/L/1_Ratio_250_L_8_R_2.png","img/900/equaldotanddens/R/13_Ratio_900_L_18_R_20.png","img/750/equaldotsize/L/14_Ratio_750_L_8_R_6.png","img/500/randomdotsizeEA/L/10_Ratio_500_L_4_R_2.png","img/750/randomdotsizeEA/R/11_Ratio_750_L_12_R_16.png","img/750/equaldotanddens/L/13_Ratio_750_L_8_R_6.png","img/900/randomdotsizeEA/L/8_Ratio_900_L_20_R_18.png","img/900/equaldotsize/L/4_Ratio_900_L_20_R_18.png","img/900/equaldotanddens/R/11_Ratio_900_L_18_R_20.png","img/500/equaldotanddens/L/4_Ratio_500_L_18_R_9.png","img/500/randomdotsizeEA/R/2_Ratio_500_L_3_R_6.png","img/250/randomdotsizeEA/L/15_Ratio_250_L_12_R_3.png","img/250/randomdotsizeEA/L/3_Ratio_250_L_8_R_2.png","img/500/equaldotanddens/L/10_Ratio_500_L_4_R_2.png","img/750/equaldotsize/R/7_Ratio_750_L_3_R_4.png","img/500/randomdotsizeEA/L/4_Ratio_500_L_18_R_9.png","img/750/equaldotanddens/R/7_Ratio_750_L_3_R_4.png","img/900/equaldotanddens/R/13_Ratio_900_L_18_R_20.png","img/250/equaldotsize/L/2_Ratio_250_L_16_R_4.png","img/900/equaldotanddens/R/11_Ratio_900_L_18_R_20.png","img/900/equaldotanddens/L/2_Ratio_900_L_20_R_18.png","img/500/equaldotanddens/R/15_Ratio_500_L_1_R_2.png","img/900/randomdotsizeEA/L/8_Ratio_900_L_20_R_18.png","img/900/equaldotsize/R/5_Ratio_900_L_9_R_10.png","img/500/equaldotsize/R/3_Ratio_500_L_10_R_20.png","img/750/equaldotanddens/L/1_Ratio_750_L_20_R_15.png","img/750/randomdotsizeEA/L/14_Ratio_750_L_8_R_6.png","img/500/equaldotanddens/R/15_Ratio_500_L_1_R_2.png","img/250/equaldotanddens/R/9_Ratio_250_L_3_R_12.png","img/750/randomdotsizeEA/R/4_Ratio_750_L_15_R_20.png","img/250/equaldotanddens/R/12_Ratio_250_L_5_R_20.png","img/900/equaldotsize/R/5_Ratio_900_L_9_R_10.png","img/750/equaldotanddens/L/14_Ratio_750_L_8_R_6.png","img/900/equaldotsize/R/7_Ratio_900_L_9_R_10.png","img/250/equaldotsize/R/6_Ratio_250_L_6_R_24.png","img/250/equaldotanddens/R/10_Ratio_250_L_4_R_16.png","img/250/randomdotsizeEA/R/13_Ratio_250_L_2_R_8.png","img/500/equaldotsize/R/1_Ratio_500_L_9_R_18.png","img/750/equaldotanddens/L/13_Ratio_750_L_8_R_6.png","img/500/equaldotanddens/R/15_Ratio_500_L_1_R_2.png","img/750/equaldotsize/L/9_Ratio_750_L_4_R_3.png","img/250/equaldotsize/R/13_Ratio_250_L_2_R_8.png","img/900/equaldotsize/R/6_Ratio_900_L_9_R_10.png","img/250/randomdotsizeEA/L/1_Ratio_250_L_8_R_2.png","img/900/equaldotsize/R/12_Ratio_900_L_18_R_20.png","img/750/equaldotsize/L/1_Ratio_750_L_20_R_15.png","img/500/equaldotsize/R/6_Ratio_500_L_9_R_18.png","img/250/equaldotsize/L/7_Ratio_250_L_8_R_2.png","img/500/equaldotanddens/L/11_Ratio_500_L_12_R_6.png","img/250/equaldotanddens/R/13_Ratio_250_L_2_R_8.png","img/250/equaldotanddens/L/14_Ratio_250_L_12_R_3.png","img/500/randomdotsizeEA/L/7_Ratio_500_L_10_R_5.png","img/500/equaldotsize/R/12_Ratio_500_L_1_R_2.png","img/500/equaldotsize/R/9_Ratio_500_L_2_R_4.png","img/900/randomdotsizeEA/L/10_Ratio_900_L_20_R_18.png","img/250/equaldotsize/L/15_Ratio_250_L_12_R_3.png","img/750/equaldotanddens/R/5_Ratio_750_L_15_R_20.png","img/900/equaldotanddens/L/1_Ratio_900_L_10_R_9.png","img/250/randomdotsizeEA/R/12_Ratio_250_L_5_R_20.png","img/250/equaldotanddens/L/15_Ratio_250_L_12_R_3.png","img/500/randomdotsizeEA/L/11_Ratio_500_L_12_R_6.png","img/750/equaldotsize/R/4_Ratio_750_L_15_R_20.png","img/250/equaldotsize/R/13_Ratio_250_L_2_R_8.png","img/750/equaldotsize/L/8_Ratio_750_L_4_R_3.png","img/250/equaldotsize/R/6_Ratio_250_L_6_R_24.png","img/250/equaldotsize/R/12_Ratio_250_L_5_R_20.png","img/900/randomdotsizeEA/L/4_Ratio_900_L_20_R_18.png","img/750/equaldotanddens/L/13_Ratio_750_L_8_R_6.png","img/900/equaldotanddens/R/9_Ratio_900_L_18_R_20.png","img/750/equaldotsize/L/9_Ratio_750_L_4_R_3.png","img/500/randomdotsizeEA/R/1_Ratio_500_L_9_R_18.png","img/500/randomdotsizeEA/R/9_Ratio_500_L_2_R_4.png","img/750/equaldotsize/R/7_Ratio_750_L_3_R_4.png","img/500/equaldotanddens/L/13_Ratio_500_L_12_R_6.png","img/500/randomdotsizeEA/R/1_Ratio_500_L_9_R_18.png","img/750/randomdotsizeEA/L/10_Ratio_750_L_4_R_3.png","img/900/equaldotanddens/R/6_Ratio_900_L_9_R_10.png","img/250/equaldotanddens/L/14_Ratio_250_L_12_R_3.png","img/900/randomdotsizeEA/L/4_Ratio_900_L_20_R_18.png","img/900/randomdotsizeEA/R/12_Ratio_900_L_18_R_20.png","img/250/equaldotanddens/R/9_Ratio_250_L_3_R_12.png","img/900/randomdotsizeEA/R/5_Ratio_900_L_9_R_10.png","img/750/randomdotsizeEA/L/13_Ratio_750_L_8_R_6.png","img/750/equaldotsize/L/6_Ratio_750_L_24_R_18.png","img/500/equaldotanddens/L/8_Ratio_500_L_8_R_4.png","img/500/equaldotsize/R/3_Ratio_500_L_10_R_20.png","img/750/randomdotsizeEA/R/5_Ratio_750_L_15_R_20.png","img/250/equaldotsize/R/10_Ratio_250_L_4_R_16.png","img/500/equaldotanddens/R/12_Ratio_500_L_1_R_2.png","img/900/randomdotsizeEA/L/1_Ratio_900_L_10_R_9.png","img/750/randomdotsizeEA/R/11_Ratio_750_L_12_R_16.png","img/900/equaldotanddens/L/10_Ratio_900_L_20_R_18.png","img/250/randomdotsizeEA/R/8_Ratio_250_L_1_R_4.png"],"Rat0":[["12_Ratio_0_L_9_R_0.png","13_Ratio_0_L_6_R_0.png","5_Ratio_0_L_2_R_0.png","6_Ratio_0_L_4_R_0.png","8_Ratio_0_L_6_R_0.png"],["1_Ratio_0_L_0_R_17.png","10_Ratio_0_L_0_R_22.png","11_Ratio_0_L_0_R_1.png","14_Ratio_0_L_0_R_24.png","15_Ratio_0_L_0_R_4.png","2_Ratio_0_L_0_R_5.png","3_Ratio_0_L_0_R_17.png","4_Ratio_0_L_0_R_7.png","7_Ratio_0_L_0_R_19.png","9_Ratio_0_L_0_R_15.png"]],"Rat250":[["1_Ratio_250_L_8_R_2.png","14_Ratio_250_L_12_R_3.png","15_Ratio_250_L_12_R_3.png","2_Ratio_250_L_16_R_4.png","3_Ratio_250_L_8_R_2.png","5_Ratio_250_L_24_R_6.png","7_Ratio_250_L_8_R_2.png"],["10_Ratio_250_L_4_R_16.png","11_Ratio_250_L_3_R_12.png","12_Ratio_250_L_5_R_20.png","13_Ratio_250_L_2_R_8.png","4_Ratio_250_L_3_R_12.png","6_Ratio_250_L_6_R_24.png","8_Ratio_250_L_1_R_4.png","9_Ratio_250_L_3_R_12.png"]],"Rat500":[["10_Ratio_500_L_4_R_2.png","11_Ratio_500_L_12_R_6.png","13_Ratio_500_L_12_R_6.png","4_Ratio_500_L_18_R_9.png","5_Ratio_500_L_4_R_2.png","7_Ratio_500_L_10_R_5.png","8_Ratio_500_L_8_R_4.png"],["1_Ratio_500_L_9_R_18.png","12_Ratio_500_L_1_R_2.png","14_Ratio_500_L_5_R_10.png","15_Ratio_500_L_1_R_2.png","2_Ratio_500_L_3_R_6.png","3_Ratio_500_L_10_R_20.png","6_Ratio_500_L_9_R_18.png","9_Ratio_500_L_2_R_4.png"]],"Rat750":[["1_Ratio_750_L_20_R_15.png","10_Ratio_750_L_4_R_3.png","13_Ratio_750_L_8_R_6.png","14_Ratio_750_L_8_R_6.png","6_Ratio_750_L_24_R_18.png","8_Ratio_750_L_4_R_3.png","9_Ratio_750_L_4_R_3.png"],["11_Ratio_750_L_12_R_16.png","12_Ratio_750_L_3_R_4.png","15_Ratio_750_L_9_R_12.png","2_Ratio_750_L_6_R_8.png","3_Ratio_750_L_15_R_20.png","4_Ratio_750_L_15_R_20.png","5_Ratio_750_L_15_R_20.png","7_Ratio_750_L_3_R_4.png"]],"Rat900":[["1_Ratio_900_L_10_R_9.png","10_Ratio_900_L_20_R_18.png","2_Ratio_900_L_20_R_18.png","4_Ratio_900_L_20_R_18.png","8_Ratio_900_L_20_R_18.png"],["11_Ratio_900_L_18_R_20.png","12_Ratio_900_L_18_R_20.png","13_Ratio_900_L_18_R_20.png","14_Ratio_900_L_18_R_20.png","15_Ratio_900_L_9_R_10.png","3_Ratio_900_L_9_R_10.png","5_Ratio_900_L_9_R_10.png","6_Ratio_900_L_9_R_10.png","7_Ratio_900_L_9_R_10.png","9_Ratio_900_L_18_R_20.png"]],"Rat1000":[["10_Ratio_1000_L_16_R_16.png","11_Ratio_1000_L_6_R_6.png","12_Ratio_1000_L_14_R_14.png","13_Ratio_1000_L_20_R_20.png","15_Ratio_1000_L_15_R_15.png","2_Ratio_1000_L_17_R_17.png","4_Ratio_1000_L_9_R_9.png","5_Ratio_1000_L_6_R_6.png","6_Ratio_1000_L_19_R_19.png","8_Ratio_1000_L_14_R_14.png","9_Ratio_1000_L_25_R_25.png"],["1_Ratio_1000_L_1_R_1.png","14_Ratio_1000_L_17_R_17.png","3_Ratio_1000_L_17_R_17.png","7_Ratio_1000_L_6_R_6.png"]]}},{"start_time":1552056084252,"click_time":1552056085937,"finger_time":1552056084997,"fix_duration":772.3476894690776,"trial":1,"RT":745,"MT":940,"sideResp":1,"stimulus":"img/900/randomdotsizeEA/R/14_Ratio_900_L_18_R_20.png","xmouse":[820,820,820,820,820,820,820,820,820,820,820,820,820,820,820,820,820,820,820,820,820,820,820,820,820,820,820,820,820,820,820,820,820,820,816,813,812,811,807,796,785,773,755,734,686,659,649,642,639,636,634,629,625,620,611,605,600,598,596,589,585,578,573,569,566,561,559,557,557,557,557,557,557,556,554,554,553,553,551,550,549,544,526,497,470],"ymouse":[492,492,492,494,494,494,494,494,494,494,494,494,495,495,495,495,495,495,495,495,495,495,495,495,495,495,495,495,495,495,495,495,494,491,482,476,471,465,457,431,413,392,369,338,286,258,246,238,234,231,230,229,227,225,215,203,195,189,184,173,167,159,151,145,141,134,132,130,129,129,129,129,129,127,126,125,124,124,123,123,122,121,117,109,97],"timestamp_mouse":[13,37,45,64,85,105,124,145,165,184,204,225,245,264,284,304,324,344,366,384,405,425,446,464,485,505,524,545,566,585,604,624,644,665,684,705,724,745,765,784,804,825,845,865,884,905,924,944,964,984,1004,1025,1044,1064,1084,1105,1124,1145,1164,1185,1204,1224,1245,1265,1285,1305,1325,1345,1364,1384,1404,1424,1444,1465,1484,1504,1524,1544,1564,1585,1604,1624,1644,1665,1684],"xSR":741.5,"ySR":469.95,"xT1":424.9,"yT1":0,"xT2":1058.1,"yT2":0,"toosoon":0,"cond_shown":"randomdotsizeEA","ratio_trial":900,"smaller_num":"18","larger_num":"20","correct_side":2,"subjID":"davidestebanbayonamansilla28","gender":"0","age":"9","school":"4"},{"start_time":1552056087955,"click_time":1552056089337,"finger_time":1552056088818,"fix_duration":877.4371217117405,"trial":2,"RT":863,"MT":519,"sideResp":2,"stimulus":"img/900/equaldotsize/R/15_Ratio_900_L_9_R_10.png","xmouse":[779,780,781,782,782,783,783,783,783,783,783,784,784,785,785,785,785,785,785,785,785,785,785,785,785,785,785,785,785,785,785,785,785,785,785,785,785,785,785,795,805,828,840,850,862,864,864,865,865,865,866,867,868,871,889,898,909,918,927,946,965,978,989,998,1016,1026,1037,1047,1064,1099],"ymouse":[552,553,553,553,552,552,552,552,551,551,550,549,548,548,548,548,547,546,546,545,544,544,544,544,544,544,544,544,543,542,541,541,539,538,536,534,532,529,527,517,511,505,498,493,483,477,472,467,463,459,455,449,445,437,416,405,391,378,366,340,319,306,294,281,250,232,209,182,144,56],"timestamp_mouse":[14,25,41,61,81,103,121,141,162,181,202,221,241,263,282,301,322,342,361,382,402,422,442,462,481,502,522,541,561,581,603,622,642,661,681,701,722,741,761,781,802,821,841,863,881,902,921,942,961,981,1001,1021,1041,1062,1081,1101,1121,1141,1162,1181,1201,1221,1241,1261,1281,1301,1321,1342,1363,1381],"xSR":741.5,"ySR":469.95,"xT1":424.9,"yT1":0,"xT2":1058.1,"yT2":0,"toosoon":0,"cond_shown":"equaldotsize","ratio_trial":900,"smaller_num":"9","larger_num":"10","correct_side":2,"subjID":"davidestebanbayonamansilla28","gender":"0","age":"9","school":"4"},{"start_time":1552056092196,"click_time":1552056094037,"finger_time":1552056093616,"fix_duration":417.270419198989,"trial":3,"RT":1420,"MT":421,"sideResp":2,"stimulus":"img/250/equaldotsize/R/8_Ratio_250_L_1_R_4.png","xmouse":[804,804,804,804,804,804,804,804,804,804,804,804,804,804,804,804,804,804,804,804,804,804,804,804,804,804,804,804,804,804,804,804,804,804,804,804,804,804,804,804,804,804,804,804,804,804,804,804,804,804,804,804,804,804,804,804,804,804,804,804,804,804,804,804,804,804,804,804,807,815,823,829,845,856,867,875,884,905,914,927,935,942,957,964,971,981,989,1001,1025,1049,1061,1071,1089],"ymouse":[517,517,517,517,517,517,517,517,517,517,517,517,517,517,517,517,517,517,517,517,517,517,517,517,517,517,517,517,517,517,517,517,517,517,517,517,517,517,517,517,517,517,517,517,517,517,517,517,517,517,517,517,517,517,517,517,517,517,517,517,517,517,517,517,517,517,517,515,510,496,484,469,438,418,399,382,366,333,319,301,289,281,263,253,245,234,222,208,176,145,129,115,86],"timestamp_mouse":[10,21,41,60,81,100,120,141,161,181,201,220,240,262,280,301,320,340,360,380,400,421,440,461,480,502,521,541,560,580,601,620,640,661,681,701,721,740,761,780,802,821,841,860,881,900,921,940,960,981,1000,1020,1041,1061,1082,1101,1120,1140,1160,1180,1200,1221,1241,1261,1280,1301,1321,1340,1361,1380,1401,1420,1440,1460,1480,1500,1521,1541,1560,1580,1600,1620,1641,1660,1680,1701,1721,1740,1761,1780,1800,1820,1840],"xSR":741.5,"ySR":469.95,"xT1":424.9,"yT1":0,"xT2":1058.1,"yT2":0,"toosoon":0,"cond_shown":"equaldotsize","ratio_trial":250,"smaller_num":"1","larger_num":"4","correct_side":2,"subjID":"davidestebanbayonamansilla28","gender":"0","age":"9","school":"4"},{"start_time":1552056096186,"click_time":1552056097977,"finger_time":1552056096997,"fix_duration":748.5005873361536,"trial":4,"RT":811,"MT":980,"sideResp":2,"stimulus":"img/500/randomdotsizeEA/L/4_Ratio_500_L_18_R_9.png","xmouse":[784,784,784,784,784,784,784,784,784,784,784,784,784,784,784,784,784,784,783,783,783,783,782,782,782,782,782,782,782,782,782,782,782,782,783,785,786,793,797,806,815,823,840,849,855,862,870,888,896,911,921,929,939,944,948,951,954,957,963,968,972,978,997,1007,1015,1024,1032,1042,1050,1060,1063,1064,1064,1064,1064,1065,1065,1066,1066,1067,1068,1069,1072,1074,1076,1078,1079,1082,1083,1083],"ymouse":[517,517,517,517,517,517,517,516,515,515,515,515,514,514,512,512,511,511,510,510,510,510,510,510,510,510,510,510,510,510,510,510,509,508,505,503,502,493,487,473,461,448,419,404,395,383,373,350,338,319,306,294,279,272,266,260,256,249,240,234,229,224,206,195,185,176,166,146,136,122,118,118,118,118,118,117,117,116,116,115,114,113,113,112,111,109,108,103,101,99],"timestamp_mouse":[11,43,50,71,91,112,131,150,171,190,210,231,251,270,291,311,330,350,371,390,412,430,451,470,492,511,531,550,571,592,612,630,650,670,690,710,731,750,770,790,811,830,850,870,890,910,931,951,970,991,1011,1030,1051,1070,1090,1110,1130,1151,1170,1190,1211,1230,1250,1271,1290,1310,1330,1351,1370,1391,1411,1430,1450,1471,1491,1511,1530,1550,1572,1591,1610,1630,1650,1670,1691,1711,1731,1751,1770,1791],"xSR":741.5,"ySR":469.95,"xT1":424.9,"yT1":0,"xT2":1058.1,"yT2":0,"toosoon":0,"cond_shown":"randomdotsizeEA","ratio_trial":500,"smaller_num":"9","larger_num":"18","correct_side":1,"subjID":"davidestebanbayonamansilla28","gender":"0","age":"9","school":"4"},{"start_time":1552056101809,"click_time":1552056105436,"finger_time":1552056103916,"fix_duration":250,"trial":5,"RT":2107,"MT":1520,"sideResp":1,"stimulus":"img/250/randomdotsizeEA/R/6_Ratio_250_L_6_R_24.png","xmouse":[827,827,827,827,827,827,827,827,827,827,827,827,827,827,827,827,827,827,827,827,827,827,827,827,827,827,827,827,827,827,827,827,827,827,827,828,828,828,828,828,828,827,827,827,827,827,827,827,826,825,825,820,818,815,810,807,803,803,803,803,803,803,803,802,802,802,804,804,805,805,805,805,804,802,802,802,802,800,798,796,796,796,796,796,797,798,799,799,799,795,793,793,793,793,793,793,794,794,794,794,795,795,795,795,794,792,778,765,770,771,771,761,747,737,731,731,731,731,734,735,735,736,736,736,736,736,737,738,741,745,749,754,763,766,768,768,768,768,769,769,769,772,773,774,774,774,774,774,774,774,774,783,794,805,815,821,823,823,818,802,789,773,769,767,765,760,744,729,720,710,698,659,633,608,578,557,545,545,545,545,545,503],"ymouse":[559,559,559,559,559,559,559,559,559,559,559,559,559,559,559,559,559,559,559,559,559,559,559,558,558,558,558,557,557,557,557,557,557,557,557,555,550,546,541,540,539,538,538,538,537,536,535,533,531,528,525,516,511,506,498,494,489,489,489,489,489,489,489,489,489,490,496,498,501,503,504,506,507,507,507,507,507,507,505,498,494,490,490,490,489,489,494,498,501,507,508,508,508,508,508,506,504,504,504,504,504,505,505,504,487,456,387,243,188,185,185,250,322,393,441,460,464,465,465,465,465,465,465,465,465,465,465,465,467,471,477,479,481,482,483,484,485,487,488,488,489,497,499,502,505,509,522,529,532,532,532,511,489,469,452,441,433,432,429,424,418,406,397,384,372,358,330,312,301,285,264,186,134,89,45,15,0,0,0,0,0,12],"timestamp_mouse":[10,27,47,67,87,108,129,147,167,188,208,227,247,268,287,307,328,348,369,387,408,427,447,467,487,508,528,548,567,588,607,627,648,667,687,707,727,748,767,788,808,827,848,869,888,908,927,948,967,987,1007,1027,1047,1068,1088,1108,1128,1147,1167,1188,1208,1228,1247,1267,1288,1308,1328,1348,1367,1387,1408,1427,1448,1467,1488,1507,1527,1547,1567,1588,1608,1627,1648,1668,1687,1709,1727,1748,1767,1788,1807,1827,1847,1867,1887,1908,1928,1948,1967,1989,2007,2029,2048,2067,2087,2107,2127,2148,2167,2188,2207,2228,2247,2269,2287,2308,2328,2347,2368,2389,2408,2428,2447,2468,2487,2507,2527,2548,2567,2588,2607,2627,2647,2667,2687,2707,2727,2747,2768,2787,2808,2827,2847,2868,2887,2908,2927,2948,2968,2988,3007,3027,3047,3068,3087,3107,3127,3149,3169,3189,3208,3227,3247,3267,3288,3308,3327,3347,3367,3387,3407,3427,3447,3467,3487,3508,3528,3548,3567,3587,3607,3627],"xSR":741.5,"ySR":469.95,"xT1":424.9,"yT1":0,"xT2":1058.1,"yT2":0,"toosoon":0,"cond_shown":"randomdotsizeEA","ratio_trial":250,"smaller_num":"6","larger_num":"24","correct_side":2,"subjID":"davidestebanbayonamansilla28","gender":"0","age":"9","school":"4"},{"start_time":1552056107669,"click_time":1552056109317,"finger_time":1552056108636,"fix_duration":1311.0010662673503,"trial":6,"RT":967,"MT":681,"sideResp":1,"stimulus":"img/750/equaldotsize/L/9_Ratio_750_L_4_R_3.png","xmouse":[775,775,775,775,775,775,775,775,775,775,775,775,775,775,775,775,775,775,775,775,775,775,775,775,775,775,775,775,775,775,775,775,775,775,775,775,776,776,776,777,777,777,777,777,777,777,777,776,760,751,747,743,740,730,721,714,708,703,696,689,679,665,652,633,627,622,616,614,609,604,598,590,579,550,541,540,540,539,539,539,537,525,510],"ymouse":[494,494,494,494,494,494,494,494,494,494,494,494,494,494,494,494,494,494,494,494,494,494,494,494,494,494,494,494,494,494,494,494,494,494,494,494,492,492,491,490,489,489,488,487,487,485,482,478,468,462,458,449,437,401,371,347,326,304,273,253,237,215,192,149,133,122,111,108,104,103,101,101,101,101,101,101,101,101,101,101,100,95,88],"timestamp_mouse":[19,34,47,67,87,107,129,148,167,188,209,228,248,267,288,308,327,347,367,389,408,427,448,467,487,508,527,547,567,588,607,627,648,669,688,708,727,747,767,787,808,827,847,867,888,908,927,947,967,987,1007,1027,1049,1067,1087,1108,1127,1147,1168,1187,1207,1227,1248,1268,1287,1307,1328,1347,1368,1387,1408,1427,1448,1468,1487,1508,1527,1548,1567,1587,1607,1627,1648],"xSR":741.5,"ySR":469.95,"xT1":424.9,"yT1":0,"xT2":1058.1,"yT2":0,"toosoon":0,"cond_shown":"equaldotsize","ratio_trial":750,"smaller_num":"3","larger_num":"4","correct_side":1,"subjID":"davidestebanbayonamansilla28","gender":"0","age":"9","school":"4"},{"start_time":1552056110842,"click_time":1552056112297,"finger_time":1552056111676,"fix_duration":364.5061126698658,"trial":7,"RT":834,"MT":621,"sideResp":1,"stimulus":"img/750/equaldotanddens/L/10_Ratio_750_L_4_R_3.png","xmouse":[782,782,782,782,782,782,782,782,782,782,782,782,782,782,782,782,782,782,782,782,782,782,782,782,782,782,782,782,782,782,782,782,782,782,782,782,782,780,779,775,771,769,765,760,753,744,742,734,726,708,696,686,673,661,638,626,610,602,592,577,571,564,557,551,546,546,546,546,545,538,532,525,520],"ymouse":[500,500,500,500,500,500,500,500,500,500,500,500,500,500,500,500,500,500,500,500,500,500,500,500,500,500,500,500,500,500,500,500,500,500,500,498,496,493,490,480,471,460,446,429,390,358,351,326,309,275,258,243,226,211,179,163,141,129,118,94,84,76,69,65,63,63,63,63,63,63,63,63,63],"timestamp_mouse":[15,44,56,74,94,115,135,154,175,195,216,234,255,274,294,314,335,354,375,395,414,435,455,475,494,515,535,555,574,595,614,634,654,675,694,715,734,755,775,794,814,834,855,874,894,914,935,955,974,995,1014,1035,1054,1076,1095,1115,1134,1154,1174,1194,1214,1236,1256,1275,1294,1315,1334,1354,1374,1395,1414,1435,1454],"xSR":741.5,"ySR":469.95,"xT1":424.9,"yT1":0,"xT2":1058.1,"yT2":0,"toosoon":0,"cond_shown":"equaldotanddens","ratio_trial":750,"smaller_num":"3","larger_num":"4","correct_side":1,"subjID":"davidestebanbayonamansilla28","gender":"0","age":"9","school":"4"},{"start_time":1552056113811,"click_time":1552056114996,"finger_time":1552056114536,"fix_duration":633.9090859817494,"trial":8,"RT":725,"MT":460,"sideResp":2,"stimulus":"img/250/equaldotanddens/R/11_Ratio_250_L_3_R_12.png","xmouse":[822,822,822,822,822,822,822,822,822,822,822,822,822,822,822,822,822,822,822,822,822,822,822,822,822,822,822,822,822,822,822,825,827,830,832,836,851,862,880,908,923,946,955,962,970,976,984,987,992,999,1001,1009,1013,1019,1025,1032,1039,1061,1073,1083],"ymouse":[536,536,536,536,536,536,536,536,536,536,536,536,536,536,536,536,536,536,536,536,536,536,536,536,536,536,536,536,533,531,528,514,506,498,489,478,450,431,408,373,351,316,300,287,274,265,249,240,228,213,207,190,180,172,161,150,142,117,102,87],"timestamp_mouse":[12,34,45,66,86,105,126,145,165,186,205,225,245,265,285,306,325,347,365,386,406,425,445,465,487,505,526,546,565,585,605,626,645,666,686,705,725,745,767,786,805,826,845,865,886,906,925,946,967,985,1006,1025,1045,1066,1085,1105,1125,1145,1165,1185],"xSR":741.5,"ySR":469.95,"xT1":424.9,"yT1":0,"xT2":1058.1,"yT2":0,"toosoon":0,"cond_shown":"equaldotanddens","ratio_trial":250,"smaller_num":"3","larger_num":"12","correct_side":2,"subjID":"davidestebanbayonamansilla28","gender":"0","age":"9","school":"4"},{"start_time":1552056116288,"click_time":1552056117456,"finger_time":1552056117056,"fix_duration":250,"trial":9,"RT":768,"MT":400,"sideResp":2,"stimulus":"img/500/equaldotsize/R/1_Ratio_500_L_9_R_18.png","xmouse":[807,807,807,807,807,807,807,807,807,807,807,807,807,807,807,807,807,807,807,807,807,807,807,807,807,807,807,807,807,807,807,807,807,807,810,812,817,829,834,842,850,859,878,895,900,918,929,951,961,972,982,993,1018,1030,1047,1058,1071,1095,1104],"ymouse":[516,516,516,516,516,516,516,516,516,516,516,516,516,516,516,516,516,516,516,516,516,516,516,516,516,516,516,516,516,516,516,516,516,512,507,501,493,471,460,447,434,422,393,368,359,335,320,293,282,267,254,239,207,190,166,150,134,102,87],"timestamp_mouse":[9,38,49,70,88,109,130,149,168,190,209,229,248,268,289,309,328,349,368,388,409,430,449,468,489,508,528,548,568,589,608,629,649,668,688,709,729,749,768,789,808,828,849,868,889,908,928,949,968,989,1008,1028,1048,1070,1088,1110,1128,1148,1168],"xSR":741.5,"ySR":469.95,"xT1":424.9,"yT1":0,"xT2":1058.1,"yT2":0,"toosoon":0,"cond_shown":"equaldotsize","ratio_trial":500,"smaller_num":"9","larger_num":"18","correct_side":2,"subjID":"davidestebanbayonamansilla28","gender":"0","age":"9","school":"4"},{"start_time":1552056119687,"click_time":1552056121736,"finger_time":1552056121356,"fix_duration":1149.082241721398,"trial":10,"RT":1669,"MT":380,"sideResp":1,"stimulus":"img/900/equaldotsize/L/10_Ratio_900_L_20_R_18.png","xmouse":[811,811,811,811,811,811,811,811,811,811,811,811,811,811,811,811,811,811,811,811,811,811,811,811,811,811,811,811,811,811,811,811,811,811,811,811,811,811,811,811,812,812,814,816,817,818,818,820,820,821,822,823,824,825,826,827,828,828,828,828,828,828,828,828,828,828,828,828,828,828,827,826,820,817,812,810,807,804,803,801,799,790,747,712,641,610,593,586,585,583,583,583,583,582,581,580,576,554,537,522,508,492,464],"ymouse":[531,531,531,531,531,531,531,531,531,531,531,531,531,531,531,531,531,531,531,531,531,531,531,531,531,531,531,531,531,531,531,531,529,528,528,527,525,524,522,521,519,517,513,510,508,507,505,503,502,501,500,499,495,494,492,492,491,491,491,491,491,491,491,491,491,491,491,491,491,491,491,492,492,493,493,493,493,493,493,493,494,494,495,495,492,485,478,464,453,441,430,419,400,392,386,377,371,342,321,295,258,204,73],"timestamp_mouse":[12,30,49,69,90,110,129,150,170,190,210,230,249,270,290,309,329,350,369,390,409,429,449,469,489,509,529,549,569,589,609,630,649,669,689,709,730,750,769,790,809,829,849,870,889,909,929,949,969,990,1009,1029,1049,1070,1089,1110,1130,1150,1170,1189,1210,1230,1250,1270,1289,1310,1331,1350,1369,1389,1409,1430,1449,1470,1489,1510,1530,1549,1570,1590,1609,1629,1649,1669,1689,1710,1730,1750,1769,1789,1809,1829,1849,1870,1890,1909,1930,1949,1969,1989,2009,2029,2049],"xSR":741.5,"ySR":469.95,"xT1":424.9,"yT1":0,"xT2":1058.1,"yT2":0,"toosoon":0,"cond_shown":"equaldotsize","ratio_trial":900,"smaller_num":"18","larger_num":"20","correct_side":1,"subjID":"davidestebanbayonamansilla28","gender":"0","age":"9","school":"4"},{"start_time":1552056123297,"click_time":1552056125236,"finger_time":1552056124397,"fix_duration":359.2674089361504,"trial":11,"RT":1100,"MT":839,"sideResp":1,"stimulus":"img/500/equaldotsize/L/5_Ratio_500_L_4_R_2.png","xmouse":[818,818,818,818,818,818,818,818,818,818,818,818,818,818,818,818,818,818,818,817,817,817,817,817,817,817,817,817,817,817,817,817,817,817,817,817,817,816,816,814,813,812,809,809,805,804,803,803,803,803,803,803,802,798,788,773,735,719,709,702,694,668,655,641,624,616,610,602,598,591,578,557,458,422,406,405,405,405,405,405,405,405,405,406,407,410,415,417,418,419,419,420,420,420,420,422,431],"ymouse":[552,552,552,552,552,552,552,552,552,552,552,552,552,552,552,552,552,552,552,551,551,551,551,551,551,551,551,551,551,551,551,551,551,551,551,551,551,550,546,543,539,536,528,527,523,521,511,508,505,501,500,495,490,478,464,448,418,403,388,370,348,289,261,235,207,195,189,186,186,184,183,178,157,146,141,140,137,135,135,135,135,135,134,132,131,130,127,125,123,120,119,117,117,115,105,93,62],"timestamp_mouse":[19,39,60,79,99,120,140,161,180,199,220,239,261,281,299,319,339,359,380,400,419,439,459,481,500,519,540,560,579,600,619,639,660,679,699,719,739,759,780,799,820,839,859,879,900,920,939,959,979,999,1020,1039,1059,1079,1100,1119,1139,1160,1179,1200,1220,1239,1260,1279,1300,1319,1339,1359,1379,1400,1420,1439,1459,1479,1500,1519,1540,1560,1580,1599,1619,1640,1659,1680,1699,1719,1739,1759,1780,1799,1820,1839,1860,1880,1900,1920,1939],"xSR":741.5,"ySR":469.95,"xT1":424.9,"yT1":0,"xT2":1058.1,"yT2":0,"toosoon":0,"cond_shown":"equaldotsize","ratio_trial":500,"smaller_num":"2","larger_num":"4","correct_side":1,"subjID":"davidestebanbayonamansilla28","gender":"0","age":"9","school":"4"},{"start_time":1552056131459,"click_time":1552056134297,"finger_time":1552056132656,"fix_duration":1459.7450497761815,"trial":12,"RT":1197,"MT":1641,"sideResp":1,"stimulus":"img/750/randomdotsizeEA/R/11_Ratio_750_L_12_R_16.png","xmouse":[767,767,767,767,767,767,767,767,767,767,767,767,767,767,767,767,767,767,767,767,767,767,767,767,767,767,767,767,767,767,767,767,767,767,767,767,768,768,768,768,768,768,768,768,768,768,768,768,768,768,768,767,765,764,761,760,757,754,747,741,736,731,727,725,720,710,706,701,683,673,660,648,637,628,627,626,625,623,622,619,617,613,609,604,599,596,595,591,584,579,573,567,563,557,555,554,552,551,549,546,542,539,539,537,536,536,534,531,528,527,523,521,518,515,515,513,513,513,513,513,513,513,513,513,513,513,513,513,513,513,513,513,513,513,513,513,513,513,513,513,513,513],"ymouse":[509,509,509,509,509,509,509,509,509,509,509,509,509,509,509,509,509,509,509,509,509,509,509,509,509,509,509,509,509,509,509,509,509,509,509,509,509,509,509,509,509,509,509,509,509,509,509,509,509,509,509,508,505,504,502,502,499,496,481,468,459,449,445,442,437,431,427,419,396,386,377,370,365,360,359,357,356,352,348,344,341,335,327,318,302,285,273,261,239,228,216,205,198,189,186,183,181,179,172,168,163,159,157,152,150,148,146,143,136,134,129,125,120,113,111,108,107,107,106,106,106,106,106,106,106,106,106,106,106,106,106,106,106,106,106,106,106,106,104,102,100,98],"timestamp_mouse":[18,38,58,77,97,117,138,157,177,198,218,238,257,278,299,318,338,357,377,397,417,438,458,478,498,518,537,559,577,598,617,637,658,678,698,717,738,757,777,797,818,839,858,879,898,919,937,958,978,998,1018,1037,1057,1077,1097,1118,1137,1158,1177,1197,1217,1238,1258,1277,1297,1317,1337,1358,1377,1397,1417,1438,1457,1478,1499,1517,1537,1557,1578,1597,1617,1638,1658,1677,1697,1717,1738,1757,1778,1797,1817,1838,1857,1878,1897,1917,1938,1957,1978,1998,2017,2037,2071,2078,2098,2117,2138,2157,2177,2197,2218,2237,2257,2278,2299,2318,2338,2357,2377,2397,2418,2437,2457,2477,2497,2517,2538,2558,2577,2597,2617,2637,2658,2677,2697,2717,2738,2758,2777,2797,2817,2837],"xSR":741.5,"ySR":469.95,"xT1":424.9,"yT1":0,"xT2":1058.1,"yT2":0,"toosoon":0,"cond_shown":"randomdotsizeEA","ratio_trial":750,"smaller_num":"12","larger_num":"16","correct_side":2,"subjID":"davidestebanbayonamansilla28","gender":"0","age":"9","school":"4"},{"start_time":1552056136371,"click_time":1552056137737,"finger_time":1552056137196,"fix_duration":713.5948671872882,"trial":13,"RT":825,"MT":541,"sideResp":2,"stimulus":"img/900/equaldotsize/R/7_Ratio_900_L_9_R_10.png","xmouse":[811,810,810,810,810,810,810,810,810,810,810,810,810,810,810,810,810,810,810,810,810,810,810,810,810,810,810,810,810,810,810,810,810,810,810,810,810,810,809,808,808,808,808,814,819,825,829,833,840,843,845,845,847,848,854,859,867,878,922,955,998,1016,1030,1054,1068,1082,1092,1101,1117],"ymouse":[488,488,488,488,488,488,488,488,488,488,488,488,488,488,488,488,488,488,488,488,488,488,488,488,488,488,488,488,488,488,488,488,488,488,488,484,482,480,474,471,470,465,461,446,437,428,420,413,402,397,393,391,387,382,369,361,348,334,300,277,243,226,208,172,157,140,124,109,84],"timestamp_mouse":[14,33,45,67,85,105,126,146,165,185,206,226,246,266,286,305,327,345,366,385,405,426,445,465,486,505,525,545,565,585,605,626,646,666,686,706,725,746,765,787,805,825,845,865,885,907,925,945,965,985,1005,1025,1045,1065,1085,1105,1125,1146,1165,1186,1205,1226,1246,1265,1285,1305,1326,1346,1366],"xSR":741.5,"ySR":469.95,"xT1":424.9,"yT1":0,"xT2":1058.1,"yT2":0,"toosoon":0,"cond_shown":"equaldotsize","ratio_trial":900,"smaller_num":"9","larger_num":"10","correct_side":2,"subjID":"davidestebanbayonamansilla28","gender":"0","age":"9","school":"4"},{"start_time":1552056140794,"click_time":1552056142255,"finger_time":1552056141596,"fix_duration":796.059613492024,"trial":14,"RT":802,"MT":659,"sideResp":1,"stimulus":"img/500/equaldotsize/L/11_Ratio_500_L_12_R_6.png","xmouse":[820,820,820,820,820,820,820,820,820,820,820,820,820,820,820,820,820,820,820,820,820,820,820,820,820,820,820,820,819,819,819,818,816,813,809,804,798,788,781,772,765,758,743,735,725,714,702,680,669,660,649,643,631,623,613,600,586,561,551,544,538,535,528,526,523,522,521,517,515,512,509,507,502,498],"ymouse":[541,541,541,541,541,541,541,541,541,541,541,541,541,541,541,541,541,541,541,541,541,541,541,541,541,541,541,541,541,541,541,541,541,535,529,520,512,498,490,478,468,459,438,428,417,405,393,368,357,349,335,328,312,301,288,273,257,226,208,196,188,179,166,160,155,149,145,136,133,126,121,117,105,99],"timestamp_mouse":[9,20,44,62,82,101,121,142,161,180,202,221,241,261,281,301,322,341,361,381,402,422,441,462,482,500,521,541,562,581,601,621,641,661,681,702,721,740,761,781,802,821,841,861,881,900,921,940,962,981,1001,1021,1041,1061,1081,1101,1121,1141,1162,1181,1201,1221,1241,1261,1281,1300,1321,1340,1361,1381,1401,1421,1441,1461],"xSR":741.5,"ySR":469.95,"xT1":424.9,"yT1":0,"xT2":1058.1,"yT2":0,"toosoon":0,"cond_shown":"equaldotsize","ratio_trial":500,"smaller_num":"6","larger_num":"12","correct_side":1,"subjID":"davidestebanbayonamansilla28","gender":"0","age":"9","school":"4"},{"start_time":1552056144473,"click_time":1552056145516,"finger_time":1552056145315,"fix_duration":1236.8781881308735,"trial":15,"RT":842,"MT":201,"sideResp":1,"stimulus":"img/900/equaldotsize/L/1_Ratio_900_L_10_R_9.png","xmouse":[802,802,802,802,802,802,802,802,802,802,802,802,802,802,802,802,802,802,802,802,802,802,802,802,802,802,802,802,802,802,802,802,802,802,802,802,801,795,778,770,763,755,745,724,714,701,692,680,637,602,564,530,505],"ymouse":[519,519,519,519,519,519,519,519,519,519,519,519,519,519,519,519,519,519,519,519,519,519,519,519,519,519,519,519,519,519,519,519,519,519,519,519,518,514,503,497,487,478,461,430,414,391,375,357,276,222,172,127,89],"timestamp_mouse":[9,22,46,62,82,103,122,141,163,182,202,223,242,263,282,302,323,342,361,383,403,422,442,463,482,503,521,541,562,583,602,622,643,662,683,703,723,742,762,782,803,823,842,863,881,902,922,942,962,981,1002,1022,1043],"xSR":741.5,"ySR":469.95,"xT1":424.9,"yT1":0,"xT2":1058.1,"yT2":0,"toosoon":0,"cond_shown":"equaldotsize","ratio_trial":900,"smaller_num":"9","larger_num":"10","correct_side":1,"subjID":"davidestebanbayonamansilla28","gender":"0","age":"9","school":"4"},{"start_time":1552056146746,"click_time":1552056148594,"finger_time":1552056147834,"fix_duration":250,"trial":16,"RT":1088,"MT":760,"sideResp":1,"stimulus":"img/500/randomdotsizeEA/L/8_Ratio_500_L_8_R_4.png","xmouse":[822,822,822,822,822,822,822,822,822,822,822,822,822,822,822,822,822,822,822,822,822,822,822,822,822,821,821,821,821,821,821,821,821,821,821,821,821,821,821,821,821,821,821,821,821,821,821,821,820,820,819,819,817,817,815,814,812,810,809,805,803,798,791,784,764,752,740,726,716,705,701,699,690,677,645,629,614,600,586,565,550,545,526,515,499,494,491,489,487,484,482,480,477],"ymouse":[483,483,483,483,483,483,483,483,483,483,483,483,483,483,483,483,483,483,483,483,483,483,483,483,483,483,483,483,483,483,483,483,483,482,482,482,481,481,481,481,480,480,480,480,480,480,480,480,480,480,478,477,473,471,468,467,465,463,460,454,444,424,407,389,344,320,300,280,268,253,248,246,238,231,217,209,203,197,191,176,166,163,152,145,133,129,124,120,117,110,106,102,99],"timestamp_mouse":[12,33,49,70,88,110,129,150,170,189,209,229,249,268,289,309,329,350,368,390,410,430,450,469,489,510,530,549,570,589,610,629,649,670,689,710,730,750,769,788,810,830,848,870,889,908,928,949,968,988,1008,1029,1049,1068,1088,1109,1129,1148,1170,1189,1209,1229,1249,1269,1289,1309,1330,1349,1368,1388,1409,1429,1449,1469,1489,1509,1529,1548,1569,1589,1609,1629,1650,1668,1689,1709,1730,1749,1769,1788,1809,1829,1848],"xSR":741.5,"ySR":469.95,"xT1":424.9,"yT1":0,"xT2":1058.1,"yT2":0,"toosoon":0,"cond_shown":"randomdotsizeEA","ratio_trial":500,"smaller_num":"4","larger_num":"8","correct_side":1,"subjID":"davidestebanbayonamansilla28","gender":"0","age":"9","school":"4"},{"start_time":1552056150022,"click_time":1552056151435,"finger_time":1552056150815,"fix_duration":384.26499672909256,"trial":17,"RT":793,"MT":620,"sideResp":2,"stimulus":"img/250/equaldotanddens/R/6_Ratio_250_L_6_R_24.png","xmouse":[782,782,782,782,783,783,783,783,783,783,783,783,783,783,783,783,783,783,783,783,783,783,783,783,783,783,783,783,783,783,783,783,783,784,784,786,790,800,810,820,833,839,847,856,867,887,895,911,921,931,953,967,978,986,992,1000,1002,1004,1007,1009,1013,1015,1018,1021,1024,1033,1041,1046,1052,1056,1069],"ymouse":[513,513,513,513,513,513,513,513,513,513,513,513,513,513,513,513,513,513,513,513,513,513,513,513,513,513,513,513,513,513,513,513,513,511,509,507,503,490,477,461,430,415,396,375,355,325,309,286,270,257,228,212,200,192,189,187,187,186,186,186,184,182,179,176,172,156,141,134,123,114,89],"timestamp_mouse":[18,34,53,73,92,113,133,154,172,192,213,233,252,273,293,314,333,353,374,393,414,433,453,473,493,514,533,552,572,594,614,633,654,674,693,713,734,753,773,793,813,832,853,873,893,913,932,953,974,993,1013,1033,1053,1072,1093,1114,1134,1153,1173,1193,1213,1232,1254,1273,1294,1313,1333,1353,1374,1392,1413],"xSR":741.5,"ySR":469.95,"xT1":424.9,"yT1":0,"xT2":1058.1,"yT2":0,"toosoon":0,"cond_shown":"equaldotanddens","ratio_trial":250,"smaller_num":"6","larger_num":"24","correct_side":2,"subjID":"davidestebanbayonamansilla28","gender":"0","age":"9","school":"4"},{"start_time":1552056153290,"click_time":1552056154894,"finger_time":1552056154135,"fix_duration":753.0592929569207,"trial":18,"RT":845,"MT":759,"sideResp":1,"stimulus":"img/900/equaldotanddens/L/10_Ratio_900_L_20_R_18.png","xmouse":[803,803,803,803,803,803,803,803,803,803,803,803,803,803,803,803,803,803,803,803,803,803,803,803,803,803,803,803,802,802,801,800,799,798,796,793,791,788,786,783,781,777,770,765,760,754,751,744,741,738,735,733,729,720,716,710,705,691,682,674,665,655,645,623,602,590,577,555,545,538,532,532,532,532,532,532,532,532,532,517,517],"ymouse":[541,541,541,541,541,541,541,541,541,541,541,541,541,541,541,541,541,541,541,541,541,541,541,541,541,541,541,541,541,541,540,538,536,532,529,521,516,504,499,493,487,481,466,455,440,429,420,404,398,392,388,383,377,358,348,338,326,299,282,265,249,228,206,158,121,97,75,38,21,9,0,0,0,0,0,0,0,0,0,0,3],"timestamp_mouse":[13,25,45,65,85,106,124,145,165,184,206,225,246,265,284,305,325,346,365,386,405,425,444,466,485,505,524,545,565,585,606,624,645,666,685,705,724,745,765,785,804,824,845,865,885,904,924,945,964,985,1005,1026,1045,1065,1085,1106,1125,1146,1165,1184,1205,1224,1245,1265,1285,1304,1325,1345,1365,1385,1405,1424,1444,1465,1485,1504,1525,1544,1564,1585,1604],"xSR":741.5,"ySR":469.95,"xT1":424.9,"yT1":0,"xT2":1058.1,"yT2":0,"toosoon":0,"cond_shown":"equaldotanddens","ratio_trial":900,"smaller_num":"18","larger_num":"20","correct_side":1,"subjID":"davidestebanbayonamansilla28","gender":"0","age":"9","school":"4"},{"start_time":1552056157305,"click_time":1552056158855,"finger_time":1552056158234,"fix_duration":1347.3440666367464,"trial":19,"RT":929,"MT":621,"sideResp":1,"stimulus":"img/250/randomdotsizeEA/L/5_Ratio_250_L_24_R_6.png","xmouse":[816,816,816,816,816,816,816,816,816,816,816,816,816,816,816,816,816,816,816,816,816,816,816,816,816,816,816,816,816,816,816,816,816,816,816,816,816,816,816,816,816,816,816,816,816,815,804,796,786,782,778,766,748,743,712,699,666,652,636,620,599,554,538,525,511,504,490,485,481,479,477,477,477,477,477,477,477,477],"ymouse":[531,531,531,531,531,531,531,531,531,531,531,531,531,531,531,531,531,531,531,531,531,531,531,531,531,531,531,531,531,531,531,531,531,531,531,531,529,527,524,521,517,506,497,491,481,472,438,416,398,380,366,339,322,319,306,300,286,276,266,254,239,206,195,181,164,152,132,125,119,114,111,109,108,108,107,106,103,99],"timestamp_mouse":[12,32,51,69,91,111,131,150,170,189,210,231,251,270,291,310,329,349,371,390,410,429,451,470,490,511,530,551,570,589,611,630,650,669,690,710,730,750,771,790,810,830,850,869,890,910,929,950,969,991,1010,1030,1050,1069,1090,1110,1130,1149,1169,1190,1210,1230,1250,1270,1291,1310,1330,1350,1369,1389,1409,1430,1450,1478,1490,1511,1530,1549],"xSR":741.5,"ySR":469.95,"xT1":424.9,"yT1":0,"xT2":1058.1,"yT2":0,"toosoon":0,"cond_shown":"randomdotsizeEA","ratio_trial":250,"smaller_num":"6","larger_num":"24","correct_side":1,"subjID":"davidestebanbayonamansilla28","gender":"0","age":"9","school":"4"},{"start_time":1552056160399,"click_time":1552056162175,"finger_time":1552056161334,"fix_duration":581.7670269699705,"trial":20,"RT":935,"MT":841,"sideResp":2,"stimulus":"img/750/randomdotsizeEA/R/12_Ratio_750_L_3_R_4.png","xmouse":[795,795,795,795,795,795,795,795,795,795,795,795,795,794,794,794,794,794,794,794,794,794,794,794,794,794,794,794,794,794,794,794,794,794,794,794,794,794,794,794,794,794,794,793,793,793,802,809,812,813,813,813,814,815,817,820,825,827,832,835,838,851,859,868,878,889,914,932,942,953,964,979,986,992,997,1001,1008,1013,1016,1019,1021,1024,1029,1033,1038,1042,1051,1058,1068],"ymouse":[501,501,501,501,501,501,501,501,501,501,501,501,501,501,501,501,501,501,501,501,501,501,501,501,501,501,501,501,501,501,501,501,501,501,501,501,501,501,501,501,501,501,501,501,498,493,468,453,440,436,436,434,433,432,427,423,414,409,402,398,392,377,370,359,345,332,299,275,260,244,231,205,195,187,180,174,167,161,159,158,155,153,148,144,139,133,118,107,87],"timestamp_mouse":[16,37,56,77,97,116,137,157,175,196,217,235,256,276,297,316,336,356,377,395,417,437,457,475,496,517,536,556,576,597,616,636,657,676,696,716,736,756,775,795,815,836,856,875,895,915,935,956,976,996,1016,1036,1056,1075,1097,1116,1136,1156,1176,1196,1216,1236,1255,1276,1297,1317,1336,1355,1376,1396,1416,1436,1457,1476,1496,1517,1536,1556,1576,1596,1616,1636,1655,1677,1696,1716,1736,1756,1776],"xSR":741.5,"ySR":469.95,"xT1":424.9,"yT1":0,"xT2":1058.1,"yT2":0,"toosoon":0,"cond_shown":"randomdotsizeEA","ratio_trial":750,"smaller_num":"3","larger_num":"4","correct_side":2,"subjID":"davidestebanbayonamansilla28","gender":"0","age":"9","school":"4"},{"start_time":1552056164129,"click_time":1552056165535,"finger_time":1552056164935,"fix_duration":332.10177586010803,"trial":21,"RT":806,"MT":600,"sideResp":2,"stimulus":"img/500/equaldotsize/R/3_Ratio_500_L_10_R_20.png","xmouse":[817,817,816,815,813,813,812,812,812,812,812,812,812,812,812,812,812,812,812,812,812,812,812,812,812,812,812,812,812,812,812,812,812,812,812,812,813,814,817,822,833,842,845,856,862,878,888,900,911,929,971,986,1000,1005,1006,1009,1014,1019,1024,1026,1028,1028,1029,1029,1030,1032,1035,1039,1045,1057,1067],"ymouse":[531,531,531,530,529,527,526,526,526,526,526,526,526,526,526,526,526,526,526,526,526,526,526,526,526,526,526,526,526,526,526,526,526,526,526,523,520,517,509,499,463,431,419,391,370,329,306,287,263,230,156,130,106,100,99,99,103,104,105,105,105,105,105,105,105,103,97,91,81,69,56],"timestamp_mouse":[12,33,46,66,86,106,127,146,167,185,206,226,246,266,287,306,326,347,366,386,406,425,445,466,487,506,526,545,567,585,606,627,645,666,686,706,726,746,766,786,806,826,846,866,886,906,926,945,965,986,1006,1025,1046,1066,1086,1106,1125,1147,1166,1186,1206,1225,1247,1267,1286,1306,1327,1347,1366,1386,1406],"xSR":741.5,"ySR":469.95,"xT1":424.9,"yT1":0,"xT2":1058.1,"yT2":0,"toosoon":0,"cond_shown":"equaldotsize","ratio_trial":500,"smaller_num":"10","larger_num":"20","correct_side":2,"subjID":"davidestebanbayonamansilla28","gender":"0","age":"9","school":"4"},{"start_time":1552056167786,"click_time":1552056169036,"finger_time":1552056168556,"fix_duration":1268.2034485423492,"trial":22,"RT":770,"MT":480,"sideResp":2,"stimulus":"img/750/equaldotanddens/R/5_Ratio_750_L_15_R_20.png","xmouse":[798,798,798,798,798,798,798,798,798,798,798,798,798,798,798,798,798,798,798,798,798,798,798,798,798,798,798,798,798,798,798,798,798,800,804,812,819,836,859,876,893,911,943,961,985,1012,1033,1050,1072,1083,1088,1092,1095,1095,1096,1096,1096,1096,1096,1096,1096,1096,1094],"ymouse":[527,527,527,527,527,527,527,527,527,527,527,527,527,527,527,527,527,527,527,527,527,527,527,527,527,527,527,527,527,527,527,527,527,526,522,517,512,500,479,464,445,423,377,350,317,280,245,213,176,157,148,141,137,135,135,133,132,126,122,115,108,100,77],"timestamp_mouse":[14,30,49,69,89,109,129,149,168,189,210,228,249,270,290,310,329,349,369,388,409,430,450,468,490,510,529,549,570,588,610,629,649,669,688,709,728,749,770,789,809,828,849,869,889,909,928,948,969,989,1009,1029,1049,1068,1090,1110,1129,1149,1170,1188,1209,1229,1250],"xSR":741.5,"ySR":469.95,"xT1":424.9,"yT1":0,"xT2":1058.1,"yT2":0,"toosoon":0,"cond_shown":"equaldotanddens","ratio_trial":750,"smaller_num":"15","larger_num":"20","correct_side":2,"subjID":"davidestebanbayonamansilla28","gender":"0","age":"9","school":"4"},{"start_time":1552056171880,"click_time":1552056173895,"finger_time":1552056172975,"fix_duration":1244.756665693044,"trial":23,"RT":1095,"MT":920,"sideResp":2,"stimulus":"img/750/equaldotanddens/R/15_Ratio_750_L_9_R_12.png","xmouse":[797,797,797,797,797,797,797,797,797,796,796,796,796,795,795,795,794,794,794,794,793,793,793,792,792,792,792,792,792,792,791,791,791,791,791,791,791,791,791,791,791,791,791,791,792,792,792,792,792,794,795,798,804,810,821,829,838,850,855,860,867,874,889,897,911,919,929,940,948,958,967,976,992,1000,1010,1014,1016,1021,1021,1023,1026,1030,1049,1061,1066,1068,1068,1059,1059,1060,1060,1062,1063,1063,1063,1063,1064,1064,1064,1064,1066],"ymouse":[504,504,504,504,504,504,504,504,504,504,504,504,504,503,502,502,501,501,501,501,501,501,500,499,499,499,499,499,499,498,497,497,497,497,497,497,496,496,496,496,496,496,496,495,492,491,491,491,491,490,489,487,480,474,463,455,444,427,418,413,405,399,387,380,368,361,356,345,338,324,312,299,281,272,264,263,262,262,262,262,260,257,248,240,236,227,209,167,152,130,123,113,104,102,102,102,102,101,100,100,99],"timestamp_mouse":[15,45,55,76,96,114,136,155,174,196,216,235,255,275,295,315,335,355,375,395,414,436,455,475,495,516,535,556,576,596,616,636,655,675,695,715,735,755,776,795,814,836,855,875,894,916,936,954,976,994,1014,1036,1055,1075,1095,1115,1135,1155,1175,1195,1215,1235,1255,1275,1295,1315,1335,1354,1375,1396,1415,1435,1455,1476,1495,1515,1535,1555,1575,1595,1614,1635,1655,1674,1695,1715,1735,1755,1774,1796,1815,1835,1855,1875,1896,1916,1935,1956,1976,1996,2015],"xSR":741.5,"ySR":469.95,"xT1":424.9,"yT1":0,"xT2":1058.1,"yT2":0,"toosoon":0,"cond_shown":"equaldotanddens","ratio_trial":750,"smaller_num":"9","larger_num":"12","correct_side":2,"subjID":"davidestebanbayonamansilla28","gender":"0","age":"9","school":"4"},{"start_time":1552056176100,"click_time":1552056178175,"finger_time":1552056177135,"fix_duration":1084.7712828335666,"trial":24,"RT":1035,"MT":1040,"sideResp":2,"stimulus":"img/750/randomdotsizeEA/R/2_Ratio_750_L_6_R_8.png","xmouse":[780,780,780,780,780,780,780,780,780,780,780,780,780,780,780,780,780,780,780,780,780,780,780,780,780,780,780,780,780,780,780,780,780,780,780,780,780,780,780,780,780,780,780,781,783,784,788,791,797,804,812,838,844,863,872,879,893,898,901,902,903,903,903,903,903,903,903,903,903,903,903,903,903,903,903,903,903,903,903,903,903,903,903,903,903,901,898,898,898,898,898,907,925,955,978,996,1009,1027,1035,1038,1042,1050,1055,1064],"ymouse":[556,556,556,556,556,556,556,556,556,556,556,556,556,556,556,556,556,556,556,556,556,556,556,556,556,556,556,556,556,556,556,556,556,556,556,556,556,556,556,556,555,552,547,543,538,534,522,518,508,495,482,438,428,399,385,373,355,348,343,339,337,336,336,336,336,336,336,336,336,336,336,336,336,336,336,336,336,336,336,336,336,336,336,336,336,336,336,336,336,336,336,325,314,296,281,265,252,232,224,215,199,151,121,56],"timestamp_mouse":[16,35,55,76,95,115,134,155,176,196,214,235,254,275,295,316,334,355,375,396,415,435,455,474,496,515,535,556,576,596,615,635,655,675,696,716,736,756,775,795,816,835,856,874,895,914,935,954,975,995,1016,1035,1056,1075,1095,1115,1135,1155,1175,1195,1215,1235,1256,1275,1296,1314,1335,1356,1376,1396,1416,1435,1456,1476,1496,1515,1535,1556,1575,1595,1615,1635,1656,1675,1695,1715,1735,1756,1775,1795,1816,1834,1856,1874,1896,1915,1934,1954,1975,1994,2014,2035,2056,2075],"xSR":741.5,"ySR":469.95,"xT1":424.9,"yT1":0,"xT2":1058.1,"yT2":0,"toosoon":0,"cond_shown":"randomdotsizeEA","ratio_trial":750,"smaller_num":"6","larger_num":"8","correct_side":2,"subjID":"davidestebanbayonamansilla28","gender":"0","age":"9","school":"4"},{"start_time":1552056180645,"click_time":1552056186756,"finger_time":1552056181555,"fix_duration":887.1844370617664,"trial":25,"RT":910,"MT":5201,"sideResp":2,"stimulus":"img/900/randomdotsizeEA/R/13_Ratio_900_L_18_R_20.png","xmouse":[810,810,810,810,810,810,810,810,810,810,810,810,810,810,810,810,810,810,810,810,810,810,810,810,810,810,810,810,810,810,810,810,810,810,810,810,810,810,810,810,810,811,813,816,832,846,872,890,906,921,927,931,935,940,949,953,963,968,976,990,997,1002,1007,1010,1016,1019,1021,1022,1023,1024,1025,1025,1025,1025,1025,1025,1025,1025,1025,1025,1025,1025,1025,1020,1013,1002,1001,1001,1000,992,989,985,981,974,963,956,948,943,939,927,919,906,894,880,850,835,819,794,780,753,744,734,726,715,704,681,670,664,659,651,647,643,639,636,633,627,625,622,620,617,613,612,610,610,609,609,609,610,613,628,641,660,678,692,724,763,813,892,970,1032,1035,1036,1036,1036,1036,1036,1036,1036,1034,1030,1028,1027,1026,1024,1016,1004,968,924,849,675,589,532,506,489,479,478,478,478,478,478,477,476,475,475,472,472,472,472,472,472,482,552,649,774,1039,1142,1152,1152,1152,1152,1152,1152,1152,1152,1152,1152,1152,1152,1152,1152,1142,1122,1090,1032,813,684,548,458,457,482,558,702,881,1069,1255,1258,1258,1252,1218,965,768,568,409,325,316,320,455,625,776,921,926,926,926,906,646,411,77,0,1,136,282,455,655,838,1065,1095,1098,1096,1079,936,764,550,372,277,267,289,515,785,1105,1550,1550,1550,1550,1565,1085,700,323,37,33,220,450,773,1104,1385,1504,1480,1173,759,234,0,1,95,329,693,1092,1580,1574,1467,1203,358,56,0,13,118,702,1125],"ymouse":[518,518,518,518,518,518,518,518,518,518,518,518,518,518,518,518,518,518,518,518,518,518,518,518,518,518,518,518,518,518,518,518,518,518,518,518,518,518,518,516,514,510,507,503,487,477,455,439,422,400,390,385,381,374,365,359,348,340,331,309,301,291,286,280,271,268,264,262,260,257,255,255,255,255,255,254,254,254,254,254,254,254,254,251,249,247,247,247,247,245,245,245,244,243,238,236,232,230,228,224,221,217,214,212,207,206,204,200,198,198,198,198,198,198,198,197,195,195,193,192,192,191,190,187,185,181,176,172,168,161,153,150,146,144,144,144,144,143,145,154,160,167,172,175,179,179,179,179,179,178,177,176,176,176,176,176,176,176,176,175,175,175,175,175,175,176,192,207,225,251,256,256,256,256,252,252,251,251,251,251,251,249,248,248,248,248,248,248,248,248,246,241,239,239,239,239,239,239,239,239,239,239,239,239,239,239,239,239,239,239,239,239,239,239,239,239,239,239,239,237,226,215,215,215,230,231,232,236,239,247,247,247,247,247,247,245,212,186,164,139,139,139,139,142,146,146,146,146,148,148,148,148,148,174,215,227,229,234,237,256,273,282,285,285,285,285,285,285,285,285,285,285,285,285,285,283,283,283,283,268,262,262,262,259,257,256,256,256,256,256,256,256,256,256,260,298,303,319,324,324,324,314,301,255,151,92],"timestamp_mouse":[13,34,51,71,90,110,130,151,169,190,211,230,249,270,289,310,331,350,370,389,410,430,450,470,490,509,530,551,570,590,610,630,650,670,690,709,731,751,770,789,810,831,851,870,889,910,929,950,971,990,1010,1030,1050,1069,1090,1111,1130,1151,1170,1190,1210,1229,1249,1270,1290,1310,1330,1350,1370,1390,1410,1430,1451,1471,1490,1511,1530,1551,1571,1591,1610,1631,1649,1669,1690,1710,1730,1750,1770,1790,1810,1830,1850,1871,1891,1911,1930,1950,1970,1990,2010,2030,2050,2071,2090,2111,2131,2150,2170,2190,2210,2230,2250,2270,2290,2310,2330,2351,2370,2390,2409,2430,2449,2470,2490,2511,2530,2550,2570,2590,2610,2629,2649,2671,2691,2711,2731,2750,2770,2790,2811,2830,2850,2870,2890,2910,2930,2951,2970,2990,3009,3030,3050,3071,3090,3111,3130,3149,3169,3190,3211,3230,3251,3271,3290,3309,3329,3349,3370,3391,3410,3431,3450,3470,3490,3510,3530,3550,3570,3590,3609,3630,3650,3671,3690,3711,3731,3751,3771,3790,3809,3830,3849,3871,3890,3909,3930,3950,3970,3990,4011,4030,4050,4071,4090,4110,4130,4150,4171,4190,4210,4230,4250,4269,4290,4311,4330,4350,4369,4391,4410,4429,4450,4470,4489,4509,4529,4550,4570,4589,4610,4630,4649,4670,4690,4710,4730,4751,4770,4790,4810,4830,4849,4870,4890,4911,4930,4951,4970,4990,5009,5030,5050,5070,5090,5111,5131,5150,5170,5190,5210,5231,5250,5270,5290,5310,5330,5350,5370,5389,5409,5431,5450,5470,5490,5509,5530,5551,5571,5590,5610,5631,5651,5670,5690,5710,5729,5751,5771,5790,5809,5830,5849,5871,5890,5910,5930,5949,5970,5990,6009,6029,6049,6070,6090,6111],"xSR":741.5,"ySR":469.95,"xT1":424.9,"yT1":0,"xT2":1058.1,"yT2":0,"toosoon":0,"cond_shown":"randomdotsizeEA","ratio_trial":900,"smaller_num":"18","larger_num":"20","correct_side":2,"subjID":"davidestebanbayonamansilla28","gender":"0","age":"9","school":"4"},{"start_time":1552056189751,"click_time":1552056191035,"finger_time":1552056190615,"fix_duration":1354.269824050306,"trial":26,"RT":864,"MT":420,"sideResp":2,"stimulus":"img/250/randomdotsizeEA/R/11_Ratio_250_L_3_R_12.png","xmouse":[773,773,773,774,774,774,774,775,775,776,776,776,776,776,777,777,777,777,778,778,778,778,778,778,778,778,778,778,778,778,778,778,778,778,778,778,778,778,780,784,793,805,828,849,882,897,910,924,934,956,970,990,1002,1011,1029,1033,1039,1042,1044,1051,1054,1058,1062,1069,1085],"ymouse":[529,529,529,528,528,528,528,527,527,526,526,526,526,526,525,525,525,525,524,524,524,524,524,524,524,524,524,524,524,524,524,524,524,524,524,524,524,524,521,516,508,499,479,462,429,409,390,370,352,310,289,259,240,225,195,186,178,173,166,155,149,140,131,121,97],"timestamp_mouse":[11,23,43,63,85,105,123,143,165,184,203,223,244,265,284,304,325,344,363,384,405,423,444,465,485,504,524,545,564,584,605,624,644,664,684,704,724,744,764,784,804,824,844,864,884,904,925,943,965,984,1005,1024,1044,1064,1085,1104,1124,1144,1165,1184,1203,1224,1244,1265,1284],"xSR":741.5,"ySR":469.95,"xT1":424.9,"yT1":0,"xT2":1058.1,"yT2":0,"toosoon":0,"cond_shown":"randomdotsizeEA","ratio_trial":250,"smaller_num":"3","larger_num":"12","correct_side":2,"subjID":"davidestebanbayonamansilla28","gender":"0","age":"9","school":"4"},{"start_time":1552056193051,"click_time":1552056195015,"finger_time":1552056193795,"fix_duration":1253.832873219862,"trial":27,"RT":744,"MT":1220,"sideResp":1,"stimulus":"img/250/randomdotsizeEA/L/1_Ratio_250_L_8_R_2.png","xmouse":[820,820,820,820,820,820,820,820,820,820,820,820,820,820,820,820,820,820,820,820,820,820,820,820,820,820,820,820,820,820,820,820,820,819,816,811,808,803,792,751,734,722,712,708,704,700,686,672,647,607,597,593,591,591,591,591,591,591,591,591,591,591,591,591,591,591,591,591,591,591,590,588,588,587,587,587,587,587,586,585,585,584,583,581,580,579,574,572,570,564,561,558,555,551,545,542,537,528,522],"ymouse":[523,523,523,523,523,523,523,523,523,523,523,523,523,523,523,523,523,523,523,523,523,523,523,523,523,523,523,523,523,523,523,523,523,523,521,510,491,468,438,361,341,329,322,320,319,319,314,307,297,275,265,257,247,237,215,207,205,205,205,205,205,205,205,205,205,205,205,205,205,204,203,202,202,201,201,201,201,201,201,199,199,198,196,194,193,191,186,182,177,167,161,157,151,146,136,131,122,107,97],"timestamp_mouse":[9,23,44,65,84,104,125,145,165,184,204,225,245,265,284,304,324,344,365,385,405,424,443,465,485,504,524,544,564,584,603,623,643,663,684,704,723,744,764,784,803,823,844,864,884,904,923,945,964,983,1004,1023,1044,1064,1083,1104,1125,1145,1165,1183,1205,1224,1245,1265,1284,1305,1324,1344,1364,1384,1404,1424,1445,1465,1484,1504,1524,1544,1564,1584,1604,1625,1643,1665,1684,1705,1724,1744,1763,1783,1804,1825,1844,1863,1884,1904,1925,1943,1964],"xSR":741.5,"ySR":469.95,"xT1":424.9,"yT1":0,"xT2":1058.1,"yT2":0,"toosoon":0,"cond_shown":"randomdotsizeEA","ratio_trial":250,"smaller_num":"2","larger_num":"8","correct_side":1,"subjID":"davidestebanbayonamansilla28","gender":"0","age":"9","school":"4"},{"start_time":1552056199347,"click_time":1552056200535,"finger_time":1552056200175,"fix_duration":770.0927306632033,"trial":28,"RT":828,"MT":360,"sideResp":2,"stimulus":"img/900/equaldotanddens/R/13_Ratio_900_L_18_R_20.png","xmouse":[780,780,780,780,780,780,780,780,781,781,781,781,781,781,781,781,781,781,781,781,781,781,781,781,781,781,781,781,781,781,781,781,781,781,781,781,783,784,787,795,803,822,833,840,854,862,870,881,891,908,920,927,937,949,978,996,1011,1027,1042,1070],"ymouse":[493,493,493,493,493,493,493,493,493,493,493,493,493,493,493,493,493,493,493,493,493,493,493,493,493,493,493,493,493,493,493,493,493,493,493,493,493,493,493,489,485,465,449,432,394,374,353,335,319,288,262,246,232,213,172,151,134,115,98,70],"timestamp_mouse":[9,28,48,68,89,109,129,148,168,188,209,229,248,269,288,308,329,348,368,387,409,427,449,468,488,508,529,549,569,588,609,628,648,668,688,709,729,749,769,787,809,828,848,868,888,908,929,948,967,988,1008,1028,1048,1068,1088,1108,1129,1147,1169,1188],"xSR":741.5,"ySR":469.95,"xT1":424.9,"yT1":0,"xT2":1058.1,"yT2":0,"toosoon":0,"cond_shown":"equaldotanddens","ratio_trial":900,"smaller_num":"18","larger_num":"20","correct_side":2,"subjID":"davidestebanbayonamansilla28","gender":"0","age":"9","school":"4"},{"start_time":1552056202708,"click_time":1552056204493,"finger_time":1552056203573,"fix_duration":1134.87117125936,"trial":29,"RT":865,"MT":920,"sideResp":1,"stimulus":"img/750/equaldotsize/L/14_Ratio_750_L_8_R_6.png","xmouse":[810,810,810,810,810,810,810,810,810,810,810,810,810,810,810,810,810,810,810,810,810,810,810,810,810,810,810,810,810,810,810,810,810,810,810,809,808,806,805,804,802,799,795,787,781,776,764,756,750,747,741,731,727,720,715,711,700,696,691,689,686,686,686,686,685,685,684,683,682,678,673,669,655,646,641,637,632,630,629,627,622,614,609,601,596,588,569,557,538,516],"ymouse":[498,498,498,498,498,498,498,498,498,498,498,498,498,498,498,498,498,498,498,498,498,498,498,498,498,498,498,498,498,498,498,498,498,498,498,498,496,493,492,489,487,480,475,469,464,457,441,430,419,412,402,384,375,362,350,340,315,305,295,288,283,279,278,278,277,277,275,274,272,265,259,251,229,213,204,197,190,188,187,185,181,172,166,154,145,133,102,82,55,20],"timestamp_mouse":[6,26,45,65,86,106,125,145,165,186,206,225,245,267,287,306,326,345,365,387,406,425,445,466,486,505,525,546,567,585,605,627,645,666,686,705,726,745,766,786,806,825,845,865,886,906,925,945,966,986,1006,1026,1046,1065,1085,1106,1125,1145,1166,1186,1205,1226,1246,1265,1285,1305,1326,1345,1366,1386,1405,1425,1447,1465,1487,1506,1525,1545,1566,1586,1605,1626,1646,1665,1685,1705,1725,1745,1765,1785],"xSR":741.5,"ySR":469.95,"xT1":424.9,"yT1":0,"xT2":1058.1,"yT2":0,"toosoon":0,"cond_shown":"equaldotsize","ratio_trial":750,"smaller_num":"6","larger_num":"8","correct_side":1,"subjID":"davidestebanbayonamansilla28","gender":"0","age":"9","school":"4"},{"start_time":1552056207306,"click_time":1552056208234,"finger_time":1552056208053,"fix_duration":250,"trial":30,"RT":747,"MT":181,"sideResp":1,"stimulus":"img/500/randomdotsizeEA/L/10_Ratio_500_L_4_R_2.png","xmouse":[803,803,803,803,803,803,803,803,803,803,803,803,803,803,803,803,803,803,803,803,803,803,803,803,803,803,803,803,803,803,803,803,803,803,800,796,780,772,767,759,752,708,593,547,487,483,497],"ymouse":[529,527,526,526,526,526,526,526,526,526,526,526,526,526,526,526,526,526,526,526,526,526,526,526,526,526,526,526,526,526,526,526,522,518,511,503,475,461,449,434,420,359,258,228,170,142,82],"timestamp_mouse":[13,38,47,69,87,108,128,147,168,188,208,228,247,268,287,308,327,348,368,388,408,427,447,467,488,507,527,547,567,587,607,627,648,667,688,708,727,747,767,788,807,827,847,868,888,908,927],"xSR":741.5,"ySR":469.95,"xT1":424.9,"yT1":0,"xT2":1058.1,"yT2":0,"toosoon":0,"cond_shown":"randomdotsizeEA","ratio_trial":500,"smaller_num":"2","larger_num":"4","correct_side":1,"subjID":"davidestebanbayonamansilla28","gender":"0","age":"9","school":"4"},{"start_time":1552056209785,"click_time":1552056211334,"finger_time":1552056210614,"fix_duration":250,"trial":31,"RT":829,"MT":720,"sideResp":2,"stimulus":"img/750/randomdotsizeEA/R/11_Ratio_750_L_12_R_16.png","xmouse":[808,808,808,808,808,808,808,808,808,808,808,808,808,808,808,808,808,808,808,808,808,808,808,808,808,808,808,808,808,808,808,808,808,808,808,808,808,808,808,811,818,830,848,853,855,856,858,858,861,867,881,889,910,921,932,943,957,982,995,999,1005,1009,1013,1015,1017,1019,1021,1025,1027,1031,1032,1035,1039,1043,1047,1053,1061,1087],"ymouse":[501,501,501,501,501,501,501,501,501,501,501,501,501,501,501,501,501,501,501,501,501,501,501,501,501,501,501,501,501,501,501,501,501,501,501,501,501,501,501,499,487,468,434,424,419,416,415,415,412,403,385,370,336,319,302,284,265,230,212,206,197,192,186,183,180,178,175,168,165,160,156,152,142,137,132,122,110,70],"timestamp_mouse":[12,32,49,69,89,109,128,148,169,189,208,229,248,269,288,308,328,349,369,390,409,428,449,469,488,509,528,549,570,588,609,628,648,669,689,709,729,748,769,788,809,829,849,868,889,908,929,948,969,988,1010,1029,1048,1068,1089,1109,1128,1148,1168,1189,1210,1229,1249,1268,1290,1308,1329,1348,1369,1388,1409,1428,1448,1468,1488,1508,1529,1548],"xSR":741.5,"ySR":469.95,"xT1":424.9,"yT1":0,"xT2":1058.1,"yT2":0,"toosoon":0,"cond_shown":"randomdotsizeEA","ratio_trial":750,"smaller_num":"12","larger_num":"16","correct_side":2,"subjID":"davidestebanbayonamansilla28","gender":"0","age":"9","school":"4"},{"start_time":1552056213668,"click_time":1552056215434,"finger_time":1552056214373,"fix_duration":911.0166835622663,"trial":32,"RT":705,"MT":1061,"sideResp":1,"stimulus":"img/750/equaldotanddens/L/13_Ratio_750_L_8_R_6.png","xmouse":[812,812,812,812,812,812,812,812,812,812,812,812,812,812,811,811,811,811,811,811,811,811,811,811,811,811,810,810,807,805,802,798,794,783,778,753,736,723,709,707,705,705,704,702,698,695,689,683,672,672,672,668,664,650,637,623,615,608,601,597,594,591,588,579,577,572,569,566,562,560,558,555,553,549,546,540,537,533,529,528,528,527,527,525,524,523,520,518,512],"ymouse":[526,526,526,526,526,526,526,526,526,526,526,526,526,526,526,526,526,526,526,526,526,526,526,526,526,526,526,526,522,518,514,509,503,482,474,440,419,402,382,377,373,370,367,358,346,340,325,315,296,296,296,290,284,264,250,229,218,207,195,189,186,181,178,169,166,160,157,154,149,147,146,144,143,140,137,131,127,123,116,115,114,113,113,111,110,109,106,104,98],"timestamp_mouse":[12,31,45,66,86,106,126,146,165,185,206,225,245,265,286,305,326,345,366,385,405,425,445,465,485,505,525,545,565,585,606,625,645,666,686,705,726,746,765,786,806,825,845,865,885,906,926,946,966,986,1005,1025,1046,1065,1085,1105,1126,1145,1165,1185,1207,1225,1247,1265,1285,1306,1325,1346,1365,1385,1405,1425,1445,1465,1485,1506,1525,1545,1565,1585,1605,1625,1646,1666,1685,1706,1725,1746,1766],"xSR":741.5,"ySR":469.95,"xT1":424.9,"yT1":0,"xT2":1058.1,"yT2":0,"toosoon":0,"cond_shown":"equaldotanddens","ratio_trial":750,"smaller_num":"6","larger_num":"8","correct_side":1,"subjID":"davidestebanbayonamansilla28","gender":"0","age":"9","school":"4"},{"start_time":1552056218419,"click_time":1552056219633,"finger_time":1552056219294,"fix_duration":464.0478877167472,"trial":33,"RT":875,"MT":339,"sideResp":2,"stimulus":"img/900/randomdotsizeEA/L/8_Ratio_900_L_20_R_18.png","xmouse":[803,803,803,803,803,803,803,803,803,803,803,803,803,803,803,803,801,796,793,791,788,787,786,786,786,786,786,786,786,786,786,786,786,786,786,787,787,791,793,796,806,810,817,824,830,848,856,873,888,905,950,968,982,994,1003,1014,1021,1034,1043,1055,1071],"ymouse":[532,532,532,532,532,532,532,532,532,532,532,532,532,532,532,531,531,529,527,525,523,522,522,522,522,522,522,522,522,522,521,521,521,521,521,521,521,518,514,509,492,482,470,456,447,425,414,391,371,352,291,261,236,215,194,168,156,135,123,111,96],"timestamp_mouse":[14,34,54,75,94,115,135,156,176,195,214,236,254,275,295,314,334,354,374,395,414,435,454,474,494,514,534,554,575,594,614,636,654,675,694,714,736,754,775,795,815,834,855,875,895,915,935,954,974,994,1014,1034,1055,1074,1094,1114,1135,1154,1174,1194,1214],"xSR":741.5,"ySR":469.95,"xT1":424.9,"yT1":0,"xT2":1058.1,"yT2":0,"toosoon":0,"cond_shown":"randomdotsizeEA","ratio_trial":900,"smaller_num":"18","larger_num":"20","correct_side":1,"subjID":"davidestebanbayonamansilla28","gender":"0","age":"9","school":"4"},{"start_time":1552056225393,"click_time":1552056226834,"finger_time":1552056226173,"fix_duration":1077.606633961098,"trial":34,"RT":780,"MT":661,"sideResp":1,"stimulus":"img/900/equaldotsize/L/4_Ratio_900_L_20_R_18.png","xmouse":[802,802,802,802,802,802,802,802,802,802,802,802,802,802,802,802,802,802,802,802,802,802,799,798,798,798,798,797,797,797,797,797,797,797,796,794,793,784,776,762,751,741,724,716,706,692,675,634,611,578,552,529,489,477,472,471,471,477,481,483,485,487,487,487,487,487,487,487,487,486,483,482,480],"ymouse":[513,513,513,513,513,513,513,513,513,513,513,513,513,513,513,513,513,513,513,513,513,513,513,513,513,513,513,513,513,513,513,513,513,513,513,511,509,498,485,466,454,440,421,413,405,395,386,366,352,331,313,294,252,228,205,188,170,141,131,125,121,119,119,119,119,119,119,117,112,109,105,100,96],"timestamp_mouse":[10,21,41,60,82,100,120,140,160,181,200,220,241,261,281,301,321,342,360,381,400,420,442,461,481,500,522,540,560,581,600,620,640,661,682,700,720,740,761,780,801,820,840,860,880,900,920,941,961,980,1002,1021,1040,1060,1080,1100,1121,1141,1160,1180,1201,1222,1242,1261,1280,1301,1320,1340,1361,1380,1401,1420,1441],"xSR":741.5,"ySR":469.95,"xT1":424.9,"yT1":0,"xT2":1058.1,"yT2":0,"toosoon":0,"cond_shown":"equaldotsize","ratio_trial":900,"smaller_num":"18","larger_num":"20","correct_side":1,"subjID":"davidestebanbayonamansilla28","gender":"0","age":"9","school":"4"},{"start_time":1552056228125,"click_time":1552056229555,"finger_time":1552056228933,"fix_duration":250,"trial":35,"RT":808,"MT":622,"sideResp":2,"stimulus":"img/900/equaldotanddens/R/11_Ratio_900_L_18_R_20.png","xmouse":[794,794,794,794,794,794,794,794,794,794,794,794,794,794,794,794,794,794,794,794,794,794,794,794,794,794,794,794,794,794,794,794,794,794,794,794,794,794,796,800,825,838,839,843,844,849,855,859,867,874,899,911,920,934,944,966,978,992,1006,1023,1040,1045,1046,1048,1050,1056,1059,1062,1064,1066,1074,1083],"ymouse":[508,508,508,508,508,508,508,508,508,508,508,508,508,508,508,508,508,508,509,509,509,509,509,509,509,509,509,509,509,509,509,509,509,509,509,509,509,509,509,505,465,440,437,432,431,421,412,400,382,365,328,311,293,263,249,223,207,188,169,153,136,131,131,129,128,122,120,118,116,113,102,90],"timestamp_mouse":[12,36,48,68,88,109,128,149,168,188,209,229,250,269,288,308,330,348,369,389,408,429,450,468,489,508,529,549,568,589,608,629,650,668,688,709,729,748,768,789,808,828,849,868,889,908,928,948,968,989,1008,1030,1049,1069,1089,1108,1128,1149,1169,1188,1208,1228,1248,1268,1288,1308,1328,1348,1368,1388,1408,1430],"xSR":741.5,"ySR":469.95,"xT1":424.9,"yT1":0,"xT2":1058.1,"yT2":0,"toosoon":0,"cond_shown":"equaldotanddens","ratio_trial":900,"smaller_num":"18","larger_num":"20","correct_side":2,"subjID":"davidestebanbayonamansilla28","gender":"0","age":"9","school":"4"},{"start_time":1552056232382,"click_time":1552056233533,"finger_time":1552056233033,"fix_duration":1246.406699072448,"trial":36,"RT":651,"MT":500,"sideResp":1,"stimulus":"img/500/equaldotanddens/L/4_Ratio_500_L_18_R_9.png","xmouse":[819,819,819,818,818,817,817,817,817,817,817,817,817,817,816,816,816,816,815,815,815,814,814,814,813,813,813,812,811,809,808,805,788,776,765,753,739,718,710,699,694,688,681,676,674,671,667,659,657,651,646,642,634,626,613,590,555,490],"ymouse":[530,530,528,528,528,527,527,526,526,526,525,525,525,525,524,524,522,521,519,517,516,513,508,506,504,503,501,498,495,489,484,475,438,417,393,368,340,292,270,241,223,207,184,175,169,165,159,151,148,143,140,138,134,132,128,121,111,93],"timestamp_mouse":[11,31,51,72,92,111,132,151,172,191,211,232,251,272,292,313,331,351,371,391,412,431,451,473,492,511,531,551,571,591,612,631,651,671,693,712,732,752,773,791,812,832,851,871,891,911,933,951,972,991,1011,1031,1052,1072,1092,1112,1131,1151],"xSR":741.5,"ySR":469.95,"xT1":424.9,"yT1":0,"xT2":1058.1,"yT2":0,"toosoon":0,"cond_shown":"equaldotanddens","ratio_trial":500,"smaller_num":"9","larger_num":"18","correct_side":1,"subjID":"davidestebanbayonamansilla28","gender":"0","age":"9","school":"4"},{"start_time":1552056236168,"click_time":1552056238273,"finger_time":1552056237073,"fix_duration":932.9612221268127,"trial":37,"RT":905,"MT":1200,"sideResp":2,"stimulus":"img/500/randomdotsizeEA/R/2_Ratio_500_L_3_R_6.png","xmouse":[788,788,788,788,788,788,788,788,788,788,788,788,788,788,788,788,788,788,788,788,788,788,788,788,788,788,788,788,788,788,788,788,788,787,787,787,787,787,787,787,788,789,791,798,802,808,812,817,828,835,835,841,845,855,859,865,869,876,887,895,905,913,921,936,941,948,953,959,969,976,982,992,999,1008,1012,1017,1021,1025,1032,1034,1038,1039,1041,1043,1044,1044,1045,1046,1047,1047,1048,1048,1049,1049,1049,1050,1050,1051,1052,1052,1053,1054,1054,1058,1062,1064],"ymouse":[514,514,514,514,514,514,514,514,514,514,514,514,514,514,514,514,514,514,514,514,514,514,514,514,514,514,514,514,514,514,514,514,514,514,512,511,510,509,506,505,503,502,498,486,475,464,453,443,423,412,408,399,393,381,374,367,361,354,339,330,318,308,298,280,274,268,261,255,243,235,228,216,208,199,192,186,180,174,162,157,151,148,145,144,142,142,141,140,138,138,137,136,135,135,134,133,133,132,131,130,129,128,125,113,104,95],"timestamp_mouse":[11,30,45,66,86,106,126,145,166,186,205,227,246,265,285,305,326,345,366,386,405,425,446,465,485,505,525,545,565,587,606,625,646,665,685,707,726,746,765,786,805,827,845,866,885,905,926,945,965,985,1006,1026,1045,1065,1085,1106,1126,1145,1165,1186,1205,1227,1246,1266,1285,1305,1325,1346,1366,1386,1406,1426,1445,1466,1485,1505,1526,1545,1565,1586,1605,1626,1645,1665,1686,1705,1725,1747,1765,1786,1805,1826,1846,1867,1885,1907,1925,1945,1966,1986,2006,2027,2046,2065,2085,2105],"xSR":741.5,"ySR":469.95,"xT1":424.9,"yT1":0,"xT2":1058.1,"yT2":0,"toosoon":0,"cond_shown":"randomdotsizeEA","ratio_trial":500,"smaller_num":"3","larger_num":"6","correct_side":2,"subjID":"davidestebanbayonamansilla28","gender":"0","age":"9","school":"4"},{"start_time":1552056240753,"click_time":1552056242233,"finger_time":1552056241494,"fix_duration":1316.6773919126933,"trial":38,"RT":741,"MT":739,"sideResp":1,"stimulus":"img/250/randomdotsizeEA/L/15_Ratio_250_L_12_R_3.png","xmouse":[795,795,795,795,795,795,795,795,795,795,795,795,795,795,795,795,795,795,795,795,795,795,795,795,795,795,795,795,795,795,795,795,795,792,791,791,790,790,783,768,758,739,724,708,684,674,665,658,652,643,639,638,638,637,632,627,623,618,613,596,587,576,569,561,552,547,543,539,534,525,520,518,513,510,507],"ymouse":[489,489,489,489,489,489,489,489,489,489,489,489,489,489,489,489,489,489,489,489,489,489,489,489,489,489,489,489,489,489,489,489,489,484,480,478,475,467,451,414,391,356,334,309,266,246,226,209,194,176,170,169,169,169,167,165,162,158,155,143,138,135,133,131,128,125,124,123,121,116,112,109,103,100,95],"timestamp_mouse":[13,25,40,61,82,102,120,141,162,181,200,221,242,261,280,300,321,341,361,380,402,421,440,461,481,501,521,541,562,580,601,620,641,660,681,700,720,741,761,780,801,820,840,860,881,900,921,940,961,980,1000,1020,1040,1060,1080,1100,1120,1140,1161,1180,1201,1221,1241,1261,1280,1302,1320,1340,1360,1380,1400,1420,1440,1461,1480],"xSR":741.5,"ySR":469.95,"xT1":424.9,"yT1":0,"xT2":1058.1,"yT2":0,"toosoon":0,"cond_shown":"randomdotsizeEA","ratio_trial":250,"smaller_num":"3","larger_num":"12","correct_side":1,"subjID":"davidestebanbayonamansilla28","gender":"0","age":"9","school":"4"},{"start_time":1552056244332,"click_time":1552056245594,"finger_time":1552056245094,"fix_duration":1078.917285202559,"trial":39,"RT":762,"MT":500,"sideResp":1,"stimulus":"img/250/randomdotsizeEA/L/3_Ratio_250_L_8_R_2.png","xmouse":[777,777,777,777,777,777,777,777,777,777,777,777,777,777,777,777,777,777,777,777,777,777,777,777,777,777,777,777,777,777,776,776,775,773,771,764,760,757,751,744,728,721,709,701,697,683,674,666,658,650,636,624,619,613,609,598,593,587,580,570,550,541,534,523],"ymouse":[512,512,512,512,512,512,512,512,512,512,512,512,512,512,512,512,512,512,512,512,512,512,512,512,512,512,512,512,512,512,511,511,509,507,504,493,486,477,464,448,419,407,390,382,376,359,351,341,329,319,299,284,272,262,255,232,223,210,193,177,139,121,103,80],"timestamp_mouse":[1,27,45,62,81,102,121,141,162,183,201,222,242,261,281,301,321,341,361,381,401,421,442,461,481,502,522,542,562,581,601,622,641,662,682,702,721,741,762,781,801,823,841,861,881,901,921,942,962,982,1001,1021,1041,1062,1081,1101,1121,1142,1162,1182,1202,1221,1242,1262],"xSR":741.5,"ySR":469.95,"xT1":424.9,"yT1":0,"xT2":1058.1,"yT2":0,"toosoon":0,"cond_shown":"randomdotsizeEA","ratio_trial":250,"smaller_num":"2","larger_num":"8","correct_side":1,"subjID":"davidestebanbayonamansilla28","gender":"0","age":"9","school":"4"},{"start_time":1552056247954,"click_time":1552056249453,"finger_time":1552056248754,"fix_duration":1179.0646736140245,"trial":40,"RT":800,"MT":699,"sideResp":1,"stimulus":"img/500/equaldotanddens/L/10_Ratio_500_L_4_R_2.png","xmouse":[780,780,780,780,780,780,780,780,780,780,780,780,780,780,780,780,780,780,780,780,780,780,780,780,780,780,780,780,780,780,780,780,778,776,771,770,769,768,764,752,739,731,722,714,699,695,692,687,685,674,665,660,653,646,632,626,622,614,607,592,585,569,560,553,539,534,531,527,524,518,515,508,504,498,484,478],"ymouse":[506,506,506,506,506,506,506,506,506,506,506,506,506,506,506,506,506,506,506,506,506,506,506,506,506,506,506,506,506,506,506,506,506,506,505,505,504,503,500,488,473,464,453,443,425,419,417,411,408,393,378,370,359,346,321,312,305,295,287,267,257,239,226,217,199,193,189,185,181,171,165,152,141,129,101,88],"timestamp_mouse":[1,19,39,59,80,99,120,141,160,179,199,219,239,261,279,300,320,340,360,379,400,420,441,459,479,500,519,539,559,579,600,620,640,660,680,699,720,739,760,779,800,819,840,859,879,899,920,940,961,979,999,1019,1040,1061,1080,1099,1120,1140,1160,1179,1200,1220,1239,1260,1279,1299,1319,1339,1359,1379,1399,1420,1439,1459,1479,1499],"xSR":741.5,"ySR":469.95,"xT1":424.9,"yT1":0,"xT2":1058.1,"yT2":0,"toosoon":0,"cond_shown":"equaldotanddens","ratio_trial":500,"smaller_num":"2","larger_num":"4","correct_side":1,"subjID":"davidestebanbayonamansilla28","gender":"0","age":"9","school":"4"},{"start_time":1552056251687,"click_time":1552056253534,"finger_time":1552056252414,"fix_duration":1152.6320653646721,"trial":41,"RT":727,"MT":1120,"sideResp":2,"stimulus":"img/750/equaldotsize/R/7_Ratio_750_L_3_R_4.png","xmouse":[780,780,780,780,780,780,780,780,780,780,779,779,777,777,776,775,775,775,774,772,772,772,770,770,770,769,769,769,769,769,769,769,769,769,771,778,805,940,1066,1201,1313,1376,1376,1376,1376,1376,1376,1376,1376,1376,1376,1376,1376,1376,1376,1376,1376,1376,1376,1376,1376,1376,1376,1376,1376,1376,1376,1307,1293,1277,1262,1245,1214,1199,1195,1191,1189,1188,1187,1187,1185,1183,1175,1171,1168,1166,1165,1164,1163,1162,1160,1159,1154],"ymouse":[525,525,525,525,525,525,525,525,525,525,524,524,523,523,522,521,521,521,520,519,518,517,514,514,513,513,513,512,512,512,512,512,512,510,507,498,467,303,204,115,50,7,7,7,7,7,7,7,7,7,7,7,7,7,7,7,7,7,7,7,7,7,7,7,7,7,7,8,17,26,35,45,63,71,72,74,75,75,75,75,75,75,66,59,56,54,54,54,54,54,54,54,54],"timestamp_mouse":[12,26,47,67,86,106,128,147,166,186,207,226,246,266,286,306,326,348,366,386,407,427,447,467,486,507,526,546,566,588,607,626,646,666,686,706,727,746,766,786,806,827,847,867,887,907,927,946,966,987,1007,1026,1047,1067,1086,1106,1127,1147,1167,1187,1206,1227,1247,1266,1287,1306,1326,1346,1366,1387,1406,1427,1446,1466,1486,1507,1526,1546,1567,1587,1606,1626,1646,1667,1686,1706,1727,1746,1767,1788,1806,1828,1846],"xSR":741.5,"ySR":469.95,"xT1":424.9,"yT1":0,"xT2":1058.1,"yT2":0,"toosoon":0,"cond_shown":"equaldotsize","ratio_trial":750,"smaller_num":"3","larger_num":"4","correct_side":2,"subjID":"davidestebanbayonamansilla28","gender":"0","age":"9","school":"4"},{"start_time":1552056256288,"click_time":1552056257573,"finger_time":1552056257104,"fix_duration":1353.6137788571318,"trial":42,"RT":816,"MT":469,"sideResp":1,"stimulus":"img/500/randomdotsizeEA/L/4_Ratio_500_L_18_R_9.png","xmouse":[774,774,775,775,775,776,776,776,777,778,779,779,781,781,782,783,783,783,783,783,783,783,783,783,783,783,783,783,783,783,783,783,783,783,783,783,783,778,768,758,748,733,718,708,702,697,693,686,682,679,675,667,646,632,615,605,597,583,576,570,563,554,535,527,517],"ymouse":[525,525,525,525,524,523,522,522,521,520,519,518,516,515,514,512,512,512,512,512,512,512,512,512,512,512,512,512,512,512,512,512,512,512,512,512,510,502,488,472,450,414,376,347,335,323,316,305,299,296,291,283,258,242,217,204,191,168,156,147,135,120,92,81,68],"timestamp_mouse":[12,25,46,66,86,105,126,146,167,186,205,225,245,267,285,305,326,345,365,385,406,425,445,465,486,505,525,545,566,587,605,625,645,665,686,706,725,745,765,785,816,826,845,865,885,906,926,946,965,985,1005,1026,1045,1067,1085,1106,1125,1145,1165,1186,1205,1226,1245,1266,1285],"xSR":741.5,"ySR":469.95,"xT1":424.9,"yT1":0,"xT2":1058.1,"yT2":0,"toosoon":0,"cond_shown":"randomdotsizeEA","ratio_trial":500,"smaller_num":"9","larger_num":"18","correct_side":1,"subjID":"davidestebanbayonamansilla28","gender":"0","age":"9","school":"4"},{"start_time":1552056260161,"click_time":1552056261633,"finger_time":1552056260873,"fix_duration":1266.4189307735041,"trial":43,"RT":712,"MT":760,"sideResp":2,"stimulus":"img/750/equaldotanddens/R/7_Ratio_750_L_3_R_4.png","xmouse":[781,781,781,781,781,781,781,781,781,781,781,781,781,781,781,781,781,781,781,781,781,781,781,781,781,781,781,781,781,781,781,781,781,786,791,796,804,814,840,852,864,882,893,915,924,932,940,947,958,963,977,985,991,1005,1012,1015,1019,1023,1036,1045,1048,1058,1064,1069,1072,1074,1077,1080,1086,1089,1092,1092,1092,1093],"ymouse":[489,489,489,489,489,489,489,489,489,489,489,489,489,489,489,489,489,489,489,489,489,489,489,489,489,489,489,489,489,489,489,489,489,482,475,469,456,445,422,408,393,372,359,327,315,303,294,284,273,268,255,246,238,218,209,205,198,191,176,164,162,149,138,129,126,124,120,117,115,110,103,102,100,98],"timestamp_mouse":[13,32,54,73,93,113,132,154,173,192,213,233,252,272,293,312,332,353,373,392,413,434,453,472,492,512,533,554,572,594,612,632,652,673,692,712,732,753,772,792,812,833,853,872,892,912,933,952,973,993,1012,1033,1053,1072,1092,1112,1132,1153,1172,1192,1212,1232,1253,1272,1292,1314,1332,1354,1372,1392,1412,1433,1452,1472],"xSR":741.5,"ySR":469.95,"xT1":424.9,"yT1":0,"xT2":1058.1,"yT2":0,"toosoon":0,"cond_shown":"equaldotanddens","ratio_trial":750,"smaller_num":"3","larger_num":"4","correct_side":2,"subjID":"davidestebanbayonamansilla28","gender":"0","age":"9","school":"4"},{"start_time":1552056263444,"click_time":1552056264572,"finger_time":1552056264113,"fix_duration":250,"trial":44,"RT":669,"MT":459,"sideResp":1,"stimulus":"img/900/equaldotanddens/R/13_Ratio_900_L_18_R_20.png","xmouse":[772,772,772,772,772,772,772,772,772,772,772,772,772,772,772,772,772,772,772,772,772,772,772,772,772,772,772,772,772,772,772,772,772,771,770,770,770,770,767,753,745,736,726,718,689,668,650,633,619,595,585,575,565,555,537,530,523],"ymouse":[477,477,477,477,477,477,477,477,477,477,477,477,477,477,477,477,477,477,477,477,477,477,477,477,477,477,477,477,477,477,477,472,470,464,454,448,440,421,401,353,329,309,288,268,233,211,197,182,170,147,138,131,123,115,100,95,89],"timestamp_mouse":[8,28,48,68,88,108,128,149,168,188,209,229,249,268,288,310,328,348,368,388,409,428,450,468,488,508,528,548,570,588,609,629,648,669,688,708,728,748,769,788,808,829,848,868,888,909,928,948,968,988,1008,1029,1048,1069,1088,1109,1128],"xSR":741.5,"ySR":469.95,"xT1":424.9,"yT1":0,"xT2":1058.1,"yT2":0,"toosoon":0,"cond_shown":"equaldotanddens","ratio_trial":900,"smaller_num":"18","larger_num":"20","correct_side":2,"subjID":"davidestebanbayonamansilla28","gender":"0","age":"9","school":"4"},{"start_time":1552056267574,"click_time":1552056270052,"finger_time":1552056267633,"fix_duration":1441.958095432545,"trial":45,"RT":59,"MT":2419,"sideResp":2,"stimulus":"img/250/equaldotsize/L/2_Ratio_250_L_16_R_4.png","xmouse":[823,827,832,833,833,833,833,833,833,833,833,833,833,832,832,831,831,827,825,824,823,822,820,820,818,816,815,813,812,807,804,799,795,794,794,794,794,794,794,794,794,794,794,794,794,794,794,794,794,794,794,794,794,794,794,794,794,794,794,794,794,794,794,794,794,794,794,794,794,794,794,794,794,794,794,794,794,794,794,794,794,794,794,794,794,794,794,794,794,794,794,796,804,808,813,819,830,854,865,882,895,908,939,952,966,982,995,1015,1025,1031,1034,1038,1045,1047,1049,1051,1052,1058,1061,1068,1073,1079,1090,1097],"ymouse":[555,566,576,577,577,577,577,577,577,577,577,577,575,575,574,574,573,570,568,567,565,564,562,561,561,559,558,557,554,547,541,534,524,521,520,520,520,520,520,520,520,520,520,520,520,520,520,520,520,520,520,520,520,520,520,520,520,520,520,520,520,520,520,520,520,520,520,520,520,520,520,520,520,520,520,520,520,520,520,520,520,520,520,520,520,520,520,520,520,520,519,518,513,510,506,502,494,471,458,433,416,402,355,336,318,295,275,244,224,215,208,202,192,189,185,184,180,171,166,155,144,135,107,90],"timestamp_mouse":[18,38,59,78,99,119,139,158,179,198,218,238,258,278,298,319,338,358,379,399,419,438,458,478,498,519,538,558,578,598,618,638,658,679,698,727,739,758,778,799,819,838,858,879,898,919,938,958,978,998,1018,1038,1058,1078,1098,1119,1138,1158,1179,1199,1219,1239,1258,1279,1298,1319,1341,1358,1378,1399,1419,1438,1458,1479,1498,1518,1538,1558,1578,1599,1619,1638,1658,1679,1698,1718,1739,1758,1779,1798,1818,1838,1858,1878,1899,1918,1938,1958,1979,1998,2018,2038,2058,2078,2098,2118,2138,2158,2179,2198,2218,2239,2258,2278,2299,2318,2339,2358,2379,2398,2418,2438,2458,2478],"xSR":741.5,"ySR":469.95,"xT1":424.9,"yT1":0,"xT2":1058.1,"yT2":0,"toosoon":0,"cond_shown":"equaldotsize","ratio_trial":250,"smaller_num":"4","larger_num":"16","correct_side":1,"subjID":"davidestebanbayonamansilla28","gender":"0","age":"9","school":"4"},{"start_time":1552056271843,"click_time":1552056273012,"finger_time":1552056272272,"fix_duration":608.957041634199,"trial":46,"RT":429,"MT":740,"sideResp":2,"stimulus":"img/900/equaldotanddens/R/11_Ratio_900_L_18_R_20.png","xmouse":[789,789,789,789,790,791,793,795,797,801,803,805,805,807,808,808,808,809,809,810,810,810,810,810,809,809,807,807,805,803,802,801,799,797,792,790,789,789,789,796,803,813,826,838,859,873,883,898,914,946,969,997,1016,1031,1051,1054,1057,1058,1060],"ymouse":[504,503,502,502,501,500,498,497,494,489,487,484,483,481,477,476,475,475,474,472,471,469,468,466,463,460,456,454,453,447,446,444,442,438,431,426,423,421,419,410,407,399,391,381,361,341,327,309,289,248,214,184,158,136,108,102,100,98,98],"timestamp_mouse":[14,34,50,69,90,109,129,150,169,189,209,230,249,269,289,309,329,350,369,389,409,429,449,470,489,509,529,549,570,589,609,630,650,669,689,709,729,749,769,789,809,830,849,869,889,911,929,950,969,989,1009,1030,1049,1070,1089,1110,1129,1150,1169],"xSR":741.5,"ySR":469.95,"xT1":424.9,"yT1":0,"xT2":1058.1,"yT2":0,"toosoon":0,"cond_shown":"equaldotanddens","ratio_trial":900,"smaller_num":"18","larger_num":"20","correct_side":2,"subjID":"davidestebanbayonamansilla28","gender":"0","age":"9","school":"4"},{"start_time":1552056278000,"click_time":1552056279193,"finger_time":1552056278832,"fix_duration":725.6575136148676,"trial":47,"RT":832,"MT":361,"sideResp":1,"stimulus":"img/900/equaldotanddens/L/2_Ratio_900_L_20_R_18.png","xmouse":[783,783,783,783,783,783,783,783,783,783,783,783,783,783,783,783,783,783,783,783,783,783,783,783,783,783,783,783,783,783,783,783,783,783,783,783,783,783,782,775,756,680,652,637,629,622,596,591,571,559,549,532,527,522,520,514,490,465,439,429],"ymouse":[510,510,510,510,510,510,510,510,510,510,510,510,510,510,510,510,510,510,510,510,510,510,510,510,510,510,510,510,510,510,510,510,510,510,510,510,510,510,510,508,506,491,479,465,453,443,412,406,381,362,345,310,295,278,260,241,195,162,117,94],"timestamp_mouse":[20,37,53,72,92,112,132,152,172,192,212,232,252,273,292,312,332,352,373,392,412,432,452,472,492,512,532,553,573,592,612,632,653,672,693,714,733,752,772,792,812,832,852,872,892,912,932,952,972,992,1012,1032,1052,1073,1092,1113,1132,1152,1172,1193],"xSR":741.5,"ySR":469.95,"xT1":424.9,"yT1":0,"xT2":1058.1,"yT2":0,"toosoon":0,"cond_shown":"equaldotanddens","ratio_trial":900,"smaller_num":"18","larger_num":"20","correct_side":1,"subjID":"davidestebanbayonamansilla28","gender":"0","age":"9","school":"4"},{"start_time":1552056281416,"click_time":1552056282913,"finger_time":1552056282332,"fix_duration":1362.1720945713157,"trial":48,"RT":916,"MT":581,"sideResp":2,"stimulus":"img/500/equaldotanddens/R/15_Ratio_500_L_1_R_2.png","xmouse":[801,801,801,801,801,801,801,800,800,800,800,800,800,800,800,800,800,800,800,800,800,799,798,797,797,797,797,796,796,796,796,796,796,796,795,793,791,786,783,783,783,782,782,781,779,765,759,751,747,746,746,746,747,748,752,777,797,816,843,863,945,1002,1035,1056,1068,1086,1088,1088,1090,1092,1102,1109,1113,1115,1117],"ymouse":[482,482,482,482,482,482,482,483,483,483,483,483,483,483,483,483,483,483,483,483,485,485,486,487,487,488,488,489,489,489,489,489,489,489,489,490,490,491,491,491,491,491,491,491,488,464,457,441,431,426,418,416,413,412,408,392,377,358,334,316,250,212,191,173,162,148,146,146,144,140,126,116,108,102,99],"timestamp_mouse":[17,37,57,77,97,117,136,156,176,197,216,237,256,277,296,316,336,356,376,398,416,436,456,476,497,516,537,556,576,597,616,636,657,676,696,716,737,756,777,797,816,837,857,876,896,916,936,956,976,996,1017,1036,1057,1076,1096,1116,1137,1156,1177,1197,1216,1236,1256,1276,1297,1316,1336,1356,1376,1396,1417,1436,1456,1476,1497],"xSR":741.5,"ySR":469.95,"xT1":424.9,"yT1":0,"xT2":1058.1,"yT2":0,"toosoon":0,"cond_shown":"equaldotanddens","ratio_trial":500,"smaller_num":"1","larger_num":"2","correct_side":2,"subjID":"davidestebanbayonamansilla28","gender":"0","age":"9","school":"4"},{"start_time":1552056285465,"click_time":1552056287172,"finger_time":1552056286232,"fix_duration":1269.068651277355,"trial":49,"RT":767,"MT":940,"sideResp":2,"stimulus":"img/900/randomdotsizeEA/L/8_Ratio_900_L_20_R_18.png","xmouse":[784,784,784,784,784,784,784,784,784,785,785,785,785,785,785,785,785,785,785,785,785,785,785,785,785,786,786,787,787,787,788,788,788,789,792,805,820,840,868,878,886,892,898,902,904,905,905,905,905,905,905,904,903,901,901,901,901,901,900,900,900,902,903,906,914,925,937,948,976,992,1008,1019,1028,1034,1034,1035,1036,1037,1038,1038,1040,1042,1046,1053,1056,1065],"ymouse":[528,528,528,528,527,526,526,526,524,523,523,523,523,523,523,523,523,523,523,523,523,523,523,523,523,523,521,521,518,517,517,517,517,515,513,508,505,503,491,477,459,438,420,396,387,383,382,382,382,381,381,381,381,380,380,380,380,380,378,371,356,335,307,246,214,198,177,160,128,114,103,95,89,86,86,86,86,86,86,86,85,83,78,70,65,58],"timestamp_mouse":[12,34,48,67,87,107,127,147,167,188,207,228,247,267,288,308,327,348,367,387,407,427,447,467,487,507,527,547,567,587,607,628,647,667,688,707,727,747,767,787,807,827,848,867,887,907,928,948,968,987,1008,1027,1047,1067,1088,1108,1128,1148,1167,1187,1208,1227,1248,1267,1288,1307,1328,1347,1367,1388,1407,1427,1448,1467,1487,1507,1528,1547,1567,1587,1607,1627,1647,1667,1687,1707],"xSR":741.5,"ySR":469.95,"xT1":424.9,"yT1":0,"xT2":1058.1,"yT2":0,"toosoon":0,"cond_shown":"randomdotsizeEA","ratio_trial":900,"smaller_num":"18","larger_num":"20","correct_side":1,"subjID":"davidestebanbayonamansilla28","gender":"0","age":"9","school":"4"},{"start_time":1552056289011,"click_time":1552056290353,"finger_time":1552056289812,"fix_duration":677.0516508565122,"trial":50,"RT":801,"MT":541,"sideResp":1,"stimulus":"img/900/equaldotsize/R/5_Ratio_900_L_9_R_10.png","xmouse":[778,778,778,778,778,778,778,778,778,778,778,778,778,778,778,778,778,778,777,777,776,775,774,772,771,771,769,768,767,765,765,764,763,763,763,762,762,762,762,768,775,781,781,775,768,759,742,728,720,710,699,676,660,649,638,627,610,601,584,577,571,565,560,557,551,545,530,513],"ymouse":[523,523,523,523,523,523,523,523,523,523,523,523,523,523,523,523,523,523,523,523,523,523,523,523,522,522,522,521,521,520,520,520,519,519,519,518,516,511,496,477,453,396,371,349,332,321,301,283,267,250,229,178,150,129,110,94,76,70,62,60,59,58,58,58,58,58,58,59],"timestamp_mouse":[10,30,41,61,82,102,121,142,162,181,201,222,241,261,281,301,322,342,361,382,403,421,441,461,481,501,521,541,561,582,601,622,642,661,681,701,721,741,761,781,801,822,841,861,881,901,921,941,961,981,1001,1022,1041,1061,1082,1102,1122,1142,1160,1181,1201,1222,1241,1261,1282,1302,1321,1342],"xSR":741.5,"ySR":469.95,"xT1":424.9,"yT1":0,"xT2":1058.1,"yT2":0,"toosoon":0,"cond_shown":"equaldotsize","ratio_trial":900,"smaller_num":"9","larger_num":"10","correct_side":2,"subjID":"davidestebanbayonamansilla28","gender":"0","age":"9","school":"4"},{"start_time":1552056293985,"click_time":1552056295193,"finger_time":1552056294692,"fix_duration":250,"trial":51,"RT":707,"MT":501,"sideResp":2,"stimulus":"img/500/equaldotsize/R/3_Ratio_500_L_10_R_20.png","xmouse":[772,772,772,772,772,772,772,772,772,772,772,772,772,772,772,772,772,772,772,772,772,772,772,772,772,772,772,772,772,772,772,772,794,811,831,857,881,914,926,947,958,966,981,986,993,997,1002,1008,1011,1014,1018,1020,1027,1030,1034,1036,1040,1048,1055,1084,1105],"ymouse":[529,529,529,529,529,529,529,529,529,529,529,529,529,529,529,529,529,529,529,529,529,529,529,529,529,529,529,529,529,529,529,528,517,503,486,464,445,412,396,366,351,338,315,307,298,290,284,276,272,270,266,263,257,252,244,238,230,203,183,122,74],"timestamp_mouse":[25,27,48,67,87,108,127,147,168,188,208,229,247,267,288,307,328,349,368,388,407,427,447,467,488,508,528,547,568,587,608,628,647,667,687,707,728,747,768,787,807,827,847,867,887,907,927,947,969,987,1007,1027,1047,1067,1088,1107,1128,1147,1167,1187,1208],"xSR":741.5,"ySR":469.95,"xT1":424.9,"yT1":0,"xT2":1058.1,"yT2":0,"toosoon":0,"cond_shown":"equaldotsize","ratio_trial":500,"smaller_num":"10","larger_num":"20","correct_side":2,"subjID":"davidestebanbayonamansilla28","gender":"0","age":"9","school":"4"},{"start_time":1552056296984,"click_time":1552056298452,"finger_time":1552056297793,"fix_duration":250,"trial":52,"RT":809,"MT":659,"sideResp":1,"stimulus":"img/750/equaldotanddens/L/1_Ratio_750_L_20_R_15.png","xmouse":[814,814,814,814,814,814,814,814,814,813,813,813,813,813,813,813,813,813,813,813,813,813,813,813,813,813,813,813,813,813,813,813,813,813,813,807,799,764,748,742,732,718,678,660,634,615,596,559,534,521,512,510,510,510,510,511,513,517,518,518,518,518,518,519,519,519,519,516,515,513,512,512,509,508],"ymouse":[526,526,526,526,526,526,526,526,526,527,527,527,527,527,527,527,527,527,527,527,527,527,527,527,527,527,527,527,527,527,527,527,527,527,527,527,527,527,524,522,519,513,491,480,467,454,445,418,394,377,361,349,326,316,309,301,295,281,274,264,257,250,236,230,222,215,207,178,172,154,142,127,105,95],"timestamp_mouse":[9,39,48,69,89,108,128,149,169,188,210,230,249,269,289,309,328,348,368,389,409,428,449,468,489,510,528,549,568,589,608,628,648,668,689,708,728,748,769,788,809,828,848,868,888,909,928,948,968,988,1009,1028,1048,1068,1088,1108,1130,1148,1169,1188,1208,1228,1248,1268,1288,1308,1329,1348,1369,1388,1408,1428,1449,1468],"xSR":741.5,"ySR":469.95,"xT1":424.9,"yT1":0,"xT2":1058.1,"yT2":0,"toosoon":0,"cond_shown":"equaldotanddens","ratio_trial":750,"smaller_num":"15","larger_num":"20","correct_side":1,"subjID":"davidestebanbayonamansilla28","gender":"0","age":"9","school":"4"},{"start_time":1552056300949,"click_time":1552056302232,"finger_time":1552056301753,"fix_duration":776.6265602280283,"trial":53,"RT":804,"MT":479,"sideResp":1,"stimulus":"img/750/randomdotsizeEA/L/14_Ratio_750_L_8_R_6.png","xmouse":[779,779,779,779,779,779,779,779,779,779,779,779,779,779,779,779,779,779,779,779,779,779,779,779,779,779,779,779,779,779,779,779,779,779,779,779,779,779,776,758,733,717,706,702,689,678,667,648,630,601,592,578,565,553,521,506,488,473,463,453,453,453,453,456,469],"ymouse":[510,510,510,510,510,510,510,510,510,510,510,510,510,510,510,510,510,510,510,510,510,510,510,510,510,510,510,510,510,510,510,510,510,510,510,510,505,502,498,482,464,451,442,432,409,394,383,370,359,340,332,313,298,286,255,241,224,210,196,161,154,134,120,106,81],"timestamp_mouse":[12,30,43,63,84,103,124,144,163,184,204,223,243,263,283,303,323,343,363,383,404,423,443,463,483,503,525,544,563,583,603,623,643,663,683,703,723,743,763,783,804,823,844,864,884,903,923,943,963,983,1004,1023,1044,1063,1083,1103,1123,1143,1163,1183,1203,1223,1243,1263,1283],"xSR":741.5,"ySR":469.95,"xT1":424.9,"yT1":0,"xT2":1058.1,"yT2":0,"toosoon":0,"cond_shown":"randomdotsizeEA","ratio_trial":750,"smaller_num":"6","larger_num":"8","correct_side":1,"subjID":"davidestebanbayonamansilla28","gender":"0","age":"9","school":"4"},{"start_time":1552056305174,"click_time":1552056306892,"finger_time":1552056306072,"fix_duration":919.0079673827113,"trial":54,"RT":898,"MT":820,"sideResp":2,"stimulus":"img/500/equaldotanddens/R/15_Ratio_500_L_1_R_2.png","xmouse":[766,766,766,766,766,766,766,766,766,766,766,766,766,766,766,766,766,766,766,766,766,766,766,766,766,766,766,766,766,766,766,766,766,766,766,766,766,766,766,766,767,768,775,782,788,795,809,841,858,876,904,921,949,957,966,973,981,988,989,990,991,992,994,994,995,997,999,1006,1013,1022,1033,1042,1051,1051,1051,1052,1052,1052,1052,1052,1052,1052,1053,1055,1057,1061],"ymouse":[506,506,506,506,506,506,506,506,506,506,506,506,506,506,506,506,506,506,506,506,506,506,506,506,506,506,506,506,506,506,506,506,506,506,506,506,506,506,506,506,506,504,487,471,454,432,404,356,335,314,288,273,247,238,229,223,216,210,209,205,204,203,200,199,197,193,190,179,168,156,142,129,115,113,113,112,112,112,112,112,112,111,109,107,103,99],"timestamp_mouse":[18,38,58,78,98,119,138,158,179,198,218,238,258,278,298,318,338,358,378,398,418,438,458,479,499,518,538,558,579,598,619,639,658,678,698,718,738,758,778,798,818,838,858,879,898,918,938,958,978,998,1018,1038,1059,1078,1098,1118,1139,1158,1179,1199,1218,1238,1258,1279,1299,1318,1339,1358,1379,1398,1419,1438,1458,1478,1499,1518,1539,1559,1579,1599,1619,1638,1658,1679,1698,1718],"xSR":741.5,"ySR":469.95,"xT1":424.9,"yT1":0,"xT2":1058.1,"yT2":0,"toosoon":0,"cond_shown":"equaldotanddens","ratio_trial":500,"smaller_num":"1","larger_num":"2","correct_side":2,"subjID":"davidestebanbayonamansilla28","gender":"0","age":"9","school":"4"},{"start_time":1552056308918,"click_time":1552056309972,"finger_time":1552056309552,"fix_duration":443.542300