[{"start_time":1552073416460,"click_time":1552073417164,"finger_time":1552073416470,"fix_duration":292.1389612160569,"trial":0,"RT":10,"MT":694,"sideResp":2,"stimulus":[],"xmouse":[794,794,794,794,794,794,794,794,794,794,794,794,794,794,794,794,794,794,794,822,930,1063,1141,1174,1173,1166,1161,1160,1158,1150,1140,1125,1114,1110,1103,1099],"ymouse":[532,532,532,532,532,532,532,532,532,532,532,532,532,532,532,532,532,532,532,518,443,347,284,239,191,174,164,164,161,154,141,126,119,115,100,88],"timestamp_mouse":[10,24,43,63,84,104,123,143,163,184,205,224,244,263,283,304,324,343,363,383,403,423,443,464,484,503,524,544,563,583,604,624,643,663,683,703],"xSR":741.5,"ySR":490.1,"xT1":424.9,"yT1":0,"xT2":1058.1,"yT2":0,"toosoon":0,"cond_shown":"Congruent","ratio_trial":300,"L_num":20,"L_den":25,"R_num":5,"R_den":10,"correct_side":1,"subjID":"dianaagudelomendez12","gender":"1","age":"9","school":"4","test":{"fix_dur":[250,1500],"timestim":1000,"targets_dim":[100,100],"targets_relative_coord":[0.3,0.7],"size_stim":[880,420],"start_dim":[100,100],"size_start":[300,300],"size_fix":60,"samplingrate":20,"img_types":["Congruent","Incongruent"],"ratios":[100,200,300],"rep_conds":19,"nTrials":120,"trials_to_rest":500,"Trials_order":[34,5,102,67,100,35,90,103,78,109,27,6,95,7,43,25,11,39,21,4,9,66,76,63,105,98,85,92,8,14,19,99,55,52,119,73,45,50,80,94,38,61,112,74,17,70,20,111,24,26,36,44,84,110,116,59,88,13,51,106,29,87,108,72,42,86,117,53,49,71,16,82,68,89,77,75,31,22,47,69,56,58,10,41,79,97,32,37,114,40,0,64,30,65,46,62,93,23,48,33,118,104,18,113,2,81,54,57,1,96,107,91,28,3,83,15,60,115,101,12],"cond_shown":["Congruent","Incongruent","Congruent","Incongruent","Congruent","Incongruent","Congruent","Incongruent","Congruent","Incongruent","Incongruent","Congruent","Incongruent","Incongruent","Incongruent","Incongruent","Incongruent","Incongruent","Incongruent","Congruent","Incongruent","Congruent","Congruent","Incongruent","Incongruent","Congruent","Incongruent","Congruent","Congruent","Congruent","Incongruent","Incongruent","Incongruent","Congruent","Incongruent","Incongruent","Incongruent","Congruent","Congruent","Congruent","Congruent","Incongruent","Congruent","Congruent","Incongruent","Congruent","Congruent","Incongruent","Congruent","Congruent","Congruent","Congruent","Congruent","Congruent","Congruent","Incongruent","Congruent","Incongruent","Incongruent","Congruent","Incongruent","Incongruent","Congruent","Congruent","Congruent","Congruent","Incongruent","Incongruent","Incongruent","Incongruent","Congruent","Congruent","Congruent","Incongruent","Incongruent","Incongruent","Incongruent","Congruent","Incongruent","Incongruent","Congruent","Congruent","Congruent","Incongruent","Incongruent","Incongruent","Congruent","Incongruent","Congruent","Congruent","Congruent","Congruent","Congruent","Incongruent","Congruent","Congruent","Incongruent","Incongruent","Congruent","Incongruent","Congruent","Congruent","Congruent","Incongruent","Congruent","Incongruent","Congruent","Incongruent","Incongruent","Congruent","Incongruent","Incongruent","Congruent","Incongruent","Incongruent","Incongruent","Congruent","Incongruent","Incongruent","Congruent"],"ratio_trial":[300,300,100,100,300,300,100,100,100,100,200,100,300,100,100,100,300,200,200,300,200,100,300,200,200,200,100,200,200,200,100,200,100,300,300,100,200,200,200,300,200,100,300,200,300,300,200,200,100,200,100,200,100,200,200,300,300,100,200,300,300,200,100,100,100,200,200,300,100,300,300,300,200,300,300,200,100,300,300,200,200,300,300,300,100,100,200,100,100,300,100,300,100,300,300,200,200,300,100,200,300,200,100,300,200,200,100,200,100,100,300,100,300,200,300,200,100,100,300,100],"left_num":[20,4,10,2,8,4,10,8,6,9,4,6,4,6,3,3,4,7,7,1,7,6,20,7,3,7,8,5,20,12,17,14,6,20,4,9,1,3,1,4,3,17,7,12,1,2,5,9,11,12,9,3,3,8,15,4,2,3,4,20,13,4,15,6,3,1,7,7,10,4,1,12,12,3,4,7,3,3,4,1,3,2,7,2,1,12,12,6,12,5,2,2,15,13,1,6,1,8,11,4,24,5,3,4,8,7,6,1,17,4,13,3,20,3,4,4,2,9,8,10],"right_num":[5,2,3,6,10,2,3,1,5,13,1,5,2,3,4,8,2,8,6,8,6,5,14,8,1,2,1,14,9,6,10,12,13,13,2,6,2,14,21,1,11,10,20,6,2,12,14,8,6,6,8,7,4,3,4,2,10,8,6,14,12,14,13,15,4,21,4,8,9,2,6,2,6,4,6,6,8,4,2,3,9,10,20,6,8,9,6,3,13,7,6,12,13,12,6,11,2,14,6,1,2,14,2,2,7,12,15,3,10,6,12,7,14,11,2,1,11,20,14,3],"left_den":[25,20,25,4,15,20,25,20,20,15,30,20,20,12,6,5,20,10,15,30,15,20,25,10,10,21,20,10,25,20,30,30,10,25,20,18,3,6,2,10,10,30,14,20,2,10,10,15,22,15,15,10,20,15,25,20,20,5,5,25,26,6,25,12,20,2,15,10,25,20,5,24,15,6,5,15,5,6,20,2,12,20,14,4,2,24,15,12,30,25,5,10,25,26,5,20,3,10,22,30,30,10,6,20,15,10,12,2,30,8,26,9,25,4,20,30,5,10,10,25],"right_den":[10,4,10,15,12,4,10,2,25,26,3,25,4,5,10,16,4,16,9,24,9,25,28,16,2,15,2,20,15,15,15,18,26,26,4,10,15,20,30,10,22,15,25,15,10,24,20,10,15,10,16,14,16,9,10,4,25,16,10,28,15,30,26,25,16,30,6,20,18,4,12,10,10,20,12,9,16,5,4,10,20,25,25,30,20,15,10,5,26,14,12,24,26,15,12,22,15,28,15,3,4,20,5,4,21,24,25,10,15,10,15,30,28,20,4,3,22,25,28,10],"correct_side":[1,2,1,1,2,2,1,2,1,1,2,1,2,2,1,1,2,1,2,2,2,1,1,1,2,1,2,2,1,1,2,2,1,1,2,2,1,2,2,1,2,2,2,1,1,2,2,2,1,1,1,2,2,1,1,2,2,1,1,1,2,1,1,2,2,2,2,1,2,2,2,1,1,1,1,2,1,2,2,1,2,2,2,1,1,2,1,2,2,2,2,2,1,2,2,2,1,1,1,2,1,2,1,2,1,1,2,1,2,2,2,1,1,1,2,2,2,1,1,1],"img_shown":["img2/300/Congruent/L/C_Dist_300_LN_20_LD_25_RN_5_RD_10_0.png","img2/300/Incongruent/R/I_Dist_300_LN_4_LD_20_RN_2_RD_4_1.png","img2/100/Congruent/L/C_Dist_100_LN_10_LD_25_RN_3_RD_10_0.png","img2/100/Incongruent/L/I_Dist_100_LN_2_LD_4_RN_6_RD_15_0.png","img2/300/Congruent/R/C_Dist_300_LN_8_LD_15_RN_10_RD_12_1.png","img2/300/Incongruent/R/I_Dist_300_LN_4_LD_20_RN_2_RD_4_1.png","img2/100/Congruent/L/C_Dist_100_LN_10_LD_25_RN_3_RD_10_0.png","img2/100/Incongruent/R/I_Dist_100_LN_8_LD_20_RN_1_RD_2_1.png","img2/100/Congruent/L/C_Dist_100_LN_6_LD_20_RN_5_RD_25_0.png","img2/100/Incongruent/L/I_Dist_100_LN_9_LD_15_RN_13_RD_26_0.png","img2/200/Incongruent/R/I_Dist_200_LN_4_LD_30_RN_1_RD_3_1.png","img2/100/Congruent/L/C_Dist_100_LN_6_LD_20_RN_5_RD_25_0.png","img2/300/Incongruent/R/I_Dist_300_LN_4_LD_20_RN_2_RD_4_1.png","img2/100/Incongruent/R/I_Dist_100_LN_6_LD_12_RN_3_RD_5_1.png","img2/100/Incongruent/L/I_Dist_100_LN_3_LD_6_RN_4_RD_10_0.png","img2/100/Incongruent/L/I_Dist_100_LN_3_LD_5_RN_8_RD_16_0.png","img2/300/Incongruent/R/I_Dist_300_LN_4_LD_20_RN_2_RD_4_1.png","img2/200/Incongruent/L/I_Dist_200_LN_7_LD_10_RN_8_RD_16_0.png","img2/200/Incongruent/R/I_Dist_200_LN_7_LD_15_RN_6_RD_9_1.png","img2/300/Congruent/R/C_Dist_300_LN_1_LD_30_RN_8_RD_24_1.png","img2/200/Incongruent/R/I_Dist_200_LN_7_LD_15_RN_6_RD_9_1.png","img2/100/Congruent/L/C_Dist_100_LN_6_LD_20_RN_5_RD_25_0.png","img2/300/Congruent/L/C_Dist_300_LN_20_LD_25_RN_14_RD_28_0.png","img2/200/Incongruent/L/I_Dist_200_LN_7_LD_10_RN_8_RD_16_0.png","img2/200/Incongruent/R/I_Dist_200_LN_3_LD_10_RN_1_RD_2_1.png","img2/200/Congruent/L/C_Dist_200_LN_7_LD_21_RN_2_RD_15_0.png","img2/100/Incongruent/R/I_Dist_100_LN_8_LD_20_RN_1_RD_2_1.png","img2/200/Congruent/R/C_Dist_200_LN_5_LD_10_RN_14_RD_20_1.png","img2/200/Congruent/L/C_Dist_200_LN_20_LD_25_RN_9_RD_15_0.png","img2/200/Congruent/L/C_Dist_200_LN_12_LD_20_RN_6_RD_15_0.png","img2/100/Incongruent/R/I_Dist_100_LN_17_LD_30_RN_10_RD_15_1.png","img2/200/Incongruent/R/I_Dist_200_LN_14_LD_30_RN_12_RD_18_1.png","img2/100/Incongruent/L/I_Dist_100_LN_6_LD_10_RN_13_RD_26_0.png","img2/300/Congruent/L/C_Dist_300_LN_20_LD_25_RN_13_RD_26_0.png","img2/300/Incongruent/R/I_Dist_300_LN_4_LD_20_RN_2_RD_4_1.png","img2/100/Incongruent/R/I_Dist_100_LN_9_LD_18_RN_6_RD_10_1.png","img2/200/Incongruent/L/I_Dist_200_LN_1_LD_3_RN_2_RD_15_0.png","img2/200/Congruent/R/C_Dist_200_LN_3_LD_6_RN_14_RD_20_1.png","img2/200/Congruent/R/C_Dist_200_LN_1_LD_2_RN_21_RD_30_1.png","img2/300/Congruent/L/C_Dist_300_LN_4_LD_10_RN_1_RD_10_0.png","img2/200/Congruent/R/C_Dist_200_LN_3_LD_10_RN_11_RD_22_1.png","img2/100/Incongruent/R/I_Dist_100_LN_17_LD_30_RN_10_RD_15_1.png","img2/300/Congruent/R/C_Dist_300_LN_7_LD_14_RN_20_RD_25_1.png","img2/200/Congruent/L/C_Dist_200_LN_12_LD_20_RN_6_RD_15_0.png","img2/300/Incongruent/L/I_Dist_300_LN_1_LD_2_RN_2_RD_10_0.png","img2/300/Congruent/R/C_Dist_300_LN_2_LD_10_RN_12_RD_24_1.png","img2/200/Congruent/R/C_Dist_200_LN_5_LD_10_RN_14_RD_20_1.png","img2/200/Incongruent/R/I_Dist_200_LN_9_LD_15_RN_8_RD_10_1.png","img2/100/Congruent/L/C_Dist_100_LN_11_LD_22_RN_6_RD_15_0.png","img2/200/Congruent/L/C_Dist_200_LN_12_LD_15_RN_6_RD_10_0.png","img2/100/Congruent/L/C_Dist_100_LN_9_LD_15_RN_8_RD_16_0.png","img2/200/Congruent/R/C_Dist_200_LN_3_LD_10_RN_7_RD_14_1.png","img2/100/Congruent/R/C_Dist_100_LN_3_LD_20_RN_4_RD_16_1.png","img2/200/Congruent/L/C_Dist_200_LN_8_LD_15_RN_3_RD_9_0.png","img2/200/Congruent/L/C_Dist_200_LN_15_LD_25_RN_4_RD_10_0.png","img2/300/Incongruent/R/I_Dist_300_LN_4_LD_20_RN_2_RD_4_1.png","img2/300/Congruent/R/C_Dist_300_LN_2_LD_20_RN_10_RD_25_1.png","img2/100/Incongruent/L/I_Dist_100_LN_3_LD_5_RN_8_RD_16_0.png","img2/200/Incongruent/L/I_Dist_200_LN_4_LD_5_RN_6_RD_10_0.png","img2/300/Congruent/L/C_Dist_300_LN_20_LD_25_RN_14_RD_28_0.png","img2/300/Incongruent/R/I_Dist_300_LN_13_LD_26_RN_12_RD_15_1.png","img2/200/Incongruent/L/I_Dist_200_LN_4_LD_6_RN_14_RD_30_0.png","img2/100/Congruent/L/C_Dist_100_LN_15_LD_25_RN_13_RD_26_0.png","img2/100/Congruent/R/C_Dist_100_LN_6_LD_12_RN_15_RD_25_1.png","img2/100/Congruent/R/C_Dist_100_LN_3_LD_20_RN_4_RD_16_1.png","img2/200/Congruent/R/C_Dist_200_LN_1_LD_2_RN_21_RD_30_1.png","img2/200/Incongruent/R/I_Dist_200_LN_7_LD_15_RN_4_RD_6_1.png","img2/300/Incongruent/L/I_Dist_300_LN_7_LD_10_RN_8_RD_20_0.png","img2/100/Incongruent/R/I_Dist_100_LN_10_LD_25_RN_9_RD_18_1.png","img2/300/Incongruent/R/I_Dist_300_LN_4_LD_20_RN_2_RD_4_1.png","img2/300/Congruent/R/C_Dist_300_LN_1_LD_5_RN_6_RD_12_1.png","img2/300/Congruent/L/C_Dist_300_LN_12_LD_24_RN_2_RD_10_0.png","img2/200/Congruent/L/C_Dist_200_LN_12_LD_15_RN_6_RD_10_0.png","img2/300/Incongruent/L/I_Dist_300_LN_3_LD_6_RN_4_RD_20_0.png","img2/300/Incongruent/L/I_Dist_300_LN_4_LD_5_RN_6_RD_12_0.png","img2/200/Incongruent/R/I_Dist_200_LN_7_LD_15_RN_6_RD_9_1.png","img2/100/Incongruent/L/I_Dist_100_LN_3_LD_5_RN_8_RD_16_0.png","img2/300/Congruent/R/C_Dist_300_LN_3_LD_6_RN_4_RD_5_1.png","img2/300/Incongruent/R/I_Dist_300_LN_4_LD_20_RN_2_RD_4_1.png","img2/200/Incongruent/L/I_Dist_200_LN_1_LD_2_RN_3_RD_10_0.png","img2/200/Congruent/R/C_Dist_200_LN_3_LD_12_RN_9_RD_20_1.png","img2/300/Congruent/R/C_Dist_300_LN_2_LD_20_RN_10_RD_25_1.png","img2/300/Congruent/R/C_Dist_300_LN_7_LD_14_RN_20_RD_25_1.png","img2/300/Incongruent/L/I_Dist_300_LN_2_LD_4_RN_6_RD_30_0.png","img2/100/Incongruent/L/I_Dist_100_LN_1_LD_2_RN_8_RD_20_0.png","img2/100/Incongruent/R/I_Dist_100_LN_12_LD_24_RN_9_RD_15_1.png","img2/200/Congruent/L/C_Dist_200_LN_12_LD_15_RN_6_RD_10_0.png","img2/100/Incongruent/R/I_Dist_100_LN_6_LD_12_RN_3_RD_5_1.png","img2/100/Congruent/R/C_Dist_100_LN_12_LD_30_RN_13_RD_26_1.png","img2/300/Congruent/R/C_Dist_300_LN_5_LD_25_RN_7_RD_14_1.png","img2/100/Congruent/R/C_Dist_100_LN_2_LD_5_RN_6_RD_12_1.png","img2/300/Congruent/R/C_Dist_300_LN_2_LD_10_RN_12_RD_24_1.png","img2/100/Congruent/L/C_Dist_100_LN_15_LD_25_RN_13_RD_26_0.png","img2/300/Incongruent/R/I_Dist_300_LN_13_LD_26_RN_12_RD_15_1.png","img2/300/Congruent/R/C_Dist_300_LN_1_LD_5_RN_6_RD_12_1.png","img2/200/Congruent/R/C_Dist_200_LN_6_LD_20_RN_11_RD_22_1.png","img2/200/Incongruent/L/I_Dist_200_LN_1_LD_3_RN_2_RD_15_0.png","img2/300/Incongruent/L/I_Dist_300_LN_8_LD_10_RN_14_RD_28_0.png","img2/100/Congruent/L/C_Dist_100_LN_11_LD_22_RN_6_RD_15_0.png","img2/200/Incongruent/R/I_Dist_200_LN_4_LD_30_RN_1_RD_3_1.png","img2/300/Congruent/L/C_Dist_300_LN_24_LD_30_RN_2_RD_4_0.png","img2/200/Congruent/R/C_Dist_200_LN_5_LD_10_RN_14_RD_20_1.png","img2/100/Congruent/L/C_Dist_100_LN_3_LD_6_RN_2_RD_5_0.png","img2/300/Incongruent/R/I_Dist_300_LN_4_LD_20_RN_2_RD_4_1.png","img2/200/Congruent/L/C_Dist_200_LN_8_LD_15_RN_7_RD_21_0.png","img2/200/Incongruent/L/I_Dist_200_LN_7_LD_10_RN_12_RD_24_0.png","img2/100/Congruent/R/C_Dist_100_LN_6_LD_12_RN_15_RD_25_1.png","img2/200/Incongruent/L/I_Dist_200_LN_1_LD_2_RN_3_RD_10_0.png","img2/100/Incongruent/R/I_Dist_100_LN_17_LD_30_RN_10_RD_15_1.png","img2/100/Congruent/R/C_Dist_100_LN_4_LD_8_RN_6_RD_10_1.png","img2/300/Incongruent/R/I_Dist_300_LN_13_LD_26_RN_12_RD_15_1.png","img2/100/Incongruent/L/I_Dist_100_LN_3_LD_9_RN_7_RD_30_0.png","img2/300/Congruent/L/C_Dist_300_LN_20_LD_25_RN_14_RD_28_0.png","img2/200/Incongruent/L/I_Dist_200_LN_3_LD_4_RN_11_RD_20_0.png","img2/300/Incongruent/R/I_Dist_300_LN_4_LD_20_RN_2_RD_4_1.png","img2/200/Incongruent/R/I_Dist_200_LN_4_LD_30_RN_1_RD_3_1.png","img2/100/Congruent/R/C_Dist_100_LN_2_LD_5_RN_11_RD_22_1.png","img2/100/Incongruent/L/I_Dist_100_LN_9_LD_10_RN_20_RD_25_0.png","img2/300/Incongruent/L/I_Dist_300_LN_8_LD_10_RN_14_RD_28_0.png","img2/100/Congruent/L/C_Dist_100_LN_10_LD_25_RN_3_RD_10_0.png"],"dist100_C":[["C_Dist_100_LN_10_LD_25_RN_3_RD_10_0.png","C_Dist_100_LN_11_LD_22_RN_4_RD_10_0.png","C_Dist_100_LN_11_LD_22_RN_6_RD_15_0.png","C_Dist_100_LN_15_LD_25_RN_13_RD_26_0.png","C_Dist_100_LN_3_LD_6_RN_2_RD_5_0.png","C_Dist_100_LN_6_LD_20_RN_5_RD_25_0.png","C_Dist_100_LN_8_LD_16_RN_2_RD_5_0.png","C_Dist_100_LN_9_LD_15_RN_8_RD_16_0.png"],["C_Dist_100_LN_1_LD_2_RN_18_RD_30_1.png","C_Dist_100_LN_1_LD_2_RN_3_RD_5_1.png","C_Dist_100_LN_12_LD_30_RN_13_RD_26_1.png","C_Dist_100_LN_2_LD_5_RN_11_RD_22_1.png","C_Dist_100_LN_2_LD_5_RN_6_RD_12_1.png","C_Dist_100_LN_3_LD_20_RN_4_RD_16_1.png","C_Dist_100_LN_4_LD_10_RN_15_RD_30_1.png","C_Dist_100_LN_4_LD_8_RN_6_RD_10_1.png","C_Dist_100_LN_6_LD_12_RN_15_RD_25_1.png","C_Dist_100_LN_7_LD_14_RN_15_RD_25_1.png","C_Dist_100_LN_7_LD_14_RN_9_RD_15_1.png"]],"dist100_I":[["I_Dist_100_LN_1_LD_2_RN_8_RD_20_0.png","I_Dist_100_LN_2_LD_4_RN_6_RD_15_0.png","I_Dist_100_LN_2_LD_4_RN_8_RD_20_0.png","I_Dist_100_LN_3_LD_5_RN_11_RD_22_0.png","I_Dist_100_LN_3_LD_5_RN_8_RD_16_0.png","I_Dist_100_LN_3_LD_6_RN_4_RD_10_0.png","I_Dist_100_LN_3_LD_9_RN_7_RD_30_0.png","I_Dist_100_LN_4_LD_8_RN_8_RD_20_0.png","I_Dist_100_LN_6_LD_10_RN_11_RD_22_0.png","I_Dist_100_LN_6_LD_10_RN_13_RD_26_0.png","I_Dist_100_LN_6_LD_10_RN_7_RD_14_0.png","I_Dist_100_LN_9_LD_10_RN_20_RD_25_0.png","I_Dist_100_LN_9_LD_15_RN_13_RD_26_0.png","I_Dist_100_LN_9_LD_15_RN_14_RD_28_0.png"],["I_Dist_100_LN_10_LD_25_RN_8_RD_16_1.png","I_Dist_100_LN_10_LD_25_RN_9_RD_18_1.png","I_Dist_100_LN_11_LD_22_RN_9_RD_15_1.png","I_Dist_100_LN_12_LD_24_RN_9_RD_15_1.png","I_Dist_100_LN_12_LD_30_RN_2_RD_4_1.png","I_Dist_100_LN_13_LD_26_RN_12_RD_20_1.png","I_Dist_100_LN_13_LD_26_RN_6_RD_10_1.png","I_Dist_100_LN_17_LD_30_RN_10_RD_15_1.png","I_Dist_100_LN_6_LD_12_RN_3_RD_5_1.png","I_Dist_100_LN_8_LD_16_RN_6_RD_10_1.png","I_Dist_100_LN_8_LD_20_RN_1_RD_2_1.png","I_Dist_100_LN_9_LD_18_RN_6_RD_10_1.png"]],"dist100_S":[["E_Dist_100_LN_2_LD_12_RN_2_RD_30_0.png","E_Dist_100_LN_6_LD_10_RN_6_RD_12_0.png"],["E_Dist_100_LN_6_LD_12_RN_6_RD_10_1.png"]],"dist200_C":[["C_Dist_200_LN_11_LD_22_RN_3_RD_10_0.png","C_Dist_200_LN_12_LD_15_RN_6_RD_10_0.png","C_Dist_200_LN_12_LD_20_RN_6_RD_15_0.png","C_Dist_200_LN_14_LD_28_RN_6_RD_20_0.png","C_Dist_200_LN_15_LD_25_RN_4_RD_10_0.png","C_Dist_200_LN_16_LD_20_RN_12_RD_20_0.png","C_Dist_200_LN_16_LD_30_RN_9_RD_27_0.png","C_Dist_200_LN_20_LD_25_RN_9_RD_15_0.png","C_Dist_200_LN_21_LD_30_RN_2_RD_4_0.png","C_Dist_200_LN_4_LD_10_RN_3_RD_15_0.png","C_Dist_200_LN_4_LD_8_RN_3_RD_10_0.png","C_Dist_200_LN_6_LD_15_RN_3_RD_15_0.png","C_Dist_200_LN_7_LD_21_RN_2_RD_15_0.png","C_Dist_200_LN_8_LD_15_RN_2_RD_6_0.png","C_Dist_200_LN_8_LD_15_RN_3_RD_9_0.png","C_Dist_200_LN_8_LD_15_RN_7_RD_21_0.png","C_Dist_200_LN_9_LD_20_RN_4_RD_16_0.png"],["C_Dist_200_LN_1_LD_2_RN_21_RD_30_1.png","C_Dist_200_LN_13_LD_26_RN_14_RD_20_1.png","C_Dist_200_LN_3_LD_10_RN_11_RD_22_1.png","C_Dist_200_LN_3_LD_10_RN_14_RD_28_1.png","C_Dist_200_LN_3_LD_10_RN_7_RD_14_1.png","C_Dist_200_LN_3_LD_12_RN_9_RD_20_1.png","C_Dist_200_LN_3_LD_6_RN_14_RD_20_1.png","C_Dist_200_LN_5_LD_10_RN_14_RD_20_1.png","C_Dist_200_LN_6_LD_12_RN_7_RD_10_1.png","C_Dist_200_LN_6_LD_20_RN_11_RD_22_1.png","C_Dist_200_LN_7_LD_15_RN_18_RD_27_1.png","C_Dist_200_LN_9_LD_30_RN_13_RD_26_1.png"]],"dist200_I":[["I_Dist_200_LN_1_LD_2_RN_3_RD_10_0.png","I_Dist_200_LN_1_LD_3_RN_2_RD_15_0.png","I_Dist_200_LN_3_LD_4_RN_11_RD_20_0.png","I_Dist_200_LN_4_LD_5_RN_6_RD_10_0.png","I_Dist_200_LN_4_LD_6_RN_14_RD_30_0.png","I_Dist_200_LN_7_LD_10_RN_12_RD_24_0.png","I_Dist_200_LN_7_LD_10_RN_14_RD_28_0.png","I_Dist_200_LN_7_LD_10_RN_8_RD_16_0.png"],["I_Dist_200_LN_11_LD_20_RN_3_RD_4_1.png","I_Dist_200_LN_14_LD_30_RN_12_RD_18_1.png","I_Dist_200_LN_14_LD_30_RN_6_RD_9_1.png","I_Dist_200_LN_3_LD_10_RN_1_RD_2_1.png","I_Dist_200_LN_4_LD_30_RN_1_RD_3_1.png","I_Dist_200_LN_6_LD_20_RN_3_RD_6_1.png","I_Dist_200_LN_7_LD_15_RN_4_RD_6_1.png","I_Dist_200_LN_7_LD_15_RN_6_RD_9_1.png","I_Dist_200_LN_9_LD_15_RN_8_RD_10_1.png"]],"dist200_S":[["E_Dist_200_LN_3_LD_6_RN_3_RD_10_0.png"],["E_Dist_200_LN_3_LD_10_RN_3_RD_6_1.png"]],"dist300_C":[["C_Dist_300_LN_11_LD_22_RN_1_RD_5_0.png","C_Dist_300_LN_11_LD_22_RN_2_RD_10_0.png","C_Dist_300_LN_11_LD_22_RN_4_RD_20_0.png","C_Dist_300_LN_12_LD_24_RN_2_RD_10_0.png","C_Dist_300_LN_18_LD_20_RN_9_RD_15_0.png","C_Dist_300_LN_20_LD_25_RN_13_RD_26_0.png","C_Dist_300_LN_20_LD_25_RN_14_RD_28_0.png","C_Dist_300_LN_20_LD_25_RN_5_RD_10_0.png","C_Dist_300_LN_20_LD_25_RN_8_RD_16_0.png","C_Dist_300_LN_20_LD_25_RN_9_RD_18_0.png","C_Dist_300_LN_24_LD_30_RN_2_RD_4_0.png","C_Dist_300_LN_24_LD_30_RN_8_RD_16_0.png","C_Dist_300_LN_3_LD_6_RN_2_RD_10_0.png","C_Dist_300_LN_4_LD_10_RN_1_RD_10_0.png","C_Dist_300_LN_4_LD_5_RN_2_RD_4_0.png","C_Dist_300_LN_8_LD_16_RN_1_RD_5_0.png","C_Dist_300_LN_9_LD_10_RN_3_RD_5_0.png"],["C_Dist_300_LN_1_LD_20_RN_7_RD_20_1.png","C_Dist_300_LN_1_LD_3_RN_19_RD_30_1.png","C_Dist_300_LN_1_LD_30_RN_8_RD_24_1.png","C_Dist_300_LN_1_LD_5_RN_11_RD_22_1.png","C_Dist_300_LN_1_LD_5_RN_3_RD_6_1.png","C_Dist_300_LN_1_LD_5_RN_6_RD_12_1.png","C_Dist_300_LN_2_LD_10_RN_12_RD_24_1.png","C_Dist_300_LN_2_LD_20_RN_10_RD_25_1.png","C_Dist_300_LN_3_LD_12_RN_11_RD_20_1.png","C_Dist_300_LN_3_LD_6_RN_4_RD_5_1.png","C_Dist_300_LN_4_LD_20_RN_13_RD_26_1.png","C_Dist_300_LN_5_LD_25_RN_6_RD_12_1.png","C_Dist_300_LN_5_LD_25_RN_7_RD_14_1.png","C_Dist_300_LN_7_LD_14_RN_20_RD_25_1.png","C_Dist_300_LN_8_LD_15_RN_10_RD_12_1.png"]],"dist300_I":[["I_Dist_300_LN_1_LD_2_RN_2_RD_10_0.png","I_Dist_300_LN_1_LD_2_RN_3_RD_15_0.png","I_Dist_300_LN_2_LD_4_RN_6_RD_30_0.png","I_Dist_300_LN_3_LD_6_RN_4_RD_20_0.png","I_Dist_300_LN_4_LD_5_RN_6_RD_12_0.png","I_Dist_300_LN_4_LD_5_RN_8_RD_16_0.png","I_Dist_300_LN_7_LD_10_RN_8_RD_20_0.png","I_Dist_300_LN_8_LD_10_RN_14_RD_28_0.png","I_Dist_300_LN_8_LD_10_RN_9_RD_18_0.png"],["I_Dist_300_LN_13_LD_26_RN_12_RD_15_1.png","I_Dist_300_LN_4_LD_20_RN_2_RD_4_1.png"]],"dist300_S":[["E_Dist_300_LN_9_LD_12_RN_9_RD_20_0.png"],["E_Dist_300_LN_18_LD_30_RN_18_RD_20_1.png","E_Dist_300_LN_3_LD_10_RN_3_RD_5_1.png","E_Dist_300_LN_9_LD_20_RN_9_RD_12_1.png"]],"dist500_C":[["C_Dist_500_LN_10_LD_13_RN_7_RD_26_0.png","C_Dist_500_LN_10_LD_15_RN_4_RD_24_0.png","C_Dist_500_LN_12_LD_16_RN_3_RD_12_0.png","C_Dist_500_LN_12_LD_18_RN_4_RD_24_0.png","C_Dist_500_LN_15_LD_18_RN_5_RD_15_0.png","C_Dist_500_LN_15_LD_20_RN_1_RD_4_0.png","C_Dist_500_LN_18_LD_27_RN_1_RD_6_0.png","C_Dist_500_LN_20_LD_24_RN_1_RD_3_0.png","C_Dist_500_LN_20_LD_24_RN_3_RD_9_0.png","C_Dist_500_LN_20_LD_24_RN_7_RD_21_0.png","C_Dist_500_LN_20_LD_28_RN_3_RD_14_0.png","C_Dist_500_LN_21_LD_28_RN_6_RD_24_0.png","C_Dist_500_LN_22_LD_28_RN_2_RD_7_0.png","C_Dist_500_LN_25_LD_30_RN_9_RD_27_0.png","C_Dist_500_LN_4_LD_6_RN_1_RD_6_0.png","C_Dist_500_LN_5_LD_6_RN_2_RD_6_0.png","C_Dist_500_LN_6_LD_9_RN_1_RD_6_0.png","C_Dist_500_LN_7_LD_10_RN_1_RD_5_0.png","C_Dist_500_LN_8_LD_12_RN_1_RD_6_0.png","C_Dist_500_LN_8_LD_12_RN_4_RD_24_0.png"],["C_Dist_500_LN_1_LD_4_RN_12_RD_16_1.png","C_Dist_500_LN_1_LD_4_RN_9_RD_12_1.png","C_Dist_500_LN_1_LD_9_RN_11_RD_18_1.png","C_Dist_500_LN_10_LD_24_RN_22_RD_24_1.png","C_Dist_500_LN_2_LD_12_RN_10_RD_15_1.png","C_Dist_500_LN_2_LD_12_RN_12_RD_18_1.png","C_Dist_500_LN_2_LD_12_RN_4_RD_6_1.png","C_Dist_500_LN_2_LD_24_RN_7_RD_12_1.png","C_Dist_500_LN_2_LD_5_RN_18_RD_20_1.png","C_Dist_500_LN_2_LD_5_RN_9_RD_10_1.png","C_Dist_500_LN_2_LD_8_RN_12_RD_16_1.png","C_Dist_500_LN_2_LD_8_RN_21_RD_28_1.png","C_Dist_500_LN_3_LD_10_RN_4_RD_5_1.png","C_Dist_500_LN_3_LD_12_RN_15_RD_20_1.png","C_Dist_500_LN_3_LD_30_RN_6_RD_10_1.png","C_Dist_500_LN_3_LD_8_RN_14_RD_16_1.png","C_Dist_500_LN_4_LD_16_RN_15_RD_20_1.png","C_Dist_500_LN_4_LD_24_RN_12_RD_18_1.png","C_Dist_500_LN_5_LD_14_RN_6_RD_7_1.png","C_Dist_500_LN_7_LD_21_RN_20_RD_24_1.png","C_Dist_500_LN_7_LD_28_RN_12_RD_16_1.png","C_Dist_500_LN_7_LD_28_RN_9_RD_12_1.png","C_Dist_500_LN_9_LD_27_RN_20_RD_24_1.png"]],"dist500_I":[["I_Dist_500_LN_2_LD_3_RN_4_RD_24_0.png","I_Dist_500_LN_5_LD_6_RN_6_RD_18_0.png","I_Dist_500_LN_7_LD_8_RN_9_RD_24_0.png"],["I_Dist_500_LN_7_LD_21_RN_5_RD_6_1.png"]],"dist500_S":[["E_Dist_500_LN_6_LD_8_RN_6_RD_24_0.png"],["E_Dist_500_LN_2_LD_12_RN_2_RD_3_1.png","E_Dist_500_LN_6_LD_24_RN_6_RD_8_1.png"]]}},{"start_time":1552073419293,"click_time":1552073420084,"finger_time":1552073419763,"fix_duration":1366.0021744920066,"trial":1,"RT":470,"MT":321,"sideResp":1,"stimulus":[],"xmouse":[776,776,776,776,776,776,776,776,784,797,805,810,810,810,810,810,810,810,810,810,810,810,793,778,752,755,770,770,643,620,598,581,577,548,523,514,514,513,513],"ymouse":[597,597,597,597,597,597,597,598,598,594,591,587,587,587,587,587,587,587,587,587,587,586,527,488,391,283,38,38,0,0,0,0,0,0,0,0,0,0,3],"timestamp_mouse":[14,53,71,91,110,131,151,170,190,212,230,250,271,291,310,330,350,370,390,412,431,450,470,491,511,530,552,571,592,610,631,651,670,690,710,730,751,770,791],"xSR":741.5,"ySR":573.95,"xT1":424.9,"yT1":0,"xT2":1058.1,"yT2":0,"toosoon":0,"cond_shown":"Incongruent","ratio_trial":300,"L_num":4,"L_den":20,"R_num":2,"R_den":4,"correct_side":2,"subjID":"dianaagudelomendez12","gender":"1","school":"4","age":"9"},{"start_time":1552073423278,"click_time":1552073424244,"finger_time":1552073423583,"fix_duration":833.1204663276668,"trial":2,"RT":305,"MT":661,"sideResp":2,"stimulus":[],"xmouse":[785,785,785,785,785,785,785,785,785,785,785,785,785,785,802,815,872,919,1010,1040,1057,1068,1080,1093,1096,1102,1106,1108,1111,1112,1112,1112,1112,1112,1112,1112,1112,1112,1112,1112,1112,1112,1112,1112,1112,1112,1112,1112,1109],"ymouse":[626,626,625,625,625,625,625,625,625,625,625,625,625,621,589,565,469,396,265,210,172,149,135,130,128,123,117,112,108,107,107,107,107,107,107,107,107,107,107,107,107,107,106,105,105,105,103,101,88],"timestamp_mouse":[11,25,45,65,85,105,125,145,165,185,205,226,245,265,285,305,326,345,365,385,406,426,446,466,485,505,525,545,566,585,605,625,645,665,687,706,725,746,765,786,806,825,845,865,885,905,925,945,965],"xSR":741.5,"ySR":573.95,"xT1":424.9,"yT1":0,"xT2":1058.1,"yT2":0,"toosoon":0,"cond_shown":"Congruent","ratio_trial":100,"L_num":10,"L_den":25,"R_num":3,"R_den":10,"correct_side":1,"subjID":"dianaagudelomendez12","gender":"1","school":"4","age":"9"},{"start_time":1552073426916,"click_time":1552073427144,"finger_time":1552073427004,"fix_duration":250,"trial":3,"RT":88,"MT":140,"sideResp":1,"stimulus":[],"xmouse":[769,769,770,770,747,719,629,578,538,510,492,472],"ymouse":[650,638,617,617,552,507,383,319,260,209,166,96],"timestamp_mouse":[14,27,60,67,88,107,127,148,167,188,207,228],"xSR":741.5,"ySR":573.95,"xT1":424.9,"yT1":0,"xT2":1058.1,"yT2":0,"toosoon":0,"cond_shown":"Incongruent","ratio_trial":100,"L_num":2,"L_den":4,"R_num":6,"R_den":15,"correct_side":1,"subjID":"dianaagudelomendez12","gender":"1","school":"4","age":"9"},{"start_time":1552073428795,"click_time":1552073429243,"finger_time":1552073429163,"fix_duration":250,"trial":4,"RT":368,"MT":80,"sideResp":1,"stimulus":[],"xmouse":[787,787,787,787,787,787,787,787,787,787,787,787,787,787,787,787,787,771,712,684,606,566,516],"ymouse":[670,670,670,670,670,670,670,670,670,670,670,670,669,667,663,658,648,599,488,440,296,212,96],"timestamp_mouse":[12,29,48,68,89,108,130,148,168,188,210,228,248,269,289,308,329,348,368,389,409,429,448],"xSR":741.5,"ySR":573.95,"xT1":424.9,"yT1":0,"xT2":1058.1,"yT2":0,"toosoon":0,"cond_shown":"Congruent","ratio_trial":300,"L_num":8,"L_den":15,"R_num":10,"R_den":12,"correct_side":2,"subjID":"dianaagudelomendez12","gender":"1","school":"4","age":"9"},{"start_time":1552073430856,"click_time":1552073431623,"finger_time":1552073431164,"fix_duration":250,"trial":5,"RT":308,"MT":459,"sideResp":2,"stimulus":[],"xmouse":[823,823,823,823,823,823,823,823,823,823,823,823,823,823,829,842,860,900,931,995,1023,1042,1054,1066,1083,1085,1086,1087,1088,1088,1088,1088,1088,1085,1083,1083,1084,1096,1110],"ymouse":[633,633,633,633,633,633,633,633,633,633,633,633,633,633,629,615,593,546,504,411,368,341,316,298,278,273,271,270,269,266,263,257,244,228,195,181,160,123,93],"timestamp_mouse":[23,39,48,67,87,108,127,147,168,187,209,227,249,268,287,308,327,348,368,387,408,428,447,467,487,507,528,548,567,587,607,628,647,668,687,709,728,747,767],"xSR":741.5,"ySR":573.95,"xT1":424.9,"yT1":0,"xT2":1058.1,"yT2":0,"toosoon":0,"cond_shown":"Incongruent","ratio_trial":300,"L_num":4,"L_den":20,"R_num":2,"R_den":4,"correct_side":2,"subjID":"dianaagudelomendez12","gender":"1","school":"4","age":"9"},{"start_time":1552073433617,"click_time":1552073434543,"finger_time":1552073433843,"fix_duration":712.4092804608986,"trial":6,"RT":226,"MT":700,"sideResp":2,"stimulus":[],"xmouse":[777,777,777,778,778,778,780,781,782,784,785,790,793,796,803,811,832,851,882,909,943,957,960,965,971,978,991,996,999,1003,1006,1012,1015,1018,1023,1024,1027,1031,1035,1037,1039,1042,1043,1044,1045,1048,1059],"ymouse":[609,601,589,588,588,588,586,583,582,580,578,573,567,560,545,527,469,428,377,329,268,231,221,212,202,190,163,143,134,125,120,109,104,97,90,84,73,67,60,57,53,47,46,45,44,44,45],"timestamp_mouse":[7,35,46,66,87,106,126,146,167,187,207,226,246,266,286,307,327,346,366,386,407,426,446,467,487,507,527,546,566,587,608,627,646,667,687,707,726,746,766,787,807,826,846,866,887,907,926],"xSR":741.5,"ySR":573.95,"xT1":424.9,"yT1":0,"xT2":1058.1,"yT2":0,"toosoon":0,"cond_shown":"Congruent","ratio_trial":100,"L_num":10,"L_den":25,"R_num":3,"R_den":10,"correct_side":1,"subjID":"dianaagudelomendez12","gender":"1","school":"4","age":"9"},{"start_time":1552073440056,"click_time":1552073440863,"finger_time":1552073440443,"fix_duration":250,"trial":7,"RT":387,"MT":420,"sideResp":1,"stimulus":[],"xmouse":[779,779,779,779,779,779,779,779,779,779,779,779,779,779,779,779,776,774,755,678,619,560,511,475,445,444,443,443,443,443,443,443,443,444,446,452,455,462,465,475,482],"ymouse":[623,623,623,623,623,623,623,623,623,623,623,623,623,623,623,623,624,624,606,521,449,377,311,254,191,176,165,158,156,155,155,155,155,153,152,149,147,142,137,107,85],"timestamp_mouse":[15,41,48,68,87,107,128,148,168,187,208,227,247,268,287,307,327,347,368,387,407,429,447,468,487,507,527,547,567,588,609,627,648,668,687,708,728,748,767,787,807],"xSR":741.5,"ySR":573.95,"xT1":424.9,"yT1":0,"xT2":1058.1,"yT2":0,"toosoon":0,"cond_shown":"Incongruent","ratio_trial":100,"L_num":8,"L_den":20,"R_num":1,"R_den":2,"correct_side":2,"subjID":"dianaagudelomendez12","gender":"1","school":"4","age":"9"},{"start_time":1552073442670,"click_time":1552073443303,"finger_time":1552073443124,"fix_duration":545.9750392147288,"trial":8,"RT":454,"MT":179,"sideResp":2,"stimulus":[],"xmouse":[759,759,759,759,759,759,759,759,759,759,759,759,759,759,759,759,759,759,759,759,766,773,789,810,823,838,874,917,1036,1091,1131,1151],"ymouse":[602,602,602,602,602,602,602,602,602,602,602,602,602,602,602,602,602,602,602,602,597,589,573,527,495,458,389,336,213,160,119,90],"timestamp_mouse":[20,44,53,73,93,113,133,153,173,193,214,233,253,275,294,314,333,353,373,393,413,434,454,474,493,514,534,553,573,594,613,633],"xSR":741.5,"ySR":573.95,"xT1":424.9,"yT1":0,"xT2":1058.1,"yT2":0,"toosoon":0,"cond_shown":"Congruent","ratio_trial":100,"L_num":6,"L_den":20,"R_num":5,"R_den":25,"correct_side":1,"subjID":"dianaagudelomendez12","gender":"1","school":"4","age":"9"},{"start_time":1552073444916,"click_time":1552073446183,"finger_time":1552073445284,"fix_duration":389.34610466652896,"trial":9,"RT":368,"MT":899,"sideResp":1,"stimulus":[],"xmouse":[793,793,793,793,793,793,795,796,800,802,803,803,803,803,803,804,799,788,769,744,712,639,603,569,538,509,492,491,491,491,490,490,490,490,490,490,490,490,490,490,490,490,490,490,490,490,490,490,490,490,490,490,490,490,492,492,493,493,494,495,495,495,495,495],"ymouse":[646,646,646,646,646,646,647,647,648,648,648,648,648,648,648,646,627,602,559,490,422,250,164,83,13,0,0,0,0,0,0,0,0,0,0,0,0,0,0,0,0,0,0,0,0,0,0,0,0,0,0,0,0,0,0,0,0,0,0,0,0,0,0,2],"timestamp_mouse":[13,43,47,67,88,107,127,147,168,187,208,227,248,268,288,307,327,347,368,388,408,427,447,467,487,507,528,547,568,588,608,627,648,668,688,708,728,748,768,788,808,827,847,867,887,908,928,947,967,987,1008,1027,1047,1067,1087,1108,1127,1147,1168,1187,1207,1228,1247,1267],"xSR":741.5,"ySR":573.95,"xT1":424.9,"yT1":0,"xT2":1058.1,"yT2":0,"toosoon":0,"cond_shown":"Incongruent","ratio_trial":100,"L_num":9,"L_den":15,"R_num":13,"R_den":26,"correct_side":1,"subjID":"dianaagudelomendez12","gender":"1","school":"4","age":"9"},{"start_time":1552073449938,"click_time":1552073450443,"finger_time":1552073450283,"fix_duration":613.2896311601613,"trial":10,"RT":345,"MT":160,"sideResp":1,"stimulus":[],"xmouse":[769,769,769,769,767,766,765,765,765,765,765,765,765,765,764,762,755,742,720,684,590,549,516,491,483,473],"ymouse":[647,647,647,647,644,638,636,634,634,634,634,634,634,634,631,615,596,565,519,452,314,249,198,142,121,93],"timestamp_mouse":[15,35,45,65,86,105,125,146,166,186,205,226,246,266,285,305,325,345,366,386,405,425,446,465,485,505],"xSR":741.5,"ySR":573.95,"xT1":424.9,"yT1":0,"xT2":1058.1,"yT2":0,"toosoon":0,"cond_shown":"Incongruent","ratio_trial":200,"L_num":4,"L_den":30,"R_num":1,"R_den":3,"correct_side":2,"subjID":"dianaagudelomendez12","gender":"1","school":"4","age":"9"},{"start_time":1552073452345,"click_time":1552073453724,"finger_time":1552073452764,"fix_duration":700.4079234863675,"trial":11,"RT":419,"MT":960,"sideResp":2,"stimulus":[],"xmouse":[762,762,762,762,762,762,762,762,762,762,762,762,762,762,762,762,762,762,764,773,784,795,815,835,900,946,989,1024,1050,1084,1090,1093,1093,1093,1093,1093,1093,1093,1093,1093,1093,1093,1093,1093,1093,1093,1093,1093,1093,1093,1093,1093,1093,1093,1093,1093,1093,1093,1093,1093,1093,1093,1093,1093,1093,1093,1093,1093,1093],"ymouse":[614,614,614,614,614,614,614,614,614,614,614,614,614,614,614,614,614,614,612,595,570,539,483,432,297,214,137,64,0,0,0,0,0,0,0,0,0,0,0,0,0,0,0,0,0,0,0,0,0,0,0,0,0,0,0,0,0,0,0,0,0,0,0,0,0,0,0,0,3],"timestamp_mouse":[18,40,59,79,100,119,139,158,178,198,219,240,259,278,298,318,338,359,380,398,419,438,458,478,498,518,538,558,578,598,618,638,659,679,699,719,739,758,778,799,819,838,859,879,898,918,939,958,979,998,1018,1038,1059,1079,1098,1118,1139,1159,1178,1198,1218,1238,1259,1278,1298,1318,1338,1358,1379],"xSR":741.5,"ySR":573.95,"xT1":424.9,"yT1":0,"xT2":1058.1,"yT2":0,"toosoon":0,"cond_shown":"Congruent","ratio_trial":100,"L_num":6,"L_den":20,"R_num":5,"R_den":25,"correct_side":1,"subjID":"dianaagudelomendez12","gender":"1","school":"4","age":"9"},{"start_time":1552073461021,"click_time":1552073462525,"finger_time":1552073461365,"fix_duration":454.2446266000626,"trial":12,"RT":344,"MT":1160,"sideResp":2,"stimulus":[],"xmouse":[788,788,788,788,788,788,788,788,788,788,788,788,788,788,788,788,779,755,738,699,622,550,539,536,536,536,536,535,531,529,526,521,519,517,515,510,506,503,500,497,496,495,494,494,494,494,494,494,494,494,496,505,510,518,528,539,562,576,602,618,635,663,684,714,750,794,901,950,959,974,982,1018,1038,1051,1058,1061],"ymouse":[627,627,627,627,627,627,627,627,627,627,627,627,627,627,627,624,604,558,531,464,360,256,234,215,201,193,186,184,180,177,174,169,165,162,159,150,142,137,129,118,114,105,103,101,101,101,101,101,101,100,100,101,101,102,106,107,112,115,119,122,126,127,127,126,121,114,98,91,90,88,88,88,88,88,87,87],"timestamp_mouse":[14,36,42,62,83,104,124,144,164,184,203,223,242,262,282,303,322,344,363,384,403,423,442,463,482,503,522,543,563,582,603,622,643,662,683,705,723,743,764,783,803,823,844,863,882,902,922,943,962,983,1003,1023,1043,1063,1082,1103,1123,1142,1163,1183,1203,1223,1243,1263,1282,1302,1322,1342,1364,1384,1404,1423,1443,1463,1482,1503],"xSR":741.5,"ySR":573.95,"xT1":424.9,"yT1":0,"xT2":1058.1,"yT2":0,"toosoon":0,"cond_shown":"Incongruent","ratio_trial":300,"L_num":4,"L_den":20,"R_num":2,"R_den":4,"correct_side":2,"subjID":"dianaagudelomendez12","gender":"1","school":"4","age":"9"},{"start_time":1552073464611,"click_time":1552073465204,"finger_time":1552073464823,"fix_duration":266.28511243417154,"trial":13,"RT":212,"MT":381,"sideResp":2,"stimulus":[],"xmouse":[797,797,797,797,797,797,797,798,806,818,834,871,891,912,931,952,996,1028,1036,1055,1064,1077,1079,1081,1083,1083,1083,1084,1091,1101],"ymouse":[602,602,602,602,602,602,602,603,596,586,571,512,463,407,345,271,135,58,31,0,0,0,0,0,0,0,0,0,0,3],"timestamp_mouse":[14,35,53,73,94,114,132,153,173,192,212,232,253,273,293,312,333,352,373,393,413,434,452,472,492,513,533,553,572,593],"xSR":741.5,"ySR":573.95,"xT1":424.9,"yT1":0,"xT2":1058.1,"yT2":0,"toosoon":0,"cond_shown":"Incongruent","ratio_trial":100,"L_num":6,"L_den":12,"R_num":3,"R_den":5,"correct_side":2,"subjID":"dianaagudelomendez12","gender":"1","school":"4","age":"9"},{"start_time":1552073467568,"click_time":1552073468425,"finger_time":1552073467903,"fix_duration":923.2367258934377,"trial":14,"RT":335,"MT":522,"sideResp":2,"stimulus":[],"xmouse":[794,794,794,794,794,794,794,794,794,794,794,794,794,794,794,807,849,909,979,986,994,1000,1004,1012,1016,1019,1021,1024,1026,1027,1027,1028,1028,1029,1031,1033,1036,1038,1048,1051,1054,1058,1061],"ymouse":[624,624,624,624,624,624,624,624,624,624,624,624,624,624,624,612,579,523,394,347,300,257,236,209,200,193,189,183,175,172,170,169,169,167,165,163,157,150,120,106,88,77,66],"timestamp_mouse":[20,44,55,76,96,117,137,157,175,196,217,236,257,276,296,315,335,357,376,396,415,435,456,476,495,516,535,557,575,597,616,636,656,676,696,715,735,757,775,795,815,835,856],"xSR":741.5,"ySR":573.95,"xT1":424.9,"yT1":0,"xT2":1058.1,"yT2":0,"toosoon":0,"cond_shown":"Incongruent","ratio_trial":100,"L_num":3,"L_den":6,"R_num":4,"R_den":10,"correct_side":1,"subjID":"dianaagudelomendez12","gender":"1","school":"4","age":"9"},{"start_time":1552073470076,"click_time":1552073470725,"finger_time":1552073470404,"fix_duration":250,"trial":15,"RT":328,"MT":321,"sideResp":1,"stimulus":[],"xmouse":[823,823,823,823,823,823,823,822,820,820,817,813,808,795,774,748,713,640,520,481,453,436,424,414,415,417,424,429,438,443,448,453,457],"ymouse":[640,640,640,640,640,640,640,640,640,640,640,640,639,636,627,608,579,507,382,332,288,259,235,198,177,170,152,138,118,111,105,100,95],"timestamp_mouse":[13,36,55,69,88,108,128,147,168,188,208,227,249,267,287,309,328,348,367,388,409,428,448,468,487,509,528,547,567,587,608,627,649],"xSR":741.5,"ySR":573.95,"xT1":424.9,"yT1":0,"xT2":1058.1,"yT2":0,"toosoon":0,"cond_shown":"Incongruent","ratio_trial":100,"L_num":3,"L_den":5,"R_num":8,"R_den":16,"correct_side":1,"subjID":"dianaagudelomendez12","gender":"1","school":"4","age":"9"},{"start_time":1552073476096,"click_time":1552073476903,"finger_time":1552073476683,"fix_duration":250,"trial":16,"RT":587,"MT":220,"sideResp":2,"stimulus":[],"xmouse":[780,780,780,780,780,780,780,780,780,780,780,780,780,780,780,780,780,780,780,780,780,779,779,779,779,779,779,783,788,800,813,830,864,886,915,933,950,999,1037,1081,1120],"ymouse":[622,622,622,622,622,622,622,622,622,622,622,622,622,622,622,622,622,622,622,622,622,621,621,621,619,614,608,593,584,571,558,543,496,463,411,379,350,260,203,148,95],"timestamp_mouse":[14,29,49,67,89,107,127,148,168,187,209,227,247,268,289,309,327,347,369,388,407,428,448,468,488,508,527,547,568,587,607,628,647,667,687,708,728,748,767,787,807],"xSR":741.5,"ySR":573.95,"xT1":424.9,"yT1":0,"xT2":1058.1,"yT2":0,"toosoon":0,"cond_shown":"Incongruent","ratio_trial":300,"L_num":4,"L_den":20,"R_num":2,"R_den":4,"correct_side":2,"subjID":"dianaagudelomendez12","gender":"1","school":"4","age":"9"},{"start_time":1552073483395,"click_time":1552073486083,"finger_time":1552073485523,"fix_duration":250,"trial":17,"RT":2128,"MT":560,"sideResp":2,"stimulus":[],"xmouse":[783,783,783,783,783,783,783,783,783,783,783,783,783,783,783,783,783,783,783,783,783,783,783,783,783,783,783,783,783,783,783,783,783,783,783,783,783,783,783,783,783,783,783,783,783,783,783,783,783,783,783,783,783,783,783,783,783,783,783,783,783,783,783,783,783,783,783,783,783,783,784,785,786,786,786,786,786,786,786,786,786,786,786,786,786,786,786,786,786,786,786,786,786,786,786,786,786,786,786,786,786,787,793,804,818,837,854,880,889,896,905,911,925,930,933,939,955,964,973,973,973,976,978,979,979,979,981,997,1011,1031,1034,1050,1064,1071,1078],"ymouse":[665,665,665,665,665,665,665,665,665,665,665,665,665,665,665,665,665,665,665,665,665,665,665,665,665,665,665,665,665,665,665,665,665,665,665,665,665,665,665,665,665,665,665,665,665,665,665,665,665,665,665,665,665,665,665,665,665,665,665,665,665,665,665,665,665,665,665,665,665,665,666,666,667,667,667,667,667,667,667,667,667,667,667,667,667,667,667,667,667,667,667,667,667,667,667,667,667,667,667,667,667,667,665,661,652,641,627,590,569,546,516,494,443,418,395,373,317,286,234,215,173,155,145,144,144,144,144,144,140,133,132,121,110,103,97],"timestamp_mouse":[16,29,48,69,90,109,129,149,169,188,209,230,249,270,290,308,329,348,369,388,409,429,449,469,489,510,530,548,569,588,609,629,649,669,689,708,728,748,768,790,810,829,848,869,890,909,930,949,969,988,1008,1029,1049,1069,1088,1109,1129,1149,1170,1189,1208,1229,1248,1268,1288,1309,1328,1349,1370,1389,1409,1429,1449,1470,1490,1509,1529,1549,1570,1589,1609,1628,1648,1669,1690,1709,1728,1748,1768,1788,1808,1828,1850,1870,1890,1910,1929,1950,1970,1990,2010,2029,2049,2068,2089,2108,2128,2148,2168,2189,2208,2229,2248,2268,2288,2309,2331,2349,2369,2389,2409,2428,2448,2469,2489,2509,2528,2549,2569,2589,2609,2628,2649,2669,2688],"xSR":741.5,"ySR":573.95,"xT1":424.9,"yT1":0,"xT2":1058.1,"yT2":0,"toosoon":0,"cond_shown":"Incongruent","ratio_trial":200,"L_num":7,"L_den":10,"R_num":8,"R_den":16,"correct_side":1,"subjID":"dianaagudelomendez12","gender":"1","school":"4","age":"9"},{"start_time":1552073488396,"click_time":1552073489224,"finger_time":1552073488824,"fix_duration":670.6162499802335,"trial":18,"RT":428,"MT":400,"sideResp":1,"stimulus":[],"xmouse":[775,775,775,775,775,775,775,775,775,775,775,775,775,775,775,775,775,775,775,778,780,781,781,781,775,767,756,711,678,642,601,582,557,550,545,539,534,523,519,515,514,514],"ymouse":[595,595,595,595,595,595,595,595,595,595,595,595,595,595,595,595,595,595,594,588,580,573,553,540,523,503,477,405,360,320,267,243,210,199,189,176,163,135,123,109,102,97],"timestamp_mouse":[13,36,48,68,89,107,128,148,168,188,207,228,247,267,288,309,329,347,367,387,408,428,447,468,488,508,529,548,568,588,608,628,647,667,687,707,728,747,767,787,807,827],"xSR":741.5,"ySR":573.95,"xT1":424.9,"yT1":0,"xT2":1058.1,"yT2":0,"toosoon":0,"cond_shown":"Incongruent","ratio_trial":200,"L_num":7,"L_den":15,"R_num":6,"R_den":9,"correct_side":2,"subjID":"dianaagudelomendez12","gender":"1","school":"4","age":"9"},{"start_time":1552073491949,"click_time":1552073492424,"finger_time":1552073492303,"fix_duration":364.36313358868944,"trial":19,"RT":354,"MT":121,"sideResp":1,"stimulus":[],"xmouse":[758,758,758,758,758,758,758,758,758,758,758,758,758,758,758,758,757,756,751,688,606,583,537,485],"ymouse":[588,588,588,588,588,588,588,588,588,588,588,588,588,588,588,588,580,571,542,386,245,200,122,32],"timestamp_mouse":[14,37,54,74,95,116,134,154,175,194,215,235,255,275,296,315,334,354,374,394,414,435,455,475],"xSR":741.5,"ySR":573.95,"xT1":424.9,"yT1":0,"xT2":1058.1,"yT2":0,"toosoon":0,"cond_shown":"Congruent","ratio_trial":300,"L_num":1,"L_den":30,"R_num":8,"R_den":24,"correct_side":2,"subjID":"dianaagudelomendez12","gender":"1","school":"4","age":"9"},{"start_time":1552073495260,"click_time":1552073496144,"finger_time":1552073495704,"fix_duration":1215.4479347176118,"trial":20,"RT":444,"MT":440,"sideResp":2,"stimulus":[],"xmouse":[782,782,782,782,782,782,782,782,782,782,782,782,782,782,782,782,782,782,782,800,815,831,849,878,953,1020,1054,1084,1111,1143,1153,1163,1172,1176,1180,1180,1181,1182,1182,1182,1182,1179,1173,1166,1156],"ymouse":[643,643,643,643,643,643,643,643,643,643,643,643,643,643,643,643,643,643,642,624,610,591,565,523,421,328,269,223,178,124,107,91,78,70,65,61,58,53,49,40,36,34,33,32,30],"timestamp_mouse":[14,36,43,63,83,104,123,144,164,183,204,223,243,263,284,304,323,344,365,383,404,423,444,463,484,503,524,545,564,583,603,624,643,664,683,703,724,745,764,783,803,823,843,864,884],"xSR":741.5,"ySR":573.95,"xT1":424.9,"yT1":0,"xT2":1058.1,"yT2":0,"toosoon":0,"cond_shown":"Incongruent","ratio_trial":200,"L_num":7,"L_den":15,"R_num":6,"R_den":9,"correct_side":2,"subjID":"dianaagudelomendez12","gender":"1","school":"4","age":"9"},{"start_time":1552073499210,"click_time":1552073499964,"finger_time":1552073499564,"fix_duration":705.5857543610261,"trial":21,"RT":354,"MT":400,"sideResp":2,"stimulus":[],"xmouse":[822,822,822,822,822,822,822,822,822,822,822,822,822,822,822,823,830,837,862,874,914,947,957,970,981,993,1017,1025,1030,1036,1037,1043,1046,1048,1050,1052,1060,1070],"ymouse":[599,599,599,599,599,599,599,599,599,599,599,599,599,599,599,595,575,552,488,457,352,232,190,148,110,71,3,0,0,0,0,0,0,0,0,0,0,3],"timestamp_mouse":[13,39,53,74,95,113,133,153,175,194,214,233,253,273,295,314,334,354,373,394,413,433,453,474,493,514,533,554,573,595,614,633,653,674,695,714,733,754],"xSR":741.5,"ySR":573.95,"xT1":424.9,"yT1":0,"xT2":1058.1,"yT2":0,"toosoon":0,"cond_shown":"Congruent","ratio_trial":100,"L_num":6,"L_den":20,"R_num":5,"R_den":25,"correct_side":1,"subjID":"dianaagudelomendez12","gender":"1","school":"4","age":"9"},{"start_time":1552073502256,"click_time":1552073503103,"finger_time":1552073502704,"fix_duration":690.5142833931425,"trial":22,"RT":448,"MT":399,"sideResp":1,"stimulus":[],"xmouse":[826,826,826,826,826,826,826,826,826,826,826,826,826,826,826,826,826,826,825,820,811,801,785,766,720,686,671,659,646,616,605,592,578,566,549,535,523,514,510,507,504,501,496],"ymouse":[632,632,632,632,632,632,632,632,632,632,632,632,632,632,632,632,632,632,630,616,598,575,540,499,391,299,247,204,163,85,58,31,1,0,0,0,0,0,0,0,0,0,2],"timestamp_mouse":[15,38,47,68,89,108,128,148,169,188,209,228,248,267,288,308,328,348,367,387,408,427,448,467,488,507,528,548,568,588,608,629,649,668,687,708,727,747,767,788,808,827,847],"xSR":741.5,"ySR":573.95,"xT1":424.9,"yT1":0,"xT2":1058.1,"yT2":0,"toosoon":0,"cond_shown":"Congruent","ratio_trial":300,"L_num":20,"L_den":25,"R_num":14,"R_den":28,"correct_side":1,"subjID":"dianaagudelomendez12","gender":"1","school":"4","age":"9"},{"start_time":1552073507216,"click_time":1552073507704,"finger_time":1552073507623,"fix_duration":250,"trial":23,"RT":407,"MT":81,"sideResp":1,"stimulus":[],"xmouse":[773,773,773,773,773,773,773,773,773,773,773,773,773,773,774,774,774,774,774,773,763,700,649,586,522],"ymouse":[602,602,602,602,602,602,602,602,602,602,602,602,602,602,602,602,602,602,602,587,554,399,288,168,59],"timestamp_mouse":[14,36,47,68,88,108,127,148,169,187,208,229,247,267,288,308,327,347,367,388,407,427,447,467,487],"xSR":741.5,"ySR":573.95,"xT1":424.9,"yT1":0,"xT2":1058.1,"yT2":0,"toosoon":0,"cond_shown":"Incongruent","ratio_trial":200,"L_num":7,"L_den":10,"R_num":8,"R_den":16,"correct_side":1,"subjID":"dianaagudelomendez12","gender":"1","school":"4","age":"9"},{"start_time":1552073521946,"click_time":1552073524125,"finger_time":1552073523584,"fix_duration":1181.3650901042938,"trial":24,"RT":1638,"MT":541,"sideResp":2,"stimulus":[],"xmouse":[784,784,784,784,784,784,784,784,784,784,784,784,784,784,784,784,784,784,784,784,784,784,784,784,784,784,784,784,784,784,783,782,782,782,782,782,782,782,782,782,782,782,782,782,782,782,782,782,782,782,782,782,782,782,782,782,782,782,782,782,782,782,782,782,782,782,782,782,782,782,782,782,782,782,782,782,782,782,782,786,788,792,792,792,803,813,825,841,861,903,922,943,957,969,981,984,988,991,994,1001,1006,1010,1014,1019,1029,1034,1041,1053,1071],"ymouse":[630,630,630,630,630,630,630,630,630,630,630,630,630,630,630,630,630,630,630,630,630,630,630,630,630,630,630,630,630,631,632,633,633,633,633,633,633,633,633,633,633,633,633,633,633,633,633,633,633,633,633,633,633,633,633,633,633,633,633,633,633,633,633,633,633,633,633,633,633,633,633,633,633,633,633,633,633,633,630,619,600,572,537,480,422,405,391,383,377,360,346,320,300,283,253,239,226,215,205,182,163,150,140,128,114,109,104,96,83],"timestamp_mouse":[18,39,59,78,97,118,138,158,177,197,217,237,257,277,297,317,338,359,377,398,417,438,459,479,498,518,539,559,577,597,619,639,657,678,699,718,738,757,779,798,817,837,859,879,897,918,939,958,978,997,1018,1039,1058,1078,1098,1118,1138,1159,1178,1198,1218,1239,1259,1279,1299,1319,1338,1358,1379,1397,1417,1437,1458,1477,1497,1517,1537,1557,1578,1598,1617,1638,1659,1678,1698,1717,1738,1757,1777,1798,1819,1838,1857,1879,1898,1917,1937,1958,1977,1998,2017,2037,2058,2078,2098,2118,2138,2158,2179],"xSR":741.5,"ySR":573.95,"xT1":424.9,"yT1":0,"xT2":1058.1,"yT2":0,"toosoon":0,"cond_shown":"Incongruent","ratio_trial":200,"L_num":3,"L_den":10,"R_num":1,"R_den":2,"correct_side":2,"subjID":"dianaagudelomendez12","gender":"1","school":"4","age":"9"},{"start_time":1552073527317,"click_time":1552073528144,"finger_time":1552073527704,"fix_duration":512.0341366992129,"trial":25,"RT":387,"MT":440,"sideResp":1,"stimulus":[],"xmouse":[770,770,770,770,770,770,770,770,770,770,770,770,770,770,770,770,770,769,764,749,721,637,599,554,544,544,544,544,544,544,545,546,546,546,547,547,547,547,546,538,528,508],"ymouse":[660,660,660,660,660,660,660,660,660,660,660,660,660,660,660,660,660,648,618,556,471,275,186,80,46,30,25,25,25,25,25,25,25,25,25,25,25,25,26,32,37,52],"timestamp_mouse":[14,43,46,67,88,108,126,146,167,186,206,226,247,268,286,307,326,346,368,387,408,426,447,466,486,506,526,547,567,586,607,627,647,667,686,707,727,748,767,787,808,826],"xSR":741.5,"ySR":573.95,"xT1":424.9,"yT1":0,"xT2":1058.1,"yT2":0,"toosoon":0,"cond_shown":"Congruent","ratio_trial":200,"L_num":7,"L_den":21,"R_num":2,"R_den":15,"correct_side":1,"subjID":"dianaagudelomendez12","gender":"1","school":"4","age":"9"},{"start_time":1552073531125,"click_time":1552073532324,"finger_time":1552073531644,"fix_duration":1339.002596276234,"trial":26,"RT":519,"MT":680,"sideResp":2,"stimulus":[],"xmouse":[782,782,782,782,782,782,782,782,782,782,782,782,782,782,782,782,782,782,782,782,782,782,782,784,800,822,912,966,1029,1108,1193,1359,1431,1508,1529,1544,1553,1554,1554,1554,1551,1481,1389,1352,1332,1321,1306,1295,1286,1279,1274,1264,1262,1258,1256,1254,1243,1225,1194,1164,1145],"ymouse":[640,640,640,640,640,640,640,640,640,640,640,640,640,640,640,640,640,640,640,640,640,640,640,630,609,575,449,371,283,192,95,0,0,0,0,0,0,0,0,0,0,0,0,0,0,0,17,33,50,65,76,87,89,89,90,90,87,82,71,57,48],"timestamp_mouse":[2,19,38,58,79,98,118,138,158,180,199,218,240,258,278,300,320,339,359,379,400,418,439,458,479,499,519,538,559,578,599,618,639,659,680,699,718,740,759,778,799,819,840,859,879,898,918,938,960,980,999,1019,1038,1058,1079,1098,1119,1138,1158,1178,1199],"xSR":741.5,"ySR":573.95,"xT1":424.9,"yT1":0,"xT2":1058.1,"yT2":0,"toosoon":0,"cond_shown":"Incongruent","ratio_trial":100,"L_num":8,"L_den":20,"R_num":1,"R_den":2,"correct_side":2,"subjID":"dianaagudelomendez12","gender":"1","school":"4","age":"9"},{"start_time":1552073534689,"click_time":1552073535684,"finger_time":1552073535243,"fix_duration":543.7077166325993,"trial":27,"RT":554,"MT":441,"sideResp":2,"stimulus":[],"xmouse":[809,809,809,809,809,809,809,809,809,809,809,809,809,809,809,809,809,809,809,809,809,809,809,809,809,809,808,813,826,846,879,919,986,1009,1036,1045,1053,1067,1073,1078,1080,1082,1083,1083,1084,1084,1087,1090,1092,1092],"ymouse":[632,632,632,632,632,632,632,632,632,632,632,632,632,632,632,632,632,632,632,632,632,632,632,632,632,632,632,569,505,429,354,284,172,132,76,43,16,0,0,0,0,0,0,0,0,0,0,0,0,1],"timestamp_mouse":[14,37,55,75,95,114,134,154,175,195,216,236,254,275,296,314,335,356,374,396,414,434,456,475,495,516,534,554,574,594,615,635,654,675,694,715,736,756,774,794,815,836,856,876,894,916,936,954,975,995],"xSR":741.5,"ySR":573.95,"xT1":424.9,"yT1":0,"xT2":1058.1,"yT2":0,"toosoon":0,"cond_shown":"Congruent","ratio_trial":200,"L_num":5,"L_den":10,"R_num":14,"R_den":20,"correct_side":2,"subjID":"dianaagudelomendez12","gender":"1","school":"4","age":"9"},{"start_time":1552073538497,"click_time":1552073539324,"finger_time":1552073538884,"fix_duration":250,"trial":28,"RT":387,"MT":440,"sideResp":2,"stimulus":[],"xmouse":[777,777,777,777,777,777,777,777,777,777,777,777,777,777,777,778,781,807,831,864,896,910,925,935,958,976,991,1008,1013,1016,1019,1020,1020,1021,1022,1022,1025,1033,1039,1047,1056,1061],"ymouse":[618,618,618,618,618,618,618,618,618,618,618,618,618,618,618,618,617,598,576,538,487,443,362,322,255,215,175,96,64,36,16,0,0,0,0,0,0,0,3,6,13,19],"timestamp_mouse":[13,27,47,66,86,108,127,146,168,187,206,226,248,267,286,308,326,346,366,387,407,426,446,467,487,507,527,547,566,586,607,628,648,668,687,708,726,746,766,788,808,827],"xSR":741.5,"ySR":573.95,"xT1":424.9,"yT1":0,"xT2":1058.1,"yT2":0,"toosoon":0,"cond_shown":"Congruent","ratio_trial":200,"L_num":20,"L_den":25,"R_num":9,"R_den":15,"correct_side":1,"subjID":"dianaagudelomendez12","gender":"1","school":"4","age":"9"},{"start_time":1552073540817,"click_time":1552073541503,"finger_time":1552073541063,"fix_duration":250,"trial":29,"RT":246,"MT":440,"sideResp":1,"stimulus":[],"xmouse":[782,782,782,782,782,782,782,782,782,782,782,776,770,765,758,750,729,712,686,669,654,625,615,607,599,594,588,586,586,585,585,585,577,550,491],"ymouse":[618,618,618,618,618,618,618,618,617,611,604,575,557,538,516,488,417,374,304,266,231,154,130,108,90,76,58,53,51,50,50,49,49,48,45],"timestamp_mouse":[15,35,47,68,87,107,128,146,166,187,207,227,246,266,286,307,326,347,367,388,407,427,447,466,487,506,526,547,567,588,607,627,647,667,686],"xSR":741.5,"ySR":573.95,"xT1":424.9,"yT1":0,"xT2":1058.1,"yT2":0,"toosoon":0,"cond_shown":"Congruent","ratio_trial":200,"L_num":12,"L_den":20,"R_num":6,"R_den":15,"correct_side":1,"subjID":"dianaagudelomendez12","gender":"1","school":"4","age":"9"},{"start_time":1552073558496,"click_time":1552073559523,"finger_time":1552073558844,"fix_duration":250,"trial":30,"RT":348,"MT":679,"sideResp":2,"stimulus":[],"xmouse":[766,766,766,766,766,766,766,766,766,766,766,766,766,766,766,766,766,782,803,831,862,890,937,956,963,968,969,971,972,976,979,981,982,985,992,1002,1011,1028,1036,1045,1053,1056,1062,1065,1066,1066,1066,1067,1067,1068,1073,1079],"ymouse":[586,586,586,586,586,586,586,586,586,586,586,586,586,586,586,586,583,555,508,444,374,304,203,154,138,129,123,112,103,94,87,85,84,84,85,89,92,96,99,100,102,103,104,104,104,104,104,104,104,104,103,99],"timestamp_mouse":[14,28,47,67,87,109,127,147,168,188,209,229,247,268,287,308,327,348,367,387,407,428,447,468,488,507,527,547,568,587,608,627,648,669,687,707,727,748,767,789,808,828,847,868,887,909,928,949,967,988,1008,1027],"xSR":741.5,"ySR":573.95,"xT1":424.9,"yT1":0,"xT2":1058.1,"yT2":0,"toosoon":0,"cond_shown":"Incongruent","ratio_trial":100,"L_num":17,"L_den":30,"R_num":10,"R_den":15,"correct_side":2,"subjID":"dianaagudelomendez12","gender":"1","school":"4","age":"9"},{"start_time":1552073563062,"click_time":1552073563504,"finger_time":1552073563383,"fix_duration":577.7219999803078,"trial":31,"RT":321,"MT":121,"sideResp":2,"stimulus":[],"xmouse":[828,828,828,828,828,828,828,828,828,828,828,828,828,828,828,828,848,895,946,1012,1036,1051,1062],"ymouse":[594,594,594,594,594,594,594,594,594,594,594,594,594,594,594,593,577,542,491,340,254,164,88],"timestamp_mouse":[21,21,46,63,83,101,122,143,161,182,202,222,242,263,282,301,321,342,362,381,402,422,442],"xSR":741.5,"ySR":573.95,"xT1":424.9,"yT1":0,"xT2":1058.1,"yT2":0,"toosoon":0,"cond_shown":"Incongruent","ratio_trial":200,"L_num":14,"L_den":30,"R_num":12,"R_den":18,"correct_side":2,"subjID":"dianaagudelomendez12","gender":"1","school":"4","age":"9"},{"start_time":1552073571277,"click_time":1552073575624,"finger_time":1552073573343,"fix_duration":1231.04089855545,"trial":32,"RT":2066,"MT":2281,"sideResp":2,"stimulus":[],"xmouse":[802,802,802,802,802,802,802,802,802,802,802,802,802,802,802,802,802,802,802,802,802,802,802,802,802,802,802,802,802,802,802,802,802,802,802,802,802,802,802,802,802,802,802,802,802,802,802,802,802,802,802,802,802,802,802,802,802,802,802,802,802,802,802,802,802,802,802,802,802,802,802,802,802,802,802,802,802,802,802,802,802,802,802,802,802,802,802,802,802,802,802,802,802,802,802,802,802,802,802,802,802,802,797,787,783,777,774,769,757,753,747,745,745,745,746,768,794,822,846,850,851,851,848,824,800,794,789,789,779,772,765,760,755,749,749,749,749,753,763,768,773,778,782,788,789,789,789,789,789,789,789,790,790,790,791,791,791,791,791,791,791,791,791,791,791,791,791,791,791,791,791,791,791,791,791,791,791,791,791,791,792,796,810,884,920,959,1013,1051,1132,1171,1206,1233,1249,1260,1260,1260,1260,1260,1260,1260,1255,1245,1219,1208,1202,1198,1197,1197,1197,1195,1194,1191,1187,1184,1182,1173,1160,1146],"ymouse":[605,605,605,605,605,605,605,605,605,605,605,605,605,605,605,605,605,605,605,605,605,605,605,605,605,605,605,605,605,605,605,605,605,605,605,605,605,605,605,605,605,605,605,605,605,605,605,605,605,605,605,605,605,605,605,605,605,605,605,605,605,605,605,605,605,605,605,605,605,605,605,605,605,605,605,605,605,605,605,605,605,605,605,605,605,605,605,605,605,605,605,605,605,605,605,605,605,605,606,612,624,643,664,703,715,734,742,750,764,775,786,795,798,798,799,795,784,766,712,680,654,629,607,570,544,540,538,538,540,547,562,578,593,621,627,630,630,631,633,633,633,634,634,636,636,636,636,636,636,636,636,636,636,636,636,636,636,636,636,636,636,636,636,636,636,636,636,636,636,636,636,636,636,636,636,636,636,636,636,636,636,634,615,481,385,289,136,47,0,0,0,0,0,0,0,0,0,0,5,10,19,30,59,71,77,81,81,81,81,77,72,66,60,52,49,45,43,41],"timestamp_mouse":[14,37,48,68,87,106,126,147,168,188,208,226,246,267,286,306,326,348,368,386,408,427,447,467,487,507,527,546,567,587,606,628,647,668,688,707,726,746,766,786,806,828,847,866,886,906,927,947,968,987,1006,1027,1047,1067,1087,1106,1127,1147,1167,1187,1208,1226,1246,1268,1287,1306,1326,1346,1366,1388,1408,1426,1446,1467,1487,1507,1526,1546,1568,1587,1608,1627,1646,1668,1687,1708,1727,1747,1766,1787,1807,1828,1848,1868,1886,1907,1926,1946,1967,1986,2007,2026,2047,2066,2086,2107,2128,2147,2167,2187,2206,2226,2248,2266,2286,2306,2328,2347,2366,2386,2407,2427,2448,2466,2486,2506,2527,2547,2568,2586,2607,2626,2647,2667,2687,2707,2726,2746,2766,2786,2807,2826,2847,2867,2888,2908,2927,2947,2968,2987,3007,3027,3047,3066,3087,3106,3126,3148,3167,3186,3206,3227,3247,3268,3287,3306,3326,3348,3368,3387,3407,3426,3447,3467,3486,3508,3528,3546,3567,3588,3607,3627,3646,3666,3687,3708,3728,3746,3767,3786,3807,3827,3848,3867,3887,3908,3927,3947,3967,3988,4007,4028,4051,4067,4087,4107,4127,4147,4168,4186,4207,4228,4247,4266,4286,4307,4327,4347],"xSR":741.5,"ySR":573.95,"xT1":424.9,"yT1":0,"xT2":1058.1,"yT2":0,"toosoon":0,"cond_shown":"Incongruent","ratio_trial":100,"L_num":6,"L_den":10,"R_num":13,"R_den":26,"correct_side":1,"subjID":"dianaagudelomendez12","gender":"1","school":"4","age":"9"},{"start_time":1552073578677,"click_time":1552073579723,"finger_time":1552073578965,"fix_duration":392.4964470116252,"trial":33,"RT":288,"MT":758,"sideResp":1,"stimulus":[],"xmouse":[815,815,815,815,815,815,815,815,815,815,815,814,811,801,781,727,679,624,509,441,379,331,309,300,300,299,298,296,295,295,294,293,293,310,339,376,385,387,387,388,393,400,407,419,421,423,424,425,432,436,440,443,446],"ymouse":[614,614,614,614,614,614,614,614,614,614,614,614,613,589,536,401,286,157,0,0,0,0,0,0,0,0,0,0,0,3,6,12,21,53,78,104,109,110,110,110,111,112,113,114,114,114,114,112,107,104,101,100,98],"timestamp_mouse":[10,42,47,67,86,107,127,147,166,186,207,226,247,266,288,307,327,347,367,386,407,426,447,468,486,506,526,546,567,586,606,626,646,666,686,706,726,746,767,786,806,827,846,866,887,907,927,946,966,986,1006,1027,1046],"xSR":741.5,"ySR":573.95,"xT1":424.9,"yT1":0,"xT2":1058.1,"yT2":0,"toosoon":0,"cond_shown":"Congruent","ratio_trial":300,"L_num":20,"L_den":25,"R_num":13,"R_den":26,"correct_side":1,"subjID":"dianaagudelomendez12","gender":"1","school":"4","age":"9"},{"start_time":1552073583236,"click_time":1552073583743,"finger_time":1552073583583,"fix_duration":472.668672622711,"trial":34,"RT":347,"MT":160,"sideResp":1,"stimulus":[],"xmouse":[797,797,797,797,797,797,797,797,797,797,797,797,797,797,796,793,789,776,761,734,636,575,524,491,479,467],"ymouse":[617,617,617,617,617,617,617,617,617,617,617,617,616,616,611,600,580,537,493,436,294,222,160,122,100,77],"timestamp_mouse":[13,33,47,67,87,107,127,148,167,188,208,227,247,267,288,307,327,347,367,387,407,427,447,467,487,507],"xSR":741.5,"ySR":573.95,"xT1":424.9,"yT1":0,"xT2":1058.1,"yT2":0,"toosoon":0,"cond_shown":"Incongruent","ratio_trial":300,"L_num":4,"L_den":20,"R_num":2,"R_den":4,"correct_side":2,"subjID":"dianaagudelomendez12","gender":"1","school":"4","age":"9"},{"start_time":1552073586284,"click_time":1552073587183,"finger_time":1552073586583,"fix_duration":999.8780159044778,"trial":35,"RT":299,"MT":600,"sideResp":2,"stimulus":[],"xmouse":[808,808,808,808,808,808,808,808,808,808,808,808,808,810,835,875,924,1045,1101,1145,1167,1180,1186,1187,1187,1187,1187,1187,1187,1185,1178,1170,1157,1152,1146,1143,1143,1142,1142,1142,1142,1141,1135,1131,1124],"ymouse":[609,609,609,609,609,609,609,609,609,609,609,609,609,601,563,505,442,302,242,208,190,177,171,169,169,168,167,160,154,147,136,127,119,116,112,111,111,110,110,110,110,110,107,102,90],"timestamp_mouse":[24,45,59,78,100,119,139,160,180,199,220,239,259,280,299,320,339,359,379,399,419,440,458,479,499,519,539,559,579,600,619,640,659,680,700,720,739,759,779,799,820,839,859,879,899],"xSR":741.5,"ySR":573.95,"xT1":424.9,"yT1":0,"xT2":1058.1,"yT2":0,"toosoon":0,"cond_shown":"Incongruent","ratio_trial":100,"L_num":9,"L_den":18,"R_num":6,"R_den":10,"correct_side":2,"subjID":"dianaagudelomendez12","gender":"1","school":"4","age":"9"},{"start_time":1552073591140,"click_time":1552073599444,"finger_time":1552073596524,"fix_duration":1275.3348003483827,"trial":36,"RT":5384,"MT":2920,"sideResp":1,"stimulus":[],"xmouse":[816,816,816,816,816,816,816,816,816,816,816,816,816,816,816,816,816,816,816,816,816,816,816,816,816,816,816,816,816,816,816,816,816,816,816,816,816,816,816,816,816,816,816,816,816,816,816,816,816,816,816,816,816,816,816,816,816,816,816,816,816,816,816,816,816,816,816,816,816,816,816,816,816,816,816,816,816,816,816,816,816,816,816,816,816,816,816,816,816,816,816,816,816,816,816,816,816,816,816,816,816,816,816,816,816,816,816,816,816,816,816,816,816,816,816,816,816,816,816,816,816,816,816,816,816,816,816,816,816,816,816,816,816,816,816,816,816,816,816,816,816,816,816,816,816,816,816,816,816,816,816,816,816,816,816,816,815,814,814,813,813,812,811,809,809,809,809,808,807,807,807,807,807,807,807,807,807,807,807,807,806,806,806,804,804,804,804,804,804,802,802,802,802,802,802,802,802,802,802,802,802,802,802,802,802,802,802,802,802,802,802,802,802,802,802,802,802,802,802,802,802,802,802,802,802,802,802,802,802,800,800,800,800,800,800,800,800,800,800,800,800,799,798,798,798,798,797,797,797,797,795,789,786,785,785,785,785,785,785,785,785,785,785,785,785,786,786,787,787,787,787,787,787,787,787,787,787,787,787,784,781,779,777,775,773,770,769,768,767,766,765,765,765,765,764,762,762,760,759,757,753,751,750,748,748,746,746,746,746,746,746,744,741,737,733,723,721,718,717,716,714,714,714,714,714,714,714,713,713,713,713,710,710,704,697,688,687,686,686,684,683,682,681,681,681,680,680,680,680,680,679,678,675,673,670,659,655,653,652,651,649,648,648,648,647,647,647,647,647,647,647,647,647,646,646,644,643,641,641,641,639,638,637,636,636,635,634,633,633,632,631,631,630,630,629,627,626,625,624,622,619,617,614,613,610,604,600,594,589,582,565,556,541,531,524,514],"ymouse":[601,601,601,601,601,601,601,601,601,601,601,601,601,601,601,601,601,601,601,601,601,601,601,601,601,601,601,601,601,601,601,601,601,601,601,601,601,601,601,601,601,601,601,601,601,601,601,601,601,601,601,601,601,601,601,601,601,601,601,601,601,601,601,601,601,601,601,601,601,601,601,601,601,601,601,601,601,601,601,601,601,601,601,601,601,601,601,601,601,601,601,601,601,601,601,601,601,601,601,601,601,601,601,601,601,601,601,601,601,601,601,601,601,601,601,601,601,601,601,601,601,601,601,601,601,601,601,601,601,601,601,601,601,601,601,601,601,601,601,601,601,601,601,601,601,601,601,601,601,601,601,601,601,601,601,601,601,601,601,601,600,600,600,599,599,599,599,599,598,598,598,598,598,598,598,598,598,598,598,598,598,598,598,598,598,598,598,598,598,597,597,597,597,597,597,597,597,597,597,597,597,597,597,597,597,597,597,597,597,597,597,597,597,597,597,597,597,597,597,597,597,597,597,597,597,597,597,597,597,596,595,595,595,595,595,595,595,595,595,595,595,594,593,592,592,592,592,592,591,591,589,586,584,583,583,583,583,583,583,583,583,583,583,581,580,577,576,575,574,573,573,573,573,573,573,573,573,573,573,571,570,569,569,568,567,566,565,565,564,564,563,563,563,563,563,562,562,562,562,561,560,559,559,559,559,558,558,558,558,558,558,558,557,555,554,552,550,549,548,548,547,547,547,547,547,547,547,546,546,546,546,546,546,543,541,535,535,534,534,532,532,532,531,531,531,531,531,531,531,531,531,530,527,524,522,512,508,505,503,499,495,493,492,492,492,492,492,492,492,492,492,492,492,490,489,482,478,474,468,463,453,448,440,435,430,420,415,409,403,395,373,367,353,345,338,322,316,309,303,297,286,280,270,268,257,244,237,229,222,214,191,178,152,135,119,94],"timestamp_mouse":[10,39,43,62,84,104,124,142,163,183,204,223,244,264,283,303,323,343,363,384,403,423,443,463,483,504,524,543,563,582,603,623,644,663,684,704,724,744,763,784,803,824,844,863,883,904,923,944,964,984,1003,1024,1043,1063,1083,1103,1124,1143,1163,1184,1203,1224,1244,1264,1284,1304,1324,1343,1363,1383,1404,1423,1443,1464,1483,1503,1524,1543,1564,1583,1603,1624,1643,1663,1684,1704,1723,1744,1764,1783,1803,1823,1843,1863,1883,1903,1922,1942,1963,1984,2003,2023,2043,2064,2083,2103,2123,2143,2164,2184,2204,2223,2243,2263,2284,2304,2323,2343,2363,2383,2403,2423,2444,2463,2484,2503,2523,2543,2563,2583,2604,2623,2644,2663,2684,2703,2724,2744,2763,2783,2803,2823,2844,2864,2883,2904,2924,2944,2964,2983,3003,3024,3044,3063,3083,3103,3123,3144,3163,3184,3203,3224,3243,3264,3286,3303,3323,3343,3364,3384,3404,3423,3444,3464,3483,3503,3523,3544,3564,3584,3604,3624,3644,3663,3684,3703,3724,3743,3763,3783,3802,3824,3844,3863,3883,3904,3923,3943,3963,3984,4004,4024,4044,4063,4083,4104,4124,4144,4164,4184,4204,4222,4244,4264,4284,4303,4324,4343,4364,4383,4404,4424,4443,4464,4484,4504,4524,4544,4563,4584,4604,4624,4644,4664,4683,4702,4723,4744,4763,4783,4802,4824,4844,4863,4884,4904,4924,4944,4963,4984,5003,5024,5042,5064,5084,5104,5124,5144,5163,5183,5204,5223,5243,5263,5284,5303,5322,5344,5363,5384,5402,5424,5443,5463,5483,5504,5524,5544,5563,5584,5603,5624,5643,5664,5684,5704,5723,5743,5763,5782,5803,5823,5843,5863,5883,5904,5923,5943,5964,5983,6003,6024,6043,6064,6085,6103,6123,6144,6163,6183,6203,6223,6243,6263,6283,6304,6323,6344,6363,6382,6403,6423,6443,6464,6485,6504,6524,6544,6563,6582,6603,6624,6644,6663,6683,6703,6723,6743,6763,6783,6803,6824,6843,6864,6884,6903,6924,6943,6963,6984,7003,7024,7043,7064,7083,7103,7123,7143,7163,7184,7202,7223,7243,7263,7284,7304,7323,7343,7364,7384,7404,7423,7443,7463,7484,7503,7523,7544,7563,7584,7603,7623,7643,7663,7683,7703,7723,7744,7762,7784,7803,7823,7843,7864,7883,7903,7923,7944,7963,7983,8003,8024,8043,8063,8083,8103,8123,8143,8163,8183,8203,8224,8243,8264,8283,8303],"xSR":741.5,"ySR":573.95,"xT1":424.9,"yT1":0,"xT2":1058.1,"yT2":0,"toosoon":0,"cond_shown":"Incongruent","ratio_trial":200,"L_num":1,"L_den":3,"R_num":2,"R_den":15,"correct_side":1,"subjID":"dianaagudelomendez12","gender":"1","school":"4","age":"9"},{"start_time":1552073602963,"click_time":1552073619343,"finger_time":1552073609343,"fix_duration":1278.5193910186574,"trial":37,"RT":6380,"MT":10000,"sideResp":2,"stimulus":[],"xmouse":[805,805,805,805,805,805,805,805,805,805,805,805,805,805,805,805,805,805,805,805,805,805,805,805,805,805,805,805,805,805,805,805,805,805,805,805,805,805,805,805,805,805,805,805,805,805,805,805,805,805,805,805,805,805,805,805,805,805,805,805,805,805,805,805,805,805,805,805,805,805,805,805,805,805,805,805,805,805,805,805,805,805,805,805,805,805,805,805,805,805,805,805,805,805,805,805,805,805,805,805,805,805,805,805,805,805,805,805,805,805,805,805,805,805,805,805,805,805,805,805,805,805,805,805,805,805,805,805,805,805,805,805,805,805,805,805,805,805,805,805,805,805,805,805,805,805,805,805,805,805,805,805,805,805,805,805,805,805,805,805,805,805,805,805,805,805,805,805,805,805,805,805,805,805,805,805,805,805,805,805,805,805,805,805,805,805,805,805,805,805,805,805,806,806,806,806,806,806,806,806,806,806,806,806,806,806,806,806,806,806,806,806,806,806,806,806,806,806,806,806,806,806,806,806,806,806,806,806,806,806,806,806,806,806,806,806,806,806,806,806,806,806,806,806,806,806,806,806,806,806,806,806,806,806,806,806,806,806,806,806,806,806,806,806,806,806,806,806,806,806,806,806,806,806,806,806,806,806,806,806,806,806,806,806,806,806,806,806,806,806,806,806,806,806,806,806,806,806,806,806,806,806,806,806,806,806,806,806,806,806,806,806,806,806,806,806,806,806,804,802,801,801,801,801,801,801,801,801,801,801,801,801,801,801,801,801,801,801,801,801,802,802,802,803,804,804,804,804,804,804,804,804,804,804,804,804,804,804,804,804,804,804,804,804,804,804,804,804,804,803,801,801,801,801,801,801,801,801,801,801,801,801,801,801,801,801,801,801,801,801,801,801,801,801,801,801,801,801,801,801,801,801,801,801,801,801,801,801,801,801,801,801,801,801,801,801,801,801,801,801,801,801,801,801,801,801,801,801,801,801,801,801,801,801,801,801,801,801,801,801,801,801,801,801,801,801,801,801,801,801,801,801,801,801,801,801,801,801,801,801,801,801,801,801,801,801,801,801,801,801,801,801,801,801,801,801,801,801,801,801,801,801,801,801,801,801,801,801,801,801,801,801,801,801,801,801,801,801,801,801,801,801,801,801,801,801,801,801,801,801,801,801,801,801,801,801,801,801,801,801,801,801,801,801,801,801,801,801,801,801,801,801,801,801,801,801,801,801,801,801,801,801,801,801,801,801,801,801,801,801,801,801,801,801,801,801,801,801,801,801,801,801,801,801,801,801,801,801,801,801,801,801,801,801,801,801,801,801,801,801,801,801,801,801,801,801,801,801,801,801,801,801,801,801,801,801,801,801,801,801,801,801,801,801,801,801,801,801,801,801,801,801,801,801,801,801,801,801,801,801,801,801,801,802,805,807,809,814,815,818,820,821,824,826,828,828,828,828,828,828,828,828,828,828,828,828,828,828,828,828,828,828,828,828,828,828,828,828,828,828,828,828,828,828,828,828,828,828,828,828,828,828,828,828,828,828,828,828,828,828,828,828,828,828,828,831,833,836,837,839,841,842,844,845,845,845,845,845,848,849,850,852,853,855,856,857,857,857,859,861,862,864,865,866,868,869,869,871,872,875,875,876,876,876,878,878,879,880,880,882,883,884,885,885,887,887,887,888,889,890,891,891,891,892,894,895,896,897,899,899,900,900,901,901,902,903,903,905,906,908,909,910,912,913,916,918,919,920,923,928,933,939,943,946,952,953,954,956,958,960,962,963,964,967,968,968,968,969,969,969,969,969,971,972,975,976,976,976,976,978,981,983,989,995,1012,1021,1027,1033,1037,1043,1049,1059,1067,1077,1099,1107,1112,1114,1115,1122],"ymouse":[600,600,600,600,600,600,600,600,600,600,600,600,600,600,600,600,600,600,600,600,600,600,600,600,600,600,600,600,600,600,600,600,600,600,600,600,600,600,600,600,600,600,600,600,600,600,600,600,600,600,600,600,600,600,600,600,600,600,600,600,600,600,600,600,600,600,600,600,600,600,600,600,600,600,600,600,600,600,600,600,600,600,600,600,600,600,600,600,600,600,600,600,600,600,600,600,600,600,600,600,600,600,600,600,600,600,600,600,600,600,600,600,600,600,600,600,600,600,600,600,600,600,600,600,600,600,600,600,600,600,600,600,600,600,600,600,600,600,600,600,600,600,600,600,600,600,600,600,600,600,600,600,600,600,600,600,600,600,600,600,600,600,600,600,600,600,600,600,600,600,600,600,600,600,600,600,600,600,600,600,600,600,600,600,600,600,600,600,600,600,600,600,600,600,600,600,600,600,600,600,600,600,600,600,600,600,600,600,600,600,600,600,600,600,600,600,600,600,600,600,600,600,600,600,600,600,600,600,600,600,600,600,600,600,600,600,600,600,600,600,600,600,600,600,600,600,600,600,600,600,600,600,600,600,600,600,600,600,600,600,600,600,600,600,600,600,600,600,600,600,600,600,600,600,600,600,600,600,600,600,600,600,600,600,600,600,600,600,600,600,600,600,600,600,600,600,600,600,600,600,600,600,600,600,600,600,600,600,600,600,600,600,600,600,600,600,598,595,587,573,567,566,566,566,566,566,566,566,566,566,566,566,566,566,566,566,566,566,566,566,566,566,571,575,580,582,582,583,583,583,583,583,583,583,583,583,583,583,583,583,584,585,586,587,587,587,587,588,589,598,601,606,606,606,606,606,606,606,606,606,606,606,606,606,606,606,606,606,606,606,606,606,606,606,606,606,606,606,606,606,606,606,606,606,606,606,606,606,606,606,606,606,606,606,606,606,606,606,606,606,606,606,606,606,606,606,606,606,606,606,606,606,606,606,606,606,606,606,606,606,606,606,606,606,606,606,606,606,606,606,606,606,606,606,606,606,606,606,606,606,606,606,606,606,606,606,606,606,606,606,606,606,606,606,606,606,606,606,606,606,606,606,606,606,606,606,606,606,606,606,606,606,606,606,606,606,606,606,606,606,606,606,606,606,606,606,606,606,606,606,606,606,606,606,606,606,606,606,606,606,606,606,606,607,608,608,608,608,608,608,608,608,608,608,608,608,608,608,608,608,608,608,608,608,608,608,608,608,608,608,608,608,608,608,608,608,608,608,608,608,608,608,608,608,608,608,608,608,608,608,608,608,608,608,608,608,608,608,608,608,608,608,608,608,608,608,608,608,608,608,608,608,608,608,608,608,608,608,608,608,608,608,608,608,608,608,608,608,608,608,608,608,608,608,608,608,608,608,608,608,608,608,609,609,608,608,606,603,602,599,597,595,591,587,585,585,585,585,585,585,585,585,585,585,585,585,585,585,585,585,585,585,585,585,585,585,585,585,585,585,585,585,585,585,585,584,582,581,580,577,574,573,571,571,571,571,571,571,571,571,571,571,571,571,571,571,571,571,571,571,570,570,569,569,568,568,568,568,568,568,567,566,566,565,564,564,564,563,562,561,561,559,559,558,556,556,556,555,553,551,550,550,550,550,549,549,549,548,548,547,546,545,544,543,542,541,541,540,539,538,537,537,536,536,534,533,532,531,530,529,528,528,527,527,525,523,522,520,518,516,514,513,512,511,509,508,508,507,506,502,497,491,485,481,472,471,470,468,466,464,463,461,460,458,457,457,457,457,457,457,457,457,455,454,451,450,450,450,450,447,444,441,434,425,398,384,374,364,356,341,330,306,286,263,213,189,170,151,134,93],"timestamp_mouse":[9,21,40,61,81,101,121,139,161,180,201,221,241,260,281,300,320,341,360,380,400,421,440,460,480,501,520,540,560,580,600,621,641,660,680,700,721,740,761,781,800,820,841,861,880,900,920,940,961,981,1001,1021,1041,1060,1081,1100,1120,1141,1161,1180,1200,1221,1240,1261,1281,1300,1320,1340,1361,1381,1400,1421,1441,1460,1480,1501,1520,1541,1562,1581,1600,1621,1640,1660,1680,1700,1721,1740,1760,1780,1800,1820,1840,1860,1881,1901,1920,1941,1961,1981,2000,2020,2041,2061,2081,2101,2121,2140,2160,2181,2201,2221,2241,2261,2281,2300,2320,2341,2360,2379,2401,2420,2441,2460,2481,2499,2521,2541,2561,2580,2600,2620,2640,2660,2681,2700,2720,2740,2760,2780,2801,2820,2841,2860,2880,2901,2920,2941,2961,2981,3001,3021,3040,3061,3081,3099,3120,3141,3160,3180,3200,3220,3241,3260,3281,3301,3321,3340,3361,3381,3401,3420,3440,3460,3479,3500,3520,3540,3560,3580,3601,3620,3641,3661,3680,3700,3720,3741,3760,3780,3800,3820,3840,3861,3881,3900,3920,3941,3960,3979,4001,4020,4041,4061,4081,4100,4120,4141,4160,4181,4200,4221,4240,4260,4280,4301,4321,4340,4361,4381,4401,4420,4440,4461,4480,4501,4521,4540,4560,4581,4600,4620,4640,4660,4681,4700,4721,4741,4761,4780,4801,4821,4840,4861,4881,4900,4920,4941,4960,4980,5001,5021,5040,5061,5081,5101,5121,5141,5161,5180,5201,5220,5241,5261,5280,5300,5320,5340,5361,5380,5400,5420,5440,5460,5480,5500,5520,5540,5560,5581,5600,5620,5641,5660,5680,5701,5721,5741,5760,5781,5801,5821,5841,5861,5880,5901,5921,5941,5961,5981,6001,6020,6040,6060,6080,6100,6121,6140,6161,6181,6200,6220,6240,6261,6281,6301,6321,6340,6360,6380,6401,6421,6440,6460,6480,6501,6520,6540,6561,6580,6600,6620,6640,6660,6679,6700,6720,6739,6761,6781,6801,6820,6840,6860,6880,6901,6921,6940,6961,6980,7001,7021,7040,7061,7081,7100,7121,7140,7160,7180,7200,7219,7240,7261,7280,7301,7320,7340,7361,7380,7401,7420,7440,7461,7481,7500,7521,7541,7560,7580,7601,7620,7640,7660,7681,7701,7721,7740,7761,7781,7801,7820,7841,7860,7881,7901,7921,7939,7961,7981,8001,8021,8041,8060,8080,8099,8120,8141,8160,8181,8201,8221,8240,8261,8281,8300,8321,8340,8361,8381,8401,8421,8440,8461,8481,8500,8520,8541,8561,8580,8601,8620,8641,8661,8680,8700,8720,8741,8761,8781,8800,8821,8839,8860,8880,8901,8920,8940,8961,8981,9000,9021,9041,9061,9081,9101,9120,9141,9161,9180,9201,9221,9240,9260,9281,9301,9321,9340,9361,9381,9399,9420,9441,9461,9480,9500,9521,9540,9560,9581,9600,9619,9640,9660,9681,9700,9720,9741,9759,9781,9800,9820,9840,9860,9880,9901,9921,9940,9961,9980,10000,10021,10041,10060,10081,10101,10121,10140,10161,10181,10201,10219,10240,10260,10280,10300,10321,10340,10360,10381,10400,10421,10440,10461,10481,10500,10521,10541,10560,10579,10601,10621,10639,10661,10681,10700,10721,10741,10760,10781,10801,10820,10841,10860,10881,10901,10920,10940,10960,10981,11001,11021,11040,11060,11081,11101,11121,11139,11160,11180,11201,11220,11240,11261,11280,11301,11320,11340,11361,11381,11400,11421,11440,11461,11481,11501,11520,11540,11561,11580,11600,11620,11641,11660,11680,11701,11720,11741,11761,11781,11800,11821,11840,11861,11881,11901,11921,11940,11961,11981,12000,12021,12040,12060,12081,12100,12121,12140,12160,12180,12200,12220,12240,12261,12281,12300,12321,12340,12360,12381,12400,12420,12441,12459,12479,12500,12521,12539,12560,12580,12600,12620,12640,12660,12681,12701,12720,12740,12761,12781,12801,12820,12840,12860,12880,12900,12920,12940,12960,12980,13000,13020,13040,13060,13080,13100,13120,13140,13161,13180,13200,13221,13240,13261,13280,13300,13320,13340,13361,13380,13400,13419,13441,13460,13480,13501,13521,13540,13561,13581,13600,13621,13641,13661,13681,13699,13721,13740,13760,13779,13800,13819,13840,13859,13880,13901,13921,13939,13961,13980,14001,14020,14041,14059,14080,14101,14121,14139,14161,14180,14201,14220,14240,14259,14280,14300,14320,14340,14360,14379,14401,14420,14440,14461,14481,14500,14521,14540,14561,14580,14599,14620,14641,14661,14680,14700,14721,14739,14761,14779,14799,14820,14840,14859,14880,14900,14921,14940,14961,14980,15000,15020,15041,15060,15080,15101,15120,15140,15161,15181,15200,15221,15240,15260,15280,15300,15321,15340,15362,15380,15401,15420,15441,15460,15481,15500,15520,15540,15561,15580,15600,15620,15640,15660,15680,15700,15720,15740,15760,15781,15800,15819,15840,15860,15880,15900,15921,15941,15960,15980,16001,16020,16039,16060,16080,16100,16121,16140,16161,16179,16201,16220,16241,16260,16280,16300,16321,16340,16360,16379],"xSR":741.5,"ySR":573.95,"xT1":424.9,"yT1":0,"xT2":1058.1,"yT2":0,"toosoon":0,"cond_shown":"Congruent","ratio_trial":200,"L_num":3,"L_den":6,"R_num":14,"R_den":20,"correct_side":2,"subjID":"dianaagudelomendez12","gender":"1","school":"4","age":"9"},{"start_time":1552073622136,"click_time":1552073625223,"finger_time":1552073625123,"fix_duration":430.8838765654933,"trial":38,"RT":2987,"MT":100,"sideResp":2,"stimulus":[],"xmouse":[776,776,776,776,776,776,776,776,776,776,776,776,776,776,776,776,776,776,776,776,776,776,776,776,776,776,776,776,776,776,776,776,776,776,776,776,776,776,776,776,776,776,776,776,776,776,776,776,776,776,776,776,776,776,776,776,776,776,776,776,776,776,776,776,776,776,776,776,776,776,776,776,776,776,776,776,776,776,776,776,776,776,776,777,777,777,777,777,777,778,778,778,778,778,778,778,778,778,778,778,778,778,778,778,778,778,778,778,778,778,778,778,778,778,778,778,778,778,778,778,778,778,778,778,779,780,781,781,781,781,782,782,783,785,785,785,785,786,786,787,789,790,791,792,793,797,801,809,818,835,896,932,996,1042,1091],"ymouse":[631,631,631,631,631,631,631,631,631,631,631,631,631,631,631,631,631,631,631,631,631,631,631,631,631,631,631,631,631,631,631,631,631,631,631,631,631,631,631,631,631,631,631,631,631,631,631,631,631,631,631,631,631,631,631,631,631,631,631,631,631,631,631,631,631,631,631,631,631,631,631,631,631,631,631,631,631,631,631,631,631,631,631,631,631,631,631,631,631,631,631,631,631,631,631,631,631,631,631,631,631,631,631,631,631,631,631,631,631,631,631,631,631,631,631,631,631,631,631,631,631,631,631,631,631,631,631,631,631,631,631,631,631,632,632,632,632,632,632,632,632,632,632,632,631,625,619,606,587,556,437,369,252,172,84],"timestamp_mouse":[17,40,47,67,87,106,127,147,167,187,208,227,247,267,288,308,328,347,367,387,407,427,448,467,487,507,527,547,568,587,608,626,647,667,687,708,727,747,768,788,808,827,847,867,888,907,927,947,968,988,1007,1027,1048,1067,1087,1108,1128,1148,1167,1188,1208,1227,1248,1267,1288,1306,1328,1348,1368,1388,1406,1427,1447,1467,1488,1508,1528,1548,1567,1587,1608,1627,1648,1667,1687,1708,1727,1747,1767,1787,1808,1828,1847,1868,1888,1908,1927,1947,1968,1988,2007,2028,2048,2068,2087,2107,2128,2148,2168,2188,2207,2227,2247,2268,2287,2308,2328,2348,2368,2387,2408,2428,2447,2468,2488,2507,2527,2548,2568,2588,2607,2628,2647,2667,2687,2708,2728,2748,2766,2788,2807,2828,2847,2868,2888,2907,2926,2947,2967,2987,3006,3028,3047,3067,3087],"xSR":741.5,"ySR":573.95,"xT1":424.9,"yT1":0,"xT2":1058.1,"yT2":0,"toosoon":0,"cond_shown":"Congruent","ratio_trial":200,"L_num":1,"L_den":2,"R_num":21,"R_den":30,"correct_side":2,"subjID":"dianaagudelomendez12","gender":"1","school":"4","age":"9"},{"start_time":1552073634743,"click_time":1552073638924,"finger_time":1552073637543,"fix_duration":516.4271227081967,"trial":39,"RT":2800,"MT":1381,"sideResp":1,"stimulus":[],"xmouse":[750,750,750,750,750,750,750,750,750,750,750,750,750,750,750,750,750,750,750,750,750,750,750,750,750,750,750,750,750,750,750,750,750,750,750,750,750,750,750,750,750,750,750,750,750,750,750,750,750,750,750,750,750,750,750,750,750,750,750,750,750,750,750,750,750,750,750,750,750,750,750,750,750,750,750,750,750,750,750,750,750,750,750,750,750,750,750,750,750,750,750,750,750,750,750,750,750,750,750,750,750,750,750,750,750,750,750,750,750,750,750,750,750,750,750,750,750,750,750,750,750,750,750,750,750,750,750,750,750,750,750,750,750,750,750,750,750,748,744,742,740,739,737,736,735,735,735,735,735,734,734,734,734,734,734,734,734,734,734,734,734,734,730,724,718,706,702,698,696,692,686,682,679,677,674,667,664,661,660,659,656,654,654,654,654,658,660,660,660,660,651,643,638,634,632,623,612,597,581,571,561,559,557,553,549,542,540,536,526,511],"ymouse":[649,649,649,649,649,649,649,649,649,649,649,649,649,649,649,649,649,649,649,649,649,649,649,649,649,649,649,649,649,649,649,649,649,649,649,649,649,649,649,649,649,649,649,649,649,649,649,649,649,649,649,649,649,649,649,649,649,649,649,649,649,649,649,649,649,649,649,649,649,649,649,649,649,649,649,649,649,649,649,649,649,649,649,649,649,649,649,649,649,649,649,649,649,649,649,649,649,649,649,649,649,649,649,649,649,649,649,649,649,649,649,649,649,649,649,649,649,649,649,649,649,649,649,649,649,649,649,649,649,649,649,649,649,649,649,649,649,649,647,647,646,646,646,646,645,645,645,645,645,645,645,645,645,645,645,645,645,645,645,645,645,645,644,643,641,635,634,632,630,627,621,616,612,609,602,589,583,577,574,569,557,548,532,519,499,444,402,345,290,236,154,117,101,89,85,81,77,73,68,65,64,63,63,62,62,61,60,59,59,56],"timestamp_mouse":[10,24,41,61,81,100,120,140,161,181,200,221,241,260,281,300,320,340,360,380,401,420,441,461,481,500,521,540,561,580,601,620,640,660,681,701,720,740,761,780,799,821,841,860,881,899,920,940,960,980,1000,1021,1041,1061,1080,1101,1119,1141,1160,1181,1201,1220,1239,1260,1281,1301,1320,1340,1360,1381,1400,1421,1441,1460,1481,1501,1521,1541,1560,1581,1601,1620,1641,1660,1680,1701,1721,1741,1760,1780,1801,1820,1841,1860,1881,1901,1921,1940,1960,1981,2001,2021,2040,2060,2081,2100,2120,2140,2160,2181,2201,2220,2240,2260,2280,2300,2320,2341,2360,2380,2400,2420,2441,2460,2480,2500,2520,2540,2560,2580,2600,2620,2640,2660,2680,2701,2721,2740,2761,2780,2800,2821,2841,2860,2881,2900,2921,2940,2960,2981,3001,3020,3040,3061,3081,3100,3121,3140,3159,3181,3201,3221,3239,3260,3280,3300,3320,3340,3360,3381,3400,3420,3440,3460,3481,3501,3520,3540,3561,3581,3600,3620,3640,3661,3681,3701,3721,3741,3760,3780,3800,3821,3840,3860,3880,3901,3920,3940,3960,3980,4000,4021,4040,4060,4080,4100,4120,4140,4160,4181],"xSR":741.5,"ySR":573.95,"xT1":424.9,"yT1":0,"xT2":1058.1,"yT2":0,"toosoon":0,"cond_shown":"Congruent","ratio_trial":300,"L_num":4,"L_den":10,"R_num":1,"R_den":10,"correct_side":1,"subjID":"dianaagudelomendez12","gender":"1","school":"4","age":"9"},{"start_time":1552073643334,"click_time":1552073649503,"finger_time":1552073646843,"fix_duration":1090.8061842672155,"trial":40,"RT":3509,"MT":2660,"sideResp":2,"stimulus":[],"xmouse":[787,787,786,786,786,786,786,786,786,786,786,786,786,786,786,786,786,786,786,786,786,786,786,786,786,786,786,786,786,786,786,786,786,786,786,786,786,786,786,786,786,786,786,786,786,786,786,786,786,786,786,786,786,786,786,786,786,786,786,786,786,786,786,786,786,786,786,786,786,786,786,786,786,786,786,786,786,786,786,786,786,786,786,786,786,786,786,786,788,789,789,789,789,789,789,789,789,789,789,789,789,789,789,789,789,789,789,789,789,789,789,789,789,789,789,789,789,789,789,789,789,789,789,789,789,789,789,789,789,789,789,789,789,789,789,789,789,789,789,789,789,789,789,789,789,789,789,789,789,789,789,789,789,789,789,789,789,789,789,789,789,789,789,789,789,789,789,789,791,793,804,807,818,828,836,846,851,855,858,861,868,873,876,879,881,886,889,890,892,894,899,901,901,902,903,905,906,906,906,907,908,908,908,908,908,908,908,908,908,908,908,908,908,911,917,921,924,928,931,932,933,933,933,933,933,933,933,933,933,933,934,937,938,941,943,947,950,951,953,955,960,962,964,965,966,969,969,969,969,969,969,969,969,969,969,969,969,969,969,969,969,969,969,969,969,969,969,969,969,969,969,969,969,969,969,969,969,969,969,969,969,969,969,969,969,969,973,984,995,1010,1033,1040,1048,1051,1051,1051,1051,1051,1051,1052,1054,1058,1059,1061,1065,1073,1078,1083,1087],"ymouse":[598,598,598,598,598,598,598,598,598,598,598,598,598,598,598,598,598,598,598,598,598,598,598,598,598,598,598,598,598,598,598,598,598,598,598,598,598,598,598,598,598,598,598,598,598,598,598,598,598,598,598,598,598,598,598,598,598,598,598,598,598,598,598,598,598,598,598,598,598,598,598,598,598,598,598,598,598,598,598,598,598,598,598,598,598,598,598,598,598,598,598,598,598,598,598,598,598,598,598,598,598,598,598,598,598,598,598,598,598,598,598,598,598,598,598,598,598,598,598,598,598,598,598,598,598,598,598,598,598,598,598,598,598,598,598,598,598,598,598,598,598,598,598,598,598,598,598,598,598,598,598,598,598,598,598,598,598,598,598,598,598,598,598,598,598,598,598,598,598,598,596,593,587,582,577,571,569,567,566,565,564,563,562,561,560,558,556,554,553,551,547,543,541,540,539,535,534,534,533,533,530,530,530,530,530,530,530,530,530,530,530,530,530,527,521,515,508,503,496,492,488,488,488,488,488,488,488,488,487,487,486,483,481,476,473,467,463,462,460,459,457,456,456,456,456,455,455,455,455,455,455,455,455,455,455,455,455,455,455,455,455,455,455,455,455,455,455,455,455,455,455,455,455,455,455,455,455,455,455,455,455,455,455,455,455,455,452,440,423,404,362,343,324,318,316,316,316,316,316,315,302,272,246,216,188,143,125,107,93],"timestamp_mouse":[24,30,55,69,89,110,129,149,169,190,210,230,250,270,290,310,329,350,369,390,410,429,449,470,489,510,529,549,569,589,609,629,650,669,690,710,730,750,769,789,809,829,850,869,889,909,930,949,970,990,1009,1029,1049,1070,1090,1110,1130,1150,1169,1189,1209,1230,1249,1270,1289,1310,1330,1349,1369,1388,1410,1430,1449,1469,1489,1510,1529,1550,1569,1589,1609,1629,1649,1669,1689,1710,1729,1749,1769,1789,1809,1830,1849,1869,1889,1909,1929,1949,1969,1990,2010,2029,2050,2069,2089,2109,2129,2149,2170,2189,2209,2229,2249,2269,2290,2309,2330,2350,2369,2389,2409,2430,2449,2470,2489,2510,2529,2550,2570,2590,2610,2629,2650,2669,2689,2709,2729,2750,2770,2789,2809,2830,2849,2869,2889,2909,2929,2949,2969,2989,3008,3029,3050,3070,3089,3109,3130,3149,3169,3190,3210,3230,3249,3269,3290,3309,3331,3349,3369,3389,3409,3429,3449,3469,3489,3509,3529,3549,3569,3590,3609,3628,3649,3669,3690,3710,3729,3749,3770,3790,3809,3830,3849,3870,3890,3910,3930,3949,3969,3989,4008,4030,4049,4069,4090,4108,4129,4149,4169,4189,4209,4230,4249,4270,4291,4309,4330,4350,4369,4389,4409,4429,4449,4470,4490,4510,4529,4550,4569,4590,4610,4629,4649,4670,4689,4709,4730,4749,4769,4790,4810,4830,4848,4870,4890,4910,4930,4950,4970,4989,5009,5030,5050,5070,5089,5110,5128,5150,5169,5190,5210,5229,5250,5270,5290,5310,5330,5349,5369,5390,5410,5430,5449,5469,5489,5509,5529,5550,5569,5589,5610,5630,5650,5669,5690,5709,5729,5749,5770,5790,5809,5830,5850,5870,5889,5909,5930,5949,5969,5990,6009,6029,6049,6070,6089,6109,6129,6149,6169],"xSR":741.5,"ySR":573.95,"xT1":424.9,"yT1":0,"xT2":1058.1,"yT2":0,"toosoon":0,"cond_shown":"Congruent","ratio_trial":200,"L_num":3,"L_den":10,"R_num":11,"R_den":22,"correct_side":2,"subjID":"dianaagudelomendez12","gender":"1","school":"4","age":"9"},{"start_time":1552073654004,"click_time":1552073658543,"finger_time":1552073656942,"fix_duration":1238.0325528583191,"trial":41,"RT":2938,"MT":1601,"sideResp":2,"stimulus":[],"xmouse":[813,813,813,813,813,813,813,813,813,813,813,813,813,813,813,813,813,813,813,813,813,813,813,813,813,813,813,813,813,813,813,813,813,813,813,813,813,813,813,813,813,813,813,813,813,813,813,813,813,813,813,813,813,813,813,813,813,813,813,813,813,813,813,813,813,813,813,813,813,813,813,813,813,813,813,813,813,813,813,813,813,813,813,813,813,813,813,813,813,813,813,813,813,813,813,813,813,813,813,813,813,813,813,813,813,813,813,813,813,813,813,813,813,813,813,813,813,813,813,813,813,815,820,822,823,823,823,825,826,826,826,826,826,826,826,826,826,826,826,826,826,826,827,829,831,832,833,835,835,836,836,837,838,839,839,840,841,842,843,844,845,846,848,850,852,854,856,863,866,871,873,876,884,888,892,895,898,906,909,915,917,920,924,926,927,927,928,929,931,931,932,932,934,935,938,939,940,943,945,946,946,946,948,949,949,950,950,952,952,953,955,956,961,965,969,972,977,989,997,1004,1014,1021,1034,1043,1051,1059,1064,1072],"ymouse":[627,627,627,627,627,627,627,627,627,627,627,627,627,627,627,627,627,627,627,627,627,627,627,627,627,627,627,627,627,627,627,627,627,627,627,627,627,627,627,627,627,627,627,627,627,627,627,627,627,627,627,627,627,627,627,627,627,627,627,627,627,627,627,627,627,627,627,627,627,627,627,627,627,627,627,627,627,627,627,627,627,627,627,627,627,627,627,627,627,627,627,627,627,627,627,627,627,627,627,627,627,627,627,627,627,627,627,627,627,627,627,627,627,627,627,627,627,627,627,627,627,626,621,616,612,607,604,599,596,595,595,593,593,593,593,593,593,593,593,593,593,593,590,587,581,578,574,571,570,569,569,567,565,564,563,562,561,559,556,554,553,549,544,540,537,535,531,524,521,513,508,504,493,487,483,478,474,462,458,450,445,441,431,428,427,425,424,423,421,420,418,417,414,412,406,405,401,395,392,389,387,386,383,383,382,380,380,378,377,375,373,370,362,354,345,336,325,300,285,271,248,230,201,182,162,143,125,97],"timestamp_mouse":[1,19,39,60,79,99,119,140,159,180,199,220,240,260,280,300,319,340,359,380,399,420,439,459,480,499,520,540,559,579,600,620,640,659,679,701,720,740,759,780,800,820,840,859,879,900,919,940,959,980,999,1020,1039,1059,1079,1099,1119,1139,1159,1179,1199,1220,1240,1260,1280,1300,1319,1339,1359,1380,1400,1420,1440,1460,1480,1499,1519,1540,1560,1580,1599,1620,1639,1660,1679,1699,1720,1740,1760,1779,1800,1820,1840,1860,1880,1899,1919,1940,1960,1980,1999,2019,2040,2059,2080,2100,2119,2139,2159,2179,2200,2220,2240,2260,2279,2300,2320,2339,2360,2380,2400,2419,2439,2459,2480,2499,2520,2539,2559,2580,2600,2619,2640,2660,2680,2700,2719,2740,2760,2780,2800,2819,2839,2859,2880,2899,2919,2938,2960,2979,3000,3018,3040,3060,3080,3099,3120,3139,3160,3179,3199,3219,3240,3258,3279,3299,3319,3339,3359,3379,3399,3419,3439,3459,3479,3499,3519,3539,3559,3579,3600,3619,3639,3659,3680,3699,3720,3740,3759,3779,3800,3819,3839,3859,3879,3899,3919,3939,3960,3979,3999,4019,4040,4059,4079,4099,4120,4139,4160,4179,4199,4219,4239,4259,4280,4299,4320,4338,4359,4379,4400,4419,4439,4458,4480,4500,4519,4539],"xSR":741.5,"ySR":573.95,"xT1":424.9,"yT1":0,"xT2":1058.1,"yT2":0,"toosoon":0,"cond_shown":"Incongruent","ratio_trial":100,"L_num":17,"L_den":30,"R_num":10,"R_den":15,"correct_side":2,"subjID":"dianaagudelomendez12","gender":"1","school":"4","age":"9"},{"start_time":1552073673394,"click_time":1552073675303,"finger_time":1552073675023,"fix_duration":250,"trial":42,"RT":1629,"MT":280,"sideResp":2,"stimulus":[],"xmouse":[781,781,781,781,781,781,781,781,781,781,781,781,781,781,781,781,781,781,781,781,781,781,781,781,781,781,781,781,781,781,781,781,781,781,781,781,781,781,781,781,781,781,781,781,781,781,781,781,781,781,781,781,781,781,781,781,781,781,781,781,781,781,781,781,781,781,781,781,781,781,781,781,781,781,781,781,781,789,801,823,835,850,893,907,918,923,932,966,981,998,1020,1028,1042,1049,1055,1060],"ymouse":[632,632,632,632,632,632,632,632,632,632,632,632,632,632,632,632,632,632,632,632,632,632,632,632,632,632,632,632,632,632,632,632,632,632,632,632,632,632,632,632,632,632,632,632,632,632,632,632,632,632,632,632,632,632,632,632,632,632,632,632,632,632,632,632,632,632,632,632,632,632,632,632,632,632,632,632,632,627,620,603,585,558,481,455,427,405,381,306,271,230,176,148,91,67,45,26],"timestamp_mouse":[10,39,50,69,90,110,130,149,169,189,209,230,249,269,289,309,329,354,370,390,410,430,449,470,490,509,529,549,570,589,609,630,650,670,690,710,730,750,770,790,810,830,850,869,890,910,929,950,969,989,1010,1030,1050,1069,1090,1110,1130,1149,1169,1190,1210,1230,1249,1270,1290,1310,1330,1350,1370,1389,1410,1430,1450,1469,1488,1509,1530,1549,1569,1589,1610,1629,1649,1669,1689,1709,1730,1749,1770,1790,1809,1829,1850,1869,1889,1909],"xSR":741.5,"ySR":573.95,"xT1":424.9,"yT1":0,"xT2":1058.1,"yT2":0,"toosoon":0,"cond_shown":"Congruent","ratio_trial":300,"L_num":7,"L_den":14,"R_num":20,"R_den":25,"correct_side":2,"subjID":"dianaagudelomendez12","gender":"1","school":"4","age":"9"},{"start_time":1552073679148,"click_time":1552073681644,"finger_time":1552073679383,"fix_duration":783.3281536273635,"trial":43,"RT":235,"MT":2261,"sideResp":1,"stimulus":[],"xmouse":[809,785,785,771,771,771,771,771,771,772,778,790,794,797,795,792,789,786,784,783,783,783,783,783,783,783,783,783,783,783,783,783,783,783,783,784,784,784,784,784,785,787,793,800,813,815,815,815,815,815,815,815,815,815,815,815,815,815,815,815,816,816,816,816,816,816,816,816,816,816,816,816,816,816,816,816,816,816,816,816,815,812,804,795,768,754,743,734,731,729,729,729,729,729,729,729,729,729,729,729,729,729,729,730,739,742,745,748,751,753,753,753,753,753,744,725,696,658,629,585,579,557,540,530,523],"ymouse":[640,655,655,671,672,672,672,672,672,672,672,677,679,681,681,679,671,660,650,646,646,646,646,646,646,646,646,646,646,646,646,646,646,646,646,646,646,646,646,646,646,646,646,647,649,649,649,649,649,649,649,649,649,649,649,649,649,649,649,649,649,648,647,646,645,643,643,642,642,641,640,640,640,640,640,640,640,640,640,640,640,638,632,622,596,580,564,553,547,545,545,545,545,545,545,545,545,545,545,545,545,545,545,545,546,547,547,547,548,548,548,548,548,548,544,530,503,472,442,359,337,261,198,128,20],"timestamp_mouse":[15,44,55,76,96,116,136,155,176,195,216,235,255,275,296,315,335,355,376,396,416,436,456,476,496,515,535,555,575,596,615,635,655,676,695,716,736,756,775,796,816,835,856,875,895,916,936,955,976,996,1015,1035,1055,1075,1095,1115,1135,1155,1176,1196,1215,1235,1255,1276,1296,1315,1336,1356,1376,1395,1415,1436,1456,1475,1496,1516,1536,1555,1576,1596,1615,1635,1655,1675,1696,1716,1735,1756,1775,1796,1815,1836,1856,1875,1895,1915,1936,1955,1975,1995,2015,2036,2055,2075,2096,2115,2136,2155,2175,2196,2215,2236,2255,2275,2295,2315,2335,2355,2376,2395,2416,2435,2456,2475,2495],"xSR":741.5,"ySR":573.95,"xT1":424.9,"yT1":0,"xT2":1058.1,"yT2":0,"toosoon":0,"cond_shown":"Congruent","ratio_trial":200,"L_num":12,"L_den":20,"R_num":6,"R_den":15,"correct_side":1,"subjID":"dianaagudelomendez12","gender":"1","school":"4","age":"9"},{"start_time":1552073686934,"click_time":1552073690126,"finger_time":1552073689424,"fix_duration":1168.0376996780324,"trial":44,"RT":2490,"MT":702,"sideResp":1,"stimulus":[],"xmouse":[770,770,770,770,770,770,770,770,770,770,770,770,770,770,770,770,770,770,770,770,770,770,770,770,770,770,770,770,770,770,770,770,770,770,770,770,770,770,770,770,770,770,770,770,770,770,770,770,770,770,770,770,770,770,770,770,770,770,770,770,770,770,770,770,770,770,770,770,770,770,770,770,770,770,770,770,770,770,770,770,770,770,770,770,770,770,770,770,770,770,770,770,770,770,770,770,770,770,770,770,770,770,770,770,770,770,770,770,770,770,770,770,770,770,770,770,770,770,770,770,769,767,761,754,744,693,642,585,545,521,500,499,498,498,498,498,493,488,485,485,485,485,485,485,485,485,485,485,485,485,485,485,485,485,485,485,485,485,486,490],"ymouse":[613,613,613,613,613,613,613,613,613,613,613,613,613,613,613,613,613,613,613,613,613,613,613,613,613,613,613,613,613,613,613,613,613,613,613,613,613,613,613,613,613,613,613,613,613,613,613,613,613,613,613,613,613,613,613,613,613,613,613,613,613,613,613,613,613,613,613,613,613,613,613,613,613,613,613,613,613,613,613,613,613,613,613,613,613,613,613,613,613,613,613,613,613,613,613,613,613,613,613,613,613,613,613,613,613,613,613,613,613,613,613,613,613,613,613,613,613,613,613,613,611,609,598,584,564,458,367,266,179,103,0,0,0,0,0,0,0,0,0,0,0,0,0,0,0,0,0,0,0,0,0,0,0,0,0,0,0,0,0,1],"timestamp_mouse":[10,38,50,70,89,110,129,149,170,189,210,230,249,269,289,309,330,349,370,390,409,430,450,469,489,509,529,549,570,590,610,629,649,670,689,710,730,750,770,790,809,830,850,870,889,911,930,950,970,990,1009,1030,1050,1069,1090,1110,1129,1151,1170,1189,1210,1229,1250,1269,1290,1310,1329,1350,1370,1389,1409,1430,1450,1469,1489,1510,1530,1550,1569,1589,1609,1629,1650,1670,1690,1709,1729,1749,1769,1790,1810,1829,1849,1869,1890,1910,1930,1950,1970,1989,2009,2030,2050,2069,2089,2110,2130,2149,2170,2189,2210,2230,2250,2269,2289,2310,2330,2349,2370,2390,2409,2430,2449,2470,2490,2509,2530,2550,2569,2589,2609,2629,2650,2670,2689,2708,2729,2750,2770,2790,2810,2829,2849,2870,2890,2910,2929,2949,2969,2990,3010,3029,3050,3070,3089,3109,3129,3150,3169,3192],"xSR":741.5,"ySR":573.95,"xT1":424.9,"yT1":0,"xT2":1058.1,"yT2":0,"toosoon":0,"cond_shown":"Incongruent","ratio_trial":300,"L_num":1,"L_den":2,"R_num":2,"R_den":10,"correct_side":1,"subjID":"dianaagudelomendez12","gender":"1","school":"4","age":"9"},{"start_time":1552073692096,"click_time":1552073694443,"finger_time":1552073693724,"fix_duration":851.28196954964,"trial":45,"RT":1628,"MT":719,"sideResp":2,"stimulus":[],"xmouse":[793,793,793,793,793,793,793,793,793,793,793,793,793,793,793,793,793,793,792,792,792,792,792,792,792,792,792,792,792,792,792,792,792,792,792,792,792,792,792,792,792,792,792,792,792,792,792,792,792,792,792,792,792,792,792,792,792,792,792,792,792,792,792,792,792,792,792,792,792,792,792,792,792,792,792,792,792,792,796,801,809,814,834,852,865,881,901,955,987,1012,1026,1035,1044,1049,1050,1056,1061,1062,1062,1062,1062,1062,1062,1062,1062,1062,1062,1062,1062,1062,1062,1062,1062,1063,1067,1072,1080,1090],"ymouse":[606,606,606,606,606,606,606,606,606,606,606,606,606,606,606,606,606,606,606,606,606,606,606,606,606,606,606,606,606,606,606,606,606,606,606,606,606,606,606,606,606,606,606,606,606,606,606,606,606,606,606,606,606,606,606,606,606,606,606,606,606,606,606,606,606,606,606,606,606,606,606,606,606,606,606,606,606,605,601,592,582,572,542,511,485,452,406,317,273,235,209,190,162,141,136,120,109,109,109,109,109,109,109,109,109,109,109,109,109,109,109,109,109,109,109,108,105,97],"timestamp_mouse":[9,37,47,68,88,107,126,149,168,188,208,228,247,268,288,307,328,348,367,387,407,428,448,467,487,508,528,547,567,587,608,627,648,668,688,707,727,747,767,788,807,827,847,868,888,908,928,948,967,988,1007,1028,1047,1067,1087,1107,1127,1148,1167,1188,1207,1227,1247,1268,1287,1307,1327,1348,1367,1388,1407,1427,1447,1467,1487,1508,1528,1547,1567,1587,1607,1628,1647,1668,1687,1707,1727,1747,1768,1788,1807,1828,1847,1867,1887,1907,1928,1948,1968,1987,2007,2028,2047,2068,2088,2107,2129,2146,2167,2187,2208,2227,2247,2267,2286,2308,2327,2347],"xSR":741.5,"ySR":573.95,"xT1":424.9,"yT1":0,"xT2":1058.1,"yT2":0,"toosoon":0,"cond_shown":"Congruent","ratio_trial":300,"L_num":2,"L_den":10,"R_num":12,"R_den":24,"correct_side":2,"subjID":"dianaagudelomendez12","gender":"1","school":"4","age":"9"},{"start_time":1552073696710,"click_time":1552073698763,"finger_time":1552073698343,"fix_duration":686.9861729342363,"trial":46,"RT":1633,"MT":420,"sideResp":2,"stimulus":[],"xmouse":[813,813,813,813,813,813,813,813,813,813,813,813,813,813,813,813,813,813,813,813,813,812,810,810,810,810,809,809,809,809,809,809,809,809,809,809,809,809,809,809,809,809,809,809,809,809,809,809,809,809,809,809,809,809,809,809,809,809,809,809,809,809,809,809,809,809,809,809,809,809,809,809,809,809,809,809,809,809,809,812,817,857,870,892,911,921,942,950,960,966,970,976,977,978,981,992,996,1002,1006,1013,1020,1050,1062],"ymouse":[627,627,627,627,627,627,627,627,627,627,627,627,627,627,627,627,627,627,627,627,627,627,626,625,624,623,622,622,622,622,622,622,622,622,622,622,622,622,622,622,622,622,622,622,622,622,622,622,622,622,622,622,622,622,622,622,622,622,622,622,622,622,622,622,622,622,622,622,622,622,622,622,622,622,622,622,622,622,622,616,610,554,530,466,363,290,148,83,23,0,0,0,0,0,0,3,6,11,16,23,28,41,44],"timestamp_mouse":[13,37,53,74,93,113,134,153,173,194,214,234,253,274,293,314,334,353,373,394,414,434,453,473,494,513,533,554,574,593,614,634,653,674,693,714,734,754,773,793,814,833,854,873,893,914,933,953,974,993,1013,1034,1053,1074,1093,1114,1133,1154,1173,1194,1214,1234,1253,1274,1294,1314,1333,1354,1373,1393,1413,1434,1454,1473,1494,1514,1533,1553,1574,1593,1613,1633,1653,1674,1694,1713,1733,1753,1773,1794,1813,1833,1854,1873,1893,1915,1934,1953,1973,1993,2013,2033,2053],"xSR":741.5,"ySR":573.95,"xT1":424.9,"yT1":0,"xT2":1058.1,"yT2":0,"toosoon":0,"cond_shown":"Congruent","ratio_trial":200,"L_num":5,"L_den":10,"R_num":14,"R_den":20,"correct_side":2,"subjID":"dianaagudelomendez12","gender":"1","school":"4","age":"9"},{"start_time":1552073702381,"click_time":1552073704043,"finger_time":1552073703903,"fix_duration":294.9067424998456,"trial":47,"RT":1522,"MT":140,"sideResp":2,"stimulus":[],"xmouse":[782,782,782,782,782,782,782,782,782,782,782,782,782,782,782,782,782,782,782,782,782,782,782,782,782,782,782,782,782,782,782,782,782,782,782,782,782,782,782,782,782,782,782,782,782,782,782,782,782,782,782,782,782,782,782,782,782,782,782,782,782,782,782,782,782,782,782,782,782,782,782,782,785,792,807,825,843,861,903,921,944,987,1025,1073],"ymouse":[631,631,631,631,631,631,631,631,631,631,631,631,631,631,631,631,631,631,631,631,631,631,631,631,631,631,631,631,631,631,631,631,631,631,631,631,631,631,631,631,631,631,631,631,631,631,631,631,631,631,631,631,631,631,631,631,631,631,631,631,631,631,631,631,631,631,631,631,631,631,631,631,630,625,615,599,575,537,430,375,319,215,151,69],"timestamp_mouse":[13,23,45,63,84,102,122,143,162,182,204,224,243,263,282,303,322,343,364,384,403,422,443,464,482,502,523,543,562,583,603,622,642,663,684,704,723,742,763,782,802,822,842,863,882,903,923,943,963,983,1002,1023,1044,1064,1083,1102,1122,1143,1163,1183,1203,1223,1243,1263,1283,1304,1323,1342,1363,1382,1403,1424,1443,1462,1482,1502,1522,1543,1562,1583,1603,1624,1644,1662