[{"start_time":1552074423763,"click_time":1552074425845,"finger_time":1552074425243,"fix_duration":814.7840598550905,"trial":0,"RT":1480,"MT":602,"sideResp":1,"stimulus":"img/750/randomdotsizeEA/L/10_Ratio_750_L_4_R_3.png","xmouse":[805,805,805,805,805,805,805,805,805,805,805,805,805,805,805,805,805,805,805,805,805,805,805,805,805,805,805,805,805,805,805,805,805,805,805,805,805,805,805,805,805,805,805,805,805,805,805,805,804,804,804,804,803,801,799,798,797,795,794,794,792,792,792,792,792,792,792,792,791,790,787,781,760,747,730,710,694,666,653,639,628,616,599,591,583,574,565,552,509,491,472,464,453,453,453,453,453,453,452,453,459,465,471,480,480],"ymouse":[494,494,494,494,494,494,494,494,494,494,494,494,494,494,494,494,494,494,494,494,494,494,494,494,494,494,494,494,494,494,494,494,494,494,494,494,494,494,495,495,495,495,495,495,495,495,495,495,495,495,495,495,495,495,495,495,495,495,495,495,494,494,494,494,494,494,494,494,494,494,493,490,477,470,460,447,431,388,366,346,324,295,257,239,225,211,197,184,154,143,132,128,124,124,124,124,124,124,124,122,118,114,109,100,98],"timestamp_mouse":[9,20,53,62,81,102,120,141,161,180,200,221,241,261,281,300,321,340,362,382,401,421,440,461,481,500,522,541,560,580,600,621,640,660,680,701,721,741,760,781,800,821,842,860,881,901,920,941,960,981,1001,1020,1041,1061,1082,1102,1120,1142,1160,1181,1201,1222,1241,1261,1282,1302,1320,1340,1360,1381,1401,1421,1442,1460,1480,1501,1520,1543,1560,1582,1601,1621,1641,1660,1681,1701,1722,1740,1760,1780,1800,1821,1842,1861,1881,1900,1921,1941,1960,1981,2000,2021,2040,2061,2081],"xSR":741.5,"ySR":458.25,"xT1":424.9,"yT1":0,"xT2":1058.1,"yT2":0,"toosoon":0,"cond_shown":"randomdotsizeEA","ratio_trial":750,"smaller_num":"3","larger_num":"4","correct_side":1,"subjID":"DianaCatalinaAgudeloMendez12","gender":"1","age":"9","school":"4","test":{"fix_dur":[250,1500],"timestim":300,"targets_dim":[100,100],"targets_relative_coord":[0.3,0.7],"size_stim":[880,420],"start_dim":[100,100],"size_start":[300,300],"size_fix":60,"samplingrate":20,"img_types":["equaldotsize","equaldotanddens","randomdotsizeEA"],"ratios":[250,500,750,900],"rep_conds":9,"nTrials":120,"trials_to_rest":500,"Trials_order":[80,18,33,94,84,50,39,95,104,85,118,22,43,47,91,106,37,105,3,62,16,15,63,29,44,12,9,5,83,110,69,88,77,71,89,52,112,109,65,72,102,24,13,41,100,92,31,73,60,59,108,45,40,86,76,75,14,17,42,97,57,61,4,54,49,67,21,103,79,53,117,28,96,6,56,35,30,82,74,78,64,98,10,93,70,8,101,113,111,38,20,87,25,119,46,51,99,23,107,68,114,1,48,66,55,26,0,58,7,90,19,27,11,116,36,115,32,34,2,81],"cond_shown":["randomdotsizeEA","equaldotsize","equaldotsize","equaldotanddens","equaldotsize","randomdotsizeEA","equaldotsize","randomdotsizeEA","randomdotsizeEA","equaldotanddens","equaldotanddens","equaldotanddens","equaldotanddens","randomdotsizeEA","equaldotanddens","equaldotanddens","equaldotanddens","equaldotsize","equaldotsize","randomdotsizeEA","equaldotanddens","equaldotsize","equaldotsize","randomdotsizeEA","randomdotsizeEA","equaldotsize","equaldotsize","randomdotsizeEA","randomdotsizeEA","randomdotsizeEA","equaldotsize","equaldotanddens","randomdotsizeEA","randomdotsizeEA","randomdotsizeEA","equaldotanddens","equaldotanddens","equaldotanddens","randomdotsizeEA","equaldotsize","equaldotsize","equaldotsize","equaldotanddens","randomdotsizeEA","equaldotanddens","randomdotsizeEA","equaldotanddens","equaldotanddens","equaldotsize","randomdotsizeEA","equaldotsize","equaldotsize","equaldotanddens","randomdotsizeEA","equaldotanddens","equaldotsize","randomdotsizeEA","randomdotsizeEA","equaldotsize","equaldotanddens","equaldotsize","equaldotanddens","equaldotanddens","equaldotsize","equaldotanddens","equaldotanddens","equaldotsize","equaldotanddens","equaldotanddens","randomdotsizeEA","equaldotsize","equaldotanddens","equaldotsize","equaldotsize","randomdotsizeEA","randomdotsizeEA","equaldotsize","equaldotanddens","randomdotsizeEA","equaldotsize","equaldotanddens","randomdotsizeEA","equaldotanddens","equaldotsize","equaldotanddens","randomdotsizeEA","randomdotsizeEA","randomdotsizeEA","equaldotsize","randomdotsizeEA","randomdotsizeEA","equaldotsize","equaldotanddens","randomdotsizeEA","equaldotanddens","equaldotsize","equaldotsize","randomdotsizeEA","randomdotsizeEA","randomdotsizeEA","equaldotsize","equaldotanddens","equaldotsize","equaldotsize","equaldotanddens","randomdotsizeEA","equaldotsize","equaldotanddens","equaldotanddens","equaldotsize","equaldotanddens","equaldotsize","randomdotsizeEA","randomdotsizeEA","equaldotsize","equaldotanddens","randomdotsizeEA","equaldotanddens","randomdotsizeEA","equaldotsize"],"ratio_trial":[750,750,900,900,250,250,500,900,750,250,900,900,750,900,750,900,250,900,500,250,500,500,500,500,750,250,900,500,900,250,900,500,500,900,500,500,500,250,500,250,750,250,250,500,500,750,750,250,250,900,250,900,500,250,500,500,250,500,750,250,900,250,500,750,250,750,900,750,750,500,900,500,250,750,750,900,750,900,250,750,500,250,900,900,900,750,500,500,500,250,750,500,250,900,900,500,500,900,900,750,750,250,250,750,750,250,250,900,750,750,750,500,900,750,250,750,750,900,250,900],"smaller_num":["3","6","18","18","4","4","9","18","15","2","18","18","6","18","6","18","3","18","5","3","1","4","2","9","3","5","18","6","18","3","9","4","9","18","6","6","2","3","2","2","15","2","5","5","5","6","6","1","3","18","3","9","1","3","4","2","3","4","3","2","9","6","9","6","2","15","18","18","3","4","18","2","2","3","15","18","3","18","1","3","9","4","9","18","18","15","2","2","9","5","3","9","6","18","18","4","2","18","18","15","12","1","3","3","3","3","5","18","6","6","3","9","9","15","3","3","3","18","3","9"],"larger_num":["4","8","20","20","16","16","18","20","20","8","20","20","8","20","8","20","12","20","10","12","2","8","4","18","4","20","20","12","20","12","10","8","18","20","12","12","4","12","4","8","20","8","20","10","10","8","8","4","12","20","12","10","2","12","8","4","12","8","4","8","10","24","18","8","8","20","20","24","4","8","20","4","8","4","20","20","4","20","4","4","18","16","10","20","20","20","4","4","18","20","4","18","24","20","20","8","4","20","20","20","16","4","12","4","4","12","20","20","8","8","4","18","10","20","12","4","4","20","12","10"],"correct_side":[1,1,1,1,1,1,1,1,2,2,1,1,2,1,1,1,1,2,1,2,2,1,1,2,1,2,1,1,1,2,1,1,1,1,1,1,1,1,1,1,2,1,2,2,2,1,1,2,2,2,2,1,2,2,1,1,2,1,2,1,2,2,2,1,1,2,1,1,1,1,1,1,1,1,2,1,2,1,2,1,2,2,2,1,1,2,1,1,1,2,1,1,1,1,1,1,1,2,2,2,2,2,1,2,1,2,2,1,1,1,2,1,1,2,1,2,1,1,2,1],"img_shown":["img/750/randomdotsizeEA/L/10_Ratio_750_L_4_R_3.png","img/750/equaldotsize/L/13_Ratio_750_L_8_R_6.png","img/900/equaldotsize/L/10_Ratio_900_L_20_R_18.png","img/900/equaldotanddens/L/10_Ratio_900_L_20_R_18.png","img/250/equaldotsize/L/2_Ratio_250_L_16_R_4.png","img/250/randomdotsizeEA/L/2_Ratio_250_L_16_R_4.png","img/500/equaldotsize/L/4_Ratio_500_L_18_R_9.png","img/900/randomdotsizeEA/L/10_Ratio_900_L_20_R_18.png","img/750/randomdotsizeEA/R/3_Ratio_750_L_15_R_20.png","img/250/equaldotanddens/R/13_Ratio_250_L_2_R_8.png","img/900/equaldotanddens/L/10_Ratio_900_L_20_R_18.png","img/900/equaldotanddens/L/4_Ratio_900_L_20_R_18.png","img/750/equaldotanddens/R/2_Ratio_750_L_6_R_8.png","img/900/randomdotsizeEA/L/2_Ratio_900_L_20_R_18.png","img/750/equaldotanddens/L/14_Ratio_750_L_8_R_6.png","img/900/equaldotanddens/L/4_Ratio_900_L_20_R_18.png","img/250/equaldotanddens/L/14_Ratio_250_L_12_R_3.png","img/900/equaldotsize/R/11_Ratio_900_L_18_R_20.png","img/500/equaldotsize/L/7_Ratio_500_L_10_R_5.png","img/250/randomdotsizeEA/R/4_Ratio_250_L_3_R_12.png","img/500/equaldotanddens/R/12_Ratio_500_L_1_R_2.png","img/500/equaldotsize/L/8_Ratio_500_L_8_R_4.png","img/500/equaldotsize/L/10_Ratio_500_L_4_R_2.png","img/500/randomdotsizeEA/R/1_Ratio_500_L_9_R_18.png","img/750/randomdotsizeEA/L/8_Ratio_750_L_4_R_3.png","img/250/equaldotsize/R/12_Ratio_250_L_5_R_20.png","img/900/equaldotsize/L/4_Ratio_900_L_20_R_18.png","img/500/randomdotsizeEA/L/11_Ratio_500_L_12_R_6.png","img/900/randomdotsizeEA/L/8_Ratio_900_L_20_R_18.png","img/250/randomdotsizeEA/R/9_Ratio_250_L_3_R_12.png","img/900/equaldotsize/L/1_Ratio_900_L_10_R_9.png","img/500/equaldotanddens/L/8_Ratio_500_L_8_R_4.png","img/500/randomdotsizeEA/L/4_Ratio_500_L_18_R_9.png","img/900/randomdotsizeEA/L/4_Ratio_900_L_20_R_18.png","img/500/randomdotsizeEA/L/11_Ratio_500_L_12_R_6.png","img/500/equaldotanddens/L/11_Ratio_500_L_12_R_6.png","img/500/equaldotanddens/L/10_Ratio_500_L_4_R_2.png","img/250/equaldotanddens/L/15_Ratio_250_L_12_R_3.png","img/500/randomdotsizeEA/L/10_Ratio_500_L_4_R_2.png","img/250/equaldotsize/L/1_Ratio_250_L_8_R_2.png","img/750/equaldotsize/R/5_Ratio_750_L_15_R_20.png","img/250/equaldotsize/L/1_Ratio_250_L_8_R_2.png","img/250/equaldotanddens/R/12_Ratio_250_L_5_R_20.png","img/500/randomdotsizeEA/R/14_Ratio_500_L_5_R_10.png","img/500/equaldotanddens/R/14_Ratio_500_L_5_R_10.png","img/750/randomdotsizeEA/L/14_Ratio_750_L_8_R_6.png","img/750/equaldotanddens/L/14_Ratio_750_L_8_R_6.png","img/250/equaldotanddens/R/8_Ratio_250_L_1_R_4.png","img/250/equaldotsize/R/11_Ratio_250_L_3_R_12.png","img/900/randomdotsizeEA/R/9_Ratio_900_L_18_R_20.png","img/250/equaldotsize/R/4_Ratio_250_L_3_R_12.png","img/900/equaldotsize/L/1_Ratio_900_L_10_R_9.png","img/500/equaldotanddens/R/15_Ratio_500_L_1_R_2.png","img/250/randomdotsizeEA/R/4_Ratio_250_L_3_R_12.png","img/500/equaldotanddens/L/8_Ratio_500_L_8_R_4.png","img/500/equaldotsize/L/5_Ratio_500_L_4_R_2.png","img/250/randomdotsizeEA/R/9_Ratio_250_L_3_R_12.png","img/500/randomdotsizeEA/L/8_Ratio_500_L_8_R_4.png","img/750/equaldotsize/R/7_Ratio_750_L_3_R_4.png","img/250/equaldotanddens/L/1_Ratio_250_L_8_R_2.png","img/900/equaldotsize/R/5_Ratio_900_L_9_R_10.png","img/250/equaldotanddens/R/6_Ratio_250_L_6_R_24.png","img/500/equaldotanddens/R/1_Ratio_500_L_9_R_18.png","img/750/equaldotsize/L/14_Ratio_750_L_8_R_6.png","img/250/equaldotanddens/L/7_Ratio_250_L_8_R_2.png","img/750/equaldotanddens/R/3_Ratio_750_L_15_R_20.png","img/900/equaldotsize/L/8_Ratio_900_L_20_R_18.png","img/750/equaldotanddens/L/6_Ratio_750_L_24_R_18.png","img/750/equaldotanddens/L/8_Ratio_750_L_4_R_3.png","img/500/randomdotsizeEA/L/8_Ratio_500_L_8_R_4.png","img/900/equaldotsize/L/4_Ratio_900_L_20_R_18.png","img/500/equaldotanddens/L/10_Ratio_500_L_4_R_2.png","img/250/equaldotsize/L/7_Ratio_250_L_8_R_2.png","img/750/equaldotsize/L/10_Ratio_750_L_4_R_3.png","img/750/randomdotsizeEA/R/4_Ratio_750_L_15_R_20.png","img/900/randomdotsizeEA/L/4_Ratio_900_L_20_R_18.png","img/750/equaldotsize/R/12_Ratio_750_L_3_R_4.png","img/900/equaldotanddens/L/8_Ratio_900_L_20_R_18.png","img/250/randomdotsizeEA/R/8_Ratio_250_L_1_R_4.png","img/750/equaldotsize/L/8_Ratio_750_L_4_R_3.png","img/500/equaldotanddens/R/1_Ratio_500_L_9_R_18.png","img/250/randomdotsizeEA/R/10_Ratio_250_L_4_R_16.png","img/900/equaldotanddens/R/15_Ratio_900_L_9_R_10.png","img/900/equaldotsize/L/4_Ratio_900_L_20_R_18.png","img/900/equaldotanddens/L/10_Ratio_900_L_20_R_18.png","img/750/randomdotsizeEA/R/4_Ratio_750_L_15_R_20.png","img/500/randomdotsizeEA/L/5_Ratio_500_L_4_R_2.png","img/500/randomdotsizeEA/L/10_Ratio_500_L_4_R_2.png","img/500/equaldotsize/L/4_Ratio_500_L_18_R_9.png","img/250/randomdotsizeEA/R/12_Ratio_250_L_5_R_20.png","img/750/randomdotsizeEA/L/10_Ratio_750_L_4_R_3.png","img/500/equaldotsize/L/4_Ratio_500_L_18_R_9.png","img/250/equaldotanddens/L/5_Ratio_250_L_24_R_6.png","img/900/randomdotsizeEA/L/8_Ratio_900_L_20_R_18.png","img/900/equaldotanddens/L/4_Ratio_900_L_20_R_18.png","img/500/equaldotsize/L/8_Ratio_500_L_8_R_4.png","img/500/equaldotsize/L/10_Ratio_500_L_4_R_2.png","img/900/randomdotsizeEA/R/13_Ratio_900_L_18_R_20.png","img/900/randomdotsizeEA/R/13_Ratio_900_L_18_R_20.png","img/750/randomdotsizeEA/R/4_Ratio_750_L_15_R_20.png","img/750/equaldotsize/R/11_Ratio_750_L_12_R_16.png","img/250/equaldotanddens/R/8_Ratio_250_L_1_R_4.png","img/250/equaldotsize/L/14_Ratio_250_L_12_R_3.png","img/750/equaldotsize/R/12_Ratio_750_L_3_R_4.png","img/750/equaldotanddens/L/9_Ratio_750_L_4_R_3.png","img/250/randomdotsizeEA/R/11_Ratio_250_L_3_R_12.png","img/250/equaldotsize/R/12_Ratio_250_L_5_R_20.png","img/900/equaldotanddens/L/2_Ratio_900_L_20_R_18.png","img/750/equaldotanddens/L/13_Ratio_750_L_8_R_6.png","img/750/equaldotsize/L/13_Ratio_750_L_8_R_6.png","img/750/equaldotanddens/R/12_Ratio_750_L_3_R_4.png","img/500/equaldotsize/L/4_Ratio_500_L_18_R_9.png","img/900/randomdotsizeEA/L/1_Ratio_900_L_10_R_9.png","img/750/randomdotsizeEA/R/5_Ratio_750_L_15_R_20.png","img/250/equaldotsize/L/14_Ratio_250_L_12_R_3.png","img/750/equaldotanddens/R/7_Ratio_750_L_3_R_4.png","img/750/randomdotsizeEA/L/9_Ratio_750_L_4_R_3.png","img/900/equaldotanddens/L/10_Ratio_900_L_20_R_18.png","img/250/randomdotsizeEA/R/11_Ratio_250_L_3_R_12.png","img/900/equaldotsize/L/1_Ratio_900_L_10_R_9.png"],"Rat0":[["12_Ratio_0_L_9_R_0.png","13_Ratio_0_L_6_R_0.png","5_Ratio_0_L_2_R_0.png","6_Ratio_0_L_4_R_0.png","8_Ratio_0_L_6_R_0.png"],["1_Ratio_0_L_0_R_17.png","10_Ratio_0_L_0_R_22.png","11_Ratio_0_L_0_R_1.png","14_Ratio_0_L_0_R_24.png","15_Ratio_0_L_0_R_4.png","2_Ratio_0_L_0_R_5.png","3_Ratio_0_L_0_R_17.png","4_Ratio_0_L_0_R_7.png","7_Ratio_0_L_0_R_19.png","9_Ratio_0_L_0_R_15.png"]],"Rat250":[["1_Ratio_250_L_8_R_2.png","14_Ratio_250_L_12_R_3.png","15_Ratio_250_L_12_R_3.png","2_Ratio_250_L_16_R_4.png","3_Ratio_250_L_8_R_2.png","5_Ratio_250_L_24_R_6.png","7_Ratio_250_L_8_R_2.png"],["10_Ratio_250_L_4_R_16.png","11_Ratio_250_L_3_R_12.png","12_Ratio_250_L_5_R_20.png","13_Ratio_250_L_2_R_8.png","4_Ratio_250_L_3_R_12.png","6_Ratio_250_L_6_R_24.png","8_Ratio_250_L_1_R_4.png","9_Ratio_250_L_3_R_12.png"]],"Rat500":[["10_Ratio_500_L_4_R_2.png","11_Ratio_500_L_12_R_6.png","13_Ratio_500_L_12_R_6.png","4_Ratio_500_L_18_R_9.png","5_Ratio_500_L_4_R_2.png","7_Ratio_500_L_10_R_5.png","8_Ratio_500_L_8_R_4.png"],["1_Ratio_500_L_9_R_18.png","12_Ratio_500_L_1_R_2.png","14_Ratio_500_L_5_R_10.png","15_Ratio_500_L_1_R_2.png","2_Ratio_500_L_3_R_6.png","3_Ratio_500_L_10_R_20.png","6_Ratio_500_L_9_R_18.png","9_Ratio_500_L_2_R_4.png"]],"Rat750":[["1_Ratio_750_L_20_R_15.png","10_Ratio_750_L_4_R_3.png","13_Ratio_750_L_8_R_6.png","14_Ratio_750_L_8_R_6.png","6_Ratio_750_L_24_R_18.png","8_Ratio_750_L_4_R_3.png","9_Ratio_750_L_4_R_3.png"],["11_Ratio_750_L_12_R_16.png","12_Ratio_750_L_3_R_4.png","15_Ratio_750_L_9_R_12.png","2_Ratio_750_L_6_R_8.png","3_Ratio_750_L_15_R_20.png","4_Ratio_750_L_15_R_20.png","5_Ratio_750_L_15_R_20.png","7_Ratio_750_L_3_R_4.png"]],"Rat900":[["1_Ratio_900_L_10_R_9.png","10_Ratio_900_L_20_R_18.png","2_Ratio_900_L_20_R_18.png","4_Ratio_900_L_20_R_18.png","8_Ratio_900_L_20_R_18.png"],["11_Ratio_900_L_18_R_20.png","12_Ratio_900_L_18_R_20.png","13_Ratio_900_L_18_R_20.png","14_Ratio_900_L_18_R_20.png","15_Ratio_900_L_9_R_10.png","3_Ratio_900_L_9_R_10.png","5_Ratio_900_L_9_R_10.png","6_Ratio_900_L_9_R_10.png","7_Ratio_900_L_9_R_10.png","9_Ratio_900_L_18_R_20.png"]],"Rat1000":[["10_Ratio_1000_L_16_R_16.png","11_Ratio_1000_L_6_R_6.png","12_Ratio_1000_L_14_R_14.png","13_Ratio_1000_L_20_R_20.png","15_Ratio_1000_L_15_R_15.png","2_Ratio_1000_L_17_R_17.png","4_Ratio_1000_L_9_R_9.png","5_Ratio_1000_L_6_R_6.png","6_Ratio_1000_L_19_R_19.png","8_Ratio_1000_L_14_R_14.png","9_Ratio_1000_L_25_R_25.png"],["1_Ratio_1000_L_1_R_1.png","14_Ratio_1000_L_17_R_17.png","3_Ratio_1000_L_17_R_17.png","7_Ratio_1000_L_6_R_6.png"]]}},{"start_time":1552074428809,"click_time":1552074430484,"finger_time":1552074430044,"fix_duration":1323.0323969598323,"trial":1,"RT":1235,"MT":440,"sideResp":1,"stimulus":"img/750/equaldotsize/L/13_Ratio_750_L_8_R_6.png","xmouse":[806,806,806,806,806,806,806,806,806,806,806,806,806,806,806,806,806,806,806,806,806,806,806,806,806,806,806,806,806,806,806,806,806,806,806,806,806,806,806,806,806,806,806,806,806,806,806,806,806,806,806,806,806,806,806,806,806,806,805,805,804,800,789,774,733,709,677,649,620,600,587,571,555,533,533,533,533,533,533,533,533,533,533,475],"ymouse":[490,490,490,490,490,490,490,490,490,490,490,490,490,490,490,490,490,490,490,490,490,490,490,490,490,490,490,490,490,490,490,490,490,490,490,490,490,490,490,490,490,490,490,490,490,490,490,490,490,490,490,490,490,490,490,490,490,490,490,481,469,446,403,352,235,176,121,82,53,42,38,33,26,7,7,7,7,7,7,7,7,7,7,1],"timestamp_mouse":[15,43,54,75,95,115,135,156,174,195,215,234,254,275,295,314,334,354,374,395,414,435,454,475,495,515,534,554,575,594,615,634,654,676,695,715,734,755,776,795,815,834,855,875,894,915,934,955,974,995,1015,1035,1056,1075,1094,1115,1134,1155,1174,1195,1214,1235,1255,1274,1295,1314,1335,1354,1374,1396,1414,1435,1454,1474,1494,1514,1534,1555,1575,1596,1616,1635,1655,1675],"xSR":741.5,"ySR":458.25,"xT1":424.9,"yT1":0,"xT2":1058.1,"yT2":0,"toosoon":0,"cond_shown":"equaldotsize","ratio_trial":750,"smaller_num":"6","larger_num":"8","correct_side":1,"subjID":"DianaCatalinaAgudeloMendez12","gender":"1","age":"9","school":"4"},{"start_time":1552074433817,"click_time":1552074436404,"finger_time":1552074435385,"fix_duration":1051.994861920581,"trial":2,"RT":1568,"MT":1019,"sideResp":2,"stimulus":"img/900/equaldotsize/L/10_Ratio_900_L_20_R_18.png","xmouse":[778,778,778,778,778,778,778,778,778,778,778,778,778,778,778,778,778,778,778,778,778,778,778,778,778,778,778,778,778,778,778,778,778,778,778,778,778,778,778,778,778,778,778,778,778,778,778,778,778,778,778,778,778,778,778,778,778,778,778,778,778,778,778,778,778,778,778,779,782,789,791,793,794,797,798,804,806,811,814,822,825,829,832,836,844,848,853,860,871,879,889,891,891,892,893,898,901,905,908,911,923,930,935,941,955,965,974,981,985,992,995,999,1002,1008,1012,1021,1026,1032,1034,1034,1035,1035,1036,1036,1039,1041,1044,1050,1058,1081],"ymouse":[524,524,524,524,524,524,524,524,524,524,524,524,524,524,524,524,524,524,524,524,524,524,524,524,524,524,524,524,524,524,524,524,524,524,524,524,524,524,524,524,524,524,524,524,524,524,524,524,524,524,524,524,524,524,524,524,524,524,524,524,524,524,524,524,524,524,524,524,523,519,517,512,506,500,492,478,472,459,455,443,432,421,408,395,367,352,334,312,274,252,231,229,228,226,223,216,213,211,209,206,198,193,184,175,149,134,122,112,106,100,98,96,95,94,92,88,85,82,80,80,80,80,80,80,80,80,80,80,80,80],"timestamp_mouse":[10,40,47,67,87,107,127,147,166,187,207,226,246,266,287,306,327,347,366,387,408,427,447,466,486,507,526,546,567,586,608,626,647,667,688,707,727,748,768,788,808,827,847,867,886,907,926,947,966,987,1007,1027,1046,1067,1088,1107,1126,1146,1167,1187,1207,1227,1247,1267,1286,1307,1327,1346,1367,1387,1406,1427,1447,1466,1487,1507,1527,1547,1568,1587,1606,1626,1646,1667,1689,1706,1727,1746,1767,1788,1806,1826,1846,1866,1886,1906,1926,1946,1967,1986,2007,2026,2046,2066,2088,2106,2127,2146,2167,2186,2206,2226,2247,2267,2288,2306,2326,2347,2367,2386,2406,2427,2446,2466,2486,2506,2526,2546,2567,2587],"xSR":741.5,"ySR":458.25,"xT1":424.9,"yT1":0,"xT2":1058.1,"yT2":0,"toosoon":0,"cond_shown":"equaldotsize","ratio_trial":900,"smaller_num":"18","larger_num":"20","correct_side":1,"subjID":"DianaCatalinaAgudeloMendez12","gender":"1","age":"9","school":"4"},{"start_time":1552074437899,"click_time":1552074439763,"finger_time":1552074439204,"fix_duration":253.29734189426256,"trial":3,"RT":1305,"MT":559,"sideResp":1,"stimulus":"img/900/equaldotanddens/L/10_Ratio_900_L_20_R_18.png","xmouse":[784,784,784,784,784,784,784,784,784,784,782,778,776,774,774,774,774,774,774,774,774,774,775,781,785,786,786,786,786,786,786,786,786,786,786,786,786,786,786,786,786,786,786,786,786,786,786,786,786,786,786,788,790,793,796,797,797,797,797,797,797,797,798,798,798,795,791,791,791,791,791,790,788,786,783,776,771,763,753,743,733,714,700,690,675,643,629,612,595,576,548,533,527,514],"ymouse":[503,503,503,503,503,503,503,503,503,503,504,506,508,509,509,509,509,509,509,509,509,509,507,504,502,502,502,502,502,502,502,502,502,502,502,502,502,502,502,502,502,502,502,502,502,502,502,502,502,502,502,501,501,500,499,499,499,499,499,499,499,498,498,492,479,439,412,390,371,356,345,336,332,327,320,303,290,274,256,234,207,163,131,112,91,49,35,26,19,14,10,8,6,5],"timestamp_mouse":[14,36,45,65,86,105,125,144,164,185,205,226,244,265,284,304,325,346,365,384,405,424,445,464,484,505,525,545,566,584,604,625,645,664,685,706,725,745,765,785,805,824,845,866,885,905,924,944,964,985,1006,1024,1046,1064,1084,1105,1126,1145,1165,1184,1206,1225,1244,1265,1286,1305,1324,1344,1364,1384,1406,1424,1444,1464,1484,1505,1524,1544,1565,1584,1606,1625,1644,1665,1685,1705,1724,1744,1765,1784,1806,1824,1844,1864],"xSR":741.5,"ySR":458.25,"xT1":424.9,"yT1":0,"xT2":1058.1,"yT2":0,"toosoon":0,"cond_shown":"equaldotanddens","ratio_trial":900,"smaller_num":"18","larger_num":"20","correct_side":1,"subjID":"DianaCatalinaAgudeloMendez12","gender":"1","age":"9","school":"4"},{"start_time":1552074442372,"click_time":1552074443803,"finger_time":1552074443324,"fix_duration":986.342166244977,"trial":4,"RT":952,"MT":479,"sideResp":1,"stimulus":"img/250/equaldotsize/L/2_Ratio_250_L_16_R_4.png","xmouse":[803,803,803,803,803,803,803,803,803,803,803,803,803,803,803,803,803,803,803,803,803,803,803,803,803,803,803,803,803,803,803,803,803,803,803,803,803,803,803,803,803,803,803,803,803,805,807,808,808,808,808,808,807,806,803,801,790,783,775,765,745,733,701,682,663,642,595,573,546,516,497,481],"ymouse":[469,469,469,469,469,469,469,469,469,469,469,469,469,469,469,469,469,469,469,469,469,469,469,469,469,469,469,469,469,469,469,469,469,469,469,469,469,469,469,469,469,469,469,469,469,469,463,457,452,446,442,436,433,430,423,420,406,398,389,377,359,348,322,307,290,272,229,204,172,137,115,94],"timestamp_mouse":[11,43,53,71,92,111,133,152,172,192,212,231,252,273,293,312,331,352,372,392,412,433,452,473,492,512,532,551,571,591,611,632,652,673,691,712,732,751,772,792,813,832,851,873,891,912,932,952,971,991,1012,1032,1051,1072,1091,1112,1133,1151,1173,1191,1213,1232,1251,1271,1291,1311,1333,1351,1372,1392,1412,1431],"xSR":741.5,"ySR":458.25,"xT1":424.9,"yT1":0,"xT2":1058.1,"yT2":0,"toosoon":0,"cond_shown":"equaldotsize","ratio_trial":250,"smaller_num":"4","larger_num":"16","correct_side":1,"subjID":"DianaCatalinaAgudeloMendez12","gender":"1","age":"9","school":"4"},{"start_time":1552074446616,"click_time":1552074448305,"finger_time":1552074447504,"fix_duration":1331.2097268894186,"trial":5,"RT":888,"MT":801,"sideResp":1,"stimulus":"img/250/randomdotsizeEA/L/2_Ratio_250_L_16_R_4.png","xmouse":[792,792,792,792,792,792,792,792,792,792,792,792,791,791,791,791,791,791,791,791,791,791,791,791,791,791,791,791,791,791,791,791,791,791,791,791,791,791,791,791,793,795,797,798,799,799,799,799,799,799,796,794,790,788,783,771,763,746,727,687,666,647,631,615,600,571,556,539,531,523,510,506,503,501,500,496,493,493,492,489,488,488,488,488,488],"ymouse":[492,492,492,492,492,492,492,492,492,492,492,492,492,493,498,499,499,499,499,499,499,499,499,499,499,499,499,499,499,499,499,499,499,499,499,499,499,499,499,499,494,487,480,470,454,448,442,438,437,432,428,423,417,414,407,393,383,366,353,324,308,295,284,271,259,236,226,213,207,201,191,188,185,182,179,170,158,154,140,123,117,112,106,102,97],"timestamp_mouse":[13,33,48,68,87,107,127,147,168,188,207,228,248,267,288,307,327,348,367,387,408,427,447,467,487,508,528,548,567,587,607,627,647,668,687,707,728,749,768,788,807,828,848,868,888,908,928,948,967,988,1007,1027,1048,1068,1089,1107,1127,1148,1167,1189,1209,1229,1248,1267,1289,1308,1328,1349,1369,1387,1408,1428,1447,1467,1487,1507,1528,1549,1567,1588,1607,1627,1648,1668,1689],"xSR":741.5,"ySR":458.25,"xT1":424.9,"yT1":0,"xT2":1058.1,"yT2":0,"toosoon":0,"cond_shown":"randomdotsizeEA","ratio_trial":250,"smaller_num":"4","larger_num":"16","correct_side":1,"subjID":"DianaCatalinaAgudeloMendez12","gender":"1","age":"9","school":"4"},{"start_time":1552074450326,"click_time":1552074451843,"finger_time":1552074451123,"fix_duration":781.3773403711652,"trial":6,"RT":797,"MT":720,"sideResp":1,"stimulus":"img/500/equaldotsize/L/4_Ratio_500_L_18_R_9.png","xmouse":[764,764,764,764,764,764,764,764,764,764,764,764,764,764,764,764,764,764,764,764,764,764,764,764,764,764,764,764,764,764,764,764,764,764,764,764,764,760,757,741,737,732,724,720,709,703,697,690,675,656,650,634,612,583,567,551,538,524,505,495,486,477,476,476,476,476,476,476,476,477,479,482,483,487,488,490],"ymouse":[538,538,538,538,538,538,538,538,538,538,538,538,538,538,538,538,538,538,538,538,538,538,538,538,538,538,538,538,538,538,538,538,538,538,538,538,538,536,533,512,503,493,478,469,450,439,429,417,390,364,356,336,307,263,243,222,201,183,162,156,153,150,149,149,149,149,149,148,148,142,137,125,119,108,103,99],"timestamp_mouse":[18,45,57,78,98,117,138,158,178,198,218,238,258,278,298,317,338,358,378,398,417,437,458,479,498,518,537,557,578,598,617,637,658,678,698,719,738,758,778,797,818,839,858,878,898,917,937,957,979,997,1017,1037,1058,1079,1097,1118,1137,1157,1178,1197,1217,1238,1258,1277,1299,1318,1337,1357,1379,1397,1418,1437,1457,1478,1497,1517],"xSR":741.5,"ySR":458.25,"xT1":424.9,"yT1":0,"xT2":1058.1,"yT2":0,"toosoon":0,"cond_shown":"equaldotsize","ratio_trial":500,"smaller_num":"9","larger_num":"18","correct_side":1,"subjID":"DianaCatalinaAgudeloMendez12","gender":"1","age":"9","school":"4"},{"start_time":1552074455559,"click_time":1552074457024,"finger_time":1552074456603,"fix_duration":1093.7625570111927,"trial":7,"RT":1044,"MT":421,"sideResp":1,"stimulus":"img/900/randomdotsizeEA/L/10_Ratio_900_L_20_R_18.png","xmouse":[800,800,800,800,800,800,800,800,800,800,800,800,800,800,800,800,800,800,800,800,800,800,800,800,800,800,800,800,800,800,800,800,800,800,800,800,800,800,800,800,800,800,800,800,800,800,800,800,800,798,790,783,771,744,725,707,689,659,648,639,630,622,617,608,601,594,586,576,559,550,546,542,535,516],"ymouse":[515,515,515,515,515,515,515,515,515,515,515,515,515,515,515,515,515,515,515,515,515,515,515,515,515,515,515,515,515,515,515,515,515,515,515,515,515,515,515,515,515,515,515,515,515,515,515,515,513,509,490,472,448,386,352,323,293,247,228,212,197,182,174,159,148,134,121,110,99,96,95,94,93,89],"timestamp_mouse":[14,24,44,65,84,106,124,145,165,184,206,225,244,265,285,305,325,344,364,384,404,425,445,465,485,504,524,544,565,584,604,624,644,665,685,705,726,745,764,785,804,824,844,865,885,904,924,944,964,984,1004,1025,1044,1064,1085,1104,1125,1146,1164,1184,1205,1226,1244,1264,1284,1304,1325,1344,1364,1384,1404,1424,1444,1465],"xSR":741.5,"ySR":458.25,"xT1":424.9,"yT1":0,"xT2":1058.1,"yT2":0,"toosoon":0,"cond_shown":"randomdotsizeEA","ratio_trial":900,"smaller_num":"18","larger_num":"20","correct_side":1,"subjID":"DianaCatalinaAgudeloMendez12","gender":"1","age":"9","school":"4"},{"start_time":1552074459422,"click_time":1552074460644,"finger_time":1552074460384,"fix_duration":1217.6557957472578,"trial":8,"RT":962,"MT":260,"sideResp":1,"stimulus":"img/750/randomdotsizeEA/R/3_Ratio_750_L_15_R_20.png","xmouse":[809,809,809,809,809,809,809,809,809,809,809,809,809,809,809,809,809,809,809,809,809,809,809,809,809,809,809,809,809,809,809,809,809,809,809,803,799,798,797,796,796,795,795,793,788,782,775,760,731,688,667,643,616,583,521,483,474,455,446,438,438,437],"ymouse":[519,519,519,519,519,519,519,519,519,519,519,519,519,519,519,519,519,519,519,519,519,519,519,519,519,519,519,519,519,519,519,519,519,519,518,508,501,498,497,496,496,495,494,492,486,479,473,463,442,406,384,355,318,278,203,159,149,126,115,105,102,97],"timestamp_mouse":[9,21,54,62,82,101,121,141,162,181,202,222,241,262,282,301,321,342,363,382,401,422,443,462,483,503,521,542,562,582,602,622,641,662,681,701,722,742,761,782,802,821,842,862,882,902,921,942,962,982,1001,1022,1042,1062,1083,1101,1122,1141,1161,1182,1202,1222],"xSR":741.5,"ySR":458.25,"xT1":424.9,"yT1":0,"xT2":1058.1,"yT2":0,"toosoon":0,"cond_shown":"randomdotsizeEA","ratio_trial":750,"smaller_num":"15","larger_num":"20","correct_side":2,"subjID":"DianaCatalinaAgudeloMendez12","gender":"1","age":"9","school":"4"},{"start_time":1552074463562,"click_time":1552074465223,"finger_time":1552074464383,"fix_duration":1457.0953048559013,"trial":9,"RT":821,"MT":840,"sideResp":2,"stimulus":"img/250/equaldotanddens/R/13_Ratio_250_L_2_R_8.png","xmouse":[748,748,748,748,748,748,748,748,748,748,748,748,748,748,748,748,748,748,748,748,748,748,748,748,748,748,748,748,748,748,748,748,748,748,748,748,748,748,751,756,761,765,770,782,793,806,817,827,832,832,834,837,843,858,864,873,883,911,921,930,938,946,954,970,978,984,989,997,1002,1007,1012,1017,1019,1025,1026,1028,1029,1032,1036,1037,1043,1048,1053,1061],"ymouse":[508,508,508,508,508,508,508,508,508,508,508,508,508,508,508,508,508,508,508,508,508,508,508,508,508,508,508,508,508,508,508,508,508,508,508,508,508,505,500,489,469,453,432,376,340,301,258,218,155,136,122,119,119,117,113,104,95,76,69,65,65,65,65,68,69,70,71,72,73,74,74,75,75,76,76,76,76,77,78,78,79,79,81,81],"timestamp_mouse":[10,22,41,61,81,103,121,142,161,181,203,221,242,262,282,302,322,342,363,381,402,422,441,461,482,502,522,542,561,581,602,621,642,663,683,701,722,741,762,781,801,821,842,861,881,901,922,941,961,982,1001,1021,1042,1061,1082,1102,1121,1143,1161,1181,1201,1222,1241,1262,1282,1302,1322,1343,1361,1381,1402,1421,1442,1462,1483,1502,1522,1542,1561,1581,1601,1622,1641,1661],"xSR":741.5,"ySR":458.25,"xT1":424.9,"yT1":0,"xT2":1058.1,"yT2":0,"toosoon":0,"cond_shown":"equaldotanddens","ratio_trial":250,"smaller_num":"2","larger_num":"8","correct_side":2,"subjID":"DianaCatalinaAgudeloMendez12","gender":"1","age":"9","school":"4"},{"start_time":1552074466761,"click_time":1552074467884,"finger_time":1552074467544,"fix_duration":496.9865779920235,"trial":10,"RT":783,"MT":340,"sideResp":1,"stimulus":"img/900/equaldotanddens/L/10_Ratio_900_L_20_R_18.png","xmouse":[786,786,786,786,786,786,786,786,786,786,786,786,786,786,786,786,786,786,786,786,786,786,786,786,786,786,786,786,786,786,786,786,786,786,786,787,786,778,771,763,751,743,724,713,702,688,675,647,635,627,616,600,588,562,547,534,521],"ymouse":[488,488,488,488,488,488,488,488,488,488,488,488,488,488,488,488,488,488,488,488,488,488,488,488,488,488,488,488,488,488,488,488,488,488,488,486,485,474,464,453,436,424,393,371,345,318,290,241,221,206,190,166,150,123,110,101,92],"timestamp_mouse":[13,22,45,63,82,103,123,143,163,182,202,222,243,263,284,303,322,343,363,382,403,423,443,462,482,503,523,543,563,583,602,622,643,662,682,702,723,743,763,783,803,823,843,865,883,902,923,943,962,982,1002,1022,1042,1062,1082,1102,1123],"xSR":741.5,"ySR":458.25,"xT1":424.9,"yT1":0,"xT2":1058.1,"yT2":0,"toosoon":0,"cond_shown":"equaldotanddens","ratio_trial":900,"smaller_num":"18","larger_num":"20","correct_side":1,"subjID":"DianaCatalinaAgudeloMendez12","gender":"1","age":"9","school":"4"},{"start_time":1552074468935,"click_time":1552074470384,"finger_time":1552074469763,"fix_duration":250,"trial":11,"RT":828,"MT":621,"sideResp":2,"stimulus":"img/900/equaldotanddens/L/4_Ratio_900_L_20_R_18.png","xmouse":[825,825,825,825,825,825,825,825,825,825,825,825,825,825,825,825,826,827,828,828,828,828,828,828,828,828,828,828,828,828,828,828,828,829,829,829,831,831,832,836,839,842,844,846,849,851,855,858,863,880,890,909,923,935,959,970,981,988,996,1016,1020,1030,1034,1042,1044,1046,1046,1046,1048,1051,1053,1056,1061],"ymouse":[509,509,509,509,509,509,509,509,509,509,509,509,509,509,509,509,509,509,509,509,509,509,509,509,509,509,509,509,509,509,509,509,509,509,509,509,509,510,510,510,510,511,511,511,509,503,498,488,476,441,421,388,364,341,297,279,259,240,221,174,165,139,123,95,89,85,83,83,83,83,83,83,84],"timestamp_mouse":[14,33,49,69,88,108,129,149,170,189,208,229,248,268,289,308,329,349,369,388,408,429,448,469,489,508,529,548,568,589,608,628,648,669,688,708,729,748,769,789,809,828,849,869,888,909,928,948,969,989,1008,1028,1048,1069,1089,1109,1129,1149,1168,1188,1208,1228,1248,1269,1288,1308,1328,1348,1368,1388,1408,1429,1449],"xSR":741.5,"ySR":458.25,"xT1":424.9,"yT1":0,"xT2":1058.1,"yT2":0,"toosoon":0,"cond_shown":"equaldotanddens","ratio_trial":900,"smaller_num":"18","larger_num":"20","correct_side":1,"subjID":"DianaCatalinaAgudeloMendez12","gender":"1","age":"9","school":"4"},{"start_time":1552074473385,"click_time":1552074474723,"finger_time":1552074474323,"fix_duration":677.8052690704873,"trial":12,"RT":938,"MT":400,"sideResp":1,"stimulus":"img/750/equaldotanddens/R/2_Ratio_750_L_6_R_8.png","xmouse":[771,771,771,771,771,771,771,771,771,771,771,771,771,771,771,771,771,771,771,771,771,771,771,771,771,771,771,771,771,771,771,771,771,771,771,771,771,771,771,771,768,764,760,755,752,746,741,737,727,719,701,692,681,669,654,639,612,601,585,576,556,545,534,524,514,499,490],"ymouse":[501,501,501,501,501,501,501,501,501,501,501,501,501,501,501,501,501,501,501,501,501,501,501,501,501,501,501,501,501,501,501,501,501,501,501,501,501,501,500,500,499,497,494,491,487,477,470,463,448,437,414,402,386,368,345,323,276,257,227,209,173,154,139,127,117,103,98],"timestamp_mouse":[18,39,59,78,99,119,139,160,180,199,218,239,258,279,298,319,339,360,379,398,419,439,458,479,498,519,540,559,578,598,619,639,659,678,698,718,739,758,779,799,819,838,859,878,899,919,938,959,978,998,1019,1038,1058,1079,1098,1120,1138,1158,1179,1198,1219,1238,1258,1279,1299,1319,1338],"xSR":741.5,"ySR":458.25,"xT1":424.9,"yT1":0,"xT2":1058.1,"yT2":0,"toosoon":0,"cond_shown":"equaldotanddens","ratio_trial":750,"smaller_num":"6","larger_num":"8","correct_side":2,"subjID":"DianaCatalinaAgudeloMendez12","gender":"1","age":"9","school":"4"},{"start_time":1552074476763,"click_time":1552074478143,"finger_time":1552074477664,"fix_duration":818.3452392910717,"trial":13,"RT":901,"MT":479,"sideResp":1,"stimulus":"img/900/randomdotsizeEA/L/2_Ratio_900_L_20_R_18.png","xmouse":[775,775,775,775,775,775,775,775,775,775,775,775,775,776,777,777,778,778,778,778,778,778,778,778,778,778,778,778,778,778,778,778,778,778,778,778,778,778,779,779,779,779,779,777,777,776,775,775,774,773,770,766,762,752,746,744,737,723,707,702,684,674,655,644,633,618,599,577,530,516],"ymouse":[510,510,510,510,510,510,510,510,510,510,510,510,506,504,501,498,495,494,494,494,494,494,494,494,494,494,494,494,494,494,494,494,494,494,494,494,494,492,489,488,481,475,470,463,460,458,457,455,453,450,447,441,433,416,406,395,381,344,307,294,253,230,189,170,152,135,123,111,86,78],"timestamp_mouse":[11,20,40,62,81,101,120,141,160,180,200,221,241,261,281,301,320,340,361,380,401,421,440,460,481,501,521,540,561,580,601,621,640,661,681,700,721,741,760,781,800,821,841,861,880,901,921,941,960,981,1001,1022,1041,1060,1080,1100,1120,1141,1160,1181,1201,1220,1241,1260,1281,1300,1321,1341,1360,1380],"xSR":741.5,"ySR":458.25,"xT1":424.9,"yT1":0,"xT2":1058.1,"yT2":0,"toosoon":0,"cond_shown":"randomdotsizeEA","ratio_trial":900,"smaller_num":"18","larger_num":"20","correct_side":1,"subjID":"DianaCatalinaAgudeloMendez12","gender":"1","age":"9","school":"4"},{"start_time":1552074479984,"click_time":1552074482365,"finger_time":1552074481744,"fix_duration":740.8494696488314,"trial":14,"RT":1760,"MT":621,"sideResp":1,"stimulus":"img/750/equaldotanddens/L/14_Ratio_750_L_8_R_6.png","xmouse":[792,791,791,791,791,791,791,791,791,791,791,791,791,791,791,791,791,791,791,791,791,791,791,791,791,791,791,791,791,791,791,791,791,791,791,791,791,791,791,791,791,791,791,791,791,791,791,791,791,791,791,791,791,791,791,791,791,791,791,791,791,791,791,791,791,791,791,791,791,791,791,791,791,791,791,791,791,791,791,791,791,791,791,791,791,790,780,762,747,732,721,696,683,670,658,638,628,620,608,602,594,588,582,575,568,560,555,553,548,542,523,511,496,487,484,482,482,482,482],"ymouse":[472,472,472,472,472,472,472,472,472,472,472,472,472,472,472,472,472,472,472,472,472,472,472,472,472,472,472,472,472,472,472,472,472,472,472,472,472,472,472,472,472,472,472,472,472,472,472,472,472,472,472,472,472,472,472,472,472,472,472,472,472,472,472,472,472,472,472,472,472,472,472,472,472,472,472,472,472,472,472,472,472,472,472,472,472,472,468,453,441,427,411,369,345,323,304,267,250,238,221,213,201,193,183,175,169,163,159,158,153,148,133,124,116,111,110,108,104,101,95],"timestamp_mouse":[20,41,59,79,100,120,139,159,179,199,219,241,261,279,299,320,339,360,379,400,420,440,459,479,499,519,540,559,580,600,620,640,659,680,700,719,740,759,780,800,820,840,860,879,899,920,939,960,980,999,1019,1039,1059,1079,1099,1120,1140,1159,1179,1200,1220,1239,1260,1281,1300,1320,1339,1360,1380,1399,1420,1440,1461,1479,1500,1520,1539,1560,1580,1600,1620,1640,1660,1680,1699,1720,1740,1760,1781,1799,1820,1839,1859,1879,1899,1921,1939,1959,1980,1999,2020,2039,2059,2079,2100,2120,2139,2160,2179,2200,2221,2239,2259,2280,2300,2321,2339,2359,2381],"xSR":741.5,"ySR":458.25,"xT1":424.9,"yT1":0,"xT2":1058.1,"yT2":0,"toosoon":0,"cond_shown":"equaldotanddens","ratio_trial":750,"smaller_num":"6","larger_num":"8","correct_side":1,"subjID":"DianaCatalinaAgudeloMendez12","gender":"1","age":"9","school":"4"},{"start_time":1552074483715,"click_time":1552074486003,"finger_time":1552074484523,"fix_duration":468.3758725019942,"trial":15,"RT":808,"MT":1480,"sideResp":2,"stimulus":"img/900/equaldotanddens/L/4_Ratio_900_L_20_R_18.png","xmouse":[771,771,771,771,771,771,771,771,771,771,771,771,771,771,771,771,771,771,771,771,771,771,771,771,771,771,771,771,771,771,771,771,771,771,771,771,771,766,761,751,738,734,729,727,725,719,715,710,705,699,686,679,672,657,635,624,616,609,604,598,597,597,597,597,601,625,636,649,661,684,690,695,701,706,726,738,752,768,787,826,841,858,874,889,915,928,945,963,982,1018,1027,1034,1039,1047,1062,1069,1072,1073,1073,1073,1073,1073,1073,1073,1073,1073,1073,1073,1073,1073,1073,1075,1085,1090,1092],"ymouse":[513,513,513,513,513,513,513,513,513,513,513,513,513,513,513,513,513,513,513,513,513,513,513,513,513,513,513,513,513,513,513,513,513,513,513,513,513,509,504,493,475,467,457,452,445,428,417,406,395,381,350,335,319,292,254,235,221,209,199,188,186,185,185,185,184,187,189,193,194,200,201,202,202,202,202,200,196,192,187,174,172,171,171,171,171,169,166,161,154,144,140,138,135,130,121,116,113,112,112,112,112,112,112,112,112,112,112,112,112,112,112,110,103,100,99],"timestamp_mouse":[14,37,49,68,88,108,128,148,169,188,208,228,248,269,289,310,329,348,369,389,409,429,449,469,488,508,529,549,569,589,609,629,649,669,689,709,728,748,768,789,808,828,848,868,890,908,928,948,968,990,1008,1029,1049,1069,1089,1108,1128,1148,1168,1189,1208,1228,1249,1268,1288,1308,1328,1349,1368,1389,1409,1429,1449,1469,1488,1509,1528,1549,1569,1590,1608,1629,1648,1669,1689,1708,1729,1749,1768,1789,1808,1828,1848,1869,1889,1908,1928,1949,1968,1988,2009,2029,2048,2068,2088,2108,2129,2148,2169,2188,2208,2228,2248,2268,2288],"xSR":741.5,"ySR":458.25,"xT1":424.9,"yT1":0,"xT2":1058.1,"yT2":0,"toosoon":0,"cond_shown":"equaldotanddens","ratio_trial":900,"smaller_num":"18","larger_num":"20","correct_side":1,"subjID":"DianaCatalinaAgudeloMendez12","gender":"1","age":"9","school":"4"},{"start_time":1552074488125,"click_time":1552074489725,"finger_time":1552074489063,"fix_duration":920.0525297335386,"trial":16,"RT":938,"MT":662,"sideResp":1,"stimulus":"img/250/equaldotanddens/L/14_Ratio_250_L_12_R_3.png","xmouse":[784,783,782,782,782,782,782,783,783,783,785,785,785,786,786,788,789,790,790,790,790,790,790,790,791,791,791,791,791,791,791,791,791,791,791,791,791,791,791,795,798,804,808,808,809,806,789,702,636,636,636,636,636,636,636,636,636,636,636,636,636,636,636,636,636,636,636,636,636,636,636,636,636,636,636,636,636,636,509],"ymouse":[468,464,463,463,463,463,463,463,463,463,463,463,463,463,464,465,466,468,468,468,468,468,468,468,469,469,468,467,465,464,464,464,464,464,464,464,464,464,464,464,464,466,467,467,463,450,395,190,36,36,36,36,36,36,36,36,36,36,36,36,36,36,36,36,36,36,36,36,36,36,36,36,36,36,36,36,36,36,1],"timestamp_mouse":[38,59,79,98,119,138,158,179,198,220,238,259,279,298,318,339,358,379,399,418,440,460,479,498,520,539,559,578,599,618,640,660,678,699,719,739,759,779,799,818,838,858,879,899,919,938,958,980,998,1019,1038,1059,1079,1099,1118,1138,1158,1179,1199,1219,1239,1258,1279,1298,1319,1339,1359,1378,1398,1418,1439,1459,1478,1499,1519,1539,1559,1579,1600],"xSR":741.5,"ySR":458.25,"xT1":424.9,"yT1":0,"xT2":1058.1,"yT2":0,"toosoon":0,"cond_shown":"equaldotanddens","ratio_trial":250,"smaller_num":"3","larger_num":"12","correct_side":1,"subjID":"DianaCatalinaAgudeloMendez12","gender":"1","age":"9","school":"4"},{"start_time":1552074490995,"click_time":1552074493205,"finger_time":1552074492344,"fix_duration":250,"trial":17,"RT":1349,"MT":861,"sideResp":1,"stimulus":"img/900/equaldotsize/R/11_Ratio_900_L_18_R_20.png","xmouse":[790,790,790,790,790,790,790,790,790,790,790,790,790,790,790,790,790,790,790,790,790,790,790,790,790,790,790,790,790,790,790,790,790,790,790,790,790,790,790,790,790,790,790,790,790,790,790,790,790,790,790,790,790,790,790,790,790,790,791,791,792,792,793,793,794,795,796,797,797,797,797,788,780,773,764,748,742,736,728,721,715,713,710,710,710,710,704,702,702,702,702,702,701,700,699,698,690,684,672,662,640,618,593,571,556,549,548,544,537,530,524],"ymouse":[500,500,500,500,500,500,500,500,500,500,500,500,500,500,500,500,500,500,500,500,500,500,500,500,500,500,500,500,500,500,500,500,500,500,500,500,500,500,500,500,499,499,499,499,499,499,499,499,499,499,499,499,499,499,499,499,499,496,493,490,487,482,478,474,470,467,461,457,449,443,435,416,399,381,362,323,305,286,256,234,191,170,149,125,107,89,67,59,53,48,41,39,38,37,37,37,35,34,31,29,26,23,20,17,15,14,14,14,14,16,17],"timestamp_mouse":[23,35,49,68,88,108,128,150,168,188,209,228,248,268,288,309,329,349,368,388,409,429,448,470,489,509,528,550,569,589,609,628,648,669,689,708,729,749,768,789,808,828,849,868,888,909,929,949,969,989,1009,1028,1048,1068,1089,1108,1130,1149,1168,1189,1209,1229,1249,1268,1288,1308,1330,1349,1368,1389,1409,1428,1448,1468,1488,1508,1528,1548,1569,1589,1608,1628,1649,1668,1689,1710,1729,1748,1768,1788,1810,1828,1849,1869,1888,1908,1928,1948,1969,1988,2009,2028,2048,2069,2089,2108,2128,2149,2168,2189,2209],"xSR":741.5,"ySR":458.25,"xT1":424.9,"yT1":0,"xT2":1058.1,"yT2":0,"toosoon":0,"cond_shown":"equaldotsize","ratio_trial":900,"smaller_num":"18","larger_num":"20","correct_side":2,"subjID":"DianaCatalinaAgudeloMendez12","gender":"1","age":"9","school":"4"},{"start_time":1552074495099,"click_time":1552074496524,"finger_time":1552074495864,"fix_duration":593.5910666257955,"trial":18,"RT":765,"MT":660,"sideResp":1,"stimulus":"img/500/equaldotsize/L/7_Ratio_500_L_10_R_5.png","xmouse":[790,790,790,790,790,790,790,790,790,790,790,790,790,790,790,790,790,790,790,790,790,790,790,790,790,790,790,790,790,790,790,790,790,790,790,787,783,780,775,769,747,736,727,716,711,701,693,685,675,661,649,614,595,569,559,548,548,548,548,548,548,548,548,548,548,548,548,548,548,548,478,473],"ymouse":[480,480,480,479,479,479,479,479,479,479,479,479,479,479,479,479,479,479,479,479,479,479,479,479,479,479,479,479,479,479,479,479,479,479,479,473,467,460,451,441,414,401,391,377,366,342,326,308,287,264,241,157,113,55,29,4,4,4,4,4,4,4,4,4,4,4,4,4,4,4,0,5],"timestamp_mouse":[4,36,44,65,84,104,124,145,164,184,204,224,245,265,284,304,324,344,365,386,405,425,444,464,485,504,525,544,564,584,605,625,645,665,685,705,725,745,765,784,806,824,845,864,885,905,924,945,964,984,1006,1025,1044,1064,1084,1105,1125,1144,1165,1185,1205,1225,1245,1265,1284,1305,1325,1344,1364,1384,1404,1425],"xSR":741.5,"ySR":458.25,"xT1":424.9,"yT1":0,"xT2":1058.1,"yT2":0,"toosoon":0,"cond_shown":"equaldotsize","ratio_trial":500,"smaller_num":"5","larger_num":"10","correct_side":1,"subjID":"DianaCatalinaAgudeloMendez12","gender":"1","age":"9","school":"4"},{"start_time":1552074499495,"click_time":1552074500824,"finger_time":1552074500564,"fix_duration":250,"trial":19,"RT":1069,"MT":260,"sideResp":2,"stimulus":"img/250/randomdotsizeEA/R/4_Ratio_250_L_3_R_12.png","xmouse":[782,782,782,782,782,782,782,782,782,782,782,782,782,782,782,782,782,782,782,782,782,782,782,782,782,782,782,782,782,782,782,782,782,782,782,782,782,782,782,782,782,782,782,782,782,782,784,787,789,792,800,807,808,816,822,829,852,868,888,909,933,979,1004,1031,1047,1081,1097],"ymouse":[511,511,511,511,511,511,511,511,511,511,511,511,511,511,511,511,511,511,511,511,511,511,511,511,511,511,511,511,511,511,511,511,511,511,511,511,511,511,511,511,511,511,511,511,511,511,508,501,492,484,471,461,460,447,437,426,394,375,352,329,300,242,213,181,159,105,83],"timestamp_mouse":[14,40,48,68,88,109,130,148,168,188,208,229,248,268,289,309,328,349,369,389,409,428,449,468,489,508,529,549,568,588,609,629,648,669,689,708,728,749,768,788,808,829,849,869,889,909,928,949,969,988,1009,1030,1049,1069,1089,1109,1129,1150,1168,1189,1210,1228,1248,1268,1289,1308,1328],"xSR":741.5,"ySR":458.25,"xT1":424.9,"yT1":0,"xT2":1058.1,"yT2":0,"toosoon":0,"cond_shown":"randomdotsizeEA","ratio_trial":250,"smaller_num":"3","larger_num":"12","correct_side":2,"subjID":"DianaCatalinaAgudeloMendez12","gender":"1","age":"9","school":"4"},{"start_time":1552074502973,"click_time":1552074505123,"finger_time":1552074503823,"fix_duration":807.3355492598472,"trial":20,"RT":850,"MT":1300,"sideResp":2,"stimulus":"img/500/equaldotanddens/R/12_Ratio_500_L_1_R_2.png","xmouse":[801,801,801,801,801,801,801,801,801,801,801,801,801,801,801,801,801,801,801,801,801,801,801,801,801,801,801,801,801,801,801,801,801,801,801,801,801,801,801,804,810,835,849,860,872,886,905,908,910,910,910,910,906,900,893,882,855,841,826,803,791,774,771,771,771,771,771,771,771,771,772,775,778,781,785,789,800,813,818,833,845,863,869,878,890,906,943,956,965,974,980,984,987,989,990,992,993,994,997,1003,1009,1018,1022,1028,1035,1046,1058,1082],"ymouse":[481,481,481,481,481,481,481,481,481,481,481,481,481,481,481,481,481,481,481,481,481,481,481,481,481,481,481,481,481,481,481,481,481,481,481,481,481,481,481,480,476,459,445,430,415,400,372,361,351,342,339,331,312,299,282,264,224,205,185,159,146,130,127,127,127,127,127,127,127,127,127,127,127,127,128,128,128,124,123,115,109,99,95,91,87,86,85,83,81,78,77,77,77,76,75,75,74,74,74,72,70,67,66,64,64,64,64,62],"timestamp_mouse":[10,43,51,71,91,111,131,151,171,191,211,230,250,270,292,311,331,351,370,390,410,430,450,470,491,511,531,551,571,591,611,631,650,670,691,711,730,751,771,790,810,831,850,870,891,910,932,950,971,990,1010,1030,1050,1071,1090,1110,1131,1150,1172,1192,1210,1231,1250,1270,1290,1310,1331,1350,1371,1391,1411,1430,1450,1471,1490,1511,1531,1550,1570,1590,1611,1631,1650,1670,1690,1710,1732,1750,1770,1791,1811,1830,1851,1870,1890,1910,1930,1951,1970,1991,2010,2032,2050,2071,2090,2110,2130,2150],"xSR":741.5,"ySR":458.25,"xT1":424.9,"yT1":0,"xT2":1058.1,"yT2":0,"toosoon":0,"cond_shown":"equaldotanddens","ratio_trial":500,"smaller_num":"1","larger_num":"2","correct_side":2,"subjID":"DianaCatalinaAgudeloMendez12","gender":"1","age":"9","school":"4"},{"start_time":1552074507525,"click_time":1552074508765,"finger_time":1552074508404,"fix_duration":1019.3437042011014,"trial":21,"RT":879,"MT":361,"sideResp":1,"stimulus":"img/500/equaldotsize/L/8_Ratio_500_L_8_R_4.png","xmouse":[810,810,810,810,810,810,810,810,810,810,810,810,810,810,810,810,810,810,810,810,810,810,810,810,810,810,810,810,810,810,810,810,810,810,810,810,810,810,810,810,810,810,810,812,815,815,814,810,805,794,788,779,763,756,709,684,657,630,602,566,551,540,523],"ymouse":[484,484,484,484,484,484,484,484,484,484,484,484,484,484,484,484,484,484,484,484,484,484,484,484,484,484,484,484,484,484,484,484,484,484,484,484,484,484,484,484,484,484,481,469,445,434,422,406,392,358,338,320,286,276,210,180,153,128,107,80,68,57,43],"timestamp_mouse":[1,19,44,58,79,99,119,138,158,180,199,219,238,258,278,299,319,338,358,378,398,418,439,460,479,499,518,539,558,578,598,618,638,659,678,699,719,740,758,779,800,820,839,859,879,898,919,940,959,980,999,1019,1038,1060,1079,1098,1119,1138,1159,1179,1198,1218,1240],"xSR":741.5,"ySR":458.25,"xT1":424.9,"yT1":0,"xT2":1058.1,"yT2":0,"toosoon":0,"cond_shown":"equaldotsize","ratio_trial":500,"smaller_num":"4","larger_num":"8","correct_side":1,"subjID":"DianaCatalinaAgudeloMendez12","gender":"1","age":"9","school":"4"},{"start_time":1552074510538,"click_time":1552074511905,"finger_time":1552074511304,"fix_duration":729.9537681982026,"trial":22,"RT":766,"MT":601,"sideResp":1,"stimulus":"img/500/equaldotsize/L/10_Ratio_500_L_4_R_2.png","xmouse":[823,823,823,823,823,823,823,823,823,823,823,823,823,823,823,823,823,823,823,823,823,823,823,823,823,823,823,823,823,823,823,821,820,814,810,804,799,796,793,793,793,793,794,794,794,794,794,789,781,754,728,709,691,662,645,632,620,609,600,595,589,580,573,561,554,545,539,533,523],"ymouse":[508,508,508,508,508,508,508,508,508,508,508,508,508,508,508,508,508,508,508,508,508,508,508,508,508,508,508,508,508,508,508,508,508,506,504,501,497,488,455,433,404,371,323,273,256,242,231,217,204,179,161,151,140,124,117,111,106,101,99,97,96,93,92,89,87,85,83,81,79],"timestamp_mouse":[19,26,45,67,86,107,127,147,165,186,206,226,247,267,286,306,326,346,366,386,406,427,445,467,487,506,526,546,566,586,606,627,647,666,685,706,725,746,766,786,805,827,847,866,886,905,927,946,967,986,1007,1026,1047,1066,1085,1105,1126,1146,1165,1187,1206,1226,1246,1266,1286,1306,1326,1345,1367],"xSR":741.5,"ySR":458.25,"xT1":424.9,"yT1":0,"xT2":1058.1,"yT2":0,"toosoon":0,"cond_shown":"equaldotsize","ratio_trial":500,"smaller_num":"2","larger_num":"4","correct_side":1,"subjID":"DianaCatalinaAgudeloMendez12","gender":"1","age":"9","school":"4"},{"start_time":1552074514404,"click_time":1552074516464,"finger_time":1552074515623,"fix_duration":1476.1534034414733,"trial":23,"RT":1219,"MT":841,"sideResp":2,"stimulus":"img/500/randomdotsizeEA/R/1_Ratio_500_L_9_R_18.png","xmouse":[777,777,777,777,777,777,777,777,777,777,777,777,777,777,777,777,777,777,777,777,777,777,777,777,777,777,777,777,777,777,777,777,777,777,777,777,777,777,777,777,777,777,777,777,777,777,777,777,777,777,777,777,777,777,777,778,778,780,782,783,783,783,786,788,791,802,809,819,834,844,869,882,894,905,913,921,934,941,947,950,953,961,964,965,968,974,987,992,999,1005,1010,1016,1018,1019,1021,1025,1027,1032,1038,1040,1050,1053,1056,1061],"ymouse":[494,494,494,494,494,494,494,494,494,494,494,494,494,494,494,494,494,494,494,494,494,494,494,494,494,494,494,494,494,494,494,494,494,494,494,494,494,494,494,494,494,494,494,494,494,494,494,494,494,494,494,494,494,494,494,494,494,494,491,487,479,453,439,427,413,385,370,354,327,310,273,254,237,221,205,187,155,143,131,124,116,106,103,102,102,102,102,102,102,102,102,101,100,100,100,99,96,96,93,91,88,85,83,81],"timestamp_mouse":[10,36,41,60,80,100,120,141,161,180,200,221,241,259,280,300,320,341,361,380,400,419,439,459,479,499,520,539,559,579,599,620,639,659,679,701,719,739,759,779,800,820,840,861,881,900,920,939,959,979,999,1020,1039,1059,1079,1100,1120,1140,1160,1180,1200,1219,1239,1259,1279,1301,1319,1339,1359,1380,1400,1419,1440,1461,1480,1499,1519,1539,1560,1579,1599,1619,1640,1660,1681,1701,1721,1740,1759,1779,1800,1820,1840,1859,1880,1900,1919,1940,1959,1980,1999,2021,2039,2060],"xSR":741.5,"ySR":458.25,"xT1":424.9,"yT1":0,"xT2":1058.1,"yT2":0,"toosoon":0,"cond_shown":"randomdotsizeEA","ratio_trial":500,"smaller_num":"9","larger_num":"18","correct_side":2,"subjID":"DianaCatalinaAgudeloMendez12","gender":"1","age":"9","school":"4"},{"start_time":1552074517875,"click_time":1552074519384,"finger_time":1552074518804,"fix_duration":250,"trial":24,"RT":929,"MT":580,"sideResp":1,"stimulus":"img/750/randomdotsizeEA/L/8_Ratio_750_L_4_R_3.png","xmouse":[798,798,798,798,798,798,798,798,798,798,798,798,798,798,798,798,798,798,798,798,798,798,798,798,798,798,798,798,798,798,798,798,798,798,798,798,796,795,795,795,795,795,795,795,795,792,784,777,769,762,753,733,723,711,700,683,660,648,634,621,608,583,574,567,563,561,557,553,550,546,542,534,529,529,527,524],"ymouse":[540,540,540,540,540,540,540,540,540,540,540,540,540,540,540,540,540,540,540,540,540,540,540,540,540,540,540,540,540,540,540,540,540,539,535,530,522,520,518,516,515,510,506,499,485,472,444,426,409,391,371,332,312,294,274,245,205,187,167,148,131,101,92,87,84,84,83,81,80,79,79,78,77,77,77,76],"timestamp_mouse":[13,28,49,68,89,110,128,148,169,188,209,228,249,268,290,309,329,349,368,389,408,429,448,469,489,510,529,548,570,590,609,629,649,669,688,709,729,748,768,789,810,829,849,869,888,909,929,949,969,988,1010,1030,1048,1070,1089,1109,1130,1148,1169,1190,1209,1230,1248,1269,1288,1309,1330,1348,1368,1388,1410,1430,1448,1468,1489,1509],"xSR":741.5,"ySR":458.25,"xT1":424.9,"yT1":0,"xT2":1058.1,"yT2":0,"toosoon":0,"cond_shown":"randomdotsizeEA","ratio_trial":750,"smaller_num":"3","larger_num":"4","correct_side":1,"subjID":"DianaCatalinaAgudeloMendez12","gender":"1","age":"9","school":"4"},{"start_time":1552074522151,"click_time":1552074523605,"finger_time":1552074523004,"fix_duration":344.85384280918487,"trial":25,"RT":853,"MT":601,"sideResp":2,"stimulus":"img/250/equaldotsize/R/12_Ratio_250_L_5_R_20.png","xmouse":[824,824,824,824,824,824,824,824,824,824,824,824,824,824,824,824,824,824,824,824,824,822,821,820,819,819,818,818,817,816,816,816,816,816,816,816,816,816,816,816,815,814,816,823,833,842,853,876,893,904,909,924,941,949,956,964,968,974,980,982,986,989,997,1001,1009,1015,1025,1029,1036,1039,1047,1052,1066],"ymouse":[491,491,491,491,491,491,491,491,491,491,491,491,491,491,491,491,491,491,491,491,491,491,491,490,490,490,490,490,490,490,490,490,490,490,490,490,490,490,490,490,489,486,455,429,397,369,345,303,273,256,246,221,194,182,170,158,150,139,131,129,124,120,116,114,110,106,102,99,94,93,88,84,73],"timestamp_mouse":[13,35,53,72,94,112,133,153,173,194,214,232,253,272,293,312,333,353,373,393,414,433,452,473,493,513,533,553,573,593,612,634,653,673,693,714,734,753,772,793,814,834,853,872,893,913,934,953,973,993,1013,1033,1053,1072,1093,1114,1133,1153,1172,1193,1213,1232,1254,1272,1292,1313,1332,1354,1372,1392,1413,1433,1454],"xSR":741.5,"ySR":458.25,"xT1":424.9,"yT1":0,"xT2":1058.1,"yT2":0,"toosoon":0,"cond_shown":"equaldotsize","ratio_trial":250,"smaller_num":"5","larger_num":"20","correct_side":2,"subjID":"DianaCatalinaAgudeloMendez12","gender":"1","age":"9","school":"4"},{"start_time":1552074525688,"click_time":1552074526863,"finger_time":1552074526484,"fix_duration":922.6689716188829,"trial":26,"RT":796,"MT":379,"sideResp":1,"stimulus":"img/900/equaldotsize/L/4_Ratio_900_L_20_R_18.png","xmouse":[795,795,795,795,795,795,795,795,795,795,795,795,795,795,795,795,795,795,795,795,795,795,795,795,795,795,795,795,795,795,795,795,795,795,795,795,795,795,795,795,794,792,790,786,779,768,762,753,739,725,689,670,647,617,599,567,551,536,523],"ymouse":[495,495,495,495,495,495,495,495,495,495,495,495,495,495,495,495,495,495,495,495,495,495,495,495,495,495,495,495,495,495,495,495,495,495,495,495,489,480,466,451,414,398,381,365,340,310,295,279,259,239,193,165,138,104,84,56,46,38,33],"timestamp_mouse":[16,39,57,76,97,116,136,157,176,196,215,236,255,276,297,316,336,355,375,396,417,436,456,476,496,515,537,556,576,596,616,636,656,676,697,716,737,756,776,796,818,835,856,877,896,916,936,956,977,997,1016,1036,1055,1076,1096,1116,1135,1155,1175],"xSR":741.5,"ySR":458.25,"xT1":424.9,"yT1":0,"xT2":1058.1,"yT2":0,"toosoon":0,"cond_shown":"equaldotsize","ratio_trial":900,"smaller_num":"18","larger_num":"20","correct_side":1,"subjID":"DianaCatalinaAgudeloMendez12","gender":"1","age":"9","school":"4"},{"start_time":1552074529705,"click_time":1552074531604,"finger_time":1552074530923,"fix_duration":1300.3707786318962,"trial":27,"RT":1218,"MT":681,"sideResp":1,"stimulus":"img/500/randomdotsizeEA/L/11_Ratio_500_L_12_R_6.png","xmouse":[802,802,802,802,802,802,802,802,802,802,802,802,802,802,802,802,802,802,802,802,802,802,802,802,802,802,802,802,802,802,802,802,802,802,802,802,802,802,802,802,802,802,802,802,802,802,802,799,798,792,788,787,787,786,786,786,785,785,785,785,785,785,785,785,786,789,790,790,790,789,787,785,782,776,767,749,739,730,718,694,676,671,651,641,623,617,611,605,600,591,572,563,550,536,519],"ymouse":[486,486,486,486,486,486,486,486,486,486,486,486,486,486,486,486,486,486,486,486,486,486,486,486,486,486,486,486,486,486,486,486,486,486,486,486,486,486,486,486,486,486,486,486,486,486,486,485,484,480,475,474,473,472,471,471,470,469,468,463,455,451,427,403,357,335,318,306,296,280,273,264,255,238,224,194,179,165,149,122,103,98,85,79,72,71,69,69,68,66,64,62,60,58,55],"timestamp_mouse":[18,38,59,79,99,120,138,159,180,200,219,238,259,279,299,319,338,358,379,399,420,440,460,479,499,519,539,558,580,599,618,639,659,679,699,720,739,760,779,798,820,839,859,878,899,919,938,960,979,999,1019,1039,1059,1080,1099,1119,1139,1159,1180,1199,1218,1238,1259,1279,1299,1319,1338,1358,1379,1399,1418,1439,1459,1478,1499,1518,1538,1558,1579,1599,1618,1640,1659,1680,1700,1718,1739,1759,1780,1800,1818,1838,1859,1880,1899],"xSR":741.5,"ySR":458.25,"xT1":424.9,"yT1":0,"xT2":1058.1,"yT2":0,"toosoon":0,"cond_shown":"randomdotsizeEA","ratio_trial":500,"smaller_num":"6","larger_num":"12","correct_side":1,"subjID":"DianaCatalinaAgudeloMendez12","gender":"1","age":"9","school":"4"},{"start_time":1552074533560,"click_time":1552074535925,"finger_time":1552074535164,"fix_duration":875.8302633205398,"trial":28,"RT":1604,"MT":761,"sideResp":1,"stimulus":"img/900/randomdotsizeEA/L/8_Ratio_900_L_20_R_18.png","xmouse":[784,784,784,784,784,784,784,784,784,784,784,784,784,784,784,784,784,784,784,784,784,784,784,784,784,784,784,784,784,784,784,784,784,784,784,784,784,784,784,784,784,784,784,784,784,784,784,784,784,784,784,784,784,784,784,784,785,785,785,786,786,786,786,786,786,786,786,786,785,785,785,785,785,784,782,781,779,777,773,771,767,764,761,752,746,741,733,721,715,706,704,695,688,683,677,673,670,666,664,660,650,643,626,619,610,600,590,574,566,558,547,541,532,528,527,527,526,525,524],"ymouse":[522,522,522,522,522,522,522,522,522,522,522,522,522,522,522,522,522,522,522,522,522,522,522,522,522,522,522,522,522,522,522,522,522,522,522,522,522,522,522,522,522,522,522,522,522,522,522,522,522,522,522,522,522,522,522,522,522,522,522,522,522,522,520,519,518,517,515,513,510,509,507,503,503,497,493,487,482,478,468,462,454,447,439,425,415,406,393,368,355,335,328,305,278,265,252,242,232,218,209,199,179,167,144,134,126,118,110,100,96,91,87,84,78,75,74,74,74,74,74],"timestamp_mouse":[13,24,44,64,83,104,124,145,164,184,205,224,243,264,285,303,324,343,364,383,405,425,444,464,485,503,523,544,563,583,605,623,644,665,684,705,724,743,764,783,804,823,845,865,884,905,924,944,964,985,1004,1023,1044,1063,1083,1103,1123,1144,1164,1184,1204,1223,1244,1264,1284,1304,1324,1344,1364,1384,1404,1432,1444,1464,1484,1503,1524,1543,1564,1584,1604,1624,1644,1665,1684,1705,1724,1745,1763,1784,1804,1824,1844,1863,1885,1905,1924,1944,1963,1983,2005,2024,2048,2063,2084,2103,2123,2144,2164,2184,2203,2223,2245,2263,2285,2304,2324,2344,2365],"xSR":741.5,"ySR":458.25,"xT1":424.9,"yT1":0,"xT2":1058.1,"yT2":0,"toosoon":0,"cond_shown":"randomdotsizeEA","ratio_trial":900,"smaller_num":"18","larger_num":"20","correct_side":1,"subjID":"DianaCatalinaAgudeloMendez12","gender":"1","age":"9","school":"4"},{"start_time":1552074537495,"click_time":1552074538844,"finger_time":1552074538504,"fix_duration":349.6539205531073,"trial":29,"RT":1009,"MT":340,"sideResp":2,"stimulus":"img/250/randomdotsizeEA/R/9_Ratio_250_L_3_R_12.png","xmouse":[791,791,791,791,791,791,791,791,791,791,791,791,791,791,791,791,791,791,791,791,791,791,791,791,791,791,791,791,791,791,791,791,791,791,791,791,791,791,791,791,791,791,791,791,791,791,791,793,794,798,809,818,827,843,857,898,924,955,983,1006,1046,1063,1085,1099,1111,1126,1129,1132],"ymouse":[491,491,491,491,491,491,491,491,491,491,491,491,491,491,491,491,491,491,491,491,491,491,491,491,491,491,491,491,491,491,491,491,491,491,491,491,491,491,491,491,491,491,491,491,491,491,491,485,476,464,438,422,408,386,367,314,285,250,221,198,163,149,130,120,112,103,101,99],"timestamp_mouse":[13,39,48,69,88,108,128,150,169,189,208,229,248,270,290,309,328,349,369,388,408,429,448,468,488,508,529,550,570,590,609,628,649,668,688,710,729,749,769,789,809,829,849,869,889,910,930,949,969,988,1009,1029,1049,1068,1089,1109,1128,1149,1169,1188,1210,1229,1248,1268,1289,1310,1329,1349],"xSR":741.5,"ySR":458.25,"xT1":424.9,"yT1":0,"xT2":1058.1,"yT2":0,"toosoon":0,"cond_shown":"randomdotsizeEA","ratio_trial":250,"smaller_num":"3","larger_num":"12","correct_side":2,"subjID":"DianaCatalinaAgudeloMendez12","gender":"1","age":"9","school":"4"},{"start_time":1552074547217,"click_time":1552074549803,"finger_time":1552074549145,"fix_duration":250,"trial":30,"RT":1928,"MT":658,"sideResp":2,"stimulus":"img/900/equaldotsize/L/1_Ratio_900_L_10_R_9.png","xmouse":[755,755,755,755,755,755,755,755,755,755,755,755,755,755,755,755,755,755,755,755,755,755,755,755,755,755,755,755,755,755,755,755,755,755,755,755,755,755,755,755,755,755,755,755,755,755,755,755,755,755,755,755,755,755,755,755,755,755,755,755,755,755,755,755,755,755,755,755,755,755,755,755,755,755,755,755,755,755,755,755,755,755,755,755,755,757,760,764,768,774,777,781,784,788,795,800,813,824,836,845,856,860,864,868,872,886,898,905,911,917,927,931,934,939,950,953,959,965,970,979,992,1002,1012,1019,1028,1033,1038,1045,1053,1060],"ymouse":[529,529,529,529,529,529,529,529,529,529,529,529,529,529,529,529,529,529,529,529,529,529,529,529,529,529,529,529,529,529,529,529,529,529,529,529,529,529,529,529,529,529,529,529,529,529,529,529,529,529,529,529,529,529,529,529,529,529,529,529,529,529,529,529,529,529,529,529,529,529,529,529,529,529,529,529,529,529,529,529,529,529,529,529,529,528,525,520,514,505,500,493,489,483,473,464,446,430,414,397,364,348,333,321,312,293,278,269,261,251,234,225,217,209,193,185,175,160,149,131,121,113,106,102,95,91,89,85,82,79],"timestamp_mouse":[12,38,46,67,87,106,127,148,167,187,206,227,246,267,288,307,328,346,367,386,407,428,447,468,488,507,527,546,567,587,607,626,647,668,687,706,727,748,768,787,808,827,846,868,887,907,927,946,968,986,1008,1026,1047,1067,1087,1107,1127,1148,1167,1187,1206,1226,1248,1266,1287,1308,1327,1347,1367,1386,1408,1426,1446,1468,1487,1508,1526,1546,1567,1587,1606,1628,1646,1667,1688,1708,1727,1747,1767,1787,1808,1827,1846,1867,1886,1907,1928,1948,1967,1987,2008,2027,2048,2067,2087,2107,2128,2146,2166,2188,2208,2228,2246,2267,2288,2306,2326,2347,2368,2387,2406,2427,2447,2467,2487,2506,2528,2547,2567,2586],"xSR":741.5,"ySR":458.25,"xT1":424.9,"yT1":0,"xT2":1058.1,"yT2":0,"toosoon":0,"cond_shown":"equaldotsize","ratio_trial":900,"smaller_num":"9","larger_num":"10","correct_side":1,"subjID":"DianaCatalinaAgudeloMendez12","gender":"1","age":"9","school":"4"},{"start_time":1552074552792,"click_time":1552074554305,"finger_time":1552074553563,"fix_duration":327.00029223292216,"trial":31,"RT":771,"MT":742,"sideResp":1,"stimulus":"img/500/equaldotanddens/L/8_Ratio_500_L_8_R_4.png","xmouse":[780,780,780,780,780,780,780,780,780,780,780,780,780,780,780,780,780,780,780,780,780,780,780,780,780,780,780,780,780,780,780,780,780,780,782,785,786,786,786,786,786,786,786,783,780,773,769,764,757,744,724,715,703,689,676,652,643,640,636,633,623,616,609,600,590,582,578,578,574,569,559,554,550,544,537,517],"ymouse":[513,513,513,513,513,513,513,513,513,513,513,513,513,513,513,513,513,513,513,513,513,513,513,513,513,513,513,513,513,513,513,513,513,513,510,496,475,467,453,432,407,395,382,368,356,327,311,295,279,251,216,202,186,170,156,128,116,108,101,97,91,87,83,78,74,73,72,72,71,70,69,69,68,67,66,64],"timestamp_mouse":[14,37,52,72,93,112,131,152,173,193,212,231,252,273,291,312,332,352,372,391,412,432,453,472,492,512,532,552,573,591,611,632,652,672,692,712,733,752,771,791,812,832,852,873,892,912,932,951,972,992,1014,1031,1052,1072,1093,1112,1132,1152,1173,1193,1212,1231,1253,1271,1292,1311,1331,1352,1372,1392,1413,1431,1452,1473,1492,1512],"xSR":741.5,"ySR":458.25,"xT1":424.9,"yT1":0,"xT2":1058.1,"yT2":0,"toosoon":0,"cond_shown":"equaldotanddens","ratio_trial":500,"smaller_num":"4","larger_num":"8","correct_side":1,"subjID":"DianaCatalinaAgudeloMendez12","gender":"1","age":"9","school":"4"},{"start_time":1552074556663,"click_time":1552074558964,"finger_time":1552074557963,"fix_duration":1078.4959639726997,"trial":32,"RT":1300,"MT":1001,"sideResp":1,"stimulus":"img/500/randomdotsizeEA/L/4_Ratio_500_L_18_R_9.png","xmouse":[778,778,778,778,778,778,778,778,778,778,778,778,778,778,778,778,778,778,778,778,778,778,778,778,778,778,778,778,778,778,778,778,778,778,778,778,778,778,778,778,778,778,778,778,778,778,779,779,780,780,781,781,782,783,785,787,790,795,797,798,800,802,804,804,804,804,804,804,804,804,806,809,810,810,809,804,800,796,788,784,780,776,769,752,741,734,730,725,724,724,724,724,724,724,724,723,723,723,722,722,720,718,713,708,701,684,670,635,619,603,589,574,552,540,532,521],"ymouse":[482,482,482,482,482,482,482,482,482,482,482,482,482,482,482,482,482,482,482,482,482,482,482,482,482,482,482,482,482,482,482,482,482,482,482,482,482,482,482,482,482,482,482,482,482,482,481,480,478,478,477,477,476,476,476,476,476,474,474,473,473,472,470,464,461,456,449,435,425,416,403,391,362,348,333,312,299,285,256,243,229,212,194,154,127,112,101,92,91,91,90,90,85,81,78,73,70,67,61,57,55,52,49,48,46,41,37,28,23,19,16,13,9,7,6,4],"timestamp_mouse":[11,22,44,61,80,102,122,141,160,180,201,220,241,261,281,300,321,341,360,382,401,420,440,461,481,501,521,541,562,582,602,622,641,662,681,701,720,740,761,781,802,822,841,862,881,901,921,941,962,981,1000,1020,1041,1061,1081,1101,1121,1141,1162,1182,1201,1221,1241,1262,1281,1300,1322,1342,1360,1380,1400,1420,1442,1461,1481,1502,1520,1541,1562,1580,1602,1621,1640,1661,1682,1701,1720,1742,1760,1780,1801,1821,1843,1860,1881,1902,1921,1940,1961,1981,2001,2021,2042,2060,2080,2101,2120,2141,2160,2181,2202,2222,2242,2260,2280,2301],"xSR":741.5,"ySR":458.25,"xT1":424.9,"yT1":0,"xT2":1058.1,"yT2":0,"toosoon":0,"cond_shown":"randomdotsizeEA","ratio_trial":500,"smaller_num":"9","larger_num":"18","correct_side":1,"subjID":"DianaCatalinaAgudeloMendez12","gender":"1","age":"9","school":"4"},{"start_time":1552074560696,"click_time":1552074562585,"finger_time":1552074561764,"fix_duration":250,"trial":33,"RT":1068,"MT":821,"sideResp":2,"stimulus":"img/900/randomdotsizeEA/L/4_Ratio_900_L_20_R_18.png","xmouse":[786,786,786,786,786,786,786,786,786,786,786,786,786,786,786,786,786,786,786,786,786,786,786,786,786,786,786,786,786,786,786,786,786,786,786,786,786,786,786,786,786,786,786,786,786,786,786,787,788,790,793,799,801,806,809,818,825,835,843,849,854,862,864,869,873,880,884,887,891,895,908,914,918,922,926,935,941,944,946,948,956,964,976,994,1002,1015,1022,1027,1031,1036,1046,1047,1054,1055,1062],"ymouse":[539,539,539,539,539,539,539,539,539,539,539,539,539,539,539,539,539,539,539,539,539,539,539,539,539,539,539,539,539,539,539,539,539,539,539,539,539,539,539,539,539,539,539,539,539,539,539,536,535,528,519,494,479,452,429,380,356,333,309,291,275,245,235,218,208,191,186,182,177,172,157,152,145,137,128,110,100,95,91,89,86,86,86,87,87,87,87,87,87,87,87,87,87,87,86],"timestamp_mouse":[13,40,48,68,88,108,128,148,169,189,208,229,248,269,289,308,328,347,368,387,407,429,448,468,488,508,527,549,568,589,607,628,649,669,688,708,727,747,768,789,807,828,848,867,888,907,929,947,968,988,1008,1028,1047,1068,1087,1108,1127,1148,1169,1188,1208,1228,1248,1269,1288,1309,1327,1348,1368,1388,1408,1427,1447,1468,1487,1507,1528,1547,1568,1587,1609,1627,1648,1668,1689,1708,1727,1748,1768,1788,1809,1827,1847,1867,1888],"xSR":741.5,"ySR":458.25,"xT1":424.9,"yT1":0,"xT2":1058.1,"yT2":0,"toosoon":0,"cond_shown":"randomdotsizeEA","ratio_trial":900,"smaller_num":"18","larger_num":"20","correct_side":1,"subjID":"DianaCatalinaAgudeloMendez12","gender":"1","age":"9","school":"4"},{"start_time":1552074564855,"click_time":1552074566423,"finger_time":1552074565804,"fix_duration":1249.5813304577182,"trial":34,"RT":949,"MT":619,"sideResp":1,"stimulus":"img/500/randomdotsizeEA/L/11_Ratio_500_L_12_R_6.png","xmouse":[793,793,793,793,793,793,793,793,793,793,793,793,793,793,793,793,793,793,793,793,793,793,793,793,793,793,793,793,793,793,793,793,793,793,793,793,793,793,793,793,793,793,793,794,795,796,796,796,788,782,775,767,746,734,720,700,687,664,655,645,635,625,617,596,581,574,568,565,554,545,535,530,526,526,526,526,526,525,523],"ymouse":[517,514,514,503,502,500,498,496,496,495,495,495,495,495,495,495,495,495,495,495,495,495,495,495,495,495,495,495,495,495,495,495,495,495,495,495,495,495,495,495,495,495,495,492,490,478,467,456,427,405,382,353,292,263,239,208,192,163,149,135,122,111,103,94,90,87,86,86,85,83,82,82,81,81,81,81,81,81,80],"timestamp_mouse":[9,42,48,69,88,109,129,149,169,189,210,229,249,269,289,309,328,349,370,390,409,430,449,469,488,509,529,548,570,590,608,628,648,670,689,710,729,748,770,789,809,828,850,869,890,909,930,949,970,989,1010,1029,1050,1069,1090,1110,1129,1150,1168,1188,1210,1229,1248,1268,1289,1309,1330,1349,1369,1390,1410,1429,1449,1470,1490,1509,1529,1550,1568],"xSR":741.5,"ySR":458.25,"xT1":424.9,"yT1":0,"xT2":1058.1,"yT2":0,"toosoon":0,"cond_shown":"randomdotsizeEA","ratio_trial":500,"smaller_num":"6","larger_num":"12","correct_side":1,"subjID":"DianaCatalinaAgudeloMendez12","gender":"1","age":"9","school":"4"},{"start_time":1552074567896,"click_time":1552074569404,"finger_time":1552074568804,"fix_duration":691.4220764738591,"trial":35,"RT":908,"MT":600,"sideResp":1,"stimulus":"img/500/equaldotanddens/L/11_Ratio_500_L_12_R_6.png","xmouse":[788,788,788,788,788,788,788,788,788,788,788,788,788,788,788,788,788,788,788,788,788,788,788,788,788,788,788,788,788,788,788,788,788,788,788,788,788,788,788,790,792,793,793,794,798,804,805,807,808,809,809,809,806,801,790,768,753,738,724,708,679,667,654,647,638,630,612,605,597,588,572,562,545,536,527,518],"ymouse":[514,514,514,514,514,514,514,514,514,514,514,514,514,514,514,514,514,514,514,514,514,514,514,514,514,514,514,514,514,514,514,514,514,514,514,514,514,514,514,510,498,490,482,470,460,445,436,429,424,417,402,391,377,363,338,304,288,272,255,240,215,206,195,189,185,179,167,162,156,149,135,128,115,107,99,88],"timestamp_mouse":[10,38,48,67,87,107,127,147,168,189,208,228,248,268,289,309,329,348,369,388,407,429,449,468,487,507,529,549,568,587,608,628,649,668,687,707,728,747,769,788,808,829,848,868,887,908,928,948,967,988,1008,1027,1048,1069,1089,1108,1127,1149,1168,1188,1209,1227,1247,1268,1288,1308,1327,1347,1368,1387,1407,1427,1449,1468,1489,1508],"xSR":741.5,"ySR":458.25,"xT1":424.9,"yT1":0,"xT2":1058.1,"yT2":0,"toosoon":0,"cond_shown":"equaldotanddens","ratio_trial":500,"smaller_num":"6","larger_num":"12","correct_side":1,"subjID":"DianaCatalinaAgudeloMendez12","gender":"1","age":"9","school":"4"},{"start_time":1552074571823,"click_time":1552074573384,"finger_time":1552074572904,"fix_duration":1437.132478244186,"trial":36,"RT":1081,"MT":480,"sideResp":1,"stimulus":"img/500/equaldotanddens/L/10_Ratio_500_L_4_R_2.png","xmouse":[825,825,825,825,825,825,825,825,825,825,825,825,825,825,825,825,825,825,825,825,825,825,825,825,825,825,825,825,825,825,825,825,825,825,825,825,825,825,825,825,825,825,825,825,825,825,825,825,825,824,822,821,818,814,803,797,790,781,768,751,740,730,719,709,689,674,668,652,641,632,616,609,604,598,589,559,543,527,524],"ymouse":[524,524,524,524,524,524,524,524,524,524,524,524,524,524,524,524,524,524,524,524,524,524,524,524,524,524,524,524,524,524,524,524,524,524,524,524,524,524,524,524,524,524,524,524,524,524,524,524,524,523,513,497,478,459,420,405,389,373,353,330,318,305,294,279,248,223,213,191,177,163,140,131,123,118,114,106,103,99,99],"timestamp_mouse":[10,37,42,62,81,101,121,140,161,182,202,221,241,261,281,301,320,341,361,382,401,421,441,461,481,501,521,542,561,581,600,620,641,660,681,701,721,742,760,781,802,822,842,861,881,901,920,942,962,981,1002,1021,1042,1062,1081,1101,1121,1142,1161,1181,1201,1222,1241,1261,1282,1300,1321,1342,1361,1382,1400,1420,1441,1462,1481,1502,1521,1540,1561],"xSR":741.5,"ySR":458.25,"xT1":424.9,"yT1":0,"xT2":1058.1,"yT2":0,"toosoon":0,"cond_shown":"equaldotanddens","ratio_trial":500,"smaller_num":"2","larger_num":"4","correct_side":1,"subjID":"DianaCatalinaAgudeloMendez12","gender":"1","age":"9","school":"4"},{"start_time":1552074574873,"click_time":1552074576265,"finger_time":1552074575684,"fix_duration":366.25648878987903,"trial":37,"RT":811,"MT":581,"sideResp":1,"stimulus":"img/250/equaldotanddens/L/15_Ratio_250_L_12_R_3.png","xmouse":[798,798,798,798,798,798,798,798,798,798,798,798,798,798,798,798,798,798,798,798,798,798,798,798,798,798,798,798,798,798,798,798,798,798,798,798,798,798,800,804,807,809,809,809,809,809,808,804,802,798,792,786,772,762,745,736,727,710,703,693,683,651,623,607,597,576,552,540,529,516],"ymouse":[482,482,482,482,482,482,482,482,482,482,482,482,482,482,482,482,482,482,482,482,482,482,482,482,482,482,482,482,482,482,482,482,482,482,482,482,482,483,476,465,451,417,400,383,358,345,322,308,296,282,267,247,214,198,177,167,159,146,140,135,130,119,112,107,106,101,97,96,94,92],"timestamp_mouse":[12,36,50,70,91,112,130,151,171,190,210,231,250,272,291,311,331,352,371,390,411,431,452,470,490,511,531,551,571,591,612,631,650,671,691,711,730,751,771,791,811,831,850,870,891,910,931,950,971,992,1010,1032,1052,1072,1091,1110,1131,1151,1172,1191,1210,1231,1250,1271,1290,1311,1331,1350,1371,1392],"xSR":741.5,"ySR":458.25,"xT1":424.9,"yT1":0,"xT2":1058.1,"yT2":0,"toosoon":0,"cond_shown":"equaldotanddens","ratio_trial":250,"smaller_num":"3","larger_num":"12","correct_side":1,"subjID":"DianaCatalinaAgudeloMendez12","gender":"1","age":"9","school":"4"},{"start_time":1552074578492,"click_time":1552074579984,"finger_time":1552074579344,"fix_duration":985.6518013050564,"trial":38,"RT":852,"MT":640,"sideResp":1,"stimulus":"img/500/randomdotsizeEA/L/10_Ratio_500_L_4_R_2.png","xmouse":[784,784,784,784,784,784,784,784,784,784,784,784,784,784,784,784,784,784,784,784,784,784,784,784,784,784,784,784,784,784,784,784,784,784,784,784,784,784,788,788,800,812,826,843,849,854,855,857,858,858,858,858,858,855,848,835,829,822,814,803,789,748,739,723,700,688,658,644,632,623,597,580,565,539,524],"ymouse":[496,496,496,496,496,496,496,496,496,496,496,496,496,496,496,496,496,496,496,496,496,496,496,496,496,496,496,496,496,496,496,496,496,496,496,496,496,496,491,488,471,461,451,431,415,390,380,370,359,350,324,311,294,266,244,205,188,173,161,149,140,122,119,112,106,103,94,90,88,85,76,69,63,51,46],"timestamp_mouse":[13,46,52,71,92,111,132,152,172,193,212,232,251,271,291,312,332,352,371,391,411,432,451,471,491,511,531,552,573,592,611,633,652,672,693,712,732,752,771,793,812,831,852,871,892,913,931,951,972,993,1012,1033,1053,1071,1091,1112,1131,1152,1173,1192,1212,1233,1252,1273,1293,1312,1332,1353,1371,1392,1412,1432,1451,1471,1491],"xSR":741.5,"ySR":458.25,"xT1":424.9,"yT1":0,"xT2":1058.1,"yT2":0,"toosoon":0,"cond_shown":"randomdotsizeEA","ratio_trial":500,"smaller_num":"2","larger_num":"4","correct_side":1,"subjID":"DianaCatalinaAgudeloMendez12","gender":"1","age":"9","school":"4"},{"start_time":1552074581396,"click_time":1552074582704,"finger_time":1552074582184,"fix_duration":250,"trial":39,"RT":788,"MT":520,"sideResp":1,"stimulus":"img/250/equaldotsize/L/1_Ratio_250_L_8_R_2.png","xmouse":[802,802,802,802,802,802,802,802,802,802,802,802,802,802,802,802,802,802,802,802,802,802,802,802,802,802,802,802,802,802,802,802,802,802,802,802,804,804,804,804,804,802,800,796,790,762,743,726,709,700,690,673,665,659,653,643,636,632,619,607,578,565,552,541,528,497],"ymouse":[474,474,474,474,474,474,474,474,474,474,474,474,474,474,474,474,474,474,474,474,474,474,474,474,474,474,474,474,474,474,474,474,474,474,474,474,471,468,460,455,449,431,422,411,394,352,328,306,272,250,229,198,185,173,164,147,137,132,122,116,102,97,91,86,82,72],"timestamp_mouse":[12,38,47,67,88,108,128,148,169,189,208,227,247,267,289,308,329,348,367,388,409,428,449,467,487,509,527,547,569,589,608,627,648,667,689,708,728,748,768,788,807,828,848,867,887,908,927,948,969,988,1008,1029,1049,1069,1088,1109,1127,1149,1168,1188,1209,1228,1249,1267,1287,1308],"xSR":741.5,"ySR":458.25,"xT1":424.9,"yT1":0,"xT2":1058.1,"yT2":0,"toosoon":0,"cond_shown":"equaldotsize","ratio_trial":250,"smaller_num":"2","larger_num":"8","correct_side":1,"subjID":"DianaCatalinaAgudeloMendez12","gender":"1","age":"9","school":"4"},{"start_time":1552074583876,"click_time":1552074585665,"finger_time":1552074584964,"fix_duration":309.0849955346827,"trial":40,"RT":1088,"MT":701,"sideResp":2,"stimulus":"img/750/equaldotsize/R/5_Ratio_750_L_15_R_20.png","xmouse":[799,799,799,799,799,799,799,799,799,799,799,799,799,799,799,799,799,799,799,799,799,799,799,799,799,799,799,799,799,799,799,799,799,799,799,799,799,799,799,799,799,799,799,799,799,799,799,799,799,800,807,814,829,861,882,937,963,988,1009,1026,1051,1057,1064,1069,1071,1074,1074,1074,1072,1070,1067,1067,1067,1067,1067,1069,1075,1078,1081,1086,1094,1097,1098,1100,1101,1106,1107,1109,1112],"ymouse":[529,529,529,529,529,529,529,529,529,529,529,529,529,529,529,529,529,529,529,529,529,529,529,529,529,529,529,529,529,529,529,529,529,529,529,529,529,529,529,529,529,529,529,529,529,529,529,529,529,529,525,520,511,497,486,457,441,425,408,389,352,335,318,291,273,254,225,214,204,197,186,183,181,178,175,172,163,158,155,149,141,138,136,132,130,121,116,104,85],"timestamp_mouse":[19,49,68,89,107,127,148,167,187,208,228,247,269,287,307,329,347,369,387,409,427,448,469,487,507,528,548,567,588,607,628,648,667,687,708,728,749,768,788,808,827,848,867,887,909,928,949,968,988,1008,1028,1048,1068,1088,1108,1128,1148,1168,1189,1207,1228,1247,1268,1287,1308,1327,1348,1367,1387,1409,1428,1447,1467,1487,1507,1527,1548,1568,1589,1608,1628,1647,1668,1688,1709,1728,1747,1768,1788],"xSR":741.5,"ySR":458.25,"xT1":424.9,"yT1":0,"xT2":1058.1,"yT2":0,"toosoon":0,"cond_shown":"equaldotsize","ratio_trial":750,"smaller_num":"15","larger_num":"20","correct_side":2,"subjID":"DianaCatalinaAgudeloMendez12","gender":"1","age":"9","school":"4"},{"start_time":1552074587425,"click_time":1552074588843,"finger_time":1552074588245,"fix_duration":919.4397304910917,"trial":41,"RT":820,"MT":598,"sideResp":1,"stimulus":"img/250/equaldotsize/L/1_Ratio_250_L_8_R_2.png","xmouse":[809,809,809,809,809,809,809,809,809,809,809,809,809,809,809,809,809,809,809,809,809,809,809,809,809,809,809,809,809,809,809,809,809,809,809,809,812,818,822,831,838,842,844,844,841,835,826,820,795,777,756,734,707,660,643,625,603,588,562,553,544,538,524,524,524,524,524,524,524,524,454],"ymouse":[527,527,527,527,527,527,527,527,527,527,527,527,527,527,527,527,527,527,527,527,527,527,527,527,527,527,527,527,527,527,527,527,527,527,527,527,524,516,502,466,445,424,404,365,347,328,299,281,234,209,185,164,142,99,82,65,46,33,14,10,5,4,0,0,0,0,0,0,0,0,4],"timestamp_mouse":[19,43,60,79,100,118,138,159,178,199,220,238,258,279,298,319,340,359,379,399,419,438,459,479,498,519,538,558,578,599,619,639,659,679,698,719,739,758,779,800,820,840,860,879,899,919,939,959,980,998,1019,1039,1059,1079,1099,1119,1139,1160,1179,1198,1219,1239,1260,1280,1299,1320,1340,1359,1378,1398,1418],"xSR":741.5,"ySR":458.25,"xT1":424.9,"yT1":0,"xT2":1058.1,"yT2":0,"toosoon":0,"cond_shown":"equaldotsize","ratio_trial":250,"smaller_num":"2","larger_num":"8","correct_side":1,"subjID":"DianaCatalinaAgudeloMendez12","gender":"1","age":"9","school":"4"},{"start_time":1552074591491,"click_time":1552074592823,"finger_time":1552074592124,"fix_duration":1446.8014902117,"trial":42,"RT":633,"MT":699,"sideResp":2,"stimulus":"img/250/equaldotanddens/R/12_Ratio_250_L_5_R_20.png","xmouse":[772,773,774,776,777,778,779,779,779,779,779,779,779,779,779,779,779,779,779,779,779,779,779,779,779,779,779,779,779,779,779,780,782,785,790,799,819,835,855,880,909,974,1000,1029,1040,1045,1045,1045,1045,1045,1045,1045,1045,1045,1045,1045,1045,1045,1045,1045,1045,1045,1045,1045,1045,1122,1120],"ymouse":[462,461,461,461,460,459,459,459,459,459,459,459,459,459,459,459,459,459,459,459,459,459,459,459,459,459,459,459,459,459,459,458,456,451,444,431,394,368,329,282,234,145,102,43,13,1,1,1,1,1,1,1,1,1,1,1,1,1,1,1,1,1,1,1,1,0,5],"timestamp_mouse":[22,33,53,72,94,112,134,152,173,193,213,232,253,273,292,313,334,353,372,392,413,434,453,472,493,513,532,554,574,592,612,633,654,674,694,713,732,752,773,793,814,833,854,872,892,913,932,952,973,992,1014,1032,1053,1072,1093,1112,1133,1154,1173,1193,1213,1232,1253,1273,1293,1313,1332],"xSR":741.5,"ySR":458.25,"xT1":424.9,"yT1":0,"xT2":1058.1,"yT2":0,"toosoon":0,"cond_shown":"equaldotanddens","ratio_trial":250,"smaller_num":"5","larger_num":"20","correct_side":2,"subjID":"DianaCatalinaAgudeloMendez12","gender":"1","age":"9","school":"4"},{"start_time":1552074594997,"click_time":1552074596544,"finger_time":1552074595964,"fix_duration":690.7137258991398,"trial":43,"RT":967,"MT":580,"sideResp":2,"stimulus":"img/500/randomdotsizeEA/R/14_Ratio_500_L_5_R_10.png","xmouse":[824,824,824,824,824,824,824,824,824,824,824,824,824,824,824,824,824,824,824,824,824,824,824,824,824,824,824,824,824,824,824,824,824,824,824,824,824,824,824,824,824,824,824,824,824,824,828,831,843,852,869,880,889,896,905,911,928,933,941,946,957,963,968,971,974,989,1010,1017,1030,1053,1074,1108,1121,1129,1131,1134,1134,1135],"ymouse":[489,489,489,489,489,489,489,489,489,489,489,489,489,489,489,489,489,489,489,489,489,489,489,489,489,489,489,489,489,489,489,489,489,489,489,489,489,489,489,489,489,489,489,489,489,489,486,484,475,468,450,438,421,404,380,356,316,304,286,273,234,215,196,177,160,136,125,122,117,112,112,112,112,111,110,105,100,98],"timestamp_mouse":[10,26,46,70,88,106,127,146,168,187,207,227,247,267,287,306,328,347,367,388,406,426,446,466,488,506,527,546,566,586,608,626,646,666,686,707,727,747,767,787,807,828,847,868,887,907,926,947,967,986,1008,1027,1048,1068,1087,1107,1126,1148,1166,1187,1208,1226,1246,1268,1287,1307,1326,1348,1368,1388,1407,1428,1448,1468,1487,1508,1526,1547],"xSR":741.5,"ySR":458.25,"xT1":424.9,"yT1":0,"xT2":1058.1,"yT2":0,"toosoon":0,"cond_shown":"randomdotsizeEA","ratio_trial":500,"smaller_num":"5","larger_num":"10","correct_side":2,"subjID":"DianaCatalinaAgudeloMendez12","gender":"1","age":"9","school":"4"},{"start_time":1552074599216,"click_time":1552074601203,"finger_time":1552074600143,"fix_duration":969.4183141495428,"trial":44,"RT":927,"MT":1060,"sideResp":2,"stimulus":"img/500/equaldotanddens/R/14_Ratio_500_L_5_R_10.png","xmouse":[777,777,777,777,777,777,777,777,777,777,777,777,777,777,777,777,777,777,777,777,777,777,777,777,777,777,777,777,777,777,777,777,777,778,778,779,780,785,790,793,797,800,803,809,817,838,849,871,885,913,927,943,958,972,996,1004,1012,1016,1017,1019,1021,1022,1024,1025,1027,1027,1029,1032,1035,1046,1053,1061,1066,1070,1072,1072,1072,1072,1074,1077,1077,1077,1077,1077,1077,1077,1077,1077,1077,1080,1082,1083,1084,1086,1086,1086,1088,1091,1092,1101],"ymouse":[517,517,517,517,517,517,517,517,517,517,517,517,517,517,517,517,517,517,517,517,517,517,517,517,517,517,517,517,517,517,517,517,517,517,517,517,517,517,518,518,519,519,519,517,511,493,480,455,438,404,384,360,335,310,270,255,247,243,243,243,243,243,241,240,234,231,226,218,211,189,170,154,140,130,126,126,126,125,125,126,126,126,126,126,126,126,126,126,126,125,124,123,122,121,120,120,118,114,111,89],"timestamp_mouse":[14,38,47,67,88,109,129,147,167,188,208,227,247,267,288,307,328,348,367,388,409,427,448,467,488,508,528,549,568,588,607,627,648,667,689,708,728,748,768,787,808,827,847,868,888,909,927,947,968,988,1007,1028,1047,1069,1088,1108,1127,1149,1168,1188,1208,1227,1247,1267,1288,1309,1329,1348,1368,1388,1408,1427,1447,1467,1488,1508,1527,1547,1568,1589,1608,1627,1647,1668,1688,1709,1729,1748,1769,1788,1808,1829,1849,1868,1888,1907,1928,1947,1968,1987],"xSR":741.5,"ySR":458.25,"xT1":424.9,"yT1":0,"xT2":1058.1,"yT2":0,"toosoon":0,"cond_shown":"equaldotanddens","ratio_trial":500,"smaller_num":"5","larger_num":"10","correct_side":2,"subjID":"DianaCatalinaAgudeloMendez12","gender":"1","age":"9","school":"4"},{"start_time":1552074603949,"click_time":1552074607044,"finger_time":1552074604904,"fix_duration":1441.8719083960916,"trial":45,"RT":955,"MT":2140,"sideResp":2,"stimulus":"img/750/randomdotsizeEA/L/14_Ratio_750_L_8_R_6.png","xmouse":[793,793,793,793,793,793,793,793,793,793,793,793,793,793,793,793,793,793,793,793,793,793,793,793,793,793,793,793,793,793,793,793,793,793,793,793,793,793,793,793,793,792,792,792,792,792,791,788,785,783,779,771,765,750,742,733,723,707,698,690,680,664,645,638,633,629,627,625,625,625,625,625,625,628,629,631,633,637,642,644,653,659,664,674,678,685,695,719,730,741,752,757,761,761,764,769,772,782,789,793,800,807,827,834,838,841,843,845,850,854,861,867,883,889,895,902,912,927,929,930,930,930,930,931,932,932,932,937,941,946,952,956,967,975,984,991,997,1003,1015,1019,1020,1022,1025,1026,1028,1029,1031,1036,1037,1039,1041,1045,1054,1057,1061],"ymouse":[519,519,519,519,519,519,519,519,519,519,519,519,519,519,519,519,519,519,519,519,519,519,519,519,519,519,519,519,519,519,519,519,519,519,519,519,519,519,519,519,519,518,516,506,499,491,481,452,434,421,404,380,366,343,332,322,312,290,278,267,255,239,218,210,204,200,199,199,199,199,199,199,199,198,197,196,195,189,181,178,167,158,154,143,141,141,141,141,141,141,141,141,140,138,131,124,118,96,85,81,75,68,63,61,60,59,58,58,57,57,57,57,57,57,57,57,57,57,57,57,57,57,57,57,57,57,57,57,57,57,58,58,59,60,61,63,64,64,66,66,66,66,67,67,67,67,67,68,68,68,69,69,71,71,71],"timestamp_mouse":[19,44,54,76,94,114,134,155,176,194,216,236,255,274,294,314,335,355,376,394,414,435,455,474,496,514,534,554,575,595,615,634,655,674,696,714,735,755,774,795,814,835,854,875,895,916,936,955,974,994,1015,1035,1055,1074,1094,1114,1136,1155,1175,1195,1214,1235,1256,1274,1295,1316,1336,1355,1374,1395,1415,1434,1455,1475,1495,1516,1535,1556,1574,1596,1615,1635,1655,1674,1694,1715,1734,1754,1774,1794,1814,1834,1855,1874,1895,1914,1936,1956,1976,1994,2015,2034,2054,2074,2094,2115,2135,2155,2175,2195,2216,2236,2255,2274,2294,2315,2334,2355,2374,2395,2414,2434,2455,2474,2495,2515,2535,2556,2574,2595,2615,2635,2655,2676,2695,2716,2734,2756,2775,2794,2815,2835,2856,2875,2894,2914,2935,2955,2974,2994,3014,3035,3054,3074,3094],"xSR":741.5,"ySR":458.25,"xT1":424.9,"yT1":0,"xT2":1058.1,"yT2":0,"toosoon":0,"cond_shown":"randomdotsizeEA","ratio_trial":750,"smaller_num":"6","larger_num":"8","correct_side":1,"subjID":"DianaCatalinaAgudeloMendez12","gender":"1","age":"9","school":"4"},{"start_time":1552074610676,"click_time":1552074612165,"finger_time":1552074611683,"fix_duration":250,"trial":46,"RT":1007,"MT":482,"sideResp":1,"stimulus":"img/750/equaldotanddens/L/14_Ratio_750_L_8_R_6.png","xmouse":[831,831,831,831,831,831,831,831,831,831,831,831,831,831,831,831,831,831,831,831,831,831,831,831,831,831,831,831,831,831,831,831,831,831,831,831,831,831,831,831,831,831,831,831,831,831,831,832,829,824,818,810,797,787,781,775,770,762,757,753,748,740,731,729,720,711,689,671,650,627,571,560,540,533,512],"ymouse":[477,477,477,477,477,477,477,477,477,477,477,477,477,477,477,477,477,477,477,477,477,477,477,477,477,477,477,477,477,477,477,477,477,477,477,477,477,477,477,477,477,477,477,477,477,477,477,475,470,463,454,443,425,411,399,387,375,353,340,326,311,282,259,252,232,216,184,169,155,141,115,111,99,95,85],"timestamp_mouse":[12,27,48,68,89,108,128,148,167,188,207,227,248,267,287,307,328,347,368,387,407,427,448,467,488,508,528,548,567,589,609,628,649,669,688,708,727,749,769,789,808,828,848,868,889,909,928,948,969,988,1007,1028,1047,1067,1088,1107,1128,1147,1167,1188,1208,1229,1248,1268,1288,1309,1329,1347,1369,1388,1415,1429,1447,1469,1489],"xSR":741.5,"ySR":458.25,"xT1":424.9,"yT1":0,"xT2":1058.1,"yT2":0,"toosoon":0,"cond_shown":"equaldotanddens","ratio_trial":750,"smaller_num":"6","larger_num":"8","correct_side":1,"subjID":"DianaCatalinaAgudeloMendez12","gender":"1","age":"9","school":"4"},{"start_time":1552074614760,"click_time":1552074616285,"finger_time":1552074615704,"fix_duration":274.7162581251229,"trial":47,"RT":944,"MT":581,"sideResp":2,"stimulus":"img/250/equaldotanddens/R/8_Ratio_250_L_1_R_4.png","xmouse":[751,751,751,751,751,751,751,751,751,751,751,751,751,751,751,751,752,752,752,752,753,753,753,753,753,753,753,753,753,753,753,753,753,753,753,753,753,753,753,753,753,753,754,759,769,783,800,841,877,891,924,979,1054,1086,1109,1128,1139,1155,1159,1162,1169,1176,1188,1191,1193,1193,1193,1193,1190,1185,1178,1174,1169,1168,1165,1161,1156],"ymouse":[532,532,532,532,532,532,532,532,532,532,532,532,532,532,532,532,532,532,532,532,533,533,533,533,533,533,533,533,533,533,533,533,533,533,533,533,533,533,533,533,533,533,533,529,518,503,488,457,431,421,398,360,316,297,281,266,255,231,222,213,180,141,86,61,46,35,32,31,30,30,29,28,28,28,28,28,30],"timestamp_mouse":[12,24,44,65,84,103,123,144,164,184,205,224,244,263,283,304,323,343,364,385,404,425,444,465,485,504,523,543,564,584,603,624,644,665,685,704,725,744,764,783,803,823,844,863,883,904,923,944,963,984,1004,1024,1043,1063,1085,1104,1124,1144,1163,1184,1205,1224,1243,1263,1285,1303,1323,1344,1364,1385,1404,1425,1444,1464,1483,1505,1525],"xSR":741.5,"ySR":458.25,"xT1":424.9,"yT1":0,"xT2":1058.1,"yT2":0,"toosoon":0,"cond_shown":"equaldotanddens","ratio_trial":250,"smaller_num":"1","larger_num":"4","correct_side":2,"subjID":"DianaCatalinaAgudeloMendez12","gender":"1","age":"9","school":"4"},{"start_time":1552074619061,"click_time":1552074621005,"finger_time":1552074619923,"fix_duration":1195.1950708360841,"trial":48,"RT":862,"MT":1082,"sideResp":2,"stimulus":"img/250/equaldotsize/R/11_Ratio_250_L_3_R_12.png","xmouse":[811,811,811,811,811,811,811,811,811,811,811,811,811,811,811,811,811,811,811,811,811,811,811,811,811,811,811,811,811,811,811,811,811,811,811,811,811,811,811,811,811,820,836,850,862,878,887,908,920,934,942,953,981,1000,1018,1029,1046,1058,1062,1067,1071,1072,1078,1079,1080,1081,1081,1081,1081,1082,1083,1083,1083,1083,1083,1083,1083,1084,1084,1084,1084,1084,1084,1084,1084,1084,1084,1085,1086,1086,1086,1086,1086,1086,1086,1088,1092,1097],"ymouse":[485,485,485,485,485,485,485,485,485,485,485,485,485,485,485,485,485,485,485,485,485,485,485,485,485,485,485,485,485,485,485,485,485,485,485,485,485,485,485,485,485,482,474,465,456,440,425,387,366,345,328,312,288,279,274,268,258,246,238,230,220,210,192,186,181,179,179,177,176,175,172,169,163,157,156,151,149,145,145,145,145,145,145,145,145,145,145,144,142,141,141,141,141,140,137,122,109,97],"timestamp_mouse":[12,22,44,64,83,102,122,142,164,182,202,222,243,264,284,302,322,343,364,383,403,424,443,462,482,504,522,542,564,582,604,623,643,663,683,703,722,742,763,782,804,824,844,862,883,904,923,943,963,983,1003,1023,1043,1062,1083,1102,1122,1142,1163,1183,1202,1223,1243,1262,1283,1303,1322,1343,1362,1382,1403,1422,1442,1462,1483,1503,1523,1543,1562,1583,1603,1622,1643,1662,1684,1704,1723,1743,1763,1783,1802,1822,1842,1863,1884,1904,1924,1943],"xSR":741.5,"ySR":458.25,"xT1":424.9,"yT1":0,"xT2":1058.1,"yT2":0,"toosoon":0,"cond_shown":"equaldotsize","ratio_trial":250,"smaller_num":"3","larger_num":"12","correct_side":2,"subjID":"DianaCatalinaAgudeloMendez12","gender":"1","age":"9","school":"4"},{"start_time":1552074623933,"click_time":1552074625483,"finger_time":1552074624904,"fix_duration":1267.6427792177058,"trial":49,"RT":971,"MT":579,"sideResp":1,"stimulus":"img/900/randomdotsizeEA/R/9_Ratio_900_L_18_R_20.png","xmouse":[773,773,773,773,773,774,774,774,774,774,774,774,774,774,774,774,774,774,774,774,774,774,774,774,774,774,774,774,774,774,774,774,774,774,774,774,774,774,774,774,774,774,774,772,770,769,767,765,762,755,750,740,733,721,715,707,700,693,687,675,672,670,667,664,663,662,660,655,648,614,599,589,580,561,550,539,529,523],"ymouse":[510,510,510,510,510,510,510,510,509,509,509,509,509,509,509,509,509,509,509,509,509,509,509,509,509,509,509,509,509,509,509,509,509,508,508,508,508,508,508,508,508,508,507,499,494,488,478,468,455,424,402,370,347,302,279,254,229,206,184,143,131,122,114,105,101,98,94,91,89,82,80,79,78,75,73,71,70,70],"timestamp_mouse":[23,46,51,71,91,110,131,151,171,191,212,230,250,270,292,312,331,351,371,391,412,432,450,470,492,510,532,552,571,592,612,631,650,671,691,710,730,752,771,791,810,832,852,871,892,911,931,951,971,991,1012,1032,1052,1071,1090,1110,1130,1151,1171,1191,1210,1231,1251,1270,1291,1310,1331,1352,1370,1391,1411,1431,1451,1470,1490,1510,1532,1550],"xSR":741.5,"ySR":458.25,"xT1":424.9,"yT1":0,"xT2":1058.1,"yT2":0,"toosoon":0,"cond_shown":"randomdotsizeEA","ratio_trial":900,"smaller_num":"18","larger_num":"20","correct_side":2,"subjID":"DianaCatalinaAgudeloMendez12","gender":"1","age":"9","school":"4"},{"start_time":1552074627875,"click_time":1552074629404,"finger_time":1552074628764,"fix_duration":1169.0929821758327,"trial":50,"RT":889,"MT":640,"sideResp":2,"stimulus":"img/250/equaldotsize/R/4_Ratio_250_L_3_R_12.png","xmouse":[755,755,755,755,755,755,755,755,755,755,755,755,755,755,755,755,755,755,755,755,755,755,755,755,755,755,755,755,755,755,755,755,755,755,755,755,756,759,763,768,772,781,783,785,788,793,799,804,809,814,820,832,840,849,864,876,899,907,915,923,932,939,953,956,965,973,980,994,998,1001,1004,1007,1015,1022,1034,1055,1068],"ymouse":[525,525,525,525,525,525,525,525,525,525,525,525,525,525,525,525,525,525,525,525,525,525,525,525,525,525,525,525,525,525,525,525,525,525,525,525,525,525,523,520,515,493,480,461,443,412,368,346,328,309,291,259,241,221,189,168,129,113,100,89,78,71,62,62,62,62,62,62,62,62,62,62,62,62,62,65,65],"timestamp_mouse":[13,45,49,69,88,110,129,148,169,189,208,228,248,268,288,308,328,349,369,389,409,428,449,470,489,509,529,548,570,590,608,629,648,669,690,709,729,749,770,789,810,830,849,869,889,909,929,949,969,989,1008,1029,1049,1069,1089,1109,1128,1148,1169,1189,1209,1229,1249,1269,1289,1310,1329,1349,1368,1388,1409,1429,1450,1470,1490,1509,1528],"xSR":741.5,"ySR":458.25,"xT1":424.9,"yT1":0,"xT2":1058.1,"yT2":0,"toosoon":0,"cond_shown":"equaldotsize","ratio_trial":250,"smaller_num":"3","larger_num":"12","correct_side":2,"subjID":"DianaCatalinaAgudeloMendez12","gender":"1","age":"9","school":"4"},{"start_time":1552074632980,"click_time":1552074635365,"finger_time":1552074634584,"fix_duration":1154.330215195893,"trial":51,"RT":1604,"MT":781,"sideResp":2,"stimulus":"img/900/equaldotsize/L/1_Ratio_900_L_10_R_9.png","xmouse":[804,804,804,804,804,804,804,804,804,804,804,804,804,804,804,804,804,804,804,804,804,804,804,804,804,804,804,804,805,805,805,805,805,806,806,807,807,807,807,807,807,807,807,807,807,807,807,807,807,807,807,807,807,807,807,807,807,807,807,807,807,807,807,807,807,807,807,807,807,807,807,807,807,807,807,807,807,807,805,805,805,810,824,833,843,852,867,875,885,899,927,958,972,987,1001,1013,1033,1039,1049,1054,1057,1059,1064,1067,1069,1072,1085,1099,1107,1114,1116,1117,1117,1117,1117,1117,1111,1107,1106,1106],"ymouse":[515,515,515,515,515,515,515,515,515,515,515,515,515,515,515,515,515,515,515,515,515,515,515,515,515,515,515,515,515,515,516,517,517,517,517,516,516,516,516,516,516,516,516,516,516,516,516,516,516,516,516,516,516,516,515,514,510,509,508,507,507,507,507,507,507,507,507,507,506,505,505,504,503,501,499,498,490,483,473,460,451,440,419,408,400,393,379,372,365,356,341,317,304,292,278,266,245,238,226,221,217,214,205,201,197,194,171,147,133,123,118,116,115,115,115,114,107,101,100,97],"timestamp_mouse":[12,25,44,65,83,103,124,145,164,185,204,223,245,265,284,303,324,344,363,384,403,424,445,464,485,505,524,543,565,585,604,623,644,664,685,704,724,743,763,785,805,823,844,863,883,905,924,944,964,985,1004,1024,1043,1063,1084,1105,1124,1144,1163,1185,1204,1225,1245,1265,1283,1304,1323,1345,1365,1384,1403,1425,1445,1465,1484,1505,1523,1544,1565,1583,1604,1624,1645,1664,1683,1704,1723,1743,1764,1784,1804,1823,1843,1863,1885,1905,1924,1943,1964,1985,2004,2024,2044,2064,2084,2104,2124,2143,2164,2183,2203,2224,2244,2264,2283,2304,2325,2343,2365,2385],"xSR":741.5,"ySR":458.25,"xT1":424.9,"yT1":0,"xT2":1058.1,"yT2":0,"toosoon":0,"cond_shown":"equaldotsize","ratio_trial":900,"smaller_num":"9","larger_num":"10","correct_side":1,"subjID":"DianaCatalinaAgudeloMendez12","gender":"1","age":"9","school":"4"},{"start_time":1552074637056,"click_time":1552074638405,"finger_time":1552074637925,"fix_duration":250,"trial":52,"RT":869,"MT":480,"sideResp":2,"stimulus":"img/500/equaldotanddens/R/15_Ratio_500_L_1_R_2.png","xmouse":[801,801,801,801,801,801,801,801,801,801,801,801,801,801,801,801,801,801,801,801,801,801,801,801,801,801,801,801,801,801,801,801,801,801,801,801,801,801,801,801,804,807,812,833,844,865,881,907,919,926,930,935,946,951,956,959,964,973,979,983,991,997,1005,1023,1034,1042,1047,1059],"ymouse":[500,500,500,500,500,500,500,500,500,500,500,500,500,500,500,500,500,500,500,500,500,500,500,500,500,500,500,500,500,500,500,500,500,500,500,500,500,500,500,498,495,489,481,452,433,398,375,330,309,290,272,257,228,218,209,201,195,182,175,170,163,157,150,135,123,112,103,83],"timestamp_mouse":[10,27,48,67,88,107,127,148,168,188,209,229,248,268,287,307,328,348,369,387,409,428,447,469,489,509,527,548,569,589,609,627,648,669,688,708,728,748,768,789,809,828,848,869,888,909,928,947,968,989,1009,1029,1049,1068,1088,1107,1128,1149,1169,1188,1208,1228,1247,1268,1288,1308,1329,1348],"xSR":741.5,"ySR":458.25,"xT1":424.9,"yT1":0,"xT2":1058.1,"yT2":0,"toosoon":0,"cond_shown":"equaldotanddens","ratio_trial":500,"smaller_num":"1","larger_num":"2","correct_side":2,"subjID":"DianaCatalinaAgudeloMendez12","gender":"1","age":"9","school":"4"},{"start_time":1552074641184,"click_time":1552074642385,"finger_time":1552074642103,"fix_duration":1439.8162646758099,"trial":53,"RT":919,"MT":282,"sideResp":2,"stimulus":"img/250/randomdotsizeEA/R/4_Ratio_250_L_3_R_12.png","xmouse":[797,797,797,797,797,797,797,797,797,797,797,797,797,797,797,797,797,797,797,797,797,797,797,797,797,797,797,797,797,797,797,797,797,797,797,797,797,797,797,797,797,798,801,806,812,820,838,848,859,871,897,941,961,978,995,1007,1031,1048,1052,1066,1074],"ymouse":[483,483,483,483,483,483,483,483,483,483,483,483,483,483,483,483,483,483,483,483,483,483,483,483,483,483,483,483,483,483,483,483,483,483,483,483,483,483,483,483,483,483,480,476,473,467,454,446,438,431,409,342,296,253,215,188,150,127,120,103,95],"timestamp_mouse":[9,34,40,61,81,100,120,139,159,179,201,220,239,260,281,300,320,340,359,381,401,420,441,461,479,499,520,541,559,580,601,619,641,659,679,700,720,740,759,780,801,820,841,860,881,901,919,939,959,980,1000,1020,1040,1060,1081,1100,1121,1139,1161,1180,1200],"xSR":741.5,"ySR":458.25,"xT1":424.9,"yT1":0,"xT2":1058.1,"yT2":0,"toosoon":0,"cond_shown":"randomdotsizeEA","ratio_trial":250,"smaller_num":"3","larger_num":"12","correct_side":2,"subjID":"DianaCatalinaAgudeloMendez12","gender":"1","age":"9","school":"4"},{"start_time":1552074644515,"click_time":1552074645925,"finger_time":1552074645343,"fix_duration":868.4230102860305,"trial":54,"RT":828,"MT":582,"sideResp":1,"stimulus":"img/500/equaldotanddens/L/8_Ratio_500_L_8_R_4.png","xmouse":[801,801,801,801,801,801,801,801,801,801,801,801,801,801,801,801,801,801,801,801,801,801,801,801,801,801,801,801,801,801,801,801,801,801,801,801,801,803,804,820,830,832,825,815,810,810,810,809,806,799,786,772,764,754,729,716,698,682,666,641,628,624,609,597,586,569,565,561,557,550,521],"ymouse":[501,501,501,501,501,501,501,501,501,501,501,501,501,501,501,501,501,501,501,501,501,501,501,500,500,500,500,500,500,500,500,500,500,500,500,500,500,499,498,483,466,435,410,390,358,345,330,316,301,286,254,233,218,203,174,161,146,132,118,95,78,72,56,48,41,33,32,31,31,29,27],"timestamp_mouse":[14,41,49,68,88,108,129,148,168,188,209,230,250,270,289,309,329,348,369,389,409,430,449,469,489,510,528,549,568,588,610,630,649,669,689,709,729,748,769,789,809,828,848,869,888,909,929,950,969,990,1010,1030,1048,1068,1088,1108,1129,1150,1169,1189,1208,1230,1250,1268,1288,1309,1329,1349,1369,1390,1410],"xSR":741.5,"ySR":458.25,"xT1":424.9,"yT1":0,"xT2":1058.1,"yT2":0,"toosoon":0,"cond_shown":"equaldotanddens","ratio_trial":500,"smaller_num":"4","larger_num":"8","correct_side":1,"subjID":"DianaCatalinaAgudeloMendez12","gender":"1","age":"9","school":"4"},{"start_time":1552074648204,"click_time":1552074649824,"finger_time":1552074649084,"fix_duration":1218.7438633581396,"trial":55,"RT":880,"MT":740,"sideResp":1,"stimulus":"img/500/equaldotsize/L/5_Ratio_500_L_4_R_2.png","xmouse":[810,810,810,810,810,810,810,811,812,813,813,813,813,813,813,813,813,813,813,813,813,813,813,813,813,813,813,813,813,813,813,813,813,813,813,813,813,813,813,813,814,815,816,816,816,811,803,802,799,797,792,789,785,780,774,762,752,737,726,717,701,692,684,675,666,647,632,623,615,610,601,599,597,595,592