[{"start_time":1552069938198,"click_time":1552069941387,"finger_time":1552069939686,"fix_duration":1487.8982648874323,"trial":0,"RT":1488,"MT":1701,"sideResp":1,"stimulus":"img/750/equaldotsize/L/10_Ratio_750_L_4_R_3.png","xmouse":[808,808,808,808,808,808,808,808,808,808,808,808,808,808,808,808,808,808,808,808,808,808,808,808,808,808,808,808,808,808,808,808,808,808,808,808,808,808,808,808,808,808,808,808,808,808,808,808,808,808,808,808,808,808,808,808,808,808,807,807,807,807,806,806,805,803,803,803,801,787,777,767,753,741,719,701,688,674,661,636,625,614,606,594,582,576,573,571,569,566,566,565,567,579,611,622,617,599,575,494,438,383,312,188,188,188,188,188,188,188,188,188,188,188,188,188,188,253,255,263,265,269,277,293,395,482,511,523,532,542,549,549,549,552,565,570,571,572,572,572,572,572,572,570,562,557,551,548,546,544,543,542,540,538,536,536,536,533,521,481],"ymouse":[557,557,557,557,557,557,557,557,557,557,557,557,557,557,557,557,557,557,557,557,557,557,557,557,557,557,557,557,557,557,557,557,557,557,557,557,557,557,557,557,557,557,557,557,557,557,557,557,557,557,557,557,557,557,557,557,557,557,557,557,557,557,557,557,557,557,557,557,557,556,556,556,556,556,553,552,550,549,547,543,541,540,538,536,535,534,533,533,533,533,533,533,533,539,564,586,620,627,627,580,522,434,300,29,29,29,29,29,29,29,29,29,29,29,29,29,29,0,12,35,46,60,78,103,228,313,332,334,324,304,266,253,241,233,207,185,177,174,173,173,173,172,172,170,159,149,141,136,129,120,115,109,103,97,85,80,78,75,68,39],"timestamp_mouse":[9,41,49,68,88,108,129,149,169,189,208,230,249,269,290,309,328,348,368,388,409,429,448,470,489,508,528,550,569,588,609,628,649,668,688,709,730,749,769,788,808,828,849,870,889,908,929,949,969,989,1009,1030,1049,1069,1089,1109,1129,1149,1169,1188,1210,1229,1249,1268,1288,1309,1328,1350,1368,1388,1408,1428,1448,1469,1488,1508,1529,1549,1568,1588,1609,1629,1649,1669,1688,1708,1728,1749,1768,1789,1808,1830,1849,1868,1889,1909,1929,1949,1968,1989,2008,2028,2049,2070,2088,2108,2129,2149,2168,2188,2208,2229,2248,2269,2289,2308,2328,2348,2369,2390,2408,2428,2448,2469,2489,2508,2528,2548,2569,2588,2608,2628,2649,2670,2689,2708,2729,2748,2769,2788,2809,2828,2848,2870,2889,2908,2928,2948,2968,2989,3008,3029,3049,3069,3089,3108,3128,3149,3168,3188],"xSR":733.5,"ySR":493.35,"xT1":420.09999999999997,"yT1":0,"xT2":1046.8999999999999,"yT2":0,"toosoon":0,"cond_shown":"equaldotsize","ratio_trial":750,"smaller_num":"3","larger_num":"4","correct_side":1,"subjID":"Dianamilenaramirezquintana35","gender":"1","age":"9","school":"4","test":{"fix_dur":[250,1500],"timestim":300,"targets_dim":[100,100],"targets_relative_coord":[0.3,0.7],"size_stim":[880,420],"start_dim":[100,100],"size_start":[300,300],"size_fix":60,"samplingrate":20,"img_types":["equaldotsize","equaldotanddens","randomdotsizeEA"],"ratios":[250,500,750,900],"rep_conds":9,"nTrials":120,"trials_to_rest":500,"Trials_order":[66,26,57,29,93,80,109,72,13,85,23,89,98,51,0,118,116,25,9,86,15,67,12,103,61,41,65,97,5,24,74,4,6,54,115,112,110,119,59,60,44,28,20,105,106,77,100,58,43,38,30,63,94,64,52,2,7,96,36,33,27,40,53,45,1,42,71,68,73,62,17,16,21,48,10,55,91,11,50,47,79,117,114,3,102,22,69,49,113,92,84,35,56,8,95,90,32,14,37,78,81,76,18,70,39,83,19,87,111,108,75,101,104,82,46,34,88,99,31,107],"cond_shown":["equaldotsize","randomdotsizeEA","equaldotsize","randomdotsizeEA","equaldotsize","randomdotsizeEA","equaldotanddens","equaldotsize","equaldotanddens","equaldotanddens","randomdotsizeEA","randomdotsizeEA","randomdotsizeEA","equaldotsize","equaldotsize","equaldotanddens","randomdotsizeEA","equaldotanddens","equaldotsize","randomdotsizeEA","equaldotsize","equaldotanddens","equaldotsize","equaldotanddens","equaldotanddens","randomdotsizeEA","randomdotsizeEA","equaldotanddens","randomdotsizeEA","equaldotsize","randomdotsizeEA","equaldotanddens","equaldotsize","equaldotsize","equaldotanddens","equaldotanddens","randomdotsizeEA","randomdotsizeEA","randomdotsizeEA","equaldotsize","randomdotsizeEA","equaldotanddens","randomdotsizeEA","equaldotsize","equaldotanddens","randomdotsizeEA","equaldotanddens","equaldotanddens","equaldotanddens","randomdotsizeEA","equaldotsize","equaldotsize","equaldotanddens","equaldotanddens","equaldotanddens","randomdotsizeEA","equaldotanddens","equaldotsize","equaldotsize","equaldotsize","equaldotsize","equaldotanddens","randomdotsizeEA","equaldotsize","equaldotanddens","equaldotsize","randomdotsizeEA","randomdotsizeEA","equaldotanddens","randomdotsizeEA","randomdotsizeEA","equaldotanddens","equaldotsize","equaldotsize","equaldotanddens","equaldotanddens","equaldotanddens","randomdotsizeEA","randomdotsizeEA","randomdotsizeEA","equaldotanddens","equaldotsize","equaldotsize","equaldotsize","equaldotsize","equaldotanddens","equaldotsize","equaldotanddens","randomdotsizeEA","randomdotsizeEA","equaldotsize","randomdotsizeEA","randomdotsizeEA","randomdotsizeEA","randomdotsizeEA","equaldotsize","randomdotsizeEA","randomdotsizeEA","equaldotanddens","equaldotsize","equaldotsize","equaldotanddens","equaldotsize","equaldotanddens","equaldotsize","randomdotsizeEA","equaldotanddens","equaldotsize","equaldotsize","equaldotsize","equaldotsize","randomdotsizeEA","randomdotsizeEA","equaldotanddens","equaldotanddens","equaldotanddens","equaldotanddens","equaldotsize","equaldotanddens","randomdotsizeEA"],"ratio_trial":[750,250,900,500,900,750,250,250,250,250,900,500,250,500,250,900,750,250,900,250,500,750,250,750,250,500,500,250,500,250,250,500,750,750,750,500,250,900,900,250,750,500,750,900,900,500,500,900,750,250,750,500,900,500,500,250,750,250,250,900,500,500,500,900,250,750,900,750,250,250,500,500,900,250,900,750,750,900,250,900,750,900,750,500,750,900,900,250,500,750,250,900,750,750,900,750,750,250,250,750,900,500,750,900,500,900,750,500,500,250,500,500,750,900,900,900,500,500,750,900],"smaller_num":["3","1","18","1","18","15","1","3","3","3","18","6","2","2","3","18","6","3","9","2","1","6","3","3","1","1","2","4","4","6","4","6","6","6","3","2","3","18","18","4","6","10","3","9","18","6","2","18","3","3","15","2","18","2","5","3","15","5","6","18","9","4","9","9","3","18","18","15","3","3","2","2","18","3","18","18","6","18","4","18","3","18","15","5","15","18","18","1","1","3","2","18","15","15","18","18","3","6","3","9","9","5","3","9","6","18","3","4","9","5","9","10","9","18","18","9","2","5","15","18"],"larger_num":["4","4","20","2","20","20","4","12","12","12","20","12","8","4","12","20","8","12","10","8","2","8","12","4","4","2","4","16","8","24","16","12","8","8","4","4","12","20","20","16","8","20","4","10","20","12","4","20","4","12","20","4","20","4","10","12","20","20","24","20","18","8","18","10","12","24","20","20","12","12","4","4","20","12","20","24","8","20","16","20","4","20","20","10","20","20","20","4","2","4","8","20","20","20","20","24","4","24","12","12","10","10","4","10","12","20","4","8","18","20","18","20","12","20","20","10","4","10","20","20"],"correct_side":[1,2,1,2,1,2,2,2,1,1,2,1,1,1,1,2,1,1,2,1,2,2,1,1,2,2,1,1,1,2,2,1,2,1,2,1,2,2,2,1,1,2,1,2,1,1,2,1,2,2,1,2,2,1,2,1,2,2,2,1,2,1,2,2,1,1,1,2,2,2,1,1,2,1,1,1,1,1,1,1,1,1,2,1,2,1,1,2,2,2,1,2,1,2,1,1,1,1,1,2,1,1,1,1,1,1,1,1,1,2,2,2,2,1,2,1,2,2,2,1],"img_shown":["img/750/equaldotsize/L/10_Ratio_750_L_4_R_3.png","img/250/randomdotsizeEA/R/8_Ratio_250_L_1_R_4.png","img/900/equaldotsize/L/4_Ratio_900_L_20_R_18.png","img/500/randomdotsizeEA/R/12_Ratio_500_L_1_R_2.png","img/900/equaldotsize/L/10_Ratio_900_L_20_R_18.png","img/750/randomdotsizeEA/R/5_Ratio_750_L_15_R_20.png","img/250/equaldotanddens/R/8_Ratio_250_L_1_R_4.png","img/250/equaldotsize/R/4_Ratio_250_L_3_R_12.png","img/250/equaldotanddens/L/15_Ratio_250_L_12_R_3.png","img/250/equaldotanddens/L/15_Ratio_250_L_12_R_3.png","img/900/randomdotsizeEA/R/9_Ratio_900_L_18_R_20.png","img/500/randomdotsizeEA/L/13_Ratio_500_L_12_R_6.png","img/250/randomdotsizeEA/L/1_Ratio_250_L_8_R_2.png","img/500/equaldotsize/L/5_Ratio_500_L_4_R_2.png","img/250/equaldotsize/L/14_Ratio_250_L_12_R_3.png","img/900/equaldotanddens/R/9_Ratio_900_L_18_R_20.png","img/750/randomdotsizeEA/L/13_Ratio_750_L_8_R_6.png","img/250/equaldotanddens/L/14_Ratio_250_L_12_R_3.png","img/900/equaldotsize/R/3_Ratio_900_L_9_R_10.png","img/250/randomdotsizeEA/L/3_Ratio_250_L_8_R_2.png","img/500/equaldotsize/R/12_Ratio_500_L_1_R_2.png","img/750/equaldotanddens/R/2_Ratio_750_L_6_R_8.png","img/250/equaldotsize/L/14_Ratio_250_L_12_R_3.png","img/750/equaldotanddens/L/10_Ratio_750_L_4_R_3.png","img/250/equaldotanddens/R/8_Ratio_250_L_1_R_4.png","img/500/randomdotsizeEA/R/15_Ratio_500_L_1_R_2.png","img/500/randomdotsizeEA/L/5_Ratio_500_L_4_R_2.png","img/250/equaldotanddens/L/2_Ratio_250_L_16_R_4.png","img/500/randomdotsizeEA/L/8_Ratio_500_L_8_R_4.png","img/250/equaldotsize/R/6_Ratio_250_L_6_R_24.png","img/250/randomdotsizeEA/R/10_Ratio_250_L_4_R_16.png","img/500/equaldotanddens/L/11_Ratio_500_L_12_R_6.png","img/750/equaldotsize/R/2_Ratio_750_L_6_R_8.png","img/750/equaldotsize/L/14_Ratio_750_L_8_R_6.png","img/750/equaldotanddens/R/12_Ratio_750_L_3_R_4.png","img/500/equaldotanddens/L/5_Ratio_500_L_4_R_2.png","img/250/randomdotsizeEA/R/11_Ratio_250_L_3_R_12.png","img/900/randomdotsizeEA/R/9_Ratio_900_L_18_R_20.png","img/900/randomdotsizeEA/R/14_Ratio_900_L_18_R_20.png","img/250/equaldotsize/L/2_Ratio_250_L_16_R_4.png","img/750/randomdotsizeEA/L/13_Ratio_750_L_8_R_6.png","img/500/equaldotanddens/R/3_Ratio_500_L_10_R_20.png","img/750/randomdotsizeEA/L/9_Ratio_750_L_4_R_3.png","img/900/equaldotsize/R/3_Ratio_900_L_9_R_10.png","img/900/equaldotanddens/L/10_Ratio_900_L_20_R_18.png","img/500/randomdotsizeEA/L/13_Ratio_500_L_12_R_6.png","img/500/equaldotanddens/R/9_Ratio_500_L_2_R_4.png","img/900/equaldotanddens/L/8_Ratio_900_L_20_R_18.png","img/750/equaldotanddens/R/12_Ratio_750_L_3_R_4.png","img/250/randomdotsizeEA/R/11_Ratio_250_L_3_R_12.png","img/750/equaldotsize/L/1_Ratio_750_L_20_R_15.png","img/500/equaldotsize/R/9_Ratio_500_L_2_R_4.png","img/900/equaldotanddens/R/11_Ratio_900_L_18_R_20.png","img/500/equaldotanddens/L/5_Ratio_500_L_4_R_2.png","img/500/equaldotanddens/R/14_Ratio_500_L_5_R_10.png","img/250/randomdotsizeEA/L/14_Ratio_250_L_12_R_3.png","img/750/equaldotanddens/R/3_Ratio_750_L_15_R_20.png","img/250/equaldotsize/R/12_Ratio_250_L_5_R_20.png","img/250/equaldotsize/R/6_Ratio_250_L_6_R_24.png","img/900/equaldotsize/L/8_Ratio_900_L_20_R_18.png","img/500/equaldotsize/R/6_Ratio_500_L_9_R_18.png","img/500/equaldotanddens/L/8_Ratio_500_L_8_R_4.png","img/500/randomdotsizeEA/R/1_Ratio_500_L_9_R_18.png","img/900/equaldotsize/R/15_Ratio_900_L_9_R_10.png","img/250/equaldotanddens/L/15_Ratio_250_L_12_R_3.png","img/750/equaldotsize/L/6_Ratio_750_L_24_R_18.png","img/900/randomdotsizeEA/L/4_Ratio_900_L_20_R_18.png","img/750/randomdotsizeEA/R/5_Ratio_750_L_15_R_20.png","img/250/equaldotanddens/R/11_Ratio_250_L_3_R_12.png","img/250/randomdotsizeEA/R/11_Ratio_250_L_3_R_12.png","img/500/randomdotsizeEA/L/5_Ratio_500_L_4_R_2.png","img/500/equaldotanddens/L/5_Ratio_500_L_4_R_2.png","img/900/equaldotsize/R/12_Ratio_900_L_18_R_20.png","img/250/equaldotsize/L/15_Ratio_250_L_12_R_3.png","img/900/equaldotanddens/L/4_Ratio_900_L_20_R_18.png","img/750/equaldotanddens/L/6_Ratio_750_L_24_R_18.png","img/750/equaldotanddens/L/13_Ratio_750_L_8_R_6.png","img/900/randomdotsizeEA/L/10_Ratio_900_L_20_R_18.png","img/250/randomdotsizeEA/L/2_Ratio_250_L_16_R_4.png","img/900/randomdotsizeEA/L/10_Ratio_900_L_20_R_18.png","img/750/equaldotanddens/L/8_Ratio_750_L_4_R_3.png","img/900/equaldotsize/L/10_Ratio_900_L_20_R_18.png","img/750/equaldotsize/R/3_Ratio_750_L_15_R_20.png","img/500/equaldotsize/L/7_Ratio_500_L_10_R_5.png","img/750/equaldotsize/R/3_Ratio_750_L_15_R_20.png","img/900/equaldotanddens/L/2_Ratio_900_L_20_R_18.png","img/900/equaldotsize/L/2_Ratio_900_L_20_R_18.png","img/250/equaldotanddens/R/8_Ratio_250_L_1_R_4.png","img/500/randomdotsizeEA/R/12_Ratio_500_L_1_R_2.png","img/750/randomdotsizeEA/R/12_Ratio_750_L_3_R_4.png","img/250/equaldotsize/L/1_Ratio_250_L_8_R_2.png","img/900/randomdotsizeEA/R/11_Ratio_900_L_18_R_20.png","img/750/randomdotsizeEA/L/1_Ratio_750_L_20_R_15.png","img/750/randomdotsizeEA/R/3_Ratio_750_L_15_R_20.png","img/900/randomdotsizeEA/L/8_Ratio_900_L_20_R_18.png","img/750/equaldotsize/L/6_Ratio_750_L_24_R_18.png","img/750/randomdotsizeEA/L/9_Ratio_750_L_4_R_3.png","img/250/randomdotsizeEA/L/5_Ratio_250_L_24_R_6.png","img/250/equaldotanddens/L/14_Ratio_250_L_12_R_3.png","img/750/equaldotsize/R/15_Ratio_750_L_9_R_12.png","img/900/equaldotsize/L/1_Ratio_900_L_10_R_9.png","img/500/equaldotanddens/L/7_Ratio_500_L_10_R_5.png","img/750/equaldotsize/L/8_Ratio_750_L_4_R_3.png","img/900/equaldotanddens/L/1_Ratio_900_L_10_R_9.png","img/500/equaldotsize/L/11_Ratio_500_L_12_R_6.png","img/900/randomdotsizeEA/L/8_Ratio_900_L_20_R_18.png","img/750/equaldotanddens/L/9_Ratio_750_L_4_R_3.png","img/500/equaldotsize/L/8_Ratio_500_L_8_R_4.png","img/500/equaldotsize/L/4_Ratio_500_L_18_R_9.png","img/250/equaldotsize/R/12_Ratio_250_L_5_R_20.png","img/500/equaldotsize/R/6_Ratio_500_L_9_R_18.png","img/500/randomdotsizeEA/R/3_Ratio_500_L_10_R_20.png","img/750/randomdotsizeEA/R/15_Ratio_750_L_9_R_12.png","img/900/equaldotanddens/L/8_Ratio_900_L_20_R_18.png","img/900/equaldotanddens/R/9_Ratio_900_L_18_R_20.png","img/900/equaldotanddens/L/1_Ratio_900_L_10_R_9.png","img/500/equaldotanddens/R/9_Ratio_500_L_2_R_4.png","img/500/equaldotsize/R/14_Ratio_500_L_5_R_10.png","img/750/equaldotanddens/R/4_Ratio_750_L_15_R_20.png","img/900/randomdotsizeEA/L/2_Ratio_900_L_20_R_18.png"],"Rat0":[["12_Ratio_0_L_9_R_0.png","13_Ratio_0_L_6_R_0.png","5_Ratio_0_L_2_R_0.png","6_Ratio_0_L_4_R_0.png","8_Ratio_0_L_6_R_0.png"],["1_Ratio_0_L_0_R_17.png","10_Ratio_0_L_0_R_22.png","11_Ratio_0_L_0_R_1.png","14_Ratio_0_L_0_R_24.png","15_Ratio_0_L_0_R_4.png","2_Ratio_0_L_0_R_5.png","3_Ratio_0_L_0_R_17.png","4_Ratio_0_L_0_R_7.png","7_Ratio_0_L_0_R_19.png","9_Ratio_0_L_0_R_15.png"]],"Rat250":[["1_Ratio_250_L_8_R_2.png","14_Ratio_250_L_12_R_3.png","15_Ratio_250_L_12_R_3.png","2_Ratio_250_L_16_R_4.png","3_Ratio_250_L_8_R_2.png","5_Ratio_250_L_24_R_6.png","7_Ratio_250_L_8_R_2.png"],["10_Ratio_250_L_4_R_16.png","11_Ratio_250_L_3_R_12.png","12_Ratio_250_L_5_R_20.png","13_Ratio_250_L_2_R_8.png","4_Ratio_250_L_3_R_12.png","6_Ratio_250_L_6_R_24.png","8_Ratio_250_L_1_R_4.png","9_Ratio_250_L_3_R_12.png"]],"Rat500":[["10_Ratio_500_L_4_R_2.png","11_Ratio_500_L_12_R_6.png","13_Ratio_500_L_12_R_6.png","4_Ratio_500_L_18_R_9.png","5_Ratio_500_L_4_R_2.png","7_Ratio_500_L_10_R_5.png","8_Ratio_500_L_8_R_4.png"],["1_Ratio_500_L_9_R_18.png","12_Ratio_500_L_1_R_2.png","14_Ratio_500_L_5_R_10.png","15_Ratio_500_L_1_R_2.png","2_Ratio_500_L_3_R_6.png","3_Ratio_500_L_10_R_20.png","6_Ratio_500_L_9_R_18.png","9_Ratio_500_L_2_R_4.png"]],"Rat750":[["1_Ratio_750_L_20_R_15.png","10_Ratio_750_L_4_R_3.png","13_Ratio_750_L_8_R_6.png","14_Ratio_750_L_8_R_6.png","6_Ratio_750_L_24_R_18.png","8_Ratio_750_L_4_R_3.png","9_Ratio_750_L_4_R_3.png"],["11_Ratio_750_L_12_R_16.png","12_Ratio_750_L_3_R_4.png","15_Ratio_750_L_9_R_12.png","2_Ratio_750_L_6_R_8.png","3_Ratio_750_L_15_R_20.png","4_Ratio_750_L_15_R_20.png","5_Ratio_750_L_15_R_20.png","7_Ratio_750_L_3_R_4.png"]],"Rat900":[["1_Ratio_900_L_10_R_9.png","10_Ratio_900_L_20_R_18.png","2_Ratio_900_L_20_R_18.png","4_Ratio_900_L_20_R_18.png","8_Ratio_900_L_20_R_18.png"],["11_Ratio_900_L_18_R_20.png","12_Ratio_900_L_18_R_20.png","13_Ratio_900_L_18_R_20.png","14_Ratio_900_L_18_R_20.png","15_Ratio_900_L_9_R_10.png","3_Ratio_900_L_9_R_10.png","5_Ratio_900_L_9_R_10.png","6_Ratio_900_L_9_R_10.png","7_Ratio_900_L_9_R_10.png","9_Ratio_900_L_18_R_20.png"]],"Rat1000":[["10_Ratio_1000_L_16_R_16.png","11_Ratio_1000_L_6_R_6.png","12_Ratio_1000_L_14_R_14.png","13_Ratio_1000_L_20_R_20.png","15_Ratio_1000_L_15_R_15.png","2_Ratio_1000_L_17_R_17.png","4_Ratio_1000_L_9_R_9.png","5_Ratio_1000_L_6_R_6.png","6_Ratio_1000_L_19_R_19.png","8_Ratio_1000_L_14_R_14.png","9_Ratio_1000_L_25_R_25.png"],["1_Ratio_1000_L_1_R_1.png","14_Ratio_1000_L_17_R_17.png","3_Ratio_1000_L_17_R_17.png","7_Ratio_1000_L_6_R_6.png"]]}},{"start_time":1552069946307,"click_time":1552069948487,"finger_time":1552069947486,"fix_duration":797.0782622398722,"trial":1,"RT":1179,"MT":1001,"sideResp":2,"stimulus":"img/250/randomdotsizeEA/R/8_Ratio_250_L_1_R_4.png","xmouse":[774,774,774,774,774,774,774,774,774,774,774,774,774,774,774,774,774,774,774,774,774,774,774,774,774,774,774,774,774,774,774,774,774,774,774,774,774,774,774,774,774,774,774,774,774,775,777,778,779,779,779,779,779,779,779,777,777,781,791,810,812,815,818,820,821,821,821,821,821,821,821,821,821,821,821,824,831,843,858,875,907,914,915,915,916,919,926,938,952,981,996,1020,1044,1072,1145,1173,1194,1210,1225,1244,1252,1253,1253,1253,1244,1224,1200,1176,1156,1138],"ymouse":[577,577,577,577,577,577,577,577,577,577,577,577,577,577,577,577,577,577,577,577,577,577,577,577,577,577,577,577,577,577,577,577,577,577,577,577,577,577,577,577,577,577,577,577,578,577,576,574,573,573,573,573,573,572,572,567,559,541,517,470,448,425,418,416,416,416,416,416,416,416,416,416,416,416,415,415,415,415,415,415,415,414,414,414,414,410,404,396,385,349,325,288,264,242,197,178,161,143,127,94,73,69,63,61,60,63,63,63,63,63],"timestamp_mouse":[3,24,39,59,79,99,119,140,161,181,201,219,240,261,281,300,320,340,359,379,399,419,441,460,479,500,519,539,561,579,600,619,640,661,680,700,719,740,761,780,799,820,841,859,879,899,921,939,959,979,1000,1019,1041,1059,1079,1099,1120,1139,1159,1179,1199,1220,1239,1259,1281,1300,1319,1339,1360,1380,1401,1420,1439,1460,1479,1500,1519,1540,1559,1580,1600,1620,1639,1660,1680,1699,1719,1739,1760,1780,1801,1820,1840,1859,1879,1899,1920,1939,1959,1979,1999,2019,2039,2060,2080,2100,2119,2139,2160,2179],"xSR":733.5,"ySR":493.35,"xT1":420.09999999999997,"yT1":0,"xT2":1046.8999999999999,"yT2":0,"toosoon":0,"cond_shown":"randomdotsizeEA","ratio_trial":250,"smaller_num":"1","larger_num":"4","correct_side":2,"subjID":"Dianamilenaramirezquintana35","gender":"1","age":"9","school":"4"},{"start_time":1552069951546,"click_time":1552069953387,"finger_time":1552069952747,"fix_duration":557.9570845685423,"trial":2,"RT":1201,"MT":640,"sideResp":2,"stimulus":"img/900/equaldotsize/L/4_Ratio_900_L_20_R_18.png","xmouse":[795,795,795,795,795,795,795,795,795,795,795,795,795,795,795,795,795,795,795,795,795,795,795,795,795,795,795,795,795,795,795,795,795,795,795,795,795,795,795,795,795,795,795,795,795,795,795,795,795,795,795,795,804,808,812,815,818,819,822,823,847,896,1035,1100,1145,1174,1194,1227,1241,1266,1295,1326,1372,1384,1384,1384,1384,1384,1384,1384,1384,1384,1384,1326,1310,1288,1262,1237,1198,1175,1159,1149,1137],"ymouse":[553,553,553,553,553,553,553,553,553,553,553,553,553,553,553,553,553,553,553,553,553,553,553,553,553,553,553,553,553,553,553,553,553,553,553,553,553,553,553,553,553,553,553,553,553,553,553,553,553,553,553,553,547,544,540,537,536,535,535,534,526,513,472,442,407,372,331,255,211,158,123,86,29,7,7,7,7,7,7,7,7,7,7,0,2,5,9,13,25,35,40,42,43],"timestamp_mouse":[9,20,40,62,81,100,121,140,160,181,200,220,240,260,282,301,320,340,362,382,400,421,440,461,480,501,521,540,561,581,600,620,640,662,682,701,721,740,762,780,800,822,841,861,880,902,921,940,961,980,1002,1020,1040,1060,1082,1100,1121,1140,1161,1180,1201,1221,1240,1260,1280,1300,1321,1340,1361,1380,1400,1420,1441,1460,1480,1501,1521,1541,1561,1580,1600,1620,1640,1660,1680,1700,1721,1741,1761,1780,1800,1821,1840],"xSR":733.5,"ySR":493.35,"xT1":420.09999999999997,"yT1":0,"xT2":1046.8999999999999,"yT2":0,"toosoon":0,"cond_shown":"equaldotsize","ratio_trial":900,"smaller_num":"18","larger_num":"20","correct_side":1,"subjID":"Dianamilenaramirezquintana35","gender":"1","age":"9","school":"4"},{"start_time":1552069957303,"click_time":1552069959147,"finger_time":1552069958726,"fix_duration":1173.8530408119445,"trial":3,"RT":1423,"MT":421,"sideResp":2,"stimulus":"img/500/randomdotsizeEA/R/12_Ratio_500_L_1_R_2.png","xmouse":[778,778,778,778,778,778,778,778,778,778,778,778,778,778,778,778,778,778,778,778,778,778,778,778,778,778,778,778,778,778,778,778,778,778,778,778,778,778,778,778,778,778,778,778,778,778,778,778,778,778,778,778,778,778,778,778,778,778,778,778,778,778,778,778,778,778,778,778,778,778,786,817,858,904,940,982,998,1010,1017,1026,1053,1080,1094,1103,1107,1107,1105,1102,1100,1100,1107,1127,1135],"ymouse":[529,529,529,529,529,529,529,529,529,529,529,529,529,529,529,529,529,529,529,529,529,529,529,529,529,529,529,529,529,529,529,529,529,529,529,529,529,529,529,529,529,529,529,529,529,529,529,529,529,529,529,529,529,529,529,529,529,529,529,529,529,529,529,529,529,529,529,529,529,529,518,483,436,397,371,340,321,299,278,262,242,234,230,223,218,214,210,205,200,177,155,110,75],"timestamp_mouse":[11,29,43,65,84,104,124,144,165,184,203,225,244,264,284,303,324,344,364,383,404,423,444,465,483,505,524,544,564,583,604,624,645,664,684,705,723,744,765,783,804,825,843,863,883,903,924,945,964,983,1004,1024,1043,1064,1083,1103,1124,1145,1165,1184,1203,1223,1243,1265,1283,1304,1325,1344,1363,1383,1404,1423,1444,1463,1484,1503,1524,1544,1564,1584,1604,1624,1645,1664,1683,1703,1723,1743,1765,1784,1804,1823,1844],"xSR":733.5,"ySR":493.35,"xT1":420.09999999999997,"yT1":0,"xT2":1046.8999999999999,"yT2":0,"toosoon":0,"cond_shown":"randomdotsizeEA","ratio_trial":500,"smaller_num":"1","larger_num":"2","correct_side":2,"subjID":"Dianamilenaramirezquintana35","gender":"1","age":"9","school":"4"},{"start_time":1552069961603,"click_time":1552069964026,"finger_time":1552069962906,"fix_duration":1295.254560941665,"trial":4,"RT":1303,"MT":1120,"sideResp":1,"stimulus":"img/900/equaldotsize/L/10_Ratio_900_L_20_R_18.png","xmouse":[776,776,776,776,776,776,776,776,776,776,776,776,776,776,776,776,776,776,776,776,776,776,776,776,776,776,776,776,776,776,776,776,776,776,776,776,776,776,776,776,776,776,776,776,776,776,776,776,776,776,776,774,774,774,774,774,774,773,772,771,770,770,769,768,762,723,701,686,678,664,656,649,638,628,614,586,572,565,563,563,563,563,562,559,546,539,537,536,536,536,536,536,536,536,536,536,536,536,536,536,536,536,536,534,531,528,524,523,522,522,522,522,522,522,522,522,522,522,522,522,521,520],"ymouse":[526,526,526,526,526,526,526,526,526,526,526,526,526,526,526,526,526,526,526,526,526,526,526,526,526,526,526,526,526,526,526,526,526,526,526,526,526,526,526,526,526,526,526,526,526,526,526,526,526,526,526,526,526,526,526,526,526,526,526,526,526,526,526,525,521,464,420,385,357,305,282,259,235,212,186,143,123,115,114,114,114,113,113,111,103,99,97,97,97,97,97,97,97,97,97,97,97,97,97,97,97,97,97,97,97,97,97,97,97,97,97,97,97,97,97,97,97,96,96,96,96,96],"timestamp_mouse":[8,34,44,63,83,104,124,144,164,183,203,225,244,264,283,303,324,343,364,383,403,425,444,464,483,504,523,544,563,584,604,624,644,664,683,703,725,745,765,784,803,824,844,865,884,905,923,943,964,984,1003,1023,1044,1063,1083,1103,1125,1143,1163,1184,1204,1224,1243,1264,1283,1303,1323,1344,1364,1384,1403,1423,1444,1463,1484,1503,1524,1543,1564,1584,1604,1624,1643,1664,1683,1703,1723,1743,1764,1784,1804,1823,1845,1864,1884,1904,1924,1944,1964,1984,2004,2024,2043,2063,2084,2105,2123,2144,2164,2184,2204,2224,2244,2263,2283,2304,2323,2344,2364,2384,2403,2423],"xSR":733.5,"ySR":493.35,"xT1":420.09999999999997,"yT1":0,"xT2":1046.8999999999999,"yT2":0,"toosoon":0,"cond_shown":"equaldotsize","ratio_trial":900,"smaller_num":"18","larger_num":"20","correct_side":1,"subjID":"Dianamilenaramirezquintana35","gender":"1","age":"9","school":"4"},{"start_time":1552069966672,"click_time":1552069968468,"finger_time":1552069967586,"fix_duration":1304.8524492729146,"trial":5,"RT":914,"MT":882,"sideResp":2,"stimulus":"img/750/randomdotsizeEA/R/5_Ratio_750_L_15_R_20.png","xmouse":[760,760,760,760,760,760,760,760,760,760,760,760,760,760,760,760,760,760,761,761,761,761,761,761,761,761,761,761,761,761,761,761,761,761,761,761,761,761,761,761,761,761,763,783,807,879,918,937,942,948,950,950,950,950,951,956,960,966,974,981,995,1005,1012,1018,1029,1043,1048,1053,1057,1062,1068,1071,1074,1076,1080,1084,1085,1089,1092,1094,1099,1101,1104,1105,1110,1118,1120,1121,1121,1121],"ymouse":[541,541,541,541,541,541,541,541,541,541,541,541,541,541,541,541,541,541,539,539,538,534,533,533,533,533,533,533,533,533,533,533,533,533,533,533,533,533,533,533,533,533,531,527,522,506,492,484,481,472,449,437,429,418,408,385,373,363,356,349,336,325,319,313,305,294,291,287,284,280,271,266,261,255,247,227,217,208,200,193,182,177,168,160,151,127,114,105,100,96],"timestamp_mouse":[14,34,56,74,94,114,134,154,175,196,214,235,254,275,294,315,335,356,374,395,414,435,455,474,494,514,536,555,575,594,615,635,655,674,696,714,735,755,776,794,814,834,854,874,895,914,934,954,975,995,1014,1034,1054,1074,1094,1115,1135,1154,1174,1194,1215,1234,1255,1274,1294,1314,1334,1356,1375,1394,1415,1434,1454,1475,1494,1515,1534,1555,1574,1594,1615,1636,1654,1675,1694,1714,1734,1755,1774,1796],"xSR":733.5,"ySR":493.35,"xT1":420.09999999999997,"yT1":0,"xT2":1046.8999999999999,"yT2":0,"toosoon":0,"cond_shown":"randomdotsizeEA","ratio_trial":750,"smaller_num":"15","larger_num":"20","correct_side":2,"subjID":"Dianamilenaramirezquintana35","gender":"1","age":"9","school":"4"},{"start_time":1552069969835,"click_time":1552069971748,"finger_time":1552069971027,"fix_duration":486.15258648810146,"trial":6,"RT":1192,"MT":721,"sideResp":2,"stimulus":"img/250/equaldotanddens/R/8_Ratio_250_L_1_R_4.png","xmouse":[814,814,814,814,814,814,814,814,814,814,814,814,814,814,814,814,814,814,814,814,814,814,814,814,814,814,814,814,814,814,814,814,814,814,814,814,814,814,814,814,814,814,814,814,814,814,814,814,814,814,814,814,814,814,814,814,814,816,822,834,848,862,892,914,930,948,966,997,1006,1021,1031,1044,1057,1060,1060,1060,1060,1060,1060,1059,1057,1056,1055,1055,1055,1055,1057,1060,1061,1063,1066,1067,1070,1073,1075,1075],"ymouse":[554,554,554,554,554,554,554,554,554,554,554,554,554,554,554,554,554,554,554,554,554,554,554,554,554,554,554,554,554,554,554,554,554,554,554,554,554,554,554,554,554,554,554,554,554,554,554,554,554,554,554,554,554,554,554,554,554,553,549,545,541,537,520,500,483,467,447,412,398,380,360,340,308,295,279,269,264,254,247,239,232,222,204,194,178,173,166,153,146,140,132,127,119,109,103,99],"timestamp_mouse":[11,32,52,72,93,113,132,153,172,191,212,232,252,273,293,312,333,352,373,393,412,432,452,472,492,512,533,552,572,592,613,632,652,673,692,713,732,753,772,793,813,833,853,872,893,913,933,951,972,993,1012,1033,1052,1072,1093,1113,1132,1153,1172,1192,1212,1232,1252,1272,1292,1312,1332,1352,1372,1392,1412,1432,1452,1473,1492,1512,1533,1552,1572,1591,1611,1633,1652,1672,1692,1712,1732,1752,1771,1792,1811,1832,1852,1872,1891,1913],"xSR":733.5,"ySR":493.35,"xT1":420.09999999999997,"yT1":0,"xT2":1046.8999999999999,"yT2":0,"toosoon":0,"cond_shown":"equaldotanddens","ratio_trial":250,"smaller_num":"1","larger_num":"4","correct_side":2,"subjID":"Dianamilenaramirezquintana35","gender":"1","age":"9","school":"4"},{"start_time":1552069972920,"click_time":1552069974187,"finger_time":1552069973607,"fix_duration":250,"trial":7,"RT":687,"MT":580,"sideResp":2,"stimulus":"img/250/equaldotsize/R/4_Ratio_250_L_3_R_12.png","xmouse":[789,789,789,789,789,789,789,789,789,789,789,789,789,789,789,789,789,789,789,789,789,789,789,789,789,789,789,789,789,789,789,789,798,823,842,863,885,904,924,956,978,993,1007,1035,1053,1069,1082,1098,1112,1131,1137,1139,1143,1145,1145,1145,1145,1144,1142,1124,1113,1103,1100,1100],"ymouse":[520,520,520,520,520,520,520,520,520,520,520,520,520,520,520,520,520,520,520,520,520,520,520,520,520,520,520,520,520,520,520,520,520,517,512,505,499,491,481,465,450,437,426,400,384,365,348,328,311,280,271,262,253,236,228,220,213,204,198,167,153,136,122,97],"timestamp_mouse":[11,30,47,67,86,107,128,147,167,187,208,228,248,267,288,308,327,347,367,388,408,427,448,467,486,508,527,548,567,588,607,628,647,667,687,707,728,747,767,787,807,827,847,867,887,908,926,947,967,987,1006,1027,1048,1067,1087,1108,1127,1146,1167,1186,1206,1227,1247,1267],"xSR":733.5,"ySR":493.35,"xT1":420.09999999999997,"yT1":0,"xT2":1046.8999999999999,"yT2":0,"toosoon":0,"cond_shown":"equaldotsize","ratio_trial":250,"smaller_num":"3","larger_num":"12","correct_side":2,"subjID":"Dianamilenaramirezquintana35","gender":"1","age":"9","school":"4"},{"start_time":1552069977750,"click_time":1552069979047,"finger_time":1552069978527,"fix_duration":1041.2462577342533,"trial":8,"RT":777,"MT":520,"sideResp":1,"stimulus":"img/250/equaldotanddens/L/15_Ratio_250_L_12_R_3.png","xmouse":[806,806,806,806,806,806,806,806,806,806,806,806,806,806,806,806,806,806,806,806,806,806,806,806,806,806,806,806,806,806,806,806,806,806,806,806,806,806,806,803,793,757,738,724,704,677,647,589,559,559,559,559,559,559,559,559,559,559,559,559,559,559,559,559,475],"ymouse":[536,536,536,536,536,536,536,536,536,536,536,536,536,536,536,536,536,536,536,536,536,536,536,536,536,536,536,536,536,536,536,536,536,536,536,536,530,507,484,456,421,345,308,274,235,190,141,54,10,10,10,10,10,10,10,10,10,10,10,10,10,10,10,10,2],"timestamp_mouse":[17,36,58,78,98,117,137,158,177,197,217,237,258,277,298,317,337,357,376,397,417,436,458,477,496,517,538,557,577,597,618,637,658,676,697,718,736,757,777,797,818,837,857,876,896,917,937,956,977,997,1017,1037,1058,1077,1097,1118,1137,1157,1177,1197,1217,1237,1257,1277,1297],"xSR":733.5,"ySR":493.35,"xT1":420.09999999999997,"yT1":0,"xT2":1046.8999999999999,"yT2":0,"toosoon":0,"cond_shown":"equaldotanddens","ratio_trial":250,"smaller_num":"3","larger_num":"12","correct_side":1,"subjID":"Dianamilenaramirezquintana35","gender":"1","age":"9","school":"4"},{"start_time":1552069980315,"click_time":1552069981488,"finger_time":1552069980987,"fix_duration":267.14408447952707,"trial":9,"RT":672,"MT":501,"sideResp":1,"stimulus":"img/250/equaldotanddens/L/15_Ratio_250_L_12_R_3.png","xmouse":[773,773,773,773,773,773,773,773,773,773,773,773,773,773,773,773,773,773,773,773,773,773,773,773,773,773,773,773,773,774,774,776,776,775,771,761,750,735,703,679,666,650,633,600,588,577,571,561,539,531,526,524,520,518,518,516,511,503,485],"ymouse":[553,553,553,553,553,553,553,553,553,553,553,553,553,553,553,553,553,553,553,553,553,553,553,553,553,553,553,553,553,551,545,533,519,492,473,450,424,394,335,300,284,268,254,229,220,213,210,202,186,175,167,161,155,145,140,134,128,119,92],"timestamp_mouse":[12,32,52,72,92,112,133,152,171,191,212,233,251,273,291,313,333,351,372,392,412,431,452,472,493,513,533,553,572,592,611,633,653,672,692,713,732,752,772,792,812,832,853,872,892,912,932,951,972,992,1012,1033,1053,1071,1091,1113,1131,1152,1173],"xSR":733.5,"ySR":493.35,"xT1":420.09999999999997,"yT1":0,"xT2":1046.8999999999999,"yT2":0,"toosoon":0,"cond_shown":"equaldotanddens","ratio_trial":250,"smaller_num":"3","larger_num":"12","correct_side":1,"subjID":"Dianamilenaramirezquintana35","gender":"1","age":"9","school":"4"},{"start_time":1552069982938,"click_time":1552069984787,"finger_time":1552069983987,"fix_duration":250,"trial":10,"RT":1049,"MT":800,"sideResp":2,"stimulus":"img/900/randomdotsizeEA/R/9_Ratio_900_L_18_R_20.png","xmouse":[760,760,760,760,760,760,760,760,760,760,760,760,760,760,760,760,760,760,760,760,760,760,760,760,760,760,760,760,760,760,760,760,760,760,760,760,760,760,760,760,760,760,760,760,760,760,760,760,768,776,789,811,835,843,849,857,862,870,879,895,907,915,932,938,944,948,950,954,961,968,977,986,1005,1013,1020,1025,1028,1031,1037,1042,1047,1053,1058,1060,1060,1060,1060,1060,1060,1061,1064,1068,1075],"ymouse":[523,523,523,523,523,523,523,523,523,523,523,523,523,523,523,523,523,523,523,523,523,523,523,523,523,523,523,523,523,523,523,523,523,523,523,523,523,523,523,523,523,523,523,523,523,523,523,523,523,523,518,508,488,475,465,452,441,427,415,397,382,369,336,318,301,281,266,238,220,209,196,183,160,149,140,134,129,126,121,118,115,112,109,108,108,108,108,108,107,106,105,104,99],"timestamp_mouse":[9,36,49,69,90,109,129,150,170,190,210,230,249,270,289,310,329,349,369,390,408,429,449,470,490,510,530,550,568,589,609,629,649,669,690,709,730,749,769,789,809,830,848,870,889,910,929,949,969,989,1009,1029,1049,1069,1089,1109,1129,1149,1169,1189,1209,1230,1249,1269,1290,1308,1329,1349,1370,1389,1410,1429,1449,1469,1489,1509,1530,1549,1568,1589,1609,1629,1649,1670,1689,1710,1729,1749,1768,1788,1809,1829,1849],"xSR":733.5,"ySR":493.35,"xT1":420.09999999999997,"yT1":0,"xT2":1046.8999999999999,"yT2":0,"toosoon":0,"cond_shown":"randomdotsizeEA","ratio_trial":900,"smaller_num":"18","larger_num":"20","correct_side":2,"subjID":"Dianamilenaramirezquintana35","gender":"1","age":"9","school":"4"},{"start_time":1552069988224,"click_time":1552069990088,"finger_time":1552069989247,"fix_duration":596.0393404438448,"trial":11,"RT":1023,"MT":841,"sideResp":1,"stimulus":"img/500/randomdotsizeEA/L/13_Ratio_500_L_12_R_6.png","xmouse":[766,762,758,756,756,756,756,756,756,756,756,756,756,756,756,756,756,756,756,756,756,756,756,756,756,756,756,756,756,756,756,756,756,756,756,756,756,756,756,756,756,756,756,756,756,756,758,759,766,785,808,836,873,913,951,971,980,987,1003,1009,1013,1016,1017,1017,1017,1017,1017,1017,1013,1007,996,986,976,958,953,953,953,953,953,948,935,917,897,873,851,831,799,765,680,640,603,567,539,501],"ymouse":[566,571,580,585,586,586,586,586,586,586,586,586,586,586,586,586,586,586,586,586,586,586,586,586,586,586,586,586,586,586,586,586,586,586,586,586,586,586,586,586,586,586,586,586,586,586,586,586,586,582,576,569,557,542,521,506,496,486,467,459,454,449,448,448,448,448,448,448,447,446,442,441,440,437,436,436,436,436,436,436,433,430,427,422,407,395,373,348,279,231,182,132,89,8],"timestamp_mouse":[3,23,43,63,83,103,123,143,163,183,203,223,243,263,283,303,323,344,363,382,404,424,444,464,482,504,523,544,563,583,602,624,644,663,684,703,723,744,763,783,804,824,843,862,883,904,923,942,963,983,1003,1023,1045,1063,1082,1102,1122,1143,1163,1183,1203,1223,1243,1263,1283,1303,1324,1343,1363,1382,1404,1423,1444,1463,1483,1503,1523,1544,1563,1583,1602,1623,1643,1663,1684,1703,1723,1744,1763,1782,1804,1823,1842,1864],"xSR":733.5,"ySR":493.35,"xT1":420.09999999999997,"yT1":0,"xT2":1046.8999999999999,"yT2":0,"toosoon":0,"cond_shown":"randomdotsizeEA","ratio_trial":500,"smaller_num":"6","larger_num":"12","correct_side":1,"subjID":"Dianamilenaramirezquintana35","gender":"1","age":"9","school":"4"},{"start_time":1552069992333,"click_time":1552069993587,"finger_time":1552069993127,"fix_duration":1143.7183212363248,"trial":12,"RT":794,"MT":460,"sideResp":1,"stimulus":"img/250/randomdotsizeEA/L/1_Ratio_250_L_8_R_2.png","xmouse":[764,764,764,764,764,764,764,764,764,764,764,764,764,764,764,764,764,764,764,764,764,764,764,764,764,764,764,764,764,764,764,764,764,764,764,764,764,762,745,684,661,659,681,687,687,686,678,654,638,622,613,602,589,569,566,565,563,551,544,534,524,516,500],"ymouse":[545,545,545,545,545,545,545,545,545,545,545,545,545,545,545,545,545,545,545,545,545,545,545,545,545,545,545,545,545,545,545,545,545,545,545,545,545,544,539,524,517,517,504,488,468,447,427,380,356,328,315,301,290,272,267,265,259,222,199,164,141,118,70],"timestamp_mouse":[13,34,54,74,94,115,134,154,174,195,213,235,254,275,293,314,334,355,374,394,414,434,454,474,493,515,535,554,574,595,614,634,655,674,694,714,734,754,775,794,814,834,854,873,893,914,934,954,975,994,1015,1034,1054,1074,1094,1114,1134,1154,1175,1194,1214,1234,1253],"xSR":733.5,"ySR":493.35,"xT1":420.09999999999997,"yT1":0,"xT2":1046.8999999999999,"yT2":0,"toosoon":0,"cond_shown":"randomdotsizeEA","ratio_trial":250,"smaller_num":"2","larger_num":"8","correct_side":1,"subjID":"Dianamilenaramirezquintana35","gender":"1","age":"9","school":"4"},{"start_time":1552069994958,"click_time":1552069996167,"finger_time":1552069995967,"fix_duration":250,"trial":13,"RT":1009,"MT":200,"sideResp":1,"stimulus":"img/500/equaldotsize/L/5_Ratio_500_L_4_R_2.png","xmouse":[800,800,800,800,800,800,800,800,800,800,800,800,800,800,800,800,800,800,800,800,800,800,800,800,800,800,800,800,800,800,800,800,800,800,800,800,800,800,800,800,800,799,799,799,797,794,790,789,786,779,768,749,744,743,740,733,686,656,593,549,490],"ymouse":[547,547,547,547,547,547,547,547,546,546,546,546,546,546,546,546,546,546,546,546,546,546,546,546,546,546,546,546,546,546,546,546,546,546,546,546,546,546,546,546,546,546,546,546,546,546,545,544,528,508,483,429,407,383,357,330,242,199,127,78,8],"timestamp_mouse":[11,32,49,70,89,110,129,149,169,189,209,228,250,269,288,310,329,349,370,389,409,428,450,470,489,510,529,549,568,589,610,629,649,669,690,710,728,750,770,789,809,829,849,869,889,909,929,948,969,989,1009,1029,1048,1069,1089,1108,1129,1150,1169,1190,1209],"xSR":733.5,"ySR":493.35,"xT1":420.09999999999997,"yT1":0,"xT2":1046.8999999999999,"yT2":0,"toosoon":0,"cond_shown":"equaldotsize","ratio_trial":500,"smaller_num":"2","larger_num":"4","correct_side":1,"subjID":"Dianamilenaramirezquintana35","gender":"1","age":"9","school":"4"},{"start_time":1552069999475,"click_time":1552070000707,"finger_time":1552070000326,"fix_duration":707.3467990226645,"trial":14,"RT":851,"MT":381,"sideResp":1,"stimulus":"img/250/equaldotsize/L/14_Ratio_250_L_12_R_3.png","xmouse":[779,779,779,779,779,777,776,774,772,771,769,768,768,768,768,768,768,768,768,768,768,768,768,768,768,768,768,768,768,768,768,768,768,768,768,768,768,767,768,768,769,769,763,751,736,716,711,710,710,710,710,709,704,687,668,629,609,594,580,564,549,513],"ymouse":[548,548,548,548,548,547,546,544,543,542,540,539,539,539,539,539,539,539,539,539,539,539,539,539,539,539,539,539,539,539,539,539,539,539,539,539,539,537,535,529,517,499,479,450,415,342,319,303,293,291,291,289,287,275,260,217,189,168,149,132,118,94],"timestamp_mouse":[11,32,53,73,92,112,131,152,171,193,212,232,253,272,293,313,333,351,372,393,412,432,452,472,492,511,533,552,573,593,612,632,652,673,693,713,733,752,772,793,812,833,851,872,892,912,931,952,973,992,1012,1031,1052,1073,1092,1112,1131,1152,1173,1192,1212,1231],"xSR":733.5,"ySR":493.35,"xT1":420.09999999999997,"yT1":0,"xT2":1046.8999999999999,"yT2":0,"toosoon":0,"cond_shown":"equaldotsize","ratio_trial":250,"smaller_num":"3","larger_num":"12","correct_side":1,"subjID":"Dianamilenaramirezquintana35","gender":"1","age":"9","school":"4"},{"start_time":1552070004471,"click_time":1552070005587,"finger_time":1552070005267,"fix_duration":1120.6671780259715,"trial":15,"RT":796,"MT":320,"sideResp":2,"stimulus":"img/900/equaldotanddens/R/9_Ratio_900_L_18_R_20.png","xmouse":[777,777,777,777,777,777,777,777,777,777,777,777,777,777,777,777,777,777,777,777,777,777,777,777,777,777,777,777,777,777,777,777,777,777,777,783,794,806,823,839,867,882,892,902,915,943,955,969,979,993,1023,1047,1062,1067,1070,1072],"ymouse":[540,540,540,540,540,540,540,540,540,540,540,540,540,540,540,540,540,540,540,540,540,540,540,540,540,540,540,540,540,540,540,540,540,540,540,533,523,514,501,488,461,443,431,418,402,372,357,338,322,298,240,185,143,120,100,66],"timestamp_mouse":[30,36,57,77,95,116,137,157,175,196,217,237,257,276,297,316,336,357,377,397,417,435,457,476,496,516,536,557,577,596,616,637,655,676,696,716,735,756,776,796,817,836,856,877,896,916,936,955,976,998,1016,1036,1056,1076,1095,1116],"xSR":733.5,"ySR":493.35,"xT1":420.09999999999997,"yT1":0,"xT2":1046.8999999999999,"yT2":0,"toosoon":0,"cond_shown":"equaldotanddens","ratio_trial":900,"smaller_num":"18","larger_num":"20","correct_side":2,"subjID":"Dianamilenaramirezquintana35","gender":"1","age":"9","school":"4"},{"start_time":1552070007329,"click_time":1552070008548,"finger_time":1552070008147,"fix_duration":680.1845673993496,"trial":16,"RT":818,"MT":401,"sideResp":1,"stimulus":"img/750/randomdotsizeEA/L/13_Ratio_750_L_8_R_6.png","xmouse":[807,807,807,807,807,807,807,807,807,807,807,807,807,807,807,807,807,807,808,808,808,808,808,808,808,808,808,808,808,808,808,808,808,808,808,808,808,808,808,808,806,801,793,772,758,743,727,690,673,653,644,637,622,613,601,584,567,527,506,498,490],"ymouse":[506,506,506,505,505,505,505,505,505,505,504,503,503,502,502,502,501,500,498,498,498,497,497,497,497,497,497,497,497,497,497,497,497,497,497,497,497,497,497,497,492,488,479,456,440,421,403,361,342,320,307,295,273,261,244,221,201,151,124,108,96],"timestamp_mouse":[18,38,58,79,97,118,140,159,179,199,219,238,259,279,299,318,338,358,378,399,418,439,458,478,498,519,538,557,578,599,618,638,658,679,699,717,738,758,779,797,818,838,858,877,898,918,938,959,978,998,1018,1038,1058,1078,1098,1118,1140,1158,1179,1198,1219],"xSR":733.5,"ySR":493.35,"xT1":420.09999999999997,"yT1":0,"xT2":1046.8999999999999,"yT2":0,"toosoon":0,"cond_shown":"randomdotsizeEA","ratio_trial":750,"smaller_num":"6","larger_num":"8","correct_side":1,"subjID":"Dianamilenaramirezquintana35","gender":"1","age":"9","school":"4"},{"start_time":1552070010067,"click_time":1552070011087,"finger_time":1552070010667,"fix_duration":438.9316153783699,"trial":17,"RT":600,"MT":420,"sideResp":1,"stimulus":"img/250/equaldotanddens/L/14_Ratio_250_L_12_R_3.png","xmouse":[765,765,765,765,765,765,765,765,765,765,765,765,765,765,765,765,765,765,765,765,765,765,765,765,765,765,765,761,750,741,727,711,706,704,702,696,684,680,678,677,674,665,650,638,628,621,615,597,580,560,533,457],"ymouse":[534,534,534,534,534,534,534,534,534,534,534,534,534,534,534,534,534,534,534,534,534,534,534,534,534,534,534,527,514,498,472,425,399,371,367,362,354,351,348,346,341,329,313,303,290,278,265,230,203,169,126,30],"timestamp_mouse":[9,33,41,60,79,100,120,141,161,180,199,221,241,259,280,300,320,340,360,380,401,421,441,459,480,501,520,539,560,580,600,620,640,660,680,700,721,740,761,780,801,820,840,860,880,900,920,939,959,979,1000,1020],"xSR":733.5,"ySR":493.35,"xT1":420.09999999999997,"yT1":0,"xT2":1046.8999999999999,"yT2":0,"toosoon":0,"cond_shown":"equaldotanddens","ratio_trial":250,"smaller_num":"3","larger_num":"12","correct_side":1,"subjID":"Dianamilenaramirezquintana35","gender":"1","age":"9","school":"4"},{"start_time":1552070012218,"click_time":1552070013707,"finger_time":1552070012907,"fix_duration":250,"trial":18,"RT":689,"MT":800,"sideResp":2,"stimulus":"img/900/equaldotsize/R/3_Ratio_900_L_9_R_10.png","xmouse":[774,774,774,774,774,774,774,774,774,774,774,774,774,774,774,774,774,774,774,774,773,773,771,768,767,767,767,767,767,768,771,775,782,811,843,865,881,897,940,951,963,974,989,1012,1026,1032,1038,1045,1048,1059,1063,1065,1066,1068,1068,1068,1068,1068,1068,1068,1068,1068,1068,1068,1068,1068,1068,1068,1070,1071,1071,1072,1073,1076,1078],"ymouse":[575,575,575,575,575,575,575,575,575,575,575,575,575,575,575,575,575,575,575,572,569,565,562,555,552,550,549,548,548,547,547,547,547,543,538,531,523,513,483,473,458,443,424,390,364,354,342,329,320,291,276,261,253,224,205,194,185,178,167,162,160,159,158,158,158,157,154,152,140,135,131,126,120,109,99],"timestamp_mouse":[10,29,49,69,89,109,128,150,169,189,210,229,249,269,288,308,329,350,369,388,409,429,449,468,489,509,530,550,569,589,610,629,650,669,689,708,729,749,769,788,809,829,849,869,889,909,928,949,969,988,1008,1029,1049,1069,1089,1109,1129,1149,1169,1188,1210,1229,1250,1269,1290,1309,1329,1349,1369,1389,1409,1429,1450,1469,1488],"xSR":733.5,"ySR":493.35,"xT1":420.09999999999997,"yT1":0,"xT2":1046.8999999999999,"yT2":0,"toosoon":0,"cond_shown":"equaldotsize","ratio_trial":900,"smaller_num":"9","larger_num":"10","correct_side":2,"subjID":"Dianamilenaramirezquintana35","gender":"1","age":"9","school":"4"},{"start_time":1552070015793,"click_time":1552070016787,"finger_time":1552070015987,"fix_duration":1064.430886653115,"trial":19,"RT":194,"MT":800,"sideResp":1,"stimulus":"img/250/randomdotsizeEA/L/3_Ratio_250_L_8_R_2.png","xmouse":[796,796,796,796,796,795,791,778,763,727,716,705,695,689,684,684,684,684,684,684,684,684,684,684,684,684,683,682,682,681,680,679,677,675,666,658,653,648,643,638,636,634,628,618,596,576,561,543,528,517],"ymouse":[531,531,531,531,531,531,531,531,531,531,531,533,534,534,534,534,534,534,534,534,534,534,534,534,534,534,531,525,518,498,485,474,462,444,394,362,341,324,309,280,265,248,226,202,152,120,100,82,71,63],"timestamp_mouse":[18,35,55,75,93,115,133,154,174,194,214,234,254,275,294,314,334,354,373,395,415,434,454,475,494,514,534,555,575,594,613,634,655,675,694,714,733,754,773,794,814,835,855,874,894,913,933,954,973,994],"xSR":733.5,"ySR":493.35,"xT1":420.09999999999997,"yT1":0,"xT2":1046.8999999999999,"yT2":0,"toosoon":0,"cond_shown":"randomdotsizeEA","ratio_trial":250,"smaller_num":"2","larger_num":"8","correct_side":1,"subjID":"Dianamilenaramirezquintana35","gender":"1","age":"9","school":"4"},{"start_time":1552070020066,"click_time":1552070021087,"finger_time":1552070020767,"fix_duration":1057.5427437218773,"trial":20,"RT":701,"MT":320,"sideResp":2,"stimulus":"img/500/equaldotsize/R/12_Ratio_500_L_1_R_2.png","xmouse":[752,752,752,752,752,752,752,752,752,752,752,752,752,752,752,752,752,752,752,752,752,752,752,752,752,752,752,752,752,753,755,769,780,793,814,840,903,933,957,981,1003,1037,1049,1073,1091,1116,1145,1152,1155,1153,1145,1113],"ymouse":[518,518,518,518,518,518,518,518,518,518,518,518,518,518,518,518,518,518,518,518,518,518,518,518,518,518,518,518,518,518,518,520,521,523,524,524,515,505,494,484,471,442,422,378,340,302,236,202,172,145,119,59],"timestamp_mouse":[9,21,42,61,81,102,121,142,161,181,202,222,241,261,282,301,322,341,362,382,401,422,440,462,481,502,522,541,561,581,602,620,641,660,681,701,721,740,761,780,801,820,841,861,882,901,921,940,962,981,1000,1021],"xSR":733.5,"ySR":493.35,"xT1":420.09999999999997,"yT1":0,"xT2":1046.8999999999999,"yT2":0,"toosoon":0,"cond_shown":"equaldotsize","ratio_trial":500,"smaller_num":"1","larger_num":"2","correct_side":2,"subjID":"Dianamilenaramirezquintana35","gender":"1","age":"9","school":"4"},{"start_time":1552070038555,"click_time":1552070040028,"finger_time":1552070039248,"fix_duration":325.8061913670611,"trial":21,"RT":693,"MT":780,"sideResp":2,"stimulus":"img/750/equaldotanddens/R/2_Ratio_750_L_6_R_8.png","xmouse":[748,748,748,748,748,748,748,748,749,752,757,760,761,761,759,755,749,747,747,747,747,747,747,747,747,747,747,747,747,747,747,744,742,737,731,725,715,721,741,775,812,880,908,950,1009,1072,1150,1167,1178,1181,1181,1170,1166,1163,1163,1166,1175,1179,1181,1181,1181,1184,1188,1190,1191,1191,1189,1186,1184,1179,1169,1153,1147,1144],"ymouse":[537,537,537,537,537,537,537,537,537,538,539,541,542,543,543,543,543,543,543,543,543,543,543,543,543,543,543,543,543,543,543,543,543,543,543,543,543,535,527,519,518,518,518,508,493,473,436,420,385,359,331,277,258,246,238,231,217,209,190,175,159,134,124,116,108,101,86,79,75,71,66,55,51,48],"timestamp_mouse":[13,34,54,74,93,114,134,154,174,194,214,233,253,273,294,313,334,354,373,394,413,434,454,474,494,513,534,554,574,593,614,633,653,673,693,714,733,753,773,794,813,833,853,873,893,915,933,954,973,994,1013,1034,1053,1073,1093,1114,1134,1154,1173,1194,1213,1234,1253,1273,1293,1315,1333,1354,1373,1393,1413,1433,1453,1473],"xSR":733.5,"ySR":493.35,"xT1":420.09999999999997,"yT1":0,"xT2":1046.8999999999999,"yT2":0,"toosoon":0,"cond_shown":"equaldotanddens","ratio_trial":750,"smaller_num":"6","larger_num":"8","correct_side":2,"subjID":"Dianamilenaramirezquintana35","gender":"1","age":"9","school":"4"},{"start_time":1552070043271,"click_time":1552070044068,"finger_time":1552070043306,"fix_duration":381.882590798718,"trial":22,"RT":35,"MT":762,"sideResp":1,"stimulus":"img/250/equaldotsize/L/14_Ratio_250_L_12_R_3.png","xmouse":[732,732,714,711,710,710,710,710,710,709,709,709,709,709,709,709,709,709,709,709,709,709,709,709,709,707,704,696,685,663,628,618,612,604,598,576,559,547,534,518],"ymouse":[507,507,487,485,485,483,483,483,482,482,482,482,482,482,482,482,482,482,482,482,482,482,482,482,481,474,463,446,419,375,289,258,240,224,205,165,144,124,105,82],"timestamp_mouse":[35,38,57,78,98,117,138,157,177,197,217,237,257,278,298,318,338,358,377,397,417,437,457,477,497,517,537,558,577,598,617,638,657,677,697,717,738,757,777,797],"xSR":733.5,"ySR":493.35,"xT1":420.09999999999997,"yT1":0,"xT2":1046.8999999999999,"yT2":0,"toosoon":0,"cond_shown":"equaldotsize","ratio_trial":250,"smaller_num":"3","larger_num":"12","correct_side":1,"subjID":"Dianamilenaramirezquintana35","gender":"1","age":"9","school":"4"},{"start_time":1552070045291,"click_time":1552070046709,"finger_time":1552070046148,"fix_duration":461.8648180190319,"trial":23,"RT":857,"MT":561,"sideResp":1,"stimulus":"img/750/equaldotanddens/L/10_Ratio_750_L_4_R_3.png","xmouse":[763,763,763,763,763,763,763,763,762,762,762,762,762,762,762,762,762,762,762,762,762,762,762,761,761,761,761,761,761,761,761,761,761,761,761,761,761,761,760,759,756,744,715,667,584,565,560,560,562,565,566,568,572,578,585,585,583,575,564,540,528,525,524,521,512,506,493,484,477,465,457],"ymouse":[522,522,522,522,522,523,523,524,525,525,525,525,525,525,525,525,525,525,525,526,526,526,526,527,527,527,527,527,527,527,527,527,527,527,527,527,527,527,527,527,525,515,497,470,421,405,396,391,385,359,340,311,297,288,266,250,236,221,202,176,167,165,165,164,159,155,146,135,125,106,94],"timestamp_mouse":[18,37,57,78,97,117,138,158,177,198,217,237,257,277,297,318,337,358,377,399,417,438,457,478,497,518,538,558,578,597,618,637,658,678,697,718,738,758,778,797,817,837,857,877,897,917,937,957,978,997,1018,1037,1058,1077,1097,1117,1137,1157,1179,1197,1219,1237,1258,1278,1297,1317,1338,1357,1377,1397,1417],"xSR":733.5,"ySR":493.35,"xT1":420.09999999999997,"yT1":0,"xT2":1046.8999999999999,"yT2":0,"toosoon":0,"cond_shown":"equaldotanddens","ratio_trial":750,"smaller_num":"3","larger_num":"4","correct_side":1,"subjID":"Dianamilenaramirezquintana35","gender":"1","age":"9","school":"4"},{"start_time":1552070047921,"click_time":1552070049249,"finger_time":1552070048528,"fix_duration":250,"trial":24,"RT":607,"MT":721,"sideResp":2,"stimulus":"img/250/equaldotanddens/R/8_Ratio_250_L_1_R_4.png","xmouse":[809,807,807,804,803,803,803,803,803,803,803,803,803,803,803,803,803,803,803,803,803,803,803,804,804,805,806,807,820,827,855,879,899,924,931,943,976,1033,1217,1339,1386,1416,1434,1449,1449,1448,1445,1444,1437,1426,1414,1392,1353,1281,1261,1251,1243,1238,1228,1222,1221,1221,1221,1221,1208,1171,1139],"ymouse":[543,543,543,544,545,545,545,545,545,545,545,545,545,545,545,545,545,545,545,545,546,547,548,550,551,552,553,554,556,556,556,555,550,529,516,501,478,449,370,315,281,258,240,211,200,191,181,172,146,121,105,86,66,45,44,46,51,54,58,58,58,58,58,58,51,28,11],"timestamp_mouse":[8,36,48,67,88,107,128,148,168,188,208,228,248,267,288,307,327,348,367,387,407,427,447,468,487,508,527,549,567,587,607,628,647,668,687,708,727,748,767,788,807,828,847,867,887,908,927,948,967,987,1008,1027,1047,1067,1088,1108,1128,1148,1167,1188,1208,1228,1248,1267,1287,1308,1328],"xSR":733.5,"ySR":493.35,"xT1":420.09999999999997,"yT1":0,"xT2":1046.8999999999999,"yT2":0,"toosoon":0,"cond_shown":"equaldotanddens","ratio_trial":250,"smaller_num":"1","larger_num":"4","correct_side":2,"subjID":"Dianamilenaramirezquintana35","gender":"1","age":"9","school":"4"},{"start_time":1552070052674,"click_time":1552070054049,"finger_time":1552070053508,"fix_duration":363.77264974189427,"trial":25,"RT":834,"MT":541,"sideResp":2,"stimulus":"img/500/randomdotsizeEA/R/15_Ratio_500_L_1_R_2.png","xmouse":[759,759,759,759,759,759,759,759,759,759,759,759,759,759,759,759,759,759,759,759,759,759,759,759,759,759,756,755,752,752,751,751,751,751,751,751,751,751,750,755,790,806,824,837,854,907,932,959,989,1011,1045,1049,1049,1049,1044,1041,1041,1041,1041,1042,1044,1042,1038,1036,1036,1041,1043,1046,1048],"ymouse":[520,520,520,520,520,520,520,520,520,520,520,520,520,520,520,520,520,520,520,520,520,520,520,520,520,520,520,520,522,522,522,522,522,522,522,522,522,522,522,516,497,487,475,467,457,426,410,385,358,333,271,249,230,216,205,197,193,189,181,169,127,114,103,94,91,81,78,73,69],"timestamp_mouse":[15,34,55,75,95,115,135,155,175,195,214,235,254,275,295,315,335,355,375,395,414,434,456,475,495,515,534,555,575,595,614,636,655,675,694,714,735,755,774,794,814,834,854,874,894,914,934,954,974,994,1015,1036,1054,1074,1094,1115,1134,1155,1174,1194,1214,1234,1255,1275,1295,1314,1334,1354,1375],"xSR":733.5,"ySR":493.35,"xT1":420.09999999999997,"yT1":0,"xT2":1046.8999999999999,"yT2":0,"toosoon":0,"cond_shown":"randomdotsizeEA","ratio_trial":500,"smaller_num":"1","larger_num":"2","correct_side":2,"subjID":"Dianamilenaramirezquintana35","gender":"1","age":"9","school":"4"},{"start_time":1552070056210,"click_time":1552070057308,"finger_time":1552070056648,"fix_duration":900.2914290326465,"trial":26,"RT":438,"MT":660,"sideResp":1,"stimulus":"img/500/randomdotsizeEA/L/5_Ratio_500_L_4_R_2.png","xmouse":[745,745,745,745,745,745,745,745,745,745,745,745,745,745,745,745,748,749,755,758,762,767,772,780,783,783,780,771,742,724,706,688,675,663,663,663,664,664,665,663,651,637,616,572,559,557,557,557,557,557,555,551,549,526,512],"ymouse":[503,503,503,503,503,503,503,503,503,503,503,503,503,503,503,503,503,503,501,499,496,493,488,477,466,459,451,439,408,386,361,325,293,247,240,235,230,226,217,209,192,174,152,110,91,85,81,77,70,68,63,59,57,53,53],"timestamp_mouse":[18,46,59,79,99,118,139,158,178,199,218,238,258,278,298,318,338,359,378,398,418,438,459,478,498,518,538,558,579,599,618,638,658,679,698,718,739,758,778,798,818,839,858,878,898,918,938,958,978,999,1018,1040,1059,1079,1098],"xSR":733.5,"ySR":493.35,"xT1":420.09999999999997,"yT1":0,"xT2":1046.8999999999999,"yT2":0,"toosoon":0,"cond_shown":"randomdotsizeEA","ratio_trial":500,"smaller_num":"2","larger_num":"4","correct_side":1,"subjID":"Dianamilenaramirezquintana35","gender":"1","age":"9","school":"4"},{"start_time":1552070058762,"click_time":1552070059829,"finger_time":1552070059389,"fix_duration":250,"trial":27,"RT":627,"MT":440,"sideResp":1,"stimulus":"img/250/equaldotanddens/L/2_Ratio_250_L_16_R_4.png","xmouse":[778,778,778,778,778,778,778,778,780,781,782,782,782,782,782,782,782,782,782,782,782,782,782,782,782,782,782,782,782,782,782,791,799,809,816,815,789,775,768,767,767,764,757,740,720,697,655,628,606,585,565,536,524,516],"ymouse":[553,553,553,553,553,553,553,553,553,553,552,552,552,552,552,552,552,552,552,552,552,552,552,552,552,552,552,552,552,549,531,467,407,349,290,248,212,208,206,205,205,205,203,197,189,176,149,125,110,94,78,54,44,37],"timestamp_mouse":[12,33,47,67,86,106,126,147,166,186,207,228,246,267,287,306,326,348,366,386,407,428,447,467,487,507,526,546,567,586,606,627,647,666,686,708,726,747,766,787,806,826,847,866,886,906,926,946,966,986,1007,1026,1046,1066],"xSR":733.5,"ySR":493.35,"xT1":420.09999999999997,"yT1":0,"xT2":1046.8999999999999,"yT2":0,"toosoon":0,"cond_shown":"equaldotanddens","ratio_trial":250,"smaller_num":"4","larger_num":"16","correct_side":1,"subjID":"Dianamilenaramirezquintana35","gender":"1","age":"9","school":"4"},{"start_time":1552070061079,"click_time":1552070062569,"finger_time":1552070061709,"fix_duration":250,"trial":28,"RT":630,"MT":860,"sideResp":1,"stimulus":"img/500/randomdotsizeEA/L/8_Ratio_500_L_8_R_4.png","xmouse":[744,743,743,743,743,743,743,743,743,743,743,743,743,743,743,743,743,743,743,743,743,743,743,743,743,743,743,742,741,740,734,727,719,713,705,685,672,664,657,649,637,633,631,629,628,628,625,620,614,607,596,595,595,595,595,595,595,597,600,600,596,593,590,588,587,582,577,570,561,554,545,538,530,522,518],"ymouse":[547,546,546,546,546,546,546,546,546,546,546,546,546,546,546,546,546,546,546,546,546,546,546,546,546,546,546,545,545,542,534,526,517,508,500,477,459,447,434,424,408,400,398,396,393,392,378,365,350,340,326,325,325,325,325,318,311,296,277,259,222,209,197,186,175,150,135,119,101,84,57,39,27,19,16],"timestamp_mouse":[9,36,49,69,90,110,129,149,169,189,210,230,249,270,290,309,330,350,370,390,410,429,449,469,489,509,529,550,569,589,609,630,649,669,689,710,730,750,769,790,809,829,849,869,889,909,930,949,969,989,1010,1030,1049,1071,1090,1109,1129,1149,1170,1190,1210,1230,1249,1269,1290,1309,1329,1349,1369,1391,1409,1430,1449,1469,1490],"xSR":733.5,"ySR":493.35,"xT1":420.09999999999997,"yT1":0,"xT2":1046.8999999999999,"yT2":0,"toosoon":0,"cond_shown":"randomdotsizeEA","ratio_trial":500,"smaller_num":"4","larger_num":"8","correct_side":1,"subjID":"Dianamilenaramirezquintana35","gender":"1","age":"9","school":"4"},{"start_time":1552070064252,"click_time":1552070065248,"finger_time":1552070064888,"fix_duration":582.7952784285386,"trial":29,"RT":636,"MT":360,"sideResp":2,"stimulus":"img/250/equaldotsize/R/6_Ratio_250_L_6_R_24.png","xmouse":[755,755,755,755,755,755,755,755,755,755,755,755,755,755,755,755,755,755,755,755,755,755,755,755,755,755,755,755,755,759,769,842,932,982,1004,1017,1041,1056,1068,1074,1078,1086,1095,1099,1103,1107,1107,1105,1103,1103],"ymouse":[528,528,528,528,528,528,528,528,528,528,528,528,528,528,528,528,528,528,528,528,528,528,528,528,528,528,528,528,528,528,525,490,425,386,371,361,345,335,326,317,308,277,248,225,198,171,132,116,101,90],"timestamp_mouse":[16,36,56,76,96,117,137,157,177,197,216,236,257,276,296,316,337,357,376,397,417,436,456,476,497,516,536,557,576,596,617,636,657,676,697,716,736,756,777,796,816,836,856,876,897,916,936,956,977,996],"xSR":733.5,"ySR":493.35,"xT1":420.09999999999997,"yT1":0,"xT2":1046.8999999999999,"yT2":0,"toosoon":0,"cond_shown":"equaldotsize","ratio_trial":250,"smaller_num":"6","larger_num":"24","correct_side":2,"subjID":"Dianamilenaramirezquintana35","gender":"1","age":"9","school":"4"},{"start_time":1552070066820,"click_time":1552070068488,"finger_time":1552070067448,"fix_duration":729.3630935234794,"trial":30,"RT":628,"MT":1040,"sideResp":2,"stimulus":"img/250/randomdotsizeEA/R/10_Ratio_250_L_4_R_16.png","xmouse":[751,751,751,751,751,751,751,751,751,751,751,751,751,751,751,751,751,751,751,751,751,751,751,751,751,751,751,751,751,751,751,751,751,751,744,730,729,729,729,729,729,729,729,729,729,729,729,729,729,735,748,768,788,826,849,864,876,888,912,927,943,958,973,994,1002,1006,1010,1017,1032,1045,1061,1079,1098,1133,1142,1143,1143,1143,1139,1137,1137,1136,1134,1119],"ymouse":[520,520,520,520,520,520,520,520,520,520,520,520,520,520,520,520,520,520,520,520,520,520,520,520,520,520,520,520,520,512,503,475,417,265,185,104,85,83,83,83,83,83,83,83,85,107,130,159,227,255,282,310,336,371,386,391,393,393,387,381,369,355,337,299,276,263,251,239,222,210,199,187,172,143,128,123,122,120,117,115,114,112,109,97],"timestamp_mouse":[10,28,49,69,89,109,128,148,169,189,209,229,249,268,288,309,329,349,368,388,409,429,449,469,489,508,528,549,569,588,608,628,649,669,688,708,729,748,769,788,808,828,848,868,889,908,930,948,969,988,1008,1028,1048,1068,1088,1108,1129,1148,1169,1188,1209,1228,1249,1268,1288,1308,1328,1348,1368,1388,1409,1429,1449,1468,1489,1509,1529,1548,1568,1588,1610,1629,1649,1668],"xSR":733.5,"ySR":493.35,"xT1":420.09999999999997,"yT1":0,"xT2":1046.8999999999999,"yT2":0,"toosoon":0,"cond_shown":"randomdotsizeEA","ratio_trial":250,"smaller_num":"4","larger_num":"16","correct_side":2,"subjID":"Dianamilenaramirezquintana35","gender":"1","age":"9","school":"4"},{"start_time":1552070069539,"click_time":1552070070509,"finger_time":1552070070208,"fix_duration":250,"trial":31,"RT":669,"MT":301,"sideResp":1,"stimulus":"img/500/equaldotanddens/L/11_Ratio_500_L_12_R_6.png","xmouse":[762,762,762,762,762,762,762,762,762,762,762,762,762,762,762,762,762,762,762,762,762,762,762,762,762,762,762,762,762,763,763,763,763,762,757,749,742,702,673,603,565,527,491,489,488,483,476,461,460],"ymouse":[530,530,530,530,530,530,530,530,530,530,530,530,530,530,530,530,530,530,530,530,530,530,530,530,530,530,530,530,530,530,529,526,497,472,434,385,333,243,213,177,160,145,130,128,128,125,120,103,97],"timestamp_mouse":[9,31,49,69,89,109,130,150,170,190,209,229,250,271,290,309,330,350,370,391,409,429,449,469,489,509,529,549,570,589,609,629,650,669,690,709,730,749,770,789,809,829,849,870,889,909,930,950,970],"xSR":733.5,"ySR":493.35,"xT1":420.09999999999997,"yT1":0,"xT2":1046.8999999999999,"yT2":0,"toosoon":0,"cond_shown":"equaldotanddens","ratio_trial":500,"smaller_num":"6","larger_num":"12","correct_side":1,"subjID":"Dianamilenaramirezquintana35","gender":"1","age":"9","school":"4"},{"start_time":1552070072072,"click_time":1552070073568,"finger_time":1552070072949,"fix_duration":402.0229180894662,"trial":32,"RT":877,"MT":619,"sideResp":2,"stimulus":"img/750/equaldotsize/R/2_Ratio_750_L_6_R_8.png","xmouse":[776,776,776,776,776,776,776,776,776,776,776,776,776,776,776,776,776,776,776,776,776,776,776,776,776,776,776,776,776,776,776,776,776,776,776,776,776,776,776,780,789,805,829,842,855,877,880,889,906,920,976,1025,1065,1104,1140,1182,1192,1201,1210,1218,1234,1241,1251,1252,1252,1248,1248,1248,1248,1248,1248,1166,1157,1151,1144],"ymouse":[540,540,540,540,540,540,540,540,540,540,540,540,540,540,540,540,540,540,540,540,540,540,540,540,540,540,540,540,540,540,540,540,540,540,540,540,540,540,540,538,534,530,527,525,524,518,517,510,496,475,398,343,301,262,222,162,149,138,129,118,94,74,44,28,14,3,3,3,3,3,3,0,8,19,31],"timestamp_mouse":[17,36,56,76,96,116,136,157,177,196,216,236,256,276,296,316,337,357,376,397,417,436,457,477,497,516,537,556,577,596,616,637,657,677,697,716,737,756,777,797,816,837,856,877,897,916,936,956,976,996,1016,1037,1056,1077,1096,1116,1136,1156,1177,1196,1216,1236,1256,1276,1296,1317,1336,1357,1376,1397,1416,1437,1456,1477,1496],"xSR":733.5,"ySR":493.35,"xT1":420.09999999999997,"yT1":0,"xT2":1046.8999999999999,"yT2":0,"toosoon":0,"cond_shown":"equaldotsize","ratio_trial":750,"smaller_num":"6","larger_num":"8","correct_side":2,"subjID":"Dianamilenaramirezquintana35","gender":"1","age":"9","school":"4"},{"start_time":1552070075211,"click_time":1552070076688,"finger_time":1552070075308,"fix_duration":741.294822548586,"trial":33,"RT":97,"MT":1380,"sideResp":1,"stimulus":"img/750/equaldotsize/L/14_Ratio_750_L_8_R_6.png","xmouse":[799,799,780,749,733,706,683,660,613,590,564,540,517,474,452,449,449,449,449,449,449,449,449,449,456,471,486,493,503,510,519,533,551,584,596,600,600,601,602,602,602,602,604,600,586,562,557,554,548,542,539,538,537,536,534,530,530,530,532,536,540,542,542,543,544,544,544,544,537,533,528,523,523,512],"ymouse":[520,520,518,512,510,504,500,497,489,485,481,478,474,467,463,462,462,462,462,462,462,462,462,462,462,462,458,455,450,450,450,449,445,432,421,415,411,406,400,394,389,379,362,313,281,230,206,182,150,138,132,132,132,132,132,136,136,136,136,132,125,116,106,95,93,93,93,93,93,93,93,93,93,93],"timestamp_mouse":[32,38,57,77,97,118,137,157,177,197,218,238,258,277,297,318,338,359,378,398,418,437,458,478,498,517,538,558,577,598,618,637,658,677,699,717,738,757,777,798,818,837,857,877,898,917,937,957,977,997,1018,1037,1059,1077,1097,1117,1137,1158,1177,1198,1217,1237,1259,1277,1298,1317,1337,1359,1377,1397,1417,1438,1458,1477],"xSR":733.5,"ySR":493.35,"xT1":420.09999999999997,"yT1":0,"xT2":1046.8999999999999,"yT2":0,"toosoon":0,"cond_shown":"equaldotsize","ratio_trial":750,"smaller_num":"6","larger_num":"8","correct_side":1,"subjID":"Dianamilenaramirezquintana35","gender":"1","age":"9","school":"4"},{"start_time":1552070079006,"click_time":1552070080288,"finger_time":1552070079789,"fix_duration":836.1464212708235,"trial":34,"RT":783,"MT":499,"sideResp":2,"stimulus":"img/750/equaldotanddens/R/12_Ratio_750_L_3_R_4.png","xmouse":[787,782,782,775,766,764,762,761,761,760,760,760,760,760,760,760,760,760,760,760,760,760,760,760,760,760,760,760,760,760,760,760,762,764,777,783,798,810,828,891,918,940,956,969,991,1002,1012,1014,1016,1015,1012,1012,1012,1012,1018,1021,1030,1039,1048,1064,1079,1083,1093,1100,1112],"ymouse":[546,547,547,549,555,557,558,558,558,558,558,558,558,558,558,558,558,558,558,558,558,558,558,558,558,558,558,558,558,558,558,558,558,556,541,533,519,510,496,444,421,400,378,355,308,289,266,259,247,229,220,215,211,208,202,200,195,190,184,172,153,145,128,111,86],"timestamp_mouse":[2,36,43,62,82,103,122,142,163,182,203,223,243,263,282,302,324,342,362,383,402,423,442,462,483,503,522,543,563,582,602,623,642,663,682,703,722,742,763,783,803,822,842,862,882,902,922,943,963,982,1003,1023,1042,1063,1082,1102,1123,1143,1162,1182,1203,1223,1242,1262,1282],"xSR":733.5,"ySR":493.35,"xT1":420.09999999999997,"yT1":0,"xT2":1046.8999999999999,"yT2":0,"toosoon":0,"cond_shown":"equaldotanddens","ratio_trial":750,"smaller_num":"3","larger_num":"4","correct_side":2,"subjID":"Dianamilenaramirezquintana35","gender":"1","age":"9","school":"4"},{"start_time":1552070081801,"click_time":1552070083088,"finger_time":1552070082688,"fix_duration":250,"trial":35,"RT":887,"MT":400,"sideResp":1,"stimulus":"img/500/equaldotanddens/L/5_Ratio_500_L_4_R_2.png","xmouse":[799,799,799,799,799,799,799,799,799,799,799,799,799,799,799,799,799,799,799,799,799,799,799,799,799,799,800,800,800,800,800,801,801,801,801,801,801,801,802,801,796,790,788,784,771,758,743,730,716,697,691,687,686,686,686,681,678,673,662,619,585,555,534,520,511],"ymouse":[549,549,549,549,549,549,549,549,549,549,549,549,549,549,549,549,549,549,549,549,549,549,549,549,549,549,548,548,548,548,548,547,547,547,547,547,546,545,544,534,527,516,507,494,453,421,381,339,297,240,219,208,205,203,202,202,201,199,193,170,149,131,118,105,91],"timestamp_mouse":[11,33,47,68,87,107,127,148,167,188,207,227,248,268,288,307,328,349,367,387,408,428,448,467,487,508,529,548,568,587,608,627,647,668,687,708,728,747,767,787,807,827,847,867,887,907,927,948,969,987,1008,1028,1047,1067,1087,1107,1127,1148,1167,1187,1207,1227,1247,1267,1287],"xSR":733.5,"ySR":493.35,"xT1":420.09999999999997,"yT1":0,"xT2":1046.8999999999999,"yT2":0,"toosoon":0,"cond_shown":"equaldotanddens","ratio_trial":500,"smaller_num":"2","larger_num":"4","correct_side":1,"subjID":"Dianamilenaramirezquintana35","gender":"1","age":"9","school":"4"},{"start_time":1552070084343,"click_time":1552070085748,"finger_time":1552070084949,"fix_duration":394.0307735874755,"trial":36,"RT":606,"MT":799,"sideResp":2,"stimulus":"img/250/randomdotsizeEA/R/11_Ratio_250_L_3_R_12.png","xmouse":[799,799,799,799,799,799,799,799,799,799,799,799,798,798,798,798,798,798,798,798,798,798,798,798,798,798,799,806,814,830,847,863,893,911,928,943,956,981,987,990,993,995,1007,1016,1028,1042,1061,1118,1163,1198,1226,1226,1226,1226,1226,1226,1226,1226,1226,1226,1226,1226,1226,1226,1226,1226,1226,1226,1226,1226,1082],"ymouse":[548,548,548,548,548,548,548,548,548,548,548,548,548,549,550,550,550,550,550,550,550,550,550,550,550,550,550,545,539,532,527,519,504,494,484,476,468,445,432,418,410,405,386,372,351,327,292,194,110,58,15,15,15,15,15,15,15,15,15,15,15,15,15,15,15,15,15,15,15,15,1],"timestamp_mouse":[11,25,46,66,85,106,125,146,166,187,206,225,246,266,286,305,327,345,366,385,405,425,446,465,485,506,525,546,566,585,606,625,645,665,685,705,725,746,765,785,806,825,845,865,885,905,926,945,965,985,1006,1027,1045,1065,1085,1105,1126,1146,1166,1186,1205,1225,1246,1266,1285,1306,1325,1345,1365,1385,1405],"xSR":733.5,"ySR":493.35,"xT1":420.09999999999997,"yT1":0,"xT2":1046.8999999999999,"yT2":0,"toosoon":0,"cond_shown":"randomdotsizeEA","ratio_trial":250,"smaller_num":"3","larger_num":"12","correct_side":2,"subjID":"Dianamilenaramirezquintana35","gender":"1","age":"9","school":"4"},{"start_time":1552070087549,"click_time":1552070088868,"finger_time":1552070088168,"fix_duration":679.8949618908132,"trial":37,"RT":619,"MT":700,"sideResp":2,"stimulus":"img/900/randomdotsizeEA/R/9_Ratio_900_L_18_R_20.png","xmouse":[769,769,769,769,769,769,769,769,769,769,769,769,769,769,769,769,769,769,769,769,770,772,772,773,773,773,776,778,783,786,794,817,830,844,856,864,877,886,891,896,900,915,927,938,949,960,975,983,987,991,994,1011,1025,1039,1052,1061,1075,1086,1092,1094,1096,1101,1106,1110,1114,1118],"ymouse":[526,526,526,526,526,526,526,526,526,526,526,526,526,526,526,526,526,526,526,526,525,524,523,522,521,520,516,513,506,501,489,455,441,426,413,404,377,356,344,333,321,294,279,263,248,233,213,206,203,202,201,199,198,195,193,189,178,163,154,146,143,128,118,109,100,91],"timestamp_mouse":[33,39,60,79,100,119,139,160,179,200,220,239,260,280,300,321,341,360,379,399,419,439,459,480,499,519,539,559,580,599,619,640,660,680,699,720,740,759,779,799,819,839,860,879,899,919,939,960,979,1000,1019,1039,1060,1080,1099,1120,1139,1159,1180,1200,1220,1239,1259,1279,1299,1319],"xSR":733.5,"ySR":493.35,"xT1":420.09999999999997,"yT1":0,"xT2":1046.8999999999999,"yT2":0,"toosoon":0,"cond_shown":"randomdotsizeEA","ratio_trial":900,"smaller_num":"18","larger_num":"20","correct_side":2,"subjID":"Dianamilenaramirezquintana35","gender":"1","age":"9","school":"4"},{"start_time":1552070091030,"click_time":1552070092248,"finger_time":1552070091470,"fix_duration":800.7773903264347,"trial":38,"RT":440,"MT":778,"sideResp":1,"stimulus":"img/900/randomdotsizeEA/R/14_Ratio_900_L_18_R_20.png","xmouse":[764,764,764,764,764,764,764,764,764,764,764,764,764,764,764,764,764,764,763,761,760,756,743,737,732,728,722,711,710,709,709,709,712,715,717,718,718,702,685,670,655,641,617,602,595,588,582,571,564,556,542,542,542,542,542,542,542,542,542,542,469],"ymouse":[525,525,525,525,525,525,525,525,525,525,525,525,525,525,525,525,525,525,520,511,501,491,459,446,436,426,415,400,398,396,395,393,384,374,362,346,324,278,253,232,212,195,165,138,123,108,92,57,43,29,7,7,7,7,7,7,7,7,7,7,2],"timestamp_mouse":[18,38,58,79,98,119,138,159,178,199,218,240,258,279,298,318,338,358,378,399,418,440,459,479,498,518,538,558,579,598,618,639,658,678,698,719,738,758,778,798,818,838,858,879,898,918,938,958,980,998,1018,1038,1058,1079,1098,1118,1138,1158,1179,1199,1218],"xSR":733.5,"ySR":493.35,"xT1":420.09999999999997,"yT1":0,"xT2":1046.8999999999999,"yT2":0,"toosoon":0,"cond_shown":"randomdotsizeEA","ratio_trial":900,"smaller_num":"18","larger_num":"20","correct_side":2,"subjID":"Dianamilenaramirezquintana35","gender":"1","age":"9","school":"4"},{"start_time":1552070094580,"click_time":1552070095748,"finger_time":1552070094848,"fix_duration":1031.228779367706,"trial":39,"RT":268,"MT":900,"sideResp":1,"stimulus":"img/250/equaldotsize/L/2_Ratio_250_L_16_R_4.png","xmouse":[775,777,777,777,777,777,777,777,777,779,792,806,823,851,882,962,1016,1042,1057,1065,1068,1068,1062,1056,1047,1033,1032,1031,1031,1031,1021,1004,973,915,849,784,701,660,640,624,586,562,545,535,531,531,535,540,545,550,557,558,558,555,549,533,512,500,493],"ymouse":[560,560,560,560,560,560,560,560,560,559,556,553,551,543,533,501,473,455,435,413,374,360,344,332,320,306,303,302,302,302,309,323,342,372,397,414,426,428,428,423,406,386,364,340,318,283,264,252,243,234,209,198,186,168,151,129,111,102,96],"timestamp_mouse":[11,38,48,68,88,108,129,148,168,189,208,228,249,268,288,309,328,348,368,388,408,428,448,468,489,508,528,549,568,588,608,628,648,668,689,708,728,748,768,788,808,828,848,868,888,908,929,948,968,988,1008,1028,1048,1069,1088,1108,1129,1148,1168],"xSR":733.5,"ySR":493.35,"xT1":420.09999999999997,"yT1":0,"xT2":1046.8999999999999,"yT2":0,"toosoon":0,"cond_shown":"equaldotsize","ratio_trial":250,"smaller_num":"4","larger_num":"16","correct_side":1,"subjID":"Dianamilenaramirezquintana35","gender":"1","age":"9","school":"4"},{"start_time":1552070100102,"click_time":1552070101429,"finger_time":1552070100929,"fix_duration":1051.9313067687758,"trial":40,"RT":827,"MT":500,"sideResp":1,"stimulus":"img/750/randomdotsizeEA/L/13_Ratio_750_L_8_R_6.png","xmouse":[804,804,804,804,804,804,804,804,804,804,804,804,804,804,804,804,804,804,804,805,806,807,808,808,808,808,808,808,808,808,808,808,810,811,813,813,814,814,814,805,793,777,753,712,613,557,504,460,420,369,368,366,366,366,366,366,366,366,366,366,366,368,368,373,395,412,427],"ymouse":[538,538,538,538,538,538,538,538,538,538,538,538,538,538,538,538,538,538,538,538,538,538,538,538,538,538,538,538,538,538,538,538,538,537,535,535,534,533,532,521,502,482,453,404,293,233,179,128,82,27,24,22,22,22,22,22,22,22,22,21,21,21,22,25,40,52,63],"timestamp_mouse":[11,30,47,67,86,107,127,148,166,186,207,228,246,267,288,307,327,347,366,387,407,428,447,467,488,507,527,546,568,587,607,626,647,666,688,706,727,747,767,786,807,827,847,866,886,907,927,946,967,987,1007,1027,1047,1067,1086,1108,1127,1148,1167,1187,1207,1227,1246,1267,1286,1307,1327],"xSR":733.5,"ySR":493.35,"xT1":420.09999999999997,"yT1":0,"xT2":1046.8999999999999,"yT2":0,"toosoon":0,"cond_shown":"randomdotsizeEA","ratio_trial":750,"smaller_num":"6","larger_num":"8","correct_side":1,"subjID":"Dianamilenaramirezquintana35","gender":"1","age":"9","school":"4"},{"start_time":1552070105314,"click_time":1552070106429,"finger_time":1552070105989,"fix_duration":524.5728408593744,"trial":41,"RT":675,"MT":440,"sideResp":2,"stimulus":"img/500/equaldotanddens/R/3_Ratio_500_L_10_R_20.png","xmouse":[772,772,772,773,773,773,773,773,773,773,773,773,773,773,773,773,773,773,774,774,775,775,775,776,777,777,777,777,777,777,778,784,809,936,1009,1075,1143,1198,1260,1260,1260,1260,1260,1260,1260,1260,1260,1260,1260,1260,1260,1260,1260,1260,1260,1110],"ymouse":[570,570,570,569,569,569,569,569,569,569,569,569,569,569,569,569,569,569,567,565,560,557,553,546,543,542,542,542,542,542,541,536,524,432,354,266,188,124,34,34,34,34,34,34,34,34,34,34,34,34,34,34,34,34,34,1],"timestamp_mouse":[14,39,55,75,94,116,134,155,176,195,214,234,254,274,296,316,335,355,374,394,415,436,455,474,494,514,535,555,576,596,614,635,654,675,694,715,734,755,774,795,815,834,855,875,894,914,934,955,975,995,1015,1034,1055,1076,1094,1115],"xSR":733.5,"ySR":493.35,"xT1":420.09999999999997,"yT1":0,"xT2":1046.8999999999999,"yT2":0,"toosoon":0,"cond_shown":"equaldotanddens","ratio_trial":500,"smaller_num":"10","larger_num":"20","correct_side":2,"subjID":"Dianamilenaramirezquintana35","gender":"1","age":"9","school":"4"},{"start_time":1552070111090,"click_time":1552070111988,"finger_time":1552070111708,"fix_duration":1480.390098639826,"trial":42,"RT":618,"MT":280,"sideResp":1,"stimulus":"img/750/randomdotsizeEA/L/9_Ratio_750_L_4_R_3.png","xmouse":[790,790,790,790,790,790,790,790,790,790,790,790,790,790,790,790,790,790,790,792,794,795,795,795,795,796,796,793,785,749,714,690,662,635,587,573,562,554,549,538,522,510,493,476,448],"ymouse":[529,529,529,529,529,529,529,529,529,529,529,529,529,529,529,529,529,529,529,527,522,519,517,516,515,515,513,512,510,500,484,468,445,417,357,335,310,287,265,225,184,158,133,110,82],"timestamp_mouse":[18,39,59,78,99,119,138,158,180,200,219,238,259,278,299,318,339,360,379,399,420,439,459,479,499,518,538,559,579,598,618,638,659,678,699,718,739,759,780,798,818,838,858,878,898],"xSR":733.5,"ySR":493.35,"xT1":420.09999999999997,"yT1":0,"xT2":1046.8999999999999,"yT2":0,"toosoon":0,"cond_shown":"randomdotsizeEA","ratio_trial":750,"smaller_num":"3","larger_num":"4","correct_side":1,"subjID":"Dianamilenaramirezquintana35","gender":"1","age":"9","school":"4"},{"start_time":1552070114610,"click_time":1552070115749,"finger_time":1552070115129,"fix_duration":1380.5395581520313,"trial":43,"RT":519,"MT":620,"sideResp":2,"stimulus":"img/900/equaldotsize/R/3_Ratio_900_L_9_R_10.png","xmouse":[790,790,790,790,790,790,790,790,790,790,790,790,790,790,790,790,790,790,786,783,775,767,761,751,749,747,747,747,747,747,747,747,747,754,765,771,774,776,776,776,776,776,776,777,781,791,804,824,868,891,909,926,945,1015,1053,1080,1093],"ymouse":[561,561,561,561,561,561,561,561,561,561,561,561,561,561,561,560,559,555,541,534,525,515,508,497,494,492,491,490,490,489,488,487,487,484,482,482,482,482,482,482,482,482,482,482,480,478,475,470,452,441,424,404,360,219,155,105,78],"timestamp_mouse":[19,39,59,79,99,120,139,159,178,198,219,240,259,280,299,320,340,360,378,400,420,438,459,478,498,519,539,558,578,598,618,639,658,679,698,719,739,758,778,799,820,838,858,878,898,919,940,958,978,998,1018,1039,1060,1078,1099,1118,1139],"xSR":733.5,"ySR":493.35,"xT1":420.09999999999997,"yT1":0,"xT2":1046.8999999999999,"yT2":0,"toosoon":0,"cond_shown":"equaldotsize","ratio_trial":900,"smaller_num":"9","larger_num":"10","correct_side":2,"subjID":"Dianamilenaramirezquintana35","gender":"1","age":"9","school":"4"},{"start_time":1552070117533,"click_time":1552070118810,"finger_time":1552070117928,"fix_duration":723.9113017339998,"trial":44,"RT":395,"MT":882,"sideResp":2,"stimulus":"img/900/equaldotanddens/L/10_Ratio_900_L_20_R_18.png","xmouse":[786,786,786,786,786,786,786,786,786,786,786,786,786,786,786,786,786,772,754,731,714,697,679,672,667,666,665,665,665,665,665,665,665,665,665,665,668,678,688,704,732,753,786,802,818,836,854,909,935,958,963,969,977,979,980,980,982,986,994,1000,1009,1020,1048,1063],"ymouse":[548,548,548,548,548,548,548,548,548,548,548,548,548,548,548,548,548,542,534,523,513,501,477,465,454,449,446,446,446,446,446,446,446,446,446,447,451,458,461,464,465,465,459,452,441,427,415,356,324,295,287,276,258,253,249,245,240,231,218,206,190,169,121,95],"timestamp_mouse":[16,35,55,76,97,116,137,155,176,197,216,235,256,277,297,316,336,355,376,395,417,435,455,475,495,516,537,556,576,595,616,636,656,677,695,715,736,755,776,796,815,835,856,875,896,915,936,955,977,996,1016,1037,1057,1077,1095,1115,1137,1155,1175,1195,1216,1235,1256,1277],"xSR":733.5,"ySR":493.35,"xT1":420.09999999999997,"yT1":0,"xT2":1046.8999999999999,"yT2":0,"toosoon":0,"cond_shown":"equaldotanddens","ratio_trial":900,"smaller_num":"18","larger_num":"20","correct_side":1,"subjID":"Dianamilenaramirezquintana35","gender":"1","age":"9","school":"4"},{"start_time":1552070120956,"click_time":1552070121988,"finger_time":1552070121408,"fix_duration":1067.095425485992,"trial":45,"RT":452,"MT":580,"sideResp":1,"stimulus":"img/500/randomdotsizeEA/L/13_Ratio_500_L_12_R_6.png","xmouse":[797,797,797,797,797,797,797,797,797,797,797,797,797,797,797,797,797,797,797,797,796,744,707,686,664,644,616,608,604,603,602,597,593,587,577,562,516,508,480,464,450,427,420,415,414,412,412,415,418,425,434,448],"ymouse":[516,516,516,516,516,516,516,516,516,516,516,516,516,516,516,516,516,516,516,516,516,505,497,489,484,479,470,468,467,465,460,440,422,402,380,357,300,289,248,228,207,163,146,136,131,128,127,124,121,113,102,85],"timestamp_mouse":[23,38,53,74,92,112,134,153,172,193,212,232,254,272,293,313,333,352,373,393,412,432,452,473,492,514,533,553,572,593,614,632,652,672,693,712,733,753,772,792,812,833,852,873,894,912,932,952,972,992,1013,1032],"xSR":733.5,"ySR":493.35,"xT1":420.09999999999997,"yT1":0,"xT2":1046.8999999999999,"yT2":0,"toosoon":0,"cond_shown":"randomdotsizeEA","ratio_trial":500,"smaller_num":"6","larger_num":"12","correct_side":1,"subjID":"Dianamilenaramirezquintana35","gender":"1","age":"9","school":"4"},{"start_time":1552070127888,"click_time":1552070128889,"finger_time":1552070128428,"fix_duration":679.0353935011224,"trial":46,"RT":540,"MT":461,"sideResp":2,"stimulus":"img/500/equaldotanddens/R/9_Ratio_500_L_2_R_4.png","xmouse":[753,753,753,753,754,755,755,755,755,755,755,755,755,755,755,755,756,758,759,761,768,771,775,780,788,812,824,837,854,874,939,981,1063,1130,1191,1264,1264,1264,1264,1264,1264,1264,1264,1264,1264,1264,1264,1264,1264,1264,1118],"ymouse":[534,534,534,532,531,531,531,530,530,530,530,530,530,530,530,530,530,529,529,529,529,529,529,529,529,527,525,521,513,498,442,391,279,179,94,12,12,12,12,12,12,12,12,12,12,12,12,12,12,12,19],"timestamp_mouse":[3,20,42,61,81,102,121,142,161,181,202,221,242,261,281,301,322,342,362,382,401,422,442,461,481,501,521,540,560,582,600,621,641,662,682,700,720,740,760,781,800,820,842,861,880,900,921,940,960,981,1001],"xSR":733.5,"ySR":493.35,"xT1":420.09999999999997,"yT1":0,"xT2":1046.8999999999999,"yT2":0,"toosoon":0,"cond_shown":"equaldotanddens","ratio_trial":500,"smaller_num":"2","larger_num":"4","correct_side":2,"subjID":"Dianamilenaramirezquintana35","gender":"1","age":"9","school":"4"},{"start_time":1552070131001,"click_time":1552070132068,"finger_time":1552070131488,"fix_duration":612.416222777295,"trial":47,"RT":487,"MT":580,"sideResp":1,"stimulus":"img/900/equaldotanddens/L/8_Ratio_900_L_20_R_18.png","xmouse":[755,754,754,754,754,754,754,754,754,754,754,754,754,754,756,757,759,760,761,761,763,767,771,776,782,783,779,765,741,686,669,659,654,652,647,642,633,623,610,576,558,537,518,506,500,500,500,501,502,504,505,506,507,507],"ymouse":[526,526,526,526,526,526,526,526,526,526,526,526,526,526,527,527,528,528,528,528,528,526,523,518,492,477,454,435,408,352,327,310,294,281,258,246,230,216,207,186,175,163,151,142,129,123,120,117,116,111,108,104,100,93],"timestamp_mouse":[8,28,48,69,88,108,129,149,169,189,208,228,249,268,289,308,328,347,367,387,407,427,449,468,487,507,528,548,569,587,607,627,647,667,687,708,728,748,767,787,808,828,848,868,887,909,929,948,967,987,1007,1027,1047,1067],"xSR":733.5,"ySR":493.35,"xT1":420.09999999999997,"yT1":0,"xT2":1046.8999999999999,"yT2":0,"toosoon":0,"cond_shown":"equaldotanddens","ratio_trial":900,"smaller_num":"18","larger_num":"20","correct_side":1,"subjID":"Dianamilenaramirezquintana35","gender":"1","age":"9","school":"4"},{"start_time":1552070135454,"click_time":1552070137628,"finger_time":1552070136770,"fix_duration":784.8279938699849,"trial":48,"RT":1316,"MT":858,"sideResp":2,"stimulus":"img/750/equaldotanddens/R/12_Ratio_750_L_3_R_4.png","xmouse":[770,770,770,770,770,770,770,770,770,770,770,770,770,770,770,770,770,770,770,770,770,770,770,770,770,770,770,770,770,770,770,770,770,770,770,770,770,770,770,770,770,770,770,770,770,770,770,770,770,770,770,770,770,770,770,770,770,770,770,770,770,770,770,770,775,794,834,806,732,559,509,515,542,596,628,653,701,729,742,797,879,1034,1087,1118,1160,1206,1271,1282,1287,1287,1279,1211,1167,1138,1113,1096,1093,1092,1091,1090,1088,1087,1087,1087,1088,1090,1099,1107,1115],"ymouse":[566,566,566,566,566,566,566,566,566,566,566,566,566,566,566,566,566,566,566,566,566,566,566,566,566,566,566,566,566,566,566,566,566,566,566,566,566,566,566,566,566,566,566,566,566,566,566,566,566,566,566,566,566,566,566,566,566,566,566,566,566,566,566,566,545,485,286,272,269,301,329,328,320,307,299,293,276,269,265,257,256,256,272,291,311,331,347,348,341,326,301,227,190,167,151,142,141,141,141,141,142,143,143,143,142,139,123,109,96],"timestamp_mouse":[14,35,54,76,96,115,136,154,175,194,215,234,256,274,296,315,336,354,375,396,415,434,455,474,495,514,536,555,575,595,615,636,654,675,694,715,735,754,776,796,815,836,855,875,895,916,936,955,975,994,1016,1035,1055,1074,1094,1116,1135,1155,1174,1195,1215,1235,1254,1274,1295,1316,1335,1355,1374,1394,1416,1435,1455,1474,1495,1514,1534,1557,1575,1595,1615,1634,1655,1676,1695,1714,1734,1754,1775,1795,1814,1835,1855,1875,1896,1915,1935,1954,1975,1996,2015,2034,2055,2075,2094,2115,2134,2154,2174],"xSR":733.5,"ySR":493.35,"xT1":420.09999999999997,"yT1":0,"xT2":1046.8999999999999,"yT2":0,"toosoon":0,"cond_shown":"equaldotanddens","ratio_trial":750,"smaller_num":"3","larger_num":"4","correct_side":2,"subjID":"Dianamilenaramirezquintana35","gender":"1","age":"9","school":"4"},{"start_time":1552070143454,"click_time":1552070145088,"finger_time":1552070143470,"fix_duration":1042.6910044914162,"trial":49,"RT":16,"MT":1618,"sideResp":2,"stimulus":"img/250/randomdotsizeEA/R/11_Ratio_250_L_3_R_12.png","xmouse":[796,796,796,796,796,796,796,796,796,796,796,796,796,796,796,796,796,796,796,796,796,930,930,931,933,935,945,950,954,955,955,955,955,956,956,956,956,957,961,971,974,976,975,969,961,956,943,930,915,897,878,846,838,837,837,836,829,822,814,807,802,802,802,804,808,808,831,914,987,1011,1014,1014,1015,1015,1015,1015,1018,1028,1048,1070,1087,1098],"ymouse":[618,618,618,618,618,618,618,618,618,618,618,618,618,618,618,618,618,618,618,618,618,719,697,681,669,659,622,606,597,595,595,595,595,594,593,592,592,590,583,565,556,539,521,505,490,478,451,433,419,408,399,376,370,369,369,369,369,369,377,386,398,410,410,410,409,409,396,357,311,282,260,239,239,239,239,239,237,225,207,184,153,93],"timestamp_mouse":[16,36,54,74,94,116,135,155,176,196,216,235,262,275,294,315,334,354,374,395,414,434,455,475,496,516,534,554,574,594,614,635,654,674,694,715,735,754,774,796,815,835,856,876,896,914,934,955,975,995,1014,1035,1054,1074,1094,1114,1135,1154,1175,1194,1215,1236,1254,1276,1294,1314,1334,1354,1374,1395,1416,1436,1455,1474,1494,1514,1534,1554,1575,1596,1615,1634],"xSR":733.5,"ySR":493.35,"xT1":420.09999999999997,"yT1":0,"xT2":1046.8999999999999,"yT2":0,"toosoon":0,"cond_shown":"randomdotsizeEA","ratio_trial":250,"smaller_num":"3","larger_num":"12","correct_side":2,"subjID":"Dianamilenaramirezquintana35","gender":"1","age":"9","school":"4"},{"start_time":1552070150141,"click_time":1552070151188,"finger_time":1552070150628,"fix_duration":1431.7084533753566,"trial":50,"RT":487,"MT":560,"sideResp":1,"stimulus":"img/750/equaldotsize/L/1_Ratio_750_L_20_R_15.png","xmouse":[756,756,755,754,754,754,753,753,753,753,753,753,753,753,753,753,753,753,753,753,753,752,748,743,738,737,736,736,736,736,734,734,725,715,701,677,655,624,608,597,584,575,564,560,557,556,553,551,549,544,537,528,495],"ymouse":[510,510,511,511,511,511,512,512,512,512,512,512,512,512,512,512,512,512,512,512,512,511,504,497,493,491,490,490,490,490,488,488,475,458,434,392,336,232,165,127,97,74,45,36,30,25,22,18,18,17,16,14,13],"timestamp_mouse":[8,32,47,69,88,108,128,149,167,188,207,227,247,269,288,309,328,348,367,387,409,427,448,467,487,508,528,548,568,589,609,629,649,669,688,709,727,747,768,787,807,828,847,868,888,907,928,947,967,987,1008,1027,1047],"xSR":733.5,"ySR":493.35,"xT1":420.09999999999997,"yT1":0,"xT2":1046.8999999999999,"yT2":0,"toosoon":0,"cond_shown":"equaldotsize","ratio_trial":750,"smaller_num":"15","larger_num":"20","correct_side":1,"subjID":"Dianamilenaramirezquintana35","gender":"1","age":"9","school":"4"},{"start_time":1552070154017,"click_time":1552070156188,"finger_time":1552070154688,"fix_duration":1428.8182405130724,"trial":51,"RT":671,"MT":1500,"sideResp":2,"stimulus":"img/500/equaldotsize/R/9_Ratio_500_L_2_R_4.png","xmouse":[777,777,777,777,777,777,777,778,778,778,778,778,778,778,778,778,778,778,778,778,778,778,778,778,778,778,778,778,778,777,776,776,776,774,768,767,767,767,767,767,767,767,767,767,764,761,759,755,753,753,753,753,753,753,753,753,753,753,753,750,746,744,744,749,749,750,751,752,753,756,757,760,763,769,772,774,776,778,779,779,779,783,785,785,779,779,779,780,811,836,855,866,872,882,901,913,927,945,990,1011,1028,1034,1035,1035,1035,1036,1042,1047,1060],"ymouse":[516,516,516,516,516,516,515,514,512,511,511,511,511,511,511,511,511,511,511,511,511,511,511,511,511,509,507,502,498,496,496,495,494,488,476,470,469,469,469,469,469,469,469,469,469,469,469,468,467,467,467,467,467,467,467,467,467,467,467,468,476,488,496,501,502,502,502,503,503,504,504,504,504,497,488,479,467,448,404,381,356,335,317,282,264,260,259,258,258,258,258,256,253,249,240,236,233,230,216,210,200,189,176,157,145,138,128,120,99],"timestamp_mouse":[11,32,52,72,93,112,131,151,171,192,212,231,251,273,292,312,331,352,372,393,412,432,452,472,491,511,532,551,572,593,612,631,651,671,692,711,732,752,771,792,812,831,851,871,891,912,932,951,971,992,1012,1031,1053,1072,1092,1113,1133,1152,1171,1191,1212,1231,1251,1272,1292,1312,1331,1352,1372,1391,1411,1432,1453,1473,1491,1511,1532,1551,1571,1591,1611,1631,1652,1672,1692,1712,1732,1751,1771,1791,1812,1831,1853,1871,1892,1911,1931,1951,1971,1991,2011,2031,2051,2071,2091,2111,2131,2151,2171],"xSR":733.5,"ySR":493.35,"xT1":420.09999999999997,"yT1":0,"xT2":1046.8999999999999,"yT2":0,"toosoon":0,"cond_shown":"equaldotsize","ratio_trial":500,"smaller_num":"2","larger_num":"4","correct_side":2,"subjID":"Dianamilenaramirezquintana35","gender":"1","age":"9","school":"4"},{"start_time":1552070158251,"click_time":1552070159489,"finger_time":1552070158949,"fix_duration":1101.6234277073384,"trial":52,"RT":698,"MT":540,"sideResp":2,"stimulus":"img/900/equaldotanddens/R/11_Ratio_900_L_18_R_20.png","xmouse":[811,811,811,811,811,811,811,811,811,811,811,811,811,811,811,811,811,811,811,811,811,811,811,811,811,811,811,811,811,811,811,815,819,831,839,847,860,871,885,900,923,960,983,997,1012,1026,1036,1037,1037,1037,1040,1051,1056,1058,1058,1059,1059,1059,1059,1059,1060,1067],"ymouse":[527,527,527,527,527,527,527,527,527,527,527,527,527,527,527,527,527,527,527,527,527,527,527,527,527,527,527,527,527,527,527,526,521,506,495,483,464,451,439,429,413,385,364,348,330,310,277,257,234,212,188,145,123,116,112,110,110,110,109,108,106,99],"timestamp_mouse":[18,37,66,78,98,119,138,158,177,197,219,239,257,278,298,318,339,357,379,399,417,437,459,478,498,518,539,558,578,597,619,638,658,677,698,717,738,758,778,799,818,837,858,879,899,919,939,958,978,997,1018,1037,1058,1077,1099,1118,1139,1158,1178,1199,1218,1238],"xSR":733.5,"ySR":493.35,"xT1":420.09999999999997,"yT1":0,"xT2":1046.8999999999999,"yT2":0,"toosoon":0,"cond_shown":"equaldotanddens","ratio_trial":900,"smaller_num":"18","larger_num":"20","correct_side":2,"subjID":"Dianamilenaramirezquintana35","gender":"1","age":"9","school":"4"},{"start_time":1552070165741,"click_time":1552070166968,"finger_time":1552070166489,"fix_duration":1130.127621400366,"trial":53,"RT":748,"MT":479,"sideResp":1,"stimulus":"img/500/equaldotanddens/L/5_Ratio_500_L_4_R_2.png","xmouse":[790,790,790,790,790,790,790,790,790,790,790,790,790,790,790,790,790,790,790,790,790,791,791,791,791,791,791,791,791,791,791,791,791,791,791,791,786,728,707,656,611,574,506,473,453,438,429,421,420,420,420,420,420,420,420,420,420,420,420,420,420,421],"ymouse":[552,552,552,552,552,552,552,552,552,552,552,552,552,552,552,552,552,551,551,551,551,550,550,550,550,550,550,550,550,550,550,550,550,550,548,546,535,456,426,333,273,225,160,138,128,122,115,106,100,96,94,92,90,89,89,89,89,89,88,86,85,82],"timestamp_mouse":[10,28,49,68,87,107,129,149,168,188,207,227,248,268,289,308,329,348,368,388,409,429,447,469,487,509,529,549,569,587,607,628,648,668,688,709,729,748,768,788,809,827,848,867,888,908,928,948,967,987,1008,1028,1048,1068,1088,1108,1127,1147,1167,1188,1208,1227],"xSR":733.5,"ySR":493.35,"xT1":420.09999999999997,"yT1":0,"xT2":1046.8999999999999,"yT2":0,"toosoon":0,"cond_shown":"equaldotanddens","ratio_trial":500,"smaller_num":"2","larger_num":"4","correct_side":1,"subjID":"Dianamilenaramirezquintana35","gender":"1","age":"9","school":"4"},{"start_time":1552070171209,"click_time":1552070172689,"finger_time":1552070171848,"fix_duration":518.4454756884321,"trial":54,"RT":639,"MT":841,"sideResp":2,"stimulus":"img/500/equaldotanddens/R/14_Ratio_500_L_5_R_10.png","xmouse":[807,807,807,807,807,807,807,807,807,807,807,807,807,807,807,807,807,807,807,807,807,807,807,807,807,807,808,808,808,811,819,825,839,853,881,888,904,915,927,952,966,984,1004,1024,1048,1049,1049,1049,1049,1049,1049,1049,1049,1049,1049,1049,1049,1049,1049,1052,1053,1053,1053,1053,1058,1062,1065,1068,1068,1071,1071,1072,1073,1075,1076],"ymouse":[565,565,565,565,565,565,565,565,565,565,565,565,565,565,565,565,565,565,565,565,565,565,565,565,565,565,565,565,565,565,562,559,550,539,515,509,482,462,441,404,387,365,343,321,296,290,279,270,266,258,255,248,240,230,210,196,188,181,176,169,168,168,168,166,163,161,160,157,156,148,142,136,126,115,84],"timestamp_mouse":[8,36,41,60,81,101,120,140,160,181,199,220,240,259,281,299,320,341,360,380,400,420,441,461,481,500,519,540,560,580,599,619,639,660,680,700,720,740,760,780,799,820,839,860,879,901,920,940,959,979,1000,1020,1040,1060,1079,1100,1120,1140,1161,1179,1200,1221,1240,1260,1280,1301,1320,1340,1359,1380,1399,1420,1440,1461,1479],"xSR":733.5,"ySR":493.35,"xT1":420.09999999999997,"yT1":0,"xT2":1046.8999999999999,"yT2":0,"toosoon":0,"cond_shown":"equaldotanddens","ratio_trial":500,"smaller_num":"5","larger_num":"10","correct_side":2,"subjID":"Dianamilenaramirezquintana35","gender":"1","age":"9","school":"4"},{"start_time":1552070175046,"click_time":1552070175889,"finger_time":1552070175588,"fix_duration":1195.373332112809,"trial":55,"RT":542,"MT":301,"sideResp":1,"stimulus":"img/250/randomdotsizeEA/L/14_Ratio_250_L_12_R_3.png","xmouse":[776,776,776,776,776,776,776,776,774,772,768,762,754,751,749,749,749,749,749,747,746,746,746,746,745,742,735,710,698,682,657,635,577,552,529,523,520,518,518,518,518,517,491],"ymouse":[532,532,532,532,532,532,532,532,532,534,535,537,539,539,541,541,541,541,541,541,541,541,541,541,541,535,524,488,467,438,396,354,258,217,180,167,159,149,146,142,136,129,90],"timestamp_mouse":[11,24,42,64,83,103,124,143,162,184,204,223,243,264,282,302,323,344,364,382,402,422,444,463,483,503,523,542,563,583,603,624,642,664,683,703,722,742,764,783,802,822,843],"xSR":733.5,"ySR":493.35,"xT1":420.09999999999997,"yT1":0,"xT2":1046.8999999999999,"yT2":0,"toosoon":0,"cond_shown":"randomdotsizeEA","ratio_trial":250,"smaller_num":"3","larger_num":"12","correct_side":1,"subjID":"Dianamilenaramirezquintana35","gender":"1","age":"9","school":"4"},{"start_time":1552070179362,"click_time":1552070180788,"finger_time":1552070180149,"fix_duration":1072.1889263826454,"trial":56,"RT":787,"MT":639,"sideResp":2,"stimulus":"img/750/equaldotanddens/R/3_Ratio_750_L_15_R_20.png","xmouse":[778,778,778,778,778,778,778,778,778,778,778,778,778,778,778,778,779,781,782,783,785,787,787,788,788,788,788,788,788,788,788,788,788,788,788,788,793,808,823,836,855,896,914,926,939,947,960,964,972,976,979,986,989,992,996,996,996,996,996,996,998,1002,1005,1009,1012,1018,1027,1037,1042,1051,1059,1079],"ymouse":[522,522,522,522,522,522,522,522,522,522,522,522,522,523,523,523,524,525,525,526,526,527,527,527,527,527,527,527,527,527,527,527,527,527,527,527,527,519,509,499,491,474,465,458,450,444,434,426,409,397,380,337,313,286,261,234,187,172,154,148,143,137,134,132,130,127,124,120,118,112,106,88],"timestamp_mouse":[16,39,47,67,88,108,127,147,168,187,208,227,246,267,288,308,326,346,366,388,407,428,447,466,488,508,527,546,567,588,607,628,647,666,688,706,726,747,768,787,806,828,848,868,887,908,926,947,967,986,1006,1026,1047,1067,1087,1108,1127,1147,1167,1187,1206,1227,1247,1268,1287,1308,1327,1347,1366,1387,1407,1426],"xSR":733.5,"ySR":493.35,"xT1":420.09999999999997,"yT1":0,"xT2":1046.8999999999999,"yT2":0,"toosoon":0,"cond_shown":"equaldotanddens","ratio_trial":750,"smaller_num":"15","larger_num":"20","correct_side":2,"subjID":"Dianamilenaramirezquintana35","gender":"1","age":"9","school":"4"},{"start_time":1552070182288,"click_time":1552070183889,"finger_time":1552070182930,"fix_duration":498.3373644936019,"trial":57,"RT":642,"MT":959,"sideResp":2,"stimulus":"img/250/equaldotsize/R/12_Ratio_250_L_5_R_20.png","xmouse":[806,806,806,806,806,806,806,806,806,806,806,806,806,806,806,806,806,806,806,806,806,806,806,806,806,806,806,806,809,811,818,822,841,852,863,892,911,932,946,958,979,988,992,997,1001,1008,1008,1008,1008,1007,1006,1006,1009,1012,1014,1014,1014,1014,1014,1014,1016,1018,1022,1026,1029,1034,1036,1036,1037,1037,1037,1037,1037,1037,1037,1037,1037,1037,1038,1040,1049],"ymouse":[514,514,514,514,514,514,514,514,514,514,514,514,514,514,514,514,514,514,514,514,514,514,514,514,514,514,514,514,514,514,514,514,509,504,496,476,468,456,446,436,416,402,393,387,377,351,337,321,303,286,251,228,214,204,196,187,186,186,186,186,184,180,172,162,151,124,110,100,94,91,91,91,91,91,91,91,91,90,90,89,85],"timestamp_mouse":[10,30,41,60,82,101,121,140,160,181,201,220,241,262,281,301,321,342,362,381,400,421,442,462,481,501,521,542,562,582,600,621,642,661,682,701,721,741,760,780,800,821,841,860,880,901,921,940,961,982,1001,1021,1041,1060,1081,1100,1121,1142,1161,1180,1200,1221,1242,1262,1281,1301,1322,1342,1362,1382,1401,1421,1441,1461,1481,1502,1521,1541,1562,1581,1600],"xSR":733.5,"ySR":493.35,"xT1":420.09999999999997,"yT1":0,"xT2":1046.8999999999999,"yT2":0,"toosoon":0,"cond_shown":"equaldotsize","ratio_trial":250,"smaller_num":"5","larger_num":"20","correct_side":2,"subjID":"Dianamilenaramirezquintana35","gender":"1","age":"9","school":"4"},{"start_time":1552070185439,"click_time":1552070186449,"finger_time":1552070185869,"fix_duration":648.7915906753345,"trial":58,"RT":430,"MT":580,"sideResp":2,"stimulus":"img/250/equaldotsize/R/6_Ratio_250_L_6_R_24.png","xmouse":[805,805,805,805,805,805,805,805,805,805,805,805,805,805,805,805,805,805,806,807,808,810,817,828,843,861,881,934,956,977,994,1008,1028,1035,1041,1046,1053,1062,1064,1065,1067,1068,1069,1070,1071,1073,1076,1081,1082,1084,1085],"ymouse":[506,506,506,506,506,506,506,505,504,504,503,502,502,502,502,502,502,502,501,498,495,490,475,462,450,437,422,381,363,347,332,319,293,280,271,260,249,229,219,211,204,199,190,187,183,177,165,137,121,107,98],"timestamp_mouse":[11,30,50,69,90,110,131,150,170,191,210,229,250,270,290,310,330,351,370,391,410,430,450,470,489,509,529,551,571,591,611,631,650,670,689,710,729,750,770,789,809,829,850,870,889,909,929,950,970,989,1010],"xSR":733.5,"ySR":493.35,"xT1":420.09999999999997,"yT1":0,"xT2":1046.8999999999999,"yT2":0,"toosoon":0,"cond_shown":"equaldotsize","ratio_trial":250,"smaller_num":"6","larger_num":"24","correct_side":2,"subjID":"Dianamilenaramirezquintana35","gender":"1","age":"9","school":"4"},{"start_time":1552070188293,"click_time":1552070189548,"finger_time":1552070188709,"fix_duration":662.6113578478369,"trial":59,"RT":416,"MT":839,"sideResp":1,"stimulus":"img/900/equaldotsize/L/8_Ratio_900_L_20_R_18.png","xmouse":[814,814,814,814,814,812,808,805,801,790,786,780,776,772,768,767,767,767,764,751,731,714,696,679,647,628,612,596,581,544,536,522,530,553,596,605,609,609,605,604,606,610,610,612,612,612,612,608,604,599,599,599,599,599,599,599,558,556,550,542,531,522,514],"ymouse":[516,516,516,516,517,517,518,518,518,519,519,519,519,520,520,520,520,520,520,522,523,523,523,523,523,523,523,523,523,523,523,523,516,501,473,461,442,417,389,345,319,276,235,193,113,82,56,33,16,1,1,1,1,1,1,1,9,14,21,31,38,41,45],"timestamp_mouse":[17,36,55,77,96,116,136,157,175,195,217,237,255,275,296,316,337,355,377,396,416,435,456,476,496,516,535,555,576,596,616,636,657,675,696,715,736,756,776,795,816,836,856,877,896,915,936,955,976,995,1015,1036,1057,1076,1097,1116,1135,1157,1178,1195,1216,1235,1255],"xSR":733.5,"ySR":493.35,"xT1":420.09999999999997,"yT1":0,"xT2":1046.8999999999999,"yT2":0,"toosoon":0,"cond_shown":"equaldotsize","ratio_trial":900,"smaller_num":"18","larger_num":"20","correct_side":1,"subjID":"Dianamilenaramirezquintana35","gender":"1","age":"9","school":"4"},{"start_time":1552070191742,"click_time":1552070192489,"finger_time":1552070192248,"fix_duration":250,"trial":60,"RT":506,"MT":241,"sideResp":2,"stimulus":"img/500/equaldotsize/R/6_Ratio_500_L_9_R_18.png","xmouse":[816,814,813,813,813,813,813,813,813,813,813,813,813,811,807,805,803,799,799,799,799,798,799,802,806,812,819,852,928,980,1026,1041,1060,1071,1074,1078,1081,1087],"ymouse":[508,508,508,508,508,508,509,509,509,509,509,510,513,516,520,521,524,526,526,526,526,525,523,513,504,491,475,438,387,350,311,288,235,206,180,154,131,86],"timestamp_mouse":[8,34,46,67,86,108,126,147,168,186,208,227,247,266,287,306,327,348,366,386,407,427,446,467,487,506,528,547,567,586,607,627,647,666,686,706,726,746],"xSR":733.5,"ySR":493.35,"xT1":420.09999999999997,"yT1":0,"xT2":1046.8999999999999,"yT2":0,"toosoon":0,"cond_shown":"equaldotsize","ratio_trial":500,"smaller_num":"9","larger_num":"18","correct_side":2,"subjID":"Dianamilenaramirezquintana35","gender":"1","age":"9","school":"4"},{"start_time":1552070194429,"click_time":1552070195150,"finger_time":1552070194889,"fix_duration":779.7846595674685,"trial":61,"RT":460,"MT":261,"sideResp":1,"stimulus":"img/500/equaldotanddens/L/8_Ratio_500_L_8_R_4.png","xmouse":[794,794,794,794,794,793,793,793,793,793,793,793,793,793,793,793,793,793,793,793,793,793,793,790,783,773,757,682,631,583,548,521,506,501,496,492],"ymouse":[505,505,505,505,504,504,504,504,504,504,504,504,504,504,504,504,504,504,503,501,500,498,493,485,475,464,450,391,347,307,269,228,170,144,108,85],"timestamp_mouse":[37,41,60,80,100,120,141,160,179,201,220,240,259,280,301,320,340,359,379,399,419,440,460,480,499,520,541,560,580,600,620,639,659,680,700,721],"xSR":733.5,"ySR":493.35,"xT1":420.09999999999997,"yT1":0,"xT2":1046.8999999999999,"yT2":0,"toosoon":0,"cond_shown":"equaldotanddens","ratio_trial":500,"smaller_num":"4","larger_num":"8","correct_side":1,"subjID":"Dianamilenaramirezquintana35","gender":"1","age":"9","school":"4"},{"start_time":1552070197593,"click_time":1552070198770,"finger_time":1552070198328,"fix_duration":1403.4083762694424,"trial":62,"RT":735,"MT":442,"sideResp":2,"stimulus":"img/500/randomdotsizeEA/R/1_Ratio_500_L_9_R_18.png","xmouse":[768,769,769,769,769,769,769,770,770,771,771,771,771,771,772,772,772,772,772,772,773,773,773,773,773,773,773,773,773,773,773,774,775,780,793,805,837,864,896,944,963,982,1000,1020,1060,1084,1117,1132,1153,1155,115