[{"start_time":1552069027048,"click_time":1552069033816,"finger_time":1552069028316,"fix_duration":828.5296217810613,"trial":0,"RT":1268,"MT":5500,"sideResp":1,"stimulus":[],"xmouse":[782,782,782,782,783,783,783,783,783,783,783,783,783,783,783,783,783,783,783,783,783,783,783,783,783,783,783,783,783,783,783,783,783,783,783,783,783,783,783,783,783,783,783,783,783,783,783,783,783,783,783,783,783,783,783,783,783,783,783,784,791,806,826,862,889,959,978,995,1006,1010,1013,1013,1013,1013,1013,1013,1013,1013,1013,1006,946,899,859,845,847,1082,1155,1165,1165,1165,1154,1145,1123,1104,1090,1107,1150,1215,1282,1335,1384,1384,1384,1384,1384,1384,1384,1384,1384,1564,1443,1443,1443,1443,1443,1443,1390,1285,1114,942,818,840,918,1040,1164,1164,1164,1164,1164,1164,1164,1164,1164,1164,1164,1164,1164,1164,1164,1164,1164,1164,1164,1164,1164,1164,1164,1164,1164,1164,1164,1164,1164,1164,1164,1164,1164,1164,1164,1164,1164,1164,1164,1164,1164,1164,1164,1164,1164,1164,1164,1164,1164,1164,1164,1164,1164,1164,1164,1164,1164,1564,1550,1539,1533,1532,1532,1532,1532,1535,1555,1558,1558,1558,1558,1558,1556,1552,1547,1538,1526,1520,1519,1519,1519,1519,1519,1519,1519,1519,1519,1519,1519,1514,1500,1460,1441,1424,1417,1412,1406,1405,1404,1404,1403,1403,1403,1401,1400,1394,1375,1361,1344,1305,1293,1236,1213,1194,1172,1156,1131,1120,1108,1093,1077,1045,1039,1038,1038,1038,1038,1038,1038,1038,1038,1038,1038,1038,1038,1038,1038,1037,1037,1037,1037,1034,1033,1032,1029,1026,1008,987,963,939,913,860,842,823,804,788,776,776,776,776,776,776,776,776,776,776,776,775,774,773,769,762,752,731,698,633,416,257,117,17,17,17,17,17,4,36,36,36,36,36,36,36,36,36,36,36,36,36,36,283,283,284,284,284,287,290,306,319,333,351,369,400,409,420,429],"ymouse":[529,529,529,530,530,530,530,530,530,530,530,530,530,530,530,530,530,530,530,530,530,530,530,530,530,530,530,530,530,530,530,530,530,530,530,530,530,530,530,530,530,530,530,530,530,530,530,530,530,530,530,530,530,530,530,530,530,530,530,530,525,517,508,495,488,471,465,460,456,453,450,450,450,450,450,450,450,450,449,448,470,494,517,530,536,517,495,488,488,488,485,488,500,514,533,556,571,589,615,658,722,722,722,722,722,722,722,722,722,662,34,34,34,34,34,34,27,161,286,397,525,543,566,618,700,700,700,700,700,700,700,700,700,700,700,700,700,700,700,700,700,700,700,700,700,700,700,700,700,700,700,700,700,700,700,700,700,700,700,700,700,700,700,700,700,700,700,700,700,700,700,700,700,700,700,700,700,700,700,700,700,715,699,686,682,681,681,681,680,680,680,680,680,680,680,677,669,657,641,627,603,594,589,588,588,588,588,588,588,588,588,588,588,588,585,574,569,564,562,561,561,561,561,561,561,561,561,561,561,561,561,561,560,553,550,532,525,516,500,489,474,469,464,452,441,421,418,418,418,418,418,418,418,418,418,418,418,418,418,418,418,418,418,419,421,425,426,429,433,436,448,452,454,454,454,456,456,457,457,458,460,460,460,460,460,460,460,460,460,460,460,460,460,460,461,463,466,469,470,470,390,317,228,134,134,134,134,134,20,2,2,2,2,2,2,2,2,2,2,2,2,2,2,1,5,15,17,18,23,28,41,51,60,67,73,83,87,92,96],"timestamp_mouse":[8,45,46,67,88,108,127,146,168,187,208,228,247,268,287,306,328,348,368,388,406,428,448,467,487,506,527,546,568,587,608,628,647,668,687,707,727,748,768,788,807,828,848,867,888,907,928,947,968,988,1008,1028,1047,1068,1087,1106,1128,1148,1167,1187,1207,1228,1246,1268,1288,1307,1327,1347,1368,1388,1407,1426,1446,1467,1487,1507,1527,1547,1568,1588,1608,1626,1646,1668,1688,1707,1728,1747,1768,1788,1808,1827,1847,1867,1886,1907,1927,1947,1968,1987,2007,2027,2047,2067,2088,2106,2127,2147,2167,2187,2207,2227,2247,2268,2287,2307,2327,2347,2368,2387,2406,2428,2447,2467,2488,2507,2527,2547,2568,2587,2607,2627,2648,2668,2687,2707,2727,2747,2767,2788,2808,2827,2848,2867,2887,2908,2928,2947,2968,2988,3007,3027,3047,3067,3086,3106,3127,3147,3166,3187,3208,3227,3246,3268,3287,3307,3328,3347,3367,3388,3408,3427,3447,3468,3488,3507,3527,3548,3567,3587,3608,3628,3648,3667,3687,3707,3727,3747,3767,3788,3806,3828,3848,3867,3886,3906,3927,3946,3968,3988,4006,4027,4048,4067,4088,4108,4127,4147,4167,4187,4207,4227,4246,4267,4288,4307,4327,4347,4367,4387,4408,4427,4447,4468,4487,4508,4526,4546,4567,4588,4606,4627,4648,4668,4688,4707,4727,4748,4767,4788,4808,4826,4847,4868,4887,4907,4926,4947,4967,4987,5007,5028,5047,5067,5088,5107,5127,5148,5167,5188,5208,5227,5248,5266,5288,5307,5327,5347,5367,5388,5406,5427,5447,5467,5487,5506,5527,5547,5567,5588,5606,5626,5647,5667,5687,5708,5727,5747,5767,5787,5808,5828,5847,5867,5887,5907,5926,5946,5967,5987,6008,6028,6048,6067,6087,6108,6128,6148,6167,6188,6208,6228,6247,6268,6288,6307,6327,6347,6367,6387,6407,6426,6447,6467,6486,6507,6527,6547,6567,6587,6607,6627,6647,6668,6687,6707,6727,6747,6768],"xSR":733.5,"ySR":493.35,"xT1":420.09999999999997,"yT1":0,"xT2":1046.8999999999999,"yT2":0,"toosoon":0,"cond_shown":"Congruent","ratio_trial":200,"L_num":7,"L_den":21,"R_num":2,"R_den":15,"correct_side":1,"subjID":"dianaramirez35","gender":"1","age":"9","school":"4","test":{"fix_dur":[250,1500],"timestim":1000,"targets_dim":[100,100],"targets_relative_coord":[0.3,0.7],"size_stim":[880,420],"start_dim":[100,100],"size_start":[300,300],"size_fix":60,"samplingrate":20,"img_types":["Congruent","Incongruent"],"ratios":[100,200,300],"rep_conds":19,"nTrials":120,"trials_to_rest":500,"Trials_order":[74,45,38,86,15,27,62,35,70,109,48,96,39,51,44,59,101,91,112,89,105,26,107,73,66,100,3,77,79,54,23,16,117,88,99,49,106,110,0,7,65,95,60,52,9,97,42,115,58,71,8,111,85,116,94,61,12,63,69,92,80,22,18,30,113,31,34,29,37,82,119,5,87,78,1,17,28,57,81,6,43,14,21,83,55,75,11,72,68,104,84,20,118,2,46,41,25,50,108,36,103,33,67,13,24,56,53,47,40,64,102,114,10,90,76,98,19,93,4,32],"cond_shown":["Congruent","Incongruent","Congruent","Congruent","Incongruent","Incongruent","Congruent","Incongruent","Congruent","Incongruent","Congruent","Congruent","Incongruent","Incongruent","Congruent","Incongruent","Incongruent","Incongruent","Congruent","Incongruent","Incongruent","Congruent","Incongruent","Incongruent","Congruent","Congruent","Incongruent","Incongruent","Incongruent","Congruent","Incongruent","Congruent","Incongruent","Congruent","Incongruent","Incongruent","Congruent","Congruent","Congruent","Incongruent","Incongruent","Incongruent","Congruent","Congruent","Incongruent","Incongruent","Congruent","Incongruent","Congruent","Incongruent","Congruent","Incongruent","Incongruent","Congruent","Congruent","Incongruent","Congruent","Incongruent","Incongruent","Congruent","Congruent","Congruent","Congruent","Congruent","Incongruent","Incongruent","Congruent","Incongruent","Incongruent","Congruent","Incongruent","Incongruent","Incongruent","Congruent","Incongruent","Incongruent","Congruent","Incongruent","Incongruent","Congruent","Incongruent","Congruent","Incongruent","Incongruent","Incongruent","Incongruent","Incongruent","Congruent","Congruent","Congruent","Congruent","Congruent","Congruent","Congruent","Congruent","Incongruent","Incongruent","Congruent","Congruent","Congruent","Incongruent","Incongruent","Incongruent","Incongruent","Congruent","Congruent","Incongruent","Incongruent","Congruent","Congruent","Congruent","Congruent","Congruent","Congruent","Congruent","Congruent","Incongruent","Incongruent","Congruent","Congruent"],"ratio_trial":[200,200,200,200,200,200,200,300,300,100,100,100,200,200,200,300,300,100,300,300,200,200,300,100,100,300,200,300,100,100,300,300,200,300,200,100,300,200,100,100,300,300,100,300,200,100,100,100,300,300,200,200,100,200,300,100,100,200,200,200,200,300,100,100,300,100,300,300,100,300,300,300,200,100,100,300,300,200,200,100,100,200,200,300,100,200,300,100,200,200,100,200,300,200,300,300,100,200,100,100,100,200,100,100,100,200,300,300,300,300,100,100,300,100,300,200,100,200,300,200],"left_num":[7,14,4,6,4,1,3,13,20,6,12,6,1,7,20,7,8,12,5,1,7,6,4,8,6,1,7,4,1,2,4,4,9,1,14,1,1,3,15,6,4,4,11,1,1,2,1,13,20,4,12,11,9,9,5,13,1,4,7,5,3,20,3,3,8,2,8,4,6,3,13,4,7,10,12,3,11,7,7,9,13,5,3,8,3,11,8,11,21,7,11,16,4,3,9,7,6,13,15,11,10,3,2,13,3,5,1,7,3,5,15,10,4,6,8,4,3,14,24,8],"right_num":[2,12,3,3,6,2,14,12,14,11,13,5,2,14,9,8,9,9,6,3,8,7,2,1,15,8,6,8,8,6,2,1,8,11,12,8,19,14,13,13,2,6,4,11,2,6,18,6,13,2,6,3,6,13,7,12,18,6,6,14,14,13,2,4,9,6,10,2,11,4,12,2,8,3,2,4,1,4,6,8,6,14,1,9,4,3,14,4,2,18,6,12,13,7,3,8,7,14,13,4,8,11,6,12,4,14,3,8,2,6,13,3,1,5,10,3,11,12,2,2],"left_den":[21,30,10,15,5,3,6,26,25,10,30,20,3,10,25,10,10,24,25,2,10,12,20,20,12,30,15,5,2,5,20,10,15,5,30,2,3,6,25,10,20,5,22,5,3,4,2,26,25,20,20,20,18,30,25,26,2,5,15,10,10,25,6,20,10,4,15,20,10,6,26,20,10,25,30,6,22,15,15,15,26,10,10,10,6,20,10,22,30,15,22,20,20,10,10,10,10,26,25,22,25,4,4,26,20,10,2,10,6,25,25,25,10,20,15,10,5,30,30,15],"right_den":[15,18,15,15,10,15,20,15,28,22,26,25,15,28,15,20,18,15,12,15,16,10,4,2,25,24,9,16,20,12,4,10,10,22,18,20,30,20,26,26,4,12,10,22,15,15,30,10,26,4,15,4,10,26,14,20,30,10,9,20,28,26,5,16,18,15,12,4,22,5,15,4,16,10,4,20,5,6,9,16,10,20,2,18,10,4,28,10,4,27,15,20,26,14,5,20,14,20,26,10,16,20,15,20,16,20,15,20,10,12,26,10,10,25,12,15,22,18,4,6],"correct_side":[1,2,1,1,1,1,2,2,1,1,2,1,1,1,1,1,1,2,2,1,1,2,2,2,2,2,2,1,1,2,2,1,2,2,2,1,2,2,1,1,2,1,1,2,1,1,2,2,1,2,1,2,2,2,2,2,2,1,2,2,2,1,1,2,1,1,2,2,1,2,2,2,1,1,2,1,1,2,2,1,2,2,2,1,1,2,1,1,1,2,1,1,2,2,1,1,1,2,1,1,2,1,1,2,2,2,1,1,1,2,1,1,1,1,2,1,1,2,1,1],"img_shown":["img2/200/Congruent/L/C_Dist_200_LN_7_LD_21_RN_2_RD_15_0.png","img2/200/Incongruent/R/I_Dist_200_LN_14_LD_30_RN_12_RD_18_1.png","img2/200/Congruent/L/C_Dist_200_LN_4_LD_10_RN_3_RD_15_0.png","img2/200/Congruent/L/C_Dist_200_LN_6_LD_15_RN_3_RD_15_0.png","img2/200/Incongruent/L/I_Dist_200_LN_4_LD_5_RN_6_RD_10_0.png","img2/200/Incongruent/L/I_Dist_200_LN_1_LD_3_RN_2_RD_15_0.png","img2/200/Congruent/R/C_Dist_200_LN_3_LD_6_RN_14_RD_20_1.png","img2/300/Incongruent/R/I_Dist_300_LN_13_LD_26_RN_12_RD_15_1.png","img2/300/Congruent/L/C_Dist_300_LN_20_LD_25_RN_14_RD_28_0.png","img2/100/Incongruent/L/I_Dist_100_LN_6_LD_10_RN_11_RD_22_0.png","img2/100/Congruent/R/C_Dist_100_LN_12_LD_30_RN_13_RD_26_1.png","img2/100/Congruent/L/C_Dist_100_LN_6_LD_20_RN_5_RD_25_0.png","img2/200/Incongruent/L/I_Dist_200_LN_1_LD_3_RN_2_RD_15_0.png","img2/200/Incongruent/L/I_Dist_200_LN_7_LD_10_RN_14_RD_28_0.png","img2/200/Congruent/L/C_Dist_200_LN_20_LD_25_RN_9_RD_15_0.png","img2/300/Incongruent/L/I_Dist_300_LN_7_LD_10_RN_8_RD_20_0.png","img2/300/Incongruent/L/I_Dist_300_LN_8_LD_10_RN_9_RD_18_0.png","img2/100/Incongruent/R/I_Dist_100_LN_12_LD_24_RN_9_RD_15_1.png","img2/300/Congruent/R/C_Dist_300_LN_5_LD_25_RN_6_RD_12_1.png","img2/300/Incongruent/L/I_Dist_300_LN_1_LD_2_RN_3_RD_15_0.png","img2/200/Incongruent/L/I_Dist_200_LN_7_LD_10_RN_8_RD_16_0.png","img2/200/Congruent/R/C_Dist_200_LN_6_LD_12_RN_7_RD_10_1.png","img2/300/Incongruent/R/I_Dist_300_LN_4_LD_20_RN_2_RD_4_1.png","img2/100/Incongruent/R/I_Dist_100_LN_8_LD_20_RN_1_RD_2_1.png","img2/100/Congruent/R/C_Dist_100_LN_6_LD_12_RN_15_RD_25_1.png","img2/300/Congruent/R/C_Dist_300_LN_1_LD_30_RN_8_RD_24_1.png","img2/200/Incongruent/R/I_Dist_200_LN_7_LD_15_RN_6_RD_9_1.png","img2/300/Incongruent/L/I_Dist_300_LN_4_LD_5_RN_8_RD_16_0.png","img2/100/Incongruent/L/I_Dist_100_LN_1_LD_2_RN_8_RD_20_0.png","img2/100/Congruent/R/C_Dist_100_LN_2_LD_5_RN_6_RD_12_1.png","img2/300/Incongruent/R/I_Dist_300_LN_4_LD_20_RN_2_RD_4_1.png","img2/300/Congruent/L/C_Dist_300_LN_4_LD_10_RN_1_RD_10_0.png","img2/200/Incongruent/R/I_Dist_200_LN_9_LD_15_RN_8_RD_10_1.png","img2/300/Congruent/R/C_Dist_300_LN_1_LD_5_RN_11_RD_22_1.png","img2/200/Incongruent/R/I_Dist_200_LN_14_LD_30_RN_12_RD_18_1.png","img2/100/Incongruent/L/I_Dist_100_LN_1_LD_2_RN_8_RD_20_0.png","img2/300/Congruent/R/C_Dist_300_LN_1_LD_3_RN_19_RD_30_1.png","img2/200/Congruent/R/C_Dist_200_LN_3_LD_6_RN_14_RD_20_1.png","img2/100/Congruent/L/C_Dist_100_LN_15_LD_25_RN_13_RD_26_0.png","img2/100/Incongruent/L/I_Dist_100_LN_6_LD_10_RN_13_RD_26_0.png","img2/300/Incongruent/R/I_Dist_300_LN_4_LD_20_RN_2_RD_4_1.png","img2/300/Incongruent/L/I_Dist_300_LN_4_LD_5_RN_6_RD_12_0.png","img2/100/Congruent/L/C_Dist_100_LN_11_LD_22_RN_4_RD_10_0.png","img2/300/Congruent/R/C_Dist_300_LN_1_LD_5_RN_11_RD_22_1.png","img2/200/Incongruent/L/I_Dist_200_LN_1_LD_3_RN_2_RD_15_0.png","img2/100/Incongruent/L/I_Dist_100_LN_2_LD_4_RN_6_RD_15_0.png","img2/100/Congruent/R/C_Dist_100_LN_1_LD_2_RN_18_RD_30_1.png","img2/100/Incongruent/R/I_Dist_100_LN_13_LD_26_RN_6_RD_10_1.png","img2/300/Congruent/L/C_Dist_300_LN_20_LD_25_RN_13_RD_26_0.png","img2/300/Incongruent/R/I_Dist_300_LN_4_LD_20_RN_2_RD_4_1.png","img2/200/Congruent/L/C_Dist_200_LN_12_LD_20_RN_6_RD_15_0.png","img2/200/Incongruent/R/I_Dist_200_LN_11_LD_20_RN_3_RD_4_1.png","img2/100/Incongruent/R/I_Dist_100_LN_9_LD_18_RN_6_RD_10_1.png","img2/200/Congruent/R/C_Dist_200_LN_9_LD_30_RN_13_RD_26_1.png","img2/300/Congruent/R/C_Dist_300_LN_5_LD_25_RN_7_RD_14_1.png","img2/100/Incongruent/R/I_Dist_100_LN_13_LD_26_RN_12_RD_20_1.png","img2/100/Congruent/R/C_Dist_100_LN_1_LD_2_RN_18_RD_30_1.png","img2/200/Incongruent/L/I_Dist_200_LN_4_LD_5_RN_6_RD_10_0.png","img2/200/Incongruent/R/I_Dist_200_LN_7_LD_15_RN_6_RD_9_1.png","img2/200/Congruent/R/C_Dist_200_LN_5_LD_10_RN_14_RD_20_1.png","img2/200/Congruent/R/C_Dist_200_LN_3_LD_10_RN_14_RD_28_1.png","img2/300/Congruent/L/C_Dist_300_LN_20_LD_25_RN_13_RD_26_0.png","img2/100/Congruent/L/C_Dist_100_LN_3_LD_6_RN_2_RD_5_0.png","img2/100/Congruent/R/C_Dist_100_LN_3_LD_20_RN_4_RD_16_1.png","img2/300/Incongruent/L/I_Dist_300_LN_8_LD_10_RN_9_RD_18_0.png","img2/100/Incongruent/L/I_Dist_100_LN_2_LD_4_RN_6_RD_15_0.png","img2/300/Congruent/R/C_Dist_300_LN_8_LD_15_RN_10_RD_12_1.png","img2/300/Incongruent/R/I_Dist_300_LN_4_LD_20_RN_2_RD_4_1.png","img2/100/Incongruent/L/I_Dist_100_LN_6_LD_10_RN_11_RD_22_0.png","img2/300/Congruent/R/C_Dist_300_LN_3_LD_6_RN_4_RD_5_1.png","img2/300/Incongruent/R/I_Dist_300_LN_13_LD_26_RN_12_RD_15_1.png","img2/300/Incongruent/R/I_Dist_300_LN_4_LD_20_RN_2_RD_4_1.png","img2/200/Incongruent/L/I_Dist_200_LN_7_LD_10_RN_8_RD_16_0.png","img2/100/Congruent/L/C_Dist_100_LN_10_LD_25_RN_3_RD_10_0.png","img2/100/Incongruent/R/I_Dist_100_LN_12_LD_30_RN_2_RD_4_1.png","img2/300/Incongruent/L/I_Dist_300_LN_3_LD_6_RN_4_RD_20_0.png","img2/300/Congruent/L/C_Dist_300_LN_11_LD_22_RN_1_RD_5_0.png","img2/200/Incongruent/R/I_Dist_200_LN_7_LD_15_RN_4_RD_6_1.png","img2/200/Incongruent/R/I_Dist_200_LN_7_LD_15_RN_6_RD_9_1.png","img2/100/Congruent/L/C_Dist_100_LN_9_LD_15_RN_8_RD_16_0.png","img2/100/Incongruent/R/I_Dist_100_LN_13_LD_26_RN_6_RD_10_1.png","img2/200/Congruent/R/C_Dist_200_LN_5_LD_10_RN_14_RD_20_1.png","img2/200/Incongruent/R/I_Dist_200_LN_3_LD_10_RN_1_RD_2_1.png","img2/300/Incongruent/L/I_Dist_300_LN_8_LD_10_RN_9_RD_18_0.png","img2/100/Incongruent/L/I_Dist_100_LN_3_LD_6_RN_4_RD_10_0.png","img2/200/Incongruent/R/I_Dist_200_LN_11_LD_20_RN_3_RD_4_1.png","img2/300/Incongruent/L/I_Dist_300_LN_8_LD_10_RN_14_RD_28_0.png","img2/100/Congruent/L/C_Dist_100_LN_11_LD_22_RN_4_RD_10_0.png","img2/200/Congruent/L/C_Dist_200_LN_21_LD_30_RN_2_RD_4_0.png","img2/200/Congruent/R/C_Dist_200_LN_7_LD_15_RN_18_RD_27_1.png","img2/100/Congruent/L/C_Dist_100_LN_11_LD_22_RN_6_RD_15_0.png","img2/200/Congruent/L/C_Dist_200_LN_16_LD_20_RN_12_RD_20_0.png","img2/300/Congruent/R/C_Dist_300_LN_4_LD_20_RN_13_RD_26_1.png","img2/200/Congruent/R/C_Dist_200_LN_3_LD_10_RN_7_RD_14_1.png","img2/300/Congruent/L/C_Dist_300_LN_9_LD_10_RN_3_RD_5_0.png","img2/300/Incongruent/L/I_Dist_300_LN_7_LD_10_RN_8_RD_20_0.png","img2/100/Incongruent/L/I_Dist_100_LN_6_LD_10_RN_7_RD_14_0.png","img2/200/Congruent/R/C_Dist_200_LN_13_LD_26_RN_14_RD_20_1.png","img2/100/Congruent/L/C_Dist_100_LN_15_LD_25_RN_13_RD_26_0.png","img2/100/Congruent/L/C_Dist_100_LN_11_LD_22_RN_4_RD_10_0.png","img2/100/Incongruent/R/I_Dist_100_LN_10_LD_25_RN_8_RD_16_1.png","img2/200/Incongruent/L/I_Dist_200_LN_3_LD_4_RN_11_RD_20_0.png","img2/100/Incongruent/L/I_Dist_100_LN_2_LD_4_RN_6_RD_15_0.png","img2/100/Incongruent/R/I_Dist_100_LN_13_LD_26_RN_12_RD_20_1.png","img2/100/Congruent/R/C_Dist_100_LN_3_LD_20_RN_4_RD_16_1.png","img2/200/Congruent/R/C_Dist_200_LN_5_LD_10_RN_14_RD_20_1.png","img2/300/Incongruent/L/I_Dist_300_LN_1_LD_2_RN_3_RD_15_0.png","img2/300/Incongruent/L/I_Dist_300_LN_7_LD_10_RN_8_RD_20_0.png","img2/300/Congruent/L/C_Dist_300_LN_3_LD_6_RN_2_RD_10_0.png","img2/300/Congruent/R/C_Dist_300_LN_5_LD_25_RN_6_RD_12_1.png","img2/100/Congruent/L/C_Dist_100_LN_15_LD_25_RN_13_RD_26_0.png","img2/100/Congruent/L/C_Dist_100_LN_10_LD_25_RN_3_RD_10_0.png","img2/300/Congruent/L/C_Dist_300_LN_4_LD_10_RN_1_RD_10_0.png","img2/100/Congruent/L/C_Dist_100_LN_6_LD_20_RN_5_RD_25_0.png","img2/300/Congruent/R/C_Dist_300_LN_8_LD_15_RN_10_RD_12_1.png","img2/200/Congruent/L/C_Dist_200_LN_4_LD_10_RN_3_RD_15_0.png","img2/100/Incongruent/L/I_Dist_100_LN_3_LD_5_RN_11_RD_22_0.png","img2/200/Incongruent/R/I_Dist_200_LN_14_LD_30_RN_12_RD_18_1.png","img2/300/Congruent/L/C_Dist_300_LN_24_LD_30_RN_2_RD_4_0.png","img2/200/Congruent/L/C_Dist_200_LN_8_LD_15_RN_2_RD_6_0.png"],"dist100_C":[["C_Dist_100_LN_10_LD_25_RN_3_RD_10_0.png","C_Dist_100_LN_11_LD_22_RN_4_RD_10_0.png","C_Dist_100_LN_11_LD_22_RN_6_RD_15_0.png","C_Dist_100_LN_15_LD_25_RN_13_RD_26_0.png","C_Dist_100_LN_3_LD_6_RN_2_RD_5_0.png","C_Dist_100_LN_6_LD_20_RN_5_RD_25_0.png","C_Dist_100_LN_8_LD_16_RN_2_RD_5_0.png","C_Dist_100_LN_9_LD_15_RN_8_RD_16_0.png"],["C_Dist_100_LN_1_LD_2_RN_18_RD_30_1.png","C_Dist_100_LN_1_LD_2_RN_3_RD_5_1.png","C_Dist_100_LN_12_LD_30_RN_13_RD_26_1.png","C_Dist_100_LN_2_LD_5_RN_11_RD_22_1.png","C_Dist_100_LN_2_LD_5_RN_6_RD_12_1.png","C_Dist_100_LN_3_LD_20_RN_4_RD_16_1.png","C_Dist_100_LN_4_LD_10_RN_15_RD_30_1.png","C_Dist_100_LN_4_LD_8_RN_6_RD_10_1.png","C_Dist_100_LN_6_LD_12_RN_15_RD_25_1.png","C_Dist_100_LN_7_LD_14_RN_15_RD_25_1.png","C_Dist_100_LN_7_LD_14_RN_9_RD_15_1.png"]],"dist100_I":[["I_Dist_100_LN_1_LD_2_RN_8_RD_20_0.png","I_Dist_100_LN_2_LD_4_RN_6_RD_15_0.png","I_Dist_100_LN_2_LD_4_RN_8_RD_20_0.png","I_Dist_100_LN_3_LD_5_RN_11_RD_22_0.png","I_Dist_100_LN_3_LD_5_RN_8_RD_16_0.png","I_Dist_100_LN_3_LD_6_RN_4_RD_10_0.png","I_Dist_100_LN_3_LD_9_RN_7_RD_30_0.png","I_Dist_100_LN_4_LD_8_RN_8_RD_20_0.png","I_Dist_100_LN_6_LD_10_RN_11_RD_22_0.png","I_Dist_100_LN_6_LD_10_RN_13_RD_26_0.png","I_Dist_100_LN_6_LD_10_RN_7_RD_14_0.png","I_Dist_100_LN_9_LD_10_RN_20_RD_25_0.png","I_Dist_100_LN_9_LD_15_RN_13_RD_26_0.png","I_Dist_100_LN_9_LD_15_RN_14_RD_28_0.png"],["I_Dist_100_LN_10_LD_25_RN_8_RD_16_1.png","I_Dist_100_LN_10_LD_25_RN_9_RD_18_1.png","I_Dist_100_LN_11_LD_22_RN_9_RD_15_1.png","I_Dist_100_LN_12_LD_24_RN_9_RD_15_1.png","I_Dist_100_LN_12_LD_30_RN_2_RD_4_1.png","I_Dist_100_LN_13_LD_26_RN_12_RD_20_1.png","I_Dist_100_LN_13_LD_26_RN_6_RD_10_1.png","I_Dist_100_LN_17_LD_30_RN_10_RD_15_1.png","I_Dist_100_LN_6_LD_12_RN_3_RD_5_1.png","I_Dist_100_LN_8_LD_16_RN_6_RD_10_1.png","I_Dist_100_LN_8_LD_20_RN_1_RD_2_1.png","I_Dist_100_LN_9_LD_18_RN_6_RD_10_1.png"]],"dist100_S":[["E_Dist_100_LN_2_LD_12_RN_2_RD_30_0.png","E_Dist_100_LN_6_LD_10_RN_6_RD_12_0.png"],["E_Dist_100_LN_6_LD_12_RN_6_RD_10_1.png"]],"dist200_C":[["C_Dist_200_LN_11_LD_22_RN_3_RD_10_0.png","C_Dist_200_LN_12_LD_15_RN_6_RD_10_0.png","C_Dist_200_LN_12_LD_20_RN_6_RD_15_0.png","C_Dist_200_LN_14_LD_28_RN_6_RD_20_0.png","C_Dist_200_LN_15_LD_25_RN_4_RD_10_0.png","C_Dist_200_LN_16_LD_20_RN_12_RD_20_0.png","C_Dist_200_LN_16_LD_30_RN_9_RD_27_0.png","C_Dist_200_LN_20_LD_25_RN_9_RD_15_0.png","C_Dist_200_LN_21_LD_30_RN_2_RD_4_0.png","C_Dist_200_LN_4_LD_10_RN_3_RD_15_0.png","C_Dist_200_LN_4_LD_8_RN_3_RD_10_0.png","C_Dist_200_LN_6_LD_15_RN_3_RD_15_0.png","C_Dist_200_LN_7_LD_21_RN_2_RD_15_0.png","C_Dist_200_LN_8_LD_15_RN_2_RD_6_0.png","C_Dist_200_LN_8_LD_15_RN_3_RD_9_0.png","C_Dist_200_LN_8_LD_15_RN_7_RD_21_0.png","C_Dist_200_LN_9_LD_20_RN_4_RD_16_0.png"],["C_Dist_200_LN_1_LD_2_RN_21_RD_30_1.png","C_Dist_200_LN_13_LD_26_RN_14_RD_20_1.png","C_Dist_200_LN_3_LD_10_RN_11_RD_22_1.png","C_Dist_200_LN_3_LD_10_RN_14_RD_28_1.png","C_Dist_200_LN_3_LD_10_RN_7_RD_14_1.png","C_Dist_200_LN_3_LD_12_RN_9_RD_20_1.png","C_Dist_200_LN_3_LD_6_RN_14_RD_20_1.png","C_Dist_200_LN_5_LD_10_RN_14_RD_20_1.png","C_Dist_200_LN_6_LD_12_RN_7_RD_10_1.png","C_Dist_200_LN_6_LD_20_RN_11_RD_22_1.png","C_Dist_200_LN_7_LD_15_RN_18_RD_27_1.png","C_Dist_200_LN_9_LD_30_RN_13_RD_26_1.png"]],"dist200_I":[["I_Dist_200_LN_1_LD_2_RN_3_RD_10_0.png","I_Dist_200_LN_1_LD_3_RN_2_RD_15_0.png","I_Dist_200_LN_3_LD_4_RN_11_RD_20_0.png","I_Dist_200_LN_4_LD_5_RN_6_RD_10_0.png","I_Dist_200_LN_4_LD_6_RN_14_RD_30_0.png","I_Dist_200_LN_7_LD_10_RN_12_RD_24_0.png","I_Dist_200_LN_7_LD_10_RN_14_RD_28_0.png","I_Dist_200_LN_7_LD_10_RN_8_RD_16_0.png"],["I_Dist_200_LN_11_LD_20_RN_3_RD_4_1.png","I_Dist_200_LN_14_LD_30_RN_12_RD_18_1.png","I_Dist_200_LN_14_LD_30_RN_6_RD_9_1.png","I_Dist_200_LN_3_LD_10_RN_1_RD_2_1.png","I_Dist_200_LN_4_LD_30_RN_1_RD_3_1.png","I_Dist_200_LN_6_LD_20_RN_3_RD_6_1.png","I_Dist_200_LN_7_LD_15_RN_4_RD_6_1.png","I_Dist_200_LN_7_LD_15_RN_6_RD_9_1.png","I_Dist_200_LN_9_LD_15_RN_8_RD_10_1.png"]],"dist200_S":[["E_Dist_200_LN_3_LD_6_RN_3_RD_10_0.png"],["E_Dist_200_LN_3_LD_10_RN_3_RD_6_1.png"]],"dist300_C":[["C_Dist_300_LN_11_LD_22_RN_1_RD_5_0.png","C_Dist_300_LN_11_LD_22_RN_2_RD_10_0.png","C_Dist_300_LN_11_LD_22_RN_4_RD_20_0.png","C_Dist_300_LN_12_LD_24_RN_2_RD_10_0.png","C_Dist_300_LN_18_LD_20_RN_9_RD_15_0.png","C_Dist_300_LN_20_LD_25_RN_13_RD_26_0.png","C_Dist_300_LN_20_LD_25_RN_14_RD_28_0.png","C_Dist_300_LN_20_LD_25_RN_5_RD_10_0.png","C_Dist_300_LN_20_LD_25_RN_8_RD_16_0.png","C_Dist_300_LN_20_LD_25_RN_9_RD_18_0.png","C_Dist_300_LN_24_LD_30_RN_2_RD_4_0.png","C_Dist_300_LN_24_LD_30_RN_8_RD_16_0.png","C_Dist_300_LN_3_LD_6_RN_2_RD_10_0.png","C_Dist_300_LN_4_LD_10_RN_1_RD_10_0.png","C_Dist_300_LN_4_LD_5_RN_2_RD_4_0.png","C_Dist_300_LN_8_LD_16_RN_1_RD_5_0.png","C_Dist_300_LN_9_LD_10_RN_3_RD_5_0.png"],["C_Dist_300_LN_1_LD_20_RN_7_RD_20_1.png","C_Dist_300_LN_1_LD_3_RN_19_RD_30_1.png","C_Dist_300_LN_1_LD_30_RN_8_RD_24_1.png","C_Dist_300_LN_1_LD_5_RN_11_RD_22_1.png","C_Dist_300_LN_1_LD_5_RN_3_RD_6_1.png","C_Dist_300_LN_1_LD_5_RN_6_RD_12_1.png","C_Dist_300_LN_2_LD_10_RN_12_RD_24_1.png","C_Dist_300_LN_2_LD_20_RN_10_RD_25_1.png","C_Dist_300_LN_3_LD_12_RN_11_RD_20_1.png","C_Dist_300_LN_3_LD_6_RN_4_RD_5_1.png","C_Dist_300_LN_4_LD_20_RN_13_RD_26_1.png","C_Dist_300_LN_5_LD_25_RN_6_RD_12_1.png","C_Dist_300_LN_5_LD_25_RN_7_RD_14_1.png","C_Dist_300_LN_7_LD_14_RN_20_RD_25_1.png","C_Dist_300_LN_8_LD_15_RN_10_RD_12_1.png"]],"dist300_I":[["I_Dist_300_LN_1_LD_2_RN_2_RD_10_0.png","I_Dist_300_LN_1_LD_2_RN_3_RD_15_0.png","I_Dist_300_LN_2_LD_4_RN_6_RD_30_0.png","I_Dist_300_LN_3_LD_6_RN_4_RD_20_0.png","I_Dist_300_LN_4_LD_5_RN_6_RD_12_0.png","I_Dist_300_LN_4_LD_5_RN_8_RD_16_0.png","I_Dist_300_LN_7_LD_10_RN_8_RD_20_0.png","I_Dist_300_LN_8_LD_10_RN_14_RD_28_0.png","I_Dist_300_LN_8_LD_10_RN_9_RD_18_0.png"],["I_Dist_300_LN_13_LD_26_RN_12_RD_15_1.png","I_Dist_300_LN_4_LD_20_RN_2_RD_4_1.png"]],"dist300_S":[["E_Dist_300_LN_9_LD_12_RN_9_RD_20_0.png"],["E_Dist_300_LN_18_LD_30_RN_18_RD_20_1.png","E_Dist_300_LN_3_LD_10_RN_3_RD_5_1.png","E_Dist_300_LN_9_LD_20_RN_9_RD_12_1.png"]],"dist500_C":[["C_Dist_500_LN_10_LD_13_RN_7_RD_26_0.png","C_Dist_500_LN_10_LD_15_RN_4_RD_24_0.png","C_Dist_500_LN_12_LD_16_RN_3_RD_12_0.png","C_Dist_500_LN_12_LD_18_RN_4_RD_24_0.png","C_Dist_500_LN_15_LD_18_RN_5_RD_15_0.png","C_Dist_500_LN_15_LD_20_RN_1_RD_4_0.png","C_Dist_500_LN_18_LD_27_RN_1_RD_6_0.png","C_Dist_500_LN_20_LD_24_RN_1_RD_3_0.png","C_Dist_500_LN_20_LD_24_RN_3_RD_9_0.png","C_Dist_500_LN_20_LD_24_RN_7_RD_21_0.png","C_Dist_500_LN_20_LD_28_RN_3_RD_14_0.png","C_Dist_500_LN_21_LD_28_RN_6_RD_24_0.png","C_Dist_500_LN_22_LD_28_RN_2_RD_7_0.png","C_Dist_500_LN_25_LD_30_RN_9_RD_27_0.png","C_Dist_500_LN_4_LD_6_RN_1_RD_6_0.png","C_Dist_500_LN_5_LD_6_RN_2_RD_6_0.png","C_Dist_500_LN_6_LD_9_RN_1_RD_6_0.png","C_Dist_500_LN_7_LD_10_RN_1_RD_5_0.png","C_Dist_500_LN_8_LD_12_RN_1_RD_6_0.png","C_Dist_500_LN_8_LD_12_RN_4_RD_24_0.png"],["C_Dist_500_LN_1_LD_4_RN_12_RD_16_1.png","C_Dist_500_LN_1_LD_4_RN_9_RD_12_1.png","C_Dist_500_LN_1_LD_9_RN_11_RD_18_1.png","C_Dist_500_LN_10_LD_24_RN_22_RD_24_1.png","C_Dist_500_LN_2_LD_12_RN_10_RD_15_1.png","C_Dist_500_LN_2_LD_12_RN_12_RD_18_1.png","C_Dist_500_LN_2_LD_12_RN_4_RD_6_1.png","C_Dist_500_LN_2_LD_24_RN_7_RD_12_1.png","C_Dist_500_LN_2_LD_5_RN_18_RD_20_1.png","C_Dist_500_LN_2_LD_5_RN_9_RD_10_1.png","C_Dist_500_LN_2_LD_8_RN_12_RD_16_1.png","C_Dist_500_LN_2_LD_8_RN_21_RD_28_1.png","C_Dist_500_LN_3_LD_10_RN_4_RD_5_1.png","C_Dist_500_LN_3_LD_12_RN_15_RD_20_1.png","C_Dist_500_LN_3_LD_30_RN_6_RD_10_1.png","C_Dist_500_LN_3_LD_8_RN_14_RD_16_1.png","C_Dist_500_LN_4_LD_16_RN_15_RD_20_1.png","C_Dist_500_LN_4_LD_24_RN_12_RD_18_1.png","C_Dist_500_LN_5_LD_14_RN_6_RD_7_1.png","C_Dist_500_LN_7_LD_21_RN_20_RD_24_1.png","C_Dist_500_LN_7_LD_28_RN_12_RD_16_1.png","C_Dist_500_LN_7_LD_28_RN_9_RD_12_1.png","C_Dist_500_LN_9_LD_27_RN_20_RD_24_1.png"]],"dist500_I":[["I_Dist_500_LN_2_LD_3_RN_4_RD_24_0.png","I_Dist_500_LN_5_LD_6_RN_6_RD_18_0.png","I_Dist_500_LN_7_LD_8_RN_9_RD_24_0.png"],["I_Dist_500_LN_7_LD_21_RN_5_RD_6_1.png"]],"dist500_S":[["E_Dist_500_LN_6_LD_8_RN_6_RD_24_0.png"],["E_Dist_500_LN_2_LD_12_RN_2_RD_3_1.png","E_Dist_500_LN_6_LD_24_RN_6_RD_8_1.png"]]}},{"start_time":1552069036642,"click_time":1552069038176,"finger_time":1552069037655,"fix_duration":685.4045450841095,"trial":1,"RT":1013,"MT":521,"sideResp":1,"stimulus":[],"xmouse":[763,763,763,763,763,763,763,763,763,763,763,763,763,763,763,763,763,763,763,763,763,763,763,763,763,763,763,763,763,763,763,763,763,763,763,763,763,763,763,763,763,763,763,763,763,763,763,763,763,745,708,688,668,650,636,631,631,631,631,631,636,644,649,655,655,642,640,626,609,593,575,572,570,568,563,543,502],"ymouse":[555,555,555,555,555,555,555,555,555,555,555,555,555,555,555,555,555,555,555,555,555,555,555,555,555,555,555,555,555,555,555,555,555,555,555,555,555,555,555,555,555,555,555,555,555,555,555,555,555,552,522,497,473,456,449,449,452,452,452,452,429,403,377,329,310,190,183,140,102,71,44,42,41,41,40,32,14],"timestamp_mouse":[13,34,54,73,94,114,133,153,174,194,213,234,254,274,294,312,334,354,373,394,413,433,454,474,493,512,534,553,573,594,613,633,654,674,693,713,733,754,773,794,814,834,853,874,894,914,934,954,972,993,1013,1034,1054,1073,1094,1113,1133,1153,1172,1193,1212,1233,1253,1273,1294,1312,1333,1353,1373,1392,1413,1433,1453,1474,1494,1512,1533],"xSR":733.5,"ySR":493.35,"xT1":420.09999999999997,"yT1":0,"xT2":1046.8999999999999,"yT2":0,"toosoon":0,"cond_shown":"Incongruent","ratio_trial":200,"L_num":14,"L_den":30,"R_num":12,"R_den":18,"correct_side":2,"subjID":"dianaramirez35","gender":"1","school":"4","age":"9"},{"start_time":1552069040824,"click_time":1552069042575,"finger_time":1552069041256,"fix_duration":1385.0866709778923,"trial":2,"RT":432,"MT":1319,"sideResp":2,"stimulus":[],"xmouse":[774,774,774,774,774,774,774,774,774,774,774,774,774,774,774,774,774,774,774,775,779,835,886,919,936,941,947,950,950,950,950,951,951,951,951,951,946,937,919,899,875,836,817,806,801,801,801,801,801,800,799,789,780,769,760,757,757,757,757,757,758,789,819,869,913,954,995,1004,1010,1015,1019,1029,1032,1032,1032,1033,1033,1033,1033,1033,1033,1035,1037,1041,1045,1050,1061,1065],"ymouse":[533,533,533,533,533,533,533,533,533,533,533,533,533,533,533,533,533,533,533,530,524,461,406,362,326,307,273,264,259,256,254,252,251,250,250,250,250,250,250,256,263,272,276,277,278,279,279,279,279,279,279,282,286,291,293,294,294,294,294,294,294,285,281,273,266,253,215,196,178,162,149,131,127,125,125,125,125,125,125,125,124,122,120,116,112,109,100,98],"timestamp_mouse":[12,33,51,71,91,110,132,151,172,192,212,231,252,272,290,310,331,351,372,392,412,432,451,471,491,512,531,551,572,591,612,630,652,670,690,712,730,752,771,791,812,831,850,871,891,912,932,952,972,991,1010,1032,1051,1070,1091,1112,1132,1151,1170,1190,1212,1230,1251,1271,1292,1311,1331,1351,1371,1391,1412,1431,1450,1471,1491,1511,1532,1551,1571,1591,1611,1632,1651,1671,1691,1711,1731,1751],"xSR":733.5,"ySR":493.35,"xT1":420.09999999999997,"yT1":0,"xT2":1046.8999999999999,"yT2":0,"toosoon":0,"cond_shown":"Congruent","ratio_trial":200,"L_num":4,"L_den":10,"R_num":3,"R_den":15,"correct_side":1,"subjID":"dianaramirez35","gender":"1","school":"4","age":"9"},{"start_time":1552069046643,"click_time":1552069051616,"finger_time":1552069049676,"fix_duration":745.8957181455597,"trial":3,"RT":3033,"MT":1940,"sideResp":2,"stimulus":[],"xmouse":[795,795,794,793,792,792,792,791,791,791,791,791,791,791,791,791,791,791,791,791,791,791,791,791,791,791,791,791,791,791,791,791,791,791,791,791,791,791,791,791,791,791,791,791,791,791,791,791,791,791,791,791,791,791,791,791,791,791,791,791,791,791,791,791,791,791,791,791,791,791,791,791,791,791,791,791,791,791,791,791,791,791,791,791,791,791,791,791,791,791,791,791,791,791,791,791,791,791,791,791,791,791,791,791,791,791,791,791,791,791,791,791,791,791,791,791,791,791,791,791,791,791,791,791,791,791,791,791,791,791,791,791,791,791,791,790,789,789,787,784,765,759,757,755,755,755,755,755,757,769,824,837,845,854,857,867,877,884,895,910,946,966,984,1016,1026,1098,1142,1189,1227,1266,1318,1334,1335,1328,1322,1315,1313,1309,1307,1305,1304,1302,1302,1302,1301,1286,1271,1270,1259,1254,1252,1250,1249,1248,1248,1245,1244,1244,1243,1242,1242,1241,1241,1239,1234,1228,1224,1222,1217,1211,1193,1188,1186,1181,1174,1170,1168,1168,1168,1168,1168,1168,1168,1168,1168,1166,1166,1166,1166,1166,1166,1166,1166,1166,1166,1166,1165,1164,1164,1164,1164,1164,1162,1162,1162,1155,1151,1139,1117],"ymouse":[565,565,566,566,567,567,567,568,568,568,568,568,568,568,568,568,568,568,568,568,568,568,568,568,568,568,568,568,568,568,568,568,568,568,568,568,568,568,568,568,568,568,568,568,568,568,568,568,568,568,568,568,568,568,568,568,568,568,568,568,568,568,568,568,568,568,568,568,568,568,568,568,568,568,568,568,568,568,568,568,568,568,568,568,568,568,568,568,568,568,568,568,568,568,568,568,568,568,568,568,568,568,568,568,568,568,568,568,568,568,568,568,568,568,568,568,568,569,569,569,569,569,569,569,569,569,569,569,569,569,568,568,568,568,567,567,567,567,567,567,571,571,572,573,573,573,573,574,576,580,585,594,602,607,607,607,607,607,606,601,590,581,571,551,543,485,445,391,339,289,232,216,194,167,148,122,114,104,102,99,97,96,96,96,95,95,94,94,91,91,91,91,92,93,93,97,99,101,102,103,104,104,105,105,107,108,108,108,108,107,104,104,104,103,101,100,100,100,100,100,100,100,100,100,100,99,99,99,99,99,99,99,99,99,99,99,98,97,97,97,97,97,97,97,97,102,102,102,94],"timestamp_mouse":[30,31,53,72,92,112,133,153,172,192,212,232,252,273,292,313,333,352,372,391,411,431,453,472,493,512,532,553,573,593,613,632,653,673,692,713,731,752,773,792,813,831,851,873,892,911,931,953,973,993,1012,1032,1052,1071,1093,1112,1133,1153,1172,1193,1213,1232,1253,1273,1292,1313,1333,1352,1373,1392,1412,1432,1452,1473,1492,1512,1532,1552,1573,1593,1612,1632,1653,1671,1692,1712,1733,1753,1772,1792,1812,1833,1853,1873,1892,1912,1931,1951,1973,1992,2012,2033,2052,2072,2092,2113,2133,2153,2172,2193,2212,2231,2253,2272,2292,2312,2333,2352,2372,2392,2412,2433,2453,2472,2492,2512,2533,2553,2573,2593,2613,2631,2652,2673,2693,2712,2732,2752,2771,2793,2812,2833,2851,2872,2893,2913,2931,2952,2972,2991,3011,3033,3053,3072,3091,3111,3132,3153,3173,3192,3212,3232,3252,3271,3293,3312,3332,3353,3372,3392,3412,3432,3453,3473,3492,3513,3532,3553,3572,3593,3611,3632,3653,3671,3692,3712,3733,3752,3773,3793,3811,3832,3852,3872,3892,3911,3931,3952,3973,3993,4012,4031,4055,4071,4092,4113,4132,4152,4172,4193,4212,4232,4253,4272,4292,4312,4333,4353,4373,4392,4413,4433,4452,4473,4492,4512,4532,4552,4571,4593,4613,4632,4652,4673,4692,4712,4732,4752,4772,4793,4813,4832,4852,4871,4892,4912,4933,4953,4973],"xSR":733.5,"ySR":493.35,"xT1":420.09999999999997,"yT1":0,"xT2":1046.8999999999999,"yT2":0,"toosoon":0,"cond_shown":"Congruent","ratio_trial":200,"L_num":6,"L_den":15,"R_num":3,"R_den":15,"correct_side":1,"subjID":"dianaramirez35","gender":"1","school":"4","age":"9"},{"start_time":1552069056229,"click_time":1552069058275,"finger_time":1552069057555,"fix_duration":250,"trial":4,"RT":1326,"MT":720,"sideResp":2,"stimulus":[],"xmouse":[764,764,764,764,766,767,770,770,770,771,771,771,771,772,772,772,774,774,774,774,774,774,774,774,774,774,774,775,775,775,775,775,776,776,777,777,777,777,777,777,777,777,777,777,777,777,777,777,777,777,777,777,777,777,777,777,777,777,777,777,777,777,777,783,788,814,974,981,985,992,1003,1033,1033,1033,1033,1036,1079,1093,1117,1140,1158,1192,1202,1206,1206,1206,1206,1206,1206,1206,1206,1206,1206,1206,1206,1206,1206,1206,1206,1206,1206,1206,1067],"ymouse":[539,539,539,539,539,539,539,539,539,539,539,539,539,539,539,539,540,540,540,540,540,540,540,540,540,540,540,540,540,540,540,540,540,540,540,540,540,540,540,540,540,540,540,540,540,540,540,540,540,540,540,540,540,540,540,540,540,540,540,540,540,540,540,537,532,514,417,407,404,399,391,373,373,373,373,372,361,353,333,295,252,132,67,30,30,30,30,30,30,30,30,30,30,30,30,30,30,30,30,30,30,30,6],"timestamp_mouse":[9,38,47,67,86,106,126,146,167,187,207,225,247,267,287,306,325,347,367,386,406,425,446,467,487,507,525,547,567,586,606,627,646,667,687,705,726,747,767,787,806,826,846,866,887,907,926,945,966,987,1006,1025,1047,1067,1087,1105,1126,1147,1167,1187,1206,1226,1246,1266,1287,1307,1326,1347,1366,1387,1406,1426,1447,1467,1486,1506,1526,1547,1566,1587,1607,1626,1646,1666,1687,1706,1726,1746,1766,1786,1807,1826,1846,1867,1887,1906,1927,1946,1966,1985,2005,2026,2045],"xSR":733.5,"ySR":493.35,"xT1":420.09999999999997,"yT1":0,"xT2":1046.8999999999999,"yT2":0,"toosoon":0,"cond_shown":"Incongruent","ratio_trial":200,"L_num":4,"L_den":5,"R_num":6,"R_den":10,"correct_side":1,"subjID":"dianaramirez35","gender":"1","school":"4","age":"9"},{"start_time":1552069061895,"click_time":1552069066055,"finger_time":1552069063235,"fix_duration":979.0595601646743,"trial":5,"RT":1340,"MT":2820,"sideResp":1,"stimulus":[],"xmouse":[775,775,776,776,776,776,776,776,776,776,777,777,777,777,777,777,777,777,777,777,777,777,777,777,777,777,777,777,778,778,780,781,782,782,782,782,782,782,782,782,782,782,782,782,782,782,782,782,781,779,778,777,776,776,775,774,774,774,774,774,774,774,773,771,770,769,767,755,738,713,680,680,680,680,680,680,680,680,680,680,680,680,680,680,535,532,532,532,532,532,532,532,532,532,532,532,532,529,528,528,528,528,528,528,533,540,546,551,551,553,563,576,594,614,637,665,692,729,748,767,786,804,848,867,884,888,891,895,895,895,895,895,895,895,895,895,895,895,895,895,895,895,895,894,887,881,877,865,857,849,845,834,811,799,785,773,759,728,714,701,690,674,647,643,642,640,638,635,634,632,625,618,604,597,590,584,579,571,571,571,571,571,571,571,570,569,567,566,566,566,566,565,565,565,564,564,563,562,561,560,560,558,556,552,547,541,532,510],"ymouse":[520,520,520,520,520,520,520,520,520,520,520,520,520,520,520,520,520,520,520,520,520,520,520,520,520,520,520,520,520,520,520,520,520,520,520,520,520,520,520,520,520,520,520,520,520,520,520,517,515,511,509,509,509,509,509,508,508,508,508,508,508,508,508,508,508,506,493,398,302,190,58,58,58,58,58,58,58,58,58,58,58,58,58,58,10,22,22,22,22,22,22,22,22,22,22,22,22,35,39,40,40,40,40,40,40,40,40,39,39,39,45,54,68,80,91,101,109,122,127,129,132,134,134,134,134,134,134,134,134,134,134,134,134,134,134,134,134,134,134,134,134,134,134,134,132,131,130,127,126,122,122,120,111,108,104,100,97,83,77,73,70,64,57,56,55,55,53,53,52,52,50,48,47,47,47,47,47,47,47,47,47,47,47,47,47,47,47,47,47,47,47,47,47,47,47,47,47,47,47,47,47,48,48,48,48,48,48,48],"timestamp_mouse":[21,41,60,80,100,121,140,160,180,201,221,239,259,280,300,321,340,360,380,401,420,441,461,481,501,520,541,560,580,600,619,641,660,680,701,720,740,760,781,799,821,840,860,881,901,921,940,959,981,1000,1020,1039,1059,1080,1100,1120,1141,1161,1181,1201,1220,1240,1260,1281,1301,1320,1340,1360,1380,1401,1420,1440,1460,1481,1501,1520,1539,1560,1580,1600,1620,1640,1660,1680,1700,1721,1739,1760,1779,1800,1820,1841,1861,1880,1900,1920,1940,1960,1980,2001,2020,2041,2060,2080,2100,2121,2140,2161,2181,2200,2221,2240,2261,2280,2300,2320,2340,2360,2380,2400,2420,2440,2461,2481,2500,2519,2540,2560,2580,2601,2621,2640,2660,2680,2700,2720,2740,2759,2780,2800,2820,2840,2860,2880,2901,2920,2940,2960,2980,3001,3020,3041,3060,3079,3101,3120,3140,3160,3181,3201,3221,3241,3260,3280,3301,3320,3339,3360,3379,3401,3421,3441,3461,3481,3501,3520,3540,3560,3580,3601,3621,3641,3660,3681,3700,3720,3740,3759,3780,3800,3821,3840,3860,3880,3901,3920,3940,3959,3979,4000,4020,4040,4060,4080,4101,4119,4141,4159],"xSR":733.5,"ySR":493.35,"xT1":420.09999999999997,"yT1":0,"xT2":1046.8999999999999,"yT2":0,"toosoon":0,"cond_shown":"Incongruent","ratio_trial":200,"L_num":1,"L_den":3,"R_num":2,"R_den":15,"correct_side":1,"subjID":"dianaramirez35","gender":"1","school":"4","age":"9"},{"start_time":1552069068733,"click_time":1552069070795,"finger_time":1552069070235,"fix_duration":1297.7354184733908,"trial":6,"RT":1502,"MT":560,"sideResp":2,"stimulus":[],"xmouse":[764,764,764,764,764,764,764,764,764,764,764,764,764,764,764,764,764,764,764,764,764,764,764,764,764,764,764,764,764,764,764,764,764,764,764,764,764,764,764,764,764,764,764,764,764,764,764,764,764,764,764,764,764,764,764,764,764,764,764,764,764,764,764,764,764,764,764,764,764,764,764,764,771,793,831,835,835,845,856,864,871,908,911,912,914,915,922,943,969,992,1019,1088,1118,1122,1122,1149,1151,1152,1156,1156,1156,1156,1151,1137],"ymouse":[558,558,558,558,558,558,558,558,558,558,558,558,558,558,558,558,558,558,558,558,558,558,558,558,558,558,558,558,558,558,558,558,558,558,558,558,558,558,558,558,558,558,558,558,558,558,558,558,558,558,558,558,558,558,558,558,558,558,558,558,558,558,558,558,558,558,558,558,558,558,558,558,552,535,504,496,496,485,469,455,438,404,399,395,391,387,380,373,365,355,336,253,188,176,175,113,106,101,92,86,85,85,84,85],"timestamp_mouse":[8,33,43,62,83,103,122,142,162,183,201,222,242,263,281,302,322,343,362,382,401,422,443,463,483,502,522,541,563,583,603,621,642,663,681,701,723,741,763,781,802,822,842,863,883,902,922,942,961,983,1002,1022,1042,1063,1082,1102,1122,1142,1163,1183,1202,1221,1242,1263,1284,1303,1322,1341,1362,1382,1402,1423,1443,1462,1482,1502,1522,1541,1562,1581,1603,1622,1643,1662,1683,1702,1722,1743,1761,1782,1803,1822,1842,1863,1881,1911,1921,1943,1963,1982,2002,2022,2043,2061],"xSR":733.5,"ySR":493.35,"xT1":420.09999999999997,"yT1":0,"xT2":1046.8999999999999,"yT2":0,"toosoon":0,"cond_shown":"Congruent","ratio_trial":200,"L_num":3,"L_den":6,"R_num":14,"R_den":20,"correct_side":2,"subjID":"dianaramirez35","gender":"1","school":"4","age":"9"},{"start_time":1552069073755,"click_time":1552069075515,"finger_time":1552069075075,"fix_duration":499.49785040712123,"trial":7,"RT":1320,"MT":440,"sideResp":2,"stimulus":[],"xmouse":[820,819,818,817,817,817,817,817,817,817,817,817,817,817,817,817,817,817,817,817,817,817,817,817,817,817,817,817,817,817,817,817,817,817,817,817,817,817,817,817,817,817,817,817,817,817,817,817,817,817,817,817,817,817,817,817,817,817,817,817,817,817,817,817,817,827,836,839,839,847,876,895,914,922,935,945,947,949,954,963,983,991,1000,1010,1024,1068,1094,1108,1125],"ymouse":[578,578,577,577,577,577,577,577,577,577,577,577,577,577,577,577,577,577,577,577,577,577,577,577,577,577,577,577,577,577,577,577,577,577,577,577,577,577,577,577,577,577,577,577,577,577,577,577,577,577,577,577,577,577,577,577,577,577,577,577,577,577,577,575,572,543,519,511,511,496,457,428,405,392,355,310,295,279,265,246,210,198,187,176,161,131,117,109,99],"timestamp_mouse":[2,24,44,60,81,99,121,141,160,181,201,221,240,260,279,301,321,341,360,380,401,421,439,460,480,501,519,541,560,581,600,620,640,660,680,701,719,741,761,779,800,820,840,861,880,899,921,941,961,979,1000,1021,1041,1060,1079,1099,1121,1141,1161,1181,1200,1220,1241,1260,1280,1301,1320,1341,1361,1380,1399,1419,1440,1459,1480,1499,1519,1540,1560,1580,1600,1620,1639,1660,1681,1700,1720,1740,1760],"xSR":733.5,"ySR":493.35,"xT1":420.09999999999997,"yT1":0,"xT2":1046.8999999999999,"yT2":0,"toosoon":0,"cond_shown":"Incongruent","ratio_trial":300,"L_num":13,"L_den":26,"R_num":12,"R_den":15,"correct_side":2,"subjID":"dianaramirez35","gender":"1","school":"4","age":"9"},{"start_time":1552069079000,"click_time":1552069080255,"finger_time":1552069079855,"fix_duration":742.9043567934758,"trial":8,"RT":855,"MT":400,"sideResp":1,"stimulus":[],"xmouse":[768,768,768,768,768,768,768,768,768,768,768,768,768,768,768,768,768,768,768,768,768,768,768,768,768,768,768,768,768,768,768,768,768,768,768,768,768,768,768,768,760,752,709,685,659,631,596,577,577,577,577,577,577,577,577,577,577,577,577,577,577,577,448],"ymouse":[534,534,534,534,534,534,534,534,534,534,534,534,534,534,534,534,534,534,534,534,534,534,534,534,534,534,534,534,534,534,534,534,534,534,534,534,534,534,534,534,526,518,435,359,277,187,68,3,3,3,3,3,3,3,3,3,3,3,3,3,3,3,12],"timestamp_mouse":[15,34,55,76,96,115,135,156,175,195,216,235,256,274,296,316,336,355,376,396,416,435,456,476,496,516,535,555,575,596,616,635,655,675,695,716,736,756,776,796,814,835,855,876,895,916,935,955,974,995,1014,1034,1055,1074,1095,1116,1135,1155,1174,1195,1215,1234,1255],"xSR":733.5,"ySR":493.35,"xT1":420.09999999999997,"yT1":0,"xT2":1046.8999999999999,"yT2":0,"toosoon":0,"cond_shown":"Congruent","ratio_trial":300,"L_num":20,"L_den":25,"R_num":14,"R_den":28,"correct_side":1,"subjID":"dianaramirez35","gender":"1","school":"4","age":"9"},{"start_time":1552069082315,"click_time":1552069083656,"finger_time":1552069083175,"fix_duration":719.3438530811488,"trial":9,"RT":860,"MT":481,"sideResp":2,"stimulus":[],"xmouse":[776,776,776,776,776,776,776,776,776,776,776,776,776,776,776,776,776,776,776,776,776,776,776,776,776,776,776,776,776,776,776,776,776,776,776,776,776,776,777,778,785,808,821,835,851,872,887,916,942,971,996,1013,1023,1026,1030,1034,1035,1035,1035,1036,1038,1040,1040,1040,1040,1040,1040,1074],"ymouse":[534,534,534,534,534,534,534,534,534,534,534,534,534,534,534,534,534,534,534,534,534,534,534,534,534,534,534,534,534,534,534,534,534,534,534,534,534,534,532,531,527,516,508,493,472,445,418,373,354,341,328,315,273,249,221,190,156,86,56,35,19,5,5,5,5,5,5,1],"timestamp_mouse":[9,33,40,60,79,99,120,140,159,181,200,220,241,261,280,300,320,340,360,380,400,420,440,460,479,500,520,540,560,580,599,620,640,659,680,700,719,740,759,780,800,821,839,860,881,901,922,941,962,980,1002,1022,1042,1061,1081,1101,1122,1141,1160,1182,1202,1221,1242,1261,1282,1302,1322,1341],"xSR":733.5,"ySR":493.35,"xT1":420.09999999999997,"yT1":0,"xT2":1046.8999999999999,"yT2":0,"toosoon":0,"cond_shown":"Incongruent","ratio_trial":100,"L_num":6,"L_den":10,"R_num":11,"R_den":22,"correct_side":1,"subjID":"dianaramirez35","gender":"1","school":"4","age":"9"},{"start_time":1552069086515,"click_time":1552069087676,"finger_time":1552069087497,"fix_duration":1477.9656474861974,"trial":10,"RT":982,"MT":179,"sideResp":2,"stimulus":[],"xmouse":[813,813,813,813,813,813,813,813,813,813,813,813,813,813,813,813,813,813,813,813,813,813,813,813,813,813,813,813,813,813,813,813,813,813,813,813,813,813,813,813,813,813,813,813,813,813,815,820,827,840,855,875,922,939,957,978,1003,1041,1056],"ymouse":[550,550,550,550,550,550,550,550,550,550,550,550,550,550,550,550,550,550,550,550,550,550,550,550,550,550,550,550,550,550,550,550,550,550,550,550,550,550,550,550,550,550,549,549,549,549,544,528,502,457,408,359,250,207,167,123,85,46,37],"timestamp_mouse":[9,21,42,61,81,100,121,142,162,181,202,222,241,262,282,301,320,342,361,382,401,422,442,460,482,501,521,541,562,582,601,620,642,662,681,702,722,742,762,781,800,821,841,862,881,902,921,942,961,982,1001,1020,1041,1061,1081,1101,1121,1140,1161],"xSR":733.5,"ySR":493.35,"xT1":420.09999999999997,"yT1":0,"xT2":1046.8999999999999,"yT2":0,"toosoon":0,"cond_shown":"Congruent","ratio_trial":100,"L_num":12,"L_den":30,"R_num":13,"R_den":26,"correct_side":2,"subjID":"dianaramirez35","gender":"1","school":"4","age":"9"},{"start_time":1552069089737,"click_time":1552069091417,"finger_time":1552069090596,"fix_duration":879.5819996560007,"trial":11,"RT":859,"MT":821,"sideResp":2,"stimulus":[],"xmouse":[783,783,783,783,783,783,783,783,783,783,783,783,783,783,783,783,783,783,783,783,783,783,783,783,783,783,783,783,783,783,783,783,783,783,783,783,783,783,783,784,800,812,830,854,873,899,904,906,908,908,908,908,908,908,908,908,908,910,910,913,940,963,985,1007,1023,1044,1051,1056,1067,1083,1115,1117,1118,1119,1119,1118,1116,1116,1115,1115,1115,1115,1115,1115],"ymouse":[547,547,547,547,547,547,547,547,547,547,547,547,547,547,547,547,547,547,547,547,547,547,547,547,547,547,547,547,547,547,547,547,547,547,547,547,547,547,547,546,534,518,493,453,419,348,325,309,299,295,293,293,293,293,293,293,293,290,289,283,251,233,213,194,177,158,151,149,146,146,139,136,132,128,122,113,108,106,106,106,106,105,102,98],"timestamp_mouse":[30,39,58,78,100,119,140,160,179,199,219,240,259,280,299,320,339,359,378,398,420,439,460,479,500,519,540,560,579,600,620,639,660,680,700,720,739,759,780,798,819,840,859,879,898,919,940,959,979,999,1019,1039,1059,1078,1099,1119,1139,1159,1179,1199,1218,1239,1260,1280,1300,1319,1340,1360,1379,1398,1420,1440,1459,1478,1500,1519,1539,1560,1580,1599,1619,1639,1658,1680],"xSR":733.5,"ySR":493.35,"xT1":420.09999999999997,"yT1":0,"xT2":1046.8999999999999,"yT2":0,"toosoon":0,"cond_shown":"Congruent","ratio_trial":100,"L_num":6,"L_den":20,"R_num":5,"R_den":25,"correct_side":1,"subjID":"dianaramirez35","gender":"1","school":"4","age":"9"},{"start_time":1552069093427,"click_time":1552069095657,"finger_time":1552069094955,"fix_duration":250,"trial":12,"RT":1528,"MT":702,"sideResp":1,"stimulus":[],"xmouse":[773,773,773,773,773,773,773,773,773,773,772,771,771,770,770,770,770,770,770,770,770,770,770,770,770,770,770,770,769,769,769,769,769,769,769,769,769,768,768,767,767,766,766,766,766,766,766,766,766,766,766,766,766,765,764,764,763,763,763,763,763,763,763,763,762,760,759,759,759,758,758,755,752,749,746,743,725,717,710,705,703,701,701,701,700,700,694,686,678,664,646,610,589,573,559,551,549,547,546,544,540,530,524,519,515,511,492,488,483,475,469,463],"ymouse":[548,548,548,548,548,548,548,548,548,548,548,548,548,549,549,549,549,549,549,549,549,549,549,549,549,549,549,549,550,550,550,550,550,550,550,550,550,551,552,553,553,554,555,555,555,555,555,555,555,555,555,555,555,556,558,558,560,560,560,560,560,560,559,557,553,546,544,541,540,539,537,532,526,522,516,510,487,479,474,469,467,466,466,466,466,465,447,430,411,387,355,290,258,229,205,185,161,155,152,149,145,138,134,131,128,125,115,113,109,104,100,96],"timestamp_mouse":[18,39,49,68,90,110,129,150,170,188,210,230,249,269,290,309,329,350,369,389,410,429,450,470,489,509,530,550,568,589,609,629,649,669,690,710,728,749,769,790,809,829,849,870,889,910,929,949,970,990,1010,1029,1050,1069,1089,1109,1129,1149,1169,1190,1209,1228,1249,1270,1289,1310,1328,1350,1369,1389,1409,1428,1449,1469,1489,1508,1528,1549,1568,1589,1610,1629,1649,1670,1690,1710,1729,1750,1770,1790,1809,1829,1849,1869,1889,1910,1929,1949,1970,1990,2009,2029,2049,2069,2089,2109,2129,2150,2170,2190,2209,2229],"xSR":733.5,"ySR":493.35,"xT1":420.09999999999997,"yT1":0,"xT2":1046.8999999999999,"yT2":0,"toosoon":0,"cond_shown":"Incongruent","ratio_trial":200,"L_num":1,"L_den":3,"R_num":2,"R_den":15,"correct_side":1,"subjID":"dianaramirez35","gender":"1","school":"4","age":"9"},{"start_time":1552069099198,"click_time":1552069100897,"finger_time":1552069100056,"fix_duration":618.904466021967,"trial":13,"RT":858,"MT":841,"sideResp":2,"stimulus":[],"xmouse":[773,773,773,773,773,773,773,773,773,773,773,772,772,772,772,772,772,772,772,772,772,772,772,772,772,772,772,772,772,772,772,773,773,773,773,773,773,773,773,774,777,778,783,789,791,792,793,794,794,794,794,795,797,805,812,820,827,849,856,858,865,873,877,898,920,944,982,1012,1055,1063,1068,1076,1088,1115,1130,1140,1149,1154,1158,1158,1158,1158,1158,1153,1149,1142],"ymouse":[523,523,523,523,523,523,523,523,523,524,524,524,524,524,524,524,524,524,524,524,524,524,525,526,527,527,527,527,527,527,528,528,528,528,528,528,528,528,528,527,522,518,509,486,474,466,461,455,454,454,453,449,441,412,393,377,360,324,313,306,299,289,287,266,251,236,213,199,173,169,165,161,154,138,128,116,102,89,58,48,38,33,29,26,26,26],"timestamp_mouse":[1,19,39,59,79,97,118,138,158,179,198,219,239,259,278,299,318,338,358,377,399,419,438,457,479,499,518,538,558,578,599,618,638,658,678,699,718,738,759,778,798,818,838,858,878,899,919,939,958,978,999,1018,1038,1058,1078,1098,1118,1139,1158,1178,1198,1218,1239,1257,1278,1298,1319,1338,1357,1378,1398,1417,1439,1458,1478,1498,1518,1537,1559,1578,1598,1617,1638,1658,1679,1699],"xSR":733.5,"ySR":493.35,"xT1":420.09999999999997,"yT1":0,"xT2":1046.8999999999999,"yT2":0,"toosoon":0,"cond_shown":"Incongruent","ratio_trial":200,"L_num":7,"L_den":10,"R_num":14,"R_den":28,"correct_side":1,"subjID":"dianaramirez35","gender":"1","school":"4","age":"9"},{"start_time":1552069103642,"click_time":1552069105136,"finger_time":1552069104855,"fix_duration":1085.544012393682,"trial":14,"RT":1213,"MT":281,"sideResp":1,"stimulus":[],"xmouse":[739,739,739,739,739,739,739,739,739,741,760,773,787,796,800,800,800,800,800,800,800,800,800,800,800,801,802,803,804,804,806,808,809,810,810,810,810,810,810,810,810,810,810,810,810,810,810,810,810,810,810,810,810,810,810,810,810,810,808,802,782,765,746,729,710,679,666,649,632,609,568,547,531,521,517],"ymouse":[563,563,563,563,563,563,563,564,564,564,564,564,564,564,564,564,564,564,564,564,564,564,564,564,564,564,563,561,557,553,546,543,542,541,540,540,540,540,540,540,540,540,540,540,540,540,540,540,540,540,540,540,540,540,540,540,540,531,519,495,428,381,333,293,254,191,170,151,137,126,110,104,99,96,94],"timestamp_mouse":[15,43,55,74,95,114,133,155,175,194,213,234,255,275,294,314,334,355,375,394,413,435,454,475,494,514,535,554,575,595,615,633,654,675,694,715,735,754,774,795,815,835,855,875,894,915,934,954,975,995,1014,1034,1054,1074,1094,1114,1134,1155,1174,1194,1213,1234,1255,1274,1294,1315,1334,1354,1373,1394,1414,1434,1455,1474,1494],"xSR":733.5,"ySR":493.35,"xT1":420.09999999999997,"yT1":0,"xT2":1046.8999999999999,"yT2":0,"toosoon":0,"cond_shown":"Congruent","ratio_trial":200,"L_num":20,"L_den":25,"R_num":9,"R_den":15,"correct_side":1,"subjID":"dianaramirez35","gender":"1","school":"4","age":"9"},{"start_time":1552069107539,"click_time":1552069109157,"finger_time":1552069108796,"fix_duration":1260.962074492431,"trial":15,"RT":1257,"MT":361,"sideResp":2,"stimulus":[],"xmouse":[775,772,770,769,769,769,769,769,768,768,768,768,768,768,768,768,768,768,768,768,768,768,768,768,768,768,768,768,768,768,768,768,768,768,768,768,768,768,768,768,768,768,768,768,768,768,768,768,768,768,768,768,768,768,768,768,768,768,768,768,772,798,857,936,1021,1102,1115,1126,1136,1152,1185,1200,1211,1214,1215,1211,1209,1205,1199,1186,1139],"ymouse":[523,523,523,523,523,523,523,523,524,524,524,524,524,524,524,524,524,524,524,524,524,524,524,524,524,524,524,524,524,524,524,524,524,524,524,524,524,524,524,524,524,524,524,524,524,524,524,524,524,524,524,524,524,524,524,524,524,524,524,524,524,513,490,450,406,344,325,304,282,234,154,119,91,64,42,19,13,11,10,10,10],"timestamp_mouse":[23,44,58,78,98,118,138,158,178,197,218,238,258,277,296,318,337,357,377,398,418,438,457,478,498,517,537,557,577,598,617,637,658,678,698,718,737,758,778,797,818,837,858,878,897,917,938,957,977,998,1017,1037,1058,1078,1097,1118,1137,1157,1178,1197,1217,1238,1257,1278,1297,1318,1337,1357,1378,1398,1416,1437,1457,1477,1497,1517,1537,1558,1577,1597,1618],"xSR":733.5,"ySR":493.35,"xT1":420.09999999999997,"yT1":0,"xT2":1046.8999999999999,"yT2":0,"toosoon":0,"cond_shown":"Incongruent","ratio_trial":300,"L_num":7,"L_den":10,"R_num":8,"R_den":20,"correct_side":1,"subjID":"dianaramirez35","gender":"1","school":"4","age":"9"},{"start_time":1552069116627,"click_time":1552069117737,"finger_time":1552069117637,"fix_duration":787.2528386879942,"trial":16,"RT":1010,"MT":100,"sideResp":2,"stimulus":[],"xmouse":[785,785,785,784,784,782,782,782,782,782,782,782,782,782,782,782,782,782,782,782,782,782,782,782,782,782,782,782,782,782,782,782,782,782,782,782,782,782,782,782,782,782,782,782,782,782,782,784,789,798,816,885,918,965,1006,1057],"ymouse":[563,563,563,563,563,564,564,564,564,564,564,564,564,564,564,564,564,564,564,564,564,564,564,564,564,564,564,564,564,564,564,564,564,564,564,564,564,564,564,564,564,564,564,564,564,564,558,552,540,521,486,366,317,239,152,30],"timestamp_mouse":[9,41,51,69,90,110,128,149,169,190,208,230,249,270,290,309,329,350,370,390,409,429,450,469,490,510,529,549,569,589,609,629,649,670,688,709,729,750,769,790,810,829,849,868,890,909,930,949,968,989,1010,1029,1050,1069,1090,1110],"xSR":733.5,"ySR":493.35,"xT1":420.09999999999997,"yT1":0,"xT2":1046.8999999999999,"yT2":0,"toosoon":0,"cond_shown":"Incongruent","ratio_trial":300,"L_num":8,"L_den":10,"R_num":9,"R_den":18,"correct_side":1,"subjID":"dianaramirez35","gender":"1","school":"4","age":"9"},{"start_time":1552069120137,"click_time":1552069121756,"finger_time":1552069121116,"fix_duration":918.972140788472,"trial":17,"RT":979,"MT":640,"sideResp":1,"stimulus":[],"xmouse":[786,786,786,786,786,786,786,786,786,786,786,786,786,786,786,786,786,786,786,786,786,786,786,786,786,786,786,786,786,786,786,786,786,786,786,786,786,786,786,786,786,786,786,786,786,784,777,769,760,750,746,736,736,736,733,724,687,666,653,631,616,612,610,608,606,600,595,588,578,571,550,546,543,543,543,543,542,541,540,537,528,518],"ymouse":[549,549,549,549,549,549,549,549,549,549,549,549,549,549,549,549,549,549,549,549,549,549,549,549,549,549,549,549,549,549,549,549,549,549,549,549,549,549,549,549,549,549,549,549,549,546,536,524,508,489,484,444,427,414,398,379,335,315,296,267,240,232,227,222,217,205,196,184,168,151,99,80,62,47,37,29,22,21,21,21,21,21],"timestamp_mouse":[1,33,40,61,79,100,119,140,158,179,199,220,239,258,280,300,320,340,359,379,399,419,439,458,479,500,520,539,560,580,599,618,639,659,680,699,720,738,758,779,800,820,840,859,879,899,919,939,960,979,999,1019,1039,1059,1079,1100,1120,1141,1159,1179,1200,1220,1239,1258,1280,1300,1319,1339,1360,1380,1400,1419,1438,1459,1480,1500,1518,1539,1559,1580,1599,1619],"xSR":733.5,"ySR":493.35,"xT1":420.09999999999997,"yT1":0,"xT2":1046.8999999999999,"yT2":0,"toosoon":0,"cond_shown":"Incongruent","ratio_trial":100,"L_num":12,"L_den":24,"R_num":9,"R_den":15,"correct_side":2,"subjID":"dianaramirez35","gender":"1","school":"4","age":"9"},{"start_time":1552069124361,"click_time":1552069127056,"finger_time":1552069125956,"fix_duration":1263.4341361772074,"trial":18,"RT":1595,"MT":1100,"sideResp":2,"stimulus":[],"xmouse":[804,804,804,804,804,804,804,804,804,804,804,804,804,804,804,804,804,804,804,804,804,804,804,804,804,804,804,804,804,804,804,804,804,804,804,804,804,804,804,804,804,804,804,804,804,804,804,804,804,804,804,804,804,804,804,804,804,804,804,804,804,804,804,804,804,804,804,804,804,804,804,804,804,804,804,804,804,804,804,786,769,746,723,704,688,688,688,688,688,688,688,688,688,688,688,688,688,688,688,688,688,688,688,688,688,688,693,699,714,751,773,793,816,871,912,959,1007,1042,1079,1166,1190,1211,1225,1235,1244,1245,1245,1245,1245,1245,1235,1214,1183,1148,1105],"ymouse":[533,533,533,533,533,533,533,533,533,533,533,533,533,533,533,533,533,533,533,533,533,533,533,533,533,533,533,533,533,533,533,533,533,533,533,533,533,533,533,533,533,533,533,533,533,533,533,533,533,533,533,533,533,533,533,533,533,533,533,533,533,533,533,533,533,533,533,533,533,533,533,533,533,533,533,533,533,530,526,487,459,433,408,389,374,374,374,374,374,374,374,374,374,374,374,374,374,374,374,374,374,374,374,374,374,372,363,356,348,339,334,327,322,308,296,281,262,241,213,138,113,89,71,55,40,38,36,36,36,36,36,36,39,42,49],"timestamp_mouse":[15,41,55,75,95,116,134,155,176,195,215,234,255,274,295,315,334,356,376,395,415,435,455,475,496,516,536,555,574,595,616,635,656,675,695,715,735,756,776,794,815,835,855,876,895,915,936,955,975,994,1015,1036,1056,1075,1095,1116,1134,1155,1175,1196,1215,1235,1255,1274,1295,1315,1336,1355,1375,1396,1415,1435,1455,1475,1495,1516,1535,1555,1575,1595,1615,1636,1655,1674,1695,1715,1736,1756,1776,1795,1815,1835,1855,1875,1896,1915,1935,1956,1974,1994,2014,2036,2056,2075,2096,2116,2135,2156,2175,2196,2215,2235,2254,2276,2295,2315,2335,2355,2376,2396,2416,2435,2456,2475,2495,2514,2535,2555,2576,2595,2615,2634,2655,2675,2694],"xSR":733.5,"ySR":493.35,"xT1":420.09999999999997,"yT1":0,"xT2":1046.8999999999999,"yT2":0,"toosoon":0,"cond_shown":"Congruent","ratio_trial":300,"L_num":5,"L_den":25,"R_num":6,"R_den":12,"correct_side":2,"subjID":"dianaramirez35","gender":"1","school":"4","age":"9"},{"start_time":1552069129577,"click_time":1552069131716,"finger_time":1552069131277,"fix_duration":1318.8862798612688,"trial":19,"RT":1700,"MT":439,"sideResp":1,"stimulus":[],"xmouse":[792,791,791,788,787,787,786,786,785,785,785,785,785,785,785,785,785,785,785,785,785,785,785,785,785,785,785,785,785,785,785,785,785,785,785,785,785,785,785,785,785,785,785,785,785,785,785,785,785,785,785,785,785,785,785,785,785,785,785,788,788,788,788,788,788,788,788,788,788,788,788,788,788,788,788,788,788,788,788,788,788,788,788,787,760,723,671,645,622,611,611,611,609,603,590,583,576,570,564,561,559,555,552,549,541,535,525,516],"ymouse":[557,559,559,565,565,566,568,569,570,570,570,570,570,570,570,570,570,570,570,570,570,570,570,570,570,570,570,570,570,570,570,570,570,570,570,570,570,570,570,570,570,570,570,570,570,570,570,570,570,570,570,570,570,570,570,570,570,571,571,571,571,571,571,571,571,571,571,571,571,571,571,571,571,571,571,571,571,571,571,571,571,567,563,553,519,489,443,411,371,339,319,297,277,256,216,198,180,159,120,108,101,95,90,87,80,75,71,67],"timestamp_mouse":[1,30,39,60,78,99,120,139,159,179,200,218,239,259,280,299,320,339,360,380,399,420,439,460,478,499,520,539,559,580,598,620,640,660,679,700,720,740,760,779,799,820,840,860,879,899,919,939,960,980,1000,1019,1040,1059,1079,1099,1118,1140,1159,1180,1198,1219,1240,1259,1280,1300,1319,1340,1360,1378,1400,1419,1440,1459,1479,1500,1518,1539,1559,1579,1599,1620,1639,1659,1680,1700,1720,1739,1759,1779,1799,1820,1839,1859,1880,1899,1919,1939,1960,1979,2000,2019,2039,2060,2078,2099,2118,2139],"xSR":733.5,"ySR":493.35,"xT1":420.09999999999997,"yT1":0,"xT2":1046.8999999999999,"yT2":0,"toosoon":0,"cond_shown":"Incongruent","ratio_trial":300,"L_num":1,"L_den":2,"R_num":3,"R_den":15,"correct_side":1,"subjID":"dianaramirez35","gender":"1","school":"4","age":"9"},{"start_time":1552069135062,"click_time":1552069140837,"finger_time":1552069135836,"fix_duration":424.11439202493705,"trial":20,"RT":774,"MT":5001,"sideResp":2,"stimulus":[],"xmouse":[762,762,762,762,762,762,762,762,762,762,762,762,762,762,762,762,762,762,762,762,762,762,762,762,762,762,762,762,762,762,762,762,765,774,802,816,823,826,828,828,828,826,824,817,816,816,816,816,816,816,816,816,816,816,816,816,816,816,816,816,821,828,841,870,944,998,1005,1030,1030,1030,1030,1030,1092,1119,1155,1155,1155,1155,1155,1155,1155,1155,1155,1155,1155,1155,1155,1155,1155,1155,1155,1155,1155,1155,1155,1155,1155,1155,1155,1155,1155,1155,1155,1155,1155,1155,1155,1155,1155,1155,1155,1155,1155,1155,1155,1155,1155,1155,1155,1155,1155,1155,1155,1155,1155,1155,1155,1155,1155,1155,1155,1155,1155,1155,1155,1155,1155,1155,1155,1155,1155,1155,1155,1155,1155,1155,1155,1155,1155,1155,1155,1155,1155,1155,1155,1155,1155,1155,1155,1155,1155,1155,1155,1155,1155,1155,1155,1155,1155,1155,1155,1155,1155,1155,1155,1155,1155,1155,1155,1155,1155,1155,1155,1155,1155,1155,1155,1155,1155,1155,1155,1155,1155,1155,1155,1155,1155,1155,1155,1155,1155,1155,1155,1155,1155,1155,1155,1155,1155,1155,1155,1155,1155,1155,1155,1155,1155,1155,1155,1155,1186,1166,1148,1134,1100,1079,1048,1010,954,828,757,687,634,572,480,454,430,408,383,349,340,337,335,332,324,323,323,323,333,348,366,385,410,464,543,584,630,664,707,758,768,771,771,771,770,779,794,824,865,981,999,1034,1055,1070,1118,1143,1169,1193,1217,1223,1226,1228,1230,1230,1228,1214,1191,1167,1141],"ymouse":[547,547,547,547,547,547,547,547,547,547,547,547,547,547,547,547,547,547,547,547,547,547,547,547,547,547,547,547,547,547,547,547,544,537,520,511,503,497,492,490,490,493,497,511,516,516,516,516,516,516,516,516,516,516,516,516,516,516,516,516,516,518,524,546,637,706,723,758,758,758,758,758,749,749,753,753,753,753,753,753,753,753,753,753,753,753,753,753,753,753,753,753,753,753,753,753,753,753,753,753,753,753,753,753,753,753,753,753,753,753,753,753,753,753,753,753,753,753,753,753,753,753,753,753,753,753,753,753,753,753,753,753,753,753,753,753,753,753,753,753,753,753,753,753,753,753,753,753,753,753,753,753,753,753,753,753,753,753,753,753,753,753,753,753,753,753,753,753,753,753,753,753,753,753,753,753,753,753,753,753,753,753,753,753,753,753,753,753,753,753,753,753,753,753,753,753,753,753,753,753,753,753,753,753,753,753,753,753,753,753,753,753,753,753,753,753,753,753,753,753,646,636,627,619,608,606,600,594,585,553,532,514,502,478,435,419,406,393,382,368,366,366,365,365,365,365,365,365,365,365,372,378,388,418,468,497,527,557,583,605,605,605,600,590,562,548,532,507,479,402,388,357,335,314,251,221,192,162,123,109,96,90,85,83,82,80,76,70,62],"timestamp_mouse":[14,38,55,73,95,114,135,155,175,194,215,235,254,275,295,315,335,355,375,395,414,435,453,475,494,515,535,555,574,595,613,635,654,674,694,714,734,754,774,795,814,834,854,874,893,915,934,954,974,994,1014,1034,1053,1075,1094,1114,1133,1155,1173,1194,1214,1235,1255,1274,1294,1315,1334,1354,1373,1395,1414,1434,1455,1475,1494,1514,1534,1554,1574,1594,1614,1633,1655,1674,1694,1714,1734,1753,1775,1794,1814,1835,1854,1874,1894,1914,1934,1955,1974,1995,2015,2034,2054,2074,2094,2114,2135,2155,2174,2195,2214,2234,2254,2274,2293,2314,2335,2354,2373,2394,2413,2433,2454,2474,2494,2514,2534,2555,2574,2594,2615,2635,2654,2674,2695,2714,2735,2754,2774,2794,2814,2834,2854,2874,2895,2913,2933,2955,2975,2993,3015,3034,3055,3075,3094,3115,3134,3153,3175,3194,3214,3235,3254,3275,3294,3314,3335,3354,3374,3395,3414,3434,3454,3474,3494,3514,3534,3553,3574,3594,3614,3635,3654,3675,3693,3715,3735,3754,3775,3794,3814,3834,3855,3874,3893,3915,3934,3955,3976,3995,4014,4035,4054,4075,4094,4114,4134,4154,4174,4194,4215,4234,4254,4274,4294,4314,4333,4353,4375,4394,4415,4434,4455,4474,4494,4514,4535,4554,4574,4594,4613,4635,4654,4675,4694,4715,4735,4755,4775,4794,4813,4833,4853,4873,4894,4914,4935,4955,4974,4994,5014,5034,5055,5074,5094,5114,5134,5155,5174,5194,5214,5234,5255,5274,5295,5314,5335,5354,5374,5397,5414,5434,5455,5474,5494,5515,5535,5554,5575,5594,5613,5635,5654,5675,5694,5713,5734,5754,5774],"xSR":733.5,"ySR":493.35,"xT1":420.09999999999997,"yT1":0,"xT2":1046.8999999999999,"yT2":0,"toosoon":0,"cond_shown":"Incongruent","ratio_trial":200,"L_num":7,"L_den":10,"R_num":8,"R_den":16,"correct_side":1,"subjID":"dianaramirez35","gender":"1","school":"4","age":"9"},{"start_time":1552069143480,"click_time":1552069145637,"finger_time":1552069145037,"fix_duration":1361.341707240369,"trial":21,"RT":1557,"MT":600,"sideResp":2,"stimulus":[],"xmouse":[801,801,801,802,802,804,805,807,808,810,812,813,814,814,814,816,816,817,819,819,819,819,819,819,819,819,819,819,819,820,820,820,820,820,820,820,820,820,820,820,820,820,820,820,820,820,820,820,820,820,820,820,820,820,820,820,820,820,820,820,820,820,820,820,820,820,820,820,820,820,820,820,820,820,820,823,828,838,862,874,886,899,934,952,969,992,1013,1036,1073,1082,1085,1085,1085,1085,1085,1085,1086,1091,1091,1092,1092,1095,1096,1101,1104,1105,1108,1109],"ymouse":[543,543,543,542,542,541,540,539,538,536,535,534,533,533,533,532,532,531,529,529,529,529,529,529,529,529,529,529,529,528,528,528,528,528,528,528,528,528,528,528,528,528,528,528,528,528,528,528,528,528,528,528,528,528,528,528,528,528,528,528,528,528,528,528,528,528,528,528,528,528,528,528,528,528,528,524,519,508,474,455,432,411,361,336,312,278,250,221,174,159,153,152,152,152,152,151,148,142,140,138,135,128,124,114,109,105,100,97],"timestamp_mouse":[17,36,57,77,97,117,137,157,176,197,217,237,256,277,297,317,338,356,377,396,417,437,456,477,496,516,536,558,578,597,617,637,656,677,696,716,737,757,776,797,818,837,856,876,896,917,936,958,976,996,1017,1037,1056,1077,1096,1116,1137,1157,1177,1196,1216,1237,1257,1276,1297,1317,1336,1358,1378,1398,1416,1436,1456,1478,1497,1517,1537,1557,1577,1596,1618,1637,1658,1676,1697,1717,1737,1757,1777,1796,1816,1837,1857,1877,1897,1918,1937,1958,1977,1996,2017,2036,2057,2077,2097,2117,2137,2156],"xSR":733.5,"ySR":493.35,"xT1":420.09999999999997,"yT1":0,"xT2":1046.8999999999999,"yT2":0,"toosoon":0,"cond_shown":"Congruent","ratio_trial":200,"L_num":6,"L_den":12,"R_num":7,"R_den":10,"correct_side":2,"subjID":"dianaramirez35","gender":"1","school":"4","age":"9"},{"start_time":1552069147159,"click_time":1552069149037,"finger_time":1552069148477,"fix_duration":520.320649007691,"trial":22,"RT":1318,"MT":560,"sideResp":2,"stimulus":[],"xmouse":[743,743,743,743,743,743,743,743,743,743,743,743,743,743,743,743,743,743,743,743,743,743,743,743,743,743,743,743,743,743,743,743,743,743,743,743,743,743,743,743,743,743,743,743,743,743,743,743,743,743,743,743,743,743,743,743,743,743,743,743,743,743,743,743,745,750,758,768,780,823,843,860,879,879,924,937,948,960,982,1012,1024,1035,1046,1055,1068,1072,1072,1073,1075,1075,1075,1076,1077,1078],"ymouse":[540,540,540,540,540,540,540,540,540,540,540,540,540,540,540,540,540,540,540,540,540,540,540,540,540,540,540,540,540,540,540,540,540,540,540,540,540,540,540,540,540,540,540,540,540,540,540,540,540,540,540,540,540,540,540,540,540,540,540,540,540,540,536,531,505,487,469,450,433,386,366,346,324,324,265,248,233,217,197,177,171,164,156,147,131,124,120,117,110,109,107,104,101,97],"timestamp_mouse":[18,42,58,78,97,117,138,158,177,198,217,238,258,277,298,319,338,358,378,397,417,437,458,478,498,519,537,558,577,598,619,638,658,678,697,717,739,758,777,798,819,839,858,878,897,918,938,958,977,997,1017,1038,1059,1078,1099,1118,1138,1158,1177,1197,1217,1239,1257,1278,1298,1318,1339,1358,1378,1397,1418,1439,1458,1477,1497,1518,1538,1557,1577,1598,1618,1638,1657,1677,1698,1719,1739,1757,1779,1797,1818,1838,1857,1877],"xSR":733.5,"ySR":493.35,"xT1":420.09999999999997,"yT1":0,"xT2":1046.8999999999999,"yT2":0,"toosoon":0,"cond_shown":"Incongruent","ratio_trial":300,"L_num":4,"L_den":20,"R_num":2,"R_den":4,"correct_side":2,"subjID":"dianaramirez35","gender":"1","school":"4","age":"9"},{"start_time":1552069150569,"click_time":1552069152257,"finger_time":1552069152057,"fix_duration":250,"trial":23,"RT":1488,"MT":200,"sideResp":2,"stimulus":[],"xmouse":[805,805,805,805,805,805,805,805,804,801,801,801,801,801,801,801,801,801,801,801,801,801,801,801,801,801,801,801,801,801,801,801,801,801,801,801,801,801,801,801,801,801,801,801,801,801,798,795,785,780,778,775,770,765,756,755,753,753,753,753,753,753,753,753,753,753,753,753,753,753,755,770,788,805,840,864,883,896,919,968,983,1004,1023,1039,1078],"ymouse":[540,540,540,540,540,540,540,540,540,541,541,541,541,541,541,541,541,541,541,541,541,541,541,541,541,541,541,541,541,541,541,541,541,541,541,541,541,541,541,541,541,541,541,541,541,541,541,541,539,537,536,533,530,526,520,519,519,519,519,519,519,519,519,519,519,519,519,519,519,519,518,513,504,495,466,444,426,412,381,292,273,240,206,171,50],"timestamp_mouse":[9,31,48,68,87,108,128,148,168,187,207,228,247,267,288,309,328,348,368,389,407,428,448,469,487,508,528,548,568,587,607,628,647,669,687,707,728,748,767,787,807,828,847,867,887,907,928,947,968,988,1008,1028,1049,1068,1087,1108,1127,1147,1167,1189,1208,1228,1247,1269,1287,1308,1327,1348,1368,1387,1408,1427,1447,1467,1488,1507,1528,1549,1569,1587,1607,1628,1647,1667,1688],"xSR":733.5,"ySR":493.35,"xT1":420.09999999999997,"yT1":0,"xT2":1046.8999999999999,"yT2":0,"toosoon":0,"cond_shown":"Incongruent","ratio_trial":100,"L_num":8,"L_den":20,"R_num":1,"R_den":2,"correct_side":2,"subjID":"dianaramirez35","gender":"1","school":"4","age":"9"},{"start_time":1552069155313,"click_time":1552069157416,"finger_time":1552069156897,"fix_duration":1494.0254125820163,"trial":24,"RT":1584,"MT":519,"sideResp":1,"stimulus":[],"xmouse":[780,780,780,780,780,780,780,780,780,780,780,780,780,780,780,780,780,780,779,778,777,777,777,777,777,776,775,775,775,775,774,773,771,768,766,763,760,757,756,755,755,755,755,755,755,755,755,755,755,755,755,756,759,759,760,761,762,762,762,762,762,762,762,762,762,762,762,762,762,762,762,762,762,762,762,761,761,762,762,760,732,717,631,610,603,601,597,597,597,596,596,596,596,596,596,596,596,596,596,596,596,596,596,596,462,462],"ymouse":[547,547,547,547,547,547,547,547,547,547,547,547,547,547,547,547,547,547,549,550,551,551,551,551,551,553,553,554,554,554,554,554,556,558,562,566,572,580,584,585,585,585,585,585,585,585,585,585,585,585,586,586,583,581,580,578,576,576,575,575,575,575,575,574,574,574,574,574,574,574,574,574,574,574,574,572,569,540,518,492,429,403,263,222,194,172,144,76,47,14,2,2,2,2,2,2,2,2,2,2,2,2,2,2,0,2],"timestamp_mouse":[9,23,43,64,85,103,124,145,164,184,204,225,245,264,284,303,325,344,364,383,404,425,443,464,484,504,524,544,563,584,603,624,645,664,683,704,723,744,764,784,805,824,843,863,884,903,923,945,963,983,1003,1023,1043,1064,1083,1104,1124,1144,1163,1183,1203,1224,1244,1264,1283,1303,1325,1343,1363,1384,1404,1423,1443,1464,1484,1504,1523,1544,1563,1584,1604,1624,1643,1664,1685,1704,1723,1744,1764,1783,1803,1823,1844,1864,1883,1904,1924,1944,1964,1983,2004,2023,2044,2064,2083,2103],"xSR":733.5,"ySR":493.35,"xT1":420.09999999999997,"yT1":0,"xT2":1046.8999999999999,"yT2":0,"toosoon":0,"cond_shown":"Congruent","ratio_trial":100,"L_num":6,"L_den":12,"R_num":15,"R_den":25,"correct_side":2,"subjID":"dianaramirez35","gender":"1","school":"4","age":"9"},{"start_time":1552069159090,"click_time":1552069160657,"finger_time":1552069159997,"fix_duration":311.7759990341925,"trial":25,"RT":907,"MT":660,"sideResp":2,"stimulus":[],"xmouse":[785,787,787,801,801,803,804,805,809,813,816,818,819,819,819,819,819,819,819,819,819,819,819,819,819,819,819,819,819,819,819,819,819,819,819,819,819,819,819,819,819,819,819,821,827,840,852,863,867,868,868,868,868,868,868,868,867,865,860,856,850,845,838,833,831,830,830,830,830,836,848,864,882,945,969,982,1006,1032,1091],"ymouse":[552,552,552,552,552,552,552,551,550,549,548,547,547,547,547,547,547,547,547,547,547,547,547,547,547,547,547,547,547,547,547,547,547,547,547,547,547,547,547,547,547,547,547,545,539,530,520,511,505,503,503,503,503,503,503,503,503,503,503,503,503,503,503,504,504,504,504,504,504,494,480,457,427,301,243,207,143,91,6],"timestamp_mouse":[9,32,48,68,86,106,127,148,167,187,207,227,246,266,286,308,328,346,367,386,407,428,447,467,487,507,527,547,568,588,607,627,647,666,686,708,727,746,766,787,807,826,848,866,886,907,928,947,967,987,1006,1026,1047,1066,1087,1107,1127,1147,1166,1186,1207,1227,1247,1266,1286,1306,1327,1347,1366,1387,1406,1428,1447,1467,1486,1507,1527,1548,1567],"xSR":733.5,"ySR":493.35,"xT1":420.09999999999997,"yT1":0,"xT2":1046.8999999999999,"yT2":0,"toosoon":0,"cond_shown":"Congruent","ratio_trial":300,"L_num":1,"L_den":30,"R_num":8,"R_den":24,"correct_side":2,"subjID":"dianaramirez35","gender":"1","school":"4","age":"9"},{"start_time":1552069164297,"click_time":1552069166357,"finger_time":1552069165877,"fix_duration":1358.9140485118783,"trial":26,"RT":1580,"MT":480,"sideResp":2,"stimulus":[],"xmouse":[776,776,776,776,776,776,776,776,776,776,776,776,776,776,776,776,776,776,776,776,776,776,776,776,776,776,776,777,777,777,777,777,777,777,777,777,777,777,777,777,777,777,777,777,777,777,777,777,777,777,777,777,777,777,777,777,777,777,777,777,777,777,777,777,777,777,777,777,777,777,777,777,777,777,777,777,777,785,818,841,865,892,900,929,938,945,952,960,978,985,992,994,1000,1002,1006,1011,1014,1022,1038,1048,1059,1071,1083,1113],"ymouse":[541,541,541,541,541,541,541,541,541,541,541,541,541,541,541,541,541,541,541,541,541,541,541,541,541,541,541,541,541,541,541,541,541,541,541,541,541,541,541,541,541,541,541,541,541,541,541,541,541,541,541,541,541,541,541,541,542,542,542,542,542,542,542,542,542,542,542,542,542,542,542,542,542,542,542,542,542,542,519,500,476,435,420,356,331,306,284,266,234,224,214,208,190,183,174,164,158,148,133,130,124,117,110,89],"timestamp_mouse":[9,20,41,59,79,100,121,140,161,181,199,219,240,260,280,300,319,341,361,379,400,419,440,460,480,499,520,540,559,579,600,619,641,659,679,699,719,739,760,779,799,819,839,860,879,899,919,940,961,979,999,1020,1040,1059,1081,1099,1120,1140,1160,1180,1201,1219,1239,1259,1280,1300,1321,1339,1360,1379,1401,1421,1440,1459,1480,1501,1519,1540,1559,1580,1600,1620,1640,1660,1680,1700,1720,1739,1760,1780,1800,1819,1840,1859,1880,1899,1919,1939,1959,1979,1999,2020,2040,2060],"xSR":733.5,"ySR":493.35,"xT1":420.09999999999997,"yT1":0,"xT2":1046.8999999999999,"yT2":0,"toosoon":0,"cond_shown":"Incongruent","ratio_trial":200,"L_num":7,"L_den":15,"R_num":6,"R_den":9,"correct_side":2,"subjID":"dianaramirez35","gender":"1","school":"4","age":"9"},{"start_time":1552069169548,"click_time":1552069172457,"finger_time":1552069171837,"fix_duration":1070.1975332221093,"trial":27,"RT":2289,"MT":620,"sideResp":1,"stimulus":[],"xmouse":[773,773,773,773,773,773,773,773,773,773,773,773,773,773,773,773,773,773,773,773,773,773,773,773,773,773,772,772,772,772,772,772,772,772,772,772,772,772,772,772,772,772,772,772,772,772,772,772,772,772,772,772,772,772,772,772,772,772,772,772,771,771,771,771,771,771,771,771,771,771,771,771,771,771,771,771,771,771,771,771,771,771,771,771,771,771,771,771,771,771,771,771,771,771,771,771,771,771,771,771,771,771,770,770,769,769,768,768,767,766,765,763,761,758,755,713,665,598,526,466,380,361,352,352,352,352,352,352,352,352,352,352,352,352,352,352,352,352,352,397,399,401,404,409,419,451],"ymouse":[547,547,547,547,547,547,547,547,547,547,547,547,547,547,547,547,547,547,547,547,547,547,547,547,547,547,547,547,547,547,547,547,547,547,547,547,547,547,547,547,547,547,547,547,547,547,547,547,547,547,547,547,547,547,547,547,547,547,547,547,547,547,547,547,547,547,547,547,547,547,547,547,547,547,547,547,547,547,547,547,547,547,547,547,547,547,547,547,547,547,547,547,547,547,547,547,547,547,547,547,547,547,545,543,542,541,539,539,537,535,528,522,513,502,483,415,368,312,253,197,67,26,4,4,4,4,4,4,4,4,4,4,4,4,4,4,4,4,4,5,8,13,17,25,36,59],"timestamp_mouse":[21,31,49,68,88,108,129,148,169,189,209,229,249,269,289,309,329,348,368,388,408,429,449,469,490,509,528,549,568,588,608,630,649,669,688,708,729,749,770,788,809,828,850,869,888,909,929,949,968,989,1010,1029,1048,1070,1088,1109,1129,1149,1170,1190,1210,1229,1248,1269,1288,1309,1329,1348,1368,1388,1410,1430,1448,1468,1489,1509,1528,1549,1568,1589,1610,1629,1648,1668,1689,1710,1728,1749,1769,1789,1809,1828,1849,1869,1889,1908,1928,1949,1969,1990,2008,2028,2048,2068,2089,2109,2129,2148,2169,2189,2210,2229,2248,2270,2289,2309,2328,2350,2369,2388,2408,2429,2449,2469,2490,2509,2528,2549,2569,2589,2609,2628,2649,2668,2689,2709,2729,2749,2769,2791,2808,2828,2850,2869,2889,2909],"xSR":733.5,"ySR":493.35,"xT1":420.09999999999997,"yT1":0,"xT2":1046.8999999999999,"yT2":0,"toosoon":0,"cond_shown":"Incongruent","ratio_trial":300,"L_num":4,"L_den":5,"R_num":8,"R_den":16,"correct_side":1,"subjID":"dianaramirez35","gender":"1","school":"4","age":"9"},{"start_time":1552069174536,"click_time":1552069176038,"finger_time":1552069175696,"fix_duration":1137.9659013842047,"trial":28,"RT":1160,"MT":342,"sideResp":1,"stimulus":[],"xmouse":[796,796,796,796,796,796,796,796,796,796,796,796,796,796,796,796,796,796,796,796,796,796,796,796,796,796,796,796,796,796,796,796,796,796,796,796,796,796,796,796,796,796,796,796,796,796,796,796,796,796,796,796,796,796,796,796,795,783,748,745,638,556,510,482,473,473,473,473,473,473,474,477,481,483,485,492],"ymouse":[525,525,525,525,525,525,525,525,525,525,525,525,525,525,525,525,525,525,525,525,525,525,525,525,525,525,525,525,525,525,525,525,525,525,525,525,525,525,525,525,525,525,525,525,525,525,525,525,525,525,525,525,525,525,525,525,520,496,446,442,319,226,182,158,148,147,147,147,147,147,136,121,112,108,105,89],"timestamp_mouse":[8,34,41,61,81,101,121,140,160,180,202,221,241,261,282,301,320,341,361,380,401,422,442,460,481,501,520,542,560,580,601,622,641,660,680,700,722,740,761,782,802,820,841,860,880,901,920,942,961,980,1000,1020,1042,1061,1081,1102,1120,1141,1160,1181,1202,1221,1241,1261,1281,1301,1320,1341,1360,1381,1401,1420,1441,1461,1480,1502],"xSR":733.5,"ySR":493.35,"xT1":420.09999999999997,"yT1":0,"xT2":1046.8999999999999,"yT2":0,"toosoon":0,"cond_shown":"Incongruent","ratio_trial":100,"L_num":1,"L_den":2,"R_num":8,"R_den":20,"correct_side":1,"subjID":"dianaramirez35","gender":"1","school":"4","age":"9"},{"start_time":1552069177661,"click_time":1552069181257,"finger_time":1552069179197,"fix_duration":362.88701660617664,"trial":29,"RT":1536,"MT":2060,"sideResp":1,"stimulus":[],"xmouse":[787,787,787,787,787,787,787,787,787,787,787,787,787,787,787,787,787,787,787,787,787,787,787,787,787,787,787,787,787,787,787,787,787,787,787,787,787,787,784,784,782,782,782,782,782,782,782,782,782,782,782,782,782,782,782,782,782,782,782,782,782,782,782,782,782,782,782,782,782,782,782,782,782,783,799,821,850,877,985,1052,1118,1147,1200,1240,1293,1305,1312,1315,1315,1303,1299,1296,1292,1278,1268,1259,1252,1248,1240,1240,1238,1237,1231,1200,1189,1181,1180,1180,1180,1180,1180,1180,1180,1180,1180,1180,1178,1177,1176,1174,1174,1174,1174,1174,1167,1164,1163,1161,1161,1161,1161,1164,1167,1168,1169,1169,1169,1169,1165,1162,1156,1150,1142,1106,1084,1053,994,906,655,523,402,305,237,174,170,170,170,170,170,170,170,170,176,180,216,237,264,284,307,340,348,352,357,357,364,369,374,379,386,421],"ymouse":[536,536,536,536,536,536,536,536,536,536,536,536,536,536,536,536,536,536,536,536,536,536,536,536,536,536,536,536,536,536,536,536,536,536,536,536,536,536,536,537,539,541,543,544,544,545,545,545,545,545,545,545,545,545,545,545,545,545,545,545,545,545,545,545,545,545,545,545,545,545,545,545,545,545,539,521,486,426,293,235,190,176,159,148,136,126,115,101,85,60,56,54,53,53,53,54,55,55,56,56,56,56,56,56,55,53,53,53,53,53,53,53,53,53,53,53,53,53,53,53,53,53,53,53,53,53,53,53,53,53,54,57,59,60,64,65,67,68,80,88,101,115,135,186,201,215,228,234,203,163,118,74,40,3,1,1,1,1,1,1,1,1,1,1,8,18,30,39,47,60,62,62,62,62,62,62,62,62,63,73],"timestamp_mouse":[22,39,55,75,95,115,135,156,176,197,216,236,257,275,296,315,336,357,375,396,415,437,456,476,495,515,536,555,575,595,616,636,655,676,696,717,737,756,775,796,815,836,855,876,896,915,936,955,976,997,1017,1035,1056,1075,1096,1116,1137,1155,1175,1196,1215,1236,1257,1277,1296,1315,1336,1355,1377,1396,1416,1435,1456,1475,1495,1516,1536,1556,1576,1595,1615,1636,1656,1677,1695,1715,1735,1755,1775,1796,1815,1835,1855,1876,1895,1915,1935,1956,1976,1996,2015,2035,2055,2076,2095,2115,2135,2156,2176,2196,2215,2235,2256,2276,2296,2316,2335,2355,2376,2395,2415,2436,2455,2476,2495,2515,2536,2556,2577,2596,2615,2635,2655,2675,2696,2715,2737,2755,2776,2795,2816,2835,2855,2876,2895,2916,2935,2956,2976,2995,3016,3035,3056,3076,3095,3115,3135,3157,3176,3197,3216,3235,3256,3276,3295,3315,3336,3356,3375,3395,3416,3436,3457,3476,3495,3515,3535,3556,3575,3595],"xSR":733.5,"ySR":493.35,"xT1":420.09999999999997,"yT1":0,"xT2":1046.8999999999999,"yT2":0,"toosoon":0,"cond_shown":"Congruent","ratio_trial":100,"L_num":2,"L_den":5,"R_num":6,"R_den":12,"correct_side":2,"subjID":"dianaramirez35","gender":"1","school":"4","age":"9"},{"start_time":1552069184928,"click_time":1552069188756,"finger_time":1552069186656,"fix_duration":250,"trial":30,"RT":1728,"MT":2100,"sideResp":2,"stimulus":[],"xmouse":[801,801,801,801,801,801,801,801,801,801,801,801,801,801,801,801,801,801,801,801,801,801,801,801,801,801,801,801,801,801,801,801,801,801,801,801,801,801,801,801,801,801,801,801,801,801,801,801,801,801,801,801,801,801,801,801,801,801,801,801,801,801,801,801,801,801,801,801,801,801,801,801,801,801,801,801,801,801,801,801,801,801,801,801,801,796,777,760,747,737,734,734,735,736,737,738,738,738,739,746,749,776,786,790,799,812,815,815,815,813,813,814,818,827,828,828,828,828,828,828,829,830,830,833,833,837,839,839,843,843,846,846,846,846,846,846,846,846,846,849,852,852,852,853,853,854,855,855,855,851,837,825,826,837,851,859,866,868,868,867,867,867,867,867,867,867,867,867,867,867,867,867,867,867,867,867,867,867,867,867,867,874,899,920,935,945,966,988,1009,1024,1059,1103],"ymouse":[524,524,524,524,524,524,524,526,526,526,526,526,526,526,526,526,526,526,526,526,526,526,526,526,526,526,526,526,526,526,526,526,526,526,526,526,526,526,526,526,526,526,526,526,526,526,526,526,526,526,526,526,526,526,526,526,526,526,526,526,526,526,526,526,526,526,526,526,526,526,526,526,526,526,526,526,526,526,526,526,526,522,519,515,513,507,493,482,474,466,461,460,457,455,454,454,454,454,453,453,452,444,439,436,429,403,387,371,354,338,323,301,296,283,281,281,281,281,281,281,281,280,280,277,277,273,272,272,270,268,268,268,268,268,268,268,268,268,268,279,322,354,372,395,397,398,398,398,399,402,409,416,420,435,459,473,473,473,473,474,475,475,475,475,475,475,475,475,475,475,475,475,475,475,475,475,475,475,475,475,475,529,585,613,626,629,627,585,497,394,244,92],"timestamp_mouse":[11,40,50,69,88,108,130,148,168,188,209,230,248,268,288,309,329,348,370,388,410,430,450,469,488,509,529,548,569,589,610,629,648,669,689,709,728,749,768,789,809,828,849,870,890,908,929,949,970,989,1008,1028,1048,1069,1089,1108,1129,1150,1168,1188,1209,1228,1249,1268,1288,1310,1328,1349,1369,1389,1409,1428,1448,1468,1489,1508,1529,1550,1568,1588,1609,1630,1648,1668,1690,1708,1728,1749,1769,1788,1809,1829,1849,1869,1888,1908,1929,1949,1968,1989,2009,2028,2048,2069,2089,2109,2128,2149,2168,2189,2209,2228,2248,2269,2289,2309,2329,2349,2369,2389,2408,2429,2449,2468,2488,2510,2528,2549,2568,2590,2609,2629,2648,2668,2688,2709,2729,2748,2768,2788,2809,2828,2849,2869,2888,2909,2928,2949,2968,2989,3008,3028,3049,3069,3088,3109,3128,3148,3168,3189,3209,3229,3248,3268,3288,3310,3328,3348,3369,3389,3409,3429,3448,3469,3488,3508,3528,3548,3568,3590,3609,3629,3648,3669,3688,3708,3728,3750,3769,3789,3809,3828],"xSR":733.5,"ySR":493.35,"xT1":420.09999999999997,"yT1":0,"xT2":1046.8999999999999,"yT2":0,"toosoon":0,"cond_shown":"Incongruent","ratio_trial":300,"L_num":4,"L_den":20,"R_num":2,"R_den":4,"correct_side":2,"subjID":"dianaramirez35","gender":"1","school":"4","age":"9"},{"start_time":1552069192694,"click_time":1552069194716,"finger_time":1552069193897,"fix_duration":1495.455599660166,"trial":31,"RT":1203,"MT":819,"sideResp":1,"stimulus":[],"xmouse":[755,755,755,755,755,755,755,755,755,755,755,755,755,755,755,755,755,755,755,755,755,755,755,755,755,755,755,755,755,755,755,755,755,755,755,755,755,755,755,755,755,755,755,755,755,755,755,755,755,755,755,755,755,755,755,755,755,755,755,749,731,679,631,630,630,630,630,622,611,597,576,546,524,510,510,510,510,509,498,495,494,492,488,477,474,472,470,470,470,470,470,470,470,470,470,470,470,470,467,465,464,462],"ymouse":[554,554,554,554,554,554,554,554,554,554,554,554,554,554,554,554,554,554,554,554,554,554,554,554,554,554,554,554,554,554,554,554,554,554,554,554,554,554,554,554,554,554,554,554,554,554,554,554,554,554,554,554,554,554,554,554,554,554,553,541,515,462,429,428,428,428,426,406,391,372,350,324,306,271,261,251,245,239,218,212,205,192,175,131,118,111,107,107,106,106,106,106,106,106,106,106,106,102,101,100,100,98],"timestamp_mouse":[12,23,42,63,82,103,122,143,163,183,203,223,242,263,282,304,323,342,363,382,403,422,442,463,484,503,522,543,562,583,602,622,643,662,682,702,723,743,762,782,803,822,842,863,883,902,923,942,963,982,1003,1022,1043,1064,1083,1102,1123,1143,1163,1183,1203,1222,1243,1262,1283,1302,1322,1343,1363,1383,1403,1422,1442,1462,1483,1503,1523,1542,1563,1583,1602,1622,1643,1662,1682,1703,1722,1742,1762,1782,1802,1823,1843,1863,1882,1902,1923,1943,1962,1983,2004,2022],"xSR":733.5,"ySR":493.35,"xT1":420.09999999999997,"yT1":0,"xT2":1046.8999999999999,"yT2":0,"toosoon":0,"cond_shown":"Congruent","ratio_trial":300,"L_num":4,"L_den":10,"R_num":1,"R_den":10,"correct_side":1,"subjID":"dianaramirez35","gender":"1","school":"4","age":"9"},{"start_time":1552069196253,"click_time":1552069197357,"finger_time":1552069196958,"fix_duration":415.69781709078813,"trial":32,"RT":705,"MT":399,"sideResp":2,"stimulus":[],"xmouse":[766,765,765,765,765,764,764,764,764,764,764,764,764,764,764,764,764,764,764,764,764,764,764,765,766,772,772,772,772,772,772,772,774,776,778,834,883,927,954,967,970,974,974,975,975,976,978,982,989,1012,1025,1042,1060,1079,1096,1128],"ymouse":[520,520,526,533,534,538,538,538,538,538,538,538,538,538,538,538,538,538,538,538,538,538,538,539,539,541,541,541,541,541,541,541,541,542,542,496,452,408,376,349,340,334,333,332,332,328,324,315,299,259,234,202,169,134,101,42],"timestamp_mouse":[9,23,49,64,83,105,125,144,164,183,204,224,244,264,284,303,324,343,364,383,404,423,444,464,484,504,525,544,563,583,605,623,643,664,684,705,724,743,763,784,803,823,844,863,884,903,923,944,964,985,1003,1025,1044,1064,1083,1104],"xSR":733.5,"ySR":493.35,"xT1":420.09999999999997,"yT1":0,"xT2":1046.8999999999999,"yT2":0,"toosoon":0,"cond_shown":"Incongruent","ratio_trial":200,"L_num":9,"L_den":15,"R_num":8,"R_den":10,"correct_side":2,"subjID":"dianaramirez35","gender":"1","school":"4","age":"9"},{"start_time":1552069199107,"click_time":1552069200338,"finger_time":1552069199916,"fix_duration":689.2822620502736,"trial":33,"RT":809,"MT":422,"sideResp":2,"stimulus":[],"xmouse":[789,789,789,789,789,789,788,785,785,785,785,785,785,785,785,785,785,785,785,785,785,785,785,785,785,785,785,785,785,785,785,785,785,785,785,785,796,805,813,824,837,854,892,905,914,923,937,943,946,950,955,973,986,999,1010,1018,1023,1029,1033,1037,1042,1061],"ymouse":[539,539,539,539,539,540,541,545,546,546,546,546,546,546,546,546,546,546,546,546,546,546,546,546,546,546,546,546,546,546,546,546,546,546,546,546,537,528,518,506,491,474,428,407,390,372,339,329,317,303,288,243,223,203,187,170,158,137,129,121,113,85],"timestamp_mouse":[9,32,49,69,89,109,131,151,170,191,210,232,249,269,289,309,330,350,370,389,410,430,451,470,490,510,529,549,569,589,610,629,649,669,691,709,731,749,770,789,809,829,849,870,889,909,930,949,970,989,1010,1031,1049,1070,1090,1109,1130,1149,1169,1189,1209,1231],"xSR":733.5,"ySR":493.35,"xT1":420.09999999999997,"yT1":0,"xT2":1046.8999999999999,"yT2":0,"toosoon":0,"cond_shown":"Congruent","ratio_trial":300,"L_num":1,"L_den":5,"R_num":11,"R_den":22,"correct_side":2,"subjID":"dianaramirez35","gender":"1","school":"4","age":"9"},{"start_time":1552069203712,"click_time":1552069205797,"finger_time":1552069205437,"fix_duration":833.0167867289155,"trial":34,"RT":1725,"MT":360,"sideResp":2,"stimulus":[],"xmouse":[797,797,797,796,796,796,796,796,794,792,791,790,790,790,790,790,790,790,790,790,790,790,790,790,790,790,790,790,790,790,790,790,788,785,784,784,784,784,784,784,784,784,784,784,784,784,784,784,784,784,784,784,784,784,784,784,784,784,784,784,784,784,784,784,784,784,784,784,784,784,784,784,784,784,784,784,784,784,784,784,784,784,784,784,784,786,806,826,852,880,900,922,934,938,942,946,954,966,978,993,1011,1024,1044,1046,1049],"ymouse":[536,536,536,536,536,536,536,536,536,536,536,536,536,536,536,536,536,536,536,536,536,536,536,536,536,536,536,536,536,536,536,536,536,536,536,536,536,536,536,536,536,536,536,536,536,536,536,536,536,536,536,536,536,536,536,536,536,536,536,536,536,536,536,536,536,536,536,536,536,536,536,536,536,536,536,536,536,536,536,536,536,536,536,536,531,522,454,408,344,282,236,186,169,163,158,153,138,123,105,85,59,36,12,9,8],"timestamp_mouse":[12,39,45,64,86,105,125,144,165,184,206,224,244,265,286,304,326,344,364,386,406,424,446,464,484,504,524,546,564,585,605,624,645,664,685,705,724,744,764,785,805,824,845,864,885,904,925,944,964,986,1006,1025,1046,1066,1085,1105,1124,1145,1164,1184,1205,1225,1245,1265,1286,1305,1325,1345,1366,1384,1405,1425,1446,1465,1486,1506,1524,1544,1566,1586,1605,1625,1645,1664,1685,1705,1725,1744,1765,1785,1804,1825,1844,1865,1884,1905,1926,1944,1965,1985,2004,2025,2044,2065,2085],"xSR":733.5,"ySR":493.35,"xT1":420.09999999999997,"yT1":0,"xT2":1046.8999999999999,"yT2":0,"toosoon":0,"cond_shown":"Incongruent","ratio_trial":200,"L_num":14,"L_den":30,"R_num":12,"R_den":18,"correct_side":2,"subjID":"dianaramirez35","gender":"1","school":"4","age":"9"},{"start_time":1552069208487,"click_time":1552069210556,"finger_time":1552069210056,"fix_duration":1269.1455169777753,"trial":35,"RT":1569,"MT":500,"sideResp":2,"stimulus":[],"xmouse":[800,800,800,800,800,800,800,800,800,800,800,800,800,800,800,800,800,800,800,800,800,800,800,800,800,800,800,800,800,800,800,800,800,800,800,800,800,800,800,800,800,800,800,800,800,800,800,800,800,800,800,800,800,800,800,800,800,800,800,800,800,800,800,800,800,800,800,800,800,800,800,800,800,800,800,802,806,820,865,888,907,921,952,975,976,981,986,986,993,1002,1006,1009,1011,1013,1014,1015,1018,1022,1032,1050,1065,1077,1095,1113],"ymouse":[541,541,541,541,541,541,541,541,541,541,541,541,541,541,541,541,541,541,541,541,541,541,541,541,541,541,541,541,541,541,541,541,541,541,541,541,541,541,541,541,541,541,541,541,541,541,541,541,541,541,541,541,541,541,541,541,541,541,541,541,541,541,541,541,541,541,541,541,541,541,541,541,541,541,541,541,541,534,502,475,451,429,362,322,320,303,297,297,285,269,260,253,247,239,237,233,225,216,205,190,173,152,120,75],"timestamp_mouse":[12,30,51,71,89,109,129,151,169,189,209,230,250,270,291,311,329,350,370,390,409,429,449,471,491,511,530,550,569,589,609,631,649,670,689,710,731,750,770,789,811,830,850,869,890,911,929,949,971,991,1010,1030,1050,1069,1091,1111,1130,1150,1170,1189,1211,1230,1250,1270,1289,1310,1331,1350,1371,1389,1410,1430,1449,1471,1489,1509,1529,1549,1569,1590,1610,1629,1650,1669,1690,1710,1730,1749,1769,1789,1809,1830,1850,1870,1890,1909,1929,1949,1969,1990,2010,2030,2051,2069],"xSR":733.5,"ySR":493.35,"xT1":420.09999999999997,"yT1":0,"xT2":1046.8999999999999,"yT2":0,"toosoon":0,"cond_shown":"Incongruent","ratio_trial":100,"L_num":1,"L_den":2,"R_num":8,"R_den":20,"correct_side":1,"subjID":"dianaramirez35","gender":"1","school":"4","age":"9"},{"start_time":1552069213268,"click_time":1552069215277,"finger_time":1552069214236,"fix_duration":1429.9361650268888,"trial":36,"RT":968,"MT":1041,"sideResp":1,"stimulus":[],"xmouse":[789,789,789,788,788,788,788,788,788,788,788,788,788,788,788,788,788,788,788,788,788,788,788,788,787,787,787,787,787,787,787,787,787,787,787,787,787,787,787,787,787,787,787,787,785,779,771,752,725,688,687,687,687,687,687,686,684,682,679,666,660,656,654,650,649,649,649,649,649,649,649,649,649,649,651,651,646,631,625,587,587,587,575,562,532,522,522,505,494,493,493,493,493,493,494,496,497,497,483,475,467],"ymouse":[570,570,570,570,570,570,570,570,570,570,570,570,570,570,570,570,570,570,570,570,570,570,570,570,570,570,570,570,570,570,570,570,570,570,570,570,570,570,570,570,570,570,570,570,570,570,570,568,563,558,558,558,558,558,558,558,558,558,558,556,556,555,554,554,554,554,554,554,554,554,554,554,554,554,527,500,468,426,414,358,358,358,329,292,230,219,219,207,200,200,200,200,198,191,182,171,160,147,115,105,91],"timestamp_mouse":[12,33,48,69,89,109,128,150,168,189,210,230,249,269,290,308,329,349,370,388,408,429,448,470,488,508,529,548,568,588,608,628,648,668,688,708,730,749,768,789,809,830,848,869,889,908,929,949,968,988,1009,1028,1049,1069,1090,1108,1129,1149,1168,1188,1208,1229,1249,1269,1289,1308,1328,1348,1369,1388,1408,1428,1449,1469,1489,1508,1529,1548,1568,1588,1610,1629,1649,1669,1689,1708,1729,1748,1768,1789,1808,1829,1848,1870,1888,1909,1929,1948,1969,1988,2009],"xSR":733.5,"ySR":493.35,"xT1":420.09999999999997,"yT1":0,"xT2":1046.8999999999999,"yT2":0,"toosoon":0,"cond_shown":"Congruent","ratio_trial":300,"L_num":1,"L_den":3,"R_num":19,"R_den":30,"correct_side":2,"subjID":"dianaramirez35","gender":"1","school":"4","age":"9"},{"start_time":1552069217129,"click_time":1552069219096,"finger_time":1552069218576,"fix_duration":250,"trial":37,"RT":1447,"MT":520,"sideResp":2,"stimulus":[],"xmouse":[765,765,765,765,765,765,765,765,765,765,765,765,765,765,765,765,765,765,765,765,765,765,765,765,765,765,765,765,765,765,766,769,770,770,770,770,770,775,777,778,778,778,778,778,778,778,778,778,778,778,778,778,778,778,778,778,778,778,778,778,778,778,778,778,778,778,778,786,791,804,812,829,838,868,909,1020,1072,1117,1152,1160,1186,1191,1199,1205,1208,1210,1220,1228,1230,1230,1230,1230,1230,1228,1226,1212,1189,1151,1106],"ymouse":[556,556,556,556,556,556,556,556,556,556,556,556,556,556,556,556,556,556,556,556,556,556,556,556,556,556,556,556,556,556,556,556,556,556,556,556,556,556,556,556,556,556,556,556,556,556,556,556,556,556,556,556,556,556,556,556,556,556,556,556,556,556,556,556,556,556,556,553,550,547,545,543,542,534,515,456,429,393,366,352,276,258,232,208,199,197,176,154,137,124,117,113,113,113,113,108,94,76,53],"timestamp_mouse":[12,38,47,68,88,109,128,148,169,187,208,227,248,267,289,308,328,348,369,388,409,427,448,468,487,509,528,547,568,589,607,628,647,668,688,708,728,747,769,788,807,828,848,868,888,908,928,947,967,988,1008,1028,1048,1068,1087,1108,1129,1148,1169,1187,1208,1228,1249,1267,1289,1308,1328,1347,1367,1387,1407,1428,1447,1467,1488,1508,1528,1547,1568,1589,1608,1628,1648,1667,1687,1708,1728,1748,1768,1788,1808,1827,1848,1868,1887,1909,1927,1948,1967],"xSR":733.5,"ySR":493.35,"xT1":420.09999999999997,"yT1":0,"xT2":1046.8999999999999,"yT2":0,"toosoon":0,"cond_shown":"Congruent","ratio_trial":200,"L_num":3,"L_den":6,"R_num":14,"R_den":20,"correct_side":2,"subjID":"dianaramirez35","gender":"1","school":"4","age":"9"},{"start_time":1552069220808,"click_time":1552069223396,"finger_time":1552069222697,"fix_duration":349.8456788976808,"trial":38,"RT":1889,"MT":699,"sideResp":1,"stimulus":[],"xmouse":[819,819,819,819,819,819,819,819,819,819,819,819,819,819,819,819,819,819,819,819,819,819,819,819,819,819,819,819,819,819,819,819,819,819,819,819,819,819,819,819,819,819,819,819,819,819,819,819,819,819,819,819,819,819,819,819,819,819,819,819,819,819,819,819,819,819,819,819,819,819,819,819,819,819,819,819,819,819,819,819,819,819,819,817,814,806,794,791,787,780,774,764,746,734,730,721,710,701,671,653,646,645,642,641,641,641,641,642,642,638,632,618,611,610,610,608,604,595,594,591,585,577,562,558,556,549,544,531,524,519],"ymouse":[536,536,536,536,536,536,536,536,536,536,536,536,536,536,536,536,536,536,536,536,536,536,536,536,536,536,536,536,536,536,536,536,536,536,536,536,536,536,536,536,536,536,536,536,536,536,536,536,536,536,536,536,536,536,536,536,536,536,536,536,536,536,536,536,536,536,536,536,536,536,536,536,536,536,536,536,536,536,536,536,536,536,536,536,536,536,536,536,535,534,533,531,523,514,509,498,483,465,407,364,335,332,320,318,316,314,311,294,292,283,271,252,241,239,239,237,223,204,202,197,187,177,159,153,147,138,131,105,89,76],"timestamp_mouse":[9,33,48,68,89,109,128,149,168,190,208,229,249,268,288,309,328,349,368,388,409,430,448,469,489,508,529,550,569,589,610,628,649,670,690,710,730,749,769,790,809,829,848,868,890,908,928,948,969,988,1010,1029,1048,1068,1089,1110,1128,1149,1168,1190,1208,1229,1248,1268,1288,1308,1329,1348,1370,1388,1409,1429,1448,1469,1490,1510,1530,1548,1569,1589,1609,1629,1650,1669,1689,1709,1729,1749,1768,1789,1808,1829,1848,1869,1889,1908,1928,1948,1968,1988,2009,2030,2048,2070,2089,2109,2129,2148,2169,2189,2209,2230,2249,2268,2288,2309,2329,2348,2369,2390,2409,2429,2449,2469,2488,2508,2530,2548,2568,2588],"xSR":733.5,"ySR":493.35,"xT1":420.09999999999997,"yT1":0,"xT2":1046.8999999999999,"yT2":0,"toosoon":0,"cond_shown":"Congruent","ratio_trial":100,"L_num":15,"L_den":25,"R_num":13,"R_den":26,"correct_side":1,"subjID":"dianaramirez35","gender":"1","school":"4","age":"9"},{"start_time":1552069225856,"click_time":1552069228098,"finger_time":1552069227656,"fix_duration":298.3764534363239,"trial":39,"RT":1800,"MT":442,"sideResp":2,"stimulus":[],"xmouse":[802,802,801,801,801,801,801,801,801,801,801,801,801,801,801,801,801,801,801,801,801,801,801,801,801,801,801,801,801,801,801,801,801,801,801,801,801,801,801,801,801,801,801,801,801,801,801,801,801,801,801,801,801,801,801,801,801,801,801,801,801,801,800,800,798,796,794,794,794,794,794,794,794,794,794,794,794,797,801,804,808,808,808,808,808,808,808,811,820,833,853,877,917,958,998,1061,1084,1099,1104,1108,1108,1107,1107,1107,1107,1104,1103,1101,1099,1098,1096,1096,1095],"ymouse":[560,560,560,560,560,560,560,560,560,560,560,560,560,560,560,560,560,560,560,560,560,560,560,560,560,560,560,560,560,560,560,560,560,560,560,560,560,560,560,560,560,560,560,560,560,560,560,560,560,560,560,560,560,560,560,560,560,560,560,560,560,560,560,560,560,561,563,563,563,563,563,563,563,563,563,563,563,559,553,550,546,546,546,546,546,546,546,541,526,506,477,452,407,358,303,230,202,180,172,150,146,141,137,133,128,116,111,109,107,106,103,100,96],"timestamp_mouse":[1,22,45,60,81,101,121,140,162,180,201,220,242,261,280,302,321,342,361,381,400,421,440,460,481,501,520,540,560,581,600,620,641,660,680,702,720,741,762,781,801,821,842,860,881,902,920,941,962,980,1001,1020,1041,1060,1081,1100,1121,1140,1160,1181,1200,1221,1240,1260,1282,1300,1320,1341,1360,1380,1400,1421,1442,1460,1482,1500,1520,1540,1561,1581,1600,1621,1642,1662,1681,1702,1720,1741,1761,1781,1800,1820,1841,1860,1880,1900,1920,1941,1960,1982,2000,2021,2041,2061,2080,2100,2120,2140,2160,2180,2200,2220,2241],"xSR":733.5,"ySR":493.35,"xT1":420.09999999999997,"yT1":0,"xT2":1046.8999999999999,"yT2":0,"toosoon":0,"cond_shown":"Incongruent","ratio_trial":100,"L_num":6,"L_den":10,"R_num":13,"R_den":26,"correct_side":1,"subjID":"dianaramirez35","gender":"1","school":"4","age":"9"},{"start_time":1552069229609,"click_time":1552069232617,"finger_time":1552069231456,"fix_duration":250,"trial":40,"RT":1847,"MT":1161,"sideResp":2,"stimulus":[],"xmouse":[769,768,761,760,760,760,760,760,760,760,760,760,760,760,760,760,760,760,760,760,760,760,760,760,760,760,760,760,760,760,760,760,761,762,763,764,766,766,766,767,767,768,769,769,769,769,769,769,769,769,769,769,769,769,769,769,769,769,769,769,769,769,769,769,769,769,769,769,769,769,769,769,769,769,769,769,769,769,769,769,769,769,769,769,769,769,769,769,769,769,771,783,789,800,812,825,848,857,868,878,879,879,879,879,880,880,889,897,910,924,935,966,979,979,979,980,993,1019,1019,1019,1025,1057,1060,1060,1060,1060,1060,1060,1060,1061,1069,1081,1123,1149,1154,1170,1189,1194,1196,1197,1197,1197,1191,1190,1186,1183,1175,1170,1160,1152,1146],"ymouse":[520,527,550,556,560,560,560,560,560,560,560,560,560,560,560,560,560,560,560,560,560,560,560,560,560,560,560,560,560,560,560,559,557,555,552,551,549,548,548,547,547,545,544,543,543,543,543,543,543,543,543,543,543,543,543,543,543,543,543,543,543,543,543,543,543,543,543,543,543,543,543,543,543,543,543,543,543,543,543,543,543,543,543,543,543,543,543,543,542,539,533,506,491,470,451,425,392,384,373,360,359,359,359,359,358,358,350,343,333,320,311,279,264,264,264,261,244,216,216,216,209,180,174,173,173,172,171,171,171,170,164,153,125,108,102,83,46,36,29,26,26,25,25,25,25,27,33,36,41,46,50],"timestamp_mouse":[9,33,47,69,89,107,127,147,167,188,207,229,249,268,287,309,328,348,367,387,409,429,448,467,489,507,527,547,568,587,608,629,648,667,687,708,727,748,768,787,807,827,847,867,888,907,929,949,968,988,1008,1028,1048,1069,1087,1107,1127,1148,1167,1189,1207,1227,1248,1268,1287,1309,1327,1348,1367,1387,1407,1429,1449,1467,1488,1508,1529,1549,1569,1588,1609,1628,1647,1667,1689,1708,1728,1749,1767,1787,1807,1828,1847,1868,1888,1909,1928,1947,1967,1988,2008,2028,2048,2067,2087,2107,2128,2147,2168,2187,2208,2228,2247,2267,2287,2308,2328,2348,2367,2388,2408,2429,2447,2468,2487,2508,2528,2548,2567,2587,2607,2627,2647,2667,2688,2708,2728,2747,2767,2788,2807,2828,2848,2869,2888,2907,2929,2947,2968,2988,3007],"xSR":733.5,"ySR":493.35,"xT1":420.09999999999997,"yT1":0,"xT2":1046.8999999999999,"yT2":0,"toosoon":0,"cond_shown":"Incongruent","ratio_trial":300,"L_num":4,"L_den":20,"R_num":2,"R_den":4,"correct_side":2,"subjID":"dianaramirez35","gender":"1","school":"4","age":"9"},{"start_time":1552069234180,"click_time":1552069236257,"finger_time":1552069235116,"fix_duration":541.1310746337995,"trial":41,"RT":936,"MT":1141,"sideResp":1,"stimulus":[],"xmouse":[740,740,740,740,740,740,740,740,740,740,740,741,742,742,742,742,742,742,742,742,742,742,742,742,742,742,742,742,742,742,742,742,742,742,742,742,742,742,742,742,742,742,744,746,749,752,753,752,733,730,729,729,728,706,687,672,668,668,668,668,668,668,668,668,668,