[{"start_time":1552308200095,"click_time":1552308201465,"finger_time":1552308200985,"fix_duration":1284.1959069689153,"trial":0,"RT":890,"MT":480,"sideResp":1,"stimulus":[],"xmouse":[805,805,805,805,805,805,805,805,805,805,805,805,805,805,805,805,805,805,805,805,805,805,805,805,805,805,805,805,805,805,805,805,805,805,805,805,805,805,805,805,805,805,805,821,861,907,936,951,963,963,961,941,930,932,933,920,871,793,663,618,593,580,574,572,568,562,555,545,497],"ymouse":[517,517,517,517,517,517,517,517,517,517,517,517,517,517,517,517,517,517,517,517,517,517,517,517,517,517,517,517,517,517,517,517,517,517,517,517,517,517,517,517,517,517,517,484,383,285,210,185,179,180,183,188,188,167,141,116,74,41,24,30,38,43,44,44,44,43,43,46,65],"timestamp_mouse":[10,45,51,71,89,110,131,151,171,190,211,230,251,269,289,311,330,349,369,390,409,431,450,470,490,510,529,550,571,589,609,629,651,670,690,710,729,749,771,791,809,831,850,870,890,909,929,950,969,989,1010,1030,1050,1070,1089,1110,1130,1150,1169,1190,1211,1231,1251,1270,1289,1309,1329,1350,1369],"xSR":741.5,"ySR":500.5,"xT1":424.9,"yT1":0,"xT2":1058.1,"yT2":0,"toosoon":0,"cond_shown":"Congruent","ratio_trial":300,"L_num":3,"L_den":6,"R_num":4,"R_den":5,"correct_side":2,"subjID":"Diegoalejandroarevalo9","gender":"0","age":"10","school":"4","test":{"fix_dur":[250,1500],"timestim":1000,"targets_dim":[100,100],"targets_relative_coord":[0.3,0.7],"size_stim":[880,420],"start_dim":[100,100],"size_start":[300,300],"size_fix":60,"samplingrate":20,"img_types":["Congruent","Incongruent"],"ratios":[100,200,300],"rep_conds":19,"nTrials":120,"trials_to_rest":500,"Trials_order":[82,54,24,80,19,7,50,14,63,15,113,81,59,117,2,39,12,67,4,40,96,52,8,36,29,5,18,43,9,100,99,118,44,55,1,16,62,111,93,85,119,115,65,75,68,83,105,34,33,90,26,21,66,114,108,70,32,84,61,109,64,23,86,89,11,87,88,94,45,49,107,37,72,0,28,104,71,110,35,31,10,73,78,74,13,101,17,57,27,25,20,53,47,102,60,103,79,41,38,48,116,58,46,69,22,91,112,42,98,51,92,76,3,77,6,56,97,106,95,30],"cond_shown":["Congruent","Congruent","Congruent","Congruent","Incongruent","Incongruent","Congruent","Congruent","Incongruent","Incongruent","Incongruent","Incongruent","Incongruent","Incongruent","Congruent","Incongruent","Congruent","Incongruent","Congruent","Congruent","Congruent","Congruent","Congruent","Congruent","Incongruent","Incongruent","Congruent","Incongruent","Incongruent","Congruent","Incongruent","Congruent","Congruent","Incongruent","Incongruent","Congruent","Congruent","Incongruent","Incongruent","Incongruent","Incongruent","Incongruent","Incongruent","Incongruent","Congruent","Incongruent","Incongruent","Congruent","Incongruent","Congruent","Congruent","Incongruent","Congruent","Congruent","Congruent","Congruent","Congruent","Congruent","Incongruent","Incongruent","Congruent","Incongruent","Congruent","Incongruent","Incongruent","Incongruent","Congruent","Congruent","Incongruent","Incongruent","Incongruent","Incongruent","Congruent","Congruent","Congruent","Congruent","Incongruent","Congruent","Incongruent","Incongruent","Congruent","Incongruent","Congruent","Congruent","Incongruent","Incongruent","Incongruent","Incongruent","Incongruent","Incongruent","Congruent","Incongruent","Incongruent","Congruent","Congruent","Incongruent","Incongruent","Incongruent","Congruent","Congruent","Congruent","Congruent","Congruent","Incongruent","Congruent","Incongruent","Congruent","Congruent","Congruent","Incongruent","Congruent","Congruent","Incongruent","Incongruent","Congruent","Congruent","Incongruent","Congruent","Incongruent","Congruent"],"ratio_trial":[300,100,100,200,100,100,200,200,200,200,300,200,300,200,200,200,100,100,300,300,100,300,200,100,300,300,100,100,200,300,200,300,200,100,100,300,200,200,200,100,300,100,300,200,200,300,200,300,200,100,200,200,100,100,100,300,200,100,100,100,300,300,200,300,300,200,300,300,200,100,300,100,100,100,300,200,300,200,300,100,300,100,100,200,100,300,300,200,200,100,200,300,300,100,100,100,100,300,200,100,200,300,300,200,300,100,300,100,200,200,200,300,200,300,100,200,100,300,300,100],"left_num":[3,4,15,1,10,8,15,7,4,7,4,1,8,7,3,3,10,13,1,2,12,1,7,3,4,4,11,9,3,20,7,5,6,3,4,11,15,1,14,12,1,9,13,3,6,2,3,11,7,3,14,14,3,10,11,18,3,3,1,4,8,4,6,13,3,7,2,20,1,17,8,4,3,1,8,13,2,3,4,9,2,9,6,9,2,4,7,4,7,12,11,13,4,2,1,8,11,13,16,2,3,18,9,11,1,9,8,11,3,4,6,1,6,13,6,6,3,5,4,10],"right_num":[4,6,13,21,8,1,4,2,14,4,2,3,14,12,7,11,3,12,6,12,13,3,2,4,2,2,6,20,1,5,6,7,7,11,8,2,4,3,12,2,3,6,12,1,7,6,1,2,6,2,6,12,4,3,6,9,14,2,8,8,1,2,11,12,4,8,10,14,2,10,14,8,4,3,10,14,6,9,8,6,10,13,15,4,6,2,8,1,14,2,3,12,2,6,18,1,9,12,12,11,9,9,3,3,19,13,10,4,14,14,3,8,3,12,15,11,7,7,2,3],"left_den":[6,8,25,2,25,20,25,21,6,15,20,2,10,10,10,4,25,26,5,10,30,5,21,20,20,20,22,10,10,25,15,25,12,5,8,22,25,2,30,30,2,18,26,10,12,4,10,22,15,6,28,30,20,25,22,20,10,6,2,8,16,20,20,26,6,10,20,25,3,30,10,8,20,2,15,26,4,12,5,18,20,15,12,20,4,20,10,30,10,30,22,26,20,5,2,20,22,26,20,5,12,20,10,20,3,15,15,22,6,6,15,30,20,26,12,20,9,25,20,25],"right_den":[5,10,26,30,16,2,10,15,30,6,4,10,28,24,14,20,10,20,12,24,26,6,15,16,4,4,15,25,2,10,9,14,10,22,20,10,10,10,18,4,15,10,15,2,10,30,2,10,9,5,20,18,16,10,15,15,28,5,20,20,5,4,22,15,20,16,25,28,15,15,28,20,16,5,12,20,30,20,16,10,25,26,25,16,15,4,20,3,28,4,10,15,4,12,30,2,15,15,20,22,20,15,5,4,30,26,12,10,20,30,15,24,6,15,25,22,30,14,4,10],"correct_side":[2,2,1,2,2,2,1,1,1,2,2,1,1,1,2,1,1,2,2,2,2,2,1,2,2,2,1,1,2,1,2,2,2,1,1,1,1,1,2,2,1,2,2,2,2,1,2,1,2,1,1,2,2,1,1,1,2,1,1,1,1,2,2,2,1,1,2,1,1,2,1,1,2,2,2,2,1,2,1,2,2,1,2,1,1,2,1,2,1,2,1,2,2,2,2,2,2,2,1,2,2,1,1,2,2,1,2,1,2,1,1,2,2,2,2,2,1,2,2,1],"img_shown":["img2/300/Congruent/R/C_Dist_300_LN_3_LD_6_RN_4_RD_5_1.png","img2/100/Congruent/R/C_Dist_100_LN_4_LD_8_RN_6_RD_10_1.png","img2/100/Congruent/L/C_Dist_100_LN_15_LD_25_RN_13_RD_26_0.png","img2/200/Congruent/R/C_Dist_200_LN_1_LD_2_RN_21_RD_30_1.png","img2/100/Incongruent/R/I_Dist_100_LN_10_LD_25_RN_8_RD_16_1.png","img2/100/Incongruent/R/I_Dist_100_LN_8_LD_20_RN_1_RD_2_1.png","img2/200/Congruent/L/C_Dist_200_LN_15_LD_25_RN_4_RD_10_0.png","img2/200/Congruent/L/C_Dist_200_LN_7_LD_21_RN_2_RD_15_0.png","img2/200/Incongruent/L/I_Dist_200_LN_4_LD_6_RN_14_RD_30_0.png","img2/200/Incongruent/R/I_Dist_200_LN_7_LD_15_RN_4_RD_6_1.png","img2/300/Incongruent/R/I_Dist_300_LN_4_LD_20_RN_2_RD_4_1.png","img2/200/Incongruent/L/I_Dist_200_LN_1_LD_2_RN_3_RD_10_0.png","img2/300/Incongruent/L/I_Dist_300_LN_8_LD_10_RN_14_RD_28_0.png","img2/200/Incongruent/L/I_Dist_200_LN_7_LD_10_RN_12_RD_24_0.png","img2/200/Congruent/R/C_Dist_200_LN_3_LD_10_RN_7_RD_14_1.png","img2/200/Incongruent/L/I_Dist_200_LN_3_LD_4_RN_11_RD_20_0.png","img2/100/Congruent/L/C_Dist_100_LN_10_LD_25_RN_3_RD_10_0.png","img2/100/Incongruent/R/I_Dist_100_LN_13_LD_26_RN_12_RD_20_1.png","img2/300/Congruent/R/C_Dist_300_LN_1_LD_5_RN_6_RD_12_1.png","img2/300/Congruent/R/C_Dist_300_LN_2_LD_10_RN_12_RD_24_1.png","img2/100/Congruent/R/C_Dist_100_LN_12_LD_30_RN_13_RD_26_1.png","img2/300/Congruent/R/C_Dist_300_LN_1_LD_5_RN_3_RD_6_1.png","img2/200/Congruent/L/C_Dist_200_LN_7_LD_21_RN_2_RD_15_0.png","img2/100/Congruent/R/C_Dist_100_LN_3_LD_20_RN_4_RD_16_1.png","img2/300/Incongruent/R/I_Dist_300_LN_4_LD_20_RN_2_RD_4_1.png","img2/300/Incongruent/R/I_Dist_300_LN_4_LD_20_RN_2_RD_4_1.png","img2/100/Congruent/L/C_Dist_100_LN_11_LD_22_RN_6_RD_15_0.png","img2/100/Incongruent/L/I_Dist_100_LN_9_LD_10_RN_20_RD_25_0.png","img2/200/Incongruent/R/I_Dist_200_LN_3_LD_10_RN_1_RD_2_1.png","img2/300/Congruent/L/C_Dist_300_LN_20_LD_25_RN_5_RD_10_0.png","img2/200/Incongruent/R/I_Dist_200_LN_7_LD_15_RN_6_RD_9_1.png","img2/300/Congruent/R/C_Dist_300_LN_5_LD_25_RN_7_RD_14_1.png","img2/200/Congruent/R/C_Dist_200_LN_6_LD_12_RN_7_RD_10_1.png","img2/100/Incongruent/L/I_Dist_100_LN_3_LD_5_RN_11_RD_22_0.png","img2/100/Incongruent/L/I_Dist_100_LN_4_LD_8_RN_8_RD_20_0.png","img2/300/Congruent/L/C_Dist_300_LN_11_LD_22_RN_2_RD_10_0.png","img2/200/Congruent/L/C_Dist_200_LN_15_LD_25_RN_4_RD_10_0.png","img2/200/Incongruent/L/I_Dist_200_LN_1_LD_2_RN_3_RD_10_0.png","img2/200/Incongruent/R/I_Dist_200_LN_14_LD_30_RN_12_RD_18_1.png","img2/100/Incongruent/R/I_Dist_100_LN_12_LD_30_RN_2_RD_4_1.png","img2/300/Incongruent/L/I_Dist_300_LN_1_LD_2_RN_3_RD_15_0.png","img2/100/Incongruent/R/I_Dist_100_LN_9_LD_18_RN_6_RD_10_1.png","img2/300/Incongruent/R/I_Dist_300_LN_13_LD_26_RN_12_RD_15_1.png","img2/200/Incongruent/R/I_Dist_200_LN_3_LD_10_RN_1_RD_2_1.png","img2/200/Congruent/R/C_Dist_200_LN_6_LD_12_RN_7_RD_10_1.png","img2/300/Incongruent/L/I_Dist_300_LN_2_LD_4_RN_6_RD_30_0.png","img2/200/Incongruent/R/I_Dist_200_LN_3_LD_10_RN_1_RD_2_1.png","img2/300/Congruent/L/C_Dist_300_LN_11_LD_22_RN_2_RD_10_0.png","img2/200/Incongruent/R/I_Dist_200_LN_7_LD_15_RN_6_RD_9_1.png","img2/100/Congruent/L/C_Dist_100_LN_3_LD_6_RN_2_RD_5_0.png","img2/200/Congruent/L/C_Dist_200_LN_14_LD_28_RN_6_RD_20_0.png","img2/200/Incongruent/R/I_Dist_200_LN_14_LD_30_RN_12_RD_18_1.png","img2/100/Congruent/R/C_Dist_100_LN_3_LD_20_RN_4_RD_16_1.png","img2/100/Congruent/L/C_Dist_100_LN_10_LD_25_RN_3_RD_10_0.png","img2/100/Congruent/L/C_Dist_100_LN_11_LD_22_RN_6_RD_15_0.png","img2/300/Congruent/L/C_Dist_300_LN_18_LD_20_RN_9_RD_15_0.png","img2/200/Congruent/R/C_Dist_200_LN_3_LD_10_RN_14_RD_28_1.png","img2/100/Congruent/L/C_Dist_100_LN_3_LD_6_RN_2_RD_5_0.png","img2/100/Incongruent/L/I_Dist_100_LN_1_LD_2_RN_8_RD_20_0.png","img2/100/Incongruent/L/I_Dist_100_LN_4_LD_8_RN_8_RD_20_0.png","img2/300/Congruent/L/C_Dist_300_LN_8_LD_16_RN_1_RD_5_0.png","img2/300/Incongruent/R/I_Dist_300_LN_4_LD_20_RN_2_RD_4_1.png","img2/200/Congruent/R/C_Dist_200_LN_6_LD_20_RN_11_RD_22_1.png","img2/300/Incongruent/R/I_Dist_300_LN_13_LD_26_RN_12_RD_15_1.png","img2/300/Incongruent/L/I_Dist_300_LN_3_LD_6_RN_4_RD_20_0.png","img2/200/Incongruent/L/I_Dist_200_LN_7_LD_10_RN_8_RD_16_0.png","img2/300/Congruent/R/C_Dist_300_LN_2_LD_20_RN_10_RD_25_1.png","img2/300/Congruent/L/C_Dist_300_LN_20_LD_25_RN_14_RD_28_0.png","img2/200/Incongruent/L/I_Dist_200_LN_1_LD_3_RN_2_RD_15_0.png","img2/100/Incongruent/R/I_Dist_100_LN_17_LD_30_RN_10_RD_15_1.png","img2/300/Incongruent/L/I_Dist_300_LN_8_LD_10_RN_14_RD_28_0.png","img2/100/Incongruent/L/I_Dist_100_LN_4_LD_8_RN_8_RD_20_0.png","img2/100/Congruent/R/C_Dist_100_LN_3_LD_20_RN_4_RD_16_1.png","img2/100/Congruent/R/C_Dist_100_LN_1_LD_2_RN_3_RD_5_1.png","img2/300/Congruent/R/C_Dist_300_LN_8_LD_15_RN_10_RD_12_1.png","img2/200/Congruent/R/C_Dist_200_LN_13_LD_26_RN_14_RD_20_1.png","img2/300/Incongruent/L/I_Dist_300_LN_2_LD_4_RN_6_RD_30_0.png","img2/200/Congruent/R/C_Dist_200_LN_3_LD_12_RN_9_RD_20_1.png","img2/300/Incongruent/L/I_Dist_300_LN_4_LD_5_RN_8_RD_16_0.png","img2/100/Incongruent/R/I_Dist_100_LN_9_LD_18_RN_6_RD_10_1.png","img2/300/Congruent/R/C_Dist_300_LN_2_LD_20_RN_10_RD_25_1.png","img2/100/Incongruent/L/I_Dist_100_LN_9_LD_15_RN_13_RD_26_0.png","img2/100/Congruent/R/C_Dist_100_LN_6_LD_12_RN_15_RD_25_1.png","img2/200/Congruent/L/C_Dist_200_LN_9_LD_20_RN_4_RD_16_0.png","img2/100/Incongruent/L/I_Dist_100_LN_2_LD_4_RN_6_RD_15_0.png","img2/300/Incongruent/R/I_Dist_300_LN_4_LD_20_RN_2_RD_4_1.png","img2/300/Incongruent/L/I_Dist_300_LN_7_LD_10_RN_8_RD_20_0.png","img2/200/Incongruent/R/I_Dist_200_LN_4_LD_30_RN_1_RD_3_1.png","img2/200/Incongruent/L/I_Dist_200_LN_7_LD_10_RN_14_RD_28_0.png","img2/100/Incongruent/R/I_Dist_100_LN_12_LD_30_RN_2_RD_4_1.png","img2/200/Congruent/L/C_Dist_200_LN_11_LD_22_RN_3_RD_10_0.png","img2/300/Incongruent/R/I_Dist_300_LN_13_LD_26_RN_12_RD_15_1.png","img2/300/Incongruent/R/I_Dist_300_LN_4_LD_20_RN_2_RD_4_1.png","img2/100/Congruent/R/C_Dist_100_LN_2_LD_5_RN_6_RD_12_1.png","img2/100/Congruent/R/C_Dist_100_LN_1_LD_2_RN_18_RD_30_1.png","img2/100/Incongruent/R/I_Dist_100_LN_8_LD_20_RN_1_RD_2_1.png","img2/100/Incongruent/R/I_Dist_100_LN_11_LD_22_RN_9_RD_15_1.png","img2/300/Incongruent/R/I_Dist_300_LN_13_LD_26_RN_12_RD_15_1.png","img2/200/Congruent/L/C_Dist_200_LN_16_LD_20_RN_12_RD_20_0.png","img2/100/Congruent/R/C_Dist_100_LN_2_LD_5_RN_11_RD_22_1.png","img2/200/Congruent/R/C_Dist_200_LN_3_LD_12_RN_9_RD_20_1.png","img2/300/Congruent/L/C_Dist_300_LN_18_LD_20_RN_9_RD_15_0.png","img2/300/Congruent/L/C_Dist_300_LN_9_LD_10_RN_3_RD_5_0.png","img2/200/Incongruent/R/I_Dist_200_LN_11_LD_20_RN_3_RD_4_1.png","img2/300/Congruent/R/C_Dist_300_LN_1_LD_3_RN_19_RD_30_1.png","img2/100/Incongruent/L/I_Dist_100_LN_9_LD_15_RN_13_RD_26_0.png","img2/300/Congruent/R/C_Dist_300_LN_8_LD_15_RN_10_RD_12_1.png","img2/100/Congruent/L/C_Dist_100_LN_11_LD_22_RN_4_RD_10_0.png","img2/200/Congruent/R/C_Dist_200_LN_3_LD_6_RN_14_RD_20_1.png","img2/200/Incongruent/L/I_Dist_200_LN_4_LD_6_RN_14_RD_30_0.png","img2/200/Congruent/L/C_Dist_200_LN_6_LD_15_RN_3_RD_15_0.png","img2/300/Congruent/R/C_Dist_300_LN_1_LD_30_RN_8_RD_24_1.png","img2/200/Incongruent/R/I_Dist_200_LN_6_LD_20_RN_3_RD_6_1.png","img2/300/Incongruent/R/I_Dist_300_LN_13_LD_26_RN_12_RD_15_1.png","img2/100/Congruent/R/C_Dist_100_LN_6_LD_12_RN_15_RD_25_1.png","img2/200/Congruent/R/C_Dist_200_LN_6_LD_20_RN_11_RD_22_1.png","img2/100/Incongruent/L/I_Dist_100_LN_3_LD_9_RN_7_RD_30_0.png","img2/300/Congruent/R/C_Dist_300_LN_5_LD_25_RN_7_RD_14_1.png","img2/300/Incongruent/R/I_Dist_300_LN_4_LD_20_RN_2_RD_4_1.png","img2/100/Congruent/L/C_Dist_100_LN_10_LD_25_RN_3_RD_10_0.png"],"dist100_C":[["C_Dist_100_LN_10_LD_25_RN_3_RD_10_0.png","C_Dist_100_LN_11_LD_22_RN_4_RD_10_0.png","C_Dist_100_LN_11_LD_22_RN_6_RD_15_0.png","C_Dist_100_LN_15_LD_25_RN_13_RD_26_0.png","C_Dist_100_LN_3_LD_6_RN_2_RD_5_0.png","C_Dist_100_LN_6_LD_20_RN_5_RD_25_0.png","C_Dist_100_LN_8_LD_16_RN_2_RD_5_0.png","C_Dist_100_LN_9_LD_15_RN_8_RD_16_0.png"],["C_Dist_100_LN_1_LD_2_RN_18_RD_30_1.png","C_Dist_100_LN_1_LD_2_RN_3_RD_5_1.png","C_Dist_100_LN_12_LD_30_RN_13_RD_26_1.png","C_Dist_100_LN_2_LD_5_RN_11_RD_22_1.png","C_Dist_100_LN_2_LD_5_RN_6_RD_12_1.png","C_Dist_100_LN_3_LD_20_RN_4_RD_16_1.png","C_Dist_100_LN_4_LD_10_RN_15_RD_30_1.png","C_Dist_100_LN_4_LD_8_RN_6_RD_10_1.png","C_Dist_100_LN_6_LD_12_RN_15_RD_25_1.png","C_Dist_100_LN_7_LD_14_RN_15_RD_25_1.png","C_Dist_100_LN_7_LD_14_RN_9_RD_15_1.png"]],"dist100_I":[["I_Dist_100_LN_1_LD_2_RN_8_RD_20_0.png","I_Dist_100_LN_2_LD_4_RN_6_RD_15_0.png","I_Dist_100_LN_2_LD_4_RN_8_RD_20_0.png","I_Dist_100_LN_3_LD_5_RN_11_RD_22_0.png","I_Dist_100_LN_3_LD_5_RN_8_RD_16_0.png","I_Dist_100_LN_3_LD_6_RN_4_RD_10_0.png","I_Dist_100_LN_3_LD_9_RN_7_RD_30_0.png","I_Dist_100_LN_4_LD_8_RN_8_RD_20_0.png","I_Dist_100_LN_6_LD_10_RN_11_RD_22_0.png","I_Dist_100_LN_6_LD_10_RN_13_RD_26_0.png","I_Dist_100_LN_6_LD_10_RN_7_RD_14_0.png","I_Dist_100_LN_9_LD_10_RN_20_RD_25_0.png","I_Dist_100_LN_9_LD_15_RN_13_RD_26_0.png","I_Dist_100_LN_9_LD_15_RN_14_RD_28_0.png"],["I_Dist_100_LN_10_LD_25_RN_8_RD_16_1.png","I_Dist_100_LN_10_LD_25_RN_9_RD_18_1.png","I_Dist_100_LN_11_LD_22_RN_9_RD_15_1.png","I_Dist_100_LN_12_LD_24_RN_9_RD_15_1.png","I_Dist_100_LN_12_LD_30_RN_2_RD_4_1.png","I_Dist_100_LN_13_LD_26_RN_12_RD_20_1.png","I_Dist_100_LN_13_LD_26_RN_6_RD_10_1.png","I_Dist_100_LN_17_LD_30_RN_10_RD_15_1.png","I_Dist_100_LN_6_LD_12_RN_3_RD_5_1.png","I_Dist_100_LN_8_LD_16_RN_6_RD_10_1.png","I_Dist_100_LN_8_LD_20_RN_1_RD_2_1.png","I_Dist_100_LN_9_LD_18_RN_6_RD_10_1.png"]],"dist100_S":[["E_Dist_100_LN_2_LD_12_RN_2_RD_30_0.png","E_Dist_100_LN_6_LD_10_RN_6_RD_12_0.png"],["E_Dist_100_LN_6_LD_12_RN_6_RD_10_1.png"]],"dist200_C":[["C_Dist_200_LN_11_LD_22_RN_3_RD_10_0.png","C_Dist_200_LN_12_LD_15_RN_6_RD_10_0.png","C_Dist_200_LN_12_LD_20_RN_6_RD_15_0.png","C_Dist_200_LN_14_LD_28_RN_6_RD_20_0.png","C_Dist_200_LN_15_LD_25_RN_4_RD_10_0.png","C_Dist_200_LN_16_LD_20_RN_12_RD_20_0.png","C_Dist_200_LN_16_LD_30_RN_9_RD_27_0.png","C_Dist_200_LN_20_LD_25_RN_9_RD_15_0.png","C_Dist_200_LN_21_LD_30_RN_2_RD_4_0.png","C_Dist_200_LN_4_LD_10_RN_3_RD_15_0.png","C_Dist_200_LN_4_LD_8_RN_3_RD_10_0.png","C_Dist_200_LN_6_LD_15_RN_3_RD_15_0.png","C_Dist_200_LN_7_LD_21_RN_2_RD_15_0.png","C_Dist_200_LN_8_LD_15_RN_2_RD_6_0.png","C_Dist_200_LN_8_LD_15_RN_3_RD_9_0.png","C_Dist_200_LN_8_LD_15_RN_7_RD_21_0.png","C_Dist_200_LN_9_LD_20_RN_4_RD_16_0.png"],["C_Dist_200_LN_1_LD_2_RN_21_RD_30_1.png","C_Dist_200_LN_13_LD_26_RN_14_RD_20_1.png","C_Dist_200_LN_3_LD_10_RN_11_RD_22_1.png","C_Dist_200_LN_3_LD_10_RN_14_RD_28_1.png","C_Dist_200_LN_3_LD_10_RN_7_RD_14_1.png","C_Dist_200_LN_3_LD_12_RN_9_RD_20_1.png","C_Dist_200_LN_3_LD_6_RN_14_RD_20_1.png","C_Dist_200_LN_5_LD_10_RN_14_RD_20_1.png","C_Dist_200_LN_6_LD_12_RN_7_RD_10_1.png","C_Dist_200_LN_6_LD_20_RN_11_RD_22_1.png","C_Dist_200_LN_7_LD_15_RN_18_RD_27_1.png","C_Dist_200_LN_9_LD_30_RN_13_RD_26_1.png"]],"dist200_I":[["I_Dist_200_LN_1_LD_2_RN_3_RD_10_0.png","I_Dist_200_LN_1_LD_3_RN_2_RD_15_0.png","I_Dist_200_LN_3_LD_4_RN_11_RD_20_0.png","I_Dist_200_LN_4_LD_5_RN_6_RD_10_0.png","I_Dist_200_LN_4_LD_6_RN_14_RD_30_0.png","I_Dist_200_LN_7_LD_10_RN_12_RD_24_0.png","I_Dist_200_LN_7_LD_10_RN_14_RD_28_0.png","I_Dist_200_LN_7_LD_10_RN_8_RD_16_0.png"],["I_Dist_200_LN_11_LD_20_RN_3_RD_4_1.png","I_Dist_200_LN_14_LD_30_RN_12_RD_18_1.png","I_Dist_200_LN_14_LD_30_RN_6_RD_9_1.png","I_Dist_200_LN_3_LD_10_RN_1_RD_2_1.png","I_Dist_200_LN_4_LD_30_RN_1_RD_3_1.png","I_Dist_200_LN_6_LD_20_RN_3_RD_6_1.png","I_Dist_200_LN_7_LD_15_RN_4_RD_6_1.png","I_Dist_200_LN_7_LD_15_RN_6_RD_9_1.png","I_Dist_200_LN_9_LD_15_RN_8_RD_10_1.png"]],"dist200_S":[["E_Dist_200_LN_3_LD_6_RN_3_RD_10_0.png"],["E_Dist_200_LN_3_LD_10_RN_3_RD_6_1.png"]],"dist300_C":[["C_Dist_300_LN_11_LD_22_RN_1_RD_5_0.png","C_Dist_300_LN_11_LD_22_RN_2_RD_10_0.png","C_Dist_300_LN_11_LD_22_RN_4_RD_20_0.png","C_Dist_300_LN_12_LD_24_RN_2_RD_10_0.png","C_Dist_300_LN_18_LD_20_RN_9_RD_15_0.png","C_Dist_300_LN_20_LD_25_RN_13_RD_26_0.png","C_Dist_300_LN_20_LD_25_RN_14_RD_28_0.png","C_Dist_300_LN_20_LD_25_RN_5_RD_10_0.png","C_Dist_300_LN_20_LD_25_RN_8_RD_16_0.png","C_Dist_300_LN_20_LD_25_RN_9_RD_18_0.png","C_Dist_300_LN_24_LD_30_RN_2_RD_4_0.png","C_Dist_300_LN_24_LD_30_RN_8_RD_16_0.png","C_Dist_300_LN_3_LD_6_RN_2_RD_10_0.png","C_Dist_300_LN_4_LD_10_RN_1_RD_10_0.png","C_Dist_300_LN_4_LD_5_RN_2_RD_4_0.png","C_Dist_300_LN_8_LD_16_RN_1_RD_5_0.png","C_Dist_300_LN_9_LD_10_RN_3_RD_5_0.png"],["C_Dist_300_LN_1_LD_20_RN_7_RD_20_1.png","C_Dist_300_LN_1_LD_3_RN_19_RD_30_1.png","C_Dist_300_LN_1_LD_30_RN_8_RD_24_1.png","C_Dist_300_LN_1_LD_5_RN_11_RD_22_1.png","C_Dist_300_LN_1_LD_5_RN_3_RD_6_1.png","C_Dist_300_LN_1_LD_5_RN_6_RD_12_1.png","C_Dist_300_LN_2_LD_10_RN_12_RD_24_1.png","C_Dist_300_LN_2_LD_20_RN_10_RD_25_1.png","C_Dist_300_LN_3_LD_12_RN_11_RD_20_1.png","C_Dist_300_LN_3_LD_6_RN_4_RD_5_1.png","C_Dist_300_LN_4_LD_20_RN_13_RD_26_1.png","C_Dist_300_LN_5_LD_25_RN_6_RD_12_1.png","C_Dist_300_LN_5_LD_25_RN_7_RD_14_1.png","C_Dist_300_LN_7_LD_14_RN_20_RD_25_1.png","C_Dist_300_LN_8_LD_15_RN_10_RD_12_1.png"]],"dist300_I":[["I_Dist_300_LN_1_LD_2_RN_2_RD_10_0.png","I_Dist_300_LN_1_LD_2_RN_3_RD_15_0.png","I_Dist_300_LN_2_LD_4_RN_6_RD_30_0.png","I_Dist_300_LN_3_LD_6_RN_4_RD_20_0.png","I_Dist_300_LN_4_LD_5_RN_6_RD_12_0.png","I_Dist_300_LN_4_LD_5_RN_8_RD_16_0.png","I_Dist_300_LN_7_LD_10_RN_8_RD_20_0.png","I_Dist_300_LN_8_LD_10_RN_14_RD_28_0.png","I_Dist_300_LN_8_LD_10_RN_9_RD_18_0.png"],["I_Dist_300_LN_13_LD_26_RN_12_RD_15_1.png","I_Dist_300_LN_4_LD_20_RN_2_RD_4_1.png"]],"dist300_S":[["E_Dist_300_LN_9_LD_12_RN_9_RD_20_0.png"],["E_Dist_300_LN_18_LD_30_RN_18_RD_20_1.png","E_Dist_300_LN_3_LD_10_RN_3_RD_5_1.png","E_Dist_300_LN_9_LD_20_RN_9_RD_12_1.png"]],"dist500_C":[["C_Dist_500_LN_10_LD_13_RN_7_RD_26_0.png","C_Dist_500_LN_10_LD_15_RN_4_RD_24_0.png","C_Dist_500_LN_12_LD_16_RN_3_RD_12_0.png","C_Dist_500_LN_12_LD_18_RN_4_RD_24_0.png","C_Dist_500_LN_15_LD_18_RN_5_RD_15_0.png","C_Dist_500_LN_15_LD_20_RN_1_RD_4_0.png","C_Dist_500_LN_18_LD_27_RN_1_RD_6_0.png","C_Dist_500_LN_20_LD_24_RN_1_RD_3_0.png","C_Dist_500_LN_20_LD_24_RN_3_RD_9_0.png","C_Dist_500_LN_20_LD_24_RN_7_RD_21_0.png","C_Dist_500_LN_20_LD_28_RN_3_RD_14_0.png","C_Dist_500_LN_21_LD_28_RN_6_RD_24_0.png","C_Dist_500_LN_22_LD_28_RN_2_RD_7_0.png","C_Dist_500_LN_25_LD_30_RN_9_RD_27_0.png","C_Dist_500_LN_4_LD_6_RN_1_RD_6_0.png","C_Dist_500_LN_5_LD_6_RN_2_RD_6_0.png","C_Dist_500_LN_6_LD_9_RN_1_RD_6_0.png","C_Dist_500_LN_7_LD_10_RN_1_RD_5_0.png","C_Dist_500_LN_8_LD_12_RN_1_RD_6_0.png","C_Dist_500_LN_8_LD_12_RN_4_RD_24_0.png"],["C_Dist_500_LN_1_LD_4_RN_12_RD_16_1.png","C_Dist_500_LN_1_LD_4_RN_9_RD_12_1.png","C_Dist_500_LN_1_LD_9_RN_11_RD_18_1.png","C_Dist_500_LN_10_LD_24_RN_22_RD_24_1.png","C_Dist_500_LN_2_LD_12_RN_10_RD_15_1.png","C_Dist_500_LN_2_LD_12_RN_12_RD_18_1.png","C_Dist_500_LN_2_LD_12_RN_4_RD_6_1.png","C_Dist_500_LN_2_LD_24_RN_7_RD_12_1.png","C_Dist_500_LN_2_LD_5_RN_18_RD_20_1.png","C_Dist_500_LN_2_LD_5_RN_9_RD_10_1.png","C_Dist_500_LN_2_LD_8_RN_12_RD_16_1.png","C_Dist_500_LN_2_LD_8_RN_21_RD_28_1.png","C_Dist_500_LN_3_LD_10_RN_4_RD_5_1.png","C_Dist_500_LN_3_LD_12_RN_15_RD_20_1.png","C_Dist_500_LN_3_LD_30_RN_6_RD_10_1.png","C_Dist_500_LN_3_LD_8_RN_14_RD_16_1.png","C_Dist_500_LN_4_LD_16_RN_15_RD_20_1.png","C_Dist_500_LN_4_LD_24_RN_12_RD_18_1.png","C_Dist_500_LN_5_LD_14_RN_6_RD_7_1.png","C_Dist_500_LN_7_LD_21_RN_20_RD_24_1.png","C_Dist_500_LN_7_LD_28_RN_12_RD_16_1.png","C_Dist_500_LN_7_LD_28_RN_9_RD_12_1.png","C_Dist_500_LN_9_LD_27_RN_20_RD_24_1.png"]],"dist500_I":[["I_Dist_500_LN_2_LD_3_RN_4_RD_24_0.png","I_Dist_500_LN_5_LD_6_RN_6_RD_18_0.png","I_Dist_500_LN_7_LD_8_RN_9_RD_24_0.png"],["I_Dist_500_LN_7_LD_21_RN_5_RD_6_1.png"]],"dist500_S":[["E_Dist_500_LN_6_LD_8_RN_6_RD_24_0.png"],["E_Dist_500_LN_2_LD_12_RN_2_RD_3_1.png","E_Dist_500_LN_6_LD_24_RN_6_RD_8_1.png"]]}},{"start_time":1552308206799,"click_time":1552308208505,"finger_time":1552308207686,"fix_duration":970.7452760559923,"trial":1,"RT":887,"MT":819,"sideResp":2,"stimulus":[],"xmouse":[767,767,767,767,767,767,767,767,767,767,767,767,767,767,767,768,771,773,776,777,777,777,777,777,778,778,779,779,780,785,789,793,795,796,796,796,796,796,796,796,796,796,796,800,809,817,824,827,830,845,882,902,955,1053,1091,1100,1104,1105,1067,1038,1020,1018,1031,1054,1054,1054,1054,1054,1054,1054,1054,1054,1054,1054,1054,1054,1054,1054,1054,1054,1054,1054,1054,1054,1103,1103],"ymouse":[510,510,510,510,510,510,509,509,509,509,509,509,509,509,509,508,502,498,491,487,486,486,486,486,485,483,483,482,481,476,473,471,471,470,470,470,470,470,470,470,470,470,470,470,465,462,460,459,459,451,432,424,404,377,371,367,355,333,224,152,87,49,23,5,5,5,5,5,5,5,5,5,5,5,5,5,5,5,5,5,5,5,5,5,0,1],"timestamp_mouse":[9,32,47,66,87,105,126,145,166,186,206,227,247,265,286,305,325,347,365,385,407,425,446,466,487,506,526,547,565,586,606,625,646,667,687,705,727,747,765,785,806,825,845,866,887,906,926,945,967,985,1005,1026,1046,1067,1086,1106,1125,1146,1167,1186,1206,1226,1245,1265,1286,1306,1326,1346,1367,1385,1405,1426,1446,1467,1485,1506,1527,1546,1566,1586,1606,1626,1646,1666,1685,1705],"xSR":741.5,"ySR":469.95,"xT1":424.9,"yT1":0,"xT2":1058.1,"yT2":0,"toosoon":0,"cond_shown":"Congruent","ratio_trial":100,"L_num":4,"L_den":8,"R_num":6,"R_den":10,"correct_side":2,"subjID":"Diegoalejandroarevalo9","gender":"0","school":"4","age":"10"},{"start_time":1552308210628,"click_time":1552308212005,"finger_time":1552308211284,"fix_duration":681.5762447823848,"trial":2,"RT":656,"MT":721,"sideResp":1,"stimulus":[],"xmouse":[793,793,793,793,793,793,793,793,793,793,793,793,793,793,793,793,793,793,793,793,793,793,793,793,793,793,793,793,793,793,789,778,751,740,738,737,737,727,702,691,656,640,640,654,668,678,681,678,665,659,636,620,590,573,557,542,530,521,521,521,521,518,505,500,500,500,499,507,520],"ymouse":[510,510,510,510,510,510,510,510,510,510,510,510,510,510,510,510,510,510,510,510,510,510,510,510,510,510,510,510,510,510,508,495,466,454,448,444,439,416,391,384,361,351,328,309,293,279,269,263,259,257,245,232,198,184,172,162,156,150,150,149,145,139,120,115,115,115,115,110,99],"timestamp_mouse":[17,45,58,76,97,117,138,158,177,197,218,238,256,276,296,316,337,358,376,398,417,436,458,478,498,516,538,558,578,597,616,638,656,677,698,716,738,756,776,796,816,837,856,877,898,916,937,957,977,997,1017,1037,1057,1076,1097,1116,1137,1157,1177,1196,1217,1238,1257,1277,1296,1316,1338,1357,1376],"xSR":741.5,"ySR":469.95,"xT1":424.9,"yT1":0,"xT2":1058.1,"yT2":0,"toosoon":0,"cond_shown":"Congruent","ratio_trial":100,"L_num":15,"L_den":25,"R_num":13,"R_den":26,"correct_side":1,"subjID":"Diegoalejandroarevalo9","gender":"0","school":"4","age":"10"},{"start_time":1552308215089,"click_time":1552308216266,"finger_time":1552308215645,"fix_duration":1222.744883026,"trial":3,"RT":556,"MT":621,"sideResp":2,"stimulus":[],"xmouse":[801,801,801,801,801,801,801,801,801,801,801,801,801,801,801,801,801,801,801,801,801,801,801,801,801,824,840,852,861,897,922,947,962,967,967,969,974,978,978,978,978,978,978,983,1034,1094,1126,1144,1159,1176,1183,1184,1183,1174,1171,1168,1165,1162,1157],"ymouse":[513,513,513,513,513,513,513,513,513,513,513,513,513,513,513,513,513,513,513,513,513,513,513,513,512,491,477,465,456,439,427,408,384,361,338,274,246,221,205,199,199,199,199,196,179,163,156,147,138,109,87,68,51,35,32,28,24,20,13],"timestamp_mouse":[16,43,55,76,95,115,136,155,175,195,216,237,255,276,297,315,336,357,375,396,417,436,457,475,495,516,536,556,575,597,615,637,655,676,696,717,735,756,776,796,815,836,856,877,898,915,936,955,976,996,1015,1036,1055,1076,1095,1115,1136,1156,1177],"xSR":741.5,"ySR":469.95,"xT1":424.9,"yT1":0,"xT2":1058.1,"yT2":0,"toosoon":0,"cond_shown":"Congruent","ratio_trial":200,"L_num":1,"L_den":2,"R_num":21,"R_den":30,"correct_side":2,"subjID":"Diegoalejandroarevalo9","gender":"0","school":"4","age":"10"},{"start_time":1552308218717,"click_time":1552308219745,"finger_time":1552308219145,"fix_duration":250,"trial":4,"RT":428,"MT":600,"sideResp":2,"stimulus":[],"xmouse":[771,771,771,771,771,771,771,771,771,771,771,771,771,771,773,776,778,783,787,799,808,826,832,861,911,926,938,943,951,967,975,982,982,980,960,945,927,913,906,903,903,903,903,902,903,904,910,915,927,979,1025,1070],"ymouse":[515,515,515,515,515,515,515,515,515,515,515,515,515,515,514,511,507,503,497,483,474,461,456,425,376,347,317,297,272,231,211,188,173,160,140,133,127,123,119,119,119,119,119,118,116,115,112,109,102,72,54,36],"timestamp_mouse":[11,44,48,68,88,107,128,149,167,187,208,227,247,268,289,308,328,348,368,387,409,428,449,467,488,507,528,547,569,588,608,628,648,667,687,708,729,748,769,789,809,829,849,869,887,908,928,948,968,988,1008,1028],"xSR":741.5,"ySR":469.95,"xT1":424.9,"yT1":0,"xT2":1058.1,"yT2":0,"toosoon":0,"cond_shown":"Incongruent","ratio_trial":100,"L_num":10,"L_den":25,"R_num":8,"R_den":16,"correct_side":2,"subjID":"Diegoalejandroarevalo9","gender":"0","school":"4","age":"10"},{"start_time":1552308225868,"click_time":1552308226465,"finger_time":1552308226245,"fix_duration":1020.6933447003335,"trial":5,"RT":377,"MT":220,"sideResp":1,"stimulus":[],"xmouse":[795,795,795,795,795,795,795,795,795,795,795,795,795,795,794,793,790,777,761,741,718,668,606,582,567,554,540,516,500,483],"ymouse":[508,508,508,508,508,508,508,508,508,508,508,508,508,508,506,505,502,479,456,434,411,372,327,304,284,259,227,155,119,92],"timestamp_mouse":[17,40,56,77,97,117,137,157,177,196,216,236,256,277,297,316,337,356,377,396,418,437,457,476,497,516,536,557,578,597],"xSR":741.5,"ySR":469.95,"xT1":424.9,"yT1":0,"xT2":1058.1,"yT2":0,"toosoon":0,"cond_shown":"Incongruent","ratio_trial":100,"L_num":8,"L_den":20,"R_num":1,"R_den":2,"correct_side":2,"subjID":"Diegoalejandroarevalo9","gender":"0","school":"4","age":"10"},{"start_time":1552308230448,"click_time":1552308231426,"finger_time":1552308230924,"fix_duration":982.807483036571,"trial":6,"RT":476,"MT":502,"sideResp":2,"stimulus":[],"xmouse":[809,809,809,809,809,809,809,809,809,809,809,809,809,809,809,809,809,809,809,809,809,809,818,840,853,873,891,906,938,961,975,994,1016,1049,1054,1055,1055,1051,1044,1044,1044,1043,1043,1043,1043,1043,1045,1054,1084],"ymouse":[485,485,485,485,485,485,485,485,485,485,485,485,485,485,485,485,485,485,485,485,485,485,477,452,438,420,403,383,337,293,251,211,171,113,100,98,97,98,102,102,102,102,102,102,102,101,100,97,83],"timestamp_mouse":[16,45,56,76,96,117,137,157,177,198,217,237,257,277,298,316,337,358,378,397,417,437,456,476,496,517,538,557,578,596,617,637,656,677,697,717,737,756,776,796,816,838,857,877,897,916,937,956,977],"xSR":741.5,"ySR":469.95,"xT1":424.9,"yT1":0,"xT2":1058.1,"yT2":0,"toosoon":0,"cond_shown":"Congruent","ratio_trial":200,"L_num":15,"L_den":25,"R_num":4,"R_den":10,"correct_side":1,"subjID":"Diegoalejandroarevalo9","gender":"0","school":"4","age":"10"},{"start_time":1552308237247,"click_time":1552308238245,"finger_time":1552308237785,"fix_duration":661.5072023141362,"trial":7,"RT":538,"MT":460,"sideResp":1,"stimulus":[],"xmouse":[800,800,800,800,800,800,800,800,800,800,800,800,800,800,800,800,800,800,798,798,798,798,798,798,793,772,738,692,658,619,618,620,627,630,625,604,589,575,559,539,534,534,534,534,533,531,528,526,525,521],"ymouse":[492,492,492,492,492,492,492,492,492,492,492,492,492,492,492,492,492,492,492,492,492,492,492,492,492,470,444,412,389,355,340,318,289,260,195,158,138,122,108,91,87,86,85,84,82,80,80,79,79,76],"timestamp_mouse":[22,49,59,77,98,119,139,158,178,199,218,239,259,277,298,319,339,359,378,397,418,437,458,478,497,517,538,557,578,597,618,638,657,677,697,718,738,758,778,798,818,838,858,878,898,918,937,958,977,998],"xSR":741.5,"ySR":469.95,"xT1":424.9,"yT1":0,"xT2":1058.1,"yT2":0,"toosoon":0,"cond_shown":"Congruent","ratio_trial":200,"L_num":7,"L_den":21,"R_num":2,"R_den":15,"correct_side":1,"subjID":"Diegoalejandroarevalo9","gender":"0","school":"4","age":"10"},{"start_time":1552308240497,"click_time":1552308241767,"finger_time":1552308241305,"fix_duration":250,"trial":8,"RT":808,"MT":462,"sideResp":2,"stimulus":[],"xmouse":[801,801,800,800,799,799,799,798,798,797,797,796,795,792,788,785,781,778,777,775,775,774,774,773,773,773,773,773,773,773,773,773,773,773,773,773,773,773,773,783,798,815,832,857,865,875,887,920,937,954,966,975,982,982,982,982,982,982,982,991,1011,1038,1062,1092],"ymouse":[518,518,517,517,516,516,516,514,514,512,512,511,510,508,506,505,503,501,500,498,497,495,494,492,492,492,492,492,492,492,492,492,492,492,492,492,492,492,490,482,465,439,407,336,312,290,268,222,203,183,169,160,155,155,155,155,155,155,155,149,138,127,116,86],"timestamp_mouse":[8,28,50,69,88,109,128,148,170,189,208,228,249,269,288,309,329,349,368,390,409,429,448,468,489,509,530,548,568,589,610,629,649,670,688,708,729,749,768,788,808,828,849,868,888,908,929,950,968,988,1008,1028,1049,1069,1088,1108,1129,1148,1168,1188,1208,1228,1249,1270],"xSR":741.5,"ySR":469.95,"xT1":424.9,"yT1":0,"xT2":1058.1,"yT2":0,"toosoon":0,"cond_shown":"Incongruent","ratio_trial":200,"L_num":4,"L_den":6,"R_num":14,"R_den":30,"correct_side":1,"subjID":"Diegoalejandroarevalo9","gender":"0","school":"4","age":"10"},{"start_time":1552308244331,"click_time":1552308245125,"finger_time":1552308244746,"fix_duration":1404.0328164604327,"trial":9,"RT":415,"MT":379,"sideResp":1,"stimulus":[],"xmouse":[753,753,753,753,753,753,753,753,753,752,752,752,752,752,752,752,751,748,745,742,739,731,723,709,696,685,650,617,600,585,550,495,475,459,447,440,436,438,443,447],"ymouse":[525,525,525,525,525,525,525,525,525,525,525,525,525,525,525,525,525,526,526,528,528,530,531,531,524,516,481,453,431,410,361,306,287,273,257,241,196,166,127,65],"timestamp_mouse":[15,42,55,76,94,115,135,154,176,196,216,234,255,274,295,315,334,355,374,395,415,434,454,474,495,514,535,555,576,595,615,634,654,675,694,715,734,754,775,794],"xSR":741.5,"ySR":469.95,"xT1":424.9,"yT1":0,"xT2":1058.1,"yT2":0,"toosoon":0,"cond_shown":"Incongruent","ratio_trial":200,"L_num":7,"L_den":15,"R_num":4,"R_den":6,"correct_side":2,"subjID":"Diegoalejandroarevalo9","gender":"0","school":"4","age":"10"},{"start_time":1552308247338,"click_time":1552308247986,"finger_time":1552308247766,"fix_duration":250,"trial":10,"RT":428,"MT":220,"sideResp":2,"stimulus":[],"xmouse":[807,810,810,811,811,811,811,811,811,811,811,811,811,811,811,811,811,811,811,811,813,824,835,849,877,915,949,1037,1062,1083,1098,1113,1116],"ymouse":[499,501,501,501,499,494,490,490,490,490,490,490,490,490,490,490,490,490,490,489,485,465,444,412,357,293,253,182,164,147,131,104,97],"timestamp_mouse":[8,28,47,68,87,107,128,148,168,189,209,228,247,269,287,308,328,349,369,388,407,428,447,468,488,507,528,549,567,587,607,628,648],"xSR":741.5,"ySR":469.95,"xT1":424.9,"yT1":0,"xT2":1058.1,"yT2":0,"toosoon":0,"cond_shown":"Incongruent","ratio_trial":300,"L_num":4,"L_den":20,"R_num":2,"R_den":4,"correct_side":2,"subjID":"Diegoalejandroarevalo9","gender":"0","school":"4","age":"10"},{"start_time":1552308250899,"click_time":1552308251585,"finger_time":1552308251367,"fix_duration":952.3879428245397,"trial":11,"RT":468,"MT":218,"sideResp":2,"stimulus":[],"xmouse":[764,764,764,764,764,764,764,764,764,764,764,764,764,764,764,764,764,764,764,764,764,768,771,789,799,815,837,859,891,939,970,998,1026,1044,1060],"ymouse":[507,507,507,507,507,507,507,507,507,507,507,507,507,507,507,507,507,507,507,507,507,501,494,455,433,409,387,365,328,259,218,177,138,104,55],"timestamp_mouse":[9,38,47,68,88,107,127,147,167,187,206,227,246,268,286,308,327,346,366,388,407,427,448,468,487,507,527,547,566,586,606,626,646,667,686],"xSR":741.5,"ySR":469.95,"xT1":424.9,"yT1":0,"xT2":1058.1,"yT2":0,"toosoon":0,"cond_shown":"Incongruent","ratio_trial":200,"L_num":1,"L_den":2,"R_num":3,"R_den":10,"correct_side":1,"subjID":"Diegoalejandroarevalo9","gender":"0","school":"4","age":"10"},{"start_time":1552308253698,"click_time":1552308254785,"finger_time":1552308254125,"fix_duration":310.36764915891246,"trial":12,"RT":427,"MT":660,"sideResp":2,"stimulus":[],"xmouse":[767,767,767,767,767,767,767,767,767,767,767,767,767,767,767,768,768,769,770,773,775,776,778,779,782,782,783,783,783,784,791,800,819,851,931,969,1007,1025,1039,1049,1050,1050,1051,1055,1073,1085,1087,1090,1090,1087,1086,1086,1086,1086,1089],"ymouse":[498,498,498,498,498,498,498,498,498,498,498,498,498,498,498,499,499,499,497,483,475,465,458,453,448,446,444,444,444,442,438,431,420,405,358,331,300,279,260,227,215,206,195,185,155,133,128,116,113,109,109,109,109,108,98],"timestamp_mouse":[9,43,48,68,88,108,128,148,168,188,207,228,249,269,287,308,328,347,367,388,407,427,448,468,487,508,528,548,568,588,607,627,647,668,688,707,727,748,768,788,808,827,848,867,887,907,927,948,968,988,1008,1028,1047,1069,1087],"xSR":741.5,"ySR":469.95,"xT1":424.9,"yT1":0,"xT2":1058.1,"yT2":0,"toosoon":0,"cond_shown":"Incongruent","ratio_trial":300,"L_num":8,"L_den":10,"R_num":14,"R_den":28,"correct_side":1,"subjID":"Diegoalejandroarevalo9","gender":"0","school":"4","age":"10"},{"start_time":1552308258247,"click_time":1552308258966,"finger_time":1552308258705,"fix_duration":699.3697328458919,"trial":13,"RT":458,"MT":261,"sideResp":2,"stimulus":[],"xmouse":[787,787,787,787,787,787,787,787,787,787,787,787,787,787,787,787,788,789,797,801,809,817,828,855,876,903,931,972,1009,1019,1023,1027,1037,1046,1052,1058,1059],"ymouse":[547,547,547,547,547,547,547,547,547,547,547,546,545,544,543,542,541,539,529,521,509,498,483,447,418,388,352,289,205,169,140,109,58,38,27,21,20],"timestamp_mouse":[1,18,40,58,78,99,119,139,158,178,199,218,240,258,279,299,320,338,360,378,399,418,438,458,478,499,520,538,559,579,598,619,639,659,679,699,719],"xSR":741.5,"ySR":469.95,"xT1":424.9,"yT1":0,"xT2":1058.1,"yT2":0,"toosoon":0,"cond_shown":"Incongruent","ratio_trial":200,"L_num":7,"L_den":10,"R_num":12,"R_den":24,"correct_side":1,"subjID":"Diegoalejandroarevalo9","gender":"0","school":"4","age":"10"},{"start_time":1552308260858,"click_time":1552308261865,"finger_time":1552308261386,"fix_duration":250,"trial":14,"RT":528,"MT":479,"sideResp":1,"stimulus":[],"xmouse":[784,784,784,784,784,784,784,784,784,784,784,784,784,784,784,784,784,784,784,784,784,784,784,785,780,771,754,728,710,696,682,674,659,652,647,645,645,650,651,649,644,638,626,614,593,580,569,554,544,535,524],"ymouse":[522,522,522,522,522,522,522,522,522,522,522,522,522,522,522,522,522,522,522,522,522,522,522,518,507,491,464,424,404,389,377,368,347,337,324,294,265,183,151,126,111,104,104,104,106,107,107,98,93,89,85],"timestamp_mouse":[10,45,48,69,87,109,128,147,168,188,207,228,249,267,287,309,329,348,367,389,407,428,447,469,488,507,528,547,567,587,607,628,647,668,688,709,728,747,768,788,807,828,847,867,887,908,927,948,967,988,1007],"xSR":741.5,"ySR":469.95,"xT1":424.9,"yT1":0,"xT2":1058.1,"yT2":0,"toosoon":0,"cond_shown":"Congruent","ratio_trial":200,"L_num":3,"L_den":10,"R_num":7,"R_den":14,"correct_side":2,"subjID":"Diegoalejandroarevalo9","gender":"0","school":"4","age":"10"},{"start_time":1552308263397,"click_time":1552308264426,"finger_time":1552308263866,"fix_duration":250,"trial":15,"RT":469,"MT":560,"sideResp":2,"stimulus":[],"xmouse":[817,817,817,817,817,817,817,817,817,817,817,817,817,817,817,817,817,817,817,817,820,827,839,859,882,947,987,1015,1036,1040,1041,1041,1043,1044,1047,1056,1060,1062,1062,1062,1062,1061,1061,1061,1061,1068,1073,1079,1083,1087,1090,1099],"ymouse":[483,483,483,483,483,483,483,483,483,483,483,483,483,483,483,483,483,483,483,483,481,478,470,459,445,397,363,338,316,308,299,296,293,288,277,246,231,209,200,194,186,184,179,173,166,145,135,123,117,111,105,94],"timestamp_mouse":[14,30,48,70,89,108,128,150,168,190,209,230,248,268,290,308,329,350,368,389,409,428,448,469,490,508,529,549,570,588,609,628,649,668,688,708,728,748,769,788,808,828,848,868,888,909,930,949,968,988,1008,1029],"xSR":741.5,"ySR":469.95,"xT1":424.9,"yT1":0,"xT2":1058.1,"yT2":0,"toosoon":0,"cond_shown":"Incongruent","ratio_trial":200,"L_num":3,"L_den":4,"R_num":11,"R_den":20,"correct_side":1,"subjID":"Diegoalejandroarevalo9","gender":"0","school":"4","age":"10"},{"start_time":1552308266546,"click_time":1552308268585,"finger_time":1552308267666,"fix_duration":380.76003531270317,"trial":16,"RT":1120,"MT":919,"sideResp":2,"stimulus":[],"xmouse":[777,777,777,777,777,777,777,777,777,777,777,777,777,777,777,777,777,777,777,777,777,777,777,777,777,777,777,777,777,777,777,777,777,777,777,777,777,777,777,777,777,777,777,777,777,775,775,775,771,768,765,763,760,754,749,736,713,696,687,681,678,677,677,677,678,680,683,693,700,708,719,733,749,791,839,921,1018,1160,1198,1198,1198,1198,1198,1198,1198,1198,1198,1198,1198,1198,1198,1198,1198,1198,1199,1193,1188,1183,1178,1171,1162,1153],"ymouse":[544,544,544,544,544,544,544,544,544,544,544,544,544,544,544,544,544,544,544,544,544,544,544,544,544,544,544,544,544,544,544,544,544,544,544,544,544,544,544,544,544,544,544,544,544,544,544,544,543,541,539,537,534,521,508,491,466,444,431,420,414,409,407,406,406,405,404,401,401,401,401,401,401,392,365,319,254,108,51,51,51,51,51,51,51,51,51,51,51,51,51,51,51,51,6,12,17,18,19,20,21,22],"timestamp_mouse":[19,44,60,80,100,121,139,159,181,199,219,239,261,279,300,320,340,359,381,401,421,439,461,481,501,520,540,560,581,600,620,640,659,681,700,720,740,760,779,801,819,839,860,880,900,920,939,959,981,999,1020,1039,1060,1079,1100,1120,1140,1161,1180,1199,1219,1239,1261,1280,1300,1319,1341,1361,1380,1399,1419,1439,1460,1479,1500,1520,1540,1559,1579,1600,1620,1641,1660,1680,1699,1719,1739,1761,1780,1801,1820,1839,1860,1879,1901,1920,1941,1960,1980,1999,2019,2039],"xSR":741.5,"ySR":469.95,"xT1":424.9,"yT1":0,"xT2":1058.1,"yT2":0,"toosoon":0,"cond_shown":"Congruent","ratio_trial":100,"L_num":10,"L_den":25,"R_num":3,"R_den":10,"correct_side":1,"subjID":"Diegoalejandroarevalo9","gender":"0","school":"4","age":"10"},{"start_time":1552308276438,"click_time":1552308277306,"finger_time":1552308276807,"fix_duration":790.2370059920589,"trial":17,"RT":369,"MT":499,"sideResp":1,"stimulus":[],"xmouse":[782,782,782,782,782,782,782,782,782,782,782,782,782,782,782,783,779,771,765,760,740,724,702,673,590,573,561,556,555,555,555,555,555,555,555,555,555,555,555,555,551,542,528,515],"ymouse":[503,503,503,503,503,503,503,503,503,503,503,503,503,503,503,502,494,476,450,415,320,289,261,230,172,156,140,124,112,103,100,100,100,100,100,100,100,100,100,100,98,94,88,81],"timestamp_mouse":[10,42,49,68,88,107,128,147,169,189,208,229,247,268,287,307,329,348,369,388,409,428,449,467,489,507,528,547,568,588,608,629,648,669,688,708,727,748,768,789,809,828,847,867],"xSR":741.5,"ySR":469.95,"xT1":424.9,"yT1":0,"xT2":1058.1,"yT2":0,"toosoon":0,"cond_shown":"Incongruent","ratio_trial":100,"L_num":13,"L_den":26,"R_num":12,"R_den":20,"correct_side":2,"subjID":"Diegoalejandroarevalo9","gender":"0","school":"4","age":"10"},{"start_time":1552308279935,"click_time":1552308281085,"finger_time":1552308280546,"fix_duration":1107.2445541582038,"trial":18,"RT":611,"MT":539,"sideResp":2,"stimulus":[],"xmouse":[775,774,774,772,772,772,772,772,772,772,772,772,772,772,772,772,772,772,772,772,772,772,772,772,772,772,772,773,774,775,791,807,828,856,872,880,883,887,892,896,905,908,908,908,908,908,910,912,916,922,976,998,1072,1106,1125,1137,1137,1135],"ymouse":[473,473,473,474,474,474,474,474,474,474,474,474,474,474,474,474,474,474,474,474,474,474,474,474,474,474,474,473,473,471,450,427,390,317,270,214,192,176,160,149,128,122,122,121,121,121,121,121,121,121,121,121,128,128,127,114,103,90],"timestamp_mouse":[10,42,50,70,90,110,132,152,171,191,211,232,250,270,292,310,331,376,376,391,411,431,451,472,491,512,531,551,570,590,611,632,651,670,691,710,730,750,770,790,810,831,850,870,891,910,930,951,972,991,1013,1032,1050,1071,1090,1111,1130,1150],"xSR":741.5,"ySR":469.95,"xT1":424.9,"yT1":0,"xT2":1058.1,"yT2":0,"toosoon":0,"cond_shown":"Congruent","ratio_trial":300,"L_num":1,"L_den":5,"R_num":6,"R_den":12,"correct_side":2,"subjID":"Diegoalejandroarevalo9","gender":"0","school":"4","age":"10"},{"start_time":1552308288047,"click_time":1552308288967,"finger_time":1552308288465,"fix_duration":479.47497754975,"trial":19,"RT":418,"MT":502,"sideResp":2,"stimulus":[],"xmouse":[778,778,778,778,778,778,778,778,778,778,778,778,778,778,778,778,778,778,779,787,794,825,844,878,930,960,1012,1029,1038,1040,1040,1040,1040,1040,1040,1040,1040,1040,1040,1040,1040,1040,1040,1040,1040,1040,1063],"ymouse":[497,497,497,497,497,497,497,497,497,497,497,497,497,497,497,497,497,497,498,495,489,454,427,373,294,241,134,77,25,7,7,7,7,7,7,7,7,7,7,7,7,7,7,7,7,7,38],"timestamp_mouse":[2,18,39,59,78,99,120,138,158,180,199,219,239,259,278,300,318,338,359,378,398,418,439,458,479,498,519,538,558,580,599,618,638,658,678,700,719,739,759,780,799,818,839,858,878,898,920],"xSR":741.5,"ySR":469.95,"xT1":424.9,"yT1":0,"xT2":1058.1,"yT2":0,"toosoon":0,"cond_shown":"Congruent","ratio_trial":300,"L_num":2,"L_den":10,"R_num":12,"R_den":24,"correct_side":2,"subjID":"Diegoalejandroarevalo9","gender":"0","school":"4","age":"10"},{"start_time":1552308292089,"click_time":1552308293025,"finger_time":1552308292505,"fix_duration":762.5549615117914,"trial":20,"RT":416,"MT":520,"sideResp":2,"stimulus":[],"xmouse":[796,796,796,796,796,796,796,796,796,796,796,796,796,796,796,796,796,798,804,812,822,836,848,885,914,938,953,963,977,980,981,981,982,984,986,990,997,1001,1010,1011,1011,1012,1013,1022,1038,1053,1074],"ymouse":[530,530,530,530,530,530,530,530,530,530,530,530,530,530,530,530,530,528,506,471,432,388,346,229,171,136,114,100,81,79,79,79,79,79,79,79,79,77,75,75,75,75,75,75,71,65,58],"timestamp_mouse":[17,44,57,76,96,116,136,158,177,198,218,237,256,278,296,317,338,357,376,397,416,437,457,478,496,516,537,557,577,596,617,638,656,677,696,717,737,757,778,797,817,837,856,878,896,917,936],"xSR":741.5,"ySR":469.95,"xT1":424.9,"yT1":0,"xT2":1058.1,"yT2":0,"toosoon":0,"cond_shown":"Congruent","ratio_trial":100,"L_num":12,"L_den":30,"R_num":13,"R_den":26,"correct_side":2,"subjID":"Diegoalejandroarevalo9","gender":"0","school":"4","age":"10"},{"start_time":1552308296308,"click_time":1552308297206,"finger_time":1552308296785,"fix_duration":820.170225602141,"trial":21,"RT":477,"MT":421,"sideResp":2,"stimulus":[],"xmouse":[772,772,772,772,772,772,772,772,773,773,773,773,773,773,773,773,773,773,776,780,784,788,796,819,829,839,856,872,927,942,954,965,972,979,979,980,985,1010,1054,1074,1088,1095,1097,1092,1085],"ymouse":[514,514,514,514,514,514,514,514,514,514,514,514,514,514,514,514,514,514,514,510,504,496,482,437,413,388,351,327,252,239,228,217,208,201,201,201,199,192,186,180,172,163,148,107,88],"timestamp_mouse":[19,38,59,78,98,118,139,157,178,197,218,237,258,278,298,318,338,358,377,397,417,437,457,477,499,519,539,557,578,598,618,638,658,677,699,719,739,757,778,797,817,838,859,878,898],"xSR":741.5,"ySR":469.95,"xT1":424.9,"yT1":0,"xT2":1058.1,"yT2":0,"toosoon":0,"cond_shown":"Congruent","ratio_trial":300,"L_num":1,"L_den":5,"R_num":3,"R_den":6,"correct_side":2,"subjID":"Diegoalejandroarevalo9","gender":"0","school":"4","age":"10"},{"start_time":1552308298637,"click_time":1552308299686,"finger_time":1552308299346,"fix_duration":309.26535819874533,"trial":22,"RT":709,"MT":340,"sideResp":1,"stimulus":[],"xmouse":[751,751,753,754,756,758,759,762,763,765,765,765,766,766,766,766,766,766,766,766,766,766,766,766,766,766,766,766,766,766,767,769,772,772,763,752,734,708,708,708,709,715,718,715,703,679,629,539,506,483,473,463,452],"ymouse":[527,527,527,527,528,528,528,528,528,528,528,528,528,528,528,528,528,528,528,528,528,528,528,528,528,528,528,528,528,528,528,526,510,495,476,459,438,423,423,423,423,424,427,427,425,414,389,325,291,245,210,172,99],"timestamp_mouse":[26,28,48,68,89,110,128,148,168,189,208,229,248,269,289,309,330,349,369,390,408,429,450,469,489,510,528,549,569,590,609,628,648,668,689,709,728,749,768,790,809,829,849,869,888,909,929,949,970,989,1010,1029,1049],"xSR":741.5,"ySR":469.95,"xT1":424.9,"yT1":0,"xT2":1058.1,"yT2":0,"toosoon":0,"cond_shown":"Congruent","ratio_trial":200,"L_num":7,"L_den":21,"R_num":2,"R_den":15,"correct_side":1,"subjID":"Diegoalejandroarevalo9","gender":"0","school":"4","age":"10"},{"start_time":1552308301478,"click_time":1552308303106,"finger_time":1552308302366,"fix_duration":250,"trial":23,"RT":888,"MT":740,"sideResp":2,"stimulus":[],"xmouse":[753,753,753,753,753,753,753,753,753,753,753,753,753,753,753,753,753,753,753,753,753,753,755,757,758,760,767,770,772,777,805,818,826,827,827,827,827,827,827,827,827,828,833,840,846,856,857,859,863,870,885,891,900,914,926,969,982,991,1000,1004,1007,1007,1007,1010,1013,1015,1016,1016,1017,1018,1019,1020,1020,1020,1020,1023,1024,1026,1029,1033,1040,1062],"ymouse":[511,511,511,511,511,511,511,511,511,511,511,511,511,511,511,511,511,511,511,511,511,511,511,510,509,509,507,505,505,505,505,505,505,505,505,505,505,505,505,505,505,505,500,489,481,471,470,468,464,453,422,408,394,378,367,337,327,319,299,270,163,113,83,68,64,62,62,62,66,70,73,74,74,74,74,75,76,77,78,78,78,71],"timestamp_mouse":[10,40,48,70,89,108,129,150,170,189,208,229,248,270,289,309,328,349,369,389,408,429,449,468,489,508,529,548,569,588,609,628,648,668,688,708,728,749,769,789,808,828,848,868,888,909,928,949,968,988,1011,1028,1049,1069,1088,1109,1128,1148,1169,1189,1210,1228,1248,1269,1290,1309,1328,1348,1368,1389,1409,1428,1449,1468,1489,1510,1528,1549,1569,1589,1608,1628],"xSR":741.5,"ySR":469.95,"xT1":424.9,"yT1":0,"xT2":1058.1,"yT2":0,"toosoon":0,"cond_shown":"Congruent","ratio_trial":100,"L_num":3,"L_den":20,"R_num":4,"R_den":16,"correct_side":2,"subjID":"Diegoalejandroarevalo9","gender":"0","school":"4","age":"10"},{"start_time":1552308304855,"click_time":1552308305807,"finger_time":1552308305206,"fix_duration":526.0860613474741,"trial":24,"RT":351,"MT":601,"sideResp":1,"stimulus":[],"xmouse":[786,786,786,786,786,786,786,786,786,786,786,786,786,786,786,784,781,761,747,737,729,724,711,702,690,680,666,666,666,666,664,662,639,582,556,487,454,427,424,423,422,420,417,416,416,417,421,428],"ymouse":[496,496,496,496,496,496,496,496,496,496,496,496,496,496,496,497,492,468,452,439,427,418,396,378,357,336,298,287,280,275,269,264,245,215,202,163,142,116,111,107,104,100,95,93,90,86,82,79],"timestamp_mouse":[12,37,52,72,92,113,133,152,172,192,212,233,252,271,291,312,332,351,371,393,412,431,451,472,492,512,533,551,572,591,611,632,652,672,692,712,731,751,771,792,811,831,851,871,892,911,931,952],"xSR":741.5,"ySR":469.95,"xT1":424.9,"yT1":0,"xT2":1058.1,"yT2":0,"toosoon":0,"cond_shown":"Incongruent","ratio_trial":300,"L_num":4,"L_den":20,"R_num":2,"R_den":4,"correct_side":2,"subjID":"Diegoalejandroarevalo9","gender":"0","school":"4","age":"10"},{"start_time":1552308308163,"click_time":1552308309567,"finger_time":1552308308727,"fix_duration":853.8914069459303,"trial":25,"RT":564,"MT":840,"sideResp":1,"stimulus":[],"xmouse":[762,762,767,768,769,771,771,771,771,771,771,771,771,771,771,771,771,771,771,771,771,771,771,771,776,785,805,836,843,843,843,843,844,848,852,857,862,868,870,871,871,871,871,871,871,871,871,871,871,871,871,871,871,871,871,871,871,871,858,831,772,685,528,502,499,504,522,564,570,550,508],"ymouse":[534,534,534,534,534,535,535,535,535,535,535,535,535,535,535,535,535,535,535,535,535,535,535,535,535,532,527,527,527,527,527,527,526,523,517,509,501,491,487,487,487,487,487,487,487,487,487,487,487,487,487,487,487,487,485,485,484,484,473,460,436,408,353,337,328,317,302,246,173,115,55],"timestamp_mouse":[9,23,43,63,84,104,123,144,163,183,204,224,243,263,285,303,324,343,363,384,404,424,443,464,483,504,524,543,564,583,603,624,643,663,683,703,724,743,765,784,803,823,844,863,884,905,923,944,964,983,1004,1023,1043,1063,1084,1104,1125,1143,1164,1183,1205,1225,1243,1263,1284,1304,1325,1344,1363,1383,1404],"xSR":741.5,"ySR":469.95,"xT1":424.9,"yT1":0,"xT2":1058.1,"yT2":0,"toosoon":0,"cond_shown":"Incongruent","ratio_trial":300,"L_num":4,"L_den":20,"R_num":2,"R_den":4,"correct_side":2,"subjID":"Diegoalejandroarevalo9","gender":"0","school":"4","age":"10"},{"start_time":1552308311219,"click_time":1552308312646,"finger_time":1552308312166,"fix_duration":572.6147287957772,"trial":26,"RT":947,"MT":480,"sideResp":2,"stimulus":[],"xmouse":[763,759,757,757,757,756,756,756,756,756,756,756,756,756,756,756,756,756,756,756,756,756,756,756,756,756,756,757,758,758,758,758,758,758,758,758,758,758,758,758,758,758,758,758,760,786,807,829,852,906,926,944,956,966,975,980,989,1003,1025,1058,1123,1147,1169,1174,1179,1177,1170,1165,1162,1161,1159,1153],"ymouse":[520,519,519,519,519,519,519,519,519,519,519,519,519,519,519,519,519,519,519,519,519,519,519,518,518,517,517,516,515,515,515,515,515,515,515,515,515,515,515,515,515,515,515,515,513,495,483,469,457,421,404,389,379,371,364,361,354,343,325,302,253,233,209,202,152,129,110,98,93,91,91,91],"timestamp_mouse":[12,27,53,69,88,108,128,147,167,188,208,227,248,268,287,308,328,348,368,388,408,427,447,468,487,508,527,548,567,588,607,627,647,668,687,707,728,748,768,788,807,827,848,868,887,908,927,947,968,989,1007,1028,1047,1068,1088,1108,1128,1148,1167,1187,1207,1229,1247,1267,1289,1308,1327,1349,1367,1387,1407,1427],"xSR":741.5,"ySR":469.95,"xT1":424.9,"yT1":0,"xT2":1058.1,"yT2":0,"toosoon":0,"cond_shown":"Congruent","ratio_trial":100,"L_num":11,"L_den":22,"R_num":6,"R_den":15,"correct_side":1,"subjID":"Diegoalejandroarevalo9","gender":"0","school":"4","age":"10"},{"start_time":1552308314398,"click_time":1552308315447,"finger_time":1552308314806,"fix_duration":250,"trial":27,"RT":408,"MT":641,"sideResp":1,"stimulus":[],"xmouse":[774,780,786,791,792,792,792,792,792,792,792,792,792,792,792,792,792,787,774,756,737,712,697,693,690,690,690,690,689,689,689,684,676,673,664,656,647,645,645,645,644,622,600,562,543,534,534,536,538,538,538,529,514],"ymouse":[519,520,521,522,522,522,522,522,522,522,522,522,522,522,522,522,522,519,512,503,491,468,457,453,451,451,451,451,451,450,443,424,406,399,376,358,317,295,269,242,212,137,95,49,31,21,21,21,22,22,22,24,24],"timestamp_mouse":[9,29,49,70,88,108,128,152,169,189,210,228,249,268,289,309,329,348,369,388,408,429,448,468,489,509,528,549,568,590,609,628,649,669,689,708,728,748,768,788,809,828,849,868,889,909,929,948,968,990,1009,1028,1049],"xSR":741.5,"ySR":469.95,"xT1":424.9,"yT1":0,"xT2":1058.1,"yT2":0,"toosoon":0,"cond_shown":"Incongruent","ratio_trial":100,"L_num":9,"L_den":10,"R_num":20,"R_den":25,"correct_side":1,"subjID":"Diegoalejandroarevalo9","gender":"0","school":"4","age":"10"},{"start_time":1552308318049,"click_time":1552308319447,"finger_time":1552308318926,"fix_duration":980.8614431827386,"trial":28,"RT":877,"MT":521,"sideResp":1,"stimulus":[],"xmouse":[802,802,802,802,801,800,800,800,800,800,800,800,796,792,789,786,785,783,782,782,782,782,782,782,782,782,782,782,782,782,782,782,781,780,779,777,776,773,766,762,760,757,752,730,706,673,641,613,583,578,578,578,578,578,578,578,578,578,578,578,578,578,578,575,567,553,529,504,481,443],"ymouse":[492,492,492,492,492,492,492,492,492,492,492,492,493,495,495,495,495,496,496,496,496,496,496,496,496,496,496,496,496,496,496,496,496,496,496,496,495,493,488,484,483,480,474,443,415,377,341,309,280,277,277,277,277,277,277,277,277,277,277,277,277,277,277,273,261,241,214,183,152,89],"timestamp_mouse":[17,41,58,77,97,118,137,157,177,198,217,238,257,278,297,318,337,359,377,398,418,439,457,478,498,517,538,557,577,597,617,638,658,678,697,718,738,757,777,798,817,838,857,877,897,918,938,957,978,997,1017,1037,1057,1078,1097,1119,1137,1158,1178,1198,1217,1237,1259,1278,1297,1318,1337,1357,1377,1398],"xSR":741.5,"ySR":469.95,"xT1":424.9,"yT1":0,"xT2":1058.1,"yT2":0,"toosoon":0,"cond_shown":"Incongruent","ratio_trial":200,"L_num":3,"L_den":10,"R_num":1,"R_den":2,"correct_side":2,"subjID":"Diegoalejandroarevalo9","gender":"0","school":"4","age":"10"},{"start_time":1552308324168,"click_time":1552308325547,"finger_time":1552308324786,"fix_duration":420.04288132333323,"trial":29,"RT":618,"MT":761,"sideResp":1,"stimulus":[],"xmouse":[779,779,779,779,779,779,779,779,779,779,779,779,779,779,779,779,779,779,779,779,779,779,779,779,779,779,779,779,779,777,769,752,735,709,704,701,699,696,667,643,599,575,560,557,557,557,557,557,557,557,556,553,548,547,545,543,541,538,535,529,529,529,529,529,529,529,528,528,524],"ymouse":[503,503,503,503,503,503,503,503,503,503,503,503,503,503,503,503,503,503,503,503,503,503,503,503,503,501,500,499,491,478,425,361,304,228,205,190,177,162,114,89,55,40,32,31,31,31,31,31,31,31,31,31,33,33,34,35,37,41,48,58,59,59,59,59,59,59,59,59,60],"timestamp_mouse":[24,47,58,78,98,119,139,158,180,198,218,238,259,279,300,320,339,358,380,399,419,438,459,479,498,520,538,559,578,598,618,639,659,678,698,719,738,758,778,798,818,839,858,879,899,918,939,958,979,998,1019,1040,1058,1078,1098,1118,1139,1158,1178,1200,1219,1238,1259,1278,1298,1318,1338,1359,1379],"xSR":741.5,"ySR":469.95,"xT1":424.9,"yT1":0,"xT2":1058.1,"yT2":0,"toosoon":0,"cond_shown":"Congruent","ratio_trial":300,"L_num":20,"L_den":25,"R_num":5,"R_den":10,"correct_side":1,"subjID":"Diegoalejandroarevalo9","gender":"0","school":"4","age":"10"},{"start_time":1552308335105,"click_time":1552308336886,"finger_time":1552308336666,"fix_duration":1036.894996070621,"trial":30,"RT":1561,"MT":220,"sideResp":1,"stimulus":[],"xmouse":[793,793,793,793,793,793,793,793,793,793,793,793,792,791,791,790,790,790,790,788,788,788,788,787,787,787,787,787,787,787,787,787,787,787,787,787,787,787,787,787,786,786,785,785,784,784,783,783,783,783,783,783,783,783,783,782,782,781,781,781,781,781,781,781,781,781,781,781,781,781,781,779,777,771,769,766,764,758,740,707,672,638,604,564,551,542,534,532,530,514],"ymouse":[499,499,499,499,499,499,499,499,499,499,499,499,499,499,499,499,498,498,498,498,498,498,498,498,498,498,498,498,498,498,498,498,498,498,498,498,498,498,498,498,498,498,498,498,498,498,498,498,498,498,498,498,498,498,498,498,498,498,498,498,498,498,498,498,498,498,498,498,498,498,498,497,495,489,486,483,480,473,457,426,381,332,288,230,212,195,176,159,144,96],"timestamp_mouse":[10,22,41,62,82,101,121,142,162,181,201,221,241,262,283,301,322,342,361,381,402,421,441,462,482,502,522,541,561,582,603,622,642,661,683,702,721,742,761,782,801,822,841,862,882,901,922,943,961,981,1001,1021,1042,1061,1082,1101,1122,1141,1161,1181,1202,1221,1242,1261,1281,1301,1321,1341,1361,1381,1401,1422,1441,1461,1481,1502,1521,1542,1561,1581,1601,1622,1642,1663,1681,1702,1721,1741,1762,1781],"xSR":741.5,"ySR":469.95,"xT1":424.9,"yT1":0,"xT2":1058.1,"yT2":0,"toosoon":0,"cond_shown":"Incongruent","ratio_trial":200,"L_num":7,"L_den":15,"R_num":6,"R_den":9,"correct_side":2,"subjID":"Diegoalejandroarevalo9","gender":"0","school":"4","age":"10"},{"start_time":1552308347477,"click_time":1552308348547,"finger_time":1552308348026,"fix_duration":250,"trial":31,"RT":549,"MT":521,"sideResp":1,"stimulus":[],"xmouse":[814,814,814,814,814,814,814,814,814,814,814,814,814,814,814,814,814,814,814,814,814,814,814,814,812,811,798,790,772,748,694,669,648,634,620,618,612,602,581,570,569,567,567,567,567,566,562,560,559,559,559,551,538,518],"ymouse":[539,539,539,539,539,539,539,539,539,539,539,539,539,539,539,539,539,539,539,539,539,539,539,539,535,525,484,457,414,369,296,269,247,235,222,217,182,143,101,83,82,81,85,85,85,85,87,88,88,88,88,81,74,63],"timestamp_mouse":[9,47,50,70,91,109,130,150,171,189,209,230,251,270,289,309,329,351,370,390,411,429,449,469,489,509,531,549,569,589,611,629,650,670,690,709,729,749,769,789,809,829,850,869,889,909,929,950,970,989,1009,1029,1050,1070],"xSR":741.5,"ySR":469.95,"xT1":424.9,"yT1":0,"xT2":1058.1,"yT2":0,"toosoon":0,"cond_shown":"Congruent","ratio_trial":300,"L_num":5,"L_den":25,"R_num":7,"R_den":14,"correct_side":2,"subjID":"Diegoalejandroarevalo9","gender":"0","school":"4","age":"10"},{"start_time":1552308352733,"click_time":1552308353968,"finger_time":1552308353546,"fix_duration":264.4930943394401,"trial":32,"RT":813,"MT":422,"sideResp":2,"stimulus":[],"xmouse":[824,824,824,824,824,824,825,826,826,826,826,826,826,825,823,823,822,822,822,822,822,822,822,822,822,822,822,822,822,822,822,821,821,821,821,820,820,820,820,833,850,880,927,974,1041,1078,1121,1174,1237,1240,1238,1233,1230,1229,1227,1226,1222,1217,1202,1174,1162,1150],"ymouse":[539,539,539,544,546,551,554,555,556,556,556,556,556,556,557,557,558,558,558,558,558,558,558,558,558,558,558,558,558,558,558,558,558,556,556,556,555,555,554,536,513,467,406,350,269,239,213,184,109,85,69,61,58,57,57,57,57,58,59,56,52,48],"timestamp_mouse":[15,44,53,73,94,113,134,154,173,194,214,233,253,274,294,314,334,354,373,394,414,435,454,474,494,514,533,554,574,594,613,634,653,674,693,714,733,754,773,793,813,834,853,874,893,913,933,955,974,994,1013,1034,1054,1074,1093,1114,1133,1155,1174,1195,1213,1235],"xSR":741.5,"ySR":469.95,"xT1":424.9,"yT1":0,"xT2":1058.1,"yT2":0,"toosoon":0,"cond_shown":"Congruent","ratio_trial":200,"L_num":6,"L_den":12,"R_num":7,"R_den":10,"correct_side":2,"subjID":"Diegoalejandroarevalo9","gender":"0","school":"4","age":"10"},{"start_time":1552308359709,"click_time":1552308360546,"finger_time":1552308360107,"fix_duration":1120.136725296669,"trial":33,"RT":398,"MT":439,"sideResp":1,"stimulus":[],"xmouse":[798,798,798,798,798,798,798,798,798,798,798,798,798,798,798,798,798,798,800,800,774,730,672,611,573,554,554,554,554,555,555,555,553,546,533,487,438,410,398,398,417,447],"ymouse":[517,517,517,517,517,517,517,517,517,517,517,517,517,517,517,517,513,496,472,439,333,265,209,172,157,152,152,152,152,152,152,152,152,149,143,126,114,108,105,104,97,88],"timestamp_mouse":[17,38,57,77,98,118,138,157,177,197,217,238,257,277,299,317,337,357,378,398,417,437,458,478,497,518,537,557,579,598,618,638,658,677,698,718,737,757,778,797,817,837],"xSR":741.5,"ySR":469.95,"xT1":424.9,"yT1":0,"xT2":1058.1,"yT2":0,"toosoon":0,"cond_shown":"Incongruent","ratio_trial":100,"L_num":3,"L_den":5,"R_num":11,"R_den":22,"correct_side":1,"subjID":"Diegoalejandroarevalo9","gender":"0","school":"4","age":"10"},{"start_time":1552308366129,"click_time":1552308366945,"finger_time":1552308366645,"fix_duration":600.0012135473598,"trial":34,"RT":516,"MT":300,"sideResp":2,"stimulus":[],"xmouse":[790,790,790,790,790,790,790,790,790,790,790,790,790,790,790,790,790,790,790,790,790,790,792,797,804,831,868,916,958,988,1017,1022,1023,1027,1032,1045,1052,1061,1072,1082,1102],"ymouse":[498,498,498,498,498,498,498,498,498,498,498,498,498,498,498,498,498,498,498,498,498,498,494,485,471,422,356,288,237,209,188,185,184,180,172,156,143,129,116,105,92],"timestamp_mouse":[18,38,57,76,97,118,137,158,177,197,216,238,256,276,298,317,337,357,376,398,417,437,457,478,496,516,536,557,577,597,616,637,657,676,697,717,736,757,777,797,816],"xSR":741.5,"ySR":469.95,"xT1":424.9,"yT1":0,"xT2":1058.1,"yT2":0,"toosoon":0,"cond_shown":"Incongruent","ratio_trial":100,"L_num":4,"L_den":8,"R_num":8,"R_den":20,"correct_side":1,"subjID":"Diegoalejandroarevalo9","gender":"0","school":"4","age":"10"},{"start_time":1552308381756,"click_time":1552308382468,"finger_time":1552308382367,"fix_duration":250,"trial":35,"RT":611,"MT":101,"sideResp":1,"stimulus":[],"xmouse":[783,783,783,784,785,786,786,786,786,786,786,786,786,785,782,780,779,779,779,779,779,779,779,779,779,779,779,779,779,776,765,746,704,653,557,460],"ymouse":[503,503,502,497,492,490,490,490,490,490,490,490,491,495,498,500,501,501,501,501,501,501,501,501,501,501,501,501,501,495,465,434,374,286,135,3],"timestamp_mouse":[9,38,50,69,90,109,129,149,169,190,211,229,249,269,290,309,330,350,370,390,409,431,449,469,489,509,530,550,570,589,611,629,650,670,690,711],"xSR":741.5,"ySR":469.95,"xT1":424.9,"yT1":0,"xT2":1058.1,"yT2":0,"toosoon":0,"cond_shown":"Congruent","ratio_trial":300,"L_num":11,"L_den":22,"R_num":2,"R_den":10,"correct_side":1,"subjID":"Diegoalejandroarevalo9","gender":"0","school":"4","age":"10"},{"start_time":1552308384373,"click_time":1552308385507,"finger_time":1552308384905,"fix_duration":287.12576015063763,"trial":36,"RT":532,"MT":602,"sideResp":1,"stimulus":[],"xmouse":[779,779,779,779,779,779,778,778,778,778,778,778,778,778,778,778,778,778,778,778,778,778,778,778,778,774,762,750,731,699,664,654,646,626,611,570,557,553,553,553,553,553,553,553,553,553,553,553,550,548,544,543,542,539,536,528,523],"ymouse":[517,517,517,517,517,517,516,516,516,516,516,516,516,516,516,516,516,516,516,516,516,516,514,511,506,484,461,434,372,301,242,222,206,179,155,88,53,24,1,1,1,1,1,1,1,1,1,1,0,1,5,6,9,13,16,26,30],"timestamp_mouse":[14,42,53,74,93,112,132,153,173,193,214,234,253,273,293,314,333,353,373,394,412,432,452,474,493,514,532,552,572,592,612,634,652,673,693,712,732,752,773,793,813,833,852,872,893,913,933,953,973,994,1015,1032,1052,1073,1092,1112,1134],"xSR":741.5,"ySR":469.95,"xT1":424.9,"yT1":0,"xT2":1058.1,"yT2":0,"toosoon":0,"cond_shown":"Congruent","ratio_trial":200,"L_num":15,"L_den":25,"R_num":4,"R_den":10,"correct_side":1,"subjID":"Diegoalejandroarevalo9","gender":"0","school":"4","age":"10"},{"start_time":1552308390689,"click_time":1552308391688,"finger_time":1552308391265,"fix_duration":1401.6847372376026,"trial":37,"RT":576,"MT":423,"sideResp":2,"stimulus":[],"xmouse":[797,797,797,797,797,797,797,797,797,797,797,797,797,797,797,797,797,797,797,798,800,801,801,803,807,813,826,846,897,926,955,1003,1049,1111,1217,1251,1263,1264,1249,1238,1232,1231,1231,1231,1227,1222,1212,1194,1157],"ymouse":[517,517,517,517,517,517,517,517,517,517,517,517,517,517,517,517,517,517,517,517,517,517,516,514,506,499,489,480,459,444,420,359,276,169,92,86,86,86,102,111,115,116,116,116,111,102,94,84,65],"timestamp_mouse":[37,57,77,98,116,137,156,178,197,218,238,258,277,296,316,338,358,376,396,418,438,456,477,496,519,536,557,576,598,616,636,657,676,696,717,736,757,777,799,817,837,857,876,897,916,936,958,977,999],"xSR":741.5,"ySR":469.95,"xT1":424.9,"yT1":0,"xT2":1058.1,"yT2":0,"toosoon":0,"cond_shown":"Incongruent","ratio_trial":200,"L_num":1,"L_den":2,"R_num":3,"R_den":10,"correct_side":1,"subjID":"Diegoalejandroarevalo9","gender":"0","school":"4","age":"10"},{"start_time":1552308401528,"click_time":1552308402626,"finger_time":1552308402067,"fix_duration":540.9906561142252,"trial":38,"RT":539,"MT":559,"sideResp":1,"stimulus":[],"xmouse":[780,780,780,780,780,780,780,780,780,780,780,780,780,780,780,780,780,780,780,780,780,780,780,780,781,781,776,765,733,650,615,588,571,562,560,560,560,560,560,560,559,558,557,555,552,551,550,549,548,548,548,547,541,532,505],"ymouse":[536,536,536,536,536,536,536,536,536,536,536,536,536,536,536,536,536,536,536,536,536,536,536,534,518,486,458,418,350,249,218,195,179,167,161,160,159,159,159,158,157,154,150,144,136,132,129,124,117,95,85,74,67,58,47],"timestamp_mouse":[29,38,58,78,97,119,138,158,178,198,218,237,257,277,298,317,338,357,379,398,417,439,457,478,497,519,539,557,577,597,617,638,658,679,697,718,738,758,777,797,817,838,858,878,897,918,937,958,978,998,1017,1038,1058,1078,1098],"xSR":741.5,"ySR":469.95,"xT1":424.9,"yT1":0,"xT2":1058.1,"yT2":0,"toosoon":0,"cond_shown":"Incongruent","ratio_trial":200,"L_num":14,"L_den":30,"R_num":12,"R_den":18,"correct_side":2,"subjID":"Diegoalejandroarevalo9","gender":"0","school":"4","age":"10"},{"start_time":1552308405519,"click_time":1552308406528,"finger_time":1552308405985,"fix_duration":831.228651693621,"trial":39,"RT":466,"MT":543,"sideResp":2,"stimulus":[],"xmouse":[840,840,840,840,840,840,840,840,840,840,840,840,840,840,840,840,840,840,840,840,840,840,841,843,856,884,899,913,924,936,958,971,986,1002,1024,1057,1065,1070,1072,1072,1059,1052,1049,1048,1048,1048,1051,1066,1087,1112,1156],"ymouse":[512,512,512,512,512,512,512,512,512,512,512,512,512,512,512,512,512,512,512,512,512,512,512,510,496,468,446,428,408,387,350,333,317,303,291,268,260,250,235,218,181,169,163,162,162,159,154,143,128,106,34],"timestamp_mouse":[10,36,46,68,88,107,126,147,168,188,206,227,248,267,287,307,327,347,366,386,407,427,447,466,487,507,526,546,566,586,607,627,647,667,686,708,726,746,767,786,807,826,847,867,886,907,926,946,968,987,1009],"xSR":741.5,"ySR":469.95,"xT1":424.9,"yT1":0,"xT2":1058.1,"yT2":0,"toosoon":0,"cond_shown":"Incongruent","ratio_trial":100,"L_num":12,"L_den":30,"R_num":2,"R_den":4,"correct_side":2,"subjID":"Diegoalejandroarevalo9","gender":"0","school":"4","age":"10"},{"start_time":1552308408517,"click_time":1552308410246,"finger_time":1552308408926,"fix_duration":250,"trial":40,"RT":409,"MT":1320,"sideResp":1,"stimulus":[],"xmouse":[811,810,810,810,810,810,810,810,810,810,810,810,810,810,810,810,810,810,814,826,845,895,916,932,943,944,944,944,944,945,946,947,949,950,950,950,949,944,934,911,829,778,731,693,620,555,429,382,337,309,279,279,279,279,279,279,279,279,279,279,279,279,279,279,279,279,279,279,279,279,279,279,279,279,279,279,279,279,279,362,371,387,398,403,409,419,429],"ymouse":[497,498,498,498,498,498,498,498,498,498,498,498,498,498,498,498,498,494,489,474,452,423,415,411,410,410,410,410,410,410,410,409,407,405,405,405,404,406,409,410,404,391,378,367,337,311,248,201,147,92,9,9,9,9,9,9,9,9,9,9,9,9,9,9,9,9,9,9,9,9,9,9,9,9,9,9,9,9,9,0,8,23,31,32,32,24,8],"timestamp_mouse":[8,44,48,70,88,109,128,150,168,190,209,229,249,268,289,310,329,348,369,389,409,428,448,468,490,509,529,550,569,589,610,629,649,668,689,708,728,748,769,789,811,828,849,868,889,908,929,948,969,989,1009,1028,1050,1069,1089,1110,1129,1152,1169,1189,1209,1229,1250,1270,1289,1310,1329,1350,1370,1388,1409,1428,1448,1468,1489,1508,1529,1548,1569,1588,1608,1629,1649,1670,1689,1710,1728],"xSR":741.5,"ySR":469.95,"xT1":424.9,"yT1":0,"xT2":1058.1,"yT2":0,"toosoon":0,"cond_shown":"Incongruent","ratio_trial":300,"L_num":1,"L_den":2,"R_num":3,"R_den":15,"correct_side":1,"subjID":"Diegoalejandroarevalo9","gender":"0","school":"4","age":"10"},{"start_time":1552308413064,"click_time":1552308414465,"finger_time":1552308413525,"fix_duration":1077.7432506240611,"trial":41,"RT":461,"MT":940,"sideResp":2,"stimulus":[],"xmouse":[787,787,787,787,787,787,787,786,785,783,782,781,781,781,781,781,781,781,781,781,783,783,785,785,783,782,780,780,779,778,778,777,777,776,775,774,774,774,774,774,774,774,774,774,774,800,843,913,981,1030,1059,1055,1039,1020,1005,980,976,971,968,968,969,971,979,986,1003,1018,1030,1044,1060,1078,1101],"ymouse":[473,473,473,473,473,473,473,474,474,475,476,477,479,480,481,481,481,481,481,482,481,477,474,466,451,440,430,424,418,416,416,415,415,415,416,417,417,417,417,417,417,417,417,417,417,416,416,408,385,352,267,226,197,172,156,148,148,152,156,156,156,153,144,134,123,119,116,112,108,101,91],"timestamp_mouse":[9,22,41,63,82,102,121,141,161,182,201,221,242,263,282,302,322,341,361,382,401,421,441,461,483,502,521,541,561,582,602,621,641,661,681,701,721,741,761,783,802,821,842,861,881,901,922,943,962,982,1001,1023,1042,1062,1082,1102,1122,1142,1162,1182,1201,1222,1242,1262,1282,1301,1321,1343,1362,1382,1401],"xSR":741.5,"ySR":469.95,"xT1":424.9,"yT1":0,"xT2":1058.1,"yT2":0,"toosoon":0,"cond_shown":"Incongruent","ratio_trial":100,"L_num":9,"L_den":18,"R_num":6,"R_den":10,"correct_side":2,"subjID":"Diegoalejandroarevalo9","gender":"0","school":"4","age":"10"},{"start_time":1552308416850,"click_time":1552308419207,"finger_time":1552308417085,"fix_duration":1222.3563690625886,"trial":42,"RT":235,"MT":2122,"sideResp":2,"stimulus":[],"xmouse":[825,827,827,827,827,827,827,828,830,833,841,842,842,842,842,842,842,842,842,842,842,842,842,842,845,852,856,859,861,863,863,863,863,863,863,863,863,863,863,863,863,863,863,863,850,838,824,810,798,788,787,787,787,787,787,787,787,787,787,787,787,787,787,787,787,787,787,787,787,787,787,787,787,787,787,787,787,793,804,820,857,885,897,934,952,974,978,981,981,981,981,981,981,981,981,981,981,983,984,986,992,999,1017,1031,1039,1042,1042,1042,1042,1042,1042,1042,1042,1042,1050,1068,1077,1089],"ymouse":[533,532,532,532,532,532,532,531,529,525,515,514,514,514,514,514,514,514,514,514,514,514,514,514,507,494,487,483,481,479,478,478,478,478,478,478,478,478,478,478,478,478,478,478,483,490,498,506,515,522,523,523,523,523,523,523,523,523,523,523,523,523,523,523,523,523,523,523,523,523,523,523,523,523,523,523,523,516,504,485,432,394,377,335,313,271,253,237,221,209,198,197,197,197,197,197,197,195,195,193,186,181,168,160,154,152,152,152,152,152,152,152,151,149,140,113,102,88],"timestamp_mouse":[25,50,55,75,95,117,135,156,176,196,215,235,256,276,295,315,337,357,376,396,415,436,455,475,495,516,535,556,576,596,615,636,655,677,696,716,736,756,776,796,815,837,855,875,897,915,937,956,975,997,1016,1035,1055,1076,1097,1116,1136,1156,1177,1195,1217,1235,1256,1275,1297,1317,1337,1357,1376,1397,1416,1436,1456,1476,1496,1515,1535,1556,1576,1595,1615,1636,1656,1676,1695,1715,1735,1757,1776,1797,1816,1836,1855,1875,1896,1916,1935,1955,1976,1996,2015,2035,2055,2076,2095,2116,2136,2156,2177,2196,2216,2236,2255,2276,2295,2315,2335,2357],"xSR":741.5,"ySR":469.95,"xT1":424.9,"yT1":0,"xT2":1058.1,"yT2":0,"toosoon":0,"cond_shown":"Incongruent","ratio_trial":300,"L_num":13,"L_den":26,"R_num":12,"R_den":15,"correct_side":2,"subjID":"Diegoalejandroarevalo9","gender":"0","school":"4","age":"10"},{"start_time":1552308421412,"click_time":1552308422285,"finger_time":1552308421945,"fix_duration":546.7111279054668,"trial":43,"RT":533,"MT":340,"sideResp":2,"stimulus":[],"xmouse":[773,773,773,773,773,773,773,773,773,773,773,773,771,767,764,762,762,761,761,761,761,763,770,788,803,822,842,882,906,928,956,985,1020,1102,1121,1129,1131,1131,1131,1131,1131,1131,1131,1129],"ymouse":[524,524,524,524,524,524,524,524,524,524,524,524,526,531,536,538,539,539,539,539,539,539,534,523,514,502,487,450,424,398,366,331,288,191,163,146,135,129,129,129,129,126,106,98],"timestamp_mouse":[21,39,53,73,93,113,134,153,173,193,213,234,253,274,292,314,334,353,373,394,414,433,453,474,492,513,533,554,573,593,613,633,653,674,692,714,733,753,772,793,813,834,854,872],"xSR":741.5,"ySR":469.95,"xT1":424.9,"yT1":0,"xT2":1058.1,"yT2":0,"toosoon":0,"cond_shown":"Incongruent","ratio_trial":200,"L_num":3,"L_den":10,"R_num":1,"R_den":2,"correct_side":2,"subjID":"Diegoalejandroarevalo9","gender":"0","school":"4","age":"10"},{"start_time":1552308424320,"click_time":1552308425865,"finger_time":1552308425286,"fix_duration":274.8719997908031,"trial":44,"RT":966,"MT":579,"sideResp":1,"stimulus":[],"xmouse":[768,770,770,770,770,770,771,771,771,771,771,771,772,772,773,773,773,773,774,774,774,774,774,774,774,775,776,776,777,777,778,778,778,778,778,778,778,778,778,778,778,778,778,778,778,778,778,774,736,694,635,573,509,405,367,316,316,316,316,316,316,316,316,316,316,316,316,316,316,332,343,367,394,441,452,455,456,456],"ymouse":[529,528,528,528,528,528,527,527,527,527,527,526,526,525,525,525,525,525,524,524,524,524,523,521,520,518,514,511,507,506,503,503,503,503,503,503,503,503,503,503,503,503,503,503,503,502,501,494,451,407,357,304,251,146,91,15,15,15,15,15,15,15,15,15,15,15,15,15,15,7,17,43,68,106,108,108,100,85],"timestamp_mouse":[5,34,46,65,85,106,126,146,166,186,204,225,246,266,286,306,325,346,365,385,405,426,445,465,485,505,525,545,566,585,605,625,644,665,686,706,726,746,765,786,806,825,845,864,886,905,926,945,966,985,1005,1025,1047,1064,1085,1105,1126,1146,1166,1185,1205,1225,1245,1266,1284,1305,1325,1346,1365,1385,1405,1426,1445,1465,1486,1506,1525,1545],"xSR":741.5,"ySR":469.95,"xT1":424.9,"yT1":0,"xT2":1058.1,"yT2":0,"toosoon":0,"cond_shown":"Congruent","ratio_trial":200,"L_num":6,"L_den":12,"R_num":7,"R_den":10,"correct_side":2,"subjID":"Diegoalejandroarevalo9","gender":"0","school":"4","age":"10"},{"start_time":1552308427991,"click_time":1552308429345,"finger_time":1552308428845,"fix_duration":285.6418959071377,"trial":45,"RT":854,"MT":500,"sideResp":1,"stimulus":[],"xmouse":[776,776,776,776,773,772,771,770,769,766,765,764,764,764,764,764,765,766,771,778,782,785,786,786,786,786,786,786,786,786,786,786,786,786,786,785,782,779,774,768,764,763,763,761,748,737,725,712,700,660,648,637,626,613,581,573,572,572,572,572,572,571,571,571,565,549,531,508],"ymouse":[483,483,483,482,484,487,490,492,495,503,506,508,508,508,508,508,508,507,505,503,502,502,502,502,502,502,502,502,502,502,502,502,502,502,502,502,502,502,502,501,492,475,455,431,374,339,310,282,257,195,173,154,137,121,105,104,104,104,104,104,104,104,104,104,104,98,87,72],"timestamp_mouse":[14,45,55,74,94,113,134,154,175,194,215,235,254,274,295,313,335,354,374,394,415,433,454,474,494,515,534,554,573,595,615,634,655,674,695,713,735,754,774,794,815,833,854,874,894,913,934,954,974,994,1015,1034,1054,1074,1094,1113,1135,1155,1174,1194,1214,1234,1254,1274,1294,1313,1334,1354],"xSR":741.5,"ySR":469.95,"xT1":424.9,"yT1":0,"xT2":1058.1,"yT2":0,"toosoon":0,"cond_shown":"Incongruent","ratio_trial":300,"L_num":2,"L_den":4,"R_num":6,"R_den":30,"correct_side":1,"subjID":"Diegoalejandroarevalo9","gender":"0","school":"4","age":"10"},{"start_time":1552308430931,"click_time":1552308433005,"finger_time":1552308431385,"fix_duration":305.8306871006169,"trial":46,"RT":454,"MT":1620,"sideResp":2,"stimulus":[],"xmouse":[816,816,816,816,816,816,816,816,816,816,816,815,815,815,815,815,815,814,814,812,810,808,806,800,797,791,786,759,741,727,722,720,720,720,719,718,717,717,717,717,717,717,717,720,720,721,722,722,723,723,723,724,725,727,727,727,727,729,731,735,738,741,746,752,759,768,783,801,834,847,857,871,888,893,899,902,903,905,905,906,907,910,914,942,961,978,999,1018,1051,1065,1075,1084,1099,1102,1102,1102,1102,1102,1100,1098,1097,1094,1087,1083],"ymouse":[484,483,482,482,482,482,482,482,482,482,482,482,482,482,482,482,481,478,476,474,472,470,468,459,454,445,436,413,404,398,396,396,396,396,396,397,400,401,401,401,401,401,402,407,412,419,426,441,447,452,456,460,462,465,466,466,468,475,479,484,489,492,498,502,503,503,504,504,492,480,466,439,406,391,374,358,341,312,298,287,280,274,269,251,246,242,235,226,204,191,179,167,150,147,145,144,143,142,140,139,137,131,107,94],"timestamp_mouse":[14,34,54,75,95,113,134,154,174,194,214,235,254,274,295,315,334,354,373,394,414,435,454,475,494,514,534,554,574,594,615,635,654,675,693,714,733,755,775,795,815,833,854,875,894,914,934,955,974,994,1014,1034,1053,1074,1094,1114,1134,1155,1174,1194,1213,1235,1254,1275,1294,1314,1334,1354,1373,1394,1414,1434,1455,1474,1494,1514,1534,1555,1574,1594,1614,1634,1653,1675,1694,1714,1733,1755,1774,1794,1815,1834,1855,1875,1894,1914,1934,1954,1975,1994,2013,2034,2055,2073],"xSR":741.5,"ySR":469.95,"xT1":424.9,"yT1":0,"xT2":1058.1,"yT2":0,"toosoon":0,"cond_shown":"Incongruent","ratio_trial":200,"L_num":3,"L_den":10,"R_num":1,"R_den":2,"correct_side":2,"subjID":"Diegoalejandroarevalo9","gender":"0","school":"4","age":"10"},{"start_time":1552308436906,"click_time":1552308440606,"finger_time":1552308438265,"fix_duration":1079.8901739329506,"trial":47,"RT":1359,"MT":2341,"sideResp":2,"stimulus":[],"xmouse":[793,793,793,793,793,793,793,793,793,794,794,794,794,795,795,795,795,796,796,796,796,796,796,796,796,796,796,796,796,796,796,796,796,796,796,796,796,796,797,798,800,802,803,804,804,804,804,804,804,804,804,804,804,805,806,807,807,807,807,807,808,809,811,823,831,838,846,851,856,856,856,856,856,856,856,856,856,856,856,857,854,850,848,846,845,845,845,845,845,845,845,845,845,845,845,845,845,845,845,847,848,852,857,867,871,873,873,873,873,873,873,874,874,876,877,877,877,877,877,878,879,879,880,880,880,880,880,880,880,880,880,880,879,879,878,878,878,878,875,873,871,870,869,869,869,869,867,864,859,859,859,859,858,855,852,852,850,850,850,847,843,841,838,837,837,837,837,837,835,835,832,830,828,829,848,862,878,899,934,994,1030,1057,1076,1080],"ymouse":[555,555,555,555,555,555,555,555,555,555,555,555,555,555,555,555,555,554,554,554,554,554,554,554,554,554,554,554,554,554,554,554,554,554,554,554,554,554,553,553,552,552,551,550,550,550,550,550,550,550,550,550,550,550,550,549,549,549,549,549,549,548,547,539,534,527,521,518,514,514,514,514,514,514,514,514,514,514,514,518,529,536,543,548,549,549,549,549,549,549,549,549,549,549,549,549,549,549,549,549,549,549,549,547,546,546,546,546,546,546,546,546,546,546,546,546,546,546,546,546,546,546,546,545,545,545,545,545,545,545,545,545,546,547,547,548,548,548,548,548,550,551,551,551,551,552,552,554,556,556,556,556,556,554,553,552,551,551,551,551,551,551,551,551,551,550,549,548,539,530,518,500,480,460,417,397,377,358,328,269,228,185,144,87],"timestamp_mouse":[39,58,80,99,119,140,159,179,199,219,240,259,279,299,319,339,359,379,400,420,440,459,479,498,519,539,559,579,599,618,639,660,680,699,719,740,759,780,799,820,839,859,879,899,919,938,959,980,999,1020,1040,1060,1078,1101,1118,1140,1160,1179,1198,1218,1240,1259,1279,1299,1318,1340,1359,1380,1399,1420,1439,1459,1481,1500,1519,1540,1559,1578,1599,1619,1638,1659,1679,1699,1720,1739,1760,1780,1800,1819,1839,1859,1880,1900,1919,1940,1960,1979,1999,2019,2039,2059,2079,2099,2118,2139,2160,2180,2200,2218,2240,2259,2279,2299,2320,2339,2359,2379,2399,2419,2439,2460,2480,2500,2519,2540,2559,2579,2600,2620,2640,2660,2679,2700,2720,2739,2759,2779,2800,2820,2839,2859,2878,2900,2920,2939,2959,2980,3000,3020,3039,3059,3079,3100,3119,3139,3159,3179,3199,3220,3239,3260,3280,3300,3320,3339,3359,3380,3399,3419,3439,3460,3479,3499,3519,3539,3560,3579,3599,3620,3639,3659,3679,3699],"xSR":741.5,"ySR":469.95,"xT1":424.9,"yT1":0,"xT2":1058.1,"yT2":0,"toosoon":0,"cond_shown":"Congruent","ratio_trial":300,"L_num":11,"L_den":22,"R_num":2,"R_den":10,"correct_side":1,"subjID":"Diegoalejandroarevalo9","gender":"0","school":"4","age":"10"},{"start_time":1552308443397,"click_time":1552308444705,"finger_time":1552308444265,"fix_duration":1168.172904843054,"trial":48,"RT":868,"MT":440,"sideResp":2,"stimulus":[],"xmouse":[786,786,786,786,786,786,786,786,786,786,786,786,786,786,786,786,786,786,786,786,786,786,786,786,786,786,786,786,786,786,786,786,786,786,786,786,786,786,786,786,789,810,826,851,868,880,899,906,916,928,961,981,1005,1012,1020,1022,1022,1020,1020,1020,1020,1029,1050,1088,1107,1114],"ymouse":[526,526,526,526,526,526,526,526,526,526,526,526,526,526,526,526,526,526,526,526,526,526,526,526,526,526,526,526,526,526,526,526,526,526,526,526,526,526,526,525,523,508,496,476,462,443,399,377,355,334,294,277,254,246,221,203,173,167,165,165,165,158,150,128,112,95],"timestamp_mouse":[12,39,48,69,88,108,129,149,169,189,209,227,247,269,289,308,327,348,369,389,408,429,448,469,488,509,528,548,569,588,609,628,648,669,688,709,729,748,768,789,809,828,849,868,888,909,928,947,968,988,1012,1029,1048,1068,1088,1109,1128,1149,1168,1188,1208,1228,1248,1268,1289,1308],"xSR":741.5,"ySR":469.95,"xT1":424.9,"yT1":0,"xT2":1058.1,"yT2":0,"toosoon":0,"cond_shown":"Incongruent","ratio_trial":200,"L_num":7,"L_den":15,"R_num":6,"R_den":9,"correct_side":2,"subjID":"Diegoalejandroarevalo9","gender":"0","school":"4","age":"10"},{"start_time":1552308446925,"click_time":1552308449086,"finger_time":1552308448325,"fix_duration":1177.64384481257,"trial":49,"RT":1400,"MT":761,"sideResp":2,"stimulus":[],"xmouse":[791,791,790,790,790,790,790,790,790,790,790,790,790,790,790,790,790,790,790,792,793,793,793,793,793,793,793,793,793,793,793,793,793,793,793,793,793,793,793,793,793,793,794,796,799,803,804,804,804,804,804,804,804,804,804,804,804,804,804,804,804,804,804,805,807,811,813,817,823,828,832,832,832,832,832,832,832,831,827,819,777,735,686,638,601,578,567,567,567,578,676,763,859,959,1034,1150,1164,1169,1170,1170,1161,1154,1150,1148,1148,1144,1135,1122,1104],"ymouse":[504,504,504,504,504,504,504,503,502,502,502,502,502,502,502,502,502,502,502,502,502,502,502,502,502,502,502,502,502,502,502,502,502,502,502,502,502,502,502,502,502,502,501,498,495,492,492,492,492,492,492,492,492,492,492,492,492,492,492,492,492,492,492,491,489,481,479,475,472,470,469,469,469,469,469,469,469,469,469,457,374,309,243,194,162,149,149,153,155,156,154,155,172,185,194,206,204,201,195,190,182,179,178,176,176,153,133,112,91],"timestamp_mouse":[10,20,49,61,80,101,121,141,161,181,199,221,241,261,279,300,320,340,360,381,400,419,440,459,480,500,520,540,560,580,600,621,641,660,680,701,721,741,760,780,800,821,840,860,880,900,921,940,960,981,1001,1020,1040,1060,1081,1101,1121,1140,1161,1180,1200,1221,1240,1260,1280,1300,1320,1340,1361,1380,1400,1420,1440,1461,1481,1501,1521,1540,1560,1580,1600,1620,1640,1660,1681,1700,1720,1740,1761,1780,1801,1819,1840,1860,1881,1901,1920,1940,1960,1981,2001,2020,2040,2061,2080,2101,2120,2140,2161],"xSR":741.5,"ySR":469.95,"xT1":424.9,"yT1":0,"xT2":1058.1,"yT2":0,"toosoon":0,"cond_shown":"Congruent","ratio_trial":100,"L_num":3,"L_den":6,"R_num":2,"R_den":5,"correct_side":1,"subjID":"Diegoalejandroarevalo9","gender":"0","school":"4","age":"10"},{"start_time":1552308453058,"click_time":1552308454465,"finger_time":1552308454045,"fix_duration":250,"trial":50,"RT":987,"MT":420,"sideResp":1,"stimulus":[],"xmouse":[799,799,799,799,799,799,799,799,799,799,799,799,799,799,799,799,799,799,799,799,799,799,799,799,799,799,799,799,799,799,799,799,799,799,799,799,799,799,799,799,799,799,798,796,794,790,778,770,764,752,746,742,738,734,725,713,707,703,699,688,682,674,666,660,640,627,604,584,558,523,517],"ymouse":[513,513,513,513,513,513,513,513,513,513,513,513,513,513,513,513,513,513,513,513,513,513,513,513,513,513,513,513,513,513,513,513,513,513,513,513,513,513,513,513,513,513,514,514,514,514,507,492,477,452,443,437,432,429,421,412,407,402,393,365,348,331,317,305,277,260,226,196,160,105,88],"timestamp_mouse":[9,40,47,67,88,108,128,147,167,188,208,227,247,268,288,307,328,348,367,388,408,427,447,467,488,507,528,548,567,588,607,628,648,667,686,707,728,748,767,788,808,827,848,867,887,908,927,949,967,987,1007,1027,1047,1067,1087,1106,1127,1147,1167,1187,1206,1228,1248,1267,1287,1308,1327,1348,1367,1388,1407],"xSR":741.5,"ySR":469.95,"xT1":424.9,"yT1":0,"xT2":1058.1,"yT2":0,"toosoon":0,"cond_shown":"Congruent","ratio_trial":200,"L_num":14,"L_den":28,"R_num":6,"R_den":20,"correct_side":1,"subjID":"Diegoalejandroarevalo9","gender":"0","school":"4","age":"10"},{"start_time":1552308459694,"click_time":1552308461065,"finger_time":1552308460565,"fix_duration":1146.8344717841887,"trial":51,"RT":871,"MT":500,"sideResp":2,"stimulus":[],"xmouse":[794,794,794,794,794,794,794,794,794,794,794,794,794,794,794,794,794,794,794,794,794,794,794,796,798,800,801,802,802,802,802,802,802,802,802,802,802,802,802,803,804,816,828,855,864,871,877,883,887,893,900,911,916,922,925,927,929,929,937,947,951,959,977,1004,1016,1031,1041,1055,1059],"ymouse":[507,507,507,507,507,507,507,507,507,507,507,507,507,507,507,507,507,507,507,507,507,507,506,502,499,495,493,492,491,491,491,491,491,491,491,491,491,491,491,491,490,484,477,456,441,424,406,373,360,350,341,331,324,306,287,263,236,210,164,138,132,122,110,100,96,91,85,67,62],"timestamp_mouse":[14,34,52,71,91,112,131,151,171,192,212,231,252,272,292,312,331,352,372,390,411,432,452,472,490,512,531,551,571,591,611,631,652,672,691,711,731,751,772,791,811,832,851,871,891,911,931,952,971,991,1011,1030,1053,1071,1091,1112,1132,1152,1170,1190,1212,1231,1252,1272,1290,1311,1331,1354,1371],"xSR":741.5,"ySR":469.95,"xT1":424.9,"yT1":0,"xT2":1058.1,"yT2":0,"toosoon":0,"cond_shown":"Incongruent","ratio_trial":200,"L_num":14,"L_den":30,"R_num":12,"R_den":18,"correct_side":2,"subjID":"Diegoalejandroarevalo9","gender":"0","school":"4","age":"10"},{"start_time":1552308463284,"click_time":1552308464447,"finger_time":1552308464025,"fix_duration":797.6642121163516,"trial":52,"RT":741,"MT":422,"sideResp":2,"stimulus":[],"xmouse":[789,789,789,789,789,789,789,789,789,789,789,789,789,789,789,789,789,789,789,789,789,790,791,792,792,793,793,793,793,793,793,793,793,793,796,805,821,842,871,920,938,943,947,950,954,957,963,972,985,1004,1008,1008,1007,1007,1016,1027,1041,1057,1067],"ymouse":[516,516,516,516,516,516,516,516,516,516,516,516,516,516,516,516,516,516,516,516,516,516,515,515,514,514,514,514,514,514,514,514,514,514,511,504,492,474,454,420,398,385,374,363,338,321,300,276,244,187,163,136,121,111,92,85,77,71,66],"timestamp_mouse":[9,35,42,62,81,101,121,142,161,181,201,222,242,261,282,301,322,341,362,382,401,421,441,461,481,501,522,541,562,582,601,622,642,662,681,701,722,741,761,781,801,821,841,861,882,900,921,942,962,982,1001,1021,1041,1061,1080,1101,1122,1142,1162],"xSR":741.5,"ySR":469.95,"xT1":424.9,"yT1":0,"xT2":1058.1,"yT2":0,"toosoon":0,"cond_shown":"Congruent","ratio_trial":100,"L_num":3,"L_den":20,"R_num":4,"R_den":16,"correct_side":2,"subjID":"Diegoalejandroarevalo9","gender":"0","school":"4","age":"10"},{"start_time":1552308467890,"click_time":1552308469425,"finger_time":1552308468945,"fix_duration":823.1601981774504,"trial":53,"RT":1055,"MT":480,"sideResp":1,"stimulus":[],"xmouse":[777,777,784,786,786,786,786,786,786,786,786,786,786,786,784,784,784,784,784,784,784,784,784,784,784,784,784,783,783,784,784,784,785,785,785,785,785,785,785,785,785,785,785,785,785,785,785,785,785,779,771,757,744,731,709,698,683,667,632,629,629,635,644,667,675,677,677,654,601,575,557,548,545,540,531,527,521],"ymouse":[523,523,521,521,521,521,521,521,521,521,521,521,521,522,523,524,524,524,524,524,524,524,524,524,524,524,524,524,523,523,523,523,522,522,522,522,522,522,522,522,522,522,522,522,522,522,522,522,520,510,498,483,468,450,407,384,362,342,303,294,286,273,260,226,207,185,164,133,102,93,88,88,88,88,89,91,92],"timestamp_mouse":[31,35,56,75,95,116,135,156,176,195,216,235,256,275,295,315,336,356,375,396,416,436,455,476,496,515,534,555,576,596,616,635,655,675,696,715,734,756,774,796,816,836,856,876,895,916,935,955,975,994,1016,1035,1055,1075,1095,1115,1134,1155,1177,1195,1216,1235,1255,1276,1295,1316,1335,1356,1377,1394,1415,1436,1456,1476,1495,1516,1535],"xSR":741.5,"ySR":469.95,"xT1":424.9,"yT1":0,"xT2":1058.1,"yT2":0,"toosoon":0,"cond_shown":"Congruent","ratio_trial":100,"L_num":10,"L_den":25,"R_num":3,"R_den":10,"correct_side":1,"subjID":"Diegoalejandroarevalo9","gender":"0","school":"4","age":"10"},{"start_time":1552308471749,"click_time":1552308483545,"finger_time":1552308483244,"fix_duration":263.07515003667856,"trial":54,"RT":11495,"MT":301,"sideResp":2,"stimulus":[],"xmouse":[815,815,815,815,815,815,815,814,814,814,814,814,814,815,815,815,815,815,815,815,815,815,815,815,815,815,815,815,815,814,814,822,824,824,824,824,824,824,824,824,824,824,824,824,824,824,824,824,824,824,824,824,824,824,824,824,824,824,824,824,824,824,824,824,824,824,824,824,824,824,824,825,825,825,825,825,825,825,825,825,825,825,825,825,825,825,825,825,825,825,825,825,825,825,825,825,825,825,825,825,825,825,825,825,825,825,825,825,825,825,825,825,825,825,825,825,825,825,825,825,825,825,825,825,825,825,825,825,825,825,825,825,825,825,825,825,825,825,825,825,825,825,825,825,825,825,825,825,825,825,825,825,825,825,825,825,825,825,825,825,825,825,825,825,825,827,829,824,817,809,805,803,803,803,803,803,803,803,803,803,803,803,803,803,803,803,803,803,803,803,803,803,803,803,803,803,803,803,803,803,803,803,803,803,803,803,803,803,803,803,803,802,800,798,797,797,797,797,797,797,798,800,800,800,800,800,800,800,800,800,800,800,800,800,800,800,799,799,799,799,799,799,799,799,799,799,799,799,799,799,799,799,799,799,799,799,799,800,800,800,800,800,800,800,800,800,800,800,800,800,800,801,802,804,807,807,809,809,809,809,809,809,804,803,803,803,803,803,805,807,809,810,813,813,813,813,814,814,814,814,814,814,814,814,814,814,814,814,814,814,814,814,814,814,814,814,814,814,814,814,814,814,814,814,814,814,814,814,814,814,814,814,814,814,814,814,814,814,814,814,814,814,814,814,814,814,814,813,813,813,813,813,813,813,813,813,813,813,813,813,813,813,813,813,813,813,813,813,813,813,813,813,813,813,813,813,813,813,813,813,813,813,813,813,813,813,813,813,813,813,813,813,817,819,819,819,819,819,819,819,819,819,819,819,819,819,819,819,819,819,819,819,819,819,819,819,819,819,819,819,819,819,819,819,819,819,819,819,819,819,819,819,819,819,819,819,819,819,819,819,819,819,819,819,819,819,819,819,819,819,819,819,819,819,819,819,819,819,819,819,819,819,819,819,819,819,819,819,819,819,819,819,819,819,819,819,819,819,819,819,819,819,819,819,819,819,819,819,819,819,819,819,819,819,819,819,819,819,819,819,819,819,819,819,819,819,819,819,819,819,819,819,819,819,819,819,817,807,806,804,801,800,800,800,800,798,798,795,795,795,795,795,795,795,795,795,795,795,795,793,791,789,789,789,789,789,789,789,789,790,790,790,790,790,790,790,790,790,790,790,790,790,790,790,790,790,790,790,790,790,790,790,796,807,830,858,881,913,919,934,966,999,1038,1040,1040,1040,1039,1038,1049,1061],"ymouse":[508,508,508,508,509,510,510,511,511,511,511,511,511,511,511,511,511,511,511,511,511,512,512,512,512,512,512,512,512,514,516,517,518,518,518,518,518,518,518,518,518,518,518,518,518,518,518,518,518,518,518,518,518,518,518,518,518,518,518,518,518,518,518,518,518,518,518,518,518,518,518,518,518,518,518,518,518,518,518,518,518,518,518,518,518,518,518,518,518,518,518,518,518,518,518,518,518,518,518,518,518,518,518,518,518,518,518,518,518,518,518,518,518,518,518,518,518,518,518,518,518,518,518,518,518,518,518,518,518,518,518,518,518,518,518,518,518,518,518,518,518,518,518,518,518,518,518,518,518,518,518,518,518,518,518,518,518,518,518,518,518,518,518,518,518,517,507,505,504,504,504,504,504,504,504,504,504,504,504,504,504,504,504,504,504,504,504,504,504,504,504,504,504,504,504,504,504,504,504,504,504,504,504,504,504,504,504,504,504,504,504,504,504,504,504,504,504,504,504,504,503,495,493,492,491,491,491,491,491,491,491,491,491,491,491,491,491,491,491,490,488,486,486,486,486,486,486,484,484,484,484,484,484,484,484,483,483,483,483,483,483,483,483,483,483,483,483,483,483,483,483,482,480,479,476,474,472,471,471,471,471,472,485,487,487,487,487,487,486,485,483,481,477,477,476,476,475,475,474,473,473,473,473,473,473,473,473,473,473,473,473,473,473,473,473,473,473,473,473,473,473,473,473,473,473,473,473,473,473,473,473,473,473,473,473,473,473,473,473,473,473,473,473,473,473,473,473,473,473,473,473,473,473,473,473,473,473,473,473,473,473,473,473,473,473,473,473,473,473,473,473,473,473,473,473,473,473,473,473,473,473,473,473,473,473,473,473,473,473,473,473,473,474,474,474,474,474,474,474,474,474,474,474,474,474,474,474,474,474,474,474,474,474,474,474,474,474,474,474,474,474,474,474,474,474,474,474,474,474,474,474,474,474,474,474,474,474,474,474,474,474,474,474,474,474,474,474,474,474,474,474,474,474,474,474,474,474,474,474,474,474,474,474,474,474,474,474,474,474,474,474,474,474,474,474,474,474,474,474,474,474,474,474,474,474,474,474,474,474,474,474,474,474,474,474,474,474,474,474,474,474,474,474,474,474,474,474,474,474,474,474,474,474,474,474,474,478,482,482,482,483,484,484,484,484,484,485,486,487,487,487,487,487,487,487,487,488,492,493,501,511,521,533,535,535,535,535,535,535,535,535,535,535,535,535,535,535,535,535,535,535,534,532,530,529,529,529,529,529,528,526,522,500,476,442,410,388,341,314,264,213,171,128,122,122,121,121,118,108,98],"timestamp_mouse":[17,36,56,76,95,116,137,157,176,197,217,237,257,277,296,316,336,356,375,397,416,437,456,477,496,516,537,556,577,596,616,636,656,677,696,716,737,755,776,796,816,837,856,877,897,917,937,956,977,997,1016,1036,1056,1075,1097,1117,1136,1156,1177,1197,1216,1236,1257,1277,1297,1317,1336,1357,1377,1396,1415,1437,1457,1477,1497,1516,1536,1557,1576,1596,1616,1636,1656,1677,1697,1717,1737,1756,1777,1796,1815,1837,1856,1876,1895,1916,1936,1957,1976,1997,2016,2036,2056,2077,2096,2117,2135,2157,2176,2196,2217,2236,2256,2275,2297,2316,2336,2357,2377,2397,2416,2436,2457,2477,2496,2516,2536,2556,2576,2595,2617,2636,2656,2677,2695,2716,2736,2755,2776,2796,2816,2836,2856,2878,2896,2917,2937,2957,2976,2997,3016,3036,3056,3076,3096,3117,3136,3157,3177,3196,3217,3236,3257,3276,3296,3316,3336,3357,3376,3396,3417,3437,3456,3475,3497,3517,3536,3557,3576,3596,3617,3636,3655,3676,3696,3717,3737,3757,3777,3796,3817,3835,3857,3876,3897,3917,3937,3955,3977,3997,4015,4036,4057,4076,4097,4117,4136,4156,4176,4196,4217,4236,4257,4276,4297,4317,4336,4357,4376,4396,4417,4436,4456,4476,4497,4516,4536,4556,4575,4597,4617,4636,4657,4676,4697,4716,4737,4757,4776,4796,4816,4835,4857,4877,4897,4916,4937,4956,4977,4997,5017,5037,5056,5076,5096,5116,5137,5156,5176,5196,5216,5236,5258,5275,5296,5317,5337,5356,5377,5397,5417,5436,5456,5476,5496,5516,5537,5555,5577,5597,5617,5635,5657,5676,5695,5716,5736,5756,5777,5796,5816,5836,5857,5875,5896,5917,5937,5956,5977,5997,6016,6036,6057,6076,6097,6117,6136,6156,6176,6196,6216,6236,6258,6277,6296,6316,6337,6356,6377,6397,6417,6437,6457,6475,6497,6517,6535,6557,6577,6596,6616,6636,6656,6677,6697,6715,6736,6757,6777,6796,6817,6836,6857,6877,6897,6916,6936,6956,6976,6996,7017,7037,7056,7077,7097,7117,7137,7157,7177,7196,7217,7236,7257,7277,7297,7316,7336,7357,7377,7396,7417,7437,7456,7475,7497,7517,7536,7556,7577,7597,7616,7636,7657,7676,7696,7717,7736,7756,7776,7797,7817,7836,7857,7877,7896,7916,7936,7955,7976,7997,8017,8035,8057,8077,8096,8116,8136,8157,8175,8196,8216,8237,8256,8277,8296,8317,8335,8357,8377,8397,8417,8437,8455,8477,8497,8516,8536,8557,8577,8596,8617,8636,8657,8675,8696,8716,8736,8757,8776,8797,8817,8836,8857,8877,8897,8916,8937,8955,8977,8997,9015,9037,9057,9075,9097,9117,9136,9157,9176,9196,9216,9236,9257,9277,9296,9317,9336,9355,9377,9397,9416,9437,9457,9476,9496,9517,9537,9556,9577,9596,9617,9635,9657,9676,9695,9715,9736,9757,9775,9796,9815,9836,9855,9876,9896,9915,9936,9957,9976,9996,10016,10036,10056,10076,10096,10117,10135,10156,10176,10196,10215,10236,10256,10276,10296,10315,10335,10355,10376,10395,10416,10435,10455,10475,10495,10515,10537,10555,10576,10595,10616,10637,10655,10675,10696,10716,10736,10756,10776,10795,10816,10835,10856,10876,10896,10915,10937,10956,10975,10995,11016,11035,11055,11075,11096,11117,11136,11155,11175,11196,11215,11235,11256,11276,11295,11317,11335,11355,11375,11396,11416,11436,11455,11475,11495,11515,11535,11556,11575,11595,11616,11635,11656,11675,11696,11715,11735,11756,11775,11796],"xSR":741.5,"ySR":469.95,"xT1":424.9,"yT1":0,"xT2":1058.1,"yT2":0,"toosoon":0,"cond_shown":"Congruent","ratio_trial":100,"L_num":11,"L_den":22,"R_num":6,"R_den":15,"correct_side":1,"subjID":"Diegoalejandroarevalo9","gender":"0","school":"4","age":"10"},{"start_time":1552308505320,"click_time":1552308539285,"finger_time":1552308508126,"fix_duration":1213.273573700483,"trial":55,"RT":2806,"MT":31159,"sideResp":1,"stimulus":[],"xmouse":[814,814,816,816,816,816,816,816,816,816,817,819,821,822,823,823,823,823,823,823,824,824,824,824,824,824,824,824,824,824,824,824,824,824,824,824,824,824,824,824,824,824,824,826,827,827,827,827,827,827,827,827,827,827,827,827,827,827,827,827,827,827,827,827,827,827,827,827,827,827,827,827,827,827,827,827,827,827,827,827,827,827,827,827,827,827,827,827,827,827,827,827,827,827,827,827,827,827,827,827,827,827,827,827,827,827,827,827,827,827,827,827,827,827,827,827,827,827,827,827,827,827,827,827,827,827,828,828,830,830,830,830,831,831,831,831,831,832,834,838,842,845,850,863,869,873,876,881,884,888,893,896,901,902,904,905,906,908,909,909,909,909,909,909,909,909,909,909,909,909,909,909,909,909,908,907,907,907,907,907,907,907,907,907,907,907,907,907,907,907,907,907,907,907,907,907,907,907,907,907,907,907,907,907,907,907,907,907,907,907,907,907,907,907,907,907,907,907,907,907,907,907,907,907,907,907,907,907,907,907,907,907,907,907,907,907,907,907,907,907,907,907,907,907,907,907,907,907,907,907,908,910,911,911,911,911,911,911,911,911,911,911,911,911,911,911,911,911,913,914,915,915,915,915,915,915,915,915,915,915,915,915,915,915,915,915,915,915,915,915,916,916,916,916,916,916,916,916,916,916,916,916,916,916,916,916,916,916,916,916,916,916,916,916,916,916,916,916,916,916,916,916,916,916,916,916,916,916,918,918,918,918,918,919,919,919,919,919,919,919,919,919,919,919,920,920,920,920,920,920,920,920,920,920,920,920,920,920,920,922,922,922,923,923,924,925,926,926,927,927,927,927,927,927,927,927,927,927,927,927,927,927,927,927,927,927,927,927,927,927,927,927,927,927,927,927,927,927,927,927,927,927,927,927,927,927,927,927,927,928,929,929,929,930,931,931,933,933,933,933,933,933,934,934,934,935,935,935,935,935,935,936,936,937,938,939,939,940,941,941,942,942,942,943,943,943,943,943,944,944,944,945,945,945,945,945,945,945,945,945,945,945,945,945,945,945,945,945,945,945,945,944,937,924,918,914,907,900,891,887,887,887,887,878,876,875,875,876,877,877,877,873,859,817,798,795,795,798,818,826,831,834,834,834,834,834,834,834,834,833,831,830,826,823,822,820,819,818,816,815,813,810,805,798,798,796,796,796,796,796,796,796,796,796,794,788,784,783,783,783,783,781,780,780,780,780,780,780,780,780,780,780,780,780,780,780,780,780,780,780,780,780,780,780,780,780,780,780,780,780,780,780,780,781,781,781,781,782,782,782,782,782,782,782,782,782,783,783,783,783,783,783,783,783,783,783,783,783,783,783,784,786,788,788,788,788,788,788,788,788,788,788,788,788,788,788,788,788,788,788,788,788,788,788,788,788,788,788,788,790,791,797,807,831,835,839,842,845,849,851,853,853,853,853,853,853,853,853,853,853,853,853,853,853,853,853,853,853,853,853,853,853,853,853,853,853,853,853,853,853,853,853,854,855,856,856,856,856,857,857,857,857,857,857,858,858,859,859,860,862,862,862,863,864,864,864,864,865,865,868,869,869,870,871,871,871,871,871,871,871,871,871,871,871,871,871,871,871,871,871,871,871,871,871,871,871,871,871,871,871,871,871,872,872,872,872,872,872,872,873,875,876,879,882,887,890,892,892,892,893,893,893,894,895,896,898,899,902,906,907,908,908,908,908,908,908,908,909,910,918,924,930,937,939,939,939,939,939,939,939,939,939,939,939,940,940,939,939,937,936,936,936,936,936,936,936,936,936,936,936,936,936,936,936,936,937,938,940,942,946,949,949,951,951,951,951,951,951,951,951,951,951,951,951,951,951,951,951,951,951,951,951,951,951,951,952,952,952,952,952,952,952,952,952,952,952,952,952,952,952,952,952,952,952,952,952,952,952,952,952,952,952,952,952,952,952,952,952,953,953,953,953,953,953,953,953,953,953,953,954,954,954,954,954,955,955,955,955,955,956,956,957,957,957,957,957,957,957,957,957,957,957,957,957,957,957,957,957,957,957,957,957,957,957,957,957,957,957,957,957,957,957,957,957,957,957,957,957,957,957,957,957,957,957,957,957,957,957,957,957,957,957,957,957,957,957,957,957,957,957,957,957,957,957,957,957,957,957,957,957,957,957,957,957,957,957,957,957,957,957,957,957,957,957,957,957,957,957,957,957,957,957,957,957,957,957,957,957,957,957,957,957,957,957,957,957,957,957,957,957,957,957,957,957,957,957,957,957,957,957,957,957,957,957,957,957,957,957,957,957,957,957,957,957,957,957,957,957,958,958,958,958,958,958,958,958,958,958,958,958,958,958,958,958,958,958,958,960,960,960,960,960,960,960,960,960,960,960,960,960,960,961,961,962,963,964,964,965,965,967,968,968,968,968,968,968,968,968,968,969,970,970,970,970,970,970,970,970,970,970,970,970,970,970,970,970,970,970,970,970,970,970,970,970,970,970,970,971,971,971,971,971,972,973,973,973,973,973,973,973,973,977,985,994,1017,1026,1032,1036,1037,1038,1038,1038,1038,1038,1038,1038,1038,1038,1038,1038,1038,1038,1038,1038,1038,1038,1038,1038,1038,1038,1038,1038,1038,1038,1038,1038,1038,1038,1038,1038,1038,1038,1038,1038,1038,1038,1038,1038,1038,1038,1038,1038,1038,1038,1038,1038,1038,900,914,910,901,890,877,85