[{"start_time":1552309561412,"click_time":1552309565137,"finger_time":1552309562776,"fix_duration":250,"trial":0,"RT":1364,"MT":2361,"sideResp":1,"stimulus":"img/750/randomdotsizeEA/R/2_Ratio_750_L_6_R_8.png","xmouse":[794,794,794,794,794,794,794,794,794,794,794,794,794,794,794,794,794,794,794,794,794,794,794,794,794,794,794,794,794,794,794,794,794,794,794,794,794,794,794,794,794,794,794,794,794,794,794,794,794,794,794,794,794,794,794,794,794,794,794,794,794,794,805,816,820,825,817,782,726,698,697,699,703,706,707,707,707,707,707,707,706,702,699,698,698,698,697,697,696,694,694,694,698,702,704,709,712,718,722,727,737,749,764,764,764,765,766,768,771,774,777,780,780,780,780,780,780,780,780,780,780,780,780,780,780,780,780,780,780,780,780,780,780,779,779,779,779,779,779,779,779,778,775,770,754,732,685,671,669,668,668,668,666,660,638,619,598,554,537,528,526,526,527,526,520,506,485,440,429,426,427,430,436,440,442,443,443,444,444,446,449,456,482,498,505,505,506],"ymouse":[529,529,529,529,529,529,529,529,529,529,529,529,529,529,529,529,529,529,529,529,529,529,529,529,529,529,529,529,529,529,529,529,529,529,529,529,529,529,529,529,529,529,529,529,529,529,529,529,529,529,529,529,529,529,529,529,529,529,529,529,526,521,521,524,526,529,529,520,497,480,479,475,473,472,471,471,471,471,471,471,470,469,468,468,468,468,468,468,468,471,474,478,484,486,487,488,488,488,489,491,491,495,499,499,499,499,500,510,517,522,527,529,529,529,529,529,529,529,529,529,529,529,529,529,529,529,529,529,529,529,529,529,529,530,530,530,530,530,530,530,530,529,522,513,498,485,461,455,454,454,454,454,456,456,456,455,443,416,404,395,388,384,375,361,344,324,306,268,247,234,223,214,197,190,187,185,185,185,183,179,175,165,138,119,109,100,93],"timestamp_mouse":[8,24,44,64,85,106,124,144,166,186,205,225,244,265,286,304,325,345,365,384,404,425,444,464,486,505,524,544,565,585,605,626,646,665,684,705,724,744,764,786,804,825,844,865,884,906,925,946,965,984,1005,1025,1045,1065,1084,1104,1125,1144,1165,1184,1204,1226,1244,1264,1285,1305,1325,1344,1364,1385,1404,1426,1444,1465,1486,1505,1526,1546,1564,1585,1605,1626,1644,1665,1684,1705,1726,1745,1765,1786,1805,1825,1846,1864,1884,1905,1926,1944,1965,1985,2006,2025,2044,2065,2085,2105,2126,2146,2166,2185,2206,2224,2244,2264,2284,2305,2325,2344,2365,2384,2404,2426,2444,2465,2486,2505,2524,2546,2565,2585,2604,2626,2645,2664,2684,2706,2726,2745,2764,2785,2806,2824,2844,2864,2886,2905,2926,2944,2964,2984,3004,3025,3044,3065,3084,3104,3126,3144,3165,3184,3204,3224,3245,3266,3284,3304,3324,3344,3364,3385,3404,3425,3444,3465,3486,3504,3524,3544,3566,3586,3605,3625,3645,3666,3685,3705,3725],"xSR":741.5,"ySR":501.8,"xT1":424.9,"yT1":0,"xT2":1058.1,"yT2":0,"toosoon":0,"cond_shown":"randomdotsizeEA","ratio_trial":750,"smaller_num":"6","larger_num":"8","correct_side":2,"subjID":"diegoalejandroarevalo9","gender":"0","age":"10","school":"4","test":{"fix_dur":[250,1500],"timestim":300,"targets_dim":[100,100],"targets_relative_coord":[0.3,0.7],"size_stim":[880,420],"start_dim":[100,100],"size_start":[300,300],"size_fix":60,"samplingrate":20,"img_types":["equaldotsize","equaldotanddens","randomdotsizeEA"],"ratios":[250,500,750,900],"rep_conds":9,"nTrials":120,"trials_to_rest":500,"Trials_order":[56,117,16,112,93,38,65,94,60,63,88,90,24,53,118,78,75,70,62,0,13,106,9,36,58,57,15,64,97,3,39,40,107,80,72,23,55,49,31,12,79,10,104,105,37,28,19,71,29,11,77,91,69,110,20,101,102,41,26,22,46,54,51,92,44,86,48,84,95,42,114,7,116,73,99,32,50,87,68,45,66,81,18,74,85,103,2,113,14,111,35,108,59,115,43,4,76,33,98,83,27,17,34,89,82,6,100,52,96,47,109,1,119,61,5,8,67,21,30,25],"cond_shown":["randomdotsizeEA","equaldotsize","equaldotanddens","equaldotanddens","equaldotsize","randomdotsizeEA","randomdotsizeEA","equaldotanddens","equaldotsize","equaldotsize","equaldotanddens","equaldotsize","equaldotsize","randomdotsizeEA","equaldotanddens","equaldotsize","equaldotsize","equaldotanddens","randomdotsizeEA","equaldotsize","equaldotanddens","equaldotanddens","equaldotsize","equaldotsize","equaldotanddens","equaldotsize","equaldotsize","equaldotanddens","equaldotanddens","equaldotsize","equaldotsize","equaldotanddens","randomdotsizeEA","randomdotsizeEA","equaldotsize","randomdotsizeEA","equaldotanddens","equaldotanddens","equaldotanddens","equaldotsize","equaldotanddens","equaldotanddens","randomdotsizeEA","equaldotsize","equaldotanddens","equaldotanddens","equaldotanddens","randomdotsizeEA","randomdotsizeEA","randomdotsizeEA","randomdotsizeEA","equaldotanddens","equaldotsize","randomdotsizeEA","randomdotsizeEA","randomdotsizeEA","equaldotsize","randomdotsizeEA","randomdotsizeEA","equaldotanddens","equaldotanddens","equaldotsize","equaldotsize","randomdotsizeEA","randomdotsizeEA","randomdotsizeEA","equaldotsize","equaldotsize","randomdotsizeEA","equaldotsize","equaldotsize","equaldotanddens","randomdotsizeEA","equaldotanddens","equaldotsize","randomdotsizeEA","randomdotsizeEA","equaldotsize","randomdotsizeEA","equaldotsize","equaldotsize","equaldotsize","equaldotsize","randomdotsizeEA","equaldotanddens","equaldotanddens","randomdotsizeEA","randomdotsizeEA","randomdotsizeEA","equaldotsize","randomdotsizeEA","equaldotsize","randomdotsizeEA","equaldotanddens","equaldotanddens","equaldotanddens","equaldotanddens","equaldotsize","randomdotsizeEA","randomdotsizeEA","equaldotsize","randomdotsizeEA","equaldotanddens","randomdotsizeEA","equaldotanddens","equaldotsize","equaldotanddens","equaldotanddens","equaldotsize","randomdotsizeEA","equaldotanddens","equaldotanddens","randomdotsizeEA","equaldotanddens","randomdotsizeEA","randomdotsizeEA","equaldotanddens","equaldotsize","equaldotsize","equaldotanddens"],"ratio_trial":[750,900,500,500,900,250,500,900,250,500,500,750,250,500,900,750,500,900,250,250,250,900,900,250,900,900,500,500,250,500,500,500,900,750,250,900,750,250,750,250,750,900,750,900,250,500,750,900,500,900,500,750,900,250,750,500,750,500,250,900,900,750,500,750,750,250,250,250,900,750,750,750,750,250,500,750,250,500,750,900,750,900,750,250,250,750,250,500,250,500,900,250,900,750,750,500,500,900,250,900,500,500,900,500,900,750,500,500,250,900,250,250,900,250,500,750,750,900,750,250],"smaller_num":["6","9","6","10","9","6","5","18","3","10","2","15","2","9","9","15","9","18","2","3","3","18","9","2","9","18","9","5","4","9","9","6","18","3","4","9","3","3","6","1","6","18","15","9","3","9","15","9","10","18","9","9","18","1","3","6","6","9","5","9","9","3","10","15","18","3","1","2","18","6","15","12","18","3","2","3","6","10","15","18","15","18","12","3","3","3","5","1","3","5","18","6","9","15","3","9","2","18","2","9","5","9","18","1","18","3","3","4","6","9","3","5","18","2","3","6","3","18","12","5"],"larger_num":["8","10","12","20","10","24","10","20","12","20","4","20","8","18","10","20","18","20","8","12","12","20","10","8","10","20","18","10","16","18","18","12","20","4","16","10","4","12","8","4","8","20","20","10","12","18","20","10","20","20","18","12","20","4","4","12","8","18","20","10","10","4","20","20","24","12","4","8","20","8","20","16","24","12","4","4","24","20","20","20","20","20","16","12","12","4","20","2","12","10","20","24","10","20","4","18","4","20","8","10","10","18","20","2","20","4","6","8","24","10","12","20","20","8","6","8","4","20","16","20"],"correct_side":[2,1,1,2,2,1,1,1,2,2,1,2,1,2,1,2,2,2,1,2,1,2,2,1,2,2,2,1,1,1,2,1,1,1,1,2,1,2,1,2,1,1,2,2,1,2,1,1,2,1,1,2,2,2,1,1,1,2,2,1,1,1,2,1,1,1,2,1,1,1,1,2,1,2,1,1,1,2,2,1,1,2,2,1,2,2,2,2,2,2,2,2,2,2,1,2,1,1,1,2,1,2,1,2,1,2,2,1,1,2,2,2,1,1,2,1,2,1,2,2],"img_shown":["img/750/randomdotsizeEA/R/2_Ratio_750_L_6_R_8.png","img/900/equaldotsize/L/1_Ratio_900_L_10_R_9.png","img/500/equaldotanddens/L/11_Ratio_500_L_12_R_6.png","img/500/equaldotanddens/R/3_Ratio_500_L_10_R_20.png","img/900/equaldotsize/R/6_Ratio_900_L_9_R_10.png","img/250/randomdotsizeEA/L/5_Ratio_250_L_24_R_6.png","img/500/randomdotsizeEA/L/7_Ratio_500_L_10_R_5.png","img/900/equaldotanddens/L/4_Ratio_900_L_20_R_18.png","img/250/equaldotsize/R/11_Ratio_250_L_3_R_12.png","img/500/equaldotsize/R/3_Ratio_500_L_10_R_20.png","img/500/equaldotanddens/L/5_Ratio_500_L_4_R_2.png","img/750/equaldotsize/R/4_Ratio_750_L_15_R_20.png","img/250/equaldotsize/L/7_Ratio_250_L_8_R_2.png","img/500/randomdotsizeEA/R/1_Ratio_500_L_9_R_18.png","img/900/equaldotanddens/L/1_Ratio_900_L_10_R_9.png","img/750/equaldotsize/R/4_Ratio_750_L_15_R_20.png","img/500/equaldotsize/R/1_Ratio_500_L_9_R_18.png","img/900/equaldotanddens/R/12_Ratio_900_L_18_R_20.png","img/250/randomdotsizeEA/L/3_Ratio_250_L_8_R_2.png","img/250/equaldotsize/R/9_Ratio_250_L_3_R_12.png","img/250/equaldotanddens/L/15_Ratio_250_L_12_R_3.png","img/900/equaldotanddens/R/12_Ratio_900_L_18_R_20.png","img/900/equaldotsize/R/15_Ratio_900_L_9_R_10.png","img/250/equaldotsize/L/1_Ratio_250_L_8_R_2.png","img/900/equaldotanddens/R/6_Ratio_900_L_9_R_10.png","img/900/equaldotsize/R/9_Ratio_900_L_18_R_20.png","img/500/equaldotsize/R/6_Ratio_500_L_9_R_18.png","img/500/equaldotanddens/L/7_Ratio_500_L_10_R_5.png","img/250/equaldotanddens/L/2_Ratio_250_L_16_R_4.png","img/500/equaldotsize/L/4_Ratio_500_L_18_R_9.png","img/500/equaldotsize/R/1_Ratio_500_L_9_R_18.png","img/500/equaldotanddens/L/11_Ratio_500_L_12_R_6.png","img/900/randomdotsizeEA/L/8_Ratio_900_L_20_R_18.png","img/750/randomdotsizeEA/L/8_Ratio_750_L_4_R_3.png","img/250/equaldotsize/L/2_Ratio_250_L_16_R_4.png","img/900/randomdotsizeEA/R/15_Ratio_900_L_9_R_10.png","img/750/equaldotanddens/L/10_Ratio_750_L_4_R_3.png","img/250/equaldotanddens/R/9_Ratio_250_L_3_R_12.png","img/750/equaldotanddens/L/13_Ratio_750_L_8_R_6.png","img/250/equaldotsize/R/8_Ratio_250_L_1_R_4.png","img/750/equaldotanddens/L/13_Ratio_750_L_8_R_6.png","img/900/equaldotanddens/L/2_Ratio_900_L_20_R_18.png","img/750/randomdotsizeEA/R/4_Ratio_750_L_15_R_20.png","img/900/equaldotsize/R/15_Ratio_900_L_9_R_10.png","img/250/equaldotanddens/L/15_Ratio_250_L_12_R_3.png","img/500/equaldotanddens/R/1_Ratio_500_L_9_R_18.png","img/750/equaldotanddens/L/1_Ratio_750_L_20_R_15.png","img/900/randomdotsizeEA/L/1_Ratio_900_L_10_R_9.png","img/500/randomdotsizeEA/R/3_Ratio_500_L_10_R_20.png","img/900/randomdotsizeEA/L/8_Ratio_900_L_20_R_18.png","img/500/randomdotsizeEA/L/4_Ratio_500_L_18_R_9.png","img/750/equaldotanddens/R/15_Ratio_750_L_9_R_12.png","img/900/equaldotsize/R/13_Ratio_900_L_18_R_20.png","img/250/randomdotsizeEA/R/8_Ratio_250_L_1_R_4.png","img/750/randomdotsizeEA/L/8_Ratio_750_L_4_R_3.png","img/500/randomdotsizeEA/L/13_Ratio_500_L_12_R_6.png","img/750/equaldotsize/L/14_Ratio_750_L_8_R_6.png","img/500/randomdotsizeEA/R/1_Ratio_500_L_9_R_18.png","img/250/randomdotsizeEA/R/12_Ratio_250_L_5_R_20.png","img/900/equaldotanddens/L/1_Ratio_900_L_10_R_9.png","img/900/equaldotanddens/L/1_Ratio_900_L_10_R_9.png","img/750/equaldotsize/L/8_Ratio_750_L_4_R_3.png","img/500/equaldotsize/R/3_Ratio_500_L_10_R_20.png","img/750/randomdotsizeEA/L/1_Ratio_750_L_20_R_15.png","img/750/randomdotsizeEA/L/6_Ratio_750_L_24_R_18.png","img/250/randomdotsizeEA/L/14_Ratio_250_L_12_R_3.png","img/250/equaldotsize/R/8_Ratio_250_L_1_R_4.png","img/250/equaldotsize/L/7_Ratio_250_L_8_R_2.png","img/900/randomdotsizeEA/L/4_Ratio_900_L_20_R_18.png","img/750/equaldotsize/L/14_Ratio_750_L_8_R_6.png","img/750/equaldotsize/L/1_Ratio_750_L_20_R_15.png","img/750/equaldotanddens/R/11_Ratio_750_L_12_R_16.png","img/750/randomdotsizeEA/L/6_Ratio_750_L_24_R_18.png","img/250/equaldotanddens/R/11_Ratio_250_L_3_R_12.png","img/500/equaldotsize/L/5_Ratio_500_L_4_R_2.png","img/750/randomdotsizeEA/L/9_Ratio_750_L_4_R_3.png","img/250/randomdotsizeEA/L/5_Ratio_250_L_24_R_6.png","img/500/equaldotsize/R/3_Ratio_500_L_10_R_20.png","img/750/randomdotsizeEA/R/5_Ratio_750_L_15_R_20.png","img/900/equaldotsize/L/8_Ratio_900_L_20_R_18.png","img/750/equaldotsize/L/1_Ratio_750_L_20_R_15.png","img/900/equaldotsize/R/14_Ratio_900_L_18_R_20.png","img/750/equaldotsize/R/11_Ratio_750_L_12_R_16.png","img/250/randomdotsizeEA/L/15_Ratio_250_L_12_R_3.png","img/250/equaldotanddens/R/9_Ratio_250_L_3_R_12.png","img/750/equaldotanddens/R/12_Ratio_750_L_3_R_4.png","img/250/randomdotsizeEA/R/12_Ratio_250_L_5_R_20.png","img/500/randomdotsizeEA/R/15_Ratio_500_L_1_R_2.png","img/250/randomdotsizeEA/R/11_Ratio_250_L_3_R_12.png","img/500/equaldotsize/R/14_Ratio_500_L_5_R_10.png","img/900/randomdotsizeEA/R/13_Ratio_900_L_18_R_20.png","img/250/equaldotsize/R/6_Ratio_250_L_6_R_24.png","img/900/randomdotsizeEA/R/15_Ratio_900_L_9_R_10.png","img/750/equaldotanddens/R/3_Ratio_750_L_15_R_20.png","img/750/equaldotanddens/L/9_Ratio_750_L_4_R_3.png","img/500/equaldotanddens/R/6_Ratio_500_L_9_R_18.png","img/500/equaldotanddens/L/5_Ratio_500_L_4_R_2.png","img/900/equaldotsize/L/10_Ratio_900_L_20_R_18.png","img/250/randomdotsizeEA/L/3_Ratio_250_L_8_R_2.png","img/900/randomdotsizeEA/R/6_Ratio_900_L_9_R_10.png","img/500/equaldotsize/L/7_Ratio_500_L_10_R_5.png","img/500/randomdotsizeEA/R/1_Ratio_500_L_9_R_18.png","img/900/equaldotanddens/L/10_Ratio_900_L_20_R_18.png","img/500/randomdotsizeEA/R/15_Ratio_500_L_1_R_2.png","img/900/equaldotanddens/L/8_Ratio_900_L_20_R_18.png","img/750/equaldotsize/R/12_Ratio_750_L_3_R_4.png","img/500/equaldotanddens/R/2_Ratio_500_L_3_R_6.png","img/500/equaldotanddens/L/8_Ratio_500_L_8_R_4.png","img/250/equaldotsize/L/5_Ratio_250_L_24_R_6.png","img/900/randomdotsizeEA/R/7_Ratio_900_L_9_R_10.png","img/250/equaldotanddens/R/9_Ratio_250_L_3_R_12.png","img/250/equaldotanddens/R/12_Ratio_250_L_5_R_20.png","img/900/randomdotsizeEA/L/10_Ratio_900_L_20_R_18.png","img/250/equaldotanddens/L/1_Ratio_250_L_8_R_2.png","img/500/randomdotsizeEA/R/2_Ratio_500_L_3_R_6.png","img/750/randomdotsizeEA/L/13_Ratio_750_L_8_R_6.png","img/750/equaldotanddens/R/12_Ratio_750_L_3_R_4.png","img/900/equaldotsize/L/4_Ratio_900_L_20_R_18.png","img/750/equaldotsize/R/11_Ratio_750_L_12_R_16.png","img/250/equaldotanddens/R/12_Ratio_250_L_5_R_20.png"],"Rat0":[["12_Ratio_0_L_9_R_0.png","13_Ratio_0_L_6_R_0.png","5_Ratio_0_L_2_R_0.png","6_Ratio_0_L_4_R_0.png","8_Ratio_0_L_6_R_0.png"],["1_Ratio_0_L_0_R_17.png","10_Ratio_0_L_0_R_22.png","11_Ratio_0_L_0_R_1.png","14_Ratio_0_L_0_R_24.png","15_Ratio_0_L_0_R_4.png","2_Ratio_0_L_0_R_5.png","3_Ratio_0_L_0_R_17.png","4_Ratio_0_L_0_R_7.png","7_Ratio_0_L_0_R_19.png","9_Ratio_0_L_0_R_15.png"]],"Rat250":[["1_Ratio_250_L_8_R_2.png","14_Ratio_250_L_12_R_3.png","15_Ratio_250_L_12_R_3.png","2_Ratio_250_L_16_R_4.png","3_Ratio_250_L_8_R_2.png","5_Ratio_250_L_24_R_6.png","7_Ratio_250_L_8_R_2.png"],["10_Ratio_250_L_4_R_16.png","11_Ratio_250_L_3_R_12.png","12_Ratio_250_L_5_R_20.png","13_Ratio_250_L_2_R_8.png","4_Ratio_250_L_3_R_12.png","6_Ratio_250_L_6_R_24.png","8_Ratio_250_L_1_R_4.png","9_Ratio_250_L_3_R_12.png"]],"Rat500":[["10_Ratio_500_L_4_R_2.png","11_Ratio_500_L_12_R_6.png","13_Ratio_500_L_12_R_6.png","4_Ratio_500_L_18_R_9.png","5_Ratio_500_L_4_R_2.png","7_Ratio_500_L_10_R_5.png","8_Ratio_500_L_8_R_4.png"],["1_Ratio_500_L_9_R_18.png","12_Ratio_500_L_1_R_2.png","14_Ratio_500_L_5_R_10.png","15_Ratio_500_L_1_R_2.png","2_Ratio_500_L_3_R_6.png","3_Ratio_500_L_10_R_20.png","6_Ratio_500_L_9_R_18.png","9_Ratio_500_L_2_R_4.png"]],"Rat750":[["1_Ratio_750_L_20_R_15.png","10_Ratio_750_L_4_R_3.png","13_Ratio_750_L_8_R_6.png","14_Ratio_750_L_8_R_6.png","6_Ratio_750_L_24_R_18.png","8_Ratio_750_L_4_R_3.png","9_Ratio_750_L_4_R_3.png"],["11_Ratio_750_L_12_R_16.png","12_Ratio_750_L_3_R_4.png","15_Ratio_750_L_9_R_12.png","2_Ratio_750_L_6_R_8.png","3_Ratio_750_L_15_R_20.png","4_Ratio_750_L_15_R_20.png","5_Ratio_750_L_15_R_20.png","7_Ratio_750_L_3_R_4.png"]],"Rat900":[["1_Ratio_900_L_10_R_9.png","10_Ratio_900_L_20_R_18.png","2_Ratio_900_L_20_R_18.png","4_Ratio_900_L_20_R_18.png","8_Ratio_900_L_20_R_18.png"],["11_Ratio_900_L_18_R_20.png","12_Ratio_900_L_18_R_20.png","13_Ratio_900_L_18_R_20.png","14_Ratio_900_L_18_R_20.png","15_Ratio_900_L_9_R_10.png","3_Ratio_900_L_9_R_10.png","5_Ratio_900_L_9_R_10.png","6_Ratio_900_L_9_R_10.png","7_Ratio_900_L_9_R_10.png","9_Ratio_900_L_18_R_20.png"]],"Rat1000":[["10_Ratio_1000_L_16_R_16.png","11_Ratio_1000_L_6_R_6.png","12_Ratio_1000_L_14_R_14.png","13_Ratio_1000_L_20_R_20.png","15_Ratio_1000_L_15_R_15.png","2_Ratio_1000_L_17_R_17.png","4_Ratio_1000_L_9_R_9.png","5_Ratio_1000_L_6_R_6.png","6_Ratio_1000_L_19_R_19.png","8_Ratio_1000_L_14_R_14.png","9_Ratio_1000_L_25_R_25.png"],["1_Ratio_1000_L_1_R_1.png","14_Ratio_1000_L_17_R_17.png","3_Ratio_1000_L_17_R_17.png","7_Ratio_1000_L_6_R_6.png"]]}},{"start_time":1552309566849,"click_time":1552309568097,"finger_time":1552309567616,"fix_duration":708.533611347686,"trial":1,"RT":767,"MT":481,"sideResp":2,"stimulus":"img/900/equaldotsize/L/1_Ratio_900_L_10_R_9.png","xmouse":[758,758,758,758,758,758,758,758,758,758,758,758,758,758,758,758,758,758,758,758,758,758,758,758,758,758,758,758,758,758,758,758,758,758,758,759,769,791,825,864,923,949,958,964,970,978,992,999,1006,1012,1019,1019,1019,1019,1019,1017,1016,1018,1024,1032,1050,1058,1061],"ymouse":[508,508,508,508,508,508,508,508,508,508,508,508,508,508,508,508,508,508,508,508,508,508,508,508,508,508,508,508,508,508,508,508,508,508,508,509,503,475,422,357,256,222,210,201,189,172,144,134,125,120,114,114,114,114,114,112,111,106,99,92,78,72,70],"timestamp_mouse":[9,28,48,71,87,107,129,147,168,187,207,227,247,269,288,307,328,348,367,389,409,427,447,468,488,508,528,547,567,588,607,627,648,668,687,709,729,748,767,787,807,828,847,867,889,907,929,947,968,987,1008,1027,1048,1067,1088,1107,1127,1148,1169,1188,1207,1227,1247],"xSR":741.5,"ySR":469.95,"xT1":424.9,"yT1":0,"xT2":1058.1,"yT2":0,"toosoon":0,"cond_shown":"equaldotsize","ratio_trial":900,"smaller_num":"9","larger_num":"10","correct_side":1,"subjID":"diegoalejandroarevalo9","gender":"0","age":"10","school":"4"},{"start_time":1552309569209,"click_time":1552309570776,"finger_time":1552309570036,"fix_duration":250,"trial":2,"RT":827,"MT":740,"sideResp":1,"stimulus":"img/500/equaldotanddens/L/11_Ratio_500_L_12_R_6.png","xmouse":[760,760,760,760,760,760,760,760,760,760,760,760,760,760,760,760,760,760,760,760,760,760,760,760,760,760,760,760,760,760,760,760,760,760,760,760,760,760,766,771,788,804,837,846,857,864,871,878,879,879,880,880,880,880,880,880,880,880,875,860,836,805,729,639,618,602,589,577,572,568,568,567,567,566,564,561,555,529,515],"ymouse":[520,520,520,520,520,520,520,520,520,520,520,520,520,520,520,520,520,520,520,520,520,520,520,520,520,520,520,520,520,520,520,520,520,520,520,520,520,520,511,505,484,463,402,384,364,350,336,324,323,323,322,322,322,322,321,321,321,320,316,309,297,283,251,211,196,186,177,172,170,167,166,163,153,147,140,134,127,104,94],"timestamp_mouse":[12,29,48,68,87,107,128,149,168,187,209,227,248,267,287,307,328,348,368,387,408,429,448,467,487,507,529,548,568,587,607,628,648,669,688,707,729,748,767,789,807,827,848,868,888,908,928,948,968,988,1008,1028,1048,1068,1088,1108,1127,1148,1167,1188,1207,1227,1248,1268,1289,1309,1328,1349,1367,1388,1409,1429,1448,1468,1488,1508,1528,1549,1567],"xSR":741.5,"ySR":469.95,"xT1":424.9,"yT1":0,"xT2":1058.1,"yT2":0,"toosoon":0,"cond_shown":"equaldotanddens","ratio_trial":500,"smaller_num":"6","larger_num":"12","correct_side":1,"subjID":"diegoalejandroarevalo9","gender":"0","age":"10","school":"4"},{"start_time":1552309572341,"click_time":1552309573997,"finger_time":1552309573236,"fix_duration":262.1781212590665,"trial":3,"RT":895,"MT":761,"sideResp":2,"stimulus":"img/500/equaldotanddens/R/3_Ratio_500_L_10_R_20.png","xmouse":[799,799,799,799,799,799,798,798,798,798,797,797,797,796,796,796,796,796,796,796,796,796,796,796,796,796,796,796,796,796,796,796,796,791,786,779,772,771,771,771,771,771,774,791,821,998,1117,1216,1282,1316,1332,1344,1347,1348,1349,1352,1351,1342,1328,1308,1289,1252,1246,1245,1245,1244,1243,1242,1242,1240,1237,1226,1223,1219,1216,1211,1202,1200,1194,1185,1176,1160,1153],"ymouse":[516,515,515,515,515,515,515,515,515,515,515,515,515,515,515,515,515,515,515,515,515,515,515,515,515,515,515,515,515,515,515,515,515,513,506,497,485,483,483,483,482,480,478,473,467,443,441,448,458,460,459,442,420,404,387,355,336,314,289,256,226,186,180,179,179,179,179,179,179,179,179,175,172,167,163,154,143,140,133,116,88,46,37],"timestamp_mouse":[16,50,57,77,96,116,136,155,176,195,216,236,256,275,296,315,337,355,376,396,415,436,456,477,496,515,536,557,576,596,616,636,657,675,696,715,736,755,777,796,816,835,855,876,895,917,935,956,976,995,1015,1035,1056,1075,1095,1117,1135,1156,1175,1195,1216,1235,1256,1276,1296,1316,1336,1355,1375,1396,1416,1435,1455,1475,1496,1516,1537,1556,1576,1596,1616,1635,1655],"xSR":741.5,"ySR":469.95,"xT1":424.9,"yT1":0,"xT2":1058.1,"yT2":0,"toosoon":0,"cond_shown":"equaldotanddens","ratio_trial":500,"smaller_num":"10","larger_num":"20","correct_side":2,"subjID":"diegoalejandroarevalo9","gender":"0","age":"10","school":"4"},{"start_time":1552309576210,"click_time":1552309577658,"finger_time":1552309576876,"fix_duration":250,"trial":4,"RT":666,"MT":782,"sideResp":2,"stimulus":"img/900/equaldotsize/R/6_Ratio_900_L_9_R_10.png","xmouse":[806,806,806,806,806,806,806,806,806,806,806,806,806,806,806,806,806,806,806,806,806,806,806,806,806,806,806,806,806,806,806,804,801,786,773,755,737,720,693,692,691,691,691,689,682,673,663,654,642,637,629,621,612,604,604,604,604,604,604,604,605,613,623,649,665,683,698,720,832,916,1005,1096,1154],"ymouse":[493,493,493,493,493,493,493,493,493,493,493,493,493,493,493,493,493,493,493,493,493,493,493,493,493,493,493,493,493,493,493,493,490,464,437,394,349,308,249,245,244,244,244,244,241,236,229,218,195,185,176,168,162,159,159,159,159,159,159,159,159,159,162,173,182,195,206,217,221,198,158,106,74],"timestamp_mouse":[9,27,47,66,87,106,127,147,167,186,208,227,246,266,288,306,327,347,367,387,407,427,446,466,486,507,527,547,568,586,607,628,646,666,686,707,726,748,766,788,807,826,847,866,887,907,926,947,967,988,1007,1027,1048,1066,1086,1106,1131,1147,1167,1187,1206,1227,1246,1266,1286,1306,1327,1347,1366,1388,1406,1427,1448],"xSR":741.5,"ySR":469.95,"xT1":424.9,"yT1":0,"xT2":1058.1,"yT2":0,"toosoon":0,"cond_shown":"equaldotsize","ratio_trial":900,"smaller_num":"9","larger_num":"10","correct_side":2,"subjID":"diegoalejandroarevalo9","gender":"0","age":"10","school":"4"},{"start_time":1552309579245,"click_time":1552309580997,"finger_time":1552309580016,"fix_duration":447.0996369340594,"trial":5,"RT":771,"MT":981,"sideResp":2,"stimulus":"img/250/randomdotsizeEA/L/5_Ratio_250_L_24_R_6.png","xmouse":[804,804,804,804,804,804,804,804,804,804,803,803,803,803,803,803,803,803,803,803,803,803,803,803,803,803,803,803,803,803,803,803,803,803,803,803,802,806,818,835,851,876,887,893,895,898,899,900,902,909,919,940,949,952,956,957,957,957,957,957,958,960,964,970,976,980,990,997,1005,1015,1026,1036,1052,1056,1057,1057,1057,1057,1057,1057,1057,1057,1057,1057,1057,1057,1058,1060],"ymouse":[497,497,497,497,497,497,497,497,497,497,497,497,497,497,497,497,497,497,497,497,497,497,497,497,497,497,497,497,497,497,497,497,497,497,497,497,496,479,454,422,394,355,341,333,332,328,328,326,326,322,314,297,288,284,278,277,277,277,277,277,275,269,259,246,234,228,210,200,185,168,150,131,100,91,85,85,85,85,85,85,85,85,85,85,85,85,84,83],"timestamp_mouse":[11,33,62,71,91,111,131,152,171,192,212,232,251,272,293,311,332,353,371,391,411,432,452,472,492,511,533,553,572,591,612,632,652,672,691,711,733,753,771,791,812,833,851,872,891,912,932,952,972,993,1012,1033,1051,1071,1092,1112,1131,1152,1172,1191,1211,1233,1251,1271,1292,1311,1333,1351,1373,1393,1412,1431,1451,1472,1492,1513,1533,1551,1571,1592,1612,1631,1652,1671,1692,1712,1733,1751],"xSR":741.5,"ySR":469.95,"xT1":424.9,"yT1":0,"xT2":1058.1,"yT2":0,"toosoon":0,"cond_shown":"randomdotsizeEA","ratio_trial":250,"smaller_num":"6","larger_num":"24","correct_side":1,"subjID":"diegoalejandroarevalo9","gender":"0","age":"10","school":"4"},{"start_time":1552309583290,"click_time":1552309585537,"finger_time":1552309584896,"fix_duration":931.1912367483011,"trial":6,"RT":1606,"MT":641,"sideResp":2,"stimulus":"img/500/randomdotsizeEA/L/7_Ratio_500_L_10_R_5.png","xmouse":[779,779,779,779,779,779,779,779,779,779,779,779,779,779,779,779,779,779,779,779,779,779,779,779,779,779,779,779,779,779,779,779,779,779,779,779,779,779,779,779,779,779,779,779,779,779,779,779,779,779,779,779,779,779,778,778,778,778,778,778,777,775,774,772,771,769,768,768,768,768,768,768,768,768,768,768,768,768,772,778,784,824,838,851,866,884,894,905,914,925,946,959,966,972,978,991,997,1006,1014,1025,1039,1047,1055,1065,1076,1100,1110,1117,1122,1127,1139,1142,1143],"ymouse":[483,483,483,483,483,484,484,484,484,484,484,484,484,484,484,484,484,484,484,484,484,484,484,484,484,484,484,484,484,484,484,484,484,484,484,484,484,484,484,484,484,484,484,484,484,484,484,484,484,484,484,484,484,484,484,484,484,484,484,484,484,484,484,485,485,485,486,486,486,486,486,486,486,486,486,486,486,486,482,476,466,421,406,395,386,373,367,362,356,349,336,328,321,316,309,289,277,264,251,234,214,203,193,182,172,155,147,140,133,126,106,100,98],"timestamp_mouse":[9,27,50,68,87,107,126,147,167,188,208,227,247,266,288,307,327,346,367,387,407,427,448,468,487,508,527,547,566,586,606,628,648,666,686,708,727,748,767,787,807,828,846,867,886,908,927,946,966,987,1006,1026,1046,1067,1088,1106,1127,1146,1167,1187,1207,1228,1248,1266,1287,1307,1327,1347,1367,1387,1408,1427,1447,1467,1487,1508,1526,1546,1566,1587,1606,1627,1646,1667,1687,1706,1726,1746,1766,1786,1806,1826,1846,1867,1888,1906,1927,1948,1967,1986,2007,2027,2046,2066,2087,2107,2126,2146,2167,2188,2206,2228,2247],"xSR":741.5,"ySR":469.95,"xT1":424.9,"yT1":0,"xT2":1058.1,"yT2":0,"toosoon":0,"cond_shown":"randomdotsizeEA","ratio_trial":500,"smaller_num":"5","larger_num":"10","correct_side":1,"subjID":"diegoalejandroarevalo9","gender":"0","age":"10","school":"4"},{"start_time":1552309587876,"click_time":1552309589737,"finger_time":1552309589196,"fix_duration":1417.396391231346,"trial":7,"RT":1320,"MT":541,"sideResp":2,"stimulus":"img/900/equaldotanddens/L/4_Ratio_900_L_20_R_18.png","xmouse":[780,780,780,780,780,781,783,784,784,784,784,784,784,784,784,784,784,784,784,784,784,784,784,784,784,784,784,784,784,784,784,784,784,785,785,785,785,784,779,778,771,767,762,761,761,761,761,761,761,761,761,761,761,761,763,763,764,765,765,765,765,765,765,771,779,794,817,909,950,992,1031,1056,1060,1063,1065,1069,1076,1096,1123,1132,1162,1194,1203,1209,1212,1213,1214,1214,1214,1214,1214,1207,1172,1147],"ymouse":[526,526,526,526,526,524,522,521,521,521,521,521,521,521,521,521,521,521,521,521,521,521,521,521,521,521,521,521,521,521,521,521,521,520,520,520,520,518,513,511,503,499,496,495,495,495,495,495,495,495,495,495,495,495,495,496,496,496,496,496,496,496,496,494,487,474,457,399,378,356,334,309,299,289,280,273,265,247,232,227,205,171,154,136,126,117,113,109,109,109,108,106,93,82],"timestamp_mouse":[11,25,45,62,81,100,120,142,162,181,201,221,242,261,281,301,322,341,360,381,400,421,442,461,480,501,520,542,561,580,601,620,642,660,681,702,720,742,760,782,801,820,841,862,882,900,920,942,960,981,1001,1020,1041,1060,1081,1101,1121,1140,1161,1182,1201,1220,1241,1261,1281,1302,1320,1341,1360,1380,1400,1422,1440,1461,1481,1501,1522,1540,1561,1581,1601,1622,1640,1661,1682,1701,1720,1740,1762,1782,1802,1822,1840,1861],"xSR":741.5,"ySR":469.95,"xT1":424.9,"yT1":0,"xT2":1058.1,"yT2":0,"toosoon":0,"cond_shown":"equaldotanddens","ratio_trial":900,"smaller_num":"18","larger_num":"20","correct_side":1,"subjID":"diegoalejandroarevalo9","gender":"0","age":"10","school":"4"},{"start_time":1552309591618,"click_time":1552309593016,"finger_time":1552309592297,"fix_duration":479.8268519190304,"trial":8,"RT":679,"MT":719,"sideResp":2,"stimulus":"img/250/equaldotsize/R/11_Ratio_250_L_3_R_12.png","xmouse":[809,809,809,809,809,809,810,810,810,812,813,813,813,813,813,814,814,815,815,815,816,818,818,818,819,819,819,819,819,819,819,820,830,843,916,979,1025,1055,1073,1101,1111,1114,1116,1121,1153,1186,1221,1256,1256,1256,1256,1256,1256,1256,1256,1256,1256,1256,1256,1256,1256,1256,1256,1256,1256,1256,1256,1256,1256,1123],"ymouse":[505,505,505,505,505,505,505,505,505,506,506,506,506,506,506,506,507,507,507,507,507,507,507,507,507,507,507,507,507,507,507,507,504,493,436,393,361,343,333,315,306,300,292,280,228,179,124,30,30,30,30,30,30,30,30,30,30,30,30,30,30,30,30,30,30,30,30,30,30,10],"timestamp_mouse":[18,54,58,79,99,120,139,160,179,198,219,239,259,278,298,319,338,359,379,398,419,439,459,479,499,518,540,558,578,598,619,640,659,679,699,719,738,759,779,798,820,839,860,880,898,920,940,958,979,998,1018,1039,1059,1079,1099,1119,1138,1159,1178,1199,1218,1239,1258,1279,1298,1319,1339,1359,1380,1398],"xSR":741.5,"ySR":469.95,"xT1":424.9,"yT1":0,"xT2":1058.1,"yT2":0,"toosoon":0,"cond_shown":"equaldotsize","ratio_trial":250,"smaller_num":"3","larger_num":"12","correct_side":2,"subjID":"diegoalejandroarevalo9","gender":"0","age":"10","school":"4"},{"start_time":1552309595909,"click_time":1552309597398,"finger_time":1552309596677,"fix_duration":732.7381724259208,"trial":9,"RT":768,"MT":721,"sideResp":2,"stimulus":"img/500/equaldotsize/R/3_Ratio_500_L_10_R_20.png","xmouse":[808,808,808,808,808,808,808,808,808,808,808,808,808,808,808,808,808,808,808,808,808,808,808,808,808,808,808,808,808,808,808,808,808,808,808,813,817,830,840,846,854,860,865,872,880,889,891,894,895,896,902,909,914,921,929,934,935,935,935,935,939,942,946,952,957,961,963,964,969,978,996,1039,1076,1087,1094],"ymouse":[505,505,505,505,505,505,505,505,505,505,505,505,505,505,505,505,505,505,505,505,505,505,505,505,505,505,505,505,505,505,505,505,505,505,505,495,490,473,457,449,433,419,405,389,370,358,354,351,349,348,339,329,320,311,300,292,290,287,286,285,280,276,271,265,261,257,255,252,246,236,219,183,143,119,97],"timestamp_mouse":[10,28,47,71,87,107,127,149,167,188,209,229,248,268,287,307,328,348,368,389,407,427,447,468,487,509,527,548,568,589,607,627,648,667,688,716,728,749,768,789,808,827,847,868,889,908,927,947,969,988,1009,1027,1048,1068,1088,1108,1127,1148,1169,1188,1209,1227,1247,1267,1287,1309,1327,1347,1368,1387,1408,1429,1447,1468,1489],"xSR":741.5,"ySR":469.95,"xT1":424.9,"yT1":0,"xT2":1058.1,"yT2":0,"toosoon":0,"cond_shown":"equaldotsize","ratio_trial":500,"smaller_num":"10","larger_num":"20","correct_side":2,"subjID":"diegoalejandroarevalo9","gender":"0","age":"10","school":"4"},{"start_time":1552309605487,"click_time":1552309606738,"finger_time":1552309606337,"fix_duration":748.1481674581256,"trial":10,"RT":850,"MT":401,"sideResp":1,"stimulus":"img/500/equaldotanddens/L/5_Ratio_500_L_4_R_2.png","xmouse":[798,798,798,798,798,798,798,798,798,798,798,798,798,798,798,798,798,798,798,798,798,798,798,798,798,798,798,798,798,798,798,798,798,798,798,798,798,798,798,798,798,797,787,756,720,673,627,612,611,618,623,627,637,639,640,642,643,643,631,620,600,563,502],"ymouse":[499,499,499,499,499,499,499,499,499,499,499,499,499,499,499,499,499,499,499,499,499,499,499,499,499,499,499,499,499,499,499,499,499,499,499,499,499,499,499,499,493,482,460,424,399,364,324,302,290,285,280,275,256,250,240,231,218,208,181,165,141,104,63],"timestamp_mouse":[11,36,50,69,90,110,131,150,169,190,209,230,249,270,289,310,330,349,370,389,410,429,450,469,490,511,530,550,571,590,609,629,649,670,690,710,730,750,770,790,809,830,850,871,890,909,929,949,970,989,1009,1029,1051,1069,1089,1109,1130,1149,1170,1189,1210,1229,1250],"xSR":741.5,"ySR":469.95,"xT1":424.9,"yT1":0,"xT2":1058.1,"yT2":0,"toosoon":0,"cond_shown":"equaldotanddens","ratio_trial":500,"smaller_num":"2","larger_num":"4","correct_side":1,"subjID":"diegoalejandroarevalo9","gender":"0","age":"10","school":"4"},{"start_time":1552309609549,"click_time":1552309610776,"finger_time":1552309610457,"fix_duration":250,"trial":11,"RT":908,"MT":319,"sideResp":2,"stimulus":"img/750/equaldotsize/R/4_Ratio_750_L_15_R_20.png","xmouse":[784,784,784,784,784,784,784,784,784,784,784,784,784,784,784,784,784,784,784,784,784,784,784,784,784,784,784,784,784,784,784,784,784,784,784,784,784,786,790,795,804,810,819,830,840,869,884,902,927,956,996,1006,1012,1015,1019,1055,1078,1100,1119,1132,1155,1155],"ymouse":[541,541,541,541,541,541,541,541,541,541,541,541,541,541,541,541,541,541,541,541,541,541,541,541,541,541,541,541,541,541,541,541,541,541,541,541,541,540,537,536,531,527,520,512,504,483,473,458,440,418,385,372,363,360,356,322,292,259,218,181,109,74],"timestamp_mouse":[12,27,47,71,87,107,127,147,167,188,208,229,248,267,287,307,328,347,367,387,407,428,448,467,488,507,529,548,568,587,608,627,648,668,687,707,727,748,768,787,807,827,848,868,887,908,929,947,968,988,1007,1027,1048,1067,1088,1107,1128,1148,1168,1188,1207,1227],"xSR":741.5,"ySR":469.95,"xT1":424.9,"yT1":0,"xT2":1058.1,"yT2":0,"toosoon":0,"cond_shown":"equaldotsize","ratio_trial":750,"smaller_num":"15","larger_num":"20","correct_side":2,"subjID":"diegoalejandroarevalo9","gender":"0","age":"10","school":"4"},{"start_time":1552309612549,"click_time":1552309614537,"finger_time":1552309613518,"fix_duration":250,"trial":12,"RT":969,"MT":1019,"sideResp":1,"stimulus":"img/250/equaldotsize/L/7_Ratio_250_L_8_R_2.png","xmouse":[757,757,758,758,758,759,759,759,759,759,759,759,759,759,759,759,759,759,759,759,759,759,759,759,759,759,759,759,759,759,759,759,759,759,759,759,759,759,759,759,759,759,759,759,759,759,759,761,761,757,746,745,744,744,744,742,737,729,720,711,699,695,690,676,658,641,620,617,617,617,607,592,563,524,497,491,491,491,491,491,491,491,491,491,498,503,507,508,508,508,508,508,507,507,507,507,506,506,505,503],"ymouse":[500,500,500,500,500,500,500,500,500,500,500,500,500,500,500,500,500,500,500,500,500,500,500,500,500,500,500,500,500,500,500,500,500,500,500,500,500,500,500,500,500,500,500,500,500,500,500,492,463,428,389,376,369,369,369,368,359,345,326,311,293,288,282,271,257,240,220,218,218,218,212,203,183,154,129,124,124,124,124,124,124,124,123,123,122,119,117,116,116,116,114,113,112,112,112,109,106,105,102,97],"timestamp_mouse":[10,29,58,68,88,107,127,149,168,188,207,228,247,268,287,309,329,348,368,388,407,429,448,468,488,507,528,548,568,587,607,627,648,668,688,707,728,748,768,788,809,827,847,868,888,907,928,947,969,989,1008,1027,1047,1067,1087,1108,1127,1147,1167,1188,1208,1227,1247,1267,1287,1308,1327,1348,1369,1388,1408,1427,1447,1468,1487,1508,1528,1548,1568,1588,1608,1628,1647,1668,1687,1709,1727,1747,1768,1787,1809,1827,1847,1868,1887,1909,1927,1948,1968,1988],"xSR":741.5,"ySR":469.95,"xT1":424.9,"yT1":0,"xT2":1058.1,"yT2":0,"toosoon":0,"cond_shown":"equaldotsize","ratio_trial":250,"smaller_num":"2","larger_num":"8","correct_side":1,"subjID":"diegoalejandroarevalo9","gender":"0","age":"10","school":"4"},{"start_time":1552309720382,"click_time":1552309722516,"finger_time":1552309720917,"fix_duration":1363.9422621083825,"trial":13,"RT":535,"MT":1599,"sideResp":1,"stimulus":"img/500/randomdotsizeEA/R/1_Ratio_500_L_9_R_18.png","xmouse":[784,784,784,784,784,784,784,784,784,784,782,780,779,779,779,779,779,779,779,779,778,778,778,777,772,760,721,699,684,670,665,665,664,664,663,661,653,645,638,632,630,630,630,630,627,617,612,611,610,607,604,603,603,603,603,603,603,603,603,604,610,650,670,687,701,716,740,746,750,754,757,777,802,818,830,838,845,849,853,856,859,862,862,859,851,840,811,800,794,789,781,736,681,646,602,575,537,522,511,508,508,508,508,507,507,508,512],"ymouse":[508,508,508,508,508,508,508,508,508,509,512,514,514,515,515,515,515,515,515,515,516,516,516,516,513,507,486,474,467,461,459,459,459,458,458,456,451,444,437,427,419,388,352,324,299,263,256,256,256,256,256,256,256,256,256,256,256,256,256,256,257,255,249,245,242,242,238,235,233,230,228,220,219,219,218,215,210,209,208,208,208,208,208,209,210,211,211,211,211,211,211,186,163,148,135,126,117,112,109,109,109,109,109,109,107,104,96],"timestamp_mouse":[15,35,63,76,96,114,134,155,175,194,216,235,255,275,296,315,334,354,376,396,416,435,455,475,495,514,535,555,575,595,615,634,654,674,694,716,734,754,775,794,815,834,856,874,894,916,935,955,974,994,1015,1034,1055,1074,1094,1116,1134,1155,1175,1194,1215,1234,1254,1274,1295,1314,1335,1354,1375,1394,1414,1434,1455,1475,1496,1515,1534,1554,1576,1595,1615,1634,1654,1675,1695,1715,1734,1754,1775,1795,1816,1835,1855,1874,1895,1915,1934,1955,1975,1995,2014,2035,2056,2076,2095,2115,2134],"xSR":741.5,"ySR":469.95,"xT1":424.9,"yT1":0,"xT2":1058.1,"yT2":0,"toosoon":0,"cond_shown":"randomdotsizeEA","ratio_trial":500,"smaller_num":"9","larger_num":"18","correct_side":2,"subjID":"diegoalejandroarevalo9","gender":"0","age":"10","school":"4"},{"start_time":1552309726468,"click_time":1552309727977,"finger_time":1552309727317,"fix_duration":250,"trial":14,"RT":849,"MT":660,"sideResp":2,"stimulus":"img/900/equaldotanddens/L/1_Ratio_900_L_10_R_9.png","xmouse":[791,791,791,791,791,791,791,791,791,791,791,791,790,790,790,790,790,790,790,790,790,789,789,789,789,789,789,789,789,789,789,789,789,789,789,789,789,789,789,789,789,790,812,820,827,834,845,878,903,927,950,965,967,959,951,951,952,977,988,995,995,990,987,986,986,992,1008,1030,1038,1042,1044,1045,1059,1073,1087,1104],"ymouse":[516,516,516,516,516,516,516,516,516,516,516,516,516,516,516,516,516,516,516,516,516,515,515,515,515,515,515,515,515,515,515,515,515,515,515,515,515,515,515,515,515,503,461,439,418,399,376,357,352,349,340,327,296,281,271,269,261,221,198,172,154,144,141,141,139,129,117,109,109,109,109,109,109,107,105,99],"timestamp_mouse":[11,28,49,69,88,109,129,149,169,188,209,228,249,268,289,310,329,348,368,388,409,429,448,468,489,509,529,548,568,588,608,628,649,668,688,710,728,748,769,788,809,830,849,869,889,908,928,950,968,988,1008,1029,1050,1069,1090,1110,1130,1149,1168,1188,1208,1228,1249,1268,1288,1308,1328,1349,1369,1389,1409,1429,1450,1468,1490,1508],"xSR":741.5,"ySR":469.95,"xT1":424.9,"yT1":0,"xT2":1058.1,"yT2":0,"toosoon":0,"cond_shown":"equaldotanddens","ratio_trial":900,"smaller_num":"9","larger_num":"10","correct_side":1,"subjID":"diegoalejandroarevalo9","gender":"0","age":"10","school":"4"},{"start_time":1552309729708,"click_time":1552309730958,"finger_time":1552309730736,"fix_duration":250,"trial":15,"RT":1028,"MT":222,"sideResp":2,"stimulus":"img/750/equaldotsize/R/4_Ratio_750_L_15_R_20.png","xmouse":[793,793,793,793,793,793,793,793,793,793,793,793,793,793,793,793,793,793,793,793,794,794,794,794,794,794,794,794,794,794,794,794,794,794,794,794,794,794,794,794,794,795,797,798,799,804,806,807,807,807,807,812,821,837,856,870,875,875,878,887,908,1030,1084],"ymouse":[540,540,540,540,540,540,540,540,540,540,540,540,540,540,540,540,540,540,540,539,538,538,537,537,537,537,537,537,537,537,537,537,537,537,537,537,537,537,537,537,535,528,516,510,505,497,492,492,492,492,487,393,340,288,251,229,214,208,198,182,160,103,96],"timestamp_mouse":[13,40,49,69,88,109,130,148,168,189,208,229,250,268,289,308,329,350,369,388,409,429,449,468,489,508,528,549,568,588,609,629,649,668,688,708,729,749,769,789,809,829,849,870,889,908,929,949,969,990,1010,1028,1048,1068,1089,1109,1128,1149,1169,1189,1209,1228,1249],"xSR":741.5,"ySR":469.95,"xT1":424.9,"yT1":0,"xT2":1058.1,"yT2":0,"toosoon":0,"cond_shown":"equaldotsize","ratio_trial":750,"smaller_num":"15","larger_num":"20","correct_side":2,"subjID":"diegoalejandroarevalo9","gender":"0","age":"10","school":"4"},{"start_time":1552309734620,"click_time":1552309736297,"finger_time":1552309735396,"fix_duration":1002.5323986613033,"trial":16,"RT":776,"MT":901,"sideResp":2,"stimulus":"img/500/equaldotsize/R/1_Ratio_500_L_9_R_18.png","xmouse":[813,813,813,813,813,813,813,813,813,813,813,813,813,813,813,813,813,813,813,813,813,813,813,813,813,813,813,813,813,813,813,813,813,814,815,818,824,833,840,849,885,912,937,970,980,996,996,996,995,993,991,990,990,992,993,998,1010,1029,1044,1053,1056,1055,1055,1055,1055,1055,1055,1055,1055,1055,1054,1053,1052,1047,1044,1040,1040,1040,1040,1040,1041,1044,1051,1067],"ymouse":[512,512,512,512,512,512,512,512,512,512,512,512,512,512,512,512,512,512,512,512,512,512,512,512,512,512,512,512,512,512,512,512,512,511,506,496,486,471,454,426,304,254,224,198,193,188,188,188,187,185,183,161,150,139,138,136,128,113,93,68,21,11,9,9,9,9,9,9,9,9,10,11,15,23,30,39,41,41,41,41,41,41,41,40],"timestamp_mouse":[16,39,57,78,98,118,136,157,176,197,218,237,256,276,297,316,337,356,377,396,418,437,457,477,498,517,536,557,577,597,617,636,656,676,696,716,738,757,776,796,817,837,856,876,896,917,937,957,976,997,1017,1037,1056,1076,1097,1118,1136,1156,1177,1197,1218,1236,1256,1277,1296,1317,1337,1357,1377,1397,1418,1436,1456,1481,1497,1517,1536,1556,1576,1596,1617,1636,1656,1677],"xSR":741.5,"ySR":469.95,"xT1":424.9,"yT1":0,"xT2":1058.1,"yT2":0,"toosoon":0,"cond_shown":"equaldotsize","ratio_trial":500,"smaller_num":"9","larger_num":"18","correct_side":2,"subjID":"diegoalejandroarevalo9","gender":"0","age":"10","school":"4"},{"start_time":1552309740243,"click_time":1552309741697,"finger_time":1552309741017,"fix_duration":1404.3431493989378,"trial":17,"RT":774,"MT":680,"sideResp":2,"stimulus":"img/900/equaldotanddens/R/12_Ratio_900_L_18_R_20.png","xmouse":[789,789,789,789,789,789,789,789,789,789,789,789,789,789,789,789,789,789,789,789,789,789,789,789,789,789,789,789,789,789,789,789,789,789,789,789,792,797,808,829,851,852,854,855,858,867,874,881,891,903,930,938,944,948,950,955,961,968,975,985,1018,1026,1031,1034,1039,1045,1051,1057,1060,1061,1061,1061,1061],"ymouse":[505,505,505,505,505,505,505,505,505,505,505,505,505,505,505,505,505,505,505,505,505,505,505,505,505,505,505,505,505,505,505,505,505,505,505,505,495,476,444,395,360,356,353,351,345,329,316,302,285,265,226,217,208,204,200,189,179,170,160,150,129,125,120,117,114,110,105,102,100,100,100,100,99],"timestamp_mouse":[14,35,59,73,94,114,135,153,174,193,213,234,255,274,294,313,334,355,374,393,413,433,454,475,494,514,533,554,575,594,614,633,653,673,693,713,734,753,774,794,814,833,854,873,893,913,935,953,974,993,1013,1034,1053,1074,1095,1113,1133,1153,1174,1194,1213,1234,1254,1274,1294,1313,1334,1353,1374,1395,1414,1433,1454],"xSR":741.5,"ySR":469.95,"xT1":424.9,"yT1":0,"xT2":1058.1,"yT2":0,"toosoon":0,"cond_shown":"equaldotanddens","ratio_trial":900,"smaller_num":"18","larger_num":"20","correct_side":2,"subjID":"diegoalejandroarevalo9","gender":"0","age":"10","school":"4"},{"start_time":1552309743061,"click_time":1552309744676,"finger_time":1552309744037,"fix_duration":302.10838193812,"trial":18,"RT":976,"MT":639,"sideResp":1,"stimulus":"img/250/randomdotsizeEA/L/3_Ratio_250_L_8_R_2.png","xmouse":[773,773,773,773,773,773,773,773,773,773,773,773,773,773,773,773,773,773,773,773,773,773,773,773,773,773,773,773,773,773,773,773,773,773,773,773,773,772,771,766,762,759,759,759,759,758,756,750,728,677,657,645,638,631,623,619,617,615,613,611,604,596,581,563,535,528,526,526,526,527,527,527,527,527,527,527,527,527,527,527,524],"ymouse":[529,529,529,529,529,529,529,529,529,529,529,529,529,529,529,529,529,529,529,529,529,529,529,529,529,529,529,529,529,529,529,529,529,529,529,529,529,528,528,527,526,524,524,524,524,523,521,515,496,463,447,435,419,402,369,355,347,339,328,316,275,246,212,176,120,101,87,71,64,60,60,60,60,59,59,59,59,59,59,59,60],"timestamp_mouse":[15,35,56,76,95,117,136,156,175,197,215,236,257,276,295,316,336,355,376,395,416,437,456,476,495,516,536,555,576,595,615,635,657,675,695,715,736,755,775,796,816,836,856,875,895,915,935,957,976,996,1015,1035,1055,1076,1096,1116,1136,1155,1175,1195,1215,1235,1256,1276,1296,1315,1335,1356,1375,1397,1416,1436,1455,1477,1497,1516,1537,1556,1576,1595,1615],"xSR":741.5,"ySR":469.95,"xT1":424.9,"yT1":0,"xT2":1058.1,"yT2":0,"toosoon":0,"cond_shown":"randomdotsizeEA","ratio_trial":250,"smaller_num":"2","larger_num":"8","correct_side":1,"subjID":"diegoalejandroarevalo9","gender":"0","age":"10","school":"4"},{"start_time":1552309747778,"click_time":1552309749118,"finger_time":1552309748517,"fix_duration":1398.1377836847453,"trial":19,"RT":739,"MT":601,"sideResp":2,"stimulus":"img/250/equaldotsize/R/9_Ratio_250_L_3_R_12.png","xmouse":[773,773,773,773,773,773,773,773,773,773,773,773,773,773,773,773,773,773,773,773,773,773,773,773,773,773,773,773,773,773,773,773,773,782,798,812,829,849,863,893,897,899,902,904,911,913,917,925,952,1050,1090,1110,1118,1118,1104,1095,1092,1092,1092,1092,1092,1092,1092,1092,1092,1092,1092],"ymouse":[530,530,530,530,530,530,530,530,530,530,530,529,529,529,529,529,529,529,529,529,529,529,529,529,529,529,529,529,529,529,529,529,529,520,505,489,460,423,393,327,322,320,316,309,290,280,269,260,247,227,214,198,182,170,148,137,132,131,130,129,129,129,128,128,118,108,98],"timestamp_mouse":[18,40,59,78,98,119,140,159,179,199,220,239,259,279,299,319,339,358,378,399,418,438,459,480,500,518,539,559,578,598,619,638,658,679,698,720,739,759,778,798,819,839,859,879,899,918,938,959,978,998,1019,1039,1058,1079,1098,1118,1138,1159,1178,1198,1219,1239,1258,1279,1299,1319,1340],"xSR":741.5,"ySR":469.95,"xT1":424.9,"yT1":0,"xT2":1058.1,"yT2":0,"toosoon":0,"cond_shown":"equaldotsize","ratio_trial":250,"smaller_num":"3","larger_num":"12","correct_side":2,"subjID":"diegoalejandroarevalo9","gender":"0","age":"10","school":"4"},{"start_time":1552309750627,"click_time":1552309752397,"finger_time":1552309751676,"fix_duration":349.211410160472,"trial":20,"RT":1049,"MT":721,"sideResp":1,"stimulus":"img/250/equaldotanddens/L/15_Ratio_250_L_12_R_3.png","xmouse":[812,812,812,812,812,812,812,812,812,812,812,812,812,812,812,812,812,812,812,812,812,812,812,812,812,812,812,812,812,812,812,812,812,812,812,812,812,809,807,805,805,805,805,803,802,799,792,770,766,762,760,755,732,718,707,695,693,693,696,696,692,683,676,667,657,647,635,621,616,613,610,608,604,603,601,600,589,573,570,569,569,569,568,567,564,553,533,512,506],"ymouse":[526,526,526,526,526,526,526,526,526,526,526,526,526,526,526,526,526,526,526,526,526,526,526,526,526,526,526,526,526,526,526,526,526,526,526,526,526,525,524,523,523,523,523,523,522,521,515,494,489,486,485,481,458,447,437,427,426,426,415,405,391,375,358,343,325,308,290,272,266,262,258,252,225,209,193,170,137,118,114,113,112,112,110,110,110,108,105,100,98],"timestamp_mouse":[9,29,49,70,89,109,130,150,169,191,210,231,250,269,290,310,330,349,369,390,410,429,449,469,489,510,531,550,570,590,611,630,649,669,690,710,729,749,771,790,810,830,849,870,891,910,930,949,969,989,1010,1030,1049,1069,1090,1110,1129,1150,1171,1189,1209,1231,1251,1269,1289,1309,1330,1350,1369,1389,1410,1429,1451,1469,1490,1510,1529,1550,1569,1590,1611,1631,1651,1670,1689,1710,1729,1750,1769],"xSR":741.5,"ySR":469.95,"xT1":424.9,"yT1":0,"xT2":1058.1,"yT2":0,"toosoon":0,"cond_shown":"equaldotanddens","ratio_trial":250,"smaller_num":"3","larger_num":"12","correct_side":1,"subjID":"diegoalejandroarevalo9","gender":"0","age":"10","school":"4"},{"start_time":1552309754211,"click_time":1552309755696,"finger_time":1552309754976,"fix_duration":432.97257101601514,"trial":21,"RT":765,"MT":720,"sideResp":2,"stimulus":"img/900/equaldotanddens/R/12_Ratio_900_L_18_R_20.png","xmouse":[767,767,767,767,767,767,767,767,767,767,767,767,767,767,767,767,767,767,767,767,767,767,767,767,767,767,767,767,767,767,767,767,767,767,767,770,777,787,800,842,859,870,878,888,888,889,890,893,898,926,944,960,971,978,983,984,985,985,985,986,986,986,988,994,1007,1018,1021,1023,1026,1032,1036,1041,1047,1053,1059],"ymouse":[492,492,492,492,492,492,492,492,492,492,492,492,492,492,492,492,492,492,492,492,492,492,492,492,492,492,492,492,492,492,492,492,492,492,492,488,481,470,454,373,335,325,320,313,312,312,308,303,293,244,219,201,188,177,164,154,144,133,125,120,120,120,120,120,116,112,110,110,108,106,105,104,102,101,98],"timestamp_mouse":[18,25,45,67,86,106,125,147,166,187,207,226,247,265,285,307,326,346,367,386,406,425,445,466,485,506,527,546,565,585,606,627,646,667,686,706,726,745,765,785,806,825,846,867,885,906,925,945,965,986,1006,1026,1046,1066,1085,1106,1127,1146,1166,1186,1205,1225,1246,1265,1285,1306,1327,1345,1366,1385,1406,1426,1445,1466,1485],"xSR":741.5,"ySR":469.95,"xT1":424.9,"yT1":0,"xT2":1058.1,"yT2":0,"toosoon":0,"cond_shown":"equaldotanddens","ratio_trial":900,"smaller_num":"18","larger_num":"20","correct_side":2,"subjID":"diegoalejandroarevalo9","gender":"0","age":"10","school":"4"},{"start_time":1552309758197,"click_time":1552309759677,"finger_time":1552309759117,"fix_duration":1278.2549245887697,"trial":22,"RT":920,"MT":560,"sideResp":2,"stimulus":"img/900/equaldotsize/R/15_Ratio_900_L_9_R_10.png","xmouse":[773,773,773,773,773,773,773,773,773,773,773,773,773,773,773,773,773,773,773,773,773,773,773,773,773,773,773,773,773,773,773,773,773,773,773,773,773,773,773,773,773,775,777,778,782,802,816,839,891,925,942,959,961,961,961,965,974,984,993,1002,1012,1013,1013,1013,1013,1014,1016,1020,1022,1028,1041,1046,1051,1056,1060],"ymouse":[521,521,521,521,521,521,521,521,521,521,521,521,521,521,521,521,521,521,521,521,521,521,521,521,521,521,521,521,521,521,521,521,521,521,521,521,521,521,519,518,517,514,512,510,505,480,459,418,297,216,189,158,154,153,153,144,131,116,99,84,67,65,65,65,65,68,71,75,77,79,85,86,87,87,87],"timestamp_mouse":[1,19,42,60,79,99,120,141,160,180,200,219,240,259,280,299,320,339,360,380,399,420,441,460,479,500,520,540,559,580,599,619,641,660,679,701,720,740,759,780,799,819,841,859,880,900,920,939,961,979,999,1020,1040,1060,1080,1099,1119,1139,1160,1180,1199,1219,1240,1260,1279,1300,1319,1340,1360,1380,1400,1419,1439,1460,1480],"xSR":741.5,"ySR":469.95,"xT1":424.9,"yT1":0,"xT2":1058.1,"yT2":0,"toosoon":0,"cond_shown":"equaldotsize","ratio_trial":900,"smaller_num":"9","larger_num":"10","correct_side":2,"subjID":"diegoalejandroarevalo9","gender":"0","age":"10","school":"4"},{"start_time":1552309762091,"click_time":1552309763316,"finger_time":1552309762897,"fix_duration":1112.505229735492,"trial":23,"RT":806,"MT":419,"sideResp":1,"stimulus":"img/250/equaldotsize/L/1_Ratio_250_L_8_R_2.png","xmouse":[800,800,800,800,800,800,800,800,800,800,800,800,800,800,800,800,800,800,800,800,800,800,800,800,800,800,800,800,800,800,800,800,800,800,800,799,793,786,774,768,750,726,686,636,583,540,502,496,493,492,492,492,492,491,491,492,493,498,503,507,510,504],"ymouse":[521,521,521,521,521,521,521,521,521,521,521,521,519,517,514,513,510,510,509,509,509,509,509,509,509,509,509,509,509,509,509,509,509,509,508,506,498,489,478,473,459,453,438,410,380,354,315,299,281,272,257,253,247,241,234,206,193,174,156,139,113,98],"timestamp_mouse":[9,26,47,65,86,106,127,146,165,186,206,226,246,266,285,305,325,346,365,385,406,425,446,465,486,506,527,545,565,586,605,627,646,665,685,706,725,746,767,786,806,825,845,866,887,905,925,946,967,986,1007,1025,1046,1065,1086,1107,1126,1145,1166,1185,1207,1225],"xSR":741.5,"ySR":469.95,"xT1":424.9,"yT1":0,"xT2":1058.1,"yT2":0,"toosoon":0,"cond_shown":"equaldotsize","ratio_trial":250,"smaller_num":"2","larger_num":"8","correct_side":1,"subjID":"diegoalejandroarevalo9","gender":"0","age":"10","school":"4"},{"start_time":1552309767963,"click_time":1552309769696,"finger_time":1552309768877,"fix_duration":705.6692052094966,"trial":24,"RT":914,"MT":819,"sideResp":2,"stimulus":"img/900/equaldotanddens/R/6_Ratio_900_L_9_R_10.png","xmouse":[784,784,784,784,784,784,784,784,784,784,784,784,784,784,784,784,784,784,784,784,784,784,784,784,784,784,784,784,784,784,784,784,784,784,784,784,784,784,784,784,784,785,787,792,810,851,889,919,923,929,936,941,955,964,973,982,993,1017,1028,1037,1045,1058,1078,1086,1089,1091,1091,1094,1095,1096,1096,1096,1097,1097,1099,1102,1105,1114,1119,1119,1119,1119,1119,1119,1119,1119,1119],"ymouse":[519,519,519,519,519,519,519,519,519,519,519,519,519,519,519,519,519,519,519,519,519,519,519,519,519,519,519,519,519,519,519,519,519,519,519,519,519,519,519,519,519,519,518,512,498,469,448,431,428,424,417,413,395,385,374,362,352,335,329,324,318,311,285,264,242,223,208,196,194,193,193,193,192,189,181,170,157,128,113,111,110,110,110,107,104,100,96],"timestamp_mouse":[14,47,54,74,94,115,134,153,173,193,215,234,254,274,295,313,333,353,373,393,415,435,453,473,493,514,534,555,574,593,614,633,653,674,693,713,734,753,774,794,814,834,853,874,894,914,933,954,973,994,1013,1033,1054,1073,1093,1113,1134,1153,1173,1195,1214,1233,1253,1273,1294,1314,1333,1354,1373,1393,1413,1433,1453,1473,1493,1513,1533,1554,1573,1594,1614,1634,1654,1673,1694,1714,1733],"xSR":741.5,"ySR":469.95,"xT1":424.9,"yT1":0,"xT2":1058.1,"yT2":0,"toosoon":0,"cond_shown":"equaldotanddens","ratio_trial":900,"smaller_num":"9","larger_num":"10","correct_side":2,"subjID":"diegoalejandroarevalo9","gender":"0","age":"10","school":"4"},{"start_time":1552309773319,"click_time":1552309774716,"finger_time":1552309774137,"fix_duration":1441.0036408184685,"trial":25,"RT":818,"MT":579,"sideResp":2,"stimulus":"img/900/equaldotsize/R/9_Ratio_900_L_18_R_20.png","xmouse":[769,769,770,771,772,774,774,774,776,776,776,776,777,778,779,779,781,781,781,781,781,781,781,781,781,781,781,781,781,781,781,782,784,785,788,793,796,799,806,817,863,907,930,945,952,961,974,979,995,1009,1055,1070,1082,1091,1096,1098,1098,1098,1100,1100,1101,1101,1098,1095,1094,1093,1093,1093,1093,1093],"ymouse":[508,508,508,508,508,510,510,510,510,510,510,510,510,510,510,510,510,510,510,510,510,510,510,510,510,510,510,510,510,510,510,510,510,510,510,507,505,502,495,484,442,411,395,383,374,354,326,317,295,279,238,223,207,193,180,166,162,160,156,152,134,128,124,121,120,115,110,104,100,98],"timestamp_mouse":[17,37,58,78,98,118,138,158,178,198,218,237,258,278,297,317,337,358,379,398,417,437,458,478,498,518,539,558,578,597,618,637,658,677,697,718,737,758,778,797,818,837,857,877,898,917,938,958,978,997,1017,1038,1057,1077,1098,1117,1138,1158,1178,1197,1217,1238,1258,1277,1298,1318,1338,1357,1377,1397],"xSR":741.5,"ySR":469.95,"xT1":424.9,"yT1":0,"xT2":1058.1,"yT2":0,"toosoon":0,"cond_shown":"equaldotsize","ratio_trial":900,"smaller_num":"18","larger_num":"20","correct_side":2,"subjID":"diegoalejandroarevalo9","gender":"0","age":"10","school":"4"},{"start_time":1552309777035,"click_time":1552309777981,"finger_time":1552309777781,"fix_duration":976.08968645095,"trial":26,"RT":746,"MT":200,"sideResp":2,"stimulus":"img/500/equaldotsize/R/6_Ratio_500_L_9_R_18.png","xmouse":[810,810,810,810,810,810,810,810,810,810,810,810,810,810,810,810,810,810,810,810,810,810,810,810,810,810,810,810,810,810,810,810,810,810,810,814,824,841,871,933,996,1069,1076,1078,1082,1096,1109,1126],"ymouse":[493,493,493,493,493,493,493,493,493,493,493,493,493,493,493,493,493,493,493,493,493,493,493,493,493,493,493,493,493,493,493,493,493,493,493,487,472,446,393,316,243,187,182,178,169,135,113,86],"timestamp_mouse":[10,39,42,62,81,102,122,141,162,181,202,223,247,266,287,306,326,346,366,386,407,427,447,467,487,507,526,546,566,586,606,626,646,666,686,706,726,746,767,786,806,827,846,867,886,906,926,946],"xSR":741.5,"ySR":469.95,"xT1":424.9,"yT1":0,"xT2":1058.1,"yT2":0,"toosoon":0,"cond_shown":"equaldotsize","ratio_trial":500,"smaller_num":"9","larger_num":"18","correct_side":2,"subjID":"diegoalejandroarevalo9","gender":"0","age":"10","school":"4"},{"start_time":1552309779853,"click_time":1552309781261,"finger_time":1552309780642,"fix_duration":250,"trial":27,"RT":789,"MT":619,"sideResp":1,"stimulus":"img/500/equaldotanddens/L/7_Ratio_500_L_10_R_5.png","xmouse":[796,796,796,792,784,784,784,784,784,784,783,783,782,782,782,782,782,782,782,782,782,782,782,782,782,782,782,782,782,782,782,782,782,782,781,778,767,754,742,721,713,712,706,702,696,681,673,667,661,654,645,636,626,610,586,544,532,529,528,527,526,523,522,522,522,522,521,521,521,521,510],"ymouse":[500,500,500,501,501,501,501,501,501,501,502,502,502,502,502,502,502,502,502,501,500,500,500,500,500,500,500,500,500,500,500,500,500,500,500,498,491,482,470,452,442,440,433,428,422,405,395,387,375,363,338,309,287,264,235,191,178,173,167,162,157,154,154,154,154,154,153,147,137,122,91],"timestamp_mouse":[9,28,48,68,89,109,128,148,169,188,209,229,248,268,288,309,329,349,368,389,408,428,449,469,489,509,529,549,569,589,608,629,649,669,689,708,729,749,769,789,808,828,848,868,888,908,928,948,968,988,1008,1029,1049,1069,1088,1108,1128,1149,1168,1189,1208,1228,1249,1268,1288,1309,1328,1349,1369,1388,1408],"xSR":741.5,"ySR":469.95,"xT1":424.9,"yT1":0,"xT2":1058.1,"yT2":0,"toosoon":0,"cond_shown":"equaldotanddens","ratio_trial":500,"smaller_num":"5","larger_num":"10","correct_side":1,"subjID":"diegoalejandroarevalo9","gender":"0","age":"10","school":"4"},{"start_time":1552309784749,"click_time":1552309786022,"finger_time":1552309785561,"fix_duration":786.391979045542,"trial":28,"RT":812,"MT":461,"sideResp":1,"stimulus":"img/250/equaldotanddens/L/2_Ratio_250_L_16_R_4.png","xmouse":[783,783,783,783,783,783,783,783,783,783,783,783,783,783,783,783,783,783,783,783,783,784,785,786,788,792,792,792,792,792,792,792,792,792,792,790,786,781,777,767,722,679,626,570,506,491,483,483,483,483,479,476,474,473,473,473,473,473,473,473,473,473,472,472],"ymouse":[506,506,506,506,506,506,506,506,506,506,506,506,506,506,506,506,506,506,506,506,506,506,505,504,502,498,497,497,497,497,497,497,497,496,496,496,496,496,493,486,455,414,362,304,245,226,206,197,187,173,151,142,136,134,133,126,122,118,113,111,107,105,100,98],"timestamp_mouse":[12,45,53,72,93,113,132,152,173,193,213,233,253,272,293,313,332,352,373,393,413,432,453,472,492,512,533,552,572,592,613,633,652,672,693,713,733,752,773,793,812,832,853,873,893,912,932,953,972,993,1012,1032,1052,1073,1093,1112,1132,1152,1172,1192,1212,1232,1252,1273],"xSR":741.5,"ySR":469.95,"xT1":424.9,"yT1":0,"xT2":1058.1,"yT2":0,"toosoon":0,"cond_shown":"equaldotanddens","ratio_trial":250,"smaller_num":"4","larger_num":"16","correct_side":1,"subjID":"diegoalejandroarevalo9","gender":"0","age":"10","school":"4"},{"start_time":1552309790083,"click_time":1552309791222,"finger_time":1552309790521,"fix_duration":458.3389786929322,"trial":29,"RT":438,"MT":701,"sideResp":1,"stimulus":"img/500/equaldotsize/L/4_Ratio_500_L_18_R_9.png","xmouse":[769,769,769,769,769,769,769,769,770,770,770,770,770,770,770,770,770,770,770,770,771,772,774,777,780,780,777,776,775,774,770,766,762,757,749,730,712,697,678,655,598,571,557,552,551,551,551,551,549,549,546,542,538,531,522,503,495,487],"ymouse":[490,489,489,489,488,487,486,486,485,485,485,485,485,485,485,485,485,485,485,484,478,470,455,426,391,339,329,325,324,323,323,323,323,322,318,302,280,266,253,242,231,231,231,231,231,221,214,203,192,183,167,160,153,144,136,115,104,90],"timestamp_mouse":[1,21,50,58,79,98,119,138,159,178,198,219,239,259,278,299,319,338,359,379,398,419,438,459,478,498,519,538,558,579,598,619,638,659,679,698,719,738,758,779,798,819,838,859,878,898,918,938,959,979,999,1018,1038,1059,1079,1098,1118,1139],"xSR":741.5,"ySR":469.95,"xT1":424.9,"yT1":0,"xT2":1058.1,"yT2":0,"toosoon":0,"cond_shown":"equaldotsize","ratio_trial":500,"smaller_num":"9","larger_num":"18","correct_side":1,"subjID":"diegoalejandroarevalo9","gender":"0","age":"10","school":"4"},{"start_time":1552309793484,"click_time":1552309794962,"finger_time":1552309794281,"fix_duration":601.6984687947418,"trial":30,"RT":797,"MT":681,"sideResp":2,"stimulus":"img/500/equaldotsize/R/1_Ratio_500_L_9_R_18.png","xmouse":[776,776,776,776,776,776,776,776,776,776,776,776,776,776,776,776,776,776,776,776,776,776,776,776,776,776,776,776,776,776,776,776,776,776,776,776,778,780,785,803,811,823,841,854,867,870,874,877,879,884,893,896,903,904,914,919,924,928,932,945,954,964,973,991,1003,1020,1022,1022,1023,1029,1034,1043,1056,1076],"ymouse":[522,522,522,522,522,522,522,522,522,522,522,522,522,522,522,522,522,522,522,522,522,522,522,522,522,522,522,522,522,522,522,522,522,522,522,522,520,518,507,462,435,392,314,255,219,213,209,207,205,199,174,160,142,140,132,130,129,128,127,120,114,106,102,96,95,95,95,95,95,93,92,90,90,90],"timestamp_mouse":[18,37,58,77,97,117,137,157,177,198,218,237,258,278,297,318,337,357,378,398,418,438,457,477,497,518,537,558,578,597,617,638,658,678,698,718,737,757,778,797,817,837,858,877,898,917,937,957,977,997,1018,1037,1058,1077,1097,1119,1138,1158,1177,1198,1217,1237,1257,1278,1297,1318,1338,1357,1378,1397,1417,1437,1457,1478],"xSR":741.5,"ySR":469.95,"xT1":424.9,"yT1":0,"xT2":1058.1,"yT2":0,"toosoon":0,"cond_shown":"equaldotsize","ratio_trial":500,"smaller_num":"9","larger_num":"18","correct_side":2,"subjID":"diegoalejandroarevalo9","gender":"0","age":"10","school":"4"},{"start_time":1552309797759,"click_time":1552309799241,"finger_time":1552309798562,"fix_duration":1196.0416840769417,"trial":31,"RT":803,"MT":679,"sideResp":1,"stimulus":"img/500/equaldotanddens/L/11_Ratio_500_L_12_R_6.png","xmouse":[800,800,800,800,800,800,800,800,800,800,800,800,800,800,800,800,800,800,800,800,800,800,800,800,800,800,800,800,800,800,800,800,800,800,800,799,798,794,790,787,782,777,766,757,748,740,727,699,686,671,659,648,631,625,620,616,613,607,600,594,587,578,553,536,518,505,497,497,497,497,497,497,496,495,495],"ymouse":[497,497,497,497,497,497,497,497,497,497,497,497,497,497,497,497,497,497,497,497,497,497,497,497,497,497,497,497,497,497,497,497,497,497,497,496,494,484,476,472,465,459,445,436,426,417,404,374,358,331,312,294,262,248,235,222,212,196,187,178,171,164,148,139,129,121,113,110,109,109,109,108,104,102,99],"timestamp_mouse":[20,35,43,62,83,102,122,143,162,183,202,222,242,263,282,302,322,342,362,382,402,423,443,463,484,503,523,542,562,583,602,622,642,663,683,702,724,743,762,783,803,822,843,863,882,904,922,942,962,983,1003,1022,1042,1063,1083,1103,1123,1142,1163,1183,1203,1223,1242,1263,1282,1302,1323,1342,1363,1383,1403,1423,1442,1462,1482],"xSR":741.5,"ySR":469.95,"xT1":424.9,"yT1":0,"xT2":1058.1,"yT2":0,"toosoon":0,"cond_shown":"equaldotanddens","ratio_trial":500,"smaller_num":"6","larger_num":"12","correct_side":1,"subjID":"diegoalejandroarevalo9","gender":"0","age":"10","school":"4"},{"start_time":1552309800814,"click_time":1552309802501,"finger_time":1552309802041,"fix_duration":250,"trial":32,"RT":1227,"MT":460,"sideResp":2,"stimulus":"img/900/randomdotsizeEA/L/8_Ratio_900_L_20_R_18.png","xmouse":[771,771,771,771,771,771,771,771,772,773,775,775,775,775,775,775,776,776,776,776,776,776,776,776,777,777,778,778,778,778,778,778,778,778,778,778,778,778,778,778,778,778,778,778,778,778,778,778,778,778,778,778,778,778,779,782,787,793,802,826,837,845,847,847,847,847,847,847,847,847,848,858,872,904,966,999,1032,1053,1066,1081,1084,1089,1098,1109,1124],"ymouse":[525,525,525,525,525,525,525,525,525,525,525,525,525,525,525,525,526,527,527,527,527,527,527,528,528,528,528,528,528,528,528,528,528,528,528,528,528,528,528,528,528,528,528,528,528,528,528,528,528,528,528,528,528,528,528,526,521,515,505,488,482,480,479,479,479,479,479,479,479,479,479,466,447,392,302,260,216,185,165,145,142,136,127,116,99],"timestamp_mouse":[9,28,47,69,87,107,128,147,167,188,208,228,249,268,288,307,327,347,367,387,409,428,448,467,488,507,528,548,567,588,608,627,648,668,687,708,728,747,767,788,808,828,848,867,887,908,927,948,967,988,1007,1028,1047,1067,1088,1108,1128,1148,1167,1187,1207,1227,1248,1268,1287,1308,1328,1347,1367,1387,1407,1428,1448,1468,1487,1508,1527,1548,1568,1587,1608,1628,1647,1668,1687],"xSR":741.5,"ySR":469.95,"xT1":424.9,"yT1":0,"xT2":1058.1,"yT2":0,"toosoon":0,"cond_shown":"randomdotsizeEA","ratio_trial":900,"smaller_num":"18","larger_num":"20","correct_side":1,"subjID":"diegoalejandroarevalo9","gender":"0","age":"10","school":"4"},{"start_time":1552309804608,"click_time":1552309805901,"finger_time":1552309805542,"fix_duration":825.0388039743265,"trial":33,"RT":934,"MT":359,"sideResp":1,"stimulus":"img/750/randomdotsizeEA/L/8_Ratio_750_L_4_R_3.png","xmouse":[775,775,775,775,775,775,775,775,775,775,775,775,775,775,775,775,775,775,775,775,775,775,775,775,775,775,775,775,775,775,775,775,775,775,775,775,775,775,775,775,775,775,772,770,756,746,733,718,700,680,649,640,637,635,630,625,618,615,611,608,597,584,557,534,511],"ymouse":[517,517,517,517,517,517,517,517,517,517,517,517,517,517,517,517,517,517,517,517,517,517,517,517,517,517,517,517,517,517,517,517,517,517,517,517,517,517,517,517,517,515,509,505,487,479,473,468,462,451,411,374,354,335,307,295,285,278,269,255,207,180,141,116,97],"timestamp_mouse":[14,34,57,73,93,113,133,154,173,194,214,233,253,273,293,314,334,354,374,394,414,435,453,473,493,515,533,553,573,595,614,633,653,673,693,713,734,753,774,793,814,833,854,874,894,913,934,954,973,993,1014,1033,1054,1074,1094,1113,1133,1154,1173,1193,1213,1233,1253,1273,1293],"xSR":741.5,"ySR":469.95,"xT1":424.9,"yT1":0,"xT2":1058.1,"yT2":0,"toosoon":0,"cond_shown":"randomdotsizeEA","ratio_trial":750,"smaller_num":"3","larger_num":"4","correct_side":1,"subjID":"diegoalejandroarevalo9","gender":"0","age":"10","school":"4"},{"start_time":1552309808275,"click_time":1552309810001,"finger_time":1552309809041,"fix_duration":1032.2776579300164,"trial":34,"RT":766,"MT":960,"sideResp":1,"stimulus":"img/250/equaldotsize/L/2_Ratio_250_L_16_R_4.png","xmouse":[750,750,750,750,750,750,750,750,750,750,750,751,753,755,756,757,758,758,758,758,758,758,758,758,758,758,758,758,758,758,758,758,758,758,758,758,757,749,741,735,731,722,698,685,670,655,640,618,616,616,616,616,604,593,582,574,569,568,571,577,584,590,593,593,593,593,593,593,593,591,590,585,572,567,563,560,557,555,555,555,555,555,551,547,540,533,522],"ymouse":[510,510,510,510,510,510,510,510,510,510,508,507,503,500,497,496,494,494,494,494,494,494,494,494,494,494,494,494,494,494,494,494,494,494,494,494,494,484,467,445,428,405,366,355,341,321,305,282,275,267,258,245,216,203,192,184,178,158,144,130,117,106,97,97,97,97,97,97,96,94,93,92,91,90,89,89,86,84,84,84,84,84,84,84,84,82,77],"timestamp_mouse":[11,26,46,66,87,107,126,147,167,187,206,227,246,267,287,307,327,346,366,386,407,427,446,467,487,507,526,546,567,586,608,626,646,666,687,707,726,746,766,786,807,826,847,867,887,907,926,946,966,987,1006,1027,1046,1066,1087,1106,1126,1147,1167,1186,1207,1226,1246,1267,1287,1307,1327,1346,1367,1386,1406,1427,1447,1466,1487,1507,1527,1546,1566,1586,1606,1627,1646,1666,1687,1707,1726],"xSR":741.5,"ySR":469.95,"xT1":424.9,"yT1":0,"xT2":1058.1,"yT2":0,"toosoon":0,"cond_shown":"equaldotsize","ratio_trial":250,"smaller_num":"4","larger_num":"16","correct_side":1,"subjID":"diegoalejandroarevalo9","gender":"0","age":"10","school":"4"},{"start_time":1552309811753,"click_time":1552309813941,"finger_time":1552309812942,"fix_duration":709.9784504077621,"trial":35,"RT":1189,"MT":999,"sideResp":2,"stimulus":"img/900/randomdotsizeEA/R/15_Ratio_900_L_9_R_10.png","xmouse":[814,814,814,814,814,814,812,811,810,810,809,808,807,805,804,804,804,804,804,803,802,801,800,798,797,797,797,797,797,797,797,797,797,797,797,797,797,797,797,797,797,797,796,793,792,790,790,790,789,789,789,789,789,789,789,789,789,788,794,803,817,845,852,873,888,893,896,902,923,939,964,971,985,991,995,1004,1014,1023,1038,1043,1043,1043,1043,1044,1046,1048,1049,1049,1049,1049,1049,1049,1049,1049,1049,1053,1056,1061,1069,1070,1070,1070,1070,1070,1070,1070,1070,1070,1070,1071],"ymouse":[522,522,522,522,522,522,522,522,522,522,522,523,523,523,523,523,523,523,523,523,523,523,523,523,523,523,523,523,523,523,523,523,523,523,523,523,523,523,523,523,523,523,523,515,511,506,504,503,502,502,502,502,502,502,502,502,502,498,482,463,437,387,374,342,314,301,294,282,255,245,236,236,235,233,230,217,194,164,124,116,116,116,116,116,115,115,115,115,115,115,115,115,115,115,115,112,107,104,101,101,101,101,101,101,101,101,101,101,101,99],"timestamp_mouse":[9,29,48,68,89,108,129,148,168,189,210,229,249,268,289,309,329,348,369,389,409,428,448,469,488,509,528,548,568,588,608,628,649,669,689,709,728,748,768,788,809,829,848,868,889,908,928,949,970,989,1009,1029,1048,1068,1089,1108,1129,1149,1168,1189,1209,1229,1248,1269,1288,1309,1328,1349,1370,1388,1408,1429,1449,1469,1488,1509,1529,1548,1569,1588,1610,1629,1649,1669,1689,1708,1728,1749,1768,1788,1809,1829,1849,1868,1888,1908,1929,1949,1968,1988,2008,2029,2048,2069,2089,2108,2130,2148,2169,2188],"xSR":741.5,"ySR":469.95,"xT1":424.9,"yT1":0,"xT2":1058.1,"yT2":0,"toosoon":0,"cond_shown":"randomdotsizeEA","ratio_trial":900,"smaller_num":"9","larger_num":"10","correct_side":2,"subjID":"diegoalejandroarevalo9","gender":"0","age":"10","school":"4"},{"start_time":1552309815273,"click_time":1552309816882,"finger_time":1552309816401,"fix_duration":250,"trial":36,"RT":1128,"MT":481,"sideResp":1,"stimulus":"img/750/equaldotanddens/L/10_Ratio_750_L_4_R_3.png","xmouse":[754,754,754,754,754,754,754,754,754,754,754,754,754,754,754,754,754,754,754,754,754,754,754,754,754,754,754,754,754,754,754,754,754,754,754,754,754,754,754,754,754,754,754,755,756,757,758,758,758,758,758,758,758,758,757,745,729,716,689,677,664,650,633,596,591,590,590,592,599,600,600,599,597,595,594,593,589,583,550,533,521],"ymouse":[506,506,506,506,506,506,506,506,506,506,506,506,506,506,506,506,506,506,506,506,506,506,506,506,506,506,506,506,506,506,506,506,506,506,506,506,506,506,506,506,506,506,506,504,502,500,499,498,498,498,498,498,498,496,493,475,454,432,388,367,343,321,301,263,256,250,243,234,215,206,199,193,189,186,183,179,171,158,122,106,96],"timestamp_mouse":[13,28,48,68,88,109,129,148,168,189,209,229,248,269,289,309,328,348,368,388,408,429,448,468,488,509,528,548,568,589,608,629,648,669,689,708,728,749,768,788,808,829,848,868,888,909,929,949,969,988,1008,1028,1048,1068,1088,1109,1128,1148,1168,1189,1208,1228,1249,1269,1288,1308,1328,1348,1368,1389,1408,1429,1449,1468,1488,1508,1528,1548,1568,1588,1609],"xSR":741.5,"ySR":469.95,"xT1":424.9,"yT1":0,"xT2":1058.1,"yT2":0,"toosoon":0,"cond_shown":"equaldotanddens","ratio_trial":750,"smaller_num":"3","larger_num":"4","correct_side":1,"subjID":"diegoalejandroarevalo9","gender":"0","age":"10","school":"4"},{"start_time":1552309819688,"click_time":1552309821442,"finger_time":1552309820481,"fix_duration":1445.4602352248173,"trial":37,"RT":793,"MT":961,"sideResp":2,"stimulus":"img/250/equaldotanddens/R/9_Ratio_250_L_3_R_12.png","xmouse":[800,800,800,800,800,800,800,800,800,800,800,800,800,800,800,801,801,801,803,804,807,808,811,811,811,811,811,811,811,811,811,811,811,811,811,812,815,822,833,851,870,897,922,929,936,946,955,984,1000,1022,1041,1066,1081,1084,1085,1085,1085,1089,1093,1097,1100,1101,1103,1103,1103,1103,1103,1101,1099,1099,1099,1099,1099,1099,1099,1099,1099,1099,1099,1099,1099,1099,1099,1100,1100,1100,1100,1100],"ymouse":[510,510,510,510,510,510,510,510,510,510,510,510,510,510,510,509,509,509,508,507,507,506,506,506,506,506,506,506,506,506,506,506,506,506,506,506,506,504,498,488,472,444,424,416,407,393,376,324,290,258,234,216,206,204,204,201,198,180,168,157,148,141,139,139,138,134,132,118,111,111,111,111,111,111,111,111,111,111,111,111,110,110,107,105,103,101,100,97],"timestamp_mouse":[13,34,53,74,93,114,134,153,174,194,213,234,253,274,293,313,333,354,373,393,413,435,454,474,494,513,533,553,574,595,613,634,653,673,693,714,734,753,773,793,813,834,854,873,894,913,934,954,973,993,1015,1033,1053,1073,1093,1113,1133,1155,1173,1194,1213,1233,1254,1273,1293,1314,1333,1353,1373,1393,1413,1433,1453,1473,1494,1514,1533,1553,1573,1593,1614,1633,1654,1673,1694,1714,1734,1753],"xSR":741.5,"ySR":469.95,"xT1":424.9,"yT1":0,"xT2":1058.1,"yT2":0,"toosoon":0,"cond_shown":"equaldotanddens","ratio_trial":250,"smaller_num":"3","larger_num":"12","correct_side":2,"subjID":"diegoalejandroarevalo9","gender":"0","age":"10","school":"4"},{"start_time":1552309827812,"click_time":1552309829002,"finger_time":1552309828582,"fix_duration":1228.9833760166339,"trial":38,"RT":770,"MT":420,"sideResp":1,"stimulus":"img/750/equaldotanddens/L/13_Ratio_750_L_8_R_6.png","xmouse":[792,792,792,792,792,792,792,792,792,792,792,792,792,792,792,792,792,792,792,792,792,792,792,792,792,792,792,792,792,792,792,792,792,792,792,792,792,792,792,792,786,782,755,736,710,691,672,641,627,621,619,619,619,619,619,616,605,556,532,510],"ymouse":[493,493,493,492,492,492,492,492,492,492,492,492,492,492,491,490,489,486,484,483,482,481,480,480,480,480,480,480,480,480,480,480,480,480,480,480,477,472,465,453,430,420,372,348,321,305,289,260,245,234,217,212,195,191,187,181,170,132,113,94],"timestamp_mouse":[10,38,50,70,89,109,129,149,170,189,209,229,250,270,290,309,330,349,370,390,409,431,449,470,490,511,530,550,569,589,610,630,650,670,689,710,729,750,770,790,810,830,849,869,889,909,929,949,969,989,1010,1029,1049,1069,1089,1109,1129,1149,1170,1190],"xSR":741.5,"ySR":469.95,"xT1":424.9,"yT1":0,"xT2":1058.1,"yT2":0,"toosoon":0,"cond_shown":"equaldotanddens","ratio_trial":750,"smaller_num":"6","larger_num":"8","correct_side":1,"subjID":"diegoalejandroarevalo9","gender":"0","age":"10","school":"4"},{"start_time":1552309838935,"click_time":1552309840684,"finger_time":1552309839864,"fix_duration":250,"trial":39,"RT":929,"MT":820,"sideResp":2,"stimulus":"img/250/equaldotsize/R/8_Ratio_250_L_1_R_4.png","xmouse":[781,781,781,781,781,781,781,781,781,781,781,781,781,781,781,781,781,781,780,780,780,780,780,780,780,780,780,780,780,780,780,780,780,780,780,780,780,780,780,780,780,781,789,797,804,818,837,887,912,937,966,974,986,992,998,1004,1013,1023,1053,1069,1088,1090,1090,1090,1090,1090,1090,1090,1091,1092,1092,1092,1092,1092,1092,1092,1092,1092,1092,1093,1095,1096,1097,1097,1097,1097,1099,1099],"ymouse":[519,519,519,519,519,519,519,519,519,519,519,519,519,519,519,519,519,519,517,516,514,514,514,514,514,514,514,514,514,514,514,514,514,514,514,514,514,514,514,514,513,511,498,489,481,473,463,431,408,388,344,322,287,271,258,244,227,207,171,154,131,120,114,114,114,114,114,114,113,112,112,112,112,112,112,112,112,112,112,112,110,109,106,106,106,105,103,99],"timestamp_mouse":[11,38,49,70,89,108,130,149,170,188,210,228,250,270,289,309,330,349,368,390,410,429,449,469,489,509,529,548,568,590,610,630,649,668,688,710,730,749,769,790,808,830,849,870,889,909,929,951,969,989,1009,1030,1049,1069,1088,1108,1129,1149,1169,1188,1209,1230,1250,1270,1288,1309,1328,1350,1368,1389,1410,1429,1450,1469,1488,1508,1529,1549,1570,1590,1610,1630,1650,1668,1688,1708,1728,1748],"xSR":741.5,"ySR":469.95,"xT1":424.9,"yT1":0,"xT2":1058.1,"yT2":0,"toosoon":0,"cond_shown":"equaldotsize","ratio_trial":250,"smaller_num":"1","larger_num":"4","correct_side":2,"subjID":"diegoalejandroarevalo9","gender":"0","age":"10","school":"4"},{"start_time":1552309842177,"click_time":1552309843044,"finger_time":1552309842745,"fix_duration":250,"trial":40,"RT":568,"MT":299,"sideResp":1,"stimulus":"img/750/equaldotanddens/L/13_Ratio_750_L_8_R_6.png","xmouse":[802,802,802,802,802,802,802,802,802,802,802,802,802,802,802,802,802,802,802,802,802,802,802,802,802,801,794,788,781,772,762,737,720,700,666,639,611,611,611,611,609,562,531,516],"ymouse":[518,518,518,518,518,518,518,518,518,518,518,518,518,518,518,518,518,518,518,518,518,518,518,518,518,515,498,482,463,444,426,396,381,363,341,324,295,284,270,243,212,111,74,57],"timestamp_mouse":[11,26,48,67,87,106,128,147,167,187,208,228,247,267,287,307,328,347,367,387,407,427,446,467,487,507,527,547,568,588,606,627,648,667,686,707,727,747,768,787,807,827,848,867],"xSR":741.5,"ySR":469.95,"xT1":424.9,"yT1":0,"xT2":1058.1,"yT2":0,"toosoon":0,"cond_shown":"equaldotanddens","ratio_trial":750,"smaller_num":"6","larger_num":"8","correct_side":1,"subjID":"diegoalejandroarevalo9","gender":"0","age":"10","school":"4"},{"start_time":1552309866175,"click_time":1552309867225,"finger_time":1552309867005,"fix_duration":250,"trial":41,"RT":830,"MT":220,"sideResp":2,"stimulus":"img/900/equaldotanddens/L/2_Ratio_900_L_20_R_18.png","xmouse":[791,791,791,791,787,780,778,772,772,772,772,772,772,772,772,772,772,772,772,772,772,772,772,772,772,772,772,772,772,772,772,772,772,772,773,775,776,777,778,783,789,803,826,854,916,941,977,997,1036,1051,1072,1089,1101],"ymouse":[518,518,518,518,518,518,518,518,518,518,518,518,518,518,518,518,518,518,518,518,518,518,518,518,518,518,518,518,518,518,518,518,518,518,515,512,510,508,505,489,471,447,415,383,335,320,289,266,199,169,134,105,84],"timestamp_mouse":[10,29,49,70,90,110,130,148,169,190,210,228,250,268,290,310,329,348,369,390,408,429,450,470,490,509,529,549,568,589,610,630,648,670,689,709,729,749,769,790,809,830,849,868,888,909,930,949,971,988,1009,1028,1049],"xSR":741.5,"ySR":469.95,"xT1":424.9,"yT1":0,"xT2":1058.1,"yT2":0,"toosoon":0,"cond_shown":"equaldotanddens","ratio_trial":900,"smaller_num":"18","larger_num":"20","correct_side":1,"subjID":"diegoalejandroarevalo9","gender":"0","age":"10","school":"4"},{"start_time":1552309869708,"click_time":1552309871985,"finger_time":1552309870624,"fix_duration":1101.3746924829322,"trial":42,"RT":916,"MT":1361,"sideResp":2,"stimulus":"img/750/randomdotsizeEA/R/4_Ratio_750_L_15_R_20.png","xmouse":[793,796,800,803,803,803,803,803,803,803,803,803,803,803,803,803,803,803,803,803,803,803,803,803,803,803,803,803,803,803,803,803,803,803,803,803,803,803,803,803,804,805,810,814,822,829,837,857,862,868,872,876,882,884,886,886,886,886,886,883,880,878,875,875,875,875,875,877,878,879,879,879,879,879,879,877,874,839,824,807,798,792,792,792,792,792,792,797,804,817,834,855,892,907,923,937,972,1047,1080,1096,1102,1102,1079,1075,1075,1075,1078,1102,1107,1107,1107,1107,1107,1109],"ymouse":[549,549,538,532,527,524,523,523,523,523,523,523,523,522,522,522,522,522,522,522,522,522,522,522,522,522,522,522,522,522,522,522,522,522,522,522,522,522,521,519,513,507,495,488,476,468,458,439,434,427,422,417,408,406,404,403,403,403,398,393,386,382,378,378,378,378,377,373,372,372,372,372,372,372,371,365,360,320,302,283,268,259,258,258,258,258,258,257,257,257,257,259,261,261,256,247,225,189,173,161,147,131,110,108,108,108,108,102,101,101,101,101,101,98],"timestamp_mouse":[17,41,56,76,96,116,137,157,177,197,215,237,257,276,295,315,335,355,375,397,416,435,456,476,496,515,536,557,576,596,617,637,656,677,696,716,736,755,777,797,816,835,856,877,896,916,936,956,977,996,1016,1036,1057,1077,1096,1116,1135,1155,1175,1197,1216,1236,1256,1277,1297,1316,1337,1356,1377,1397,1416,1437,1457,1475,1496,1515,1535,1557,1576,1596,1616,1637,1656,1676,1697,1717,1737,1756,1775,1797,1816,1836,1856,1875,1897,1916,1937,1956,1975,1995,2017,2036,2055,2077,2096,2116,2136,2156,2176,2196,2215,2236,2256,2277],"xSR":741.5,"ySR":469.95,"xT1":424.9,"yT1":0,"xT2":1058.1,"yT2":0,"toosoon":0,"cond_shown":"randomdotsizeEA","ratio_trial":750,"smaller_num":"15","larger_num":"20","correct_side":2,"subjID":"diegoalejandroarevalo9","gender":"0","age":"10","school":"4"},{"start_time":1552309876101,"click_time":1552309877284,"finger_time":1552309877043,"fix_duration":994.4442074882485,"trial":43,"RT":942,"MT":241,"sideResp":2,"stimulus":"img/900/equaldotsize/R/15_Ratio_900_L_9_R_10.png","xmouse":[802,802,802,802,802,802,802,802,802,802,802,802,802,802,802,802,802,802,802,802,802,802,802,802,802,802,802,802,802,802,802,802,802,802,802,802,802,802,802,802,802,802,802,805,816,822,830,840,866,879,892,907,926,987,1028,1046,1064,1084,1106,1131],"ymouse":[528,528,528,528,528,528,528,528,528,528,528,528,528,528,528,528,528,528,528,528,528,528,528,528,528,528,528,528,528,528,528,528,528,528,528,528,528,528,528,528,528,526,525,513,497,484,471,459,429,413,396,376,352,288,247,228,207,179,140,74],"timestamp_mouse":[21,29,48,62,83,102,123,144,164,182,204,223,244,264,282,303,322,342,363,383,402,424,444,463,484,504,522,544,564,584,604,624,642,662,683,704,724,742,764,783,804,823,844,864,883,904,923,942,967,983,1002,1023,1042,1063,1083,1102,1122,1142,1163,1183],"xSR":741.5,"ySR":469.95,"xT1":424.9,"yT1":0,"xT2":1058.1,"yT2":0,"toosoon":0,"cond_shown":"equaldotsize","ratio_trial":900,"smaller_num":"9","larger_num":"10","correct_side":2,"subjID":"diegoalejandroarevalo9","gender":"0","age":"10","school":"4"},{"start_time":1552309891577,"click_time":1552309892905,"finger_time":1552309892084,"fix_duration":1172.4420933923252,"trial":44,"RT":507,"MT":821,"sideResp":1,"stimulus":"img/250/equaldotanddens/L/15_Ratio_250_L_12_R_3.png","xmouse":[767,767,767,767,767,767,767,767,767,767,767,767,767,768,776,784,789,789,789,789,790,794,806,816,823,824,824,824,824,825,826,833,838,839,839,839,836,830,823,811,798,759,744,725,703,673,634,634,634,634,634,634,634,634,634,634,634,634,634,634,634,634,634,634,634,634,440],"ymouse":[497,497,497,497,497,497,497,497,497,497,497,497,497,498,501,505,508,508,508,508,508,508,499,488,470,460,454,453,453,452,450,438,428,424,418,413,410,409,407,406,400,375,353,315,211,126,34,34,34,34,34,34,34,34,34,34,34,34,34,34,34,34,34,34,34,34,17],"timestamp_mouse":[13,41,47,68,86,108,128,147,168,187,207,228,248,267,287,307,326,347,366,387,407,428,447,468,487,507,527,547,567,586,608,627,647,667,688,708,728,746,768,788,806,828,846,867,886,907,927,948,967,988,1008,1027,1047,1066,1086,1106,1126,1148,1166,1187,1207,1227,1247,1266,1286,1307,1328],"xSR":741.5,"ySR":469.95,"xT1":424.9,"yT1":0,"xT2":1058.1,"yT2":0,"toosoon":0,"cond_shown":"equaldotanddens","ratio_trial":250,"smaller_num":"3","larger_num":"12","correct_side":1,"subjID":"diegoalejandroarevalo9","gender":"0","age":"10","school":"4"},{"start_time":1552309898082,"click_time":1552309900445,"finger_time":1552309898866,"fix_duration":1056.2594573835938,"trial":45,"RT":784,"MT":1579,"sideResp":2,"stimulus":"img/500/equaldotanddens/R/1_Ratio_500_L_9_R_18.png","xmouse":[775,775,775,775,775,775,775,775,775,775,775,775,775,775,775,775,775,775,775,775,775,775,775,775,775,775,775,775,775,775,775,775,775,775,775,775,778,810,827,848,864,878,896,909,924,938,951,969,977,989,1000,1006,1015,1016,1018,1020,1029,1039,1041,1043,1046,1050,1085,1127,1185,1217,1238,1252,1252,1252,1252,1236,1221,1217,1217,1217,1217,1217,1217,1217,1217,1217,1217,1217,1217,1217,1217,1217,1217,1217,1217,1217,1218,1219,1224,1227,1229,1230,1222,1213,1203,1196,1194,1194,1194,1194,1194,1194,1194,1194,1194,1194,1194,1194,1194,1193,1191,1168,1156],"ymouse":[519,519,519,519,519,519,519,519,519,519,519,519,519,519,519,519,519,519,519,519,519,519,519,519,519,519,519,519,519,519,519,519,519,519,519,519,519,496,484,471,459,447,433,426,412,399,378,349,336,324,307,293,280,278,275,271,255,228,222,218,215,215,212,204,165,134,87,2,2,2,2,9,46,77,103,125,139,139,139,139,139,139,139,139,139,139,139,139,139,139,139,139,140,140,137,132,124,100,84,72,62,58,57,57,57,57,57,57,57,57,57,57,57,57,57,57,57,65,69],"timestamp_mouse":[14,28,42,62,83,103,123,143,162,182,203,222,243,263,283,302,323,343,361,383,402,423,445,463,484,503,524,543,564,585,605,624,643,664,684,705,724,743,763,784,805,824,844,863,883,904,924,944,963,984,1003,1023,1044,1063,1084,1103,1123,1143,1164,1183,1204,1224,1244,1263,1284,1305,1325,1344,1364,1383,1404,1423,1445,1463,1483,1503,1524,1544,1564,1584,1603,1623,1644,1663,1683,1704,1724,1744,1764,1785,1804,1823,1843,1863,1885,1904,1925,1944,1963,1983,2004,2024,2044,2063,2083,2104,2123,2144,2164,2185,2204,2224,2243,2264,2284,2305,2324,2344,2363],"xSR":741.5,"ySR":469.95,"xT1":424.9,"yT1":0,"xT2":1058.1,"yT2":0,"toosoon":0,"cond_shown":"equaldotanddens","ratio_trial":500,"smaller_num":"9","larger_num":"18","correct_side":2,"subjID":"diegoalejandroarevalo9","gender":"0","age":"10","school":"4"},{"start_time":1552309902351,"click_time":1552309903746,"finger_time":1552309903186,"fix_duration":322.3135997786061,"trial":46,"RT":835,"MT":560,"sideResp":1,"stimulus":"img/750/equaldotanddens/L/1_Ratio_750_L_20_R_15.png","xmouse":[795,795,795,795,795,795,795,795,795,795,795,795,795,795,795,795,796,797,799,802,803,803,803,804,804,804,804,804,804,805,805,805,805,806,808,810,812,815,821,830,835,842,846,847,847,847,847,847,847,851,867,875,879,883,884,884,884,881,876,833,770,716,672,643,602,591,577,563,549,511],"ymouse":[521,521,521,521,521,521,521,521,521,521,521,521,521,521,521,521,521,522,522,523,524,524,524,524,524,524,524,524,524,524,524,524,524,524,524,524,524,524,520,510,502,492,481,474,469,468,468,468,468,461,435,422,417,413,408,407,406,404,400,377,334,299,260,219,166,152,136,122,108,65],"timestamp_mouse":[14,40,54,75,95,114,134,155,174,195,215,235,254,276,294,315,334,354,375,394,415,434,455,475,496,515,535,555,575,594,614,635,654,674,694,715,735,754,775,794,814,835,854,875,894,914,934,955,975,994,1016,1035,1055,1074,1094,1115,1134,1155,1175,1194,1215,1235,1255,1275,1294,1315,1334,1355,1375,1395],"xSR":741.5,"ySR":469.95,"xT1":424.9,"yT1":0,"xT2":1058.1,"yT2":0,"toosoon":0,"cond_shown":"equaldotanddens","ratio_trial":750,"smaller_num":"15","larger_num":"20","correct_side":1,"subjID":"diegoalejandroarevalo9","gender":"0","age":"10","school":"4"},{"start_time":1552309906358,"click_time":1552309908726,"finger_time":1552309907245,"fix_duration":1430.799627301118,"trial":47,"RT":887,"MT":1481,"sideResp":1,"stimulus":"img/900/randomdotsizeEA/L/1_Ratio_900_L_10_R_9.png","xmouse":[794,794,794,794,794,794,794,794,794,794,794,794,794,794,795,797,800,806,813,819,822,824,827,830,833,833,833,833,833,833,833,833,833,833,833,833,833,833,833,833,833,833,835,837,842,847,850,855,856,859,861,863,865,865,868,869,874,881,892,907,912,917,923,936,982,999,1012,1024,1030,1036,1047,1054,1057,1061,1067,1069,1072,1075,1076,1076,1076,1076,1076,1076,1076,1076,1076,1076,1076,1069,1057,1041,1022,1004,951,904,834,777,712,692,692,692,690,684,671,645,633,625,608,584,571,561,556,554,552,548,543,534,521],"ymouse":[509,509,509,509,509,509,509,509,509,509,509,509,509,509,510,514,521,529,540,548,552,557,559,563,568,568,568,568,568,568,568,568,568,568,568,568,568,568,568,568,568,568,568,568,563,560,556,554,553,551,549,547,545,545,542,540,533,521,499,478,472,467,462,448,397,377,360,342,333,326,317,311,309,306,298,296,291,287,286,286,286,286,286,286,286,286,286,286,286,285,283,277,268,261,239,220,190,154,104,87,87,86,86,85,81,66,59,55,50,44,41,40,40,40,40,41,41,41,38],"timestamp_mouse":[9,27,49,68,87,107,127,147,167,188,208,227,247,267,288,307,327,348,367,387,408,429,448,470,487,509,529,547,568,587,607,628,648,667,687,708,728,749,767,787,807,827,849,867,887,908,927,947,968,988,1007,1027,1047,1068,1087,1107,1127,1149,1168,1187,1207,1227,1248,1267,1287,1307,1327,1348,1368,1388,1407,1427,1447,1467,1488,1507,1527,1548,1567,1588,1608,1628,1649,1667,1687,1707,1727,1748,1767,1788,1807,1828,1848,1868,1888,1907,1927,1948,1967,1988,2008,2028,2048,2067,2087,2108,2128,2147,2168,2188,2207,2228,2248,2267,2288,2308,2327,2348,2368],"xSR":741.5,"ySR":469.95,"xT1":424.9,"yT1":0,"xT2":1058.1,"yT2":0,"toosoon":0,"cond_shown":"randomdotsizeEA","ratio_trial":900,"smaller_num":"9","larger_num":"10","correct_side":1,"subjID":"diegoalejandroarevalo9","gender":"0","age":"10","school":"4"},{"start_time":1552309910038,"click_time":1552309911186,"finger_time":1552309910846,"fix_duration":250,"trial":48,"RT":808,"MT":340,"sideResp":2,"stimulus":"img/500/randomdotsizeEA/R/3_Ratio_500_L_10_R_20.png","xmouse":[775,775,775,775,775,775,775,775,775,775,775,775,775,775,775,775,776,776,776,776,777,779,779,780,780,780,780,780,780,780,780,780,780,780,780,780,783,789,800,823,935,991,1012,1022,1033,1044,1070,1089,1105,1117,1127,1131,1131,1129,1128,1127,1119,1109],"ymouse":[539,539,539,539,539,539,539,539,539,539,539,539,539,539,539,539,539,539,539,539,539,539,539,539,539,539,539,539,539,539,539,539,539,539,539,539,538,535,530,517,461,434,424,418,411,404,389,379,367,356,346,327,310,293,271,187,130,67],"timestamp_mouse":[10,27,48,69,87,108,128,148,169,188,208,227,248,268,287,308,327,348,368,388,409,427,447,469,489,508,528,547,568,587,607,627,647,668,687,707,728,747,767,788,808,827,847,868,888,909,928,948,968,988,1007,1027,1048,1068,1088,1109,1127,1148],"xSR":741.5,"ySR":469.95,"xT1":424.9,"yT1":0,"xT2":1058.1,"yT2":0,"toosoon":0,"cond_shown":"randomdotsizeEA","ratio_trial":500,"smaller_num":"10","larger_num":"20","correct_side":2,"subjID":"diegoalejandroarevalo9","gender":"0","age":"10","school":"4"},{"start_time":1552309913117,"click_time":1552309914866,"finger_time":1552309914065,"fix_duration":250,"trial":49,"RT":948,"MT":801,"sideResp":2,"stimulus":"img/900/randomdotsizeEA/L/8_Ratio_900_L_20_R_18.png","xmouse":[810,810,810,810,810,810,810,810,810,810,810,810,810,810,810,810,810,810,810,810,810,810,810,810,810,810,810,810,810,810,810,810,811,811,811,811,811,811,811,811,811,811,811,811,811,812,815,859,900,932,952,968,987,994,1000,1004,1012,1026,1032,1036,1042,1050,1060,1062,1064,1065,1065,1065,1065,1066,1067,1067,1069,1072,1074,1078,1081,1090,1095,1099,1102,1103,1103,1103,1103,1103,1103,1103],"ymouse":[538,538,538,538,538,538,538,538,538,538,538,538,538,538,538,538,538,538,538,538,538,538,538,538,538,538,538,538,538,538,538,538,538,538,538,538,538,538,538,538,538,538,538,538,538,538,535,500,464,438,423,414,400,393,389,385,380,368,363,358,350,338,318,310,301,291,284,266,261,256,253,250,247,242,236,226,209,175,158,140,128,117,104,102,102,101,100,99],"timestamp_mouse":[13,34,48,68,88,110,128,149,168,188,208,229,250,269,289,308,329,349,369,388,408,428,450,468,489,509,528,550,569,589,608,628,648,669,690,709,728,749,770,788,809,829,849,869,889,909,928,948,969,988,1008,1029,1049,1069,1088,1109,1129,1148,1169,1188,1209,1229,1248,1268,1288,1308,1329,1348,1369,1389,1408,1428,1449,1469,1488,1509,1530,1548,1569,1590,1609,1630,1648,1668,1689,1708,1729,1749],"xSR":741.5,"ySR":469.95,"xT1":424.9,"yT1":0,"xT2":1058.1,"yT2":0,"toosoon":0,"cond_shown":"randomdotsizeEA","ratio_trial":900,"smaller_num":"18","larger_num":"20","correct_side":1,"subjID":"diegoalejandroarevalo9","gender":"0","age":"10","school":"4"},{"start_time":1552309917420,"click_time":1552309919425,"finger_time":1552309918385,"fix_duration":533.3739378045601,"trial":50,"RT":965,"MT":1040,"sideResp":1,"stimulus":"img/500/randomdotsizeEA/L/4_Ratio_500_L_18_R_9.png","xmouse":[818,818,818,818,818,818,818,818,818,818,818,818,818,818,818,818,818,818,818,818,818,818,818,818,818,818,820,820,820,820,820,820,820,820,820,820,820,820,820,820,820,820,820,820,820,820,820,820,815,811,789,783,775,772,764,745,724,698,679,679,679,679,679,679,679,679,679,679,679,679,679,679,679,679,679,679,679,679,582,577,573,573,573,573,573,572,572,571,571,569,565,559,556,553,552,552,552,552,544,531,521],"ymouse":[511,511,511,511,511,511,511,511,511,511,511,511,511,511,511,511,511,511,511,511,511,511,511,510,509,508,506,506,506,506,506,506,506,506,506,506,506,506,506,506,506,506,506,506,506,506,506,503,466,452,376,327,215,162,122,84,53,21,0,0,0,0,0,0,0,0,0,0,0,0,0,0,0,0,0,0,0,0,9,13,16,16,16,16,16,16,16,17,17,19,21,24,26,27,27,27,27,27,32,37,43],"timestamp_mouse":[10,25,45,66,86,107,126,145,166,185,205,225,247,267,285,305,325,346,366,386,406,426,446,465,486,505,525,547,566,587,606,626,646,666,686,705,725,745,765,786,807,826,845,866,886,905,927,945,965,985,1005,1025,1046,1066,1086,1106,1125,1146,1165,1186,1206,1226,1246,1266,1285,1306,1325,1345,1366,1385,1405,1425,1445,1466,1486,1505,1526,1546,1566,1586,1606,1625,1648,1666,1686,1706,1725,1747,1765,1785,1807,1825,1846,1866,1886,1905,1925,1945,1966,1985,2005],"xSR":741.5,"ySR":469.95,"xT1":424.9,"yT1":0,"xT2":1058.1,"yT2":0,"toosoon":0,"cond_shown":"randomdotsizeEA","ratio_trial":500,"smaller_num":"9","larger_num":"18","correct_side":1,"subjID":"diegoalejandroarevalo9","gender":"0","age":"10","school":"4"},{"start_time":1552309922305,"click_time":1552309923806,"finger_time":1552309923005,"fix_duration":1498.7607659158236,"trial":51,"RT":700,"MT":801,"sideResp":2,"stimulus":"img/750/equaldotanddens/R/15_Ratio_750_L_9_R_12.png","xmouse":[773,773,773,773,772,772,772,772,772,772,772,772,772,772,771,771,771,771,771,771,771,771,771,771,772,773,773,774,775,777,777,778,779,787,830,859,882,914,951,1009,1033,1062,1089,1110,1134,1153,1154,1155,1155,1155,1155,1150,1149,1143,1140,1139,1138,1138,1138,1138,1138,1138,1138,1136,1136,1136,1136,1136,1136,1136,1136,1136,1136,1136,1130,1123],"ymouse":[501,501,501,501,501,501,501,501,501,501,501,501,501,501,501,501,501,501,501,501,501,501,500,500,500,499,498,497,497,495,494,494,493,489,477,476,476,473,465,443,437,431,421,409,384,338,319,303,283,266,237,219,214,201,195,192,191,191,191,190,186,180,169,155,151,150,150,150,147,140,134,129,124,121,106,95],"timestamp_mouse":[9,21,40,62,81,101,120,140,160,180,201,220,240,260,281,300,320,341,360,381,400,420,440,460,480,501,520,541,562,581,602,620,641,660,680,700,722,741,761,781,801,821,842,860,880,901,921,941,961,980,1001,1021,1041,1062,1080,1101,1121,1140,1162,1180,1200,1220,1240,1262,1281,1301,1321,1341,1360,1380,1401,1420,1440,1461,1481,1501],"xSR":741.5,"ySR":469.95,"xT1":424.9,"yT1":0,"xT2":1058.1,"yT2":0,"toosoon":0,"cond_shown":"equaldotanddens","ratio_trial":750,"smaller_num":"9","larger_num":"12","correct_side":2,"subjID":"diegoalejandroarevalo9","gender":"0","age":"10","school":"4"},{"start_time":1552309927376,"click_time":1552309928605,"finger_time":1552309927946,"fix_duration":907.9454975860885,"trial":52,"RT":570,"MT":659,"sideResp":2,"stimulus":"img/900/equaldotsize/R/13_Ratio_900_L_18_R_20.png","xmouse":[797,797,797,797,797,797,797,797,797,797,797,797,797,797,797,797,797,797,797,797,797,797,797,797,797,797,799,814,860,928,1047,1066,1079,1085,1093,1108,1123,1129,1138,1151,1163,1186,1191,1194,1195,1195,1192,1186,1181,1177,1175,1171,1169,1168,1168,1167,1164,1163,1162,1160,1159,1155],"ymouse":[504,504,504,504,504,504,504,504,504,504,504,504,504,504,504,504,504,504,504,504,504,504,504,504,504,504,504,498,465,417,331,312,302,296,289,280,271,268,262,254,246,223,213,203,192,181,159,137,121,107,95,78,73,72,71,70,69,69,69,69,69,69],"timestamp_mouse":[10,29,49,69,90,109,129,149,169,189,210,229,249,270,289,311,330,351,369,389,410,429,450,471,490,510,529,550,570,589,611,629,650,669,690,712,730,751,770,790,810,829,849,869,889,909,929,949,971,989,1009,1029,1050,1071,1089,1110,1129,1149,1170,1189,1210,1229],"xSR":741.5,"ySR":469.95,"xT1":424.9,"yT1":0,"xT2":1058.1,"yT2":0,"toosoon":0,"cond_shown":"equaldotsize","ratio_trial":900,"smaller_num":"18","larger_num":"20","correct_side":2,"subjID":"diegoalejandroarevalo9","gender":"0","age":"10","school":"4"},{"start_time":1552309931588,"click_time":1552309933045,"finger_time":1552309932366,"fix_duration":1280.9044269273093,"trial":53,"RT":778,"MT":679,"sideResp":2,"stimulus":"img/250/randomdotsizeEA/R/8_Ratio_250_L_1_R_4.png","xmouse":[784,784,784,784,784,784,784,784,784,784,784,784,784,784,784,784,784,784,784,784,789,803,814,824,831,832,832,832,832,832,832,832,832,832,832,832,832,832,836,840,888,916,934,954,958,970,980,992,1008,1026,1041,1063,1070,1078,1086,1108,1118,1127,1134,1140,1153,1156,1159,1160,1160,1160,1160,1160,1160,1160,1159,1159,1156],"ymouse":[505,505,505,505,505,505,505,505,505,505,505,505,505,505,505,505,505,505,505,505,502,493,485,478,473,472,472,472,472,472,472,472,472,472,472,472,472,472,469,464,420,392,375,353,349,336,327,316,302,285,270,250,245,239,234,215,203,191,180,167,133,110,87,66,46,41,41,41,41,41,40,40,40],"timestamp_mouse":[17,38,65,77,98,118,139,158,177,198,219,238,258,279,298,317,337,357,377,398,417,437,457,479,498,517,537,559,578,598,618,639,658,679,698,719,739,757,778,798,817,839,859,877,897,918,937,958,978,997,1017,1037,1057,1078,1097,1118,1137,1158,1178,1198,1218,1237,1257,1277,1298,1318,1338,1358,1377,1398,1417,1437,1457],"xSR":741.5,"ySR":469.95,"xT1":424.9,"yT1":0,"xT2":1058.1,"yT2":0,"toosoon":0,"cond_shown":"randomdotsizeEA","ratio_trial":250,"smaller_num":"1","larger_num":"4","correct_side":2,"subjID":"diegoalejandroarevalo9","gender":"0","age":"10","school":"4"},{"start_time":1552309934639,"click_time":1552309935846,"finger_time":1552309935526,"fix_duration":250,"trial":54,"RT":887,"MT":320,"sideResp":1,"stimulus":"img/750/randomdotsizeEA/L/8_Ratio_750_L_4_R_3.png","xmouse":[753,753,753,753,753,753,753,753,757,762,763,764,765,765,765,765,765,765,765,765,765,765,765,765,765,765,765,765,765,765,765,765,765,765,765,765,765,765,765,765,765,763,759,744,704,692,687,686,687,689,687,654,618,581,543,537,536,536,536,532,516],"ymouse":[502,502,502,502,502,502,502,502,501,499,498,498,497,497,497,497,497,497,497,497,497,497,497,497,497,497,497,497,497,497,497,497,497,497,497,497,497,497,497,497,497,496,492,478,444,430,419,414,400,381,342,246,179,120,73,66,65,65,62,51,26],"timestamp_mouse":[12,35,46,67,87,108,126,146,167,187,207,227,246,268,286,307,327,347,366,388,407,427,446,466,487,507,526,546,566,587,608,626,647,667,687,707,727,746,766,787,807,826,847,866,887,908,928,948,968,986,1007,1026,1046,1067,1087,1107,1128,1148,1167,1186,1207],"xSR":741.5,"ySR":469.95,"xT1":424.9,"yT1":0,"xT2":1058.1,"yT2":0,"toosoon":0,"cond_shown":"randomdotsizeEA","ratio_trial":750,"smaller_num":"3","larger_num":"4","correct_side":1,"subjID":"diegoalejandroarevalo9","gender":"0","age":"10","school":"4"},{"start_time":1552309949195,"click_time":1552309950726,"finger_time":1552309950066,"fix_duration":347.1127117228311,"trial":55,"RT":871,"MT":660,"sideResp":1,"stimulus":"img/500/randomdotsizeEA/L/13_Ratio_500_L_12_R_6.png","xmouse":[747,747,747,747,747,747,747,747,747,747,747,747,747,747,747,747,747,747,748,750,751,753,753,754,754,754,754,754,754,754,754,754,754,754,754,755,755,755,755,759,771,787,827,842,860,874,887,890,882,866,837,797,735,719,706,695,677,642,621,598,577,559,544,544,544,544,544,540,536,531,530,529,529,529,528,527,516],"ymouse":[528,528,528,528,528,528,528,528,528,528,528,528,528,528,528,528,528,528,528,528,528,527,527,527,527,527,527,527,527,527,527,527,527,527,527,527,527,527,527,526,518,506,475,457,439,421,396,361,341,324,300,275,242,235,230,225,212,182,160,134,111,95,88,88,88,88,88,88,88,88,88,88,88,88,88,88,88],"timestamp_mouse":[10,31,50,71,90,111,130,151,172,191,211,231,250,270,291,310,332,352,371,390,410,431,452,470,491,510,531,550,570,592,611,631,650,671,691,710,730,750,772,791,811,831,850,871,890,910,930,952,970,992,1011,1031,1050,1071,1091,1111,1130,1151,1170,1192,1211,1230,1251,1270,1291,1311,1331,1350,1372,1391,1411,1431,1452,1470,1490,1511,1530],"xSR":741.5,"ySR":469.95,"xT1":424.9,"yT1":0,"xT2":1058.1,"yT2":0,"toosoon":0,"cond_shown":"randomdotsizeEA","ratio_trial":500,"smaller_num":"6","larger_num":"12","correct_side":1,"subjID":"diegoalejandroarevalo9","gender":"0","age":"10","school":"4"},{"start_time":1552309953834,"click_time":1552309955465,"finger_time":1552309954747,"fix_duration":325.01150790979926,"trial":56,"RT":913,"MT":718,"sideResp":1,"stimulus":"img/750/equaldotsize/L/14_Ratio_750_L_8_R_6.png","xmouse":[767,767,767,767,767,767,767,767,767,767,767,767,767,767,767,767,766,765,765,765,765,765,765,765,765,765,765,765,765,765,765,765,765,765,765,765,765,765,765,765,765,765,765,764,755,683,626,583,538,511,495,483,480,478,476,475,468,463,455,449,446,446,446,446,447,449,450,451,452,452,452,456,458,462,463,463,463,463,463,463,464,469],"ymouse":[533,533,533,533,533,533,533,533,533,533,533,533,533,533,533,533,533,533,533,533,533,533,533,533,533,533,533,533,533,533,533,533,533,533,533,533,533,533,533,533,533,533,533,533,528,471,424,383,339,309,294,281,275,270,264,256,227,208,190,178,169,168,167,167,166,160,157,153,151,148,146,135,127,119,112,104,104,104,104,103,101,96],"timestamp_mouse":[11,32,59,71,92,111,131,153,173,192,212,233,252,271,291,311,332,352,373,392,412,432,451,471,492,511,532,551,573,592,612,631,651,671,692,713,732,752,772,791,811,831,852,871,891,913,931,952,972,991,1011,1031,1051,1072,1092,1112,1131,1151,1171,1191,1213,1231,1252,1272,1291,1313,1331,1352,1372,1391,1412,1431,1452,1472,1491,1513,1531,1552,1571,1591,1611,1631],"xSR":741.5,"ySR":469.95,"xT1":424.9,"yT1":0,"xT2":1058.1,"yT2":0,"toosoon":0,"cond_shown":"equaldotsize","ratio_trial":750,"smaller_num":"6","larger_num":"8","correct_side":1,"subjID":"diegoalejandroarevalo9","gender":"0","age":"10","school":"4"},{"start_time":1552309959666,"click_time":1552309961066,"finger_time":1552309960426,"fix_duration":1476.984880508,"trial":57,"RT":760,"MT":640,"sideResp":2,"stimulus":"img/500/randomdotsizeEA/R/1_Ratio_500_L_9_R_18.png","xmouse":[804,804,804,804,804,804,804,804,804,804,804,804,804,804,804,804,804,804,804,804,804,804,804,804,804,804,804,804,804,804,804,804,804,804,804,804,812,825,849,863,889,905,921,933,944,960,969,978,994,1021,1038,1061,1067,1069,1070,1072,1074,1080,1090,1095,1102,1103,1103,1103,1103,1103,1103,1101,1099,1097,1090],"ymouse":[509,509,509,509,509,509,509,509,509,509,509,509,509,509,509,509,509,509,509,509,509,509,509,509,509,509,509,509,509,509,509,509,509,509,509,508,500,485,458,445,423,408,391,373,359,338,331,325,319,303,286,251,235,224,214,200,192,180,164,152,134,129,127,127,127,127,125,117,109,103,89],"timestamp_mouse":[9,37,40,61,80,100,121,139,159,181,200,220,239,260,280,300,321,341,361,381,400,420,440,461,480,500,521,541,559,581,601,619,640,661,680,700,721,741,760,780,801,820,840,861,881,901,919,940,960,980,1000,1021,1040,1060,1080,1101,1120,1141,1161,1181,1201,1219,1241,1261,1281,1300,1320,1340,1361,1380,1400],"xSR":741.5,"ySR":469.95,"xT1":424.9,"yT1":0,"xT2":1058.1,"yT2":0,"toosoon":0,"cond_sh