[{"start_time":1552327372456,"click_time":1552327374884,"finger_time":1552327374404,"fix_duration":1011.4737234340034,"trial":0,"RT":1948,"MT":480,"sideResp":1,"stimulus":[],"xmouse":[803,803,803,803,803,802,802,802,802,802,802,802,802,802,802,802,802,802,802,802,802,802,802,802,802,802,802,802,802,802,802,802,802,802,802,802,802,802,802,802,802,802,802,802,802,802,802,802,802,802,802,802,802,802,802,802,802,802,802,802,802,802,802,802,802,802,802,802,802,802,802,802,802,802,802,802,802,802,802,802,802,802,802,802,802,802,802,802,802,802,802,802,802,797,792,785,776,759,754,750,749,748,748,747,746,746,747,744,736,726,716,692,679,664,647,627,586,573,559,543,532,519],"ymouse":[499,499,500,501,501,502,502,502,502,502,502,502,502,502,502,502,502,502,502,502,502,502,502,502,502,502,502,502,502,502,502,502,502,502,502,502,502,502,502,502,502,502,502,502,502,502,502,502,502,502,502,502,502,502,502,502,502,502,502,502,502,502,502,502,502,502,502,502,502,502,502,502,502,502,502,502,502,502,502,502,502,502,502,502,502,502,502,502,502,502,502,502,502,496,491,484,474,456,449,445,442,441,438,434,424,404,361,307,284,264,245,216,201,190,179,164,138,129,122,113,105,88],"timestamp_mouse":[7,28,47,67,87,107,128,148,167,187,207,228,247,269,287,307,328,347,368,388,409,428,448,467,487,507,529,547,567,587,607,627,647,669,687,708,728,748,767,788,808,828,847,867,888,908,927,948,967,987,1007,1028,1047,1067,1087,1107,1127,1147,1167,1187,1208,1227,1247,1267,1288,1309,1327,1348,1368,1388,1407,1428,1447,1468,1488,1508,1527,1548,1568,1587,1608,1628,1647,1667,1688,1707,1727,1747,1767,1787,1807,1828,1847,1867,1887,1907,1927,1948,1967,1988,2007,2028,2047,2068,2087,2108,2127,2147,2167,2187,2207,2228,2247,2268,2287,2307,2327,2347,2367,2388,2407,2428],"xSR":741.5,"ySR":469.95,"xT1":424.9,"yT1":0,"xT2":1058.1,"yT2":0,"toosoon":0,"cond_shown":"Incongruent","ratio_trial":100,"L_num":1,"L_den":2,"R_num":8,"R_den":20,"correct_side":1,"subjID":"dylansantiagolozano16","gender":"0","age":"9","school":"4","test":{"fix_dur":[250,1500],"timestim":1000,"targets_dim":[100,100],"targets_relative_coord":[0.3,0.7],"size_stim":[880,420],"start_dim":[100,100],"size_start":[300,300],"size_fix":60,"samplingrate":20,"img_types":["Congruent","Incongruent"],"ratios":[100,200,300],"rep_conds":19,"nTrials":120,"trials_to_rest":500,"Trials_order":[37,116,77,51,35,97,115,29,108,62,95,88,113,4,40,74,34,90,81,93,119,78,14,21,33,65,38,9,73,57,10,13,86,47,6,111,5,99,46,110,71,75,17,2,41,69,89,49,87,114,85,63,67,18,68,15,44,103,55,45,83,7,43,19,102,91,25,107,56,54,84,30,24,109,8,39,82,1,76,112,92,98,59,50,79,66,36,53,96,105,117,27,101,61,64,72,104,22,28,52,31,26,70,106,42,32,23,100,118,12,16,20,58,60,3,11,0,94,48,80],"cond_shown":["Incongruent","Congruent","Incongruent","Incongruent","Incongruent","Incongruent","Incongruent","Incongruent","Congruent","Congruent","Incongruent","Congruent","Incongruent","Congruent","Congruent","Congruent","Congruent","Congruent","Incongruent","Incongruent","Incongruent","Congruent","Congruent","Incongruent","Incongruent","Incongruent","Congruent","Incongruent","Incongruent","Incongruent","Congruent","Incongruent","Congruent","Incongruent","Congruent","Incongruent","Incongruent","Incongruent","Congruent","Congruent","Incongruent","Incongruent","Incongruent","Congruent","Incongruent","Incongruent","Incongruent","Incongruent","Incongruent","Congruent","Incongruent","Incongruent","Incongruent","Congruent","Congruent","Incongruent","Congruent","Incongruent","Incongruent","Incongruent","Incongruent","Incongruent","Incongruent","Incongruent","Congruent","Incongruent","Incongruent","Incongruent","Congruent","Congruent","Congruent","Congruent","Congruent","Incongruent","Congruent","Incongruent","Congruent","Incongruent","Congruent","Congruent","Congruent","Congruent","Incongruent","Congruent","Incongruent","Congruent","Congruent","Incongruent","Congruent","Incongruent","Incongruent","Incongruent","Incongruent","Incongruent","Congruent","Congruent","Congruent","Congruent","Congruent","Congruent","Incongruent","Congruent","Congruent","Congruent","Congruent","Congruent","Incongruent","Congruent","Congruent","Congruent","Congruent","Congruent","Congruent","Congruent","Incongruent","Incongruent","Congruent","Congruent","Congruent","Congruent"],"ratio_trial":[100,200,300,200,300,100,100,300,100,200,300,300,300,300,300,200,300,100,200,200,300,100,200,200,200,300,200,200,100,200,300,100,200,300,100,200,300,200,300,200,300,200,300,200,300,200,300,100,200,100,100,200,100,100,200,200,200,100,100,200,300,100,100,100,100,100,100,300,200,100,100,100,100,100,200,200,300,100,300,300,200,200,300,200,100,100,100,300,100,200,200,200,300,100,300,100,200,300,300,300,100,200,300,300,100,200,300,300,300,100,300,200,300,100,200,300,100,300,100,200],"left_num":[1,6,1,11,3,6,3,7,2,3,13,1,4,1,3,4,3,4,4,7,4,6,12,1,1,8,15,1,6,4,1,17,1,13,9,11,4,3,5,3,13,7,3,5,4,3,2,13,7,6,10,7,6,7,5,7,9,6,12,11,1,17,3,12,4,8,6,8,3,3,11,1,10,2,8,7,1,9,3,2,6,4,13,8,9,1,3,4,4,4,6,4,13,2,2,8,3,3,5,5,13,16,5,11,3,13,7,2,8,4,5,6,1,2,7,13,15,1,2,6],"right_num":[8,7,3,3,4,7,7,8,11,7,12,7,2,11,2,3,4,6,6,12,2,5,6,2,2,9,4,2,7,14,6,10,21,12,8,3,2,11,7,9,12,8,4,14,2,11,6,12,4,5,9,12,3,15,14,4,13,7,9,3,2,10,4,9,15,6,7,9,11,2,6,3,3,8,2,6,6,6,11,10,11,3,12,3,14,18,4,2,6,14,3,6,12,8,10,2,11,4,7,6,12,9,7,1,2,14,8,12,1,6,6,7,7,11,6,12,13,7,11,7],"left_den":[2,12,2,20,6,10,9,10,5,10,26,20,20,5,6,10,6,8,5,10,20,20,20,3,3,10,25,3,10,6,5,30,2,26,15,20,20,4,25,12,26,10,6,10,20,4,4,26,15,20,25,10,12,14,10,15,30,10,24,20,2,30,6,24,10,16,10,10,10,6,22,2,25,4,15,15,5,18,12,20,20,10,26,15,15,2,20,20,8,6,20,5,26,4,20,16,10,6,25,25,26,30,25,22,6,26,10,10,16,8,25,12,20,5,15,26,25,20,5,12],"right_den":[20,10,15,4,20,14,30,20,22,14,15,20,4,22,10,15,5,10,10,24,4,25,15,15,15,18,10,15,14,30,12,15,30,15,16,4,4,20,14,20,15,16,20,20,4,20,30,20,6,25,18,24,5,25,20,6,26,14,15,4,10,15,10,15,30,10,14,18,22,5,15,5,10,20,6,9,12,10,20,25,22,15,15,9,28,30,16,4,10,30,6,10,15,20,25,5,22,5,14,12,20,27,14,5,5,20,20,24,5,10,12,10,20,22,9,15,26,20,22,10],"correct_side":[1,2,1,2,1,1,1,1,2,2,2,2,2,2,1,1,2,2,1,1,2,1,1,1,1,1,1,1,1,1,2,2,2,2,1,2,2,1,2,2,2,1,1,2,2,1,1,2,2,1,2,1,2,2,2,2,2,1,2,2,1,2,1,2,2,2,1,1,2,1,1,2,1,1,1,2,2,2,2,2,2,1,2,1,1,2,2,2,2,1,2,1,2,1,2,1,2,2,2,2,2,1,2,1,1,2,1,2,1,2,2,2,2,2,2,2,1,2,2,2],"img_shown":["img2/100/Incongruent/L/I_Dist_100_LN_1_LD_2_RN_8_RD_20_0.png","img2/200/Congruent/R/C_Dist_200_LN_6_LD_12_RN_7_RD_10_1.png","img2/300/Incongruent/L/I_Dist_300_LN_1_LD_2_RN_3_RD_15_0.png","img2/200/Incongruent/R/I_Dist_200_LN_11_LD_20_RN_3_RD_4_1.png","img2/300/Incongruent/L/I_Dist_300_LN_3_LD_6_RN_4_RD_20_0.png","img2/100/Incongruent/L/I_Dist_100_LN_6_LD_10_RN_7_RD_14_0.png","img2/100/Incongruent/L/I_Dist_100_LN_3_LD_9_RN_7_RD_30_0.png","img2/300/Incongruent/L/I_Dist_300_LN_7_LD_10_RN_8_RD_20_0.png","img2/100/Congruent/R/C_Dist_100_LN_2_LD_5_RN_11_RD_22_1.png","img2/200/Congruent/R/C_Dist_200_LN_3_LD_10_RN_7_RD_14_1.png","img2/300/Incongruent/R/I_Dist_300_LN_13_LD_26_RN_12_RD_15_1.png","img2/300/Congruent/R/C_Dist_300_LN_1_LD_20_RN_7_RD_20_1.png","img2/300/Incongruent/R/I_Dist_300_LN_4_LD_20_RN_2_RD_4_1.png","img2/300/Congruent/R/C_Dist_300_LN_1_LD_5_RN_11_RD_22_1.png","img2/300/Congruent/L/C_Dist_300_LN_3_LD_6_RN_2_RD_10_0.png","img2/200/Congruent/L/C_Dist_200_LN_4_LD_10_RN_3_RD_15_0.png","img2/300/Congruent/R/C_Dist_300_LN_3_LD_6_RN_4_RD_5_1.png","img2/100/Congruent/R/C_Dist_100_LN_4_LD_8_RN_6_RD_10_1.png","img2/200/Incongruent/L/I_Dist_200_LN_4_LD_5_RN_6_RD_10_0.png","img2/200/Incongruent/L/I_Dist_200_LN_7_LD_10_RN_12_RD_24_0.png","img2/300/Incongruent/R/I_Dist_300_LN_4_LD_20_RN_2_RD_4_1.png","img2/100/Congruent/L/C_Dist_100_LN_6_LD_20_RN_5_RD_25_0.png","img2/200/Congruent/L/C_Dist_200_LN_12_LD_20_RN_6_RD_15_0.png","img2/200/Incongruent/L/I_Dist_200_LN_1_LD_3_RN_2_RD_15_0.png","img2/200/Incongruent/L/I_Dist_200_LN_1_LD_3_RN_2_RD_15_0.png","img2/300/Incongruent/L/I_Dist_300_LN_8_LD_10_RN_9_RD_18_0.png","img2/200/Congruent/L/C_Dist_200_LN_15_LD_25_RN_4_RD_10_0.png","img2/200/Incongruent/L/I_Dist_200_LN_1_LD_3_RN_2_RD_15_0.png","img2/100/Incongruent/L/I_Dist_100_LN_6_LD_10_RN_7_RD_14_0.png","img2/200/Incongruent/L/I_Dist_200_LN_4_LD_6_RN_14_RD_30_0.png","img2/300/Congruent/R/C_Dist_300_LN_1_LD_5_RN_6_RD_12_1.png","img2/100/Incongruent/R/I_Dist_100_LN_17_LD_30_RN_10_RD_15_1.png","img2/200/Congruent/R/C_Dist_200_LN_1_LD_2_RN_21_RD_30_1.png","img2/300/Incongruent/R/I_Dist_300_LN_13_LD_26_RN_12_RD_15_1.png","img2/100/Congruent/L/C_Dist_100_LN_9_LD_15_RN_8_RD_16_0.png","img2/200/Incongruent/R/I_Dist_200_LN_11_LD_20_RN_3_RD_4_1.png","img2/300/Incongruent/R/I_Dist_300_LN_4_LD_20_RN_2_RD_4_1.png","img2/200/Incongruent/L/I_Dist_200_LN_3_LD_4_RN_11_RD_20_0.png","img2/300/Congruent/R/C_Dist_300_LN_5_LD_25_RN_7_RD_14_1.png","img2/200/Congruent/R/C_Dist_200_LN_3_LD_12_RN_9_RD_20_1.png","img2/300/Incongruent/R/I_Dist_300_LN_13_LD_26_RN_12_RD_15_1.png","img2/200/Incongruent/L/I_Dist_200_LN_7_LD_10_RN_8_RD_16_0.png","img2/300/Incongruent/L/I_Dist_300_LN_3_LD_6_RN_4_RD_20_0.png","img2/200/Congruent/R/C_Dist_200_LN_5_LD_10_RN_14_RD_20_1.png","img2/300/Incongruent/R/I_Dist_300_LN_4_LD_20_RN_2_RD_4_1.png","img2/200/Incongruent/L/I_Dist_200_LN_3_LD_4_RN_11_RD_20_0.png","img2/300/Incongruent/L/I_Dist_300_LN_2_LD_4_RN_6_RD_30_0.png","img2/100/Incongruent/R/I_Dist_100_LN_13_LD_26_RN_12_RD_20_1.png","img2/200/Incongruent/R/I_Dist_200_LN_7_LD_15_RN_4_RD_6_1.png","img2/100/Congruent/L/C_Dist_100_LN_6_LD_20_RN_5_RD_25_0.png","img2/100/Incongruent/R/I_Dist_100_LN_10_LD_25_RN_9_RD_18_1.png","img2/200/Incongruent/L/I_Dist_200_LN_7_LD_10_RN_12_RD_24_0.png","img2/100/Incongruent/R/I_Dist_100_LN_6_LD_12_RN_3_RD_5_1.png","img2/100/Congruent/R/C_Dist_100_LN_7_LD_14_RN_15_RD_25_1.png","img2/200/Congruent/R/C_Dist_200_LN_5_LD_10_RN_14_RD_20_1.png","img2/200/Incongruent/R/I_Dist_200_LN_7_LD_15_RN_4_RD_6_1.png","img2/200/Congruent/R/C_Dist_200_LN_9_LD_30_RN_13_RD_26_1.png","img2/100/Incongruent/L/I_Dist_100_LN_6_LD_10_RN_7_RD_14_0.png","img2/100/Incongruent/R/I_Dist_100_LN_12_LD_24_RN_9_RD_15_1.png","img2/200/Incongruent/R/I_Dist_200_LN_11_LD_20_RN_3_RD_4_1.png","img2/300/Incongruent/L/I_Dist_300_LN_1_LD_2_RN_2_RD_10_0.png","img2/100/Incongruent/R/I_Dist_100_LN_17_LD_30_RN_10_RD_15_1.png","img2/100/Incongruent/L/I_Dist_100_LN_3_LD_6_RN_4_RD_10_0.png","img2/100/Incongruent/R/I_Dist_100_LN_12_LD_24_RN_9_RD_15_1.png","img2/100/Congruent/R/C_Dist_100_LN_4_LD_10_RN_15_RD_30_1.png","img2/100/Incongruent/R/I_Dist_100_LN_8_LD_16_RN_6_RD_10_1.png","img2/100/Incongruent/L/I_Dist_100_LN_6_LD_10_RN_7_RD_14_0.png","img2/300/Incongruent/L/I_Dist_300_LN_8_LD_10_RN_9_RD_18_0.png","img2/200/Congruent/R/C_Dist_200_LN_3_LD_10_RN_11_RD_22_1.png","img2/100/Congruent/L/C_Dist_100_LN_3_LD_6_RN_2_RD_5_0.png","img2/100/Congruent/L/C_Dist_100_LN_11_LD_22_RN_6_RD_15_0.png","img2/100/Congruent/R/C_Dist_100_LN_1_LD_2_RN_3_RD_5_1.png","img2/100/Congruent/L/C_Dist_100_LN_10_LD_25_RN_3_RD_10_0.png","img2/100/Incongruent/L/I_Dist_100_LN_2_LD_4_RN_8_RD_20_0.png","img2/200/Congruent/L/C_Dist_200_LN_8_LD_15_RN_2_RD_6_0.png","img2/200/Incongruent/R/I_Dist_200_LN_7_LD_15_RN_6_RD_9_1.png","img2/300/Congruent/R/C_Dist_300_LN_1_LD_5_RN_6_RD_12_1.png","img2/100/Incongruent/R/I_Dist_100_LN_9_LD_18_RN_6_RD_10_1.png","img2/300/Congruent/R/C_Dist_300_LN_3_LD_12_RN_11_RD_20_1.png","img2/300/Congruent/R/C_Dist_300_LN_2_LD_20_RN_10_RD_25_1.png","img2/200/Congruent/R/C_Dist_200_LN_6_LD_20_RN_11_RD_22_1.png","img2/200/Congruent/L/C_Dist_200_LN_4_LD_10_RN_3_RD_15_0.png","img2/300/Incongruent/R/I_Dist_300_LN_13_LD_26_RN_12_RD_15_1.png","img2/200/Congruent/L/C_Dist_200_LN_8_LD_15_RN_3_RD_9_0.png","img2/100/Incongruent/L/I_Dist_100_LN_9_LD_15_RN_14_RD_28_0.png","img2/100/Congruent/R/C_Dist_100_LN_1_LD_2_RN_18_RD_30_1.png","img2/100/Congruent/R/C_Dist_100_LN_3_LD_20_RN_4_RD_16_1.png","img2/300/Incongruent/R/I_Dist_300_LN_4_LD_20_RN_2_RD_4_1.png","img2/100/Congruent/R/C_Dist_100_LN_4_LD_8_RN_6_RD_10_1.png","img2/200/Incongruent/L/I_Dist_200_LN_4_LD_6_RN_14_RD_30_0.png","img2/200/Incongruent/R/I_Dist_200_LN_6_LD_20_RN_3_RD_6_1.png","img2/200/Incongruent/L/I_Dist_200_LN_4_LD_5_RN_6_RD_10_0.png","img2/300/Incongruent/R/I_Dist_300_LN_13_LD_26_RN_12_RD_15_1.png","img2/100/Incongruent/L/I_Dist_100_LN_2_LD_4_RN_8_RD_20_0.png","img2/300/Congruent/R/C_Dist_300_LN_2_LD_20_RN_10_RD_25_1.png","img2/100/Congruent/L/C_Dist_100_LN_8_LD_16_RN_2_RD_5_0.png","img2/200/Congruent/R/C_Dist_200_LN_3_LD_10_RN_11_RD_22_1.png","img2/300/Congruent/R/C_Dist_300_LN_3_LD_6_RN_4_RD_5_1.png","img2/300/Congruent/R/C_Dist_300_LN_5_LD_25_RN_7_RD_14_1.png","img2/300/Congruent/R/C_Dist_300_LN_5_LD_25_RN_6_RD_12_1.png","img2/100/Incongruent/R/I_Dist_100_LN_13_LD_26_RN_12_RD_20_1.png","img2/200/Congruent/L/C_Dist_200_LN_16_LD_30_RN_9_RD_27_0.png","img2/300/Congruent/R/C_Dist_300_LN_5_LD_25_RN_7_RD_14_1.png","img2/300/Congruent/L/C_Dist_300_LN_11_LD_22_RN_1_RD_5_0.png","img2/100/Congruent/L/C_Dist_100_LN_3_LD_6_RN_2_RD_5_0.png","img2/200/Congruent/R/C_Dist_200_LN_13_LD_26_RN_14_RD_20_1.png","img2/300/Incongruent/L/I_Dist_300_LN_7_LD_10_RN_8_RD_20_0.png","img2/300/Congruent/R/C_Dist_300_LN_2_LD_10_RN_12_RD_24_1.png","img2/300/Congruent/L/C_Dist_300_LN_8_LD_16_RN_1_RD_5_0.png","img2/100/Congruent/R/C_Dist_100_LN_4_LD_8_RN_6_RD_10_1.png","img2/300/Congruent/R/C_Dist_300_LN_5_LD_25_RN_6_RD_12_1.png","img2/200/Congruent/R/C_Dist_200_LN_6_LD_12_RN_7_RD_10_1.png","img2/300/Congruent/R/C_Dist_300_LN_1_LD_20_RN_7_RD_20_1.png","img2/100/Congruent/R/C_Dist_100_LN_2_LD_5_RN_11_RD_22_1.png","img2/200/Incongruent/R/I_Dist_200_LN_7_LD_15_RN_6_RD_9_1.png","img2/300/Incongruent/R/I_Dist_300_LN_13_LD_26_RN_12_RD_15_1.png","img2/100/Congruent/L/C_Dist_100_LN_15_LD_25_RN_13_RD_26_0.png","img2/300/Congruent/R/C_Dist_300_LN_1_LD_20_RN_7_RD_20_1.png","img2/100/Congruent/R/C_Dist_100_LN_2_LD_5_RN_11_RD_22_1.png","img2/200/Congruent/R/C_Dist_200_LN_6_LD_12_RN_7_RD_10_1.png"],"dist100_C":[["C_Dist_100_LN_10_LD_25_RN_3_RD_10_0.png","C_Dist_100_LN_11_LD_22_RN_4_RD_10_0.png","C_Dist_100_LN_11_LD_22_RN_6_RD_15_0.png","C_Dist_100_LN_15_LD_25_RN_13_RD_26_0.png","C_Dist_100_LN_3_LD_6_RN_2_RD_5_0.png","C_Dist_100_LN_6_LD_20_RN_5_RD_25_0.png","C_Dist_100_LN_8_LD_16_RN_2_RD_5_0.png","C_Dist_100_LN_9_LD_15_RN_8_RD_16_0.png"],["C_Dist_100_LN_1_LD_2_RN_18_RD_30_1.png","C_Dist_100_LN_1_LD_2_RN_3_RD_5_1.png","C_Dist_100_LN_12_LD_30_RN_13_RD_26_1.png","C_Dist_100_LN_2_LD_5_RN_11_RD_22_1.png","C_Dist_100_LN_2_LD_5_RN_6_RD_12_1.png","C_Dist_100_LN_3_LD_20_RN_4_RD_16_1.png","C_Dist_100_LN_4_LD_10_RN_15_RD_30_1.png","C_Dist_100_LN_4_LD_8_RN_6_RD_10_1.png","C_Dist_100_LN_6_LD_12_RN_15_RD_25_1.png","C_Dist_100_LN_7_LD_14_RN_15_RD_25_1.png","C_Dist_100_LN_7_LD_14_RN_9_RD_15_1.png"]],"dist100_I":[["I_Dist_100_LN_1_LD_2_RN_8_RD_20_0.png","I_Dist_100_LN_2_LD_4_RN_6_RD_15_0.png","I_Dist_100_LN_2_LD_4_RN_8_RD_20_0.png","I_Dist_100_LN_3_LD_5_RN_11_RD_22_0.png","I_Dist_100_LN_3_LD_5_RN_8_RD_16_0.png","I_Dist_100_LN_3_LD_6_RN_4_RD_10_0.png","I_Dist_100_LN_3_LD_9_RN_7_RD_30_0.png","I_Dist_100_LN_4_LD_8_RN_8_RD_20_0.png","I_Dist_100_LN_6_LD_10_RN_11_RD_22_0.png","I_Dist_100_LN_6_LD_10_RN_13_RD_26_0.png","I_Dist_100_LN_6_LD_10_RN_7_RD_14_0.png","I_Dist_100_LN_9_LD_10_RN_20_RD_25_0.png","I_Dist_100_LN_9_LD_15_RN_13_RD_26_0.png","I_Dist_100_LN_9_LD_15_RN_14_RD_28_0.png"],["I_Dist_100_LN_10_LD_25_RN_8_RD_16_1.png","I_Dist_100_LN_10_LD_25_RN_9_RD_18_1.png","I_Dist_100_LN_11_LD_22_RN_9_RD_15_1.png","I_Dist_100_LN_12_LD_24_RN_9_RD_15_1.png","I_Dist_100_LN_12_LD_30_RN_2_RD_4_1.png","I_Dist_100_LN_13_LD_26_RN_12_RD_20_1.png","I_Dist_100_LN_13_LD_26_RN_6_RD_10_1.png","I_Dist_100_LN_17_LD_30_RN_10_RD_15_1.png","I_Dist_100_LN_6_LD_12_RN_3_RD_5_1.png","I_Dist_100_LN_8_LD_16_RN_6_RD_10_1.png","I_Dist_100_LN_8_LD_20_RN_1_RD_2_1.png","I_Dist_100_LN_9_LD_18_RN_6_RD_10_1.png"]],"dist100_S":[["E_Dist_100_LN_2_LD_12_RN_2_RD_30_0.png","E_Dist_100_LN_6_LD_10_RN_6_RD_12_0.png"],["E_Dist_100_LN_6_LD_12_RN_6_RD_10_1.png"]],"dist200_C":[["C_Dist_200_LN_11_LD_22_RN_3_RD_10_0.png","C_Dist_200_LN_12_LD_15_RN_6_RD_10_0.png","C_Dist_200_LN_12_LD_20_RN_6_RD_15_0.png","C_Dist_200_LN_14_LD_28_RN_6_RD_20_0.png","C_Dist_200_LN_15_LD_25_RN_4_RD_10_0.png","C_Dist_200_LN_16_LD_20_RN_12_RD_20_0.png","C_Dist_200_LN_16_LD_30_RN_9_RD_27_0.png","C_Dist_200_LN_20_LD_25_RN_9_RD_15_0.png","C_Dist_200_LN_21_LD_30_RN_2_RD_4_0.png","C_Dist_200_LN_4_LD_10_RN_3_RD_15_0.png","C_Dist_200_LN_4_LD_8_RN_3_RD_10_0.png","C_Dist_200_LN_6_LD_15_RN_3_RD_15_0.png","C_Dist_200_LN_7_LD_21_RN_2_RD_15_0.png","C_Dist_200_LN_8_LD_15_RN_2_RD_6_0.png","C_Dist_200_LN_8_LD_15_RN_3_RD_9_0.png","C_Dist_200_LN_8_LD_15_RN_7_RD_21_0.png","C_Dist_200_LN_9_LD_20_RN_4_RD_16_0.png"],["C_Dist_200_LN_1_LD_2_RN_21_RD_30_1.png","C_Dist_200_LN_13_LD_26_RN_14_RD_20_1.png","C_Dist_200_LN_3_LD_10_RN_11_RD_22_1.png","C_Dist_200_LN_3_LD_10_RN_14_RD_28_1.png","C_Dist_200_LN_3_LD_10_RN_7_RD_14_1.png","C_Dist_200_LN_3_LD_12_RN_9_RD_20_1.png","C_Dist_200_LN_3_LD_6_RN_14_RD_20_1.png","C_Dist_200_LN_5_LD_10_RN_14_RD_20_1.png","C_Dist_200_LN_6_LD_12_RN_7_RD_10_1.png","C_Dist_200_LN_6_LD_20_RN_11_RD_22_1.png","C_Dist_200_LN_7_LD_15_RN_18_RD_27_1.png","C_Dist_200_LN_9_LD_30_RN_13_RD_26_1.png"]],"dist200_I":[["I_Dist_200_LN_1_LD_2_RN_3_RD_10_0.png","I_Dist_200_LN_1_LD_3_RN_2_RD_15_0.png","I_Dist_200_LN_3_LD_4_RN_11_RD_20_0.png","I_Dist_200_LN_4_LD_5_RN_6_RD_10_0.png","I_Dist_200_LN_4_LD_6_RN_14_RD_30_0.png","I_Dist_200_LN_7_LD_10_RN_12_RD_24_0.png","I_Dist_200_LN_7_LD_10_RN_14_RD_28_0.png","I_Dist_200_LN_7_LD_10_RN_8_RD_16_0.png"],["I_Dist_200_LN_11_LD_20_RN_3_RD_4_1.png","I_Dist_200_LN_14_LD_30_RN_12_RD_18_1.png","I_Dist_200_LN_14_LD_30_RN_6_RD_9_1.png","I_Dist_200_LN_3_LD_10_RN_1_RD_2_1.png","I_Dist_200_LN_4_LD_30_RN_1_RD_3_1.png","I_Dist_200_LN_6_LD_20_RN_3_RD_6_1.png","I_Dist_200_LN_7_LD_15_RN_4_RD_6_1.png","I_Dist_200_LN_7_LD_15_RN_6_RD_9_1.png","I_Dist_200_LN_9_LD_15_RN_8_RD_10_1.png"]],"dist200_S":[["E_Dist_200_LN_3_LD_6_RN_3_RD_10_0.png"],["E_Dist_200_LN_3_LD_10_RN_3_RD_6_1.png"]],"dist300_C":[["C_Dist_300_LN_11_LD_22_RN_1_RD_5_0.png","C_Dist_300_LN_11_LD_22_RN_2_RD_10_0.png","C_Dist_300_LN_11_LD_22_RN_4_RD_20_0.png","C_Dist_300_LN_12_LD_24_RN_2_RD_10_0.png","C_Dist_300_LN_18_LD_20_RN_9_RD_15_0.png","C_Dist_300_LN_20_LD_25_RN_13_RD_26_0.png","C_Dist_300_LN_20_LD_25_RN_14_RD_28_0.png","C_Dist_300_LN_20_LD_25_RN_5_RD_10_0.png","C_Dist_300_LN_20_LD_25_RN_8_RD_16_0.png","C_Dist_300_LN_20_LD_25_RN_9_RD_18_0.png","C_Dist_300_LN_24_LD_30_RN_2_RD_4_0.png","C_Dist_300_LN_24_LD_30_RN_8_RD_16_0.png","C_Dist_300_LN_3_LD_6_RN_2_RD_10_0.png","C_Dist_300_LN_4_LD_10_RN_1_RD_10_0.png","C_Dist_300_LN_4_LD_5_RN_2_RD_4_0.png","C_Dist_300_LN_8_LD_16_RN_1_RD_5_0.png","C_Dist_300_LN_9_LD_10_RN_3_RD_5_0.png"],["C_Dist_300_LN_1_LD_20_RN_7_RD_20_1.png","C_Dist_300_LN_1_LD_3_RN_19_RD_30_1.png","C_Dist_300_LN_1_LD_30_RN_8_RD_24_1.png","C_Dist_300_LN_1_LD_5_RN_11_RD_22_1.png","C_Dist_300_LN_1_LD_5_RN_3_RD_6_1.png","C_Dist_300_LN_1_LD_5_RN_6_RD_12_1.png","C_Dist_300_LN_2_LD_10_RN_12_RD_24_1.png","C_Dist_300_LN_2_LD_20_RN_10_RD_25_1.png","C_Dist_300_LN_3_LD_12_RN_11_RD_20_1.png","C_Dist_300_LN_3_LD_6_RN_4_RD_5_1.png","C_Dist_300_LN_4_LD_20_RN_13_RD_26_1.png","C_Dist_300_LN_5_LD_25_RN_6_RD_12_1.png","C_Dist_300_LN_5_LD_25_RN_7_RD_14_1.png","C_Dist_300_LN_7_LD_14_RN_20_RD_25_1.png","C_Dist_300_LN_8_LD_15_RN_10_RD_12_1.png"]],"dist300_I":[["I_Dist_300_LN_1_LD_2_RN_2_RD_10_0.png","I_Dist_300_LN_1_LD_2_RN_3_RD_15_0.png","I_Dist_300_LN_2_LD_4_RN_6_RD_30_0.png","I_Dist_300_LN_3_LD_6_RN_4_RD_20_0.png","I_Dist_300_LN_4_LD_5_RN_6_RD_12_0.png","I_Dist_300_LN_4_LD_5_RN_8_RD_16_0.png","I_Dist_300_LN_7_LD_10_RN_8_RD_20_0.png","I_Dist_300_LN_8_LD_10_RN_14_RD_28_0.png","I_Dist_300_LN_8_LD_10_RN_9_RD_18_0.png"],["I_Dist_300_LN_13_LD_26_RN_12_RD_15_1.png","I_Dist_300_LN_4_LD_20_RN_2_RD_4_1.png"]],"dist300_S":[["E_Dist_300_LN_9_LD_12_RN_9_RD_20_0.png"],["E_Dist_300_LN_18_LD_30_RN_18_RD_20_1.png","E_Dist_300_LN_3_LD_10_RN_3_RD_5_1.png","E_Dist_300_LN_9_LD_20_RN_9_RD_12_1.png"]],"dist500_C":[["C_Dist_500_LN_10_LD_13_RN_7_RD_26_0.png","C_Dist_500_LN_10_LD_15_RN_4_RD_24_0.png","C_Dist_500_LN_12_LD_16_RN_3_RD_12_0.png","C_Dist_500_LN_12_LD_18_RN_4_RD_24_0.png","C_Dist_500_LN_15_LD_18_RN_5_RD_15_0.png","C_Dist_500_LN_15_LD_20_RN_1_RD_4_0.png","C_Dist_500_LN_18_LD_27_RN_1_RD_6_0.png","C_Dist_500_LN_20_LD_24_RN_1_RD_3_0.png","C_Dist_500_LN_20_LD_24_RN_3_RD_9_0.png","C_Dist_500_LN_20_LD_24_RN_7_RD_21_0.png","C_Dist_500_LN_20_LD_28_RN_3_RD_14_0.png","C_Dist_500_LN_21_LD_28_RN_6_RD_24_0.png","C_Dist_500_LN_22_LD_28_RN_2_RD_7_0.png","C_Dist_500_LN_25_LD_30_RN_9_RD_27_0.png","C_Dist_500_LN_4_LD_6_RN_1_RD_6_0.png","C_Dist_500_LN_5_LD_6_RN_2_RD_6_0.png","C_Dist_500_LN_6_LD_9_RN_1_RD_6_0.png","C_Dist_500_LN_7_LD_10_RN_1_RD_5_0.png","C_Dist_500_LN_8_LD_12_RN_1_RD_6_0.png","C_Dist_500_LN_8_LD_12_RN_4_RD_24_0.png"],["C_Dist_500_LN_1_LD_4_RN_12_RD_16_1.png","C_Dist_500_LN_1_LD_4_RN_9_RD_12_1.png","C_Dist_500_LN_1_LD_9_RN_11_RD_18_1.png","C_Dist_500_LN_10_LD_24_RN_22_RD_24_1.png","C_Dist_500_LN_2_LD_12_RN_10_RD_15_1.png","C_Dist_500_LN_2_LD_12_RN_12_RD_18_1.png","C_Dist_500_LN_2_LD_12_RN_4_RD_6_1.png","C_Dist_500_LN_2_LD_24_RN_7_RD_12_1.png","C_Dist_500_LN_2_LD_5_RN_18_RD_20_1.png","C_Dist_500_LN_2_LD_5_RN_9_RD_10_1.png","C_Dist_500_LN_2_LD_8_RN_12_RD_16_1.png","C_Dist_500_LN_2_LD_8_RN_21_RD_28_1.png","C_Dist_500_LN_3_LD_10_RN_4_RD_5_1.png","C_Dist_500_LN_3_LD_12_RN_15_RD_20_1.png","C_Dist_500_LN_3_LD_30_RN_6_RD_10_1.png","C_Dist_500_LN_3_LD_8_RN_14_RD_16_1.png","C_Dist_500_LN_4_LD_16_RN_15_RD_20_1.png","C_Dist_500_LN_4_LD_24_RN_12_RD_18_1.png","C_Dist_500_LN_5_LD_14_RN_6_RD_7_1.png","C_Dist_500_LN_7_LD_21_RN_20_RD_24_1.png","C_Dist_500_LN_7_LD_28_RN_12_RD_16_1.png","C_Dist_500_LN_7_LD_28_RN_9_RD_12_1.png","C_Dist_500_LN_9_LD_27_RN_20_RD_24_1.png"]],"dist500_I":[["I_Dist_500_LN_2_LD_3_RN_4_RD_24_0.png","I_Dist_500_LN_5_LD_6_RN_6_RD_18_0.png","I_Dist_500_LN_7_LD_8_RN_9_RD_24_0.png"],["I_Dist_500_LN_7_LD_21_RN_5_RD_6_1.png"]],"dist500_S":[["E_Dist_500_LN_6_LD_8_RN_6_RD_24_0.png"],["E_Dist_500_LN_2_LD_12_RN_2_RD_3_1.png","E_Dist_500_LN_6_LD_24_RN_6_RD_8_1.png"]]}},{"start_time":1552327377187,"click_time":1552327378963,"finger_time":1552327378503,"fix_duration":523.6952070282551,"trial":1,"RT":1316,"MT":460,"sideResp":2,"stimulus":[],"xmouse":[762,762,762,761,760,759,759,759,759,759,759,759,759,759,759,759,759,759,759,759,759,759,759,759,759,759,759,759,759,759,759,759,759,759,759,759,759,759,759,759,759,759,759,759,759,759,759,759,759,759,759,759,759,759,759,759,759,759,759,759,765,772,777,783,791,811,818,827,833,838,861,918,996,1079,1158,1263,1291,1303,1307,1307,1307,1307,1303,1292,1243,1220,1193,1166,1148],"ymouse":[498,498,498,498,499,501,501,501,501,501,501,501,501,501,501,501,501,501,501,501,501,501,501,501,501,501,501,501,501,501,501,501,501,501,501,501,501,501,501,501,501,501,501,501,501,501,501,501,501,501,501,501,501,501,501,501,501,501,501,501,499,495,491,486,478,460,446,432,416,406,371,346,300,248,192,113,85,67,57,56,56,56,55,56,64,65,65,65,62],"timestamp_mouse":[17,37,56,77,96,117,136,157,177,196,217,236,258,278,297,317,336,356,377,397,418,436,456,477,497,518,536,556,578,596,617,638,656,676,697,717,737,756,776,797,816,836,857,876,897,918,936,957,978,997,1016,1036,1056,1077,1096,1117,1136,1157,1178,1196,1216,1236,1257,1276,1297,1316,1337,1356,1377,1396,1416,1436,1457,1476,1496,1516,1536,1556,1576,1597,1617,1637,1657,1677,1697,1717,1736,1756,1776],"xSR":741.5,"ySR":469.95,"xT1":424.9,"yT1":0,"xT2":1058.1,"yT2":0,"toosoon":0,"cond_shown":"Congruent","ratio_trial":200,"L_num":6,"L_den":12,"R_num":7,"R_den":10,"correct_side":2,"subjID":"dylansantiagolozano16","gender":"0","school":"4","age":"9"},{"start_time":1552327380373,"click_time":1552327382644,"finger_time":1552327381923,"fix_duration":250,"trial":2,"RT":1550,"MT":721,"sideResp":1,"stimulus":[],"xmouse":[809,809,809,809,809,809,809,809,809,809,809,809,809,809,809,809,809,809,809,809,809,809,809,809,809,809,809,809,809,809,809,809,809,809,809,809,809,809,809,809,809,809,809,809,809,809,809,809,809,809,809,809,809,809,809,809,809,809,809,809,809,809,809,809,809,809,809,809,809,809,809,809,809,808,808,806,803,800,797,787,782,761,751,742,729,715,694,688,686,686,686,685,685,685,685,685,684,684,683,681,678,678,678,678,677,675,671,664,654,636,550,503,462,434],"ymouse":[513,513,513,513,513,513,513,513,513,513,513,513,513,513,513,513,513,513,513,513,513,513,513,513,513,513,513,513,513,513,513,513,513,513,513,513,513,513,513,513,513,513,513,513,513,513,513,513,513,513,513,513,513,513,513,513,513,513,513,513,513,513,513,513,513,513,513,513,513,513,513,513,513,506,499,489,483,465,441,403,392,342,321,299,277,256,231,227,226,226,226,226,229,235,241,248,251,251,253,256,259,259,259,259,260,260,260,260,254,241,174,140,111,87],"timestamp_mouse":[15,30,50,71,90,110,130,150,170,191,211,230,251,270,292,310,331,351,370,391,410,430,450,470,490,510,531,550,571,590,611,631,652,670,691,710,731,751,770,790,811,830,850,871,890,910,930,950,970,990,1011,1032,1051,1071,1090,1110,1130,1151,1170,1190,1210,1230,1252,1270,1291,1310,1330,1351,1371,1391,1410,1432,1451,1470,1490,1510,1532,1550,1570,1590,1611,1630,1650,1670,1691,1710,1730,1750,1770,1790,1811,1830,1850,1870,1890,1910,1931,1951,1970,1990,2010,2030,2051,2070,2091,2111,2130,2150,2170,2191,2211,2231,2250,2271],"xSR":741.5,"ySR":469.95,"xT1":424.9,"yT1":0,"xT2":1058.1,"yT2":0,"toosoon":0,"cond_shown":"Incongruent","ratio_trial":300,"L_num":1,"L_den":2,"R_num":3,"R_den":15,"correct_side":1,"subjID":"dylansantiagolozano16","gender":"0","school":"4","age":"9"},{"start_time":1552327385120,"click_time":1552327387044,"finger_time":1552327386383,"fix_duration":1436.915644133562,"trial":3,"RT":1263,"MT":661,"sideResp":2,"stimulus":[],"xmouse":[763,763,763,763,763,763,763,763,763,763,763,763,763,763,763,763,763,763,763,763,763,763,763,763,763,763,763,763,763,763,763,763,763,763,763,763,763,763,763,763,763,763,763,763,763,763,763,763,763,763,763,763,763,763,763,763,763,763,763,763,763,777,834,883,912,926,941,954,966,986,993,997,1000,1004,1004,1004,1004,1004,1004,1004,1004,1004,1004,1004,1000,996,990,984,979,978,978,979,994,1004,1058,1094,1129],"ymouse":[528,528,528,528,528,528,528,528,528,528,528,528,528,528,528,528,528,528,528,528,528,528,528,528,528,528,528,528,528,528,528,528,528,528,528,528,528,528,528,528,528,528,528,528,528,528,528,528,528,528,528,528,528,528,528,528,528,528,528,528,526,512,474,451,433,422,405,388,370,334,319,303,289,269,269,269,269,269,269,273,283,289,295,303,332,345,358,369,383,385,385,386,377,362,212,144,68],"timestamp_mouse":[3,23,43,63,85,103,123,143,163,184,204,223,243,264,285,303,323,343,363,384,405,424,443,464,483,504,524,543,565,584,603,624,644,663,684,704,723,743,763,784,803,823,843,864,883,903,925,943,963,983,1003,1025,1043,1064,1084,1103,1123,1143,1163,1184,1205,1223,1243,1263,1284,1303,1323,1345,1364,1384,1403,1423,1443,1463,1485,1504,1523,1543,1564,1583,1604,1623,1643,1663,1684,1705,1723,1743,1764,1784,1804,1823,1845,1863,1884,1905,1924],"xSR":741.5,"ySR":469.95,"xT1":424.9,"yT1":0,"xT2":1058.1,"yT2":0,"toosoon":0,"cond_shown":"Incongruent","ratio_trial":200,"L_num":11,"L_den":20,"R_num":3,"R_den":4,"correct_side":2,"subjID":"dylansantiagolozano16","gender":"0","school":"4","age":"9"},{"start_time":1552327389870,"click_time":1552327390964,"finger_time":1552327390703,"fix_duration":1345.2331499237985,"trial":4,"RT":833,"MT":261,"sideResp":1,"stimulus":[],"xmouse":[806,806,806,806,806,806,806,806,806,806,806,806,806,806,806,806,806,806,806,806,806,806,806,806,806,806,806,806,806,806,806,806,806,806,806,806,806,806,806,803,763,703,635,573,528,499,514,528,535,539,539,536,532,526,518],"ymouse":[520,520,520,520,520,520,520,520,520,520,520,520,520,520,520,520,520,520,520,520,520,520,520,520,520,520,520,520,520,520,520,520,520,520,520,520,520,520,519,515,484,441,393,339,278,189,156,131,115,100,83,79,74,71,69],"timestamp_mouse":[18,34,54,73,94,115,135,153,174,194,213,233,253,273,294,314,333,354,373,393,414,433,454,474,495,514,534,554,574,595,614,634,654,673,693,715,734,753,775,793,813,833,853,873,893,913,934,954,973,993,1014,1033,1054,1074,1094],"xSR":741.5,"ySR":469.95,"xT1":424.9,"yT1":0,"xT2":1058.1,"yT2":0,"toosoon":0,"cond_shown":"Incongruent","ratio_trial":300,"L_num":3,"L_den":6,"R_num":4,"R_den":20,"correct_side":1,"subjID":"dylansantiagolozano16","gender":"0","school":"4","age":"9"},{"start_time":1552327394514,"click_time":1552327396223,"finger_time":1552327395764,"fix_duration":250,"trial":5,"RT":1250,"MT":459,"sideResp":2,"stimulus":[],"xmouse":[831,831,831,831,830,828,825,824,822,822,822,822,822,822,822,822,822,822,822,822,822,822,822,822,822,822,822,822,822,822,822,822,822,822,822,822,822,822,822,822,822,822,822,822,822,822,822,822,822,822,822,822,822,822,822,822,822,822,822,822,826,836,861,958,997,1023,1038,1055,1065,1069,1069,1069,1069,1068,1065,1063,1062,1061,1061,1061,1061,1061,1061,1062,1064,1065],"ymouse":[511,511,511,511,511,511,511,511,511,511,511,511,511,511,511,511,511,511,511,511,511,511,511,511,511,511,511,511,511,511,511,511,511,511,511,511,511,511,511,511,511,511,511,511,511,511,511,511,511,511,511,511,511,511,511,511,511,511,511,511,503,496,479,411,379,355,330,285,238,180,161,147,139,134,120,116,111,108,107,107,107,107,106,102,100,98],"timestamp_mouse":[9,30,49,70,90,109,129,149,169,189,209,230,250,269,291,309,329,350,370,389,410,429,449,469,489,510,529,549,569,591,610,629,649,669,691,711,729,749,769,791,810,829,849,870,891,910,929,949,969,989,1009,1029,1049,1069,1089,1110,1130,1149,1169,1190,1210,1229,1250,1270,1290,1309,1329,1350,1369,1389,1409,1430,1450,1469,1489,1510,1529,1549,1570,1589,1609,1629,1649,1669,1689,1709],"xSR":741.5,"ySR":469.95,"xT1":424.9,"yT1":0,"xT2":1058.1,"yT2":0,"toosoon":0,"cond_shown":"Incongruent","ratio_trial":100,"L_num":6,"L_den":10,"R_num":7,"R_den":14,"correct_side":1,"subjID":"dylansantiagolozano16","gender":"0","school":"4","age":"9"},{"start_time":1552327399056,"click_time":1552327400384,"finger_time":1552327399943,"fix_duration":1391.5034553723508,"trial":6,"RT":887,"MT":441,"sideResp":1,"stimulus":[],"xmouse":[807,807,807,807,807,807,807,807,807,807,807,807,807,807,807,807,807,807,807,807,807,807,807,807,807,807,807,807,807,807,807,807,807,807,807,807,807,807,807,807,807,806,794,784,765,755,734,680,664,654,649,647,645,642,640,637,631,629,625,619,607,568,550,536,530,528,524],"ymouse":[538,538,538,538,538,538,538,538,538,538,538,538,538,538,534,532,531,531,531,531,531,531,531,531,531,531,531,531,531,531,531,531,531,531,531,531,531,531,531,531,528,522,497,476,438,419,385,294,258,233,215,200,190,181,172,166,151,147,143,138,133,121,116,110,107,104,96],"timestamp_mouse":[7,28,47,69,88,108,127,147,167,189,208,228,248,268,289,308,328,348,369,388,407,428,448,467,488,507,528,548,568,588,607,627,648,667,688,708,728,748,767,787,807,827,847,868,887,907,927,948,967,988,1008,1028,1047,1067,1087,1108,1128,1147,1167,1188,1208,1228,1247,1268,1287,1308,1328],"xSR":741.5,"ySR":469.95,"xT1":424.9,"yT1":0,"xT2":1058.1,"yT2":0,"toosoon":0,"cond_shown":"Incongruent","ratio_trial":100,"L_num":3,"L_den":9,"R_num":7,"R_den":30,"correct_side":1,"subjID":"dylansantiagolozano16","gender":"0","school":"4","age":"9"},{"start_time":1552327402653,"click_time":1552327404143,"finger_time":1552327403804,"fix_duration":1048.4056327602957,"trial":7,"RT":1151,"MT":339,"sideResp":1,"stimulus":[],"xmouse":[805,805,805,805,805,805,805,805,805,805,805,805,805,805,805,805,805,805,805,805,805,805,805,805,805,805,805,805,805,805,805,805,805,805,805,805,805,805,805,805,805,805,805,805,805,805,805,805,805,805,805,805,805,805,805,803,777,744,718,694,678,651,638,626,616,605,595,580,571,560,550,539,520,509,499],"ymouse":[524,524,524,524,524,524,524,524,524,524,524,524,524,524,524,524,524,524,524,524,524,524,524,524,524,524,524,524,524,524,524,524,524,524,524,524,524,524,524,524,524,524,524,524,524,524,524,524,524,524,524,524,524,524,524,524,486,444,412,386,368,344,334,323,314,303,290,267,249,225,200,175,132,111,95],"timestamp_mouse":[10,30,51,72,90,110,132,151,171,191,210,230,251,272,291,311,331,350,371,392,410,431,452,470,491,512,530,550,570,591,611,631,650,671,691,710,730,751,770,790,810,831,850,871,892,911,931,951,970,990,1010,1031,1051,1070,1090,1110,1130,1151,1170,1191,1210,1231,1250,1270,1290,1311,1331,1351,1371,1391,1411,1430,1450,1471,1490],"xSR":741.5,"ySR":469.95,"xT1":424.9,"yT1":0,"xT2":1058.1,"yT2":0,"toosoon":0,"cond_shown":"Incongruent","ratio_trial":300,"L_num":7,"L_den":10,"R_num":8,"R_den":20,"correct_side":1,"subjID":"dylansantiagolozano16","gender":"0","school":"4","age":"9"},{"start_time":1552327406382,"click_time":1552327408285,"finger_time":1552327407443,"fix_duration":1376.9584367423497,"trial":8,"RT":1061,"MT":842,"sideResp":2,"stimulus":[],"xmouse":[754,754,754,754,754,754,754,754,754,754,754,754,754,754,754,754,754,754,754,754,754,754,754,754,754,754,754,754,754,754,754,754,754,754,754,754,754,754,754,754,754,754,754,754,754,754,754,754,754,754,754,776,832,859,884,892,893,893,893,893,893,893,893,893,893,893,893,893,893,893,893,893,893,894,913,974,1004,1033,1054,1064,1069,1069,1068,1066,1064,1060,1051,1044,1038,1033,1029,1029,1033,1042,1057,1073],"ymouse":[548,548,548,548,548,548,548,548,548,548,548,548,548,548,548,548,548,548,548,548,548,548,548,548,548,548,548,548,548,548,548,548,548,548,548,548,548,548,548,548,548,548,548,548,548,548,548,548,548,548,548,538,514,503,488,480,480,480,480,480,480,480,480,480,480,480,480,480,480,480,480,480,480,473,449,356,303,253,214,188,170,150,147,145,141,135,118,106,94,76,56,46,39,29,17,5],"timestamp_mouse":[4,23,41,61,82,101,122,141,162,181,201,222,243,261,281,301,322,342,362,382,402,421,442,461,482,501,522,541,562,582,602,622,643,662,681,703,723,742,762,783,801,821,843,861,882,901,923,941,961,982,1003,1023,1042,1061,1081,1101,1121,1142,1161,1181,1202,1222,1241,1261,1282,1302,1321,1341,1362,1382,1401,1421,1441,1461,1481,1501,1521,1542,1563,1583,1601,1622,1641,1663,1681,1701,1721,1741,1762,1782,1802,1821,1842,1863,1881,1903],"xSR":741.5,"ySR":469.95,"xT1":424.9,"yT1":0,"xT2":1058.1,"yT2":0,"toosoon":0,"cond_shown":"Congruent","ratio_trial":100,"L_num":2,"L_den":5,"R_num":11,"R_den":22,"correct_side":2,"subjID":"dylansantiagolozano16","gender":"0","school":"4","age":"9"},{"start_time":1552327410914,"click_time":1552327412764,"finger_time":1552327412124,"fix_duration":609.5840683394647,"trial":9,"RT":1210,"MT":640,"sideResp":2,"stimulus":[],"xmouse":[772,772,772,772,773,774,774,774,774,774,774,774,774,774,774,774,774,774,774,774,774,774,774,774,774,774,774,774,774,774,774,774,774,774,774,774,774,774,774,774,774,774,774,774,774,774,774,774,774,774,774,774,774,774,774,774,774,774,774,781,797,850,910,1101,1180,1231,1245,1245,1245,1245,1245,1246,1246,1238,1231,1223,1212,1200,1190,1179,1179,1179,1178,1175,1175,1175,1175,1173,1172,1167,1163,1160,1155],"ymouse":[474,475,477,479,481,482,482,482,482,482,482,482,482,482,482,482,482,482,482,482,482,482,482,482,482,482,482,482,482,482,482,482,482,482,482,482,482,482,482,482,482,482,482,482,482,482,482,482,482,482,482,482,482,482,482,482,482,482,482,477,463,418,366,203,132,97,94,94,94,94,94,93,90,72,63,54,44,35,29,25,25,25,25,25,25,25,25,25,27,33,37,39,42],"timestamp_mouse":[10,30,50,70,91,109,129,151,170,191,209,229,250,271,290,309,329,350,369,389,411,430,450,471,490,509,529,549,571,590,609,629,651,669,689,709,729,749,769,789,809,830,849,869,889,909,929,949,971,989,1009,1030,1050,1069,1090,1111,1131,1149,1170,1189,1210,1230,1251,1270,1289,1310,1329,1350,1369,1389,1410,1429,1449,1470,1490,1509,1529,1549,1569,1590,1610,1631,1649,1670,1690,1711,1731,1751,1769,1790,1811,1829,1850],"xSR":741.5,"ySR":469.95,"xT1":424.9,"yT1":0,"xT2":1058.1,"yT2":0,"toosoon":0,"cond_shown":"Congruent","ratio_trial":200,"L_num":3,"L_den":10,"R_num":7,"R_den":14,"correct_side":2,"subjID":"dylansantiagolozano16","gender":"0","school":"4","age":"9"},{"start_time":1552327420426,"click_time":1552327421943,"finger_time":1552327421343,"fix_duration":1021.2076662181518,"trial":10,"RT":917,"MT":600,"sideResp":2,"stimulus":[],"xmouse":[831,831,831,831,831,831,831,831,831,831,831,831,831,831,831,831,831,831,831,831,831,831,831,831,831,831,831,831,831,831,831,831,831,831,831,831,831,831,831,831,831,830,834,838,841,845,846,849,855,857,859,860,866,876,885,894,916,947,958,967,976,982,989,990,990,991,993,993,993,993,993,996,1020,1035,1051,1065],"ymouse":[525,525,525,525,525,525,525,525,525,525,525,525,525,525,525,525,525,525,525,525,525,525,525,525,525,525,525,525,525,525,525,525,525,525,525,525,525,525,525,525,525,523,500,490,480,468,459,443,421,413,406,402,388,375,362,350,320,287,271,255,242,230,214,212,209,205,201,196,181,173,161,142,79,48,24,9],"timestamp_mouse":[18,37,58,77,99,119,137,157,177,198,218,237,258,277,297,319,339,358,378,398,419,439,457,478,499,518,538,558,578,599,619,638,657,678,697,718,738,758,778,797,818,837,858,878,899,917,938,957,977,999,1019,1039,1058,1077,1098,1118,1138,1158,1178,1197,1218,1237,1258,1277,1298,1318,1337,1357,1377,1397,1417,1438,1458,1477,1498,1517],"xSR":741.5,"ySR":469.95,"xT1":424.9,"yT1":0,"xT2":1058.1,"yT2":0,"toosoon":0,"cond_shown":"Incongruent","ratio_trial":300,"L_num":13,"L_den":26,"R_num":12,"R_den":15,"correct_side":2,"subjID":"dylansantiagolozano16","gender":"0","school":"4","age":"9"},{"start_time":1552327424133,"click_time":1552327426005,"finger_time":1552327425623,"fix_duration":1168.743688320472,"trial":11,"RT":1490,"MT":382,"sideResp":2,"stimulus":[],"xmouse":[821,821,821,821,821,821,821,821,821,821,821,821,821,821,821,821,821,821,821,821,821,821,821,821,821,821,821,821,821,821,821,821,821,821,821,821,821,821,821,821,821,821,821,821,821,821,821,821,821,821,821,821,821,821,821,821,821,821,821,821,821,821,821,821,821,821,821,821,821,821,821,821,821,821,855,892,965,1008,1019,1020,1020,1020,1020,1020,1020,1020,1020,1020,1018,1018,1018,1019,1051,1065],"ymouse":[515,515,515,515,515,515,515,515,515,515,515,515,515,515,515,515,515,515,515,515,515,515,515,515,515,515,515,515,515,515,515,515,515,515,515,515,515,515,515,515,515,515,515,515,515,515,515,515,515,515,515,515,515,515,515,515,515,515,515,515,515,515,515,515,515,515,515,515,515,515,515,515,515,515,469,423,342,295,277,274,267,265,252,247,242,237,232,226,209,192,169,147,88,73],"timestamp_mouse":[10,30,51,70,90,110,132,151,170,191,212,232,251,270,291,310,331,351,370,391,410,430,451,472,490,511,530,550,571,590,612,630,650,670,691,711,730,751,771,790,810,830,851,871,890,912,930,951,971,992,1010,1031,1050,1071,1090,1112,1131,1150,1170,1190,1210,1230,1252,1270,1290,1311,1331,1352,1371,1390,1410,1431,1451,1471,1490,1511,1532,1550,1570,1590,1610,1631,1650,1670,1692,1711,1731,1750,1770,1791,1810,1831,1851,1872],"xSR":741.5,"ySR":469.95,"xT1":424.9,"yT1":0,"xT2":1058.1,"yT2":0,"toosoon":0,"cond_shown":"Congruent","ratio_trial":300,"L_num":1,"L_den":20,"R_num":7,"R_den":20,"correct_side":2,"subjID":"dylansantiagolozano16","gender":"0","school":"4","age":"9"},{"start_time":1552327431371,"click_time":1552327433124,"finger_time":1552327432624,"fix_duration":1046.9294668450582,"trial":12,"RT":1253,"MT":500,"sideResp":2,"stimulus":[],"xmouse":[814,814,814,814,814,814,814,814,814,814,814,814,814,814,814,814,814,814,814,814,814,814,814,814,814,814,814,814,814,814,814,814,814,814,814,814,814,814,814,814,814,814,814,814,814,814,814,814,814,814,814,814,814,813,814,818,819,819,819,819,819,831,847,865,898,1006,1052,1075,1089,1102,1164,1187,1203,1211,1216,1219,1220,1220,1221,1221,1221,1221,1221,1221,1216,1200,1175,1152],"ymouse":[513,513,513,513,513,513,513,513,513,513,513,513,513,513,513,513,513,513,513,513,513,513,513,513,513,513,513,513,513,513,513,513,513,513,513,513,513,513,513,513,513,513,513,513,513,513,513,513,513,513,513,513,513,513,508,504,502,502,502,502,501,484,465,443,405,299,258,237,220,203,130,103,82,69,59,49,46,44,42,40,38,38,38,38,38,38,44,51],"timestamp_mouse":[17,33,52,72,94,112,132,153,174,192,213,234,253,272,292,314,332,352,373,393,412,433,453,472,493,512,533,552,572,592,612,633,654,674,693,713,732,752,773,792,812,833,852,872,892,913,932,953,973,994,1013,1032,1054,1073,1092,1112,1133,1152,1174,1192,1212,1232,1253,1272,1292,1313,1333,1353,1373,1393,1413,1433,1454,1473,1492,1512,1532,1553,1572,1592,1613,1634,1653,1673,1692,1713,1732,1753],"xSR":741.5,"ySR":469.95,"xT1":424.9,"yT1":0,"xT2":1058.1,"yT2":0,"toosoon":0,"cond_shown":"Incongruent","ratio_trial":300,"L_num":4,"L_den":20,"R_num":2,"R_den":4,"correct_side":2,"subjID":"dylansantiagolozano16","gender":"0","school":"4","age":"9"},{"start_time":1552327435735,"click_time":1552327437405,"finger_time":1552327436704,"fix_duration":250,"trial":13,"RT":969,"MT":701,"sideResp":2,"stimulus":[],"xmouse":[809,809,809,809,809,809,809,809,809,809,809,809,809,809,809,809,809,809,809,809,809,809,809,809,809,809,809,809,809,809,809,809,809,809,809,809,809,809,809,809,809,809,809,809,809,809,809,811,849,915,1002,1102,1229,1259,1320,1396,1469,1527,1531,1531,1531,1531,1519,1506,1489,1467,1444,1415,1360,1339,1318,1300,1286,1265,1262,1261,1259,1254,1250,1245,1235,1219,1167,1151],"ymouse":[517,517,517,517,517,517,517,517,517,517,517,517,517,517,517,517,517,517,517,517,517,517,517,517,517,517,517,517,517,517,517,517,517,517,517,517,517,517,517,517,517,517,517,517,517,517,517,517,499,473,432,384,290,257,209,155,111,73,63,59,57,55,46,39,31,23,17,13,13,13,15,20,24,34,36,37,40,45,47,50,52,54,56,56],"timestamp_mouse":[8,28,49,69,90,108,129,150,169,188,209,228,249,268,289,309,329,350,368,388,409,428,449,469,488,510,528,549,569,590,610,628,649,669,688,708,728,750,769,788,809,828,848,869,889,908,928,949,969,990,1010,1028,1049,1068,1089,1108,1128,1148,1168,1190,1208,1229,1248,1269,1290,1309,1328,1348,1369,1390,1410,1428,1448,1470,1490,1508,1529,1549,1569,1589,1608,1629,1649,1670],"xSR":741.5,"ySR":469.95,"xT1":424.9,"yT1":0,"xT2":1058.1,"yT2":0,"toosoon":0,"cond_shown":"Congruent","ratio_trial":300,"L_num":1,"L_den":5,"R_num":11,"R_den":22,"correct_side":2,"subjID":"dylansantiagolozano16","gender":"0","school":"4","age":"9"},{"start_time":1552327441968,"click_time":1552327444063,"finger_time":1552327443404,"fix_duration":884.2812588548501,"trial":14,"RT":1436,"MT":659,"sideResp":1,"stimulus":[],"xmouse":[810,810,810,810,810,810,810,810,810,810,810,810,810,810,810,810,810,810,810,810,810,810,810,810,810,810,810,810,810,810,810,810,810,810,810,810,810,810,810,810,810,810,810,810,810,810,810,810,810,810,810,810,810,810,810,810,810,810,810,810,810,810,810,810,810,810,810,810,810,810,821,872,913,938,952,973,982,989,998,1000,1003,1004,1005,1007,1007,1007,1007,1007,1007,1003,932,869,796,722,665,602,585,571,558,544,505,489,475,453,442],"ymouse":[531,531,531,531,531,531,531,531,531,531,531,531,531,531,531,531,531,531,531,531,531,531,531,531,531,531,531,531,531,531,531,531,531,531,531,531,531,531,531,531,531,531,531,531,531,531,531,531,531,531,531,531,531,531,531,531,531,531,531,531,531,531,531,531,531,531,531,531,531,531,518,476,447,426,408,373,358,349,339,336,332,330,328,326,325,324,324,324,324,322,313,302,282,261,244,217,207,196,187,177,142,131,119,101,85],"timestamp_mouse":[20,35,55,75,96,115,136,157,176,195,215,236,257,275,295,317,335,356,377,395,417,435,455,475,495,516,535,556,575,595,615,636,655,676,697,715,736,757,775,795,816,837,855,875,895,917,936,956,975,995,1016,1036,1057,1075,1095,1116,1135,1155,1175,1195,1216,1236,1257,1277,1295,1316,1335,1356,1377,1395,1415,1436,1456,1476,1495,1516,1535,1555,1575,1595,1616,1636,1657,1675,1696,1716,1735,1756,1777,1796,1816,1837,1855,1875,1895,1916,1935,1956,1975,1996,2016,2035,2056,2076,2095],"xSR":741.5,"ySR":469.95,"xT1":424.9,"yT1":0,"xT2":1058.1,"yT2":0,"toosoon":0,"cond_shown":"Congruent","ratio_trial":300,"L_num":3,"L_den":6,"R_num":2,"R_den":10,"correct_side":1,"subjID":"dylansantiagolozano16","gender":"0","school":"4","age":"9"},{"start_time":1552327448556,"click_time":1552327450163,"finger_time":1552327449404,"fix_duration":1450.2953674238581,"trial":15,"RT":848,"MT":759,"sideResp":1,"stimulus":[],"xmouse":[781,781,781,781,781,781,781,781,781,781,781,781,781,781,781,781,781,781,781,781,781,781,781,781,781,781,781,781,781,781,781,781,781,781,781,781,781,781,781,781,781,802,814,821,824,822,796,776,759,742,725,679,661,640,620,597,565,557,555,552,550,549,549,549,549,548,550,555,559,560,561,561,561,561,561,561,561,561,552,532,503],"ymouse":[518,518,518,518,518,518,518,518,518,518,518,518,518,518,518,518,518,518,518,518,518,518,518,518,518,518,518,518,518,518,518,518,518,518,518,518,518,518,518,518,516,478,456,436,410,370,284,250,221,194,167,111,90,68,54,38,14,9,8,6,5,5,5,5,5,9,37,53,69,78,83,85,85,85,85,85,85,85,86,88,88],"timestamp_mouse":[8,28,48,67,88,108,129,147,168,187,208,227,247,267,288,309,327,348,367,389,407,428,449,468,487,508,528,548,567,587,608,628,648,668,687,707,727,748,768,788,808,827,848,867,888,908,928,948,967,988,1009,1028,1047,1069,1089,1107,1128,1147,1168,1188,1207,1228,1247,1268,1287,1308,1328,1347,1369,1387,1407,1428,1447,1468,1488,1508,1529,1548,1569,1589,1607],"xSR":741.5,"ySR":469.95,"xT1":424.9,"yT1":0,"xT2":1058.1,"yT2":0,"toosoon":0,"cond_shown":"Congruent","ratio_trial":200,"L_num":4,"L_den":10,"R_num":3,"R_den":15,"correct_side":1,"subjID":"dylansantiagolozano16","gender":"0","school":"4","age":"9"},{"start_time":1552327454234,"click_time":1552327455804,"finger_time":1552327455145,"fix_duration":250,"trial":16,"RT":911,"MT":659,"sideResp":2,"stimulus":[],"xmouse":[768,768,768,768,768,768,768,768,768,768,768,768,768,768,768,768,768,768,768,768,768,768,768,768,768,768,768,768,768,768,768,768,768,768,768,768,768,768,768,768,769,772,777,794,816,854,946,1148,1276,1366,1411,1431,1467,1478,1482,1482,1480,1459,1439,1416,1382,1355,1292,1265,1243,1229,1221,1217,1215,1214,1213,1212,1212,1210,1210,1207,1202,1172,1157],"ymouse":[518,518,518,518,518,518,518,518,518,518,518,518,518,518,518,518,518,518,518,518,518,518,518,518,518,518,518,518,518,518,518,518,518,518,518,518,518,518,518,518,518,518,518,512,507,495,459,374,332,297,275,259,218,196,174,153,134,89,67,47,28,19,7,7,7,10,12,18,24,32,41,48,57,60,63,67,70,72,72],"timestamp_mouse":[10,31,50,69,91,110,130,149,170,191,209,229,250,271,289,309,331,350,370,389,409,429,450,470,490,510,531,550,570,591,609,629,649,670,690,710,731,749,769,790,810,830,850,869,890,911,930,950,970,990,1010,1029,1050,1070,1090,1109,1130,1149,1170,1190,1210,1229,1250,1269,1289,1310,1331,1350,1369,1389,1411,1430,1450,1469,1490,1509,1530,1549,1569],"xSR":741.5,"ySR":469.95,"xT1":424.9,"yT1":0,"xT2":1058.1,"yT2":0,"toosoon":0,"cond_shown":"Congruent","ratio_trial":300,"L_num":3,"L_den":6,"R_num":4,"R_den":5,"correct_side":2,"subjID":"dylansantiagolozano16","gender":"0","school":"4","age":"9"},{"start_time":1552327457942,"click_time":1552327459204,"finger_time":1552327458965,"fix_duration":856.6232207227865,"trial":17,"RT":1023,"MT":239,"sideResp":2,"stimulus":[],"xmouse":[803,803,803,803,803,803,803,803,803,803,803,803,803,803,803,803,803,803,803,803,803,803,803,803,803,803,803,803,803,803,803,803,803,803,803,803,803,803,803,803,803,803,803,803,803,803,803,803,801,806,822,858,934,991,1040,1098,1141,1164,1164,1164,1164,1164,1162,1154],"ymouse":[533,533,533,533,533,533,533,533,533,533,533,533,533,533,533,533,533,533,533,533,533,533,533,533,533,533,533,533,533,533,533,533,533,533,533,533,533,533,533,533,533,533,533,533,533,533,533,533,531,523,503,471,395,325,250,180,120,91,90,88,80,73,69,65],"timestamp_mouse":[3,22,42,61,83,101,122,142,161,183,203,221,242,262,282,303,321,342,361,382,401,421,442,463,481,502,521,543,563,581,602,621,642,663,681,702,722,741,763,781,801,822,842,863,882,902,921,941,962,981,1003,1023,1042,1062,1082,1102,1123,1142,1162,1183,1202,1221,1241,1262],"xSR":741.5,"ySR":469.95,"xT1":424.9,"yT1":0,"xT2":1058.1,"yT2":0,"toosoon":0,"cond_shown":"Congruent","ratio_trial":100,"L_num":4,"L_den":8,"R_num":6,"R_den":10,"correct_side":2,"subjID":"dylansantiagolozano16","gender":"0","school":"4","age":"9"},{"start_time":1552327461599,"click_time":1552327462885,"finger_time":1552327462225,"fix_duration":995.4954635767192,"trial":18,"RT":626,"MT":660,"sideResp":1,"stimulus":[],"xmouse":[752,752,752,752,752,752,752,752,752,752,752,752,752,752,752,752,752,752,752,752,752,752,752,752,752,752,752,752,752,752,751,733,707,683,665,664,664,664,659,649,605,593,585,580,577,577,579,582,584,584,582,576,570,565,558,555,550,547,542,535,508,494,483,477,464],"ymouse":[501,501,501,501,501,501,501,501,501,501,501,501,501,501,501,501,501,501,501,501,501,501,501,501,501,501,501,501,501,501,501,498,494,489,485,484,484,484,479,467,426,415,406,393,354,328,301,277,249,242,222,215,211,205,193,187,181,176,172,164,141,129,117,101,64],"timestamp_mouse":[4,25,44,64,85,104,125,144,164,185,204,224,245,265,286,304,324,344,365,386,404,425,444,465,484,504,524,544,565,584,605,626,645,664,684,705,725,745,765,784,807,824,844,864,885,905,926,945,965,984,1004,1024,1046,1065,1085,1106,1126,1145,1165,1185,1205,1225,1246,1266,1286],"xSR":741.5,"ySR":469.95,"xT1":424.9,"yT1":0,"xT2":1058.1,"yT2":0,"toosoon":0,"cond_shown":"Incongruent","ratio_trial":200,"L_num":4,"L_den":5,"R_num":6,"R_den":10,"correct_side":1,"subjID":"dylansantiagolozano16","gender":"0","school":"4","age":"9"},{"start_time":1552327464215,"click_time":1552327465205,"finger_time":1552327465025,"fix_duration":250,"trial":19,"RT":810,"MT":180,"sideResp":2,"stimulus":[],"xmouse":[780,780,780,780,780,780,780,780,780,780,780,780,780,780,780,780,780,780,780,780,780,780,780,780,780,780,780,780,780,780,780,780,780,780,780,780,780,780,785,823,877,933,984,1032,1082,1088,1088,1084,1082,1083],"ymouse":[530,530,530,530,530,530,530,530,530,530,530,530,530,530,530,530,530,530,530,530,530,530,530,530,530,530,530,530,530,530,530,530,530,530,530,530,530,530,530,495,450,403,348,292,216,186,159,135,113,88],"timestamp_mouse":[9,29,49,69,89,109,129,149,170,190,210,230,250,269,290,310,330,350,370,390,409,430,449,469,490,509,530,550,569,590,610,630,650,669,689,709,729,749,769,789,810,829,849,869,889,909,929,949,969,990],"xSR":741.5,"ySR":469.95,"xT1":424.9,"yT1":0,"xT2":1058.1,"yT2":0,"toosoon":0,"cond_shown":"Incongruent","ratio_trial":200,"L_num":7,"L_den":10,"R_num":12,"R_den":24,"correct_side":1,"subjID":"dylansantiagolozano16","gender":"0","school":"4","age":"9"},{"start_time":1552327467778,"click_time":1552327469005,"finger_time":1552327468484,"fix_duration":1272.4519932278076,"trial":20,"RT":706,"MT":521,"sideResp":2,"stimulus":[],"xmouse":[807,807,807,807,807,807,807,807,807,807,807,807,807,807,807,807,807,807,807,807,807,807,807,807,807,807,807,807,807,807,804,792,780,770,765,764,764,764,764,764,764,764,764,764,767,784,808,831,848,859,897,927,959,994,1030,1083,1103,1120,1131,1135,1136,1132],"ymouse":[524,524,524,524,524,524,524,524,524,524,524,524,524,524,524,524,524,524,524,524,524,524,524,524,524,524,524,524,524,524,523,505,491,478,471,468,468,468,468,468,468,468,468,468,466,458,445,430,420,415,389,373,354,330,304,257,225,189,164,138,102,86],"timestamp_mouse":[11,27,46,67,87,107,127,147,166,186,206,227,246,266,287,307,327,347,367,386,406,427,446,467,486,507,526,547,567,586,606,626,647,667,687,706,727,746,767,786,806,827,846,867,886,906,926,946,966,986,1007,1026,1046,1067,1086,1106,1127,1146,1167,1187,1207,1227],"xSR":741.5,"ySR":469.95,"xT1":424.9,"yT1":0,"xT2":1058.1,"yT2":0,"toosoon":0,"cond_shown":"Incongruent","ratio_trial":300,"L_num":4,"L_den":20,"R_num":2,"R_den":4,"correct_side":2,"subjID":"dylansantiagolozano16","gender":"0","school":"4","age":"9"},{"start_time":1552327470620,"click_time":1552327472025,"finger_time":1552327471525,"fix_duration":374.23839097858024,"trial":21,"RT":905,"MT":500,"sideResp":1,"stimulus":[],"xmouse":[799,799,799,799,799,799,799,799,799,799,799,799,799,799,799,799,799,799,799,799,799,799,799,799,799,799,799,799,799,799,799,799,799,799,799,799,799,799,799,792,776,762,751,745,742,738,732,726,721,713,710,702,697,684,675,668,662,657,642,633,622,611,600,591,589,585,579,572,534,517,505],"ymouse":[542,542,542,542,542,542,542,542,542,542,542,542,542,542,542,542,542,542,542,542,542,542,542,542,542,542,542,542,542,542,542,542,542,542,542,542,542,542,542,532,509,495,487,481,478,472,461,450,437,389,360,327,294,246,228,215,206,200,181,172,164,157,153,149,147,147,144,140,123,112,97],"timestamp_mouse":[4,24,45,65,85,104,124,145,165,185,204,225,245,264,284,305,325,344,364,385,405,424,445,465,484,504,524,545,564,585,605,624,644,665,684,705,725,745,764,784,805,825,844,865,884,905,925,944,964,984,1004,1024,1045,1064,1084,1105,1124,1145,1164,1185,1204,1224,1244,1264,1284,1304,1325,1345,1364,1384,1405],"xSR":741.5,"ySR":469.95,"xT1":424.9,"yT1":0,"xT2":1058.1,"yT2":0,"toosoon":0,"cond_shown":"Congruent","ratio_trial":100,"L_num":6,"L_den":20,"R_num":5,"R_den":25,"correct_side":1,"subjID":"dylansantiagolozano16","gender":"0","school":"4","age":"9"},{"start_time":1552327473940,"click_time":1552327474885,"finger_time":1552327474705,"fix_duration":955.9035788859888,"trial":22,"RT":765,"MT":180,"sideResp":1,"stimulus":[],"xmouse":[832,832,833,833,833,833,833,833,833,833,833,833,833,833,833,833,833,833,833,833,833,833,833,833,833,833,833,833,833,833,833,833,833,833,833,833,834,823,711,630,536,520,490,486,483,478,471,459],"ymouse":[541,541,541,541,541,541,541,541,541,541,541,541,541,541,541,541,541,541,541,541,541,541,541,541,541,541,541,541,541,541,541,541,541,541,541,541,515,477,293,217,156,147,129,126,121,112,101,79],"timestamp_mouse":[3,29,45,65,85,104,125,144,165,184,204,225,245,264,286,305,324,345,364,384,405,425,446,465,484,505,525,544,564,584,604,624,644,665,685,704,725,744,765,784,804,824,844,865,884,904,924,945],"xSR":741.5,"ySR":469.95,"xT1":424.9,"yT1":0,"xT2":1058.1,"yT2":0,"toosoon":0,"cond_shown":"Congruent","ratio_trial":200,"L_num":12,"L_den":20,"R_num":6,"R_den":15,"correct_side":1,"subjID":"dylansantiagolozano16","gender":"0","school":"4","age":"9"},{"start_time":1552327477471,"click_time":1552327478904,"finger_time":1552327478124,"fix_duration":1445.064857412712,"trial":23,"RT":653,"MT":780,"sideResp":1,"stimulus":[],"xmouse":[826,826,826,826,826,826,826,826,826,826,826,826,826,826,826,826,826,826,826,826,826,826,826,826,826,826,826,826,826,826,826,840,861,873,880,883,884,884,884,884,870,854,830,791,747,686,681,680,680,685,701,703,703,703,703,686,678,670,665,661,658,641,626,613,601,590,578,569,557,545,514,499],"ymouse":[547,547,547,547,547,547,547,547,547,547,547,547,547,547,547,547,547,547,547,547,547,547,547,547,547,547,547,547,547,547,547,526,497,480,468,461,460,458,457,453,432,416,396,367,338,286,278,275,269,255,226,218,216,213,208,179,167,156,149,145,141,132,126,123,119,117,115,113,110,107,102,98],"timestamp_mouse":[17,34,54,74,93,113,134,154,174,194,214,234,253,274,294,314,333,354,373,393,414,433,453,474,494,513,533,553,574,593,614,633,653,674,693,713,733,753,773,793,813,834,853,873,893,913,934,953,973,993,1014,1033,1053,1074,1093,1113,1133,1153,1174,1193,1213,1233,1253,1273,1293,1313,1333,1353,1373,1394,1414,1433],"xSR":741.5,"ySR":469.95,"xT1":424.9,"yT1":0,"xT2":1058.1,"yT2":0,"toosoon":0,"cond_shown":"Incongruent","ratio_trial":200,"L_num":1,"L_den":3,"R_num":2,"R_den":15,"correct_side":1,"subjID":"dylansantiagolozano16","gender":"0","school":"4","age":"9"},{"start_time":1552327481293,"click_time":1552327482304,"finger_time":1552327482065,"fix_duration":1186.5711132249094,"trial":24,"RT":772,"MT":239,"sideResp":2,"stimulus":[],"xmouse":[802,802,802,802,802,802,802,802,802,802,802,802,802,802,802,802,802,802,802,802,802,802,802,802,802,802,802,802,802,812,833,840,841,841,841,841,841,841,841,855,883,933,984,1016,1060,1074,1087,1097,1105,1123,1133],"ymouse":[514,514,514,514,514,514,514,514,514,514,514,514,514,514,514,514,514,514,514,514,514,514,514,514,514,514,514,514,514,505,487,481,479,479,479,479,479,471,462,413,358,292,238,209,177,167,155,143,132,107,94],"timestamp_mouse":[11,31,51,71,92,112,131,151,172,192,211,231,251,272,292,311,331,351,372,392,411,432,451,471,491,511,531,551,572,592,612,631,652,671,692,711,731,751,772,792,811,832,851,872,891,911,931,951,971,991,1011],"xSR":741.5,"ySR":469.95,"xT1":424.9,"yT1":0,"xT2":1058.1,"yT2":0,"toosoon":0,"cond_shown":"Incongruent","ratio_trial":200,"L_num":1,"L_den":3,"R_num":2,"R_den":15,"correct_side":1,"subjID":"dylansantiagolozano16","gender":"0","school":"4","age":"9"},{"start_time":1552327483707,"click_time":1552327484845,"finger_time":1552327484384,"fix_duration":523.6627570784452,"trial":25,"RT":677,"MT":461,"sideResp":1,"stimulus":[],"xmouse":[810,810,810,810,810,810,810,810,810,810,810,810,810,810,810,810,810,810,810,810,810,810,810,810,810,810,810,810,810,810,810,809,809,802,778,734,685,629,567,558,558,558,558,555,554,554,554,554,554,554,554,550,546,533,530,526,523],"ymouse":[523,523,523,523,523,523,523,523,523,523,523,523,523,523,523,523,523,523,523,523,523,523,523,523,523,523,523,523,523,523,523,516,487,315,236,156,93,48,14,10,9,9,9,6,6,6,6,6,6,6,6,10,17,40,45,50,53],"timestamp_mouse":[18,38,57,78,97,118,137,157,177,197,217,238,258,278,298,317,337,358,378,397,418,438,457,477,497,518,538,558,577,598,617,637,657,677,697,718,738,758,777,797,818,838,857,877,898,918,937,958,978,997,1017,1037,1057,1077,1097,1117,1138],"xSR":741.5,"ySR":469.95,"xT1":424.9,"yT1":0,"xT2":1058.1,"yT2":0,"toosoon":0,"cond_shown":"Incongruent","ratio_trial":300,"L_num":8,"L_den":10,"R_num":9,"R_den":18,"correct_side":1,"subjID":"dylansantiagolozano16","gender":"0","school":"4","age":"9"},{"start_time":1552327486877,"click_time":1552327488365,"finger_time":1552327487784,"fix_duration":872.3114181848714,"trial":26,"RT":907,"MT":581,"sideResp":1,"stimulus":[],"xmouse":[793,793,793,793,793,793,793,793,793,793,793,793,793,793,793,793,793,793,793,793,793,793,793,793,793,793,793,793,793,793,793,793,793,793,793,793,793,793,793,793,793,793,793,793,794,769,751,710,666,632,590,578,573,570,567,558,554,550,548,548,548,548,547,546,542,534,533,531,531,530,529,528,527,525,523],"ymouse":[545,545,545,545,545,545,545,545,545,545,545,545,545,545,545,545,545,545,545,545,545,545,545,545,545,545,545,545,545,545,545,545,545,545,545,545,545,545,545,545,545,545,545,545,541,460,426,334,249,179,93,73,63,57,53,38,32,27,25,25,25,25,25,25,25,30,31,33,33,33,34,34,35,36,37],"timestamp_mouse":[7,27,47,67,87,107,128,147,167,188,208,227,248,267,287,308,327,347,367,388,408,427,447,468,488,508,528,547,567,587,607,627,647,667,688,708,727,747,767,788,808,827,847,867,887,907,927,947,968,988,1008,1027,1047,1067,1087,1107,1128,1148,1167,1187,1207,1227,1247,1267,1287,1307,1327,1347,1367,1388,1407,1427,1448,1467,1488],"xSR":741.5,"ySR":469.95,"xT1":424.9,"yT1":0,"xT2":1058.1,"yT2":0,"toosoon":0,"cond_shown":"Congruent","ratio_trial":200,"L_num":15,"L_den":25,"R_num":4,"R_den":10,"correct_side":1,"subjID":"dylansantiagolozano16","gender":"0","school":"4","age":"9"},{"start_time":1552327490211,"click_time":1552327492106,"finger_time":1552327491305,"fix_duration":826.2225244033341,"trial":27,"RT":1094,"MT":801,"sideResp":2,"stimulus":[],"xmouse":[783,783,783,783,784,785,785,785,785,785,785,786,786,786,787,787,787,787,787,787,787,787,787,787,787,787,787,787,787,787,787,787,787,787,787,787,787,787,787,787,787,787,787,787,787,787,787,787,787,787,787,787,788,833,852,857,857,857,857,857,857,857,857,857,857,857,857,857,857,857,857,857,858,874,884,886,886,886,886,886,886,886,886,886,886,886,886,886,893,1015,1081,1118,1136,1143,1151],"ymouse":[522,522,522,522,524,525,525,525,525,525,525,525,525,525,526,526,526,526,526,526,526,526,526,526,526,526,526,526,526,526,526,526,526,526,526,526,526,526,526,526,526,526,526,526,526,526,526,526,526,526,526,526,526,500,489,486,486,486,486,486,486,486,486,486,486,486,486,486,486,486,486,486,485,459,449,447,447,447,447,447,447,447,447,447,447,447,447,447,433,306,230,176,140,114,60],"timestamp_mouse":[14,33,54,73,93,113,134,154,173,194,213,234,253,274,294,313,334,354,374,393,414,434,453,473,493,514,533,553,574,594,614,633,655,674,693,714,733,753,774,794,814,833,854,873,894,914,933,954,974,993,1014,1033,1053,1073,1094,1113,1134,1154,1173,1194,1213,1233,1254,1273,1294,1314,1333,1353,1373,1393,1414,1433,1453,1474,1493,1513,1533,1553,1573,1593,1614,1634,1654,1674,1694,1713,1733,1753,1773,1793,1814,1834,1854,1873,1895],"xSR":741.5,"ySR":469.95,"xT1":424.9,"yT1":0,"xT2":1058.1,"yT2":0,"toosoon":0,"cond_shown":"Incongruent","ratio_trial":200,"L_num":1,"L_den":3,"R_num":2,"R_den":15,"correct_side":1,"subjID":"dylansantiagolozano16","gender":"0","school":"4","age":"9"},{"start_time":1552327493519,"click_time":1552327495024,"finger_time":1552327494964,"fix_duration":513.799543326572,"trial":28,"RT":1445,"MT":60,"sideResp":2,"stimulus":[],"xmouse":[777,777,777,777,777,777,777,777,777,777,777,777,777,777,777,777,777,777,777,777,777,777,777,777,777,777,777,777,777,777,777,777,777,777,777,777,777,777,777,777,777,777,777,777,777,777,777,777,777,777,777,777,777,777,777,777,777,777,777,777,777,777,777,777,777,777,777,777,777,781,790,810,847,1004,1076,1136],"ymouse":[506,506,506,506,506,506,506,506,506,506,506,506,506,506,506,506,506,506,506,506,506,506,506,506,506,506,506,506,506,506,506,506,506,506,506,506,506,506,506,506,506,506,506,506,506,506,506,506,506,506,506,506,506,506,506,506,506,506,506,506,506,506,506,506,506,506,506,506,506,506,499,481,444,233,130,36],"timestamp_mouse":[6,25,46,65,85,106,126,145,166,186,205,225,246,266,286,305,326,346,366,385,405,425,445,466,485,505,525,546,565,585,606,625,646,665,686,705,725,745,765,786,806,825,845,866,885,905,925,947,966,986,1006,1025,1045,1065,1086,1105,1126,1146,1166,1186,1206,1225,1246,1265,1286,1306,1326,1346,1365,1385,1405,1425,1445,1465,1486,1505],"xSR":741.5,"ySR":469.95,"xT1":424.9,"yT1":0,"xT2":1058.1,"yT2":0,"toosoon":0,"cond_shown":"Incongruent","ratio_trial":100,"L_num":6,"L_den":10,"R_num":7,"R_den":14,"correct_side":1,"subjID":"dylansantiagolozano16","gender":"0","school":"4","age":"9"},{"start_time":1552327497382,"click_time":1552327499206,"finger_time":1552327498624,"fix_duration":777.776128190239,"trial":29,"RT":1242,"MT":582,"sideResp":1,"stimulus":[],"xmouse":[821,821,821,821,821,821,821,821,821,821,821,821,821,821,821,821,821,821,821,821,821,821,821,821,821,821,821,821,821,821,821,821,821,821,821,821,821,821,821,821,821,821,821,821,821,821,821,821,821,821,821,821,821,821,821,821,821,821,821,821,814,787,741,684,619,497,454,422,399,387,366,361,356,348,337,306,295,291,290,290,296,299,308,321,336,368,381,392,402,412,424,425],"ymouse":[494,494,494,494,494,494,494,494,494,494,494,494,494,494,494,494,494,494,494,494,494,494,494,494,494,494,494,494,494,494,494,494,494,494,494,494,494,494,494,494,494,494,494,494,494,494,494,494,494,494,494,494,494,494,494,494,494,494,494,494,494,486,463,427,386,302,276,257,242,233,215,208,200,192,177,136,118,107,97,93,83,80,77,71,67,63,63,63,64,65,65,65],"timestamp_mouse":[3,23,42,63,82,102,123,143,162,182,202,222,242,263,282,303,322,342,362,382,403,422,443,463,482,503,523,543,563,583,602,623,643,662,683,703,722,743,762,783,802,822,843,863,883,903,922,943,962,982,1002,1022,1042,1062,1082,1102,1123,1142,1163,1183,1202,1222,1242,1263,1282,1302,1322,1343,1362,1382,1402,1422,1443,1463,1482,1503,1522,1542,1563,1582,1602,1622,1642,1662,1682,1702,1722,1742,1762,1782,1802,1824],"xSR":741.5,"ySR":469.95,"xT1":424.9,"yT1":0,"xT2":1058.1,"yT2":0,"toosoon":0,"cond_shown":"Incongruent","ratio_trial":200,"L_num":4,"L_den":6,"R_num":14,"R_den":30,"correct_side":1,"subjID":"dylansantiagolozano16","gender":"0","school":"4","age":"9"},{"start_time":1552327501148,"click_time":1552327502685,"finger_time":1552327501984,"fix_duration":762.0156377119093,"trial":30,"RT":836,"MT":701,"sideResp":2,"stimulus":[],"xmouse":[828,828,828,828,828,828,828,828,828,828,828,828,828,828,828,828,828,828,828,828,828,828,828,828,828,828,828,828,828,828,828,828,828,828,828,828,828,828,828,828,832,881,921,950,980,1020,1079,1099,1113,1119,1123,1128,1149,1157,1164,1167,1168,1168,1168,1166,1160,1149,1148,1148,1147,1145,1142,1142,1140,1140,1140,1140,1140,1140,1140,1140,1140],"ymouse":[517,517,517,517,517,517,517,517,517,517,517,517,517,517,517,517,517,517,517,517,517,517,517,517,517,517,517,517,517,517,517,517,517,517,517,517,517,517,517,517,517,469,435,411,393,376,348,335,320,311,301,289,240,222,207,196,179,172,165,158,150,132,130,127,125,119,109,105,102,101,101,101,101,101,101,100,96],"timestamp_mouse":[16,37,57,76,97,117,136,157,177,197,216,238,257,277,297,316,337,357,376,397,416,437,456,477,497,516,537,557,577,596,617,635,657,676,697,717,736,756,777,796,816,836,856,877,896,917,936,956,976,996,1016,1036,1056,1077,1097,1116,1136,1156,1176,1196,1216,1236,1257,1276,1296,1316,1336,1356,1376,1397,1416,1436,1457,1476,1496,1517,1536],"xSR":741.5,"ySR":469.95,"xT1":424.9,"yT1":0,"xT2":1058.1,"yT2":0,"toosoon":0,"cond_shown":"Congruent","ratio_trial":300,"L_num":1,"L_den":5,"R_num":6,"R_den":12,"correct_side":2,"subjID":"dylansantiagolozano16","gender":"0","school":"4","age":"9"},{"start_time":1552327510464,"click_time":1552327512884,"finger_time":1552327510464,"fix_duration":579.8550545945862,"trial":31,"RT":0,"MT":2420,"sideResp":1,"stimulus":[],"xmouse":[730,715,698,697,697,697,697,697,697,697,697,697,697,697,697,697,697,697,697,697,697,697,697,697,697,697,697,697,697,698,708,744,760,772,774,774,774,774,774,774,774,774,774,774,774,774,774,774,774,774,774,774,774,774,775,777,804,825,852,888,925,986,997,1001,1002,1002,1003,1009,1013,1020,1027,1038,1042,1045,1050,1053,1057,1065,1067,1068,1068,1068,1068,1068,1068,1064,1043,890,824,791,773,763,763,762,757,710,669,446,406,400,400,397,393,380,341,290,274,287,305,329,349,364,364,364,364,364,364,364,372,393,418,463],"ymouse":[509,509,509,509,509,509,509,509,509,509,509,509,509,509,509,509,509,509,509,509,509,509,509,509,509,509,509,509,509,510,510,510,510,510,511,511,511,511,511,511,511,511,511,511,511,511,511,511,511,511,511,511,511,511,511,511,491,470,447,416,371,297,274,260,254,249,235,225,213,196,182,158,149,145,139,134,128,114,110,109,108,106,106,105,103,103,103,124,132,137,139,142,142,142,143,148,152,154,148,145,144,140,134,123,107,85,76,65,60,55,53,50,50,50,50,50,50,50,49,46,45,42],"timestamp_mouse":[0,20,40,60,81,101,121,141,161,181,201,220,241,261,281,301,320,340,360,381,400,421,440,460,480,500,521,540,560,580,600,620,640,661,681,700,721,740,760,780,801,820,840,860,880,901,920,941,961,980,1000,1020,1040,1061,1080,1101,1120,1140,1160,1180,1200,1220,1240,1261,1280,1300,1320,1340,1361,1380,1401,1420,1441,1460,1481,1499,1520,1541,1560,1580,1600,1620,1641,1660,1681,1701,1720,1740,1760,1780,1801,1820,1841,1861,1881,1900,1920,1940,1961,1980,2001,2020,2040,2061,2080,2101,2120,2140,2160,2180,2201,2220,2241,2260,2280,2300,2321,2340,2360,2380,2400,2420],"xSR":741.5,"ySR":469.95,"xT1":424.9,"yT1":0,"xT2":1058.1,"yT2":0,"toosoon":0,"cond_shown":"Incongruent","ratio_trial":100,"L_num":17,"L_den":30,"R_num":10,"R_den":15,"correct_side":2,"subjID":"dylansantiagolozano16","gender":"0","school":"4","age":"9"},{"start_time":1552327515445,"click_time":1552327516384,"finger_time":1552327516144,"fix_duration":899.9525414021919,"trial":32,"RT":699,"MT":240,"sideResp":2,"stimulus":[],"xmouse":[773,773,773,773,773,773,773,773,773,773,773,773,773,773,773,773,773,773,773,773,773,773,773,773,773,773,773,773,773,773,773,774,780,796,817,843,886,974,990,1000,1010,1021,1036,1042,1050,1056,1065,1078],"ymouse":[502,502,502,502,502,502,502,502,502,502,502,502,502,502,502,502,502,502,502,502,502,502,502,502,502,502,502,502,502,502,502,503,501,491,476,453,417,326,303,284,265,246,217,197,178,156,138,96],"timestamp_mouse":[0,19,40,59,79,99,119,139,159,180,200,220,239,260,280,300,319,340,359,379,399,419,439,460,480,499,519,539,560,580,600,620,640,660,680,699,719,739,760,779,799,820,839,859,880,900,920,939],"xSR":741.5,"ySR":469.95,"xT1":424.9,"yT1":0,"xT2":1058.1,"yT2":0,"toosoon":0,"cond_shown":"Congruent","ratio_trial":200,"L_num":1,"L_den":2,"R_num":21,"R_den":30,"correct_side":2,"subjID":"dylansantiagolozano16","gender":"0","school":"4","age":"9"},{"start_time":1552327518003,"click_time":1552327519204,"finger_time":1552327519084,"fix_duration":577.4729134998455,"trial":33,"RT":1081,"MT":120,"sideResp":2,"stimulus":[],"xmouse":[771,771,771,771,771,771,771,771,771,771,771,771,771,771,771,771,771,771,771,771,771,771,771,771,771,771,771,771,771,771,771,771,771,771,771,771,771,771,771,771,771,771,771,771,771,771,771,771,771,771,771,771,771,773,851,927,1005,1067,1110,1151,1157],"ymouse":[504,504,504,504,504,504,504,504,504,504,504,504,504,504,504,504,504,504,504,504,504,504,504,504,504,504,504,504,504,504,504,504,504,504,504,504,504,504,504,504,504,504,504,504,504,504,504,504,504,504,504,504,504,504,406,341,275,218,174,111,96],"timestamp_mouse":[4,21,41,61,81,102,121,141,161,182,202,221,241,262,282,301,322,342,361,382,402,422,442,461,481,502,522,541,561,582,602,622,642,661,681,702,721,742,761,781,802,822,841,861,882,902,922,942,961,982,1001,1021,1042,1061,1081,1101,1122,1141,1162,1181,1201],"xSR":741.5,"ySR":469.95,"xT1":424.9,"yT1":0,"xT2":1058.1,"yT2":0,"toosoon":0,"cond_shown":"Incongruent","ratio_trial":300,"L_num":13,"L_den":26,"R_num":12,"R_den":15,"correct_side":2,"subjID":"dylansantiagolozano16","gender":"0","school":"4","age":"9"},{"start_time":1552327520712,"click_time":1552327523164,"finger_time":1552327521704,"fix_duration":467.32801909830005,"trial":34,"RT":992,"MT":1460,"sideResp":1,"stimulus":[],"xmouse":[788,788,788,788,788,788,788,788,788,788,788,788,788,788,788,788,788,788,788,788,788,788,788,788,788,788,788,788,788,788,788,788,788,788,788,788,788,788,788,788,788,788,788,788,788,788,788,788,779,757,748,740,731,715,701,689,685,679,677,672,670,665,663,658,648,646,644,641,640,637,635,632,629,624,621,618,616,611,601,599,596,595,595,593,578,547,477,393,192,87,0,0,0,0,0,0,0,0,0,0,0,0,0,0,0,0,0,0,0,0,0,347,352,354,359,360,363,368,381,384,395,412,426],"ymouse":[552,552,552,552,552,552,552,552,552,552,552,552,552,552,552,552,552,552,552,552,552,552,552,552,552,552,552,552,552,552,552,552,552,552,552,552,552,552,552,552,552,552,552,552,552,552,545,531,503,458,442,429,416,401,392,381,378,371,369,358,351,337,331,313,285,275,270,264,259,249,243,236,231,219,209,195,179,166,155,153,151,150,150,149,142,134,116,101,70,43,12,12,12,12,12,12,12,12,12,12,12,12,12,12,12,12,12,12,12,12,12,2,5,7,10,10,12,13,16,16,18,19,19],"timestamp_mouse":[12,33,53,72,93,113,133,152,173,193,212,232,252,273,293,313,333,352,373,393,413,433,453,472,492,513,533,552,572,592,612,632,653,672,692,713,733,753,773,793,812,832,852,872,893,913,933,952,973,992,1013,1033,1053,1072,1092,1113,1133,1152,1172,1193,1212,1232,1253,1272,1292,1312,1332,1353,1372,1393,1412,1432,1452,1472,1493,1512,1532,1553,1573,1592,1612,1632,1652,1672,1692,1713,1732,1753,1772,1792,1813,1832,1852,1872,1892,1912,1932,1953,1973,1993,2012,2034,2053,2073,2092,2113,2132,2152,2172,2192,2213,2232,2253,2272,2292,2312,2332,2353,2373,2393,2412,2434,2452],"xSR":741.5,"ySR":469.95,"xT1":424.9,"yT1":0,"xT2":1058.1,"yT2":0,"toosoon":0,"cond_shown":"Congruent","ratio_trial":100,"L_num":9,"L_den":15,"R_num":8,"R_den":16,"correct_side":1,"subjID":"dylansantiagolozano16","gender":"0","school":"4","age":"9"},{"start_time":1552327525247,"click_time":1552327526185,"finger_time":1552327526025,"fix_duration":1002.3703917628368,"trial":35,"RT":778,"MT":160,"sideResp":2,"stimulus":[],"xmouse":[803,803,803,803,803,803,803,803,803,803,803,803,803,803,803,803,803,803,803,803,803,803,803,803,803,803,803,803,803,803,803,803,803,803,803,803,803,810,848,904,961,1052,1090,1120,1141,1151,1152],"ymouse":[489,489,489,489,489,489,489,489,489,489,489,489,489,489,489,489,489,489,489,489,489,489,489,489,489,489,489,489,489,489,489,489,489,489,489,489,489,486,464,436,409,340,294,246,195,157,91],"timestamp_mouse":[18,38,58,78,97,118,137,159,179,198,218,238,258,278,297,318,337,358,378,397,418,439,458,478,497,518,538,558,578,597,618,638,658,678,698,718,738,758,778,798,817,838,857,877,897,917,937],"xSR":741.5,"ySR":469.95,"xT1":424.9,"yT1":0,"xT2":1058.1,"yT2":0,"toosoon":0,"cond_shown":"Incongruent","ratio_trial":200,"L_num":11,"L_den":20,"R_num":3,"R_den":4,"correct_side":2,"subjID":"dylansantiagolozano16","gender":"0","school":"4","age":"9"},{"start_time":1552327528563,"click_time":1552327529885,"finger_time":1552327529246,"fix_duration":1438.6666538371458,"trial":36,"RT":683,"MT":639,"sideResp":2,"stimulus":[],"xmouse":[798,798,798,798,798,798,798,798,798,798,798,798,798,798,798,798,798,798,798,798,798,798,798,798,798,798,798,798,798,798,798,798,798,817,846,872,908,922,937,954,964,969,980,988,996,1000,1004,1004,1005,1005,1006,1010,1011,1011,1011,1011,1020,1024,1029,1033,1034,1034,1037,1043,1050,1057,1071],"ymouse":[528,528,528,528,528,528,528,528,528,528,528,528,528,528,528,528,528,528,528,528,528,528,528,528,528,528,528,528,528,528,528,528,519,490,449,413,361,337,302,255,216,190,126,104,85,76,69,68,67,67,65,59,59,59,59,59,63,65,67,69,69,69,67,63,59,54,43],"timestamp_mouse":[4,21,42,62,83,101,121,141,163,183,202,221,242,263,281,303,321,342,362,382,402,421,441,463,483,502,522,542,562,582,601,621,642,662,683,703,722,742,763,781,802,821,841,861,881,901,922,942,963,981,1001,1022,1041,1061,1082,1102,1122,1142,1161,1181,1202,1221,1242,1262,1281,1302,1322],"xSR":741.5,"ySR":469.95,"xT1":424.9,"yT1":0,"xT2":1058.1,"yT2":0,"toosoon":0,"cond_shown":"Incongruent","ratio_trial":300,"L_num":4,"L_den":20,"R_num":2,"R_den":4,"correct_side":2,"subjID":"dylansantiagolozano16","gender":"0","school":"4","age":"9"},{"start_time":1552327533410,"click_time":1552327534345,"finger_time":1552327533985,"fix_duration":543.879927335225,"trial":37,"RT":575,"MT":360,"sideResp":2,"stimulus":[],"xmouse":[775,775,775,775,775,775,775,775,775,775,775,775,775,775,775,775,775,775,775,775,775,775,775,775,775,775,774,779,885,904,946,984,1010,1036,1045,1052,1054,1057,1061,1064,1065,1066,1066,1067,1067,1069,1070],"ymouse":[509,509,509,509,509,509,509,509,509,509,509,509,509,509,509,509,509,509,509,509,509,509,509,509,509,509,508,498,377,356,318,284,260,216,199,185,176,167,143,134,126,122,119,115,111,105,99],"timestamp_mouse":[14,35,56,75,94,115,136,154,175,194,215,236,254,274,295,315,334,354,375,395,414,434,455,475,495,514,534,555,575,594,615,635,654,675,694,714,735,755,775,795,815,834,855,875,894,915,935],"xSR":741.5,"ySR":469.95,"xT1":424.9,"yT1":0,"xT2":1058.1,"yT2":0,"toosoon":0,"cond_shown":"Incongruent","ratio_trial":200,"L_num":3,"L_den":4,"R_num":11,"R_den":20,"correct_side":1,"subjID":"dylansantiagolozano16","gender":"0","school":"4","age":"9"},{"start_time":1552327536244,"click_time":1552327537484,"finger_time":1552327537064,"fix_duration":976.5000920934666,"trial":38,"RT":820,"MT":420,"sideResp":2,"stimulus":[],"xmouse":[801,801,801,801,801,801,801,801,801,801,801,801,801,801,801,801,801,801,801,801,801,801,801,801,801,801,801,801,801,801,801,801,801,801,801,801,801,801,801,809,826,870,911,959,965,967,967,967,958,956,955,955,957,958,958,958,958,973,988,1006,1023,1044,1091],"ymouse":[531,531,531,531,531,531,531,531,531,531,531,531,531,531,531,531,531,531,531,531,531,531,531,531,531,531,531,531,531,531,531,531,531,531,531,531,531,531,531,513,474,372,295,228,215,206,204,192,160,148,136,121,104,100,100,100,100,94,92,92,92,92,84],"timestamp_mouse":[3,20,41,61,80,100,121,142,160,180,201,222,242,260,281,300,320,340,360,382,400,420,440,461,480,501,521,540,560,581,601,621,640,661,681,701,720,742,761,780,801,820,840,860,880,902,921,940,960,980,1000,1021,1041,1061,1080,1100,1120,1140,1161,1180,1201,1220,1240],"xSR":741.5,"ySR":469.95,"xT1":424.9,"yT1":0,"xT2":1058.1,"yT2":0,"toosoon":0,"cond_shown":"Congruent","ratio_trial":300,"L_num":5,"L_den":25,"R_num":7,"R_den":14,"correct_side":2,"subjID":"dylansantiagolozano16","gender":"0","school":"4","age":"9"},{"start_time":1552327542025,"click_time":1552327543246,"finger_time":1552327542645,"fix_duration":979.5294115621791,"trial":39,"RT":620,"MT":601,"sideResp":2,"stimulus":[],"xmouse":[813,813,813,813,813,813,813,813,813,813,813,813,813,813,813,813,813,813,813,813,813,813,813,813,813,813,813,813,815,831,851,877,913,931,947,956,963,973,976,980,982,986,989,989,990,991,993,1002,1006,1009,1012,1015,1020,1021,1023,1026,1029,1037,1041,1055,1076],"ymouse":[547,547,547,547,547,547,547,547,547,547,547,547,547,547,547,547,547,547,547,547,547,547,547,547,547,547,547,547,546,530,511,484,430,394,349,314,284,239,228,216,206,197,187,186,184,181,176,153,142,131,122,111,95,89,84,78,74,66,63,60,59],"timestamp_mouse":[20,41,59,79,100,120,139,160,181,200,219,240,261,279,299,319,341,359,379,400,421,440,459,480,501,519,539,560,579,600,619,639,660,680,700,719,739,759,780,800,820,839,859,879,900,920,939,960,979,1000,1020,1039,1060,1080,1100,1121,1140,1160,1180,1199,1220],"xSR":741.5,"ySR":469.95,"xT1":424.9,"yT1":0,"xT2":1058.1,"yT2":0,"toosoon":0,"cond_shown":"Congruent","ratio_trial":200,"L_num":3,"L_den":12,"R_num":9,"R_den":20,"correct_side":2,"subjID":"dylansantiagolozano16","gender":"0","school":"4","age":"9"},{"start_time":1552327545092,"click_time":1552327546185,"finger_time":1552327545905,"fix_duration":1106.015611686683,"trial":40,"RT":813,"MT":280,"sideResp":2,"stimulus":[],"xmouse":[792,792,792,792,792,792,792,792,792,792,792,792,792,792,792,792,792,792,792,792,792,792,792,792,792,792,792,792,792,792,792,792,792,792,792,792,792,792,792,795,848,926,1031,1112,1142,1142,1142,1140,1139,1139,1139,1139,1139,1139,1136],"ymouse":[538,538,538,538,538,538,538,538,538,538,538,538,538,538,538,538,538,538,538,538,538,538,538,538,538,538,538,538,538,538,538,538,538,538,538,538,538,538,538,531,455,375,289,214,177,174,167,156,145,130,123,115,108,100,85],"timestamp_mouse":[13,33,53,74,92,113,132,152,174,193,213,232,253,273,292,313,332,353,374,392,413,433,453,473,492,512,533,554,572,593,612,634,654,673,692,713,734,754,773,792,813,834,853,873,893,913,932,952,973,993,1012,1033,1052,1072,1092],"xSR":741.5,"ySR":469.95,"xT1":424.9,"yT1":0,"xT2":1058.1,"yT2":0,"toosoon":0,"cond_shown":"Incongruent","ratio_trial":300,"L_num":13,"L_den":26,"R_num":12,"R_den":15,"correct_side":2,"subjID":"dylansantiagolozano16","gender":"0","school":"4","age":"9"},{"start_time":1552327549017,"click_time":1552327550565,"finger_time":1552327550125,"fix_duration":250,"trial":41,"RT":1108,"MT":440,"sideResp":1,"stimulus":[],"xmouse":[816,816,816,816,816,816,816,816,816,816,816,816,816,816,816,816,816,816,816,816,816,816,816,816,816,816,816,816,816,816,816,816,816,816,816,816,816,816,816,816,816,816,816,816,816,816,816,816,816,816,816,816,816,816,816,811,796,754,629,590,556,537,530,501,484,469,467,453,428,425,425,425,423,422,421,421,422,425],"ymouse":[470,470,470,470,470,470,470,470,470,470,470,470,470,470,470,470,470,470,470,470,470,470,470,470,470,470,470,470,470,470,470,470,470,470,470,470,470,470,470,470,470,470,470,470,470,470,470,470,470,470,470,470,470,470,470,456,430,360,224,196,184,180,180,179,178,176,176,176,176,176,176,175,172,164,132,127,96,82],"timestamp_mouse":[8,28,47,67,87,107,129,147,167,189,208,228,247,268,287,307,327,348,368,387,408,428,448,467,488,508,528,548,568,589,609,628,648,667,689,708,728,748,769,789,808,827,847,868,887,909,927,947,968,988,1009,1027,1047,1067,1088,1108,1128,1148,1167,1188,1207,1227,1248,1268,1288,1307,1327,1348,1367,1387,1408,1429,1447,1467,1488,1508,1529,1548],"xSR":741.5,"ySR":469.95,"xT1":424.9,"yT1":0,"xT2":1058.1,"yT2":0,"toosoon":0,"cond_shown":"Incongruent","ratio_trial":200,"L_num":7,"L_den":10,"R_num":8,"R_den":16,"correct_side":1,"subjID":"dylansantiagolozano16","gender":"0","school":"4","age":"9"},{"start_time":1552327553526,"click_time":1552327555185,"finger_time":1552327554526,"fix_duration":1380.1881302896384,"trial":42,"RT":1000,"MT":659,"sideResp":1,"stimulus":[],"xmouse":[797,797,797,797,797,797,797,797,797,797,797,797,797,797,797,797,797,797,797,797,797,797,797,797,797,797,797,797,797,797,797,797,797,797,797,797,797,797,797,797,797,797,797,797,797,797,797,798,796,779,734,711,669,648,643,638,632,612,602,594,593,593,593,593,593,593,593,593,590,587,586,585,584,584,584,584,582,573,563,552,543,539,504],"ymouse":[552,552,552,552,552,552,552,552,552,552,552,552,552,552,552,552,552,552,552,552,552,552,552,552,552,552,552,552,552,552,552,552,552,552,552,552,552,552,552,552,552,552,552,552,552,552,552,544,510,460,369,338,291,262,251,237,223,183,164,149,141,134,126,126,126,126,126,126,121,115,110,107,99,97,93,93,91,78,71,63,58,57,47],"timestamp_mouse":[18,38,58,80,98,119,138,158,179,199,219,239,259,278,299,319,338,358,379,399,420,440,458,479,498,518,539,560,578,598,618,638,659,679,699,719,739,759,778,799,820,840,859,879,899,918,939,959,978,1000,1019,1039,1058,1078,1099,1119,1138,1159,1179,1198,1218,1238,1259,1279,1299,1318,1338,1360,1379,1399,1419,1438,1458,1478,1498,1519,1540,1559,1578,1598,1619,1640,1659],"xSR":741.5,"ySR":469.95,"xT1":424.9,"yT1":0,"xT2":1058.1,"yT2":0,"toosoon":0,"cond_shown":"Incongruent","ratio_trial":300,"L_num":3,"L_den":6,"R_num":4,"R_den":20,"correct_side":1,"subjID":"dylansantiagolozano16","gender":"0","school":"4","age":"9"},{"start_time":1552327559526,"click_time":1552327560384,"finger_time":1552327560044,"fix_duration":1140.144798818608,"trial":43,"RT":518,"MT":340,"sideResp":2,"stimulus":[],"xmouse":[807,807,807,807,807,807,807,807,807,807,807,807,807,807,807,807,807,807,807,807,807,807,806,802,801,808,834,888,901,913,923,933,968,982,998,1015,1034,1070,1083,1093,1099,1103,1133],"ymouse":[515,515,515,515,515,515,515,515,515,515,515,515,515,515,515,515,515,515,515,515,515,515,511,493,476,448,388,313,291,274,261,250,218,203,183,165,146,124,119,114,112,110,99],"timestamp_mouse":[19,39,58,79,100,118,139,159,180,198,220,238,259,278,298,319,340,359,378,399,418,439,458,479,499,518,538,559,583,599,618,638,658,679,698,719,738,758,778,798,819,839,858],"xSR":741.5,"ySR":469.95,"xT1":424.9,"yT1":0,"xT2":1058.1,"yT2":0,"toosoon":0,"cond_shown":"Congruent","ratio_trial":200,"L_num":5,"L_den":10,"R_num":14,"R_den":20,"correct_side":2,"subjID":"dylansantiagolozano16","gender":"0","school":"4","age":"9"},{"start_time":1552327563807,"click_time":1552327565005,"finger_time":1552327564525,"fix_duration":939.9276795496368,"trial":44,"RT":718,"MT":480,"sideResp":2,"stimulus":[],"xmouse":[763,763,763,763,763,763,763,763,763,763,763,763,763,763,763,763,763,763,763,763,763,763,763,763,763,763,763,763,763,763,763,763,763,763,763,772,779,789,802,815,830,850,875,937,959,971,975,976,985,993,1007,1021,1036,1069,1081,1094,1103,1111,1133,1137],"ymouse":[474,474,474,474,474,474,474,474,474,474,474,474,474,474,474,474,474,474,474,474,474,474,474,474,474,474,474,474,474,474,474,474,474,474,474,466,459,448,433,421,406,389,371,327,315,308,306,304,293,283,273,263,252,226,211,194,174,155,103,92],"timestamp_mouse":[17,38,58,77,98,118,139,157,178,197,219,239,257,278,297,317,339,357,378,397,419,437,458,478,498,517,538,557,578,597,618,639,657,678,698,718,737,757,777,798,818,837,857,877,897,918,937,957,977,998,1017,1037,1057,1077,1098,1118,1139,1158,1178,1198],"xSR":741.5,"ySR":469.95,"xT1":424.9,"yT1":0,"xT2":1058.1,"yT2":0,"toosoon":0,"cond_shown":"Incongruent","ratio_trial":300,"L_num":4,"L_den":20,"R_num":2,"R_den":4,"correct_side":2,"subjID":"dylansantiagolozano16","gender":"0","school":"4","age":"9"},{"start_time":1552327566402,"click_time":1552327567844,"finger_time":1552327567264,"fix_duration":317.4403902302324,"trial":45,"RT":862,"MT":580,"sideResp":2,"stimulus":[],"xmouse":[793,793,793,793,793,793,793,793,793,793,793,793,793,793,793,793,793,793,793,793,793,793,793,793,793,793,793,793,793,793,793,793,793,793,793,793,793,793,793,793,794,807,832,859,923,950,985,1028,1060,1094,1100,1108,1111,1121,1134,1159,1170,1180,1180,1180,1180,1180,1180,1180,1180,1180,1180,1180,1180,1180,1180,1180,1139],"ymouse":[543,543,543,543,543,543,543,543,543,543,543,543,543,543,543,543,543,543,543,543,543,543,543,543,543,543,543,543,543,543,543,543,543,543,543,543,543,543,543,543,543,535,524,513,473,448,417,385,358,319,302,287,268,238,194,105,66,4,4,4,4,4,4,4,4,4,4,4,4,4,4,4,10],"timestamp_mouse":[6,23,43,63,82,102,123,143,162,182,203,224,243,263,282,304,323,343,362,384,402,422,444,463,484,503,523,543,563,583,602,622,644,662,682,702,723,742,763,784,803,823,842,862,882,902,923,942,964,982,1002,1022,1042,1062,1083,1102,1123,1143,1164,1182,1202,1222,1242,1262,1282,1303,1323,1343,1363,1382,1402,1422,1442],"xSR":741.5,"ySR":469.95,"xT1":424.9,"yT1":0,"xT2":1058.1,"yT2":0,"toosoon":0,"cond_shown":"Incongruent","ratio_trial":200,"L_num":3,"L_den":4,"R_num":11,"R_den":20,"correct_side":1,"subjID":"dylansantiagolozano16","gender":"0","school":"4","age":"9"},{"start_time":1552327571316,"click_time":1552327572705,"finger_time":1552327572084,"fix_duration":250,"trial":46,"RT":768,"MT":621,"sideResp":1,"stimulus":[],"xmouse":[824,824,824,824,824,824,824,824,824,824,824,824,824,824,824,824,824,824,824,824,824,824,824,824,824,824,824,824,824,824,824,824,824,821,818,817,814,807,780,764,746,725,712,671,648,603,568,535,496,485,480,478,477,466,459,450,440,432,421,419,419,419,419,419,419,419,419,419,424,431],"ymouse":[530,530,530,530,530,530,530,530,530,530,530,530,530,530,530,530,530,530,530,530,530,530,530,530,530,530,530,530,530,530,530,530,529,520,512,506,496,479,440,418,399,381,370,342,329,302,281,260,229,221,217,216,214,196,182,165,143,122,90,80,75,75,75,75,75,73,73,73,69,64],"timestamp_mouse":[9,28,48,68,89,108,128,148,169,190,209,228,250,269,288,308,329,349,368,389,408,428,449,469,488,508,528,549,570,588,608,629,649,669,688,709,728,748,768,788,810,828,849,868,889,908,928,949,969,990,1008,1028,1049,1068,1088,1108,1129,1148,1168,1188,1209,1229,1249,1268,1289,1308,1330,1349,1368,1389],"xSR":741.5,"ySR":469.95,"xT1":424.9,"yT1":0,"xT2":1058.1,"yT2":0,"toosoon":0,"cond_shown":"Incongruent","ratio_trial":300,"L_num":2,"L_den":4,"R_num":6,"R_den":30,"correct_side":1,"subjID":"dylansantiagolozano16","gender":"0","school":"4","age":"9"},{"start_time":1552327574666,"click_time":1552327576684,"finger_time":1552327576185,"fix_duration":1141.1139923635421,"trial":47,"RT":1519,"MT":499,"sideResp":1,"stimulus":[],"xmouse":[818,818,818,818,818,818,818,818,818,818,818,818,818,818,818,818,818,818,818,818,818,818,818,818,818,818,818,818,818,818,818,818,818,818,818,818,818,818,818,818,818,818,818,818,818,818,818,818,818,818,818,818,818,818,818,818,818,818,818,818,818,818,818,818,818,818,818,818,818,818,818,816,807,797,779,669,598,547,505,473,439,431,423,414,407,397,393,391,389,387,386,386,386,385,386,395,395,397,406,417,441],"ymouse":[522,522,522,522,522,522,522,522,522,522,522,522,522,522,522,522,522,522,522,522,522,522,522,522,522,522,522,522,522,522,522,522,522,522,522,522,522,522,522,522,522,522,522,522,522,522,522,522,522,522,522,522,522,522,522,522,522,522,522,522,522,522,522,522,522,522,522,522,522,522,522,517,510,499,475,353,288,257,232,214,193,187,178,166,155,137,131,125,119,115,101,95,87,77,66,41,41,39,31,23,9],"timestamp_mouse":[23,39,58,78,98,120,138,158,178,198,219,238,259,280,298,319,338,360,378,398,419,438,460,480,499,519,540,558,579,598,618,638,659,678,699,718,739,759,779,798,818,839,859,880,898,918,939,958,980,998,1018,1038,1059,1078,1099,1118,1139,1158,1178,1199,1219,1239,1258,1280,1298,1318,1339,1359,1379,1398,1418,1438,1458,1478,1500,1519,1538,1558,1578,1598,1618,1639,1660,1678,1698,1718,1738,1759,1778,1799,1819,1838,1858,1878,1899,1919,1939,1958,1978,1999,2018],"xSR":741.5,"ySR":469.95,"xT1":424.9,"yT1":0,"xT2":1058.1,"yT2":0,"toosoon":0,"cond_shown":"Incongruent","ratio_trial":100,"L_num":13,"L_den":26,"R_num":12,"R_den":20,"correct_side":2,"subjID":"dylansantiagolozano16","gender":"0","school":"4","age":"9"},{"start_time":1552327579658,"click_time":1552327580966,"finger_time":1552327580225,"fix_duration":1453.1643569722648,"trial":48,"RT":567,"MT":741,"sideResp":1,"stimulus":[],"xmouse":[779,779,779,779,779,779,779,779,779,779,779,779,779,779,779,779,779,779,779,779,779,779,779,779,779,779,779,776,770,767,760,750,741,737,732,728,725,722,712,681,650,573,526,483,452,425,405,402,400,400,400,405,414,422,430,435,446,454,457,461,464,466,467,469,470,470],"ymouse":[535,535,535,535,535,535,535,535,535,535,535,535,535,535,535,535,535,535,535,535,535,535,535,535,535,535,525,472,441,413,369,292,268,258,249,244,240,238,235,230,225,214,212,208,203,200,197,194,191,189,186,178,169,161,152,145,133,130,127,123,121,117,114,108,101,94],"timestamp_mouse":[6,26,46,68,86,106,127,148,167,187,208,226,246,267,287,306,327,348,367,386,406,428,446,466,486,508,526,546,567,586,606,626,646,667,688,706,726,747,767,786,807,826,846,868,886,908,926,947,966,987,1006,1026,1046,1066,1087,1107,1126,1146,1166,1186,1206,1226,1246,1266,1288,1308],"xSR":741.5,"ySR":469.95,"xT1":424.9,"yT1":0,"xT2":1058.1,"yT2":0,"toosoon":0,"cond_shown":"Incongruent","ratio_trial":200,"L_num":7,"L_den":15,"R_num":4,"R_den":6,"correct_side":2,"subjID":"dylansantiagolozano16","gender":"0","school":"4","age":"9"},{"start_time":1552327582076,"click_time":1552327584085,"finger_time":1552327583705,"fix_duration":250,"trial":49,"RT":1629,"MT":380,"sideResp":1,"stimulus":[],"xmouse":[803,803,803,803,803,803,803,803,803,803,803,803,803,803,803,803,803,803,803,803,803,803,803,803,803,803,803,803,803,803,803,803,803,803,803,803,803,803,803,803,803,803,803,803,803,803,803,803,803,803,803,803,803,803,803,803,803,803,803,803,803,803,803,803,803,803,803,803,803,803,803,803,803,803,803,803,803,803,803,797,762,719,690,661,623,524,502,491,484,478,467,464,460,457,455,453,453,453,453,453,453],"ymouse":[501,501,501,501,501,501,501,501,501,501,501,501,501,501,501,501,501,501,501,501,501,501,501,501,501,501,501,501,501,501,501,501,501,501,501,501,501,501,501,501,501,501,501,501,501,501,501,501,501,501,501,501,501,501,501,501,501,501,501,501,501,501,501,501,501,501,501,501,501,501,501,501,501,501,501,501,501,501,501,502,485,474,468,461,447,410,399,389,377,363,322,301,279,257,235,175,152,131,112,107,84],"timestamp_mouse":[9,29,49,68,89,108,128,150,168,188,209,228,250,269,288,308,329,349,370,390,408,428,449,470,489,508,529,549,570,588,608,629,650,670,690,710,729,748,769,790,809,830,849,870,889,908,929,949,969,990,1009,1028,1049,1069,1089,1108,1130,1148,1169,1189,1209,1228,1248,1270,1290,1308,1328,1349,1370,1389,1410,1430,1448,1468,1488,1509,1529,1548,1569,1589,1608,1629,1649,1669,1688,1709,1729,1748,1768,1790,1809,1829,1848,1869,1888,1909,1929,1948,1968,1990,2009],"xSR":741.5,"ySR":469.95,"xT1":424.9,"yT1":0,"xT2":1058.1,"yT2":0,"toosoon":0,"cond_shown":"Congruent","ratio_trial":100,"L_num":6,"L_den":20,"R_num":5,"R_den":25,"correct_side":1,"subjID":"dylansantiagolozano16","gender":"0","school":"4","age":"9"},{"start_time":1552327589212,"click_time":1552327590885,"finger_time":1552327589884,"fix_duration":1407.9993585785694,"trial":50,"RT":672,"MT":1001,"sideResp":2,"stimulus":[],"xmouse":[754,754,754,754,754,754,754,754,754,754,754,754,754,754,754,754,754,754,754,754,754,754,754,754,754,754,754,754,754,754,754,754,754,758,767,767,767,766,759,755,748,740,730,711,708,707,707,707,707,707,707,707,709,714,722,761,797,837,992,1049,1083,1105,1110,1111,1116,1127,1140,1155,1171,1174,1175,1175,1175,1170,1166,1165,1164,1164,1164,1164,1164,1162,1161,1158],"ymouse":[500,500,500,500,500,500,500,500,500,500,500,500,500,500,500,500,500,500,500,500,500,500,500,500,500,500,500,500,500,500,500,500,495,468,388,326,277,251,210,192,173,152,131,102,98,97,97,97,97,97,97,97,97,99,101,106,112,116,127,127,127,127,127,126,124,119,113,107,88,82,75,68,63,54,51,51,50,50,50,50,50,50,51,57],"timestamp_mouse":[12,32,53,72,94,114,133,153,173,193,214,232,252,273,293,313,332,353,374,393,412,433,454,473,493,514,533,552,573,594,612,634,653,672,693,713,733,753,773,793,812,833,852,873,893,914,933,954,973,992,1012,1032,1053,1073,1093,1112,1133,1152,1173,1193,1212,1234,1253,1272,1293,1314,1333,1352,1373,1392,1414,1434,1452,1473,1494,1514,1534,1553,1572,1593,1613,1634,1652,1673],"xSR":741.5,"ySR":469.95,"xT1":424.9,"yT1":0,"xT2":1058.1,"yT2":0,"toosoon":0,"cond_shown":"Incongruent","ratio_trial":100,"L_num":10,"L_den":25,"R_num":9,"R_den":18,"correct_side":2,"subjID":"dylansantiagolozano16","gender":"0","school":"4","age":"9"},{"start_time":1552327593247,"click_time":1552327597206,"finger_time":1552327594925,"fix_duration":1499.9113255515415,"trial":51,"RT":1678,"MT":2281,"sideResp":1,"stimulus":[],"xmouse":[791,791,791,791,791,791,791,791,791,791,791,791,791,791,791,791,791,791,791,791,791,791,791,791,791,791,791,791,791,791,791,791,791,791,791,791,791,791,791,791,791,791,791,791,791,791,791,791,791,791,791,791,791,791,791,791,791,791,791,791,791,791,791,791,791,791,791,791,791,791,791,791,791,791,791,791,791,791,791,791,791,791,791,772,697,697,697,697,697,697,697,697,697,697,697,697,697,697,697,697,697,697,697,697,697,697,697,697,697,697,697,697,697,697,697,697,697,697,697,697,697,697,697,697,697,697,697,697,697,697,697,697,697,697,697,697,697,697,697,697,697,697,697,697,697,697,697,697,697,697,697,697,697,20,30,49,79,95,113,125,137,158,163,167,171,174,189,194,199,209,221,242,252,258,263,265,270,272,275,280,291,305,313,318,325,330,334,336,340,345,353,367,376,382,386,390,424,447],"ymouse":[503,503,503,503,503,503,503,503,503,503,503,503,503,503,503,503,503,503,503,503,503,503,503,503,503,503,503,503,503,503,503,503,503,503,503,503,503,503,503,503,503,503,503,503,503,503,503,503,503,503,503,503,503,503,503,503,503,503,503,503,503,503,503,503,503,503,503,503,503,503,503,503,503,503,503,503,503,503,503,503,503,503,503,460,201,201,201,201,201,201,201,201,201,201,201,201,201,201,201,201,201,201,201,201,201,201,201,201,201,201,201,201,201,201,201,201,201,201,201,201,201,201,201,201,201,201,201,201,201,201,201,201,201,201,201,201,201,201,201,201,201,201,201,201,201,201,201,201,201,201,201,201,201,3,12,27,47,56,66,70,71,71,71,71,69,68,63,62,62,62,64,72,76,79,81,82,84,84,85,86,88,89,89,89,89,89,89,89,88,86,82,76,74,72,72,70,69,69],"timestamp_mouse":[18,37,58,78,99,117,138,158,179,198,217,238,257,279,299,318,338,358,378,398,417,437,458,478,498,518,537,557,578,598,618,637,658,678,698,718,738,758,778,797,818,838,857,877,898,919,938,957,978,998,1019,1038,1057,1077,1097,1117,1137,1158,1178,1197,1217,1237,1258,1277,1298,1319,1338,1358,1377,1397,1418,1437,1458,1479,1498,1518,1537,1557,1578,1598,1618,1638,1657,1678,1697,1718,1739,1758,1777,1797,1818,1838,1858,1879,1898,1918,1937,1957,1977,1997,2017,2037,2058,2077,2099,2118,2138,2158,2178,2198,2218,2238,2257,2277,2297,2317,2338,2357,2379,2398,2418,2437,2458,2477,2499,2518,2538,2559,2578,2597,2618,2638,2659,2679,2698,2718,2737,2758,2779,2798,2818,2837,2857,2879,2899,2917,2937,2958,2978,2998,3017,3037,3058,3078,3098,3117,3138,3158,3178,3197,3219,3238,3257,3278,3299,3318,3338,3358,3377,3398,3418,3438,3458,3477,3498,3519,3538,3557,3577,3598,3617,3638,3658,3678,3698,3718,3738,3758,3777,3797,3817,3838,3858,3878,3897,3918,3937,3959],"xSR":741.5,"ySR":469.95,"xT1":424.9,"yT1":0,"xT2":1058.1,"yT2":0,"toosoon":0,"cond_shown":"Incongruent","ratio_trial":200,"L_num":7,"L_den":10,"R_num":12,"R_den":24,"correct_side":1,"subjID":"dylansantiagolozano16","gender":"0","school":"4","age":"9"},{"start_time":1552327599804,"click_time":1552327601165,"finger_time":1552327600485,"fix_duration":1418.876765477443,"trial":52,"RT":681,"MT":680,"sideResp":2,"stimulus":[],"xmouse":[744,744,744,744,744,744,744,744,744,744,744,744,744,744,744,744,744,744,744,744,744,744,744,744,744,744,744,744,744,744,744,747,750,755,764,766,744,744,743,745,753,766,785,814,853,855,855,855,856,867,878,901,920,965,998,998,998,997,997,1010,1022,1036,1046,1050,1052,1053,1053,1054,1060],"ymouse":[533,533,533,533,533,533,533,533,533,533,533,533,533,533,533,533,533,533,533,533,533,533,533,533,533,533,533,533,533,533,533,530,524,510,460,398,330,316,305,294,283,268,250,232,209,207,207,207,207,207,208,206,190,162,140,133,129,128,127,113,100,80,63,55,51,51,51,50,49],"timestamp_mouse":[3,21,40,62,82,101,120,140,160,181,200,221,241,262,280,301,320,341,362,381,401,420,440,460,480,501,521,541,562,580,600,622,641,660,681,701,721,740,761,781,801,822,840,860,881,901,922,941,961,981,1000,1021,1042,1060,1080,1102,1121,1141,1162,1181,1200,1220,1240,1262,1281,1301,1320,1341,1361],"xSR":741.5,"ySR":469.95,"xT1":424.9,"yT1":0,"xT2":1058.1,"yT2":0,"toosoon":0,"cond_shown":"Incongruent","ratio_trial":100,"L_num":6,"L_den":12,"R_num":3,"R_den":5,"correct_side":2,"subjID":"dylansantiagolozano16","gender":"0","school":"4","age":"9"},{"start_time":1552327607615,"click_time":1552327608985,"finger_time":1552327608385,"fix_duration":1347.6232858040225,"trial":53,"RT":770,"MT":600,"sideResp":2,"stimulus":[],"xmouse":[797,797,797,797,797,797,797,797,797,797,797,797,797,797,797,797,797,797,797,797,797,797,797,797,797,797,797,797,797,797,797,797,797,797,797,797,797,800,865,893,915,933,956,1060,1108,1142,1166,1188,1213,1218,1219,1221,1221,1215,1212,1206,1201,1196,1185,1182,1181,1180,1180,1179,1179,1178,1175,1170,1154],"ymouse":[528,528,528,528,528,528,528,528,528,528,528,528,528,528,528,528,528,528,528,528,528,528,528,528,528,528,528,528,528,528,528,528,528,528,528,528,528,523,470,450,435,421,408,346,317,292,270,235,160,138,119,105,92,72,64,56,49,41,28,25,23,23,23,23,23,23,24,27,34],"timestamp_mouse":[9,29,50,70,90,111,129,150,171,190,210,230,249,270,291,311,330,349,370,391,411,431,450,470,490,511,529,549,570,589,611,631,649,671,691,710,729,749,770,790,810,831,850,869,889,910,929,949,969,989,1011,1030,1049,1069,1090,1111,1129,1150,1169,1190,1210,1230,1250,1269,1289,1310,1331,1350,1369],"xSR":741.5,"ySR":469.95,"xT1":424.9,"yT1":0,"xT2":1058.1,"yT2":0,"toosoon":0,"cond_shown":"Congruent","ratio_trial":100,"L_num":7,"L_den":14,"R_num":15,"R_den":25,"correct_side":2,"subjID":"dylansantiagolozano16","gender":"0","school":"4","age":"9"},{"start_time":1552327610826,"click_time":1552327611885,"finger_time":1552327611505,"fix_duration":960.3887139723254,"trial":54,"RT":679,"MT":380,"sideResp":2,"stimulus":[],"xmouse":[798,798,798,798,798,798,798,798,798,798,798,798,798,798,798,798,798,798,798,798,798,798,798,798,798,798,798,798,798,798,798,813,835,846,860,880,901,986,1007,1018,1029,1041,1051,1068,1073,1077,1080,1087,1089,1094,1098,1101,1101],"ymouse":[502,502,502,502,502,502,502,502,502,502,502,502,502,502,502,502,502,502,502,502,502,502,502,502,502,502,502,502,502,502,502,491,476,466,453,439,422,343,319,304,286,267,252,218,205,194,183,154,141,127,111,101,93],"timestamp_mouse":[18,38,60,78,98,119,140,159,178,200,220,238,258,280,299,318,340,359,378,400,419,438,459,479,499,520,540,559,579,598,618,639,659,679,698,718,739,758,780,798,819,839,859,878,898,920,940,959,979,998,1018,1038,1059],"xSR":741.5,"ySR":469.95,"xT1":424.9,"yT1":0,"xT2":1058.1,"yT2":0,"toosoon":0,"cond_shown":"Congruent","ratio_trial":200,"L_num":5,"L_den":10,"R_num":14,"R_den":20,"correct_side":2,"subjID":"dylansantiagolozano16","gender":"0","school":"4","age":"9"},{"start_time":1552327612897,"click_time":1552327614425,"finger_time":1552327613925,"fix_duration":250,"trial":55,"RT":1028,"MT":500,"sideResp":1,"stimulus":[],"xmouse":[792,792,792,792,792,792,792,792,792,792,792,792,792,792,792,792,792,792,792,792,792,792,792,792,792,792,792,792,792,792,792,792,792,792,792,792,792,792,792,792,792,792,792,792,792,792,792,792,792,777,744,715,688,666,649,638,634,629,624,608,599,596,596,596,612,617,620,622,622,614,606,597,585,582,555,525,481],"ymouse":[540,540,540,540,540,540,540,540,540,540,540,540,540,540,540,540,540,540,540,540,540,540,540,540,540,540,540,540,540,540,540,540,540,540,540,540,540,540,540,540,540,540,540,540,540,540,540,540,540,518,490,466,436,409,385,360,345,328,310,269,250,236,227,220,188,175,161,146,129,96,80,68,58,56,49,47,47],"timestamp_mouse":[10,28,47,68,89,109,129,147,168,187,209,227,247,268,288,309,328,348,369,388,407,428,448,468,487,507,529,549,568,588,607,629,649,667,688,709,728,748,768,787,809,827,849,867,887,907,927,949,968,987,1008,1028,1048,1067,1087,1107,1127,1148,1168,1188,1207,1227,1248,1269,1288,1308,1329,1349,1367,1387,1409,1429,1447,1467,1488,1508,1528],"xSR":741.5,"ySR":469.95,"xT1":424.9,"yT1":0,"xT2":1058.1,"yT2":0,"toosoon":0,"cond_shown":"Incongruent","ratio_trial":200,"L_num":7,"L_den":15,"R_num":4,"R_den":6,"correct_side":2,"subjID":"dylansantiagolozano16","gender":"0","school":"4","age":"9"},{"start_time":1552327616041,"click_time":1552327617085,"finger_time":1552327616904,"fix_duration":353.3523767808875,"trial":56,"RT":863,"MT":181,"sideResp":2,"stimulus":[],"xmouse":[806,806,806,806,806,806,806,806,806,806,806,806,806,806,806,806,806,806,806,806,806,806,806,806,806,806,806,806,806,806,