[{"start_time":1552327920282,"click_time":1552327926553,"finger_time":1552327926034,"fix_duration":907.35629244505,"trial":0,"RT":5752,"MT":519,"sideResp":2,"stimulus":"img/750/equaldotsize/L/10_Ratio_750_L_4_R_3.png","xmouse":[811,811,811,811,811,811,811,811,811,811,811,811,811,811,811,811,811,811,811,811,811,811,811,811,811,811,811,811,811,811,811,811,811,811,811,811,811,811,811,811,811,811,811,811,811,811,811,811,811,811,811,811,811,811,811,811,811,811,811,811,811,811,811,811,811,811,811,811,811,811,811,811,811,811,811,811,811,811,811,811,811,811,811,811,811,811,811,811,811,811,811,811,811,811,811,811,811,811,811,811,811,811,811,811,811,811,811,811,811,811,811,811,811,811,811,811,811,811,811,811,811,811,811,811,811,811,811,811,811,811,811,811,811,813,813,813,813,813,813,813,813,813,813,813,813,813,813,813,813,813,813,813,813,813,813,813,813,813,813,813,813,813,813,813,813,813,813,813,813,813,813,813,813,813,813,813,813,813,813,812,812,811,811,811,811,811,811,811,811,811,811,811,811,811,811,811,811,811,811,811,811,811,811,811,811,811,810,809,808,808,805,804,803,802,802,801,801,801,801,801,801,801,801,801,801,801,801,801,801,801,801,801,801,801,801,801,801,801,801,801,801,801,801,801,801,801,801,801,801,801,801,801,801,801,801,801,801,801,801,801,801,801,801,801,801,801,801,801,801,801,801,801,801,801,801,801,801,801,801,801,801,801,801,801,801,801,812,866,920,1007,1047,1071,1081,1088,1107,1110,1116,1130,1148,1165,1179,1180,1179,1176,1169,1168,1168,1168,1168,1168,1167,1164,1160,1156],"ymouse":[509,509,509,509,509,509,509,509,509,509,509,509,509,509,509,509,509,509,509,509,509,509,509,509,509,509,509,509,509,509,509,509,509,509,509,509,509,509,509,509,509,509,509,509,509,509,509,509,509,509,509,509,509,509,509,509,509,509,509,509,509,509,509,509,509,509,509,509,509,509,509,509,509,509,509,509,509,509,509,509,509,509,509,509,509,509,509,509,509,509,509,509,509,509,509,509,509,509,509,509,509,509,509,509,509,509,509,509,509,509,509,509,509,509,509,509,509,509,509,509,509,509,509,509,509,509,509,509,509,509,509,510,510,510,510,510,510,510,510,510,510,510,510,510,510,510,510,510,510,510,510,510,510,510,510,510,510,510,510,510,510,510,510,510,510,510,510,510,510,510,510,510,510,510,510,510,510,510,510,510,510,510,510,510,510,510,510,510,510,510,510,510,510,510,510,510,510,510,510,510,510,510,510,510,510,510,510,513,515,517,523,526,528,529,530,531,531,531,531,531,531,531,531,531,531,531,531,531,531,531,531,531,531,531,531,531,531,531,531,531,531,531,531,531,531,531,531,531,531,531,531,531,531,531,531,531,531,531,531,531,531,531,531,531,531,531,531,531,531,531,531,531,531,531,531,531,531,531,531,531,531,531,531,531,531,531,519,488,463,414,382,346,322,305,253,226,192,155,119,95,68,61,56,51,44,43,43,43,43,43,43,43,43,44],"timestamp_mouse":[11,31,51,70,91,111,131,152,171,190,210,231,252,270,291,311,331,352,370,391,410,432,451,472,491,510,532,552,571,590,611,631,651,672,690,711,730,750,770,792,812,831,852,871,890,912,932,952,971,992,1011,1032,1051,1071,1090,1112,1131,1150,1171,1190,1212,1232,1251,1271,1291,1310,1332,1352,1370,1392,1412,1432,1452,1471,1491,1512,1532,1552,1570,1592,1612,1632,1651,1670,1692,1711,1731,1751,1772,1790,1811,1831,1852,1871,1890,1912,1931,1950,1971,1990,2012,2032,2051,2071,2092,2111,2131,2150,2170,2191,2212,2232,2252,2272,2291,2311,2332,2352,2371,2390,2410,2432,2452,2471,2490,2510,2531,2552,2571,2590,2610,2631,2650,2671,2691,2711,2731,2751,2770,2792,2811,2831,2852,2872,2891,2911,2930,2952,2972,2992,3011,3032,3050,3072,3092,3111,3131,3152,3171,3192,3211,3232,3250,3271,3292,3311,3332,3352,3371,3391,3412,3431,3452,3471,3491,3511,3531,3552,3571,3590,3610,3630,3650,3671,3691,3712,3731,3751,3771,3792,3812,3830,3852,3872,3891,3911,3931,3951,3972,3992,4010,4030,4052,4072,4091,4110,4130,4151,4170,4191,4210,4232,4251,4270,4291,4312,4332,4352,4372,4391,4410,4432,4452,4471,4491,4510,4530,4552,4572,4590,4612,4631,4652,4670,4690,4712,4731,4751,4771,4791,4811,4832,4852,4871,4890,4912,4932,4951,4970,4990,5010,5030,5052,5072,5092,5110,5130,5151,5171,5190,5210,5231,5251,5272,5291,5310,5331,5352,5372,5391,5411,5430,5451,5471,5492,5511,5530,5551,5572,5592,5611,5632,5651,5671,5692,5712,5730,5752,5771,5792,5811,5830,5852,5871,5892,5912,5930,5950,5971,5990,6010,6031,6051,6071,6092,6112,6130,6152,6172,6191,6210,6230,6250,6271],"xSR":741.5,"ySR":469.95,"xT1":424.9,"yT1":0,"xT2":1058.1,"yT2":0,"toosoon":0,"cond_shown":"equaldotsize","ratio_trial":750,"smaller_num":"3","larger_num":"4","correct_side":1,"subjID":"Dylansantiagolozano16","gender":"0","age":"9","school":"4","test":{"fix_dur":[250,1500],"timestim":300,"targets_dim":[100,100],"targets_relative_coord":[0.3,0.7],"size_stim":[880,420],"start_dim":[100,100],"size_start":[300,300],"size_fix":60,"samplingrate":20,"img_types":["equaldotsize","equaldotanddens","randomdotsizeEA"],"ratios":[250,500,750,900],"rep_conds":9,"nTrials":120,"trials_to_rest":500,"Trials_order":[42,65,77,18,75,16,44,119,110,10,105,20,88,72,118,35,104,100,48,40,25,98,30,4,34,15,50,21,81,11,54,90,17,58,111,112,22,64,61,89,85,101,115,33,52,53,93,7,109,68,28,31,95,55,82,69,117,92,71,102,57,43,62,38,67,114,27,96,51,91,63,76,3,12,26,29,74,79,9,6,32,39,24,37,66,103,14,116,47,45,41,84,59,97,36,107,113,46,83,73,108,94,2,23,106,70,56,49,87,0,13,19,99,80,5,78,86,8,1,60],"cond_shown":["equaldotsize","randomdotsizeEA","randomdotsizeEA","equaldotsize","equaldotsize","equaldotanddens","randomdotsizeEA","randomdotsizeEA","randomdotsizeEA","equaldotanddens","equaldotsize","randomdotsizeEA","equaldotanddens","equaldotsize","equaldotanddens","randomdotsizeEA","randomdotsizeEA","equaldotanddens","equaldotsize","equaldotanddens","equaldotanddens","randomdotsizeEA","equaldotsize","equaldotanddens","equaldotanddens","equaldotsize","randomdotsizeEA","equaldotsize","equaldotsize","randomdotsizeEA","equaldotsize","equaldotsize","randomdotsizeEA","equaldotanddens","equaldotsize","equaldotanddens","equaldotanddens","equaldotanddens","equaldotanddens","randomdotsizeEA","equaldotanddens","randomdotsizeEA","equaldotanddens","equaldotsize","equaldotanddens","randomdotsizeEA","equaldotsize","equaldotanddens","equaldotanddens","randomdotsizeEA","equaldotanddens","equaldotanddens","randomdotsizeEA","equaldotanddens","equaldotanddens","equaldotsize","equaldotsize","randomdotsizeEA","randomdotsizeEA","equaldotsize","equaldotsize","equaldotanddens","randomdotsizeEA","randomdotsizeEA","equaldotanddens","equaldotsize","equaldotsize","equaldotsize","equaldotsize","equaldotanddens","equaldotsize","equaldotanddens","equaldotsize","equaldotsize","randomdotsizeEA","randomdotsizeEA","randomdotsizeEA","equaldotanddens","equaldotsize","equaldotsize","randomdotsizeEA","equaldotsize","equaldotsize","equaldotanddens","equaldotsize","equaldotanddens","randomdotsizeEA","randomdotsizeEA","randomdotsizeEA","equaldotsize","randomdotsizeEA","equaldotsize","randomdotsizeEA","equaldotanddens","equaldotsize","randomdotsizeEA","randomdotsizeEA","equaldotanddens","randomdotsizeEA","equaldotanddens","equaldotsize","equaldotanddens","randomdotsizeEA","randomdotsizeEA","equaldotanddens","equaldotanddens","randomdotsizeEA","equaldotanddens","equaldotsize","equaldotsize","equaldotanddens","equaldotanddens","equaldotsize","randomdotsizeEA","randomdotsizeEA","equaldotsize","randomdotsizeEA","randomdotsizeEA","equaldotanddens","equaldotsize"],"ratio_trial":[750,500,500,750,500,500,750,900,250,900,900,750,500,250,900,900,750,500,250,500,250,250,750,500,900,500,250,900,900,900,750,750,500,900,500,500,900,500,250,500,250,500,750,900,500,500,900,750,250,750,500,750,900,750,900,900,900,750,900,750,900,750,250,250,750,750,500,250,500,750,500,500,500,250,250,500,250,750,900,750,750,500,250,250,750,750,250,750,900,900,500,250,900,250,250,900,500,900,900,250,250,900,250,900,900,900,750,250,500,250,250,750,500,750,500,750,250,750,250,250],"smaller_num":["3","9","6","3","2","1","18","9","3","18","9","15","6","6","18","9","3","6","2","5","2","3","6","10","18","10","2","18","18","18","18","15","2","9","9","5","18","4","3","2","6","9","12","9","5","3","9","6","6","15","5","6","18","15","9","9","18","9","18","3","18","9","3","2","3","3","2","6","1","18","6","5","1","3","2","2","2","18","9","15","3","9","3","1","3","12","5","9","18","18","3","4","18","6","6","18","9","9","18","1","2","18","1","18","18","18","3","4","1","4","6","9","5","3","6","9","5","3","6","4"],"larger_num":["4","18","12","4","4","2","24","10","12","20","10","20","12","24","20","10","4","12","8","10","8","12","8","20","20","20","8","20","20","20","24","20","4","10","18","10","20","8","12","4","24","18","16","10","10","6","10","8","24","20","10","8","20","20","10","10","20","12","20","4","20","12","12","8","4","4","4","24","2","24","12","10","2","12","8","4","8","24","10","20","4","18","12","4","4","16","20","12","20","20","6","16","20","24","24","20","18","10","20","4","8","20","4","20","20","20","4","16","2","16","24","12","10","4","12","12","20","4","24","16"],"correct_side":[1,2,1,1,2,2,1,2,1,2,2,1,1,1,1,2,1,1,1,1,1,2,1,2,2,2,2,2,2,2,1,2,1,2,2,1,1,1,2,2,1,2,2,2,2,2,1,2,2,2,2,2,2,2,2,1,2,2,2,2,1,2,2,1,2,1,2,1,2,1,1,2,2,2,1,1,1,1,2,1,1,1,2,2,1,2,2,2,1,1,2,2,1,1,2,2,2,1,2,2,1,2,2,1,2,1,2,2,2,2,1,2,2,1,1,2,2,2,1,1],"img_shown":["img/750/equaldotsize/L/10_Ratio_750_L_4_R_3.png","img/500/randomdotsizeEA/R/1_Ratio_500_L_9_R_18.png","img/500/randomdotsizeEA/L/11_Ratio_500_L_12_R_6.png","img/750/equaldotsize/L/10_Ratio_750_L_4_R_3.png","img/500/equaldotsize/R/9_Ratio_500_L_2_R_4.png","img/500/equaldotanddens/R/12_Ratio_500_L_1_R_2.png","img/750/randomdotsizeEA/L/6_Ratio_750_L_24_R_18.png","img/900/randomdotsizeEA/R/3_Ratio_900_L_9_R_10.png","img/250/randomdotsizeEA/L/14_Ratio_250_L_12_R_3.png","img/900/equaldotanddens/R/12_Ratio_900_L_18_R_20.png","img/900/equaldotsize/R/5_Ratio_900_L_9_R_10.png","img/750/randomdotsizeEA/L/1_Ratio_750_L_20_R_15.png","img/500/equaldotanddens/L/13_Ratio_500_L_12_R_6.png","img/250/equaldotsize/L/5_Ratio_250_L_24_R_6.png","img/900/equaldotanddens/L/2_Ratio_900_L_20_R_18.png","img/900/randomdotsizeEA/R/7_Ratio_900_L_9_R_10.png","img/750/randomdotsizeEA/L/9_Ratio_750_L_4_R_3.png","img/500/equaldotanddens/L/11_Ratio_500_L_12_R_6.png","img/250/equaldotsize/L/7_Ratio_250_L_8_R_2.png","img/500/equaldotanddens/L/7_Ratio_500_L_10_R_5.png","img/250/equaldotanddens/L/1_Ratio_250_L_8_R_2.png","img/250/randomdotsizeEA/R/9_Ratio_250_L_3_R_12.png","img/750/equaldotsize/L/14_Ratio_750_L_8_R_6.png","img/500/equaldotanddens/R/3_Ratio_500_L_10_R_20.png","img/900/equaldotanddens/R/9_Ratio_900_L_18_R_20.png","img/500/equaldotsize/R/3_Ratio_500_L_10_R_20.png","img/250/randomdotsizeEA/R/13_Ratio_250_L_2_R_8.png","img/900/equaldotsize/R/9_Ratio_900_L_18_R_20.png","img/900/equaldotsize/R/14_Ratio_900_L_18_R_20.png","img/900/randomdotsizeEA/R/11_Ratio_900_L_18_R_20.png","img/750/equaldotsize/L/6_Ratio_750_L_24_R_18.png","img/750/equaldotsize/R/4_Ratio_750_L_15_R_20.png","img/500/randomdotsizeEA/L/10_Ratio_500_L_4_R_2.png","img/900/equaldotanddens/R/5_Ratio_900_L_9_R_10.png","img/500/equaldotsize/R/1_Ratio_500_L_9_R_18.png","img/500/equaldotanddens/L/7_Ratio_500_L_10_R_5.png","img/900/equaldotanddens/L/2_Ratio_900_L_20_R_18.png","img/500/equaldotanddens/L/8_Ratio_500_L_8_R_4.png","img/250/equaldotanddens/R/9_Ratio_250_L_3_R_12.png","img/500/randomdotsizeEA/R/9_Ratio_500_L_2_R_4.png","img/250/equaldotanddens/L/5_Ratio_250_L_24_R_6.png","img/500/randomdotsizeEA/R/6_Ratio_500_L_9_R_18.png","img/750/equaldotanddens/R/11_Ratio_750_L_12_R_16.png","img/900/equaldotsize/R/7_Ratio_900_L_9_R_10.png","img/500/equaldotanddens/R/14_Ratio_500_L_5_R_10.png","img/500/randomdotsizeEA/R/2_Ratio_500_L_3_R_6.png","img/900/equaldotsize/L/1_Ratio_900_L_10_R_9.png","img/750/equaldotanddens/R/2_Ratio_750_L_6_R_8.png","img/250/equaldotanddens/R/6_Ratio_250_L_6_R_24.png","img/750/randomdotsizeEA/R/5_Ratio_750_L_15_R_20.png","img/500/equaldotanddens/R/14_Ratio_500_L_5_R_10.png","img/750/equaldotanddens/R/2_Ratio_750_L_6_R_8.png","img/900/randomdotsizeEA/R/11_Ratio_900_L_18_R_20.png","img/750/equaldotanddens/R/4_Ratio_750_L_15_R_20.png","img/900/equaldotanddens/R/5_Ratio_900_L_9_R_10.png","img/900/equaldotsize/L/1_Ratio_900_L_10_R_9.png","img/900/equaldotsize/R/11_Ratio_900_L_18_R_20.png","img/750/randomdotsizeEA/R/15_Ratio_750_L_9_R_12.png","img/900/randomdotsizeEA/R/14_Ratio_900_L_18_R_20.png","img/750/equaldotsize/R/12_Ratio_750_L_3_R_4.png","img/900/equaldotsize/L/10_Ratio_900_L_20_R_18.png","img/750/equaldotanddens/R/15_Ratio_750_L_9_R_12.png","img/250/randomdotsizeEA/R/4_Ratio_250_L_3_R_12.png","img/250/randomdotsizeEA/L/1_Ratio_250_L_8_R_2.png","img/750/equaldotanddens/R/12_Ratio_750_L_3_R_4.png","img/750/equaldotsize/L/9_Ratio_750_L_4_R_3.png","img/500/equaldotsize/R/9_Ratio_500_L_2_R_4.png","img/250/equaldotsize/L/5_Ratio_250_L_24_R_6.png","img/500/equaldotsize/R/12_Ratio_500_L_1_R_2.png","img/750/equaldotanddens/L/6_Ratio_750_L_24_R_18.png","img/500/equaldotsize/L/13_Ratio_500_L_12_R_6.png","img/500/equaldotanddens/R/14_Ratio_500_L_5_R_10.png","img/500/equaldotsize/R/12_Ratio_500_L_1_R_2.png","img/250/equaldotsize/R/11_Ratio_250_L_3_R_12.png","img/250/randomdotsizeEA/L/3_Ratio_250_L_8_R_2.png","img/500/randomdotsizeEA/L/5_Ratio_500_L_4_R_2.png","img/250/randomdotsizeEA/L/1_Ratio_250_L_8_R_2.png","img/750/equaldotanddens/L/6_Ratio_750_L_24_R_18.png","img/900/equaldotsize/R/15_Ratio_900_L_9_R_10.png","img/750/equaldotsize/L/1_Ratio_750_L_20_R_15.png","img/750/randomdotsizeEA/L/9_Ratio_750_L_4_R_3.png","img/500/equaldotsize/L/4_Ratio_500_L_18_R_9.png","img/250/equaldotsize/R/4_Ratio_250_L_3_R_12.png","img/250/equaldotanddens/R/8_Ratio_250_L_1_R_4.png","img/750/equaldotsize/L/8_Ratio_750_L_4_R_3.png","img/750/equaldotanddens/R/11_Ratio_750_L_12_R_16.png","img/250/randomdotsizeEA/R/12_Ratio_250_L_5_R_20.png","img/750/randomdotsizeEA/R/15_Ratio_750_L_9_R_12.png","img/900/randomdotsizeEA/L/4_Ratio_900_L_20_R_18.png","img/900/equaldotsize/L/8_Ratio_900_L_20_R_18.png","img/500/randomdotsizeEA/R/2_Ratio_500_L_3_R_6.png","img/250/equaldotsize/R/10_Ratio_250_L_4_R_16.png","img/900/randomdotsizeEA/L/2_Ratio_900_L_20_R_18.png","img/250/equaldotanddens/L/5_Ratio_250_L_24_R_6.png","img/250/equaldotsize/R/6_Ratio_250_L_6_R_24.png","img/900/randomdotsizeEA/R/13_Ratio_900_L_18_R_20.png","img/500/randomdotsizeEA/R/1_Ratio_500_L_9_R_18.png","img/900/equaldotanddens/L/1_Ratio_900_L_10_R_9.png","img/900/randomdotsizeEA/R/13_Ratio_900_L_18_R_20.png","img/250/equaldotanddens/R/8_Ratio_250_L_1_R_4.png","img/250/equaldotsize/L/1_Ratio_250_L_8_R_2.png","img/900/equaldotanddens/R/11_Ratio_900_L_18_R_20.png","img/250/randomdotsizeEA/R/8_Ratio_250_L_1_R_4.png","img/900/randomdotsizeEA/L/4_Ratio_900_L_20_R_18.png","img/900/equaldotanddens/R/9_Ratio_900_L_18_R_20.png","img/900/equaldotanddens/L/10_Ratio_900_L_20_R_18.png","img/750/randomdotsizeEA/R/7_Ratio_750_L_3_R_4.png","img/250/equaldotanddens/R/10_Ratio_250_L_4_R_16.png","img/500/equaldotsize/R/12_Ratio_500_L_1_R_2.png","img/250/equaldotsize/R/10_Ratio_250_L_4_R_16.png","img/250/equaldotanddens/L/5_Ratio_250_L_24_R_6.png","img/750/equaldotanddens/R/15_Ratio_750_L_9_R_12.png","img/500/equaldotsize/R/14_Ratio_500_L_5_R_10.png","img/750/randomdotsizeEA/L/8_Ratio_750_L_4_R_3.png","img/500/randomdotsizeEA/L/13_Ratio_500_L_12_R_6.png","img/750/equaldotsize/R/15_Ratio_750_L_9_R_12.png","img/250/randomdotsizeEA/R/12_Ratio_250_L_5_R_20.png","img/750/randomdotsizeEA/R/7_Ratio_750_L_3_R_4.png","img/250/equaldotanddens/L/5_Ratio_250_L_24_R_6.png","img/250/equaldotsize/L/2_Ratio_250_L_16_R_4.png"],"Rat0":[["12_Ratio_0_L_9_R_0.png","13_Ratio_0_L_6_R_0.png","5_Ratio_0_L_2_R_0.png","6_Ratio_0_L_4_R_0.png","8_Ratio_0_L_6_R_0.png"],["1_Ratio_0_L_0_R_17.png","10_Ratio_0_L_0_R_22.png","11_Ratio_0_L_0_R_1.png","14_Ratio_0_L_0_R_24.png","15_Ratio_0_L_0_R_4.png","2_Ratio_0_L_0_R_5.png","3_Ratio_0_L_0_R_17.png","4_Ratio_0_L_0_R_7.png","7_Ratio_0_L_0_R_19.png","9_Ratio_0_L_0_R_15.png"]],"Rat250":[["1_Ratio_250_L_8_R_2.png","14_Ratio_250_L_12_R_3.png","15_Ratio_250_L_12_R_3.png","2_Ratio_250_L_16_R_4.png","3_Ratio_250_L_8_R_2.png","5_Ratio_250_L_24_R_6.png","7_Ratio_250_L_8_R_2.png"],["10_Ratio_250_L_4_R_16.png","11_Ratio_250_L_3_R_12.png","12_Ratio_250_L_5_R_20.png","13_Ratio_250_L_2_R_8.png","4_Ratio_250_L_3_R_12.png","6_Ratio_250_L_6_R_24.png","8_Ratio_250_L_1_R_4.png","9_Ratio_250_L_3_R_12.png"]],"Rat500":[["10_Ratio_500_L_4_R_2.png","11_Ratio_500_L_12_R_6.png","13_Ratio_500_L_12_R_6.png","4_Ratio_500_L_18_R_9.png","5_Ratio_500_L_4_R_2.png","7_Ratio_500_L_10_R_5.png","8_Ratio_500_L_8_R_4.png"],["1_Ratio_500_L_9_R_18.png","12_Ratio_500_L_1_R_2.png","14_Ratio_500_L_5_R_10.png","15_Ratio_500_L_1_R_2.png","2_Ratio_500_L_3_R_6.png","3_Ratio_500_L_10_R_20.png","6_Ratio_500_L_9_R_18.png","9_Ratio_500_L_2_R_4.png"]],"Rat750":[["1_Ratio_750_L_20_R_15.png","10_Ratio_750_L_4_R_3.png","13_Ratio_750_L_8_R_6.png","14_Ratio_750_L_8_R_6.png","6_Ratio_750_L_24_R_18.png","8_Ratio_750_L_4_R_3.png","9_Ratio_750_L_4_R_3.png"],["11_Ratio_750_L_12_R_16.png","12_Ratio_750_L_3_R_4.png","15_Ratio_750_L_9_R_12.png","2_Ratio_750_L_6_R_8.png","3_Ratio_750_L_15_R_20.png","4_Ratio_750_L_15_R_20.png","5_Ratio_750_L_15_R_20.png","7_Ratio_750_L_3_R_4.png"]],"Rat900":[["1_Ratio_900_L_10_R_9.png","10_Ratio_900_L_20_R_18.png","2_Ratio_900_L_20_R_18.png","4_Ratio_900_L_20_R_18.png","8_Ratio_900_L_20_R_18.png"],["11_Ratio_900_L_18_R_20.png","12_Ratio_900_L_18_R_20.png","13_Ratio_900_L_18_R_20.png","14_Ratio_900_L_18_R_20.png","15_Ratio_900_L_9_R_10.png","3_Ratio_900_L_9_R_10.png","5_Ratio_900_L_9_R_10.png","6_Ratio_900_L_9_R_10.png","7_Ratio_900_L_9_R_10.png","9_Ratio_900_L_18_R_20.png"]],"Rat1000":[["10_Ratio_1000_L_16_R_16.png","11_Ratio_1000_L_6_R_6.png","12_Ratio_1000_L_14_R_14.png","13_Ratio_1000_L_20_R_20.png","15_Ratio_1000_L_15_R_15.png","2_Ratio_1000_L_17_R_17.png","4_Ratio_1000_L_9_R_9.png","5_Ratio_1000_L_6_R_6.png","6_Ratio_1000_L_19_R_19.png","8_Ratio_1000_L_14_R_14.png","9_Ratio_1000_L_25_R_25.png"],["1_Ratio_1000_L_1_R_1.png","14_Ratio_1000_L_17_R_17.png","3_Ratio_1000_L_17_R_17.png","7_Ratio_1000_L_6_R_6.png"]]}},{"start_time":1552327928025,"click_time":1552327929892,"finger_time":1552327929473,"fix_duration":250,"trial":1,"RT":1448,"MT":419,"sideResp":1,"stimulus":"img/500/randomdotsizeEA/R/1_Ratio_500_L_9_R_18.png","xmouse":[813,813,813,813,813,813,813,813,813,813,813,813,813,813,813,813,813,813,813,813,813,813,813,813,813,813,813,813,813,813,813,813,813,813,813,813,813,813,813,813,813,813,813,813,813,813,813,813,813,813,813,813,813,813,813,813,813,813,813,813,813,813,813,813,813,813,813,813,813,813,815,821,845,851,853,853,853,853,853,853,853,853,853,853,848,819,773,727,601,558,524,503,489,475],"ymouse":[509,509,509,509,509,509,509,509,509,509,509,509,509,509,509,509,509,509,509,509,509,509,509,509,509,509,509,509,509,509,509,509,509,509,509,509,509,509,509,509,509,509,509,509,509,509,509,509,509,509,509,509,509,509,509,509,509,509,509,509,509,509,509,509,509,509,509,509,509,509,506,501,466,453,447,446,446,446,446,446,446,446,446,446,433,387,326,277,189,165,146,132,121,99],"timestamp_mouse":[8,30,48,68,87,109,128,148,169,188,207,228,247,268,289,309,328,348,368,387,407,428,449,467,487,508,529,548,567,587,609,628,647,667,688,709,729,747,767,788,809,829,847,867,888,907,929,949,968,987,1008,1029,1049,1068,1087,1109,1129,1147,1169,1189,1208,1229,1247,1269,1288,1309,1327,1349,1367,1388,1409,1428,1448,1468,1489,1508,1527,1549,1568,1589,1609,1628,1649,1668,1687,1708,1728,1749,1768,1787,1808,1828,1847,1867],"xSR":741.5,"ySR":469.95,"xT1":424.9,"yT1":0,"xT2":1058.1,"yT2":0,"toosoon":0,"cond_shown":"randomdotsizeEA","ratio_trial":500,"smaller_num":"9","larger_num":"18","correct_side":2,"subjID":"Dylansantiagolozano16","gender":"0","age":"9","school":"4"},{"start_time":1552327932111,"click_time":1552327933733,"finger_time":1552327933392,"fix_duration":1315.745202315155,"trial":2,"RT":1281,"MT":341,"sideResp":1,"stimulus":"img/500/randomdotsizeEA/L/11_Ratio_500_L_12_R_6.png","xmouse":[799,799,799,799,799,799,799,799,799,799,799,799,799,799,799,799,799,799,799,799,799,799,799,799,799,799,799,799,799,799,799,799,799,799,799,799,799,799,799,799,799,799,799,799,799,799,799,799,799,799,799,799,799,799,799,799,799,799,799,799,799,799,798,791,731,691,648,614,574,563,557,555,553,553,553,553,553,553,553,553,553,487],"ymouse":[524,524,524,524,524,524,524,524,524,524,524,524,524,524,524,524,524,524,524,524,524,524,524,524,524,524,524,524,524,524,524,524,524,524,524,524,524,524,524,524,524,524,524,524,524,524,524,524,524,524,524,524,524,524,524,524,524,524,524,524,524,524,523,492,329,245,173,117,55,35,18,11,0,0,0,0,0,0,0,0,0,17],"timestamp_mouse":[4,21,42,62,83,101,121,143,162,182,201,222,242,262,282,302,321,341,362,382,403,421,442,462,483,503,523,541,561,582,603,623,641,661,683,702,721,743,763,782,802,823,842,861,882,901,923,942,961,982,1002,1023,1043,1061,1081,1103,1123,1142,1161,1183,1203,1223,1242,1262,1281,1301,1322,1342,1363,1382,1401,1422,1442,1462,1482,1502,1522,1542,1563,1582,1601,1622],"xSR":741.5,"ySR":469.95,"xT1":424.9,"yT1":0,"xT2":1058.1,"yT2":0,"toosoon":0,"cond_shown":"randomdotsizeEA","ratio_trial":500,"smaller_num":"6","larger_num":"12","correct_side":1,"subjID":"Dylansantiagolozano16","gender":"0","age":"9","school":"4"},{"start_time":1552327935324,"click_time":1552327936893,"finger_time":1552327936354,"fix_duration":250,"trial":3,"RT":1030,"MT":539,"sideResp":2,"stimulus":"img/750/equaldotsize/L/10_Ratio_750_L_4_R_3.png","xmouse":[749,749,749,749,749,749,749,749,749,749,749,749,749,749,749,749,749,749,749,749,749,749,749,749,749,749,749,749,749,749,749,749,749,749,749,749,749,749,749,749,749,749,749,751,760,769,771,774,788,808,840,880,984,998,1004,1006,1007,1020,1033,1057,1090,1134,1179,1231,1231,1231,1231,1231,1231,1231,1231,1231,1231,1231,1185,1174,1167,1160,1158],"ymouse":[506,506,506,506,506,506,506,506,506,506,506,506,506,506,506,506,506,506,506,506,506,506,506,506,506,506,506,506,506,506,506,506,506,506,506,506,506,506,506,506,506,506,506,506,506,505,504,504,498,492,484,470,424,417,412,408,402,370,342,302,253,193,132,20,20,20,20,20,20,20,20,20,20,20,10,37,50,60,61],"timestamp_mouse":[10,28,48,69,89,110,129,148,168,188,209,229,249,269,289,309,330,348,368,390,409,429,449,469,489,509,529,549,569,589,609,629,649,669,688,709,729,750,770,789,809,830,849,870,889,910,930,949,968,989,1009,1030,1049,1070,1088,1110,1130,1150,1168,1188,1208,1228,1249,1269,1289,1310,1329,1350,1369,1389,1409,1428,1450,1468,1489,1509,1530,1550,1569],"xSR":741.5,"ySR":469.95,"xT1":424.9,"yT1":0,"xT2":1058.1,"yT2":0,"toosoon":0,"cond_shown":"equaldotsize","ratio_trial":750,"smaller_num":"3","larger_num":"4","correct_side":1,"subjID":"Dylansantiagolozano16","gender":"0","age":"9","school":"4"},{"start_time":1552327939326,"click_time":1552327940512,"finger_time":1552327940173,"fix_duration":1372.2428298222626,"trial":4,"RT":847,"MT":339,"sideResp":2,"stimulus":"img/500/equaldotsize/R/9_Ratio_500_L_2_R_4.png","xmouse":[796,796,796,796,796,796,796,796,796,796,796,796,796,796,796,796,796,796,796,796,796,796,796,796,796,796,796,796,796,796,796,796,796,796,796,796,796,796,796,796,796,795,794,783,776,776,776,776,801,852,909,955,1029,1042,1051,1057,1058,1058,1058,1060],"ymouse":[539,539,539,539,539,539,539,539,539,539,539,539,539,539,539,539,539,539,539,539,539,539,539,539,539,539,539,539,539,539,539,539,539,539,539,539,539,534,512,494,481,473,465,415,398,394,394,390,375,351,328,306,251,235,215,192,172,133,111,95],"timestamp_mouse":[8,26,47,67,88,108,127,148,168,188,206,228,248,268,286,307,327,346,368,388,407,428,448,466,486,507,528,548,567,588,607,627,648,668,687,708,727,747,766,787,807,827,847,868,886,907,926,947,967,987,1007,1027,1047,1067,1086,1107,1127,1148,1167,1186],"xSR":741.5,"ySR":469.95,"xT1":424.9,"yT1":0,"xT2":1058.1,"yT2":0,"toosoon":0,"cond_shown":"equaldotsize","ratio_trial":500,"smaller_num":"2","larger_num":"4","correct_side":2,"subjID":"Dylansantiagolozano16","gender":"0","age":"9","school":"4"},{"start_time":1552327942531,"click_time":1552327943492,"finger_time":1552327943192,"fix_duration":1297.2779519649987,"trial":5,"RT":661,"MT":300,"sideResp":2,"stimulus":"img/500/equaldotanddens/R/12_Ratio_500_L_1_R_2.png","xmouse":[785,785,785,785,785,785,785,785,785,785,785,785,785,785,785,785,785,785,785,785,785,785,785,785,785,785,785,785,785,790,796,817,823,849,850,850,850,850,851,857,870,892,974,1076,1085,1088,1092,1092,1095],"ymouse":[539,539,539,539,539,539,539,539,539,539,539,539,539,539,539,539,539,539,539,539,539,539,539,539,539,539,539,539,539,531,523,494,484,448,444,442,442,442,440,430,412,387,317,238,223,207,189,168,99],"timestamp_mouse":[3,21,43,62,83,101,122,143,163,181,203,222,242,262,283,301,322,341,362,382,403,422,441,463,482,503,523,543,562,582,602,623,642,661,681,701,721,743,761,782,802,821,843,863,881,902,922,941,961],"xSR":741.5,"ySR":469.95,"xT1":424.9,"yT1":0,"xT2":1058.1,"yT2":0,"toosoon":0,"cond_shown":"equaldotanddens","ratio_trial":500,"smaller_num":"1","larger_num":"2","correct_side":2,"subjID":"Dylansantiagolozano16","gender":"0","age":"9","school":"4"},{"start_time":1552327945742,"click_time":1552327947393,"finger_time":1552327946492,"fix_duration":1428.2632055104018,"trial":6,"RT":750,"MT":901,"sideResp":1,"stimulus":"img/750/randomdotsizeEA/L/6_Ratio_750_L_24_R_18.png","xmouse":[777,777,777,777,777,777,777,777,777,777,777,777,777,777,777,777,777,777,777,777,777,777,777,777,777,777,777,777,777,777,777,777,777,777,777,778,787,873,933,1016,1037,1066,1091,1092,1091,1088,1085,1068,1040,984,944,898,732,684,653,630,613,613,612,605,598,590,577,586,603,631,650,658,658,657,654,639,582,575,570,568,564,562,560,556,552,546,513],"ymouse":[531,531,531,531,531,531,531,531,531,531,531,531,531,531,531,531,531,531,531,531,531,531,531,531,531,531,531,531,531,531,531,531,531,531,531,525,516,452,410,344,325,291,235,225,221,218,217,217,217,217,215,212,210,214,219,225,229,229,229,216,199,178,130,113,89,59,36,18,16,14,14,18,42,43,46,46,48,49,50,52,54,55,60],"timestamp_mouse":[11,32,51,72,92,112,132,151,171,192,211,231,251,270,291,311,331,351,372,392,412,430,450,472,492,512,531,551,570,592,611,631,651,671,690,710,731,750,772,790,811,831,851,870,892,911,930,950,971,990,1011,1031,1052,1070,1090,1111,1132,1151,1171,1191,1211,1231,1251,1270,1291,1311,1331,1350,1370,1390,1412,1431,1452,1470,1491,1510,1531,1551,1571,1591,1610,1631,1651],"xSR":741.5,"ySR":469.95,"xT1":424.9,"yT1":0,"xT2":1058.1,"yT2":0,"toosoon":0,"cond_shown":"randomdotsizeEA","ratio_trial":750,"smaller_num":"18","larger_num":"24","correct_side":1,"subjID":"Dylansantiagolozano16","gender":"0","age":"9","school":"4"},{"start_time":1552327950783,"click_time":1552327951735,"finger_time":1552327951575,"fix_duration":250,"trial":7,"RT":792,"MT":160,"sideResp":2,"stimulus":"img/900/randomdotsizeEA/R/3_Ratio_900_L_9_R_10.png","xmouse":[811,811,811,811,811,811,811,811,811,811,811,811,811,811,811,811,811,811,811,811,811,811,811,811,811,811,811,811,811,811,811,811,811,811,811,811,811,811,810,807,799,799,816,855,947,991,1038,1097],"ymouse":[538,538,538,538,538,538,538,538,538,538,538,538,538,538,538,538,538,538,538,538,538,538,538,538,538,538,538,538,538,538,538,538,538,538,538,532,518,502,481,458,394,363,318,265,185,153,121,85],"timestamp_mouse":[10,29,51,70,90,110,129,150,171,190,213,233,253,273,293,312,332,353,373,393,412,433,452,473,491,512,533,553,572,592,613,631,652,673,692,712,732,752,771,792,812,832,853,872,892,912,932,952],"xSR":741.5,"ySR":469.95,"xT1":424.9,"yT1":0,"xT2":1058.1,"yT2":0,"toosoon":0,"cond_shown":"randomdotsizeEA","ratio_trial":900,"smaller_num":"9","larger_num":"10","correct_side":2,"subjID":"Dylansantiagolozano16","gender":"0","age":"9","school":"4"},{"start_time":1552327954494,"click_time":1552327955656,"finger_time":1552327955215,"fix_duration":1479.0288000988958,"trial":8,"RT":721,"MT":441,"sideResp":1,"stimulus":"img/250/randomdotsizeEA/L/14_Ratio_250_L_12_R_3.png","xmouse":[769,769,769,769,769,769,769,769,769,769,769,769,769,769,769,769,769,769,769,769,769,769,769,769,769,770,771,771,771,771,771,771,771,772,770,764,757,742,722,693,635,615,600,599,602,620,620,620,613,585,575,572,572,572,572,564,551,536,522],"ymouse":[489,489,489,489,489,489,489,489,489,489,489,489,489,489,489,489,489,489,489,489,489,489,489,489,489,490,490,490,490,490,490,490,490,490,484,477,469,449,422,378,282,221,165,137,115,83,77,71,65,57,57,57,57,57,57,57,57,55,53],"timestamp_mouse":[4,21,41,62,81,101,121,141,162,180,201,222,242,262,281,301,321,342,361,381,401,421,442,461,480,502,521,541,560,582,601,622,642,661,681,701,721,741,761,782,801,821,841,861,881,901,921,940,961,982,1001,1020,1041,1061,1080,1101,1120,1141,1162],"xSR":741.5,"ySR":469.95,"xT1":424.9,"yT1":0,"xT2":1058.1,"yT2":0,"toosoon":0,"cond_shown":"randomdotsizeEA","ratio_trial":250,"smaller_num":"3","larger_num":"12","correct_side":1,"subjID":"Dylansantiagolozano16","gender":"0","age":"9","school":"4"},{"start_time":1552327957037,"click_time":1552327957995,"finger_time":1552327957695,"fix_duration":500.6474625355529,"trial":9,"RT":658,"MT":300,"sideResp":2,"stimulus":"img/900/equaldotanddens/R/12_Ratio_900_L_18_R_20.png","xmouse":[775,775,775,775,775,775,775,775,775,775,775,775,775,775,775,775,775,775,775,775,775,775,775,775,775,775,775,775,775,775,775,784,818,856,914,976,1030,1094,1103,1106,1108,1109,1109,1109,1107,1106,1104,1101],"ymouse":[497,497,497,497,497,497,497,497,497,497,497,497,497,497,497,497,497,497,497,497,497,497,497,497,497,497,497,497,497,497,497,493,464,430,386,345,312,265,249,236,224,194,175,159,146,133,121,87],"timestamp_mouse":[19,38,59,77,98,118,139,159,178,198,218,238,258,278,299,319,338,358,379,399,419,438,459,479,498,518,539,557,579,599,618,638,658,678,699,718,738,758,778,797,817,839,858,878,897,918,938,958],"xSR":741.5,"ySR":469.95,"xT1":424.9,"yT1":0,"xT2":1058.1,"yT2":0,"toosoon":0,"cond_shown":"equaldotanddens","ratio_trial":900,"smaller_num":"18","larger_num":"20","correct_side":2,"subjID":"Dylansantiagolozano16","gender":"0","age":"9","school":"4"},{"start_time":1552327960010,"click_time":1552327961176,"finger_time":1552327960694,"fix_duration":1053.9345332210312,"trial":10,"RT":684,"MT":482,"sideResp":1,"stimulus":"img/900/equaldotsize/R/5_Ratio_900_L_9_R_10.png","xmouse":[811,811,811,811,811,811,811,811,811,811,811,811,811,811,811,811,811,811,811,811,811,811,810,810,810,810,810,810,810,808,806,805,804,801,798,793,789,786,783,761,730,703,679,655,649,646,646,646,646,646,646,646,646,646,646,646,646,646,489],"ymouse":[479,479,479,479,479,479,479,479,479,479,479,480,482,483,483,484,484,484,484,484,484,484,484,484,484,484,484,484,484,484,482,480,478,475,469,459,445,419,366,204,144,93,53,12,3,1,1,1,1,1,1,1,1,1,1,1,1,1,10],"timestamp_mouse":[5,25,45,64,85,106,126,145,165,186,204,226,245,265,284,305,325,345,365,386,404,426,445,465,485,505,525,546,566,585,605,625,646,665,684,705,725,745,765,786,805,825,844,865,885,906,925,945,965,985,1005,1025,1045,1066,1085,1106,1125,1146,1166],"xSR":741.5,"ySR":469.95,"xT1":424.9,"yT1":0,"xT2":1058.1,"yT2":0,"toosoon":0,"cond_shown":"equaldotsize","ratio_trial":900,"smaller_num":"9","larger_num":"10","correct_side":2,"subjID":"Dylansantiagolozano16","gender":"0","age":"9","school":"4"},{"start_time":1552327962401,"click_time":1552327963535,"finger_time":1552327963155,"fix_duration":365.642102985915,"trial":11,"RT":754,"MT":380,"sideResp":2,"stimulus":"img/750/randomdotsizeEA/L/1_Ratio_750_L_20_R_15.png","xmouse":[803,803,803,803,803,803,803,803,803,803,803,803,803,803,803,803,803,803,803,803,803,803,803,803,803,803,803,803,803,803,803,803,803,803,803,803,810,844,855,930,949,966,984,1027,1050,1070,1084,1092,1097,1098,1098,1101,1107,1120,1126,1129,1132],"ymouse":[507,507,507,507,507,507,507,507,507,507,507,507,507,507,507,507,507,507,507,507,507,507,507,507,507,507,507,507,507,507,507,507,507,507,507,503,494,453,434,301,265,240,220,188,178,170,162,156,151,148,147,144,138,122,112,101,93],"timestamp_mouse":[16,34,55,75,95,114,134,155,173,195,215,234,254,275,295,314,334,355,375,395,414,435,455,474,494,514,534,555,574,593,614,635,655,674,693,715,735,754,774,794,814,834,855,875,894,914,934,955,973,994,1013,1035,1054,1075,1094,1115,1134],"xSR":741.5,"ySR":469.95,"xT1":424.9,"yT1":0,"xT2":1058.1,"yT2":0,"toosoon":0,"cond_shown":"randomdotsizeEA","ratio_trial":750,"smaller_num":"15","larger_num":"20","correct_side":1,"subjID":"Dylansantiagolozano16","gender":"0","age":"9","school":"4"},{"start_time":1552327964751,"click_time":1552327966135,"finger_time":1552327965675,"fix_duration":275.4316870533209,"trial":12,"RT":924,"MT":460,"sideResp":1,"stimulus":"img/500/equaldotanddens/L/13_Ratio_500_L_12_R_6.png","xmouse":[752,752,752,752,752,752,752,752,752,752,752,752,752,752,752,752,752,752,752,752,752,752,752,752,752,752,752,752,752,752,752,752,752,752,752,752,752,752,752,752,752,756,778,791,798,802,808,810,815,816,816,814,759,730,700,676,649,636,625,610,594,582,569,567,567,566,564,554,542,524],"ymouse":[512,512,512,512,512,512,512,512,512,512,512,512,512,512,512,512,512,512,512,512,512,512,512,512,512,512,512,512,512,512,512,512,512,512,512,512,512,512,512,512,512,512,501,490,480,471,445,428,397,368,339,307,214,183,158,141,116,101,86,68,52,40,23,22,21,21,21,20,20,20],"timestamp_mouse":[4,25,44,65,84,105,125,145,163,185,205,225,245,265,285,304,325,344,363,385,405,424,445,465,483,504,524,545,565,584,605,625,645,664,684,704,724,745,765,783,805,824,845,863,885,904,924,944,964,984,1003,1024,1045,1063,1085,1104,1125,1144,1164,1184,1204,1224,1245,1265,1284,1304,1324,1344,1365,1384],"xSR":741.5,"ySR":469.95,"xT1":424.9,"yT1":0,"xT2":1058.1,"yT2":0,"toosoon":0,"cond_shown":"equaldotanddens","ratio_trial":500,"smaller_num":"6","larger_num":"12","correct_side":1,"subjID":"Dylansantiagolozano16","gender":"0","age":"9","school":"4"},{"start_time":1552327968536,"click_time":1552327969576,"finger_time":1552327969294,"fix_duration":1440.7866405146112,"trial":13,"RT":758,"MT":282,"sideResp":1,"stimulus":"img/250/equaldotsize/L/5_Ratio_250_L_24_R_6.png","xmouse":[774,774,774,774,774,774,774,774,774,774,774,774,774,774,774,774,774,774,774,774,774,774,774,774,774,774,774,774,774,774,774,774,774,774,776,778,782,784,770,751,733,717,703,699,693,684,672,630,605,577,547,466],"ymouse":[497,497,497,497,497,497,497,497,497,497,497,497,497,497,497,497,497,497,497,497,497,497,497,497,497,497,497,497,497,497,497,497,497,497,493,486,472,411,354,299,247,211,161,148,138,128,120,98,84,69,52,6],"timestamp_mouse":[19,38,60,79,99,119,139,159,179,200,219,240,260,280,299,319,340,360,379,398,420,440,459,480,499,520,540,559,580,600,620,640,660,678,699,719,739,758,780,800,820,839,859,878,898,919,940,958,980,1000,1020,1040],"xSR":741.5,"ySR":469.95,"xT1":424.9,"yT1":0,"xT2":1058.1,"yT2":0,"toosoon":0,"cond_shown":"equaldotsize","ratio_trial":250,"smaller_num":"6","larger_num":"24","correct_side":1,"subjID":"Dylansantiagolozano16","gender":"0","age":"9","school":"4"},{"start_time":1552327971218,"click_time":1552327972355,"finger_time":1552327971875,"fix_duration":522.0765201281603,"trial":14,"RT":657,"MT":480,"sideResp":2,"stimulus":"img/900/equaldotanddens/L/2_Ratio_900_L_20_R_18.png","xmouse":[760,760,760,760,760,760,760,760,760,760,760,760,760,760,760,760,760,760,760,760,760,760,760,760,760,760,760,760,760,760,760,760,762,765,771,780,792,805,837,852,866,881,919,935,952,964,976,985,1009,1016,1022,1028,1034,1051,1055,1057,1059],"ymouse":[474,474,474,474,474,474,474,474,474,474,474,474,474,474,474,474,474,474,474,474,474,474,474,474,474,474,474,474,474,474,473,473,469,464,455,442,423,399,349,334,321,308,283,272,257,244,226,212,173,160,147,131,117,89,81,76,73],"timestamp_mouse":[17,38,57,77,97,117,137,157,177,197,217,237,257,278,296,317,337,357,378,397,417,437,458,478,498,517,538,557,577,597,618,636,657,677,698,717,737,757,778,797,818,837,858,877,896,918,938,957,977,996,1017,1037,1057,1076,1097,1117,1137],"xSR":741.5,"ySR":469.95,"xT1":424.9,"yT1":0,"xT2":1058.1,"yT2":0,"toosoon":0,"cond_shown":"equaldotanddens","ratio_trial":900,"smaller_num":"18","larger_num":"20","correct_side":1,"subjID":"Dylansantiagolozano16","gender":"0","age":"9","school":"4"},{"start_time":1552327973821,"click_time":1552327974815,"finger_time":1552327974515,"fix_duration":645.43904563507,"trial":15,"RT":694,"MT":300,"sideResp":2,"stimulus":"img/900/randomdotsizeEA/R/7_Ratio_900_L_9_R_10.png","xmouse":[766,766,766,766,766,766,766,766,766,766,766,766,766,766,766,766,766,766,766,766,766,766,766,766,766,766,766,766,766,766,769,773,787,795,801,808,811,817,838,855,878,902,938,959,977,1001,1027,1050,1058,1063],"ymouse":[523,523,523,523,523,523,523,523,523,523,523,523,523,523,523,523,523,523,523,523,523,523,523,523,523,523,523,523,523,523,518,512,490,480,468,456,451,440,391,352,298,258,203,181,164,146,124,105,94,84],"timestamp_mouse":[14,34,55,75,93,115,135,154,174,195,215,235,254,273,294,314,334,354,374,394,414,434,454,474,495,515,534,554,574,594,614,634,654,673,694,715,734,754,774,793,815,834,855,874,894,914,934,955,974,993],"xSR":741.5,"ySR":469.95,"xT1":424.9,"yT1":0,"xT2":1058.1,"yT2":0,"toosoon":0,"cond_shown":"randomdotsizeEA","ratio_trial":900,"smaller_num":"9","larger_num":"10","correct_side":2,"subjID":"Dylansantiagolozano16","gender":"0","age":"9","school":"4"},{"start_time":1552327976527,"click_time":1552327978155,"finger_time":1552327977355,"fix_duration":250,"trial":16,"RT":828,"MT":800,"sideResp":1,"stimulus":"img/750/randomdotsizeEA/L/9_Ratio_750_L_4_R_3.png","xmouse":[786,786,786,786,786,786,786,786,786,786,786,786,786,786,786,786,786,786,786,786,786,786,786,786,786,786,786,786,786,786,786,786,786,786,786,786,786,786,786,789,796,820,870,897,922,942,959,987,994,997,999,1001,1004,1004,1005,1005,1005,995,988,977,965,948,911,854,830,809,787,749,735,725,713,697,690,668,663,661,656,625,604,579,555,520],"ymouse":[495,495,495,495,495,495,495,495,495,495,495,495,495,495,495,495,495,495,495,495,495,495,495,495,495,495,495,495,495,495,495,495,495,495,495,495,495,495,495,488,481,453,402,372,341,313,288,250,238,229,222,211,183,172,164,156,150,139,135,132,129,127,122,117,112,106,99,86,80,74,66,56,52,38,35,34,34,34,34,37,41,46],"timestamp_mouse":[8,28,49,69,89,108,129,149,169,188,209,229,249,268,288,307,329,349,368,389,408,427,449,469,489,509,529,549,569,589,608,631,647,668,688,708,728,749,769,787,808,828,849,868,889,908,928,948,968,988,1008,1029,1048,1068,1087,1108,1128,1149,1168,1189,1208,1228,1249,1267,1287,1309,1328,1348,1368,1389,1408,1428,1448,1469,1487,1508,1528,1549,1568,1587,1608,1628],"xSR":741.5,"ySR":469.95,"xT1":424.9,"yT1":0,"xT2":1058.1,"yT2":0,"toosoon":0,"cond_shown":"randomdotsizeEA","ratio_trial":750,"smaller_num":"3","larger_num":"4","correct_side":1,"subjID":"Dylansantiagolozano16","gender":"0","age":"9","school":"4"},{"start_time":1552327979564,"click_time":1552327980576,"finger_time":1552327980175,"fix_duration":307.73473195468705,"trial":17,"RT":611,"MT":401,"sideResp":1,"stimulus":"img/500/equaldotanddens/L/11_Ratio_500_L_12_R_6.png","xmouse":[778,778,778,778,778,778,778,778,778,778,778,778,778,778,778,778,778,778,778,778,778,778,778,778,778,778,778,777,774,772,769,761,758,754,750,740,711,694,682,670,658,633,630,626,624,622,619,613,601,585,524],"ymouse":[507,507,507,507,507,507,507,507,507,507,507,507,507,507,507,507,507,507,507,507,507,507,507,507,507,507,507,501,488,478,453,406,382,357,335,305,230,192,163,139,118,78,74,72,71,71,71,71,71,71,71],"timestamp_mouse":[11,32,53,71,91,111,132,152,172,190,211,232,251,272,292,311,331,351,372,391,411,432,451,470,492,512,530,551,571,592,611,631,650,671,691,712,730,751,771,791,811,832,851,871,891,911,930,951,970,992,1012],"xSR":741.5,"ySR":469.95,"xT1":424.9,"yT1":0,"xT2":1058.1,"yT2":0,"toosoon":0,"cond_shown":"equaldotanddens","ratio_trial":500,"smaller_num":"6","larger_num":"12","correct_side":1,"subjID":"Dylansantiagolozano16","gender":"0","age":"9","school":"4"},{"start_time":1552327982257,"click_time":1552327983134,"finger_time":1552327982694,"fix_duration":562.0789679018386,"trial":18,"RT":437,"MT":440,"sideResp":1,"stimulus":"img/250/equaldotsize/L/7_Ratio_250_L_8_R_2.png","xmouse":[764,764,764,764,764,764,764,764,764,764,764,764,764,766,767,767,771,773,776,779,784,797,803,807,808,795,746,712,684,652,615,602,594,588,580,572,565,565,564,563,561,555,545,517],"ymouse":[505,505,505,505,505,505,505,505,505,505,505,505,505,506,505,504,499,497,494,489,480,451,430,403,368,312,232,192,163,137,103,89,80,74,65,56,53,53,53,53,52,52,54,59],"timestamp_mouse":[19,39,57,79,97,118,138,158,178,198,217,238,259,277,298,318,339,357,378,398,418,437,458,477,498,519,539,557,579,598,619,638,659,678,699,718,738,757,779,798,818,837,859,877],"xSR":741.5,"ySR":469.95,"xT1":424.9,"yT1":0,"xT2":1058.1,"yT2":0,"toosoon":0,"cond_shown":"equaldotsize","ratio_trial":250,"smaller_num":"2","larger_num":"8","correct_side":1,"subjID":"Dylansantiagolozano16","gender":"0","age":"9","school":"4"},{"start_time":1552327984586,"click_time":1552327985576,"finger_time":1552327985075,"fix_duration":250,"trial":19,"RT":489,"MT":501,"sideResp":1,"stimulus":"img/500/equaldotanddens/L/7_Ratio_500_L_10_R_5.png","xmouse":[763,763,763,763,763,763,763,763,763,763,763,763,763,763,763,763,763,763,763,763,763,763,765,768,773,780,783,785,786,787,787,786,778,756,682,645,614,588,568,543,541,541,541,541,538,538,536,534,532,521],"ymouse":[478,478,478,478,478,478,478,478,478,478,478,478,478,478,478,478,478,478,478,478,478,479,477,471,461,445,432,419,406,363,340,322,295,251,154,115,90,72,58,39,38,38,38,38,37,37,37,37,37,38],"timestamp_mouse":[10,29,49,69,88,109,130,150,168,189,209,229,250,268,289,309,330,348,369,390,410,428,449,469,489,508,529,548,570,589,610,628,649,670,690,709,730,749,770,790,810,830,849,869,890,909,930,949,970,989],"xSR":741.5,"ySR":469.95,"xT1":424.9,"yT1":0,"xT2":1058.1,"yT2":0,"toosoon":0,"cond_shown":"equaldotanddens","ratio_trial":500,"smaller_num":"5","larger_num":"10","correct_side":1,"subjID":"Dylansantiagolozano16","gender":"0","age":"9","school":"4"},{"start_time":1552327987247,"click_time":1552327987935,"finger_time":1552327987694,"fix_duration":250,"trial":20,"RT":447,"MT":241,"sideResp":1,"stimulus":"img/250/equaldotanddens/L/1_Ratio_250_L_8_R_2.png","xmouse":[789,789,789,789,789,789,789,789,789,789,789,789,789,789,789,789,789,789,789,789,789,789,786,784,782,779,766,712,696,675,648,614,548,526,509],"ymouse":[512,512,512,512,512,512,512,512,512,512,512,512,512,512,512,512,512,512,512,506,501,486,459,446,430,407,369,274,247,215,179,145,105,97,88],"timestamp_mouse":[8,29,48,69,89,108,128,149,168,189,209,228,248,269,288,308,328,349,367,389,408,428,447,468,489,508,528,549,567,589,608,628,647,669,688],"xSR":741.5,"ySR":469.95,"xT1":424.9,"yT1":0,"xT2":1058.1,"yT2":0,"toosoon":0,"cond_shown":"equaldotanddens","ratio_trial":250,"smaller_num":"2","larger_num":"8","correct_side":1,"subjID":"Dylansantiagolozano16","gender":"0","age":"9","school":"4"},{"start_time":1552327989636,"click_time":1552327991175,"finger_time":1552327990094,"fix_duration":720.9756976039996,"trial":21,"RT":458,"MT":1081,"sideResp":2,"stimulus":"img/250/randomdotsizeEA/R/9_Ratio_250_L_3_R_12.png","xmouse":[784,784,784,784,784,784,784,784,784,784,784,784,784,784,784,784,784,784,784,785,786,787,787,787,787,787,787,787,787,787,787,797,811,830,852,872,889,914,920,926,931,946,956,967,984,1008,1058,1120,1145,1165,1180,1196,1200,1203,1205,1207,1207,1208,1208,1208,1208,1208,1208,1208,1208,1208,1208,1208,1208,1206,1201,1197,1196,1194,1188,1175,1153],"ymouse":[493,493,493,493,493,493,493,493,493,493,493,493,493,493,493,493,493,493,492,488,483,474,469,463,457,451,437,432,427,423,420,408,399,390,381,372,364,339,326,313,296,256,235,218,201,184,154,124,113,101,89,74,68,62,57,50,49,42,40,40,40,40,40,40,40,40,40,40,40,39,39,41,41,44,48,56,64],"timestamp_mouse":[19,42,60,79,99,120,139,160,180,199,220,240,259,279,299,320,339,360,379,400,419,439,458,480,499,519,540,559,579,600,619,640,659,680,699,720,739,760,779,799,819,840,859,880,899,920,939,960,978,999,1019,1040,1059,1079,1099,1120,1139,1159,1178,1200,1219,1240,1259,1279,1299,1319,1340,1359,1380,1399,1419,1439,1459,1479,1499,1519,1539],"xSR":741.5,"ySR":469.95,"xT1":424.9,"yT1":0,"xT2":1058.1,"yT2":0,"toosoon":0,"cond_shown":"randomdotsizeEA","ratio_trial":250,"smaller_num":"3","larger_num":"12","correct_side":2,"subjID":"Dylansantiagolozano16","gender":"0","age":"9","school":"4"},{"start_time":1552327996093,"click_time":1552327997334,"finger_time":1552327996694,"fix_duration":1016.3160830576496,"trial":22,"RT":601,"MT":640,"sideResp":2,"stimulus":"img/750/equaldotsize/L/14_Ratio_750_L_8_R_6.png","xmouse":[750,750,750,750,750,750,750,750,750,750,750,750,750,750,750,750,750,750,750,750,750,750,750,750,750,750,750,750,750,754,758,765,770,772,774,779,789,806,835,872,965,1004,1041,1071,1134,1158,1177,1190,1193,1193,1193,1193,1193,1193,1193,1193,1193,1191,1188,1182,1175,1166,1150],"ymouse":[538,538,538,538,538,538,538,538,538,538,538,538,538,538,538,538,538,538,538,538,538,538,538,538,538,538,533,529,521,490,468,450,436,431,425,415,399,377,345,306,232,201,180,166,139,129,120,114,112,112,112,112,112,112,112,112,111,109,106,99,96,89,79],"timestamp_mouse":[3,23,43,63,82,102,123,142,163,182,202,222,243,261,283,302,322,342,363,382,402,422,441,462,483,502,521,543,562,582,601,622,642,662,683,703,722,743,762,783,801,823,842,862,883,902,921,942,962,983,1002,1023,1041,1063,1082,1102,1121,1142,1162,1183,1202,1222,1241],"xSR":741.5,"ySR":469.95,"xT1":424.9,"yT1":0,"xT2":1058.1,"yT2":0,"toosoon":0,"cond_shown":"equaldotsize","ratio_trial":750,"smaller_num":"6","larger_num":"8","correct_side":1,"subjID":"Dylansantiagolozano16","gender":"0","age":"9","school":"4"},{"start_time":1552327998626,"click_time":1552327999675,"finger_time":1552327999395,"fix_duration":250,"trial":23,"RT":769,"MT":280,"sideResp":2,"stimulus":"img/500/equaldotanddens/R/3_Ratio_500_L_10_R_20.png","xmouse":[805,805,805,805,805,805,805,805,805,805,805,805,805,805,805,805,805,805,805,805,805,805,805,805,805,805,805,805,805,805,805,805,805,805,805,805,805,805,846,890,920,939,969,984,995,1005,1013,1035,1046,1057,1065,1071,1076],"ymouse":[502,502,502,502,502,502,502,502,502,502,502,502,502,502,502,502,502,502,502,502,502,502,502,502,502,502,502,502,502,502,502,502,502,502,502,502,502,502,451,393,360,342,300,279,263,248,232,181,163,144,128,113,93],"timestamp_mouse":[9,31,50,68,89,110,129,150,169,190,209,229,250,270,289,309,329,350,369,389,410,429,449,470,490,510,530,549,570,590,609,630,650,670,688,710,730,748,769,789,809,829,850,869,890,909,930,950,970,988,1010,1029,1049],"xSR":741.5,"ySR":469.95,"xT1":424.9,"yT1":0,"xT2":1058.1,"yT2":0,"toosoon":0,"cond_shown":"equaldotanddens","ratio_trial":500,"smaller_num":"10","larger_num":"20","correct_side":2,"subjID":"Dylansantiagolozano16","gender":"0","age":"9","school":"4"},{"start_time":1552328000907,"click_time":1552328001796,"finger_time":1552328001575,"fix_duration":250,"trial":24,"RT":668,"MT":221,"sideResp":2,"stimulus":"img/900/equaldotanddens/R/9_Ratio_900_L_18_R_20.png","xmouse":[824,824,824,824,824,824,824,824,824,824,824,824,824,824,824,824,824,824,824,824,824,824,824,824,824,824,824,824,824,824,824,829,834,848,918,969,1016,1048,1058,1063,1065,1067,1069,1070,1071],"ymouse":[503,503,503,503,503,503,503,503,503,503,503,503,503,503,503,503,503,503,503,503,503,503,503,503,503,503,503,503,503,503,503,496,489,473,394,332,276,232,206,176,161,149,137,126,94],"timestamp_mouse":[8,28,49,69,88,109,127,149,169,189,209,229,247,268,289,308,329,347,368,388,408,428,448,468,487,508,529,548,569,589,607,629,649,668,689,707,729,748,768,788,808,828,848,868,889],"xSR":741.5,"ySR":469.95,"xT1":424.9,"yT1":0,"xT2":1058.1,"yT2":0,"toosoon":0,"cond_shown":"equaldotanddens","ratio_trial":900,"smaller_num":"18","larger_num":"20","correct_side":2,"subjID":"Dylansantiagolozano16","gender":"0","age":"9","school":"4"},{"start_time":1552328003999,"click_time":1552328005076,"finger_time":1552328004694,"fix_duration":1322.4892415382471,"trial":25,"RT":695,"MT":382,"sideResp":2,"stimulus":"img/500/equaldotsize/R/3_Ratio_500_L_10_R_20.png","xmouse":[808,808,808,808,808,808,808,808,808,808,808,808,808,808,808,808,808,808,808,808,808,808,808,808,808,808,808,808,808,808,808,808,807,807,807,807,815,829,848,886,901,919,939,954,976,978,979,979,982,1004,1020,1039,1055,1065],"ymouse":[499,499,499,499,499,499,499,499,499,499,499,499,499,499,499,499,499,499,499,499,499,499,499,499,499,499,499,499,499,499,499,499,500,480,461,445,423,397,370,315,286,247,213,192,165,160,158,157,154,126,110,95,82,69],"timestamp_mouse":[17,36,56,77,96,116,137,156,177,197,216,237,257,275,297,316,337,356,377,397,416,436,457,477,497,516,536,556,576,596,617,637,655,676,695,716,736,756,776,796,815,835,856,877,895,917,935,956,976,996,1015,1036,1056,1077],"xSR":741.5,"ySR":469.95,"xT1":424.9,"yT1":0,"xT2":1058.1,"yT2":0,"toosoon":0,"cond_shown":"equaldotsize","ratio_trial":500,"smaller_num":"10","larger_num":"20","correct_side":2,"subjID":"Dylansantiagolozano16","gender":"0","age":"9","school":"4"},{"start_time":1552328007098,"click_time":1552328008136,"finger_time":1552328007816,"fix_duration":883.7748853581214,"trial":26,"RT":718,"MT":320,"sideResp":2,"stimulus":"img/250/randomdotsizeEA/R/13_Ratio_250_L_2_R_8.png","xmouse":[764,764,764,764,764,764,764,764,764,764,764,764,764,764,764,764,764,764,764,764,764,764,764,764,764,764,764,764,764,764,764,764,764,764,761,758,754,752,752,771,782,799,863,994,1041,1068,1090,1106,1122,1142,1149,1157],"ymouse":[498,498,498,498,498,498,498,498,498,498,498,498,498,498,498,498,498,498,498,498,498,498,498,498,498,498,498,498,498,498,498,498,498,498,481,459,436,409,379,335,323,306,276,225,204,187,171,158,144,117,101,82],"timestamp_mouse":[17,37,58,77,97,117,138,158,178,197,218,238,256,278,297,317,337,358,378,396,418,437,458,478,496,518,538,557,578,596,617,638,656,676,698,718,737,757,777,797,818,837,857,878,898,917,937,957,978,996,1017,1037],"xSR":741.5,"ySR":469.95,"xT1":424.9,"yT1":0,"xT2":1058.1,"yT2":0,"toosoon":0,"cond_shown":"randomdotsizeEA","ratio_trial":250,"smaller_num":"2","larger_num":"8","correct_side":2,"subjID":"Dylansantiagolozano16","gender":"0","age":"9","school":"4"},{"start_time":1552328010324,"click_time":1552328011257,"finger_time":1552328011057,"fix_duration":887.6142875140188,"trial":27,"RT":733,"MT":200,"sideResp":2,"stimulus":"img/900/equaldotsize/R/9_Ratio_900_L_18_R_20.png","xmouse":[772,772,772,772,772,772,772,772,772,772,772,772,772,772,772,772,772,772,772,772,772,772,772,772,772,772,772,772,772,772,772,772,772,772,772,772,773,798,819,842,871,906,957,1023,1042,1054,1062],"ymouse":[486,486,486,486,486,486,486,486,486,486,486,486,486,486,486,486,486,486,486,486,486,486,486,486,486,486,486,486,486,486,486,486,486,486,486,479,462,394,357,303,245,193,126,64,46,35,29],"timestamp_mouse":[11,31,52,71,91,111,132,151,171,191,211,232,250,272,291,312,331,351,372,392,411,431,451,472,492,510,532,552,571,592,610,632,652,674,693,714,733,753,773,793,813,832,853,874,893,913,933],"xSR":741.5,"ySR":469.95,"xT1":424.9,"yT1":0,"xT2":1058.1,"yT2":0,"toosoon":0,"cond_shown":"equaldotsize","ratio_trial":900,"smaller_num":"18","larger_num":"20","correct_side":2,"subjID":"Dylansantiagolozano16","gender":"0","age":"9","school":"4"},{"start_time":1552328013557,"click_time":1552328014257,"finger_time":1552328014117,"fix_duration":1080.6785927470326,"trial":28,"RT":560,"MT":140,"sideResp":2,"stimulus":"img/900/equaldotsize/R/14_Ratio_900_L_18_R_20.png","xmouse":[775,775,775,775,775,775,775,775,775,775,775,775,775,775,775,775,775,775,775,775,775,775,775,775,775,792,830,872,907,936,1011,1047,1089,1125,1144],"ymouse":[530,530,530,530,530,530,530,530,530,530,530,530,530,530,530,530,530,530,530,530,530,530,530,530,530,516,485,452,421,391,281,225,157,103,73],"timestamp_mouse":[20,41,60,81,100,120,140,161,179,200,220,241,259,281,301,320,339,361,381,400,419,439,461,481,501,520,541,560,580,599,620,640,660,680,700],"xSR":741.5,"ySR":469.95,"xT1":424.9,"yT1":0,"xT2":1058.1,"yT2":0,"toosoon":0,"cond_shown":"equaldotsize","ratio_trial":900,"smaller_num":"18","larger_num":"20","correct_side":2,"subjID":"Dylansantiagolozano16","gender":"0","age":"9","school":"4"},{"start_time":1552328016700,"click_time":1552328017697,"finger_time":1552328017477,"fix_duration":1221.5425368029596,"trial":29,"RT":777,"MT":220,"sideResp":2,"stimulus":"img/900/randomdotsizeEA/R/11_Ratio_900_L_18_R_20.png","xmouse":[776,776,776,776,776,776,776,776,776,776,776,776,776,776,776,776,776,776,776,776,776,776,776,776,776,776,776,776,776,776,776,776,776,776,776,776,776,779,811,851,895,941,990,1066,1073,1075,1075,1075,1076,1083],"ymouse":[489,489,489,489,489,489,489,489,489,489,489,489,489,489,489,489,489,489,489,489,489,489,489,489,489,489,489,489,489,489,489,489,489,489,489,489,489,486,465,438,395,346,280,145,128,121,119,117,115,98],"timestamp_mouse":[17,38,57,77,97,118,138,158,176,198,218,238,258,277,296,317,338,357,377,397,418,438,457,478,497,517,538,558,577,598,617,638,658,677,697,718,736,757,777,797,817,837,857,877,897,917,938,958,977,997],"xSR":741.5,"ySR":469.95,"xT1":424.9,"yT1":0,"xT2":1058.1,"yT2":0,"toosoon":0,"cond_shown":"randomdotsizeEA","ratio_trial":900,"smaller_num":"18","larger_num":"20","correct_side":2,"subjID":"Dylansantiagolozano16","gender":"0","age":"9","school":"4"},{"start_time":1552328019657,"click_time":1552328020957,"finger_time":1552328020457,"fix_duration":619.031668888873,"trial":30,"RT":800,"MT":500,"sideResp":1,"stimulus":"img/750/equaldotsize/L/6_Ratio_750_L_24_R_18.png","xmouse":[792,792,792,792,792,792,792,792,792,792,792,792,792,792,792,792,792,792,792,792,792,792,792,792,792,792,792,792,792,793,793,793,793,793,794,794,794,794,794,794,794,798,798,798,783,758,682,659,648,641,634,612,602,592,587,586,586,586,584,584,580,564,553,542,532,522],"ymouse":[490,490,490,490,490,490,490,490,490,490,490,490,490,490,490,490,490,490,490,490,490,490,490,490,490,490,490,490,490,490,490,490,488,487,487,487,487,485,481,475,464,449,405,379,336,284,144,107,87,73,59,30,18,8,3,3,3,3,3,3,3,6,11,16,22,27],"timestamp_mouse":[1,23,39,61,79,101,120,141,159,181,201,219,239,261,280,300,320,340,361,381,400,421,441,461,480,501,520,540,561,581,601,619,639,661,681,700,720,740,760,781,800,821,840,860,880,901,920,939,961,980,1000,1020,1040,1060,1080,1100,1120,1140,1159,1180,1200,1221,1240,1259,1280,1300],"xSR":741.5,"ySR":469.95,"xT1":424.9,"yT1":0,"xT2":1058.1,"yT2":0,"toosoon":0,"cond_shown":"equaldotsize","ratio_trial":750,"smaller_num":"18","larger_num":"24","correct_side":1,"subjID":"Dylansantiagolozano16","gender":"0","age":"9","school":"4"},{"start_time":1552328022766,"click_time":1552328023497,"finger_time":1552328023398,"fix_duration":848.1949854981538,"trial":31,"RT":632,"MT":99,"sideResp":2,"stimulus":"img/750/equaldotsize/R/4_Ratio_750_L_15_R_20.png","xmouse":[777,777,777,777,777,777,777,777,777,777,777,777,777,777,777,777,777,777,777,777,777,777,777,777,777,777,777,777,779,781,791,838,903,980,1034,1064,1074],"ymouse":[499,499,499,499,499,499,499,499,499,499,499,499,499,499,499,499,499,499,499,499,499,499,499,499,499,499,499,499,497,493,479,426,355,252,166,114,92],"timestamp_mouse":[12,31,52,71,91,110,132,152,171,192,211,232,251,272,291,312,332,350,372,392,411,431,451,471,492,510,532,552,570,592,611,632,651,670,691,712,731],"xSR":741.5,"ySR":469.95,"xT1":424.9,"yT1":0,"xT2":1058.1,"yT2":0,"toosoon":0,"cond_shown":"equaldotsize","ratio_trial":750,"smaller_num":"15","larger_num":"20","correct_side":2,"subjID":"Dylansantiagolozano16","gender":"0","age":"9","school":"4"},{"start_time":1552328026181,"click_time":1552328027257,"finger_time":1552328026758,"fix_duration":1482.8419120476053,"trial":32,"RT":577,"MT":499,"sideResp":1,"stimulus":"img/500/randomdotsizeEA/L/10_Ratio_500_L_4_R_2.png","xmouse":[822,822,822,822,822,822,822,822,822,822,822,822,822,822,822,822,822,822,822,822,822,820,819,819,818,816,816,816,812,810,800,795,790,779,766,740,727,713,696,680,644,642,636,632,629,625,620,610,598,578,519,500,491,488],"ymouse":[485,485,485,485,485,485,485,485,485,485,485,485,485,485,485,485,485,485,485,485,485,484,483,482,481,477,475,472,461,454,409,393,380,362,346,314,301,286,268,251,211,208,199,195,188,184,178,170,162,150,116,106,100,99],"timestamp_mouse":[16,36,56,77,95,116,136,156,175,196,217,235,256,276,297,316,336,356,377,396,415,435,456,476,496,516,536,556,577,596,616,636,656,676,697,716,736,755,776,796,817,837,857,876,897,916,935,956,976,996,1016,1036,1057,1076],"xSR":741.5,"ySR":469.95,"xT1":424.9,"yT1":0,"xT2":1058.1,"yT2":0,"toosoon":0,"cond_shown":"randomdotsizeEA","ratio_trial":500,"smaller_num":"2","larger_num":"4","correct_side":1,"subjID":"Dylansantiagolozano16","gender":"0","age":"9","school":"4"},{"start_time":1552328029983,"click_time":1552328030978,"finger_time":1552328030637,"fix_duration":1445.5156815633754,"trial":33,"RT":654,"MT":341,"sideResp":2,"stimulus":"img/900/equaldotanddens/R/5_Ratio_900_L_9_R_10.png","xmouse":[770,770,770,770,770,770,770,770,770,770,770,770,770,770,770,770,770,770,770,770,770,770,770,770,770,770,770,770,770,771,772,773,774,776,788,801,819,845,873,914,967,983,997,1018,1069,1088,1096,1102,1109,1134],"ymouse":[487,487,487,487,487,487,487,487,487,487,487,487,487,487,487,487,487,487,487,487,487,487,487,487,487,487,487,487,486,484,476,471,464,457,435,421,401,369,343,297,227,209,195,176,138,127,121,116,110,92],"timestamp_mouse":[15,35,53,73,95,114,133,154,174,195,213,234,255,275,293,314,335,355,373,393,415,435,453,474,495,513,535,554,575,594,615,634,654,673,695,714,734,754,774,794,814,834,854,874,895,914,934,954,973,995],"xSR":741.5,"ySR":469.95,"xT1":424.9,"yT1":0,"xT2":1058.1,"yT2":0,"toosoon":0,"cond_shown":"equaldotanddens","ratio_trial":900,"smaller_num":"9","larger_num":"10","correct_side":2,"subjID":"Dylansantiagolozano16","gender":"0","age":"9","school":"4"},{"start_time":1552328032128,"click_time":1552328033177,"finger_time":1552328032877,"fix_duration":250,"trial":34,"RT":749,"MT":300,"sideResp":2,"stimulus":"img/500/equaldotsize/R/1_Ratio_500_L_9_R_18.png","xmouse":[778,778,778,778,778,778,778,778,778,778,778,778,778,778,778,778,778,778,778,778,778,778,778,778,778,778,778,778,778,778,778,778,778,778,781,787,805,839,924,962,991,1013,1041,1046,1052,1057,1063,1071,1074,1077,1080,1081,1087],"ymouse":[496,496,496,496,496,496,496,496,496,496,496,496,496,496,496,496,496,496,496,496,496,496,496,496,496,496,496,496,496,496,496,496,496,496,496,490,475,452,393,360,333,302,251,231,212,194,178,149,137,125,116,108,93],"timestamp_mouse":[9,29,48,69,89,110,130,149,170,188,210,230,249,269,288,309,329,349,368,389,409,429,449,470,489,510,529,549,568,590,610,630,649,670,688,710,729,749,769,789,809,829,850,869,889,909,929,949,969,989,1009,1030,1049],"xSR":741.5,"ySR":469.95,"xT1":424.9,"yT1":0,"xT2":1058.1,"yT2":0,"toosoon":0,"cond_shown":"equaldotsize","ratio_trial":500,"smaller_num":"9","larger_num":"18","correct_side":2,"subjID":"Dylansantiagolozano16","gender":"0","age":"9","school":"4"},{"start_time":1552328034937,"click_time":1552328035777,"finger_time":1552328035477,"fix_duration":840.6129773542951,"trial":35,"RT":540,"MT":300,"sideResp":1,"stimulus":"img/500/equaldotanddens/L/7_Ratio_500_L_10_R_5.png","xmouse":[754,754,754,754,754,754,754,754,754,754,754,754,754,754,754,754,754,754,754,754,754,754,754,754,754,754,754,752,741,729,718,688,676,663,651,634,598,583,566,549,530,511],"ymouse":[505,505,505,505,505,505,505,505,505,505,505,505,505,505,505,505,505,505,505,505,505,505,505,505,493,485,449,426,398,376,354,283,261,242,225,204,163,152,139,125,109,92],"timestamp_mouse":[20,40,59,81,101,120,139,161,181,201,219,241,260,281,300,320,339,361,381,401,419,439,461,481,500,520,540,560,581,600,620,641,661,680,700,720,741,760,780,799,821,840],"xSR":741.5,"ySR":469.95,"xT1":424.9,"yT1":0,"xT2":1058.1,"yT2":0,"toosoon":0,"cond_shown":"equaldotanddens","ratio_trial":500,"smaller_num":"5","larger_num":"10","correct_side":1,"subjID":"Dylansantiagolozano16","gender":"0","age":"9","school":"4"},{"start_time":1552328037862,"click_time":1552328038757,"finger_time":1552328038377,"fix_duration":1264.304345951593,"trial":36,"RT":515,"MT":380,"sideResp":1,"stimulus":"img/900/equaldotanddens/L/2_Ratio_900_L_20_R_18.png","xmouse":[833,833,833,833,833,833,833,833,833,833,833,833,833,833,833,833,833,833,833,833,833,833,833,833,835,845,850,855,857,858,858,846,834,821,806,786,711,671,640,617,583,566,547,529,511],"ymouse":[498,498,498,498,498,498,498,498,498,498,498,498,498,498,498,498,498,498,498,498,498,498,498,498,496,468,454,438,427,417,407,368,349,332,313,291,225,193,174,160,141,131,119,108,97],"timestamp_mouse":[19,35,55,74,94,115,136,156,175,196,216,236,255,275,296,315,335,356,376,394,416,435,456,476,494,515,536,555,575,595,615,635,655,675,695,715,736,755,775,795,816,835,855,875,894],"xSR":741.5,"ySR":469.95,"xT1":424.9,"yT1":0,"xT2":1058.1,"yT2":0,"toosoon":0,"cond_shown":"equaldotanddens","ratio_trial":900,"smaller_num":"18","larger_num":"20","correct_side":1,"subjID":"Dylansantiagolozano16","gender":"0","age":"9","school":"4"},{"start_time":1552328040830,"click_time":1552328041697,"finger_time":1552328041398,"fix_duration":1192.9701402511166,"trial":37,"RT":568,"MT":299,"sideResp":1,"stimulus":"img/500/equaldotanddens/L/8_Ratio_500_L_8_R_4.png","xmouse":[776,776,776,776,776,776,776,776,776,776,776,776,776,776,776,776,776,776,776,776,776,776,776,776,776,768,763,754,716,700,685,673,657,652,648,641,632,623,598,588,577,566,537,517],"ymouse":[507,507,507,507,507,507,507,507,507,507,507,507,507,507,507,507,507,507,507,507,507,507,507,507,507,500,492,479,431,407,382,359,317,296,274,251,223,199,155,141,129,117,94,81],"timestamp_mouse":[7,27,47,66,87,107,128,147,166,186,207,228,246,267,287,307,326,348,367,386,406,427,448,468,487,507,528,547,568,587,607,627,648,667,686,707,728,747,768,787,807,827,847,867],"xSR":741.5,"ySR":469.95,"xT1":424.9,"yT1":0,"xT2":1058.1,"yT2":0,"toosoon":0,"cond_shown":"equaldotanddens","ratio_trial":500,"smaller_num":"4","larger_num":"8","correct_side":1,"subjID":"Dylansantiagolozano16","gender":"0","age":"9","school":"4"},{"start_time":1552328043239,"click_time":1552328044057,"finger_time":1552328043737,"fix_duration":639.9599509814213,"trial":38,"RT":498,"MT":320,"sideResp":2,"stimulus":"img/250/equaldotanddens/R/9_Ratio_250_L_3_R_12.png","xmouse":[788,788,788,788,788,788,788,788,788,788,788,788,788,788,788,788,788,788,788,788,788,789,795,803,814,824,845,881,898,912,927,955,966,976,983,991,1004,1027,1039,1050,1060],"ymouse":[559,559,559,559,559,559,559,559,559,559,559,559,559,559,559,559,558,557,554,552,549,527,502,471,437,404,345,257,223,203,187,166,160,152,147,142,130,112,103,94,87],"timestamp_mouse":[17,37,58,79,97,119,138,158,178,199,219,237,257,278,298,319,337,358,377,398,418,438,458,478,498,519,538,557,578,598,618,639,658,679,698,718,738,757,778,798,818],"xSR":741.5,"ySR":469.95,"xT1":424.9,"yT1":0,"xT2":1058.1,"yT2":0,"toosoon":0,"cond_shown":"equaldotanddens","ratio_trial":250,"smaller_num":"3","larger_num":"12","correct_side":2,"subjID":"Dylansantiagolozano16","gender":"0","age":"9","school":"4"},{"start_time":1552328045398,"click_time":1552328046518,"finger_time":1552328046157,"fix_duration":520.9296929710885,"trial":39,"RT":759,"MT":361,"sideResp":2,"stimulus":"img/500/randomdotsizeEA/R/9_Ratio_500_L_2_R_4.png","xmouse":[776,776,776,776,776,776,776,776,776,776,776,776,776,776,776,776,776,776,776,776,776,776,776,776,776,776,776,776,776,776,776,776,776,776,776,775,775,777,787,812,830,853,891,942,1017,1029,1035,1039,1043,1049,1052,1056,1062,1076,1082,1087],"ymouse":[510,510,510,510,510,510,510,510,510,510,510,510,510,510,510,510,510,510,510,510,510,510,510,510,510,510,510,510,510,510,510,510,510,510,505,496,476,467,450,421,406,386,352,308,243,230,217,206,190,170,161,151,139,115,106,98],"timestamp_mouse":[19,38,58,80,100,120,139,160,179,200,218,238,258,280,300,319,338,359,380,399,419,439,459,480,500,519,538,560,578,599,620,639,659,678,699,719,739,759,779,800,820,839,859,879,899,919,938,959,979,1000,1019,1040,1059,1080,1099,1120],"xSR":741.5,"ySR":469.95,"xT1":424.9,"yT1":0,"xT2":1058.1,"yT2":0,"toosoon":0,"cond_shown":"randomdotsizeEA","ratio_trial":500,"smaller_num":"2","larger_num":"4","correct_side":2,"subjID":"Dylansantiagolozano16","gender":"0","age":"9","school":"4"},{"start_time":1552328047688,"click_time":1552328048557,"finger_time":1552328048197,"fix_duration":250,"trial":40,"RT":509,"MT":360,"sideResp":1,"stimulus":"img/250/equaldotanddens/L/5_Ratio_250_L_24_R_6.png","xmouse":[814,814,814,814,814,814,814,814,814,814,814,814,814,814,814,814,814,814,814,814,814,814,814,814,814,812,800,774,740,685,667,655,644,637,630,606,594,584,575,564,558,550,536,521],"ymouse":[499,499,499,499,499,499,499,499,499,499,499,499,499,499,499,499,499,499,499,499,499,499,499,499,490,442,393,327,270,186,164,148,134,124,113,89,82,77,73,71,70,70,69,68],"timestamp_mouse":[10,28,50,68,89,108,130,150,169,189,209,229,249,270,289,309,329,349,369,389,409,429,449,469,488,509,529,548,569,590,609,629,649,668,689,709,729,750,769,789,809,830,849,869],"xSR":741.5,"ySR":469.95,"xT1":424.9,"yT1":0,"xT2":1058.1,"yT2":0,"toosoon":0,"cond_shown":"equaldotanddens","ratio_trial":250,"smaller_num":"6","larger_num":"24","correct_side":1,"subjID":"Dylansantiagolozano16","gender":"0","age":"9","school":"4"},{"start_time":1552328050109,"click_time":1552328051217,"finger_time":1552328050716,"fix_duration":250,"trial":41,"RT":607,"MT":501,"sideResp":2,"stimulus":"img/500/randomdotsizeEA/R/6_Ratio_500_L_9_R_18.png","xmouse":[779,779,779,779,779,779,779,779,779,779,779,779,779,779,779,779,779,779,779,779,779,779,779,779,779,779,779,779,779,779,791,798,817,843,899,921,943,968,1010,1023,1031,1035,1038,1041,1047,1048,1049,1050,1053,1055,1055,1056,1057,1057,1058,1062],"ymouse":[471,471,471,471,471,471,471,471,471,471,471,471,471,471,471,471,471,471,471,471,471,471,471,471,471,471,471,471,471,471,458,449,433,410,362,338,315,292,241,214,189,171,155,138,123,116,112,108,97,94,92,91,90,89,88,85],"timestamp_mouse":[10,28,48,68,87,109,129,149,168,187,209,229,249,267,287,308,328,348,367,389,408,428,448,468,488,508,529,547,568,589,607,628,648,668,689,708,729,748,769,788,807,828,848,868,889,908,929,948,969,988,1008,1029,1049,1068,1088,1108],"xSR":741.5,"ySR":469.95,"xT1":424.9,"yT1":0,"xT2":1058.1,"yT2":0,"toosoon":0,"cond_shown":"randomdotsizeEA","ratio_trial":500,"smaller_num":"9","larger_num":"18","correct_side":2,"subjID":"Dylansantiagolozano16","gender":"0","age":"9","school":"4"},{"start_time":1552328053205,"click_time":1552328053997,"finger_time":1552328053717,"fix_duration":1186.9073111067726,"trial":42,"RT":512,"MT":280,"sideResp":2,"stimulus":"img/750/equaldotanddens/R/11_Ratio_750_L_12_R_16.png","xmouse":[813,813,813,813,813,813,813,813,813,813,813,813,813,813,813,813,813,813,813,813,813,813,816,828,841,861,892,929,961,1011,1023,1030,1037,1050,1055,1060,1064,1067,1071,1092],"ymouse":[531,531,531,531,531,531,531,531,531,531,531,531,531,531,531,531,531,531,531,531,531,531,523,506,491,471,443,406,372,300,279,263,242,200,182,165,151,140,128,84],"timestamp_mouse":[12,32,53,72,91,112,131,153,172,191,213,233,252,271,293,312,332,353,372,391,413,432,452,472,491,512,532,552,572,592,612,632,652,672,692,711,732,753,772,792],"xSR":741.5,"ySR":469.95,"xT1":424.9,"yT1":0,"xT2":1058.1,"yT2":0,"toosoon":0,"cond_shown":"equaldotanddens","ratio_trial":750,"smaller_num":"12","larger_num":"16","correct_side":2,"subjID":"Dylansantiagolozano16","gender":"0","age":"9","school":"4"},{"start_time":1552328055108,"click_time":1552328056737,"finger_time":1552328055636,"fix_duration":250,"trial":43,"RT":528,"MT":1101,"sideResp":2,"stimulus":"img/900/equaldotsize/R/7_Ratio_900_L_9_R_10.png","xmouse":[806,806,806,806,806,806,806,806,806,806,806,806,806,806,806,806,806,806,806,806,806,806,806,806,806,809,823,842,875,891,904,921,933,943,963,973,983,992,1013,1021,1031,1034,1038,1040,1041,1041,1041,1041,1041,1041,1041,1041,1041,1041,1049,1053,1053,1053,1053,1053,1054,1054,1055,1055,1055,1048,1038,1025,999,994,993,993,993,993,992,992,992,1003,1078,1121,1144,1153],"ymouse":[491,491,491,491,491,491,491,491,491,491,491,491,491,491,491,491,491,491,491,491,491,491,491,491,491,482,463,440,400,377,353,321,295,264,197,173,151,130,85,72,59,50,45,41,39,39,39,39,39,39,39,39,39,39,43,45,46,46,46,46,47,47,53,56,76,88,100,115,140,147,149,150,150,150,151,151,151,151,132,114,103,94],"timestamp_mouse":[9,29,48,70,90,109,130,149,168,190,210,228,249,270,290,309,328,348,370,389,410,428,450,470,490,509,528,549,570,589,609,629,649,669,688,709,729,749,770,789,808,829,849,868,890,908,929,948,970,989,1010,1030,1048,1069,1089,1109,1130,1150,1169,1189,1208,1229,1249,1269,1289,1309,1329,1349,1370,1389,1410,1430,1449,1469,1489,1509,1529,1549,1570,1589,1609,1629],"xSR":741.5,"ySR":469.95,"xT1":424.9,"yT1":0,"xT2":1058.1,"yT2":0,"toosoon":0,"cond_shown":"equaldotsize","ratio_trial":900,"smaller_num":"9","larger_num":"10","correct_side":2,"subjID":"Dylansantiagolozano16","gender":"0","age":"9","school":"4"},{"start_time":1552328060135,"click_time":1552328061197,"finger_time":1552328060757,"fix_duration":1117.985142055166,"trial":44,"RT":622,"MT":440,"sideResp":2,"stimulus":"img/500/equaldotanddens/R/14_Ratio_500_L_5_R_10.png","xmouse":[768,768,768,768,768,768,768,768,768,768,768,769,769,769,770,770,770,770,770,770,770,770,770,770,770,770,771,775,789,809,831,857,874,899,905,914,922,933,941,949,955,960,972,980,989,1002,1018,1048,1060,1069,1077,1091,1095,1114],"ymouse":[536,536,536,536,536,536,536,536,536,536,536,535,534,533,532,532,532,532,532,532,532,532,532,532,532,532,532,527,516,501,482,454,435,387,369,347,327,287,272,260,252,244,227,218,209,200,189,168,158,148,137,119,113,82],"timestamp_mouse":[3,21,41,62,83,101,123,143,162,181,203,223,242,262,282,301,321,343,363,382,401,422,443,463,483,503,521,542,562,583,602,622,642,662,682,702,722,742,761,783,802,823,842,861,882,902,922,943,962,983,1002,1023,1042,1062],"xSR":741.5,"ySR":469.95,"xT1":424.9,"yT1":0,"xT2":1058.1,"yT2":0,"toosoon":0,"cond_shown":"equaldotanddens","ratio_trial":500,"smaller_num":"5","larger_num":"10","correct_side":2,"subjID":"Dylansantiagolozano16","gender":"0","age":"9","school":"4"},{"start_time":1552328063959,"click_time":1552328064937,"finger_time":1552328064497,"fix_duration":1320.8670440287037,"trial":45,"RT":538,"MT":440,"sideResp":2,"stimulus":"img/500/randomdotsizeEA/R/2_Ratio_500_L_3_R_6.png","xmouse":[788,788,788,788,788,788,788,788,788,788,788,788,788,788,788,788,788,788,788,788,788,788,788,788,790,791,794,794,795,795,796,796,796,796,797,799,804,811,822,842,877,1027,1056,1071,1085,1100,1100,1099,1086],"ymouse":[483,483,483,483,483,483,483,483,483,483,483,483,483,483,483,483,483,483,483,483,483,483,482,478,474,470,465,464,464,463,459,456,456,455,451,442,435,424,412,397,375,288,264,247,228,183,158,122,64],"timestamp_mouse":[21,39,59,79,97,119,138,159,179,197,219,239,257,279,299,319,338,357,378,398,419,439,457,477,498,518,538,558,578,598,618,638,658,678,698,719,738,759,778,798,818,838,858,879,898,919,938,958,978],"xSR":741.5,"ySR":469.95,"xT1":424.9,"yT1":0,"xT2":1058.1,"yT2":0,"toosoon":0,"cond_shown":"randomdotsizeEA","ratio_trial":500,"smaller_num":"3","larger_num":"6","correct_side":2,"subjID":"Dylansantiagolozano16","gender":"0","age":"9","school":"4"},{"start_time":1552328066736,"click_time":1552328067797,"finger_time":1552328067377,"fix_duration":677.4555753754933,"trial":46,"RT":641,"MT":420,"sideResp":1,"stimulus":"img/900/equaldotsize/L/1_Ratio_900_L_10_R_9.png","xmouse":[787,787,787,787,787,787,787,787,787,787,787,787,787,787,787,787,787,787,787,787,787,787,787,787,787,787,787,787,787,787,787,788,790,792,788,780,770,746,733,722,714,707,680,665,646,627,613,579,572,565,557,550,542,519],"ymouse":[479,479,479,479,479,479,479,479,479,479,479,479,479,479,479,479,479,479,479,479,479,479,479,479,479,479,479,479,479,479,479,477,464,431,410,389,368,324,302,278,261,246,198,178,156,132,118,92,86,81,78,74,73,69],"timestamp_mouse":[3,20,40,61,82,102,121,141,162,182,201,221,242,261,282,300,321,342,362,381,400,421,440,462,481,502,522,541,561,582,601,621,641,661,681,701,721,742,761,782,801,821,841,861,882,902,921,942,961,982,1000,1021,1041,1061],"xSR":741.5,"ySR":469.95,"xT1":424.9,"yT1":0,"xT2":1058.1,"yT2":0,"toosoon":0,"cond_shown":"equaldotsize","ratio_trial":900,"smaller_num":"9","larger_num":"10","correct_side":1,"subjID":"Dylansantiagolozano16","gender":"0","age":"9","school":"4"},{"start_time":1552328069464,"click_time":1552328070417,"finger_time":1552328070097,"fix_duration":686.2077544921577,"trial":47,"RT":633,"MT":320,"sideResp":2,"stimulus":"img/750/equaldotanddens/R/2_Ratio_750_L_6_R_8.png","xmouse":[780,780,780,780,780,780,780,780,780,780,780,780,780,780,780,780,780,780,780,780,780,780,780,780,780,780,780,780,780,784,789,821,839,859,881,901,934,945,955,963,972,992,1003,1014,1025,1051,1056,1060],"ymouse":[491,491,491,491,491,491,491,491,491,491,491,491,491,491,491,491,491,491,491,491,491,491,491,491,491,491,491,491,491,489,479,440,419,395,373,351,305,285,263,241,218,173,155,137,123,91,85,79],"timestamp_mouse":[13,34,53,73,93,114,134,154,173,193,212,234,254,272,292,314,333,354,374,394,413,433,453,473,492,514,534,553,573,593,614,633,653,673,692,712,733,753,773,793,812,833,853,873,893,914,934,953],"xSR":741.5,"ySR":469.95,"xT1":424.9,"yT1":0,"xT2":1058.1,"yT2":0,"toosoon":0,"cond_shown":"equaldotanddens","ratio_trial":750,"smaller_num":"6","larger_num":"8","correct_side":2,"subjID":"Dylansantiagolozano16","gender":"0","age":"9","school":"4"},{"start_time":1552328071869,"click_time":1552328072579,"finger_time":1552328072418,"fix_duration":530.1007681850838,"trial":48,"RT":549,"MT":161,"sideResp":2,"stimulus":"img/250/equaldotanddens/R/6_Ratio_250_L_6_R_24.png","xmouse":[761,761,761,761,761,761,761,761,761,761,761,761,761,761,761,761,761,761,761,761,761,761,761,761,761,763,779,810,841,865,914,946,987,1032,1073,1116],"ymouse":[494,494,494,494,494,494,494,494,494,494,494,494,494,494,494,494,494,494,494,494,494,494,494,494,494,494,477,453,430,408,333,275,222,161,113,71],"timestamp_mouse":[9,30,50,69,89,108,130,148,170,189,210,230,249,270,290,309,330,349,370,389,410,430,449,469,489,509,530,549,569,589,610,629,650,669,689,710],"xSR":741.5,"ySR":469.95,"xT1":424.9,"yT1":0,"xT2":1058.1,"yT2":0,"toosoon":0,"cond_shown":"equaldotanddens","ratio_trial":250,"smaller_num":"6","larger_num":"24","correct_side":2,"subjID":"Dylansantiagolozano16","gender":"0","age":"9","school":"4"},{"start_time":1552328075623,"click_time":1552328076638,"finger_time":1552328076058,"fix_duration":1443.288060752487,"trial":49,"RT":435,"MT":580,"sideResp":1,"stimulus":"img/750/randomdotsizeEA/R/5_Ratio_750_L_15_R_20.png","xmouse":[813,813,813,813,813,813,813,813,813,813,813,813,813,813,813,813,813,813,813,813,813,812,810,809,808,807,807,807,807,807,807,807,802,800,798,794,788,763,725,705,686,671,646,640,633,628,615,610,574,543,504],"ymouse":[471,471,471,471,471,471,471,471,471,471,471,471,471,471,471,471,471,471,471,471,471,466,462,458,455,453,452,452,452,452,450,447,427,414,404,394,380,347,309,287,271,254,228,220,213,209,194,188,145,108,65],"timestamp_mouse":[15,35,55,75,96,115,136,155,176,195,216,236,255,275,295,315,335,355,375,395,416,435,455,475,495,515,536,555,575,595,615,635,655,675,695,715,734,756,776,795,816,835,856,875,894,915,936,955,975,995,1015],"xSR":741.5,"ySR":469.95,"xT1":424.9,"yT1":0,"xT2":1058.1,"yT2":0,"toosoon":0,"cond_shown":"randomdotsizeEA","ratio_trial":750,"smaller_num":"15","larger_num":"20","correct_side":2,"subjID":"Dylansantiagolozano16","gender":"0","age":"9","school":"4"},{"start_time":1552328079205,"click_time":1552328080118,"finger_time":1552328079759,"fix_duration":1026.6841671470509,"trial":50,"RT":554,"MT":359,"sideResp":2,"stimulus":"img/500/equaldotanddens/R/14_Ratio_500_L_5_R_10.png","xmouse":[803,803,803,803,803,803,803,803,803,803,803,803,803,803,803,803,803,803,803,803,803,803,803,803,803,805,819,893,918,978,988,995,1000,1006,1008,1010,1014,1023,1045,1076,1085,1091,1094,1096,1111,1120],"ymouse":[502,502,502,502,502,502,502,502,502,502,502,502,502,502,502,502,502,502,502,502,502,502,502,502,502,498,484,424,406,354,338,326,312,279,264,245,225,204,170,139,132,128,124,120,102,92],"timestamp_mouse":[13,34,54,73,94,113,134,153,174,194,214,234,253,273,294,314,333,353,374,394,413,433,453,474,494,513,533,554,573,593,613,633,653,674,693,714,733,754,774,792,813,833,853,873,893,913],"xSR":741.5,"ySR":469.95,"xT1":424.9,"yT1":0,"xT2":1058.1,"yT2":0,"toosoon":0,"cond_shown":"equaldotanddens","ratio_trial":500,"smaller_num":"5","larger_num":"10","correct_side":2,"subjID":"Dylansantiagolozano16","gender":"0","age":"9","school":"4"},{"start_time":1552328082490,"click_time":1552328084799,"finger_time":1552328083178,"fix_duration":1450.5357175774,"trial":51,"RT":688,"MT":1621,"sideResp":2,"stimulus":"img/750/equaldotanddens/R/2_Ratio_750_L_6_R_8.png","xmouse":[791,791,791,791,791,791,791,791,791,791,791,791,791,791,791,791,791,791,791,791,791,791,791,791,791,791,791,791,791,791,791,791,799,823,836,887,901,910,916,923,925,926,926,926,926,928,929,934,939,953,958,961,963,964,965,965,965,963,949,863,789,711,640,588,562,540,539,538,535,511,493,481,473,472,471,471,471,471,473,474,474,474,474,474,474,474,474,475,476,479,493,504,521,541,561,599,605,611,617,651,686,735,793,839,902,907,908,911,917,948,968,985,1000,1015,1032,1084],"ymouse":[513,513,513,513,513,513,513,513,513,513,513,513,513,513,513,513,513,513,513,513,513,513,513,513,513,513,513,513,513,513,513,513,502,474,463,407,390,375,360,326,309,288,272,255,249,223,211,202,191,173,168,164,160,158,156,154,152,147,141,126,124,124,124,125,128,134,134,135,136,136,136,133,131,130,126,122,116,109,105,104,104,104,104,104,104,104,104,107,113,122,146,158,169,176,183,189,189,189,189,186,180,172,164,158,142,140,139,137,134,123,116,112,106,99,91,75],"timestamp_mouse":[10,28,49,69,88,107,128,148,169,188,208,228,249,269,288,308,329,347,368,388,408,428,449,469,489,509,529,548,568,588,607,629,648,669,688,709,728,749,768,788,808,828,848,868,888,909,928,947,968,989,1008,1029,1048,1069,1089,1108,1128,1148,1168,1189,1208,1228,1248,1268,1288,1309,1328,1348,1368,1389,1408,1428,1448,1468,1489,1509,1528,1549,1568,1588,1608,1629,1649,1668,1689,1708,1728,1749,1768,1789,1808,1829,1848,1869,1888,1908,1928,1948,1968,1988,2008,2028,2048,2068,2089,2108,2128,2149,2168,2189,2208,2228,2248,2268,2288,2309],"xSR":741.5,"ySR":469.95,"xT1":424.9,"yT1":0,"xT2":1058.1,"yT2":0,"toosoon":0,"cond_shown":"equaldotanddens","ratio_trial":750,"smaller_num":"6","larger_num":"8","correct_side":2,"subjID":"Dylansantiagolozano16","gender":"0","age":"9","school":"4"},{"start_time":1552328085953,"click_time":1552328086978,"finger_time":1552328086558,"fix_duration":353.398095513348,"trial":52,"RT":605,"MT":420,"sideResp":1,"stimulus":"img/900/randomdotsizeEA/R/11_Ratio_900_L_18_R_20.png","xmouse":[783,783,783,783,783,783,783,783,783,783,783,783,783,783,783,783,783,783,783,783,783,783,783,783,783,783,783,793,814,840,875,909,916,916,916,916,894,858,820,778,738,690,656,648,644,638,628,588,567,548,533,523],"ymouse":[520,520,520,520,520,520,520,520,520,520,520,520,520,520,520,520,520,520,520,520,520,520,520,520,520,520,520,512,498,476,438,395,381,379,379,378,361,345,328,304,282,254,231,225,218,205,177,108,83,65,54,48],"timestamp_mouse":[6,26,45,64,85,105,125,145,165,186,206,225,246,266,285,305,325,345,365,385,406,425,445,465,486,505,524,545,565,585,605,625,645,665,685,705,726,745,765,785,805,826,846,865,886,905,925,945,965,985,1006,1025],"xSR":741.5,"ySR":469.95,"xT1":424.9,"yT1":0,"xT2":1058.1,"yT2":0,"toosoon":0,"cond_shown":"randomdotsizeEA","ratio_trial":900,"smaller_num":"18","larger_num":"20","correct_side":2,"subjID":"Dylansantiagolozano16","gender":"0","age":"9","school":"4"},{"start_time":1552328088840,"click_time":1552328089858,"finger_time":1552328089398,"fix_duration":879.3603240993532,"trial":53,"RT":558,"MT":460,"sideResp":2,"stimulus":"img/750/equaldotanddens/R/4_Ratio_750_L_15_R_20.png","xmouse":[778,778,778,778,778,778,778,778,778,778,778,778,778,778,778,778,778,778,778,778,778,778,778,778,778,782,791,865,913,950,974,1025,1051,1082,1117,1144,1159,1165,1166,1168,1172,1188,1197,1205,1213,1216,1216,1216,1216,1216,1153],"ymouse":[511,511,511,511,511,511,511,511,511,511,511,511,511,511,511,511,511,511,511,511,511,511,511,511,511,512,505,460,430,402,377,318,289,258,227,204,191,181,180,177,169,132,109,81,43,6,2,2,2,2,1],"timestamp_mouse":[18,39,58,78,99,117,139,158,178,198,218,238,258,278,298,318,338,358,378,399,418,438,458,478,498,519,538,558,578,599,618,638,658,678,698,718,738,758,778,798,818,839,858,879,898,918,939,958,978,998,1018],"xSR":741.5,"ySR":469.95,"xT1":424.9,"yT1":0,"xT2":1058.1,"yT2":0,"toosoon":0,"cond_shown":"equaldotanddens","ratio_trial":750,"smaller_num":"15","larger_num":"20","correct_side":2,"subjID":"Dylansantiagolozano16","gender":"0","age":"9","school":"4"},{"start_time":1552328091370,"click_time":1552328092998,"finger_time":1552328092178,"fix_duration":250,"trial":54,"RT":808,"MT":820,"sideResp":2,"stimulus":"img/900/equaldotanddens/R/5_Ratio_900_L_9_R_10.png","xmouse":[761,761,761,761,761,761,761,761,761,761,761,761,761,761,761,761,761,761,761,761,761,761,761,761,761,761,761,761,761,761,761,761,761,761,761,761,761,761,761,761,759,742,726,708,684,664,650,648,646,642,640,639,639,639,639,639,639,639,639,639,639,639,639,642,654,698,726,760,791,825,860,959,1001,1037,1070,1088,1096,1097,1097,1100,1112,1118],"ymouse":[482,482,482,482,482,482,482,482,482,482,482,482,482,482,482,482,482,482,482,481,480,480,480,480,480,480,480,480,480,480,480,480,480,480,480,480,480,480,478,475,465,405,365,322,278,241,222,217,212,204,200,197,197,197,196,196,196,196,196,196,196,196,196,196,203,217,221,225,225,224,214,184,171,157,143,135,128,127,126,121,103,92],"timestamp_mouse":[8,28,48,69,89,108,127,148,169,188,209,228,249,267,288,308,328,349,369,388,408,429,449,468,489,509,529,548,569,589,608,629,648,669,687,709,729,748,768,787,808,828,848,868,888,909,928,948,968,988,1008,1029,1048,1068,1088,1109,1128,1148,1167,1189,1209,1228,1248,1268,1288,1309,1328,1348,1368,1388,1408,1429,1449,1469,1488,1508,1528,1548,1568,1589,1608,1628],"xSR":741.5,"ySR":469.95,"xT1":424.9,"yT1":0,"xT2":1058.1,"yT2":0,"toosoon":0,"cond_shown":"equaldotanddens","ratio_trial":900,"smaller_num":"9","larger_num":"10","correct_side":2,"subjID":"Dylansantiagolozano16","gender":"0","age":"9","school":"4"},{"start_time":1552328094477,"click_time":1552328096138,"finger_time":1552328095199,"fix_duration":318.65975704444395,"trial":55,"RT":722,"MT":939,"sideResp":1,"stimulus":"img/900/equaldotsize/L/1_Ratio_900_L_10_R_9.png","xmouse":[828,828,828,828,828,828,828,828,828,828,828,828,828,828,828,828,828,828,828,828,828,825,823,821,820,817,817,817,817,815,815,814,814,814,813,810,781,762,744,711,648,626,606,577,565,533,511,506,501,498,495,492,491,488,487,483,482,482,482,482,482,493,501,504,504,505,510,512,514,515,520,520,520,520,520,520,520,520,520,520,520,514,504,493],"ymouse":[510,510,510,510,510,510,510,510,510,510,510,510,510,510,510,510,510,510,510,510,510,511,511,511,512,512,512,512,512,512,512,513,513,513,513,507,440,406,374,315,244,233,224,207,200,185,175,172,169,167,160,152,144,135,125,112,110,110,110,110,109,103,101,101,101,101,105,110,114,118,125,125,125,125,125,125,125,125,125,126,122,113,103,95],"timestamp_mouse":[4,21,41,61,81,102,122,141,161,181,201,222,242,262,280,301,321,342,361,382,401,421,442,461,481,501,521,542,560,581,600,622,641,661,681,701,722,741,761,781,801,821,842,861,882,901,921,941,961,981,1002,1021,1042,1061,1081,1102,1122,1142,1161,1182,1201,1221,1242,1262,1281,1302,1321,1341,1361,1381,1402,1421,1442,1462,1481,1501,1521,1541,1562,1581,1602,1621,1642,1661],"xSR":741.5,"ySR":469.95,"xT1":424.9,"yT1":0,"xT2":1058.1,"yT2":0,"toosoon":0,"cond_shown":"equaldotsize","ratio_trial":900,"smaller_num":"9","larger_num":"10","correct_side":1,"subjID":"Dylansantiagolozano16","gender":"0","age":"9","school":"4"},{"start_time":1552328098186,"click_time":1552328099319,"finger_time":1552328098999,"fix_duration":848.6476246806719,"trial":56,"RT":813,"MT":320,"sideResp":2,"stimulus":"img/900/equaldotsize/R/11_Ratio_900_L_18_R_20.png","xmouse":[791,791,791,791,791,791,791,791,791,791,791,791,791,791,791,791,791,791,791,791,791,791,791,791,791,791,791,791,791,791,791,791,791,791,791,791,791,791,791,793,812,826,838,851,857,865,868,870,874,886,912,927,942,962,1018,1059,1108],"ymouse":[479,479,479,479,479,479,479,479,479,479,479,479,479,479,479,479,479,479,479,479,479,479,479,479,479,479,479,479,479,479,479,479,479,479,479,479,479,479,479,475,429,405,374,348,326,298,290,283,275,260,236,224,209,193,152,125,94],"timestamp_mouse":[12,32,52,72,92,112,133,153,172,192,212,232,252,273,292,312,332,352,372,392,413,433,452,473,493,512,532,552,573,593,611,633,653,672,691,713,733,752,772,792,813,833,852,872,892,912,932,952,972,992,1012,1032,1052,1072,1093,1112,1133],"xSR":741.5,"ySR":469.95,"xT1":424.9,"yT1":0,"xT2":1058.1,"yT2":0,"toosoon":0,"cond_shown":"equaldotsize","ratio_trial":900,"smaller_num":"18","larger_num":"20","correct_side":2,"subjID":"Dylansantiagolozano16","gender":"0","age":"9","school":"4"},{"start_time":1552328101030,"click_time":1552328102338,"finger_time":1552328101798,"fix_duration":250,"trial":57,"RT":768,"MT":540,"sideResp":2,"stimulus":"img/750/randomdotsizeEA/R/15_Ratio_750_L_9_R_12.png","xmouse":[754,754,754,754,754,754,754,754,754,754,754,754,754,754,754,754,754,754,754,754,754,754,754,754,754,754,754,754,754,754,754,754,754,754,754,754,752,759,802,825,849,864,885,893,902,911,920,938,940,941,941,941,941,941,943,948,953,964,994,1007,1017,1022,1026,1042,1054,1065],"ymouse":[495,495,495,495,495,495,495,495,495,495,495,495,495,495,495,495,495,495,495,495,495,495,495,495,495,495,495,495,495,495,495,495,495,495,495,495,496,487,434,407,374,351,316,299,278,252,226,179,171,168,167,167,166,166,164,158,154,145,125,118,113,110,108,99,92,85],"timestamp_mouse":[7,29,48,69,89,109,128,148,169,189,208,229,249,268,289,309,328,348,369,388,408,429,448,468,488,509,528,548,568,588,609,629,649,668,688,708,729,748,768,788,808,828,848,868,888,908,928,948,969,987,1008,1028,1049,1068,1089,1108,1128,1148,1168,1188,1208,1228,1248,1268,1289,1308],"xSR":741.5,"ySR":469.95,"xT1":424.9,"yT1":0,"xT2":1058.1,"yT2":0,"toosoon":0,"cond_shown":"randomdotsizeEA","ratio_trial":750,"smaller_num":"9","larger_num":"12","correct_side":2,"subjID":"Dylansantiagolozano16","gender":"0","age":"9","school":"4"},{"start_time":1552328104419,"click_time":1552328105478,"finger_time":1552328105119,"fix_duration":340.8443122386765,"trial":58,"RT":700,"MT":359,"sideResp":1,"stimulus":"img/900/randomdotsizeEA/R/14_Ratio_900_L_18_R_20.png","xmouse":[783,783,783,783,783,783,783,783,783,783,783,783,783,783,783,783,783,783,783,783,783,783,783,783,783,783,783,785,787,787,787,787,787,786,783,779,766,742,728,715,700,684,648,627,604,584,564,537,534,531,529,526,519],"ymouse":[528,528,528,528,528,528,528,528,528,528,528,528,528,528,528,528,528,528,528,528,528,528,528,528,528,525,519,511,502,499,496,493,487,470,459,443,415,376,355,339,319,294,245,219,192,173,156,131,126,122,116,108,98],"timestamp_mouse":[22,39,60,79,100,120,140,159,180,199,218,239,260,279,300,320,339,359,379,400,420,440,459,479,499,519,539,559,579,599,619,639,659,679,700,718,739,760,780,799,820,838,859,879,899,919,939,960,980,999,1019,1039,1059],"xSR":741.5,"ySR":469.95,"xT1":424.9,"yT1":0,"xT2":1058.1,"yT2":0,"toosoon":0,"cond_shown":"randomdotsizeEA","ratio_trial":900,"smaller_num":"18","larger_num":"20","correct_side":2,"subjID":"Dylansantiagolozano16","gender":"0","age":"9","school":"4"},{"start_time":1552328107866,"click_time":1552328109679,"finger_time":1552328109118,"fix_duration":1266.9539035047171,"trial":59,"RT":1252,"MT":561,"sideResp":2,"stimulus":"img/750/equaldotsize/R/12_Ratio_750_L_3_R_4.png","xmouse":[798,798,798,798,798,798,798,798,798,798,798,798,798,798,798,798,798,798,798,798,798,798,798,798,798,798,798,798,798,798,798,798,798,798,798,798,798,798,798,798,798,798,798,798,798,798,798,798,798,798,798,798,798,798,798,798,798,798,798,798,800,811,829,850,874,891,920,944,989,1030,1083,1095,1104,1113,1123,1130,1155,1166,1179,1189,1196,1196,1196,1196,1196,1190,1184,1179,1173,1166,1141],"ymouse":[493,493,493,493,493,493,493,493,493,493,493,493,493,493,493,493,493,493,493,493,493,493,493,493,493,493,493,493,493,493,493,493,493,493,493,493,493,493,493,493,493,493,493,493,493,493,493,493,493,493,493,493,493,493,493,493,493,493,493,493,493,476,451,414,374,344,301,288,269,252,228,219,209,197,184,166,111,92,71,54,41,40,40,40,40,41,44,48,55,62,78],"timestamp_mouse":[15,32,53,72,93,112,132,153,173,192,212,232,253,271,292,313,333,352,372,392,412,432,451,473,492,513,532,552,573,593,612,633,652,672,693,712,732,753,771,793,813,833,852,872,892,912,932,953,972,992,1012,1033,1052,1073,1093,1112,1133,1151,1173,1193,1212,1232,1252,1272,1293,1312,1332,1352,1373,1392,1413,1432,1452,1472,1492,1512,1533,1552,1573,1591,1613,1633,1652,1672,1692,1712,1732,1752,1772,1792,1813],"xSR":741.5,"ySR":469.95,"xT1":424.9,"yT1":0,"xT2":1058.1,"yT2":0,"toosoon":0,"cond_shown":"equaldotsize","ratio_trial":750,"smaller_num":"3","larger_num":"4","correct_side":2,"subjID":"Dylansantiagolozano16","gender":"0","age":"9","school":"4"},{"start_time":1552328112277,"click_time":1552328113558,"finger_time":1552328112999,"fix_duration":1238.7487637826216,"trial":60,"RT":722,"MT":559,"sideResp":1,"stimulus":"img/900/equaldotsize/L/10_Ratio_900_L_20_R_18.png","xmouse":[804,804,804,804,804,804,804,804,804,804,804,804,804,804,804,804,804,804,804,804,804,804,804,804,804,804,804,804,804,804,804,804,804,804,800,796,762,738,716,694,675,647,636,630,624,619,607,605,600,595,589,577,568,562,555,550,550,550,550,550,548,544,537,530,521],"ymouse":[486,486,486,486,486,486,486,486,486,486,486,486,486,486,486,486,486,486,486,486,486,486,486,486,486,486,486,486,486,486,486,486,486,486,480,471,427,402,381,363,342,305,288,273,260,247,213,194,177,160,144,114,101,92,85,82,82,82,82,82,82,82,81,81,80],"timestamp_mouse":[3,21,41,61,81,100,122,141,162,181,201,222,241,261,282,301,321,342,361,382,402,421,441,461,481,501,521,541,562,581,601,621,641,661,682,701,722,741,761,781,801,821,841,861,881,901,920,941,961,981,1001,1021,1041,1061,1081,1102,1122,1142,1161,1181,1202,1221,1241,1261,1281],"xSR":741.5,"ySR":469.95,"xT1":424.9,"yT1":0,"xT2":1058.1,"yT2":0,"toosoon":0,"cond_shown":"equaldotsize","ratio_trial":900,"smaller_num":"18","larger_num":"20","correct_side":1,"subjID":"Dylansantiagolozano16","gender":"0","age":"9","school":"4"},{"start_time":1552328117044,"click_time":1552328118258,"finger_time":1552328117778,"fix_duration":765.9045340626272,"trial":61,"RT":734,"MT":480,"sideResp":2,"stimulus":"img/750/equaldotanddens/R/15_Ratio_750_L_9_R_12.png","xmouse":[803,803,803,803,803,803,803,803,803,803,803,803,803,803,803,803,803,803,803,803,803,803,803,803,803,803,803,803,803,803,803,803,803,803,805,811,826,848,862,873,886,900,934,950,964,971,991,1000,1010,1020,1027,1038,1041,1044,1049,1055,1063,1090,1098,1104,1111],"ymouse":[531,531,531,531,531,531,531,531,531,531,531,531,531,531,531,531,531,531,531,531,531,531,531,531,531,531,531,531,531,531,531,531,531,531,524,508,467,409,376,354,333,314,280,266,255,246,219,208,197,188,178,164,161,156,152,146,138,116,109,104,96],"timestamp_mouse":[14,34,55,74,94,115,134,155,175,195,214,233,254,275,294,314,334,355,375,395,415,435,454,474,495,514,535,554,574,595,614,634,654,675,694,714,734,754,774,794,814,834,854,874,894,915,934,954,974,994,1014,1035,1054,1074,1094,1115,1134,1154,1174,1194,1214],"xSR":741.5,"ySR":469.95,"xT1":424.9,"yT1":0,"xT2":1058.1,"yT2":0,"toosoon":0,"cond_shown":"equaldotanddens","ratio_trial":750,"smaller_num":"9","larger_num":"12","correct_side":2,"subjID":"Dylansantiagolozano16","gender":"0","age":"9","school":"4"},{"start_time":1552328121771,"click_time":1552328122879,"finger_time":1552328122498,"fix_duration":1391.4951066982858,"trial":62,"RT":727,"MT":381,"sideResp":2,"stimulus":"img/250/randomdotsizeEA/R/4_Ratio_250_L_3_R_12.png","xmouse":[779,779,779,779,779,779,779,779,779,779,779,779,779,779,779,779,779,779,779,779,779,779,779,779,779,779,779,779,779,779,779,779,779,779,779,783,809,849,900,943,967,991,999,1009,1022,1037,1068,1086,1102,1114,1120,1120,1120,1121,1121,1121],"ymouse":[483,483,483,483,483,483,483,483,483,483,483,483,483,483,483,483,483,483,483,483,483,483,483,483,483,483,483,483,483,483,483,483,483,483,483,483,455,414,371,335,312,277,263,245,229,214,182,161,140,122,107,106,104,103,103,96],"timestamp_mouse":[10,27,48,67,87,107,127,147,168,187,207,228,247,267,286,307,327,347,367,388,407,426,447,468,488,508,527,548,567,588,607,627,647,668,688,707,727,748,767,788,807,827,847,866,887,907,927,948,966,987,1008,1027,1047,1067,1087,1108],"xSR":741.5,"ySR":469.95,"xT1":424.9,"yT1":0,"xT2":1058.1,"yT2":0,"toosoon":0,"cond_shown":"randomdotsizeEA","ratio_trial":250,"smaller_num":"3","larger_num":"12","correct_side":2,"subjID":"Dylansantiagolozano16","gender":"0","age":"9","school":"4"},{"start_time":1552328125191,"click_time":1552328126618,"finger_time":1552328126018,"fix_duration":1432.4855103978452,"trial":63,"RT":827,"MT":600,"sideResp":1,"stimulus":"img/250/randomdotsizeEA/L/1_Ratio_250_L_8_R_2.png","xmouse":[806,806,806,806,806,806,806,806,806,806,806,806,806,806,806,806,806,806,806,806,806,806,806,806,806,806,806,806,806,806,806,806,806,806,806,806,806,806,806,806,793,759,713,662,564,528,491,457,428,400,397,395,394,394,394,395,399,405,410,415,415,415,415,415,415,416,417,417,417,418,422,433],"ymouse":[509,509,509,509,509,509,509,509,509,509,509,509,509,509,509,509,509,509,509,509,509,509,509,509,509,509,509,509,509,509,509,509,509,509,509,509,509,509,509,509,493,439,400,365,302,278,255,235,215,191,186,182,175,165,139,126,114,102,95,87,87,87,87,87,87,87,87,87,87,87,89,94],"timestamp_mouse":[7,27,47,67,87,106,128,147,167,187,207,227,247,268,288,307,327,348,367,387,408,427,448,468,488,508,527,548,568,588,606,628,647,667,687,708,728,748,768,787,808,827,847,867,888,907,928,947,967,987,1008,1027,1047,1067,1088,1107,1128,1147,1167,1187,1207,1227,1247,1267,1287,1307,1327,1348,1367,1387,1408,1427],"xSR":741.5,"ySR":469.95,"xT1":424.9,"yT1":0,"xT2":1058.1,"yT2":0,"toosoon":0,"cond_shown":"randomdotsizeEA","ratio_trial":250,"smaller_num":"2","larger_num":"8","correct_side":1,"subjID":"Dylansantiagolozano16","gender":"0","age":"9","school":"4"},{"start_time":1552328128128,"click_time":1552328129079,"finger_time":1552328128678,"fix_duration":250,"trial":64,"RT":550,"MT":401,"sideResp":2,"stimulus":"img/750/equaldotanddens/R/12_Ratio_750_L_3_R_4.png","xmouse":[821,821,821,821,821,821,821,821,821,821,821,821,821,821,821,821,821,821,821,821,821,821,821,821,821,821,827,847,871,894,911,924,930,942,950,961,977,1003,1013,1020,1025,1026,1035,1047,1059,1071,1083,1096],"ymouse":[512,512,512,512,512,512,512,512,512,512,512,512,512,512,512,512,512,512,512,512,512,512,512,512,512,512,510,494,478,463,450,439,431,398,368,327,290,227,207,195,189,186,169,153,137,121,107,92],"timestamp_mouse":[11,30,50,71,91,111,130,150,170,190,211,231,250,270,291,311,330,350,370,391,411,431,449,471,491,511,529,550,570,590,610,630,650,671,690,711,730,751,770,790,810,831,851,870,889,910,930,951],"xSR":741.5,"ySR":469.95,"xT1":424.9,"yT1":0,"xT2":1058.1,"yT2":0,"toosoon":0,"cond_shown":"equaldotanddens","ratio_trial":750,"smaller_num":"3","larger_num":"4","correct_side":2,"subjID":"Dylansantiagolozano16","gender":"0","age":"9","school":"4"},{"start_time":1552328130309,"click_time":1552328131638,"finger_time":1552328130918,"fix_duration":250,"trial":65,"RT":609,"MT":720,"sideResp":1,"stimulus":"img/750/equaldotsize/L/9_Ratio_750_L_4_R_3.png","xmouse":[811,811,811,811,811,811,811,811,811,811,811,811,811,811,811,811,811,811,811,811,811,811,811,811,811,811,811,811,811,809,804,798,791,785,785,785,784,780,768,723,682,637,594,563,513,503,499,497,497,499,502,511,514,527,530,533,535,536,537,537,535,534,534,534,533,529,524],"ymouse":[501,501,501,501,501,501,501,501,501,501,501,501,501,501,501,501,501,501,501,501,501,501,501,501,501,501,501,501,495,475,454,440,428,419,419,419,417,408,390,346,319,294,275,259,221,205,195,188,175,170,161,145,140,114,107,98,89,82,75,63,60,58,58,58,58,56,55],"timestamp_mouse":[9,30,49,69,89,109,130,149,170,190,209,230,248,270,289,309,330,349,370,390,409,430,449,469,490,509,529,550,570,589,609,629,650,669,689,709,729,749,768,789,809,829,849,869,889,909,930,949,969,989,1010,1029,1049,1069,1090,1109,1129,1149,1169,1190,1209,1229,1250,1269,1290,1309,1329],"xSR":741.5,"ySR":469.95,"xT1":424.9,"yT1":0,"xT2":1058.1,"yT2":0,"toosoon":0,"cond_shown":"equaldotsize","ratio_trial":750,"smaller_num":"3","larger_num":"4","correct_side":1,"subjID":"Dylansantiagolozano16","gender":"0","age":"9","school":"4"},{"start_time":1552328133459,"click_time":1552328134659,"finger_time":1552328134240,"fix_duration":959.3601024494778,"trial":66,"RT":781,"MT":419,"sideResp":2,"stimulus":"img/500/equaldotsize/R/9_Ratio_500_L_2_R_4.png","xmouse":[777,777,777,777,777,777,777,777,777,777,777,777,777,777,777,777,777,777,777,777,777,777,777,777,777,777,777,777,777,777,777,777,777,777,777,777,777,777,790,819,858,939,967,983,993,1000,1021,1030,1038,1044,1051,1059,1061,1063,1064,1065,1072,1075,1077,1080,1083],"ymouse":[508,508,508,508,508,508,508,508,508,508,508,508,508,508,508,508,508,508,508,508,508,508,508,508,508,508,508,508,508,508,508,508,508,508,508,508,508,508,488,457,422,361,341,328,318,307,273,256,237,222,207,174,159,147,137,130,116,111,106,103,97],"timestamp_mouse":[1,24,40,60,80,100,121,140,160,180,201,220,241,260,282,301,321,341,362,381,401,421,441,461,480,500,520,540,561,581,601,620,640,660,680,700,720,740,760,781,801,821,840,861,882,900,921,941,960,981,1000,1020,1040,1060,1080,1100,1121,1141,1160,1180,1200],"xSR":741.5,"ySR":469.95,"xT1":424.9,"yT1":0,"xT2":1058.1,"yT2":0,"toosoon":0,"cond_shown":"equaldotsize","ratio_trial":500,"smaller_num":"2","larger_num":"4","correct_side":2,"subjID":"Dylansantiagolozano16","gender":"0","age":"9","school":"4"},{"start_time":1552328136905,"click_time":1552328137739,"finger_time":1552328137579,"fix_duration":905.8633892308839,"trial":67,"RT":674,"MT":160,"sideResp":1,"stimulus":"img/250/equaldotsize/L/5_Ratio_250_L_24_R_6.png","xmouse":[760,760,760,760,760,760,760,760,760,760,760,760,760,760,760,760,760,760,760,760,760,760,760,760,760,760,760,760,760,761,761,762,763,763,753,738,715,681,646,576,536,501],"ymouse":[516,516,516,516,516,516,516,516,516,516,516,516,516,516,516,516,516,516,516,516,516,516,516,516,516,516,513,512,511,509,508,503,494,468,415,382,338,291,246,159,119,87],"timestamp_mouse":[14,34,54,74,95,114,134,155,174,196,214,234,254,275,295,314,334,354,374,395,414,435,454,474,495,514,534,555,575,594,615,634,655,674,695,714,734,754,775,794,814,834],"xSR":741.5,"ySR":469.95,"xT1":424.9,"yT1":0,"xT2":1058.1,"yT2":0,"toosoon":0,"cond_shown":"equaldotsize","ratio_trial":250,"smaller_num":"6","larger_num":"24","correct_side":1,"subjID":"Dylansantiagolozano16","gender":"0","age":"9","school":"4"},{"start_time":1552328139049,"click_time":1552328140019,"finger_time":1552328139579,"fix_duration":250,"trial":68,"RT":530,"MT":440,"sideResp":2,"stimulus":"img/500/equaldotsize/R/12_Ratio_500_L_1_R_2.png","xmouse":[757,757,757,757,757,757,757,757,757,757,757,757,757,757,757,757,757,757,757,757,757,757,757,757,757,760,895,955,998,1023,1048,1122,1172,1213,1238,1259,1262,1266,1264,1258,1250,1234,1229,1225,1219,1213,1205,1159,1148],"ymouse":[482,482,482,482,482,482,482,482,482,482,482,482,482,482,482,482,482,482,482,482,482,482,482,482,482,482,393,362,344,329,311,254,226,206,193,170,163,137,125,112,100,80,74,70,67,65,62,63,63],"timestamp_mouse":[11,31,51,70,90,110,130,151,170,191,210,230,250,270,291,310,330,351,371,391,411,430,451,470,490,511,530,550,570,590,610,630,650,671,690,711,730,751,770,790,810,831,850,870,890,912,930,951,970],"xSR":741.5,"ySR":469.95,"xT1":424.9,"yT1":0,"xT2":1058.1,"yT2":0,"toosoon":0,"cond_shown":"equaldotsize","ratio_trial":500,"smaller_num":"1","larger_num":"2","correct_side":2,"subjID":"Dylansantiagolozano16","gender":"0","age":"9","school":"4"},{"start_time":1552328141487,"click_time":1552328142480,"finger_time":1552328142139,"fix_duration":645.429238198702,"trial":69,"RT":652,"MT":341,"sideResp