[{"start_time":1552309861045,"click_time":1552309863090,"finger_time":1552309862031,"fix_duration":830.5369965790898,"trial":0,"RT":986,"MT":1059,"sideResp":2,"stimulus":"img/250/randomdotsizeEA/L/2_Ratio_250_L_16_R_4.png","xmouse":[753,753,753,753,753,753,753,753,753,753,753,753,753,753,753,753,753,753,753,753,753,753,753,753,753,753,753,753,753,753,753,753,753,753,753,753,753,753,753,753,753,753,753,753,753,753,753,780,846,917,986,1024,1033,1033,1033,1034,1036,1041,1042,1043,1045,1045,1046,1046,1046,1047,1047,1047,1048,1033,1022,1010,1001,1000,998,997,1003,1104,1166,1227,1275,1295,1308,1309,1313,1327,1389,1497,1520,1532,1533,1533,1527,1519,1519,1519,1519,1519,1519,1519,1519,1101],"ymouse":[534,534,534,534,534,534,534,534,534,534,534,534,534,534,534,534,534,534,534,534,534,534,534,534,534,534,534,534,534,534,534,534,534,534,534,534,534,534,534,534,534,534,534,534,534,534,534,534,546,573,609,642,654,654,654,655,656,659,660,661,661,662,663,663,663,663,663,663,664,674,679,684,686,686,686,682,627,471,396,330,294,285,287,293,293,275,197,71,44,27,23,22,10,5,5,5,5,5,5,5,5,2],"timestamp_mouse":[10,48,66,85,105,125,146,166,186,204,224,245,264,285,306,325,346,366,385,405,425,445,465,484,504,524,546,566,584,605,626,644,664,686,705,726,746,766,785,806,826,845,864,884,905,926,945,965,986,1006,1024,1046,1065,1085,1104,1125,1144,1164,1186,1206,1225,1245,1265,1286,1305,1324,1344,1364,1385,1405,1425,1446,1465,1485,1505,1524,1545,1564,1586,1605,1626,1646,1665,1684,1705,1725,1745,1765,1786,1805,1826,1845,1865,1886,1906,1925,1945,1964,1985,2005,2025,2045],"xSR":741.5,"ySR":501.8,"xT1":424.9,"yT1":0,"xT2":1058.1,"yT2":0,"toosoon":0,"cond_shown":"randomdotsizeEA","ratio_trial":250,"smaller_num":"4","larger_num":"16","correct_side":1,"subjID":"elianarinconacosta19","gender":"1","age":"9","school":"1","test":{"fix_dur":[250,1500],"timestim":300,"targets_dim":[100,100],"targets_relative_coord":[0.3,0.7],"size_stim":[880,420],"start_dim":[100,100],"size_start":[300,300],"size_fix":60,"samplingrate":20,"img_types":["equaldotsize","equaldotanddens","randomdotsizeEA"],"ratios":[250,500,750,900],"rep_conds":9,"nTrials":120,"trials_to_rest":500,"Trials_order":[50,92,3,89,38,93,28,68,46,69,108,113,60,19,31,111,4,51,0,110,45,116,8,25,24,74,102,52,95,101,55,1,64,39,73,17,27,61,119,109,84,34,21,75,6,26,33,2,9,40,83,86,48,80,94,29,63,112,42,104,41,44,11,5,10,13,35,82,53,20,96,98,47,81,67,37,59,56,97,71,70,100,103,107,14,43,115,85,36,32,62,57,78,88,99,106,114,65,18,66,77,105,49,58,15,12,23,72,76,22,79,117,118,30,16,91,87,7,54,90],"cond_shown":["randomdotsizeEA","randomdotsizeEA","equaldotsize","randomdotsizeEA","randomdotsizeEA","equaldotsize","equaldotanddens","randomdotsizeEA","equaldotanddens","equaldotsize","equaldotsize","randomdotsizeEA","equaldotsize","equaldotanddens","equaldotanddens","equaldotsize","equaldotanddens","equaldotsize","equaldotsize","randomdotsizeEA","equaldotsize","randomdotsizeEA","randomdotsizeEA","equaldotanddens","equaldotsize","randomdotsizeEA","equaldotsize","equaldotanddens","randomdotsizeEA","randomdotsizeEA","equaldotanddens","equaldotanddens","equaldotanddens","equaldotsize","equaldotanddens","randomdotsizeEA","equaldotsize","equaldotanddens","randomdotsizeEA","equaldotanddens","equaldotsize","equaldotanddens","equaldotsize","equaldotsize","equaldotsize","randomdotsizeEA","equaldotsize","randomdotsizeEA","equaldotsize","equaldotanddens","randomdotsizeEA","randomdotsizeEA","equaldotsize","randomdotsizeEA","equaldotanddens","randomdotsizeEA","equaldotsize","equaldotanddens","equaldotsize","randomdotsizeEA","randomdotsizeEA","randomdotsizeEA","randomdotsizeEA","randomdotsizeEA","equaldotanddens","equaldotanddens","randomdotsizeEA","equaldotanddens","randomdotsizeEA","randomdotsizeEA","equaldotsize","randomdotsizeEA","randomdotsizeEA","equaldotsize","equaldotanddens","equaldotanddens","randomdotsizeEA","randomdotsizeEA","equaldotanddens","randomdotsizeEA","equaldotanddens","equaldotanddens","equaldotanddens","randomdotsizeEA","randomdotsizeEA","equaldotanddens","equaldotanddens","equaldotanddens","equaldotsize","randomdotsizeEA","randomdotsizeEA","equaldotsize","equaldotsize","equaldotanddens","equaldotsize","equaldotanddens","equaldotsize","randomdotsizeEA","equaldotsize","equaldotsize","randomdotsizeEA","equaldotsize","equaldotanddens","equaldotanddens","equaldotsize","equaldotsize","randomdotsizeEA","equaldotsize","equaldotanddens","equaldotanddens","equaldotanddens","equaldotsize","equaldotanddens","equaldotsize","equaldotanddens","equaldotanddens","equaldotsize","equaldotanddens","equaldotsize","equaldotsize"],"ratio_trial":[250,750,500,500,250,900,500,750,900,900,250,500,250,750,750,500,500,500,250,250,900,750,750,250,250,250,750,500,900,500,750,250,500,500,250,500,500,250,900,250,250,900,900,500,750,250,900,250,900,500,900,250,250,750,900,500,500,500,750,750,500,750,900,500,900,250,900,900,500,750,250,250,900,900,750,250,900,750,250,900,900,500,750,900,250,750,750,250,250,750,250,900,750,500,500,900,750,500,750,750,500,900,250,900,500,250,900,250,500,900,750,900,900,750,500,750,500,750,750,750],"smaller_num":["4","6","2","9","2","18","6","3","18","18","3","9","3","6","3","3","10","1","3","5","18","15","3","6","2","4","15","5","9","2","6","3","3","9","3","2","6","3","18","3","2","9","18","3","12","6","18","4","18","6","9","3","2","9","18","5","1","1","6","9","10","6","18","5","18","2","18","9","9","3","6","3","18","9","6","2","18","15","6","9","18","10","15","18","3","3","15","3","2","12","2","18","15","9","9","18","6","9","3","12","2","18","4","18","10","1","18","6","6","18","15","18","9","15","9","15","2","15","3","15"],"larger_num":["16","8","4","18","8","20","12","4","20","20","12","18","12","8","4","6","20","2","12","20","20","20","4","24","8","16","20","10","10","4","8","12","6","18","12","4","12","12","20","12","8","10","20","6","16","24","20","16","20","12","10","12","8","12","20","10","2","2","8","12","20","8","20","10","20","8","20","10","18","4","24","12","20","10","8","8","20","20","24","10","20","20","20","20","12","4","20","12","8","16","8","20","20","18","18","20","8","18","4","16","4","20","16","20","20","4","20","24","12","20","20","20","10","20","18","20","4","20","4","20"],"correct_side":[1,1,1,1,1,1,1,1,2,2,2,2,1,2,1,2,2,2,2,2,2,2,1,2,1,2,2,1,2,1,1,2,2,2,2,2,1,1,1,2,1,2,1,2,2,1,1,2,1,1,2,1,1,2,1,1,2,2,2,2,2,1,2,1,1,1,2,1,1,1,2,1,1,2,1,1,2,2,1,2,2,2,1,1,2,2,2,2,2,2,1,1,2,2,2,1,1,2,1,2,2,1,1,2,2,2,1,2,1,1,2,1,2,2,2,2,1,2,1,2],"img_shown":["img/250/randomdotsizeEA/L/2_Ratio_250_L_16_R_4.png","img/750/randomdotsizeEA/L/13_Ratio_750_L_8_R_6.png","img/500/equaldotsize/L/10_Ratio_500_L_4_R_2.png","img/500/randomdotsizeEA/L/4_Ratio_500_L_18_R_9.png","img/250/randomdotsizeEA/L/3_Ratio_250_L_8_R_2.png","img/900/equaldotsize/L/8_Ratio_900_L_20_R_18.png","img/500/equaldotanddens/L/13_Ratio_500_L_12_R_6.png","img/750/randomdotsizeEA/L/9_Ratio_750_L_4_R_3.png","img/900/equaldotanddens/R/14_Ratio_900_L_18_R_20.png","img/900/equaldotsize/R/13_Ratio_900_L_18_R_20.png","img/250/equaldotsize/R/11_Ratio_250_L_3_R_12.png","img/500/randomdotsizeEA/R/6_Ratio_500_L_9_R_18.png","img/250/equaldotsize/L/15_Ratio_250_L_12_R_3.png","img/750/equaldotanddens/R/2_Ratio_750_L_6_R_8.png","img/750/equaldotanddens/L/9_Ratio_750_L_4_R_3.png","img/500/equaldotsize/R/2_Ratio_500_L_3_R_6.png","img/500/equaldotanddens/R/3_Ratio_500_L_10_R_20.png","img/500/equaldotsize/R/12_Ratio_500_L_1_R_2.png","img/250/equaldotsize/R/11_Ratio_250_L_3_R_12.png","img/250/randomdotsizeEA/R/12_Ratio_250_L_5_R_20.png","img/900/equaldotsize/R/11_Ratio_900_L_18_R_20.png","img/750/randomdotsizeEA/R/4_Ratio_750_L_15_R_20.png","img/750/randomdotsizeEA/L/9_Ratio_750_L_4_R_3.png","img/250/equaldotanddens/R/6_Ratio_250_L_6_R_24.png","img/250/equaldotsize/L/1_Ratio_250_L_8_R_2.png","img/250/randomdotsizeEA/R/10_Ratio_250_L_4_R_16.png","img/750/equaldotsize/R/3_Ratio_750_L_15_R_20.png","img/500/equaldotanddens/L/7_Ratio_500_L_10_R_5.png","img/900/randomdotsizeEA/R/6_Ratio_900_L_9_R_10.png","img/500/randomdotsizeEA/L/10_Ratio_500_L_4_R_2.png","img/750/equaldotanddens/L/14_Ratio_750_L_8_R_6.png","img/250/equaldotanddens/R/9_Ratio_250_L_3_R_12.png","img/500/equaldotanddens/R/2_Ratio_500_L_3_R_6.png","img/500/equaldotsize/R/6_Ratio_500_L_9_R_18.png","img/250/equaldotanddens/R/11_Ratio_250_L_3_R_12.png","img/500/randomdotsizeEA/R/9_Ratio_500_L_2_R_4.png","img/500/equaldotsize/L/11_Ratio_500_L_12_R_6.png","img/250/equaldotanddens/L/15_Ratio_250_L_12_R_3.png","img/900/randomdotsizeEA/L/2_Ratio_900_L_20_R_18.png","img/250/equaldotanddens/R/4_Ratio_250_L_3_R_12.png","img/250/equaldotsize/L/3_Ratio_250_L_8_R_2.png","img/900/equaldotanddens/R/6_Ratio_900_L_9_R_10.png","img/900/equaldotsize/L/2_Ratio_900_L_20_R_18.png","img/500/equaldotsize/R/2_Ratio_500_L_3_R_6.png","img/750/equaldotsize/R/11_Ratio_750_L_12_R_16.png","img/250/randomdotsizeEA/L/5_Ratio_250_L_24_R_6.png","img/900/equaldotsize/L/2_Ratio_900_L_20_R_18.png","img/250/randomdotsizeEA/R/10_Ratio_250_L_4_R_16.png","img/900/equaldotsize/L/4_Ratio_900_L_20_R_18.png","img/500/equaldotanddens/L/13_Ratio_500_L_12_R_6.png","img/900/randomdotsizeEA/R/5_Ratio_900_L_9_R_10.png","img/250/randomdotsizeEA/L/15_Ratio_250_L_12_R_3.png","img/250/equaldotsize/L/3_Ratio_250_L_8_R_2.png","img/750/randomdotsizeEA/R/15_Ratio_750_L_9_R_12.png","img/900/equaldotanddens/L/10_Ratio_900_L_20_R_18.png","img/500/randomdotsizeEA/L/7_Ratio_500_L_10_R_5.png","img/500/equaldotsize/R/15_Ratio_500_L_1_R_2.png","img/500/equaldotanddens/R/15_Ratio_500_L_1_R_2.png","img/750/equaldotsize/R/2_Ratio_750_L_6_R_8.png","img/750/randomdotsizeEA/R/15_Ratio_750_L_9_R_12.png","img/500/randomdotsizeEA/R/3_Ratio_500_L_10_R_20.png","img/750/randomdotsizeEA/L/13_Ratio_750_L_8_R_6.png","img/900/randomdotsizeEA/R/13_Ratio_900_L_18_R_20.png","img/500/randomdotsizeEA/L/7_Ratio_500_L_10_R_5.png","img/900/equaldotanddens/L/4_Ratio_900_L_20_R_18.png","img/250/equaldotanddens/L/3_Ratio_250_L_8_R_2.png","img/900/randomdotsizeEA/R/14_Ratio_900_L_18_R_20.png","img/900/equaldotanddens/L/1_Ratio_900_L_10_R_9.png","img/500/randomdotsizeEA/L/4_Ratio_500_L_18_R_9.png","img/750/randomdotsizeEA/L/9_Ratio_750_L_4_R_3.png","img/250/equaldotsize/R/6_Ratio_250_L_6_R_24.png","img/250/randomdotsizeEA/L/15_Ratio_250_L_12_R_3.png","img/900/randomdotsizeEA/L/10_Ratio_900_L_20_R_18.png","img/900/equaldotsize/R/15_Ratio_900_L_9_R_10.png","img/750/equaldotanddens/L/13_Ratio_750_L_8_R_6.png","img/250/equaldotanddens/L/1_Ratio_250_L_8_R_2.png","img/900/randomdotsizeEA/R/11_Ratio_900_L_18_R_20.png","img/750/randomdotsizeEA/R/4_Ratio_750_L_15_R_20.png","img/250/equaldotanddens/L/5_Ratio_250_L_24_R_6.png","img/900/randomdotsizeEA/R/15_Ratio_900_L_9_R_10.png","img/900/equaldotanddens/R/12_Ratio_900_L_18_R_20.png","img/500/equaldotanddens/R/3_Ratio_500_L_10_R_20.png","img/750/equaldotanddens/L/1_Ratio_750_L_20_R_15.png","img/900/randomdotsizeEA/L/10_Ratio_900_L_20_R_18.png","img/250/randomdotsizeEA/R/4_Ratio_250_L_3_R_12.png","img/750/equaldotanddens/R/7_Ratio_750_L_3_R_4.png","img/750/equaldotanddens/R/5_Ratio_750_L_15_R_20.png","img/250/equaldotanddens/R/11_Ratio_250_L_3_R_12.png","img/250/equaldotsize/R/13_Ratio_250_L_2_R_8.png","img/750/randomdotsizeEA/R/11_Ratio_750_L_12_R_16.png","img/250/randomdotsizeEA/L/7_Ratio_250_L_8_R_2.png","img/900/equaldotsize/L/10_Ratio_900_L_20_R_18.png","img/750/equaldotsize/R/5_Ratio_750_L_15_R_20.png","img/500/equaldotanddens/R/6_Ratio_500_L_9_R_18.png","img/500/equaldotsize/R/1_Ratio_500_L_9_R_18.png","img/900/equaldotanddens/L/10_Ratio_900_L_20_R_18.png","img/750/equaldotsize/L/13_Ratio_750_L_8_R_6.png","img/500/randomdotsizeEA/R/1_Ratio_500_L_9_R_18.png","img/750/equaldotsize/L/9_Ratio_750_L_4_R_3.png","img/750/equaldotsize/R/11_Ratio_750_L_12_R_16.png","img/500/randomdotsizeEA/R/9_Ratio_500_L_2_R_4.png","img/900/equaldotsize/L/4_Ratio_900_L_20_R_18.png","img/250/equaldotanddens/L/2_Ratio_250_L_16_R_4.png","img/900/equaldotanddens/R/9_Ratio_900_L_18_R_20.png","img/500/equaldotsize/R/3_Ratio_500_L_10_R_20.png","img/250/equaldotsize/R/8_Ratio_250_L_1_R_4.png","img/900/randomdotsizeEA/L/8_Ratio_900_L_20_R_18.png","img/250/equaldotsize/R/6_Ratio_250_L_6_R_24.png","img/500/equaldotanddens/L/11_Ratio_500_L_12_R_6.png","img/900/equaldotanddens/L/2_Ratio_900_L_20_R_18.png","img/750/equaldotanddens/R/3_Ratio_750_L_15_R_20.png","img/900/equaldotsize/L/2_Ratio_900_L_20_R_18.png","img/900/equaldotanddens/R/5_Ratio_900_L_9_R_10.png","img/750/equaldotsize/R/3_Ratio_750_L_15_R_20.png","img/500/equaldotanddens/R/6_Ratio_500_L_9_R_18.png","img/750/equaldotanddens/R/5_Ratio_750_L_15_R_20.png","img/500/equaldotsize/L/5_Ratio_500_L_4_R_2.png","img/750/equaldotanddens/R/4_Ratio_750_L_15_R_20.png","img/750/equaldotsize/L/10_Ratio_750_L_4_R_3.png","img/750/equaldotsize/R/5_Ratio_750_L_15_R_20.png"],"Rat0":[["12_Ratio_0_L_9_R_0.png","13_Ratio_0_L_6_R_0.png","5_Ratio_0_L_2_R_0.png","6_Ratio_0_L_4_R_0.png","8_Ratio_0_L_6_R_0.png"],["1_Ratio_0_L_0_R_17.png","10_Ratio_0_L_0_R_22.png","11_Ratio_0_L_0_R_1.png","14_Ratio_0_L_0_R_24.png","15_Ratio_0_L_0_R_4.png","2_Ratio_0_L_0_R_5.png","3_Ratio_0_L_0_R_17.png","4_Ratio_0_L_0_R_7.png","7_Ratio_0_L_0_R_19.png","9_Ratio_0_L_0_R_15.png"]],"Rat250":[["1_Ratio_250_L_8_R_2.png","14_Ratio_250_L_12_R_3.png","15_Ratio_250_L_12_R_3.png","2_Ratio_250_L_16_R_4.png","3_Ratio_250_L_8_R_2.png","5_Ratio_250_L_24_R_6.png","7_Ratio_250_L_8_R_2.png"],["10_Ratio_250_L_4_R_16.png","11_Ratio_250_L_3_R_12.png","12_Ratio_250_L_5_R_20.png","13_Ratio_250_L_2_R_8.png","4_Ratio_250_L_3_R_12.png","6_Ratio_250_L_6_R_24.png","8_Ratio_250_L_1_R_4.png","9_Ratio_250_L_3_R_12.png"]],"Rat500":[["10_Ratio_500_L_4_R_2.png","11_Ratio_500_L_12_R_6.png","13_Ratio_500_L_12_R_6.png","4_Ratio_500_L_18_R_9.png","5_Ratio_500_L_4_R_2.png","7_Ratio_500_L_10_R_5.png","8_Ratio_500_L_8_R_4.png"],["1_Ratio_500_L_9_R_18.png","12_Ratio_500_L_1_R_2.png","14_Ratio_500_L_5_R_10.png","15_Ratio_500_L_1_R_2.png","2_Ratio_500_L_3_R_6.png","3_Ratio_500_L_10_R_20.png","6_Ratio_500_L_9_R_18.png","9_Ratio_500_L_2_R_4.png"]],"Rat750":[["1_Ratio_750_L_20_R_15.png","10_Ratio_750_L_4_R_3.png","13_Ratio_750_L_8_R_6.png","14_Ratio_750_L_8_R_6.png","6_Ratio_750_L_24_R_18.png","8_Ratio_750_L_4_R_3.png","9_Ratio_750_L_4_R_3.png"],["11_Ratio_750_L_12_R_16.png","12_Ratio_750_L_3_R_4.png","15_Ratio_750_L_9_R_12.png","2_Ratio_750_L_6_R_8.png","3_Ratio_750_L_15_R_20.png","4_Ratio_750_L_15_R_20.png","5_Ratio_750_L_15_R_20.png","7_Ratio_750_L_3_R_4.png"]],"Rat900":[["1_Ratio_900_L_10_R_9.png","10_Ratio_900_L_20_R_18.png","2_Ratio_900_L_20_R_18.png","4_Ratio_900_L_20_R_18.png","8_Ratio_900_L_20_R_18.png"],["11_Ratio_900_L_18_R_20.png","12_Ratio_900_L_18_R_20.png","13_Ratio_900_L_18_R_20.png","14_Ratio_900_L_18_R_20.png","15_Ratio_900_L_9_R_10.png","3_Ratio_900_L_9_R_10.png","5_Ratio_900_L_9_R_10.png","6_Ratio_900_L_9_R_10.png","7_Ratio_900_L_9_R_10.png","9_Ratio_900_L_18_R_20.png"]],"Rat1000":[["10_Ratio_1000_L_16_R_16.png","11_Ratio_1000_L_6_R_6.png","12_Ratio_1000_L_14_R_14.png","13_Ratio_1000_L_20_R_20.png","15_Ratio_1000_L_15_R_15.png","2_Ratio_1000_L_17_R_17.png","4_Ratio_1000_L_9_R_9.png","5_Ratio_1000_L_6_R_6.png","6_Ratio_1000_L_19_R_19.png","8_Ratio_1000_L_14_R_14.png","9_Ratio_1000_L_25_R_25.png"],["1_Ratio_1000_L_1_R_1.png","14_Ratio_1000_L_17_R_17.png","3_Ratio_1000_L_17_R_17.png","7_Ratio_1000_L_6_R_6.png"]]}},{"start_time":1552309894506,"click_time":1552309895992,"finger_time":1552309895312,"fix_duration":911.1535255828206,"trial":1,"RT":806,"MT":680,"sideResp":2,"stimulus":"img/750/randomdotsizeEA/L/13_Ratio_750_L_8_R_6.png","xmouse":[812,812,812,812,812,812,812,812,812,812,812,812,812,812,812,812,812,812,812,812,812,812,812,812,812,812,812,812,812,812,812,812,812,812,812,812,812,812,812,818,883,977,1081,1189,1357,1398,1403,1403,1403,1403,1391,1370,1349,1330,1293,1281,1271,1266,1260,1251,1245,1240,1236,1230,1219,1212,1202,1188,1167,1152,1149,1148,1147,1147,1146],"ymouse":[564,564,564,564,564,564,564,564,564,564,564,564,564,564,564,564,564,564,564,564,564,564,564,564,564,564,564,564,564,564,564,564,564,564,564,564,564,564,564,545,445,363,302,255,188,171,169,169,169,169,169,169,169,167,161,158,155,152,149,145,142,141,140,136,131,129,126,124,118,111,108,106,103,102,98],"timestamp_mouse":[10,26,46,73,85,106,126,146,166,185,206,225,246,265,286,305,326,346,366,385,406,426,446,465,485,506,526,545,565,587,607,626,646,667,686,705,725,747,765,785,806,825,846,867,886,905,925,945,966,986,1006,1025,1045,1065,1085,1106,1126,1146,1165,1186,1206,1226,1246,1266,1285,1305,1326,1347,1366,1385,1405,1425,1446,1465,1485],"xSR":741.5,"ySR":469.95,"xT1":424.9,"yT1":0,"xT2":1058.1,"yT2":0,"toosoon":0,"cond_shown":"randomdotsizeEA","ratio_trial":750,"smaller_num":"6","larger_num":"8","correct_side":1,"subjID":"elianarinconacosta19","gender":"1","age":"9","school":"1"},{"start_time":1552309952128,"click_time":1552309953432,"finger_time":1552309953091,"fix_duration":373.5777433017494,"trial":2,"RT":963,"MT":341,"sideResp":1,"stimulus":"img/500/equaldotsize/L/10_Ratio_500_L_4_R_2.png","xmouse":[759,759,759,759,759,759,759,759,759,759,759,759,759,759,759,759,759,759,759,759,760,760,761,762,763,764,765,765,765,765,765,765,765,765,765,765,765,765,765,765,765,765,765,765,765,765,765,745,731,650,606,560,544,528,505,494,485,479,476,472,472,471,471,471,471,470],"ymouse":[522,522,522,522,522,522,522,522,522,522,522,522,522,522,522,522,522,522,522,522,522,522,523,523,524,524,525,525,525,525,525,525,525,525,525,525,525,525,525,525,525,525,525,525,525,525,525,495,480,427,398,363,351,336,309,290,272,254,238,166,130,122,117,111,105,95],"timestamp_mouse":[10,24,44,70,84,105,123,143,164,185,204,224,245,263,284,304,325,344,363,383,404,424,443,464,484,504,524,543,564,583,604,623,644,665,684,704,723,744,765,784,804,824,844,863,884,904,924,944,963,985,1003,1023,1043,1065,1084,1103,1124,1143,1164,1185,1203,1224,1244,1264,1284,1303],"xSR":741.5,"ySR":469.95,"xT1":424.9,"yT1":0,"xT2":1058.1,"yT2":0,"toosoon":0,"cond_shown":"equaldotsize","ratio_trial":500,"smaller_num":"2","larger_num":"4","correct_side":1,"subjID":"elianarinconacosta19","gender":"1","age":"9","school":"1"},{"start_time":1552309956385,"click_time":1552310014532,"finger_time":1552310013911,"fix_duration":250,"trial":3,"RT":57526,"MT":621,"sideResp":2,"stimulus":"img/500/randomdotsizeEA/L/4_Ratio_500_L_18_R_9.png","xmouse":[837,837,837,837,837,837,837,837,837,837,837,837,837,837,837,837,837,837,837,837,837,837,837,837,837,837,837,837,837,837,837,837,837,837,837,837,837,837,837,837,838,838,838,838,838,838,838,838,838,838,838,838,838,838,838,838,838,838,838,839,839,839,838,831,825,820,820,820,820,820,820,820,820,820,820,820,820,820,820,820,820,820,820,820,820,820,820,820,820,820,820,820,820,820,820,820,820,820,820,820,820,820,820,820,820,820,820,820,820,820,820,820,820,820,820,820,820,820,820,820,820,820,820,820,820,820,820,820,820,820,820,820,820,820,820,820,820,820,820,820,820,820,820,820,820,820,820,820,820,820,820,820,820,820,820,820,820,820,820,820,820,820,820,820,820,820,820,820,820,820,820,820,820,821,823,824,827,829,831,831,831,831,831,831,831,831,831,831,831,831,831,831,831,831,831,831,831,831,831,831,831,831,831,831,831,831,831,831,831,831,831,831,831,831,831,831,831,831,831,831,831,831,831,831,831,831,831,831,831,831,831,831,831,831,831,831,831,831,831,831,831,831,831,831,831,831,831,831,831,831,831,831,831,831,831,831,831,831,831,831,831,831,831,831,831,831,831,831,831,831,831,831,831,831,831,831,831,831,831,831,831,831,831,831,831,831,831,831,831,831,831,831,831,831,831,831,831,831,831,831,831,831,831,831,831,831,831,831,831,831,831,831,831,831,831,831,831,831,831,831,831,831,831,831,831,831,831,831,831,831,831,831,831,831,831,831,831,831,831,831,831,831,831,831,831,831,831,831,831,831,831,831,831,831,831,831,831,831,831,831,831,831,831,831,831,831,831,831,831,831,831,831,831,831,831,831,831,831,831,831,831,831,831,831,831,831,831,831,831,831,831,831,831,831,831,831,831,831,831,831,831,831,831,831,831,831,831,831,831,831,831,831,831,831,831,831,831,831,831,831,831,831,831,831,831,831,831,831,831,831,831,831,831,831,831,831,831,831,831,831,831,831,831,831,831,831,831,831,831,831,831,831,831,831,831,831,831,831,831,831,831,831,831,831,831,831,831,831,831,831,831,831,831,831,831,831,831,831,831,831,831,831,831,831,831,831,831,831,831,831,831,831,831,831,831,831,831,831,831,831,831,831,831,831,831,831,831,831,831,831,831,831,831,831,831,831,831,831,831,831,831,831,831,831,831,831,831,831,831,831,831,831,831,831,831,831,831,831,831,831,831,831,831,831,831,831,831,831,831,831,831,831,831,831,831,831,831,831,831,831,831,831,831,831,831,831,831,831,831,831,831,831,831,831,831,831,831,831,831,831,831,831,831,831,831,831,831,831,831,831,831,831,831,831,831,831,831,831,831,831,831,831,831,831,831,831,831,831,831,831,831,831,831,831,831,831,831,831,831,831,831,831,831,831,831,831,831,831,831,831,831,831,831,831,831,831,831,831,831,831,831,831,831,831,831,831,831,831,831,831,831,831,831,831,831,831,831,831,831,831,831,831,831,831,831,831,831,831,831,831,831,831,831,831,831,831,831,831,831,831,831,831,831,831,831,831,831,831,831,831,831,831,831,831,831,831,831,831,831,831,831,831,831,831,831,831,831,831,831,831,831,831,831,831,831,831,831,831,831,831,831,831,831,831,831,831,831,831,831,831,831,831,831,831,831,831,831,831,831,831,831,831,831,831,831,831,831,831,831,831,831,831,831,831,831,831,831,831,831,831,831,831,831,831,831,831,831,831,831,831,831,831,831,831,831,831,831,831,831,831,831,831,831,831,831,831,831,831,831,831,831,831,831,831,831,831,831,831,831,831,831,831,831,831,831,831,831,831,831,831,831,831,831,831,831,831,831,831,831,831,831,831,831,831,831,831,831,831,831,831,831,831,831,831,831,831,831,831,831,831,831,831,831,831,831,831,831,831,831,831,831,831,831,831,831,831,831,831,831,831,831,831,831,831,831,831,831,831,831,831,831,831,831,831,831,831,831,831,831,831,831,831,831,831,831,831,831,831,831,831,831,831,831,831,831,831,831,831,831,831,831,831,831,831,831,831,831,831,831,831,831,831,831,831,831,831,831,831,831,831,831,831,831,831,831,831,831,831,831,831,831,831,831,831,831,831,831,831,831,831,831,831,831,831,831,831,831,831,831,831,831,831,831,831,831,831,831,831,831,831,831,831,831,831,831,831,831,831,831,831,831,831,831,831,831,831,831,831,831,831,831,831,831,831,831,831,831,831,831,831,831,831,831,831,831,831,831,831,831,831,831,831,831,831,831,831,831,831,831,831,831,831,831,831,831,831,831,831,831,831,831,831,831,831,831,831,831,831,831,831,831,831,831,831,831,831,831,831,831,831,831,831,831,831,831,831,831,831,831,831,831,831,831,831,831,831,831,831,831,831,831,831,831,831,831,831,831,831,831,831,831,831,831,831,831,831,831,831,831,831,831,831,831,831,831,831,831,831,831,831,831,831,831,831,831,831,831,831,831,831,831,831,831,831,831,831,831,831,831,831,831,831,831,831,831,831,831,831,831,831,831,831,831,831,831,831,831,831,831,831,831,831,831,831,831,831,831,831,831,831,831,831,831,831,831,831,831,831,831,831,831,831,831,831,831,831,831,831,831,831,831,831,831,831,831,831,831,831,831,831,831,831,831,831,831,831,831,831,831,831,831,831,831,831,831,831,831,831,831,831,831,831,831,831,831,831,831,831,831,831,831,831,831,831,831,831,831,831,831,831,831,831,831,831,831,831,831,831,831,831,831,831,831,831,831,831,831,831,831,831,831,831,831,831,831,831,831,831,831,831,831,831,831,831,831,831,831,831,831,831,831,831,831,831,831,831,831,831,831,831,831,831,831,831,831,831,831,831,831,831,831,831,831,831,831,831,831,831,831,831,831,831,831,831,831,831,831,831,831,831,831,831,831,831,831,831,831,831,831,831,831,831,831,831,831,831,831,831,831,831,831,831,831,831,831,831,831,831,831,831,831,831,831,831,831,831,831,831,831,831,831,831,831,831,831,831,831,831,831,831,831,831,831,831,831,831,831,831,831,831,831,831,831,831,831,831,831,831,831,831,831,831,831,831,831,831,831,831,831,831,831,831,831,831,831,831,831,831,831,831,831,831,831,831,831,831,831,831,831,831,831,831,831,831,831,831,831,831,831,831,831,831,831,831,831,831,831,831,831,831,831,831,831,831,831,831,831,831,831,831,831,831,831,831,831,831,831,831,831,831,831,831,831,831,831,831,831,831,831,831,831,831,831,831,831,831,831,831,831,831,831,831,831,831,831,831,831,831,831,831,831,831,831,831,831,831,831,831,831,831,831,831,831,831,831,831,831,831,831,831,831,831,831,831,831,831,831,831,831,831,831,831,831,831,831,831,831,831,831,831,831,831,831,831,831,831,831,831,831,831,831,831,831,831,831,831,831,831,831,831,831,831,831,831,831,831,831,831,831,831,831,831,831,831,831,831,831,831,831,831,831,831,831,831,831,831,831,831,831,831,831,831,831,831,831,831,831,831,831,831,831,831,831,831,831,831,831,831,831,831,831,831,831,831,831,831,831,831,831,831,831,831,831,831,831,831,831,831,831,831,831,831,831,831,831,831,831,831,831,831,831,831,831,831,831,831,831,831,831,831,831,831,831,831,831,831,831,831,831,831,831,831,831,831,831,831,831,831,831,831,831,831,831,831,831,831,831,831,831,831,831,831,831,831,831,831,831,831,831,831,831,831,831,831,831,831,831,831,831,831,831,831,831,831,831,831,831,831,831,831,831,831,831,831,831,831,831,831,831,831,831,831,831,831,831,831,831,831,831,831,831,831,831,831,831,831,831,831,831,831,831,831,831,831,831,831,831,831,831,831,831,831,831,831,831,831,831,831,831,831,831,831,831,831,831,831,831,831,831,831,831,831,831,831,831,831,831,831,831,831,831,831,831,831,831,831,831,831,831,831,831,831,831,831,831,831,831,831,831,831,831,831,831,831,831,831,831,831,831,831,831,831,831,831,831,831,831,831,831,831,831,831,831,831,831,831,831,831,831,831,831,831,831,831,831,831,831,831,831,831,831,831,831,831,831,831,831,831,831,831,831,831,831,831,831,831,831,831,831,831,831,831,831,831,831,831,831,831,831,831,831,831,831,831,831,831,831,831,831,831,831,831,831,831,831,831,831,831,831,831,831,831,831,831,831,831,831,831,831,831,831,831,831,831,831,831,831,831,831,831,831,831,831,831,831,831,831,831,831,831,831,831,831,831,831,831,831,831,831,831,831,831,831,831,831,831,831,831,831,831,831,831,831,831,831,831,831,831,831,831,831,831,831,831,831,831,831,831,831,831,831,831,831,831,831,831,831,831,831,831,831,831,831,831,831,831,831,831,831,831,831,831,831,831,831,831,831,831,831,831,831,831,831,831,831,831,831,831,831,831,831,831,831,831,831,831,831,831,831,831,831,831,831,831,831,831,831,831,831,831,831,831,831,831,831,831,831,831,831,831,831,831,831,831,831,831,831,831,831,831,831,831,831,831,831,831,831,831,831,831,831,831,831,831,831,831,831,831,831,831,831,831,831,831,831,831,831,831,831,831,831,831,831,831,831,831,831,831,831,831,831,831,831,831,831,831,831,831,831,831,831,831,831,831,831,831,831,831,831,831,831,831,831,831,831,831,831,831,831,831,831,831,831,831,831,831,831,831,831,831,831,831,831,831,831,831,831,831,831,831,831,831,831,831,831,831,831,831,831,831,831,831,831,831,831,831,831,831,831,831,831,831,831,831,831,831,831,831,831,831,831,831,831,831,831,831,831,831,831,831,831,831,831,831,831,831,831,831,831,831,831,831,831,831,831,831,831,831,831,831,831,831,831,831,831,831,831,831,831,831,831,831,831,831,831,831,831,831,831,831,831,831,831,831,831,831,831,831,831,831,831,831,831,831,831,831,831,831,831,831,831,831,831,831,831,831,831,831,831,831,831,831,831,831,831,831,831,831,831,831,831,831,831,831,831,831,831,831,831,831,831,831,831,831,831,831,831,831,831,831,831,831,831,831,831,831,831,831,831,831,831,831,831,831,831,831,831,831,831,831,831,831,831,831,831,831,831,831,831,831,831,831,831,831,831,831,831,831,831,831,831,831,831,831,831,831,831,831,831,831,831,831,831,831,831,831,831,831,831,831,831,831,831,831,831,831,831,831,831,831,831,831,831,831,831,831,831,831,831,831,831,831,831,831,831,831,831,831,831,831,831,831,831,831,831,831,831,831,831,831,831,831,831,831,831,831,831,831,831,831,831,831,831,831,831,831,831,831,831,831,831,831,831,831,831,831,831,831,831,831,831,831,831,831,831,831,831,831,831,831,831,831,831,831,831,831,831,831,831,831,831,831,831,831,831,831,831,831,831,831,831,831,831,831,831,831,831,831,831,831,831,831,831,831,831,831,831,831,831,831,831,831,831,831,831,831,831,831,831,831,831,831,831,831,831,831,831,831,831,831,831,831,831,831,831,831,831,831,831,831,831,831,831,831,831,831,831,831,831,831,831,831,831,831,831,831,831,831,831,831,831,831,831,831,831,831,831,831,831,831,831,831,831,831,831,831,831,831,831,831,831,831,831,831,831,831,831,831,831,831,831,831,831,831,831,831,831,831,831,831,831,831,831,831,831,831,831,831,831,831,831,831,831,831,831,831,831,831,831,831,831,831,831,831,831,831,831,831,831,831,831,831,831,831,831,831,831,831,831,831,831,831,831,831,831,831,831,831,831,831,831,831,831,831,831,831,831,831,831,831,831,831,831,831,831,831,831,831,831,831,831,831,831,831,831,831,831,831,831,831,831,831,831,831,831,831,831,831,831,831,831,831,831,831,831,831,831,831,831,831,831,831,831,831,831,831,831,831,831,831,831,831,831,831,831,831,831,831,831,831,831,831,831,831,831,831,831,831,831,831,831,831,831,831,831,831,831,831,831,831,831,831,831,831,831,831,831,831,831,831,831,831,831,831,831,831,831,831,831,831,831,831,831,831,831,831,831,831,831,831,831,831,831,831,831,831,831,831,831,831,831,831,831,831,831,831,831,831,831,831,831,831,831,831,831,831,831,831,831,831,831,831,831,831,831,831,831,831,831,831,831,831,831,831,831,831,831,831,831,831,831,831,831,831,831,831,831,831,831,831,831,831,831,831,831,831,831,831,831,831,831,831,831,831,831,831,831,831,831,831,831,831,831,831,831,831,831,831,831,831,831,831,831,831,831,831,831,831,831,831,831,831,831,831,831,831,831,831,831,831,831,831,831,831,831,831,831,831,831,831,831,831,831,831,831,831,831,831,831,831,831,831,831,831,831,831,831,831,831,831,831,831,831,831,831,831,831,831,831,831,831,831,831,831,831,831,831,831,831,831,831,831,831,831,831,831,831,831,831,831,831,831,831,831,831,831,831,832,823,813,803,794,793,793,792,792,792,792,792,792,792,792,792,792,792,792,792,792,792,792,792,791,785,776,776,778,786,818,839,872,907,989,1033,1080,1086,1088,1090,1091,1096,1097,1097,1097,1094,1090,1088,1086,1085,1083,1083,1083,1083,1083,1083,1083,1084,1087,1090,1092],"ymouse":[525,525,525,525,525,525,525,525,525,525,525,525,525,525,525,525,525,525,525,525,525,525,525,525,525,525,525,525,525,525,525,525,525,525,525,525,525,525,525,525,525,525,525,525,525,525,525,525,525,525,525,525,525,525,525,525,525,525,525,526,526,526,526,525,523,522,522,522,522,522,522,522,522,522,522,522,522,522,522,522,522,522,522,522,522,522,522,522,522,522,522,522,522,522,522,522,522,522,522,522,522,522,522,522,522,522,522,522,522,522,522,522,522,522,522,522,522,522,522,522,522,522,522,522,522,522,522,522,522,522,522,522,522,522,522,522,522,522,522,522,522,522,522,522,522,522,522,522,522,522,522,522,522,522,522,522,522,522,522,522,522,522,522,522,522,522,522,522,522,522,522,522,522,523,523,524,526,527,528,529,529,529,529,529,529,529,529,529,529,529,529,529,529,529,529,529,529,529,529,529,529,529,529,529,529,529,529,529,529,529,529,529,529,529,529,529,529,529,529,529,529,529,529,529,529,529,529,529,529,529,529,529,529,529,529,529,529,529,529,529,529,529,529,529,529,529,529,529,529,529,529,529,529,529,529,529,529,529,529,529,529,529,529,529,529,529,529,529,529,529,529,529,529,529,529,529,529,529,529,529,529,529,529,529,529,529,529,529,529,529,529,529,529,529,529,529,529,529,529,529,529,529,529,529,529,529,529,529,529,529,529,529,529,529,529,529,529,529,529,529,529,529,529,529,529,529,529,529,529,529,529,529,529,529,529,529,529,529,529,529,529,529,529,529,529,529,529,529,529,529,529,529,529,529,529,529,529,529,529,529,529,529,529,529,529,529,529,529,529,529,529,529,529,529,529,529,529,529,529,529,529,529,529,529,529,529,529,529,529,529,529,529,529,529,529,529,529,529,529,529,529,529,529,529,529,529,529,529,529,529,529,529,529,529,529,529,529,529,529,529,529,529,529,529,529,529,529,529,529,529,529,529,529,529,529,529,529,529,529,529,529,529,529,529,529,529,529,529,529,529,529,529,529,529,529,529,529,529,529,529,529,529,529,529,529,529,529,529,529,529,529,529,529,529,529,529,529,529,529,529,529,529,529,529,529,529,529,529,529,529,529,529,529,529,529,529,529,529,529,529,529,529,529,529,529,529,529,529,529,529,529,529,529,529,529,529,529,529,529,529,529,529,529,529,529,529,529,529,529,529,529,529,529,529,529,529,529,529,529,529,529,529,529,529,529,529,529,529,529,529,529,529,529,529,529,529,529,529,529,529,529,529,529,529,529,529,529,529,529,529,529,529,529,529,529,529,529,529,529,529,529,529,529,529,529,529,529,529,529,529,529,529,529,529,529,529,529,529,529,529,529,529,529,529,529,529,529,529,529,529,529,529,529,529,529,529,529,529,529,529,529,529,529,529,529,529,529,529,529,529,529,529,529,529,529,529,529,529,529,529,529,529,529,529,529,529,529,529,529,529,529,529,529,529,529,529,529,529,529,529,529,529,529,529,529,529,529,529,529,529,529,529,529,529,529,529,529,529,529,529,529,529,529,529,529,529,529,529,529,529,529,529,529,529,529,529,529,529,529,529,529,529,529,529,529,529,529,529,529,529,529,529,529,529,529,529,529,529,529,529,529,529,529,529,529,529,529,529,529,529,529,529,529,529,529,529,529,529,529,529,529,529,529,529,529,529,529,529,529,529,529,529,529,529,529,529,529,529,529,529,529,529,529,529,529,529,529,529,529,529,529,529,529,529,529,529,529,529,529,529,529,529,529,529,529,529,529,529,529,529,529,529,529,529,529,529,529,529,529,529,529,529,529,529,529,529,529,529,529,529,529,529,529,529,529,529,529,529,529,529,529,529,529,529,529,529,529,529,529,529,529,529,529,529,529,529,529,529,529,529,529,529,529,529,529,529,529,529,529,529,529,529,529,529,529,529,529,529,529,529,529,529,529,529,529,529,529,529,529,529,529,529,529,529,529,529,529,529,529,529,529,529,529,529,529,529,529,529,529,529,529,529,529,529,529,529,529,529,529,529,529,529,529,529,529,529,529,529,529,529,529,529,529,529,529,529,529,529,529,529,529,529,529,529,529,529,529,529,529,529,529,529,529,529,529,529,529,529,529,529,529,529,529,529,529,529,529,529,529,529,529,529,529,529,529,529,529,529,529,529,529,529,529,529,529,529,529,529,529,529,529,529,529,529,529,529,529,529,529,529,529,529,529,529,529,529,529,529,529,529,529,529,529,529,529,529,529,529,529,529,529,529,529,529,529,529,529,529,529,529,529,529,529,529,529,529,529,529,529,529,529,529,529,529,529,529,529,529,529,529,529,529,529,529,529,529,529,529,529,529,529,529,529,529,529,529,529,529,529,529,529,529,529,529,529,529,529,529,529,529,529,529,529,529,529,529,529,529,529,529,529,529,529,529,529,529,529,529,529,529,529,529,529,529,529,529,529,529,529,529,529,529,529,529,529,529,529,529,529,529,529,529,529,529,529,529,529,529,529,529,529,529,529,529,529,529,529,529,529,529,529,529,529,529,529,529,529,529,529,529,529,529,529,529,529,529,529,529,529,529,529,529,529,529,529,529,529,529,529,529,529,529,529,529,529,529,529,529,529,529,529,529,529,529,529,529,529,529,529,529,529,529,529,529,529,529,529,529,529,529,529,529,529,529,529,529,529,529,529,529,529,529,529,529,529,529,529,529,529,529,529,529,529,529,529,529,529,529,529,529,529,529,529,529,529,529,529,529,529,529,529,529,529,529,529,529,529,529,529,529,529,529,529,529,529,529,529,529,529,529,529,529,529,529,529,529,529,529,529,529,529,529,529,529,529,529,529,529,529,529,529,529,529,529,529,529,529,529,529,529,529,529,529,529,529,529,529,529,529,529,529,529,529,529,529,529,529,529,529,529,529,529,529,529,529,529,529,529,529,529,529,529,529,529,529,529,529,529,529,529,529,529,529,529,529,529,529,529,529,529,529,529,529,529,529,529,529,529,529,529,529,529,529,529,529,529,529,529,529,529,529,529,529,529,529,529,529,529,529,529,529,529,529,529,529,529,529,529,529,529,529,529,529,529,529,529,529,529,529,529,529,529,529,529,529,529,529,529,529,529,529,529,529,529,529,529,529,529,529,529,529,529,529,529,529,529,529,529,529,529,529,529,529,529,529,529,529,529,529,529,529,529,529,529,529,529,529,529,529,529,529,529,529,529,529,529,529,529,529,529,529,529,529,529,529,529,529,529,529,529,529,529,529,529,529,529,529,529,529,529,529,529,529,529,529,529,529,529,529,529,529,529,529,529,529,529,529,529,529,529,529,529,529,529,529,529,529,529,529,529,529,529,529,529,529,529,529,529,529,529,529,529,529,529,529,529,529,529,529,529,529,529,529,529,529,529,529,529,529,529,529,529,529,529,529,529,529,529,529,529,529,529,529,529,529,529,529,529,529,529,529,529,529,529,529,529,529,529,529,529,529,529,529,529,529,529,529,529,529,529,529,529,529,529,529,529,529,529,529,529,529,529,529,529,529,529,529,529,529,529,529,529,529,529,529,529,529,529,529,529,529,529,529,529,529,529,529,529,529,529,529,529,529,529,529,529,529,529,529,529,529,529,529,529,529,529,529,529,529,529,529,529,529,529,529,529,529,529,529,529,529,529,529,529,529,529,529,529,529,529,529,529,529,529,529,529,529,529,529,529,529,529,529,529,529,529,529,529,529,529,529,529,529,529,529,529,529,529,529,529,529,529,529,529,529,529,529,529,529,529,529,529,529,529,529,529,529,529,529,529,529,529,529,529,529,529,529,529,529,529,529,529,529,529,529,529,529,529,529,529,529,529,529,529,529,529,529,529,529,529,529,529,529,529,529,529,529,529,529,529,529,529,529,529,529,529,529,529,529,529,529,529,529,529,529,529,529,529,529,529,529,529,529,529,529,529,529,529,529,529,529,529,529,529,529,529,529,529,529,529,529,529,529,529,529,529,529,529,529,529,529,529,529,529,529,529,529,529,529,529,529,529,529,529,529,529,529,529,529,529,529,529,529,529,529,529,529,529,529,529,529,529,529,529,529,529,529,529,529,529,529,529,529,529,529,529,529,529,529,529,529,529,529,529,529,529,529,529,529,529,529,529,529,529,529,529,529,529,529,529,529,529,529,529,529,529,529,529,529,529,529,529,529,529,529,529,529,529,529,529,529,529,529,529,529,529,529,529,529,529,529,529,529,529,529,529,529,529,529,529,529,529,529,529,529,529,529,529,529,529,529,529,529,529,529,529,529,529,529,529,529,529,529,529,529,529,529,529,529,529,529,529,529,529,529,529,529,529,529,529,529,529,529,529,529,529,529,529,529,529,529,529,529,529,529,529,529,529,529,529,529,529,529,529,529,529,529,529,529,529,529,529,529,529,529,529,529,529,529,529,529,529,529,529,529,529,529,529,529,529,529,529,529,529,529,529,529,529,529,529,529,529,529,529,529,529,529,529,529,529,529,529,529,529,529,529,529,529,529,529,529,529,529,529,529,529,529,529,529,529,529,529,529,529,529,529,529,529,529,529,529,529,529,529,529,529,529,529,529,529,529,529,529,529,529,529,529,529,529,529,529,529,529,529,529,529,529,529,529,529,529,529,529,529,529,529,529,529,529,529,529,529,529,529,529,529,529,529,529,529,529,529,529,529,529,529,529,529,529,529,529,529,529,529,529,529,529,529,529,529,529,529,529,529,529,529,529,529,529,529,529,529,529,529,529,529,529,529,529,529,529,529,529,529,529,529,529,529,529,529,529,529,529,529,529,529,529,529,529,529,529,529,529,529,529,529,529,529,529,529,529,529,529,529,529,529,529,529,529,529,529,529,529,529,529,529,529,529,529,529,529,529,529,529,529,529,529,529,529,529,529,529,529,529,529,529,529,529,529,529,529,529,529,529,529,529,529,529,529,529,529,529,529,529,529,529,529,529,529,529,529,529,529,529,529,529,529,529,529,529,529,529,529,529,529,529,529,529,529,529,529,529,529,529,529,529,529,529,529,529,529,529,529,529,529,529,529,529,529,529,529,529,529,529,529,529,529,529,529,529,529,529,529,529,529,529,529,529,529,529,529,529,529,529,529,529,529,529,529,529,529,529,529,529,529,529,529,529,529,529,529,529,529,529,529,529,529,529,529,529,529,529,529,529,529,529,529,529,529,529,529,529,529,529,529,529,529,529,529,529,529,529,529,529,529,529,529,529,529,529,529,529,529,529,529,529,529,529,529,529,529,529,529,529,529,529,529,529,529,529,529,529,529,529,529,529,529,529,529,529,529,529,529,529,529,529,529,529,529,529,529,529,529,529,529,529,529,529,529,529,529,529,529,529,529,529,529,529,529,529,529,529,529,529,529,529,529,529,529,529,529,529,529,529,529,529,529,529,529,529,529,529,529,529,529,529,529,529,529,529,529,529,529,529,529,529,529,529,529,529,529,529,529,529,529,529,529,529,529,529,529,529,529,529,529,529,529,529,529,529,529,529,529,529,529,529,529,529,529,529,529,529,529,529,529,529,529,529,529,529,529,529,529,529,529,529,529,529,529,529,529,529,529,529,529,529,529,529,529,529,529,529,529,529,529,529,529,529,529,529,529,529,529,529,529,529,529,529,529,529,529,529,529,529,529,529,529,529,529,529,529,529,529,529,529,529,529,529,529,529,529,529,529,529,529,529,529,529,529,529,529,529,529,529,529,529,529,529,529,529,529,529,529,529,529,529,529,529,529,529,529,529,529,529,529,529,529,529,529,529,529,529,529,529,529,529,529,529,529,529,529,529,529,529,529,529,529,529,529,529,529,529,529,529,529,529,529,529,529,529,529,529,529,529,529,529,529,529,529,529,529,529,529,529,529,529,529,529,529,529,529,529,529,529,529,529,529,529,529,529,529,529,529,529,529,529,529,529,529,529,529,529,529,529,529,529,529,529,529,529,529,529,529,529,529,529,529,529,529,529,529,529,529,529,529,529,529,529,529,529,529,529,529,529,529,529,529,529,529,529,529,529,529,529,529,529,529,529,529,529,529,529,529,529,529,529,529,529,529,529,529,529,529,529,529,529,529,529,529,529,529,529,529,529,529,529,529,529,529,529,529,529,529,529,529,529,529,529,529,529,529,529,529,529,529,529,529,529,529,529,529,529,529,529,529,529,529,529,529,529,529,529,529,529,529,529,529,529,529,529,529,529,529,529,529,529,529,529,529,529,529,529,529,529,529,529,529,529,529,529,529,529,529,529,529,529,529,529,529,529,529,529,529,529,529,529,529,529,529,529,529,529,529,529,529,529,529,529,529,529,529,529,529,529,529,529,529,529,529,529,529,529,529,529,529,529,529,529,529,529,529,529,529,529,529,529,529,529,529,529,529,529,529,529,529,529,529,529,529,529,529,529,529,529,529,529,529,529,527,524,521,517,517,517,516,516,516,516,516,516,516,516,516,516,516,516,516,516,516,516,516,513,500,481,477,470,454,422,403,383,367,333,313,287,279,269,257,244,213,197,175,165,159,150,145,140,132,128,124,124,124,124,124,123,118,110,102,97],"timestamp_mouse":[9,27,46,68,87,106,128,146,166,187,207,227,248,267,286,307,327,347,367,387,408,427,448,466,487,506,528,547,567,588,607,626,647,667,688,706,726,748,766,788,807,828,847,866,888,906,926,947,967,987,1008,1028,1047,1067,1086,1108,1127,1148,1166,1186,1207,1228,1246,1267,1288,1306,1326,1347,1367,1387,1407,1426,1446,1468,1486,1507,1526,1546,1568,1587,1607,1627,1646,1666,1687,1707,1727,1747,1766,1788,1806,1826,1847,1866,1887,1908,1926,1947,1967,1988,2007,2027,2046,2066,2087,2107,2127,2146,2166,2187,2208,2228,2246,2266,2287,2306,2327,2348,2367,2388,2407,2427,2446,2467,2488,2507,2526,2546,2566,2588,2608,2627,2646,2667,2687,2707,2726,2748,2767,2788,2807,2826,2846,2867,2887,2907,2927,2947,2967,2987,3007,3028,3047,3068,3087,3107,3127,3146,3167,3186,3207,3226,3247,3268,3287,3307,3326,3346,3366,3386,3407,3428,3447,3467,3487,3507,3526,3546,3567,3587,3607,3626,3646,3668,3686,3706,3727,3746,3767,3786,3807,3827,3848,3866,3886,3908,3927,3948,3966,3986,4008,4027,4046,4067,4086,4108,4127,4147,4166,4187,4207,4226,4246,4267,4288,4307,4327,4346,4366,4386,4407,4428,4447,4466,4487,4508,4527,4546,4566,4588,4608,4628,4647,4666,4687,4706,4727,4747,4768,4788,4806,4827,4846,4868,4888,4907,4926,4946,4967,4986,5006,5027,5047,5068,5086,5107,5127,5146,5166,5187,5206,5226,5247,5268,5286,5306,5327,5347,5367,5386,5408,5427,5447,5467,5487,5507,5528,5547,5567,5587,5607,5626,5647,5667,5688,5707,5727,5747,5767,5787,5807,5826,5847,5866,5886,5906,5928,5947,5967,5987,6006,6028,6047,6066,6088,6107,6126,6147,6166,6186,6206,6228,6247,6267,6288,6306,6326,6346,6367,6387,6407,6427,6446,6468,6488,6508,6526,6547,6568,6586,6607,6627,6646,6667,6687,6707,6727,6748,6768,6787,6807,6826,6846,6866,6888,6908,6926,6947,6967,6986,7007,7027,7046,7066,7088,7108,7128,7147,7167,7187,7208,7227,7247,7266,7287,7306,7327,7348,7367,7386,7407,7428,7448,7467,7487,7507,7528,7548,7567,7587,7607,7627,7647,7666,7687,7706,7728,7748,7767,7787,7807,7826,7847,7867,7886,7907,7927,7948,7968,7987,8006,8027,8046,8066,8088,8106,8127,8147,8167,8188,8206,8226,8248,8267,8286,8306,8327,8346,8366,8387,8407,8426,8446,8468,8487,8506,8527,8547,8567,8586,8606,8628,8647,8666,8687,8708,8726,8747,8768,8788,8808,8827,8847,8868,8887,8907,8928,8947,8967,8986,9007,9028,9046,9067,9086,9108,9127,9146,9167,9187,9206,9228,9246,9267,9287,9308,9328,9346,9367,9387,9407,9427,9447,9467,9487,9506,9528,9547,9567,9588,9607,9627,9648,9668,9686,9707,9727,9747,9766,9786,9806,9826,9847,9867,9887,9907,9926,9947,9966,9986,10007,10028,10047,10067,10087,10107,10128,10147,10167,10188,10207,10228,10247,10267,10287,10308,10328,10348,10367,10388,10406,10427,10447,10468,10487,10508,10527,10547,10567,10588,10606,10626,10647,10666,10686,10706,10727,10746,10766,10786,10808,10827,10847,10868,10888,10907,10927,10946,10967,10986,11008,11028,11046,11066,11087,11106,11127,11148,11167,11188,11207,11227,11246,11266,11287,11307,11326,11346,11367,11386,11408,11426,11447,11468,11487,11508,11527,11547,11567,11588,11608,11628,11646,11666,11686,11708,11727,11748,11766,11787,11806,11827,11848,11868,11887,11907,11927,11946,11966,11987,12008,12028,12048,12068,12087,12106,12127,12146,12166,12186,12207,12226,12247,12266,12287,12307,12327,12348,12368,12387,12406,12427,12446,12466,12488,12507,12527,12546,12566,12587,12606,12627,12648,12667,12688,12707,12726,12746,12766,12788,12807,12827,12847,12866,12886,12907,12927,12947,12966,12987,13007,13028,13047,13066,13087,13106,13127,13147,13166,13187,13208,13228,13247,13267,13286,13307,13327,13346,13367,13386,13406,13427,13446,13467,13487,13508,13526,13546,13568,13588,13608,13626,13647,13666,13687,13708,13728,13747,13766,13787,13806,13828,13846,13866,13888,13908,13926,13947,13968,13988,14007,14026,14046,14067,14088,14107,14127,14148,14166,14187,14207,14227,14246,14267,14287,14306,14326,14347,14367,14387,14406,14426,14447,14468,14487,14507,14527,14547,14566,14586,14607,14627,14646,14667,14687,14708,14727,14747,14766,14786,14808,14827,14847,14867,14886,14907,14928,14947,14966,14986,15006,15027,15046,15066,15086,15106,15127,15146,15166,15186,15207,15228,15247,15267,15287,15307,15328,15347,15367,15386,15407,15427,15446,15467,15488,15508,15527,15547,15566,15586,15606,15627,15646,15667,15687,15707,15727,15746,15767,15787,15807,15827,15848,15868,15887,15907,15927,15947,15967,15987,16007,16028,16048,16068,16087,16106,16126,16147,16166,16187,16208,16228,16247,16267,16287,16308,16327,16347,16367,16387,16406,16426,16446,16468,16487,16507,16527,16547,16568,16587,16606,16627,16648,16668,16688,16706,16727,16747,16768,16787,16806,16826,16847,16867,16887,16907,16927,16947,16967,16987,17006,17027,17048,17066,17087,17106,17127,17147,17167,17187,17207,17227,17246,17266,17287,17306,17327,17347,17367,17386,17408,17426,17447,17468,17486,17507,17527,17546,17568,17586,17606,17628,17646,17666,17687,17708,17728,17747,17766,17787,17806,17827,17848,17866,17887,17908,17928,17947,17966,17986,18007,18028,18047,18067,18087,18106,18128,18147,18166,18186,18208,18228,18247,18267,18288,18308,18326,18346,18368,18388,18408,18427,18448,18466,18487,18507,18528,18548,18567,18586,18606,18627,18647,18666,18688,18707,18727,18747,18767,18787,18808,18826,18848,18868,18887,18907,18927,18946,18967,18986,19007,19028,19048,19067,19087,19106,19126,19147,19166,19186,19208,19228,19247,19267,19288,19306,19327,19346,19366,19388,19407,19427,19446,19467,19488,19506,19526,19546,19567,19587,19606,19628,19647,19668,19686,19706,19726,19747,19767,19788,19807,19826,19847,19868,19887,19907,19927,19946,19967,19988,20007,20027,20046,20068,20088,20107,20127,20147,20166,20187,20206,20228,20246,20267,20286,20306,20327,20348,20367,20386,20406,20428,20448,20467,20486,20507,20527,20547,20567,20588,20608,20628,20647,20666,20687,20706,20728,20747,20766,20786,20807,20827,20847,20867,20886,20908,20926,20947,20968,20987,21007,21027,21046,21066,21086,21107,21127,21148,21168,21186,21207,21227,21247,21267,21286,21306,21326,21348,21366,21386,21407,21426,21446,21467,21487,21508,21528,21547,21567,21586,21607,21627,21646,21667,21686,21707,21728,21746,21766,21786,21806,21828,21846,21867,21886,21907,21927,21948,21967,21987,22007,22028,22047,22066,22086,22106,22126,22147,22166,22187,22206,22227,22246,22266,22288,22306,22327,22346,22367,22387,22407,22426,22447,22467,22486,22507,22528,22548,22566,22586,22606,22627,22647,22667,22687,22706,22727,22748,22766,22787,22807,22827,22848,22867,22886,22907,22926,22948,22967,22987,23007,23028,23047,23067,23087,23107,23127,23147,23168,23187,23207,23227,23247,23267,23287,23306,23327,23347,23367,23386,23408,23428,23448,23467,23487,23507,23528,23548,23567,23587,23606,23626,23646,23667,23687,23708,23726,23746,23766,23787,23806,23828,23848,23867,23887,23907,23928,23947,23968,23986,24007,24028,24048,24067,24088,24108,24128,24147,24167,24187,24206,24226,24247,24266,24287,24306,24326,24347,24368,24387,24408,24428,24447,24467,24487,24507,24527,24547,24567,24587,24607,24626,24648,24666,24687,24707,24728,24747,24768,24786,24806,24826,24846,24866,24887,24906,24927,24946,24967,24987,25006,25028,25046,25066,25088,25106,25127,25146,25167,25187,25206,25227,25246,25267,25288,25307,25327,25348,25366,25386,25407,25427,25447,25467,25486,25507,25527,25546,25567,25587,25608,25628,25647,25666,25687,25706,25727,25747,25768,25787,25807,25826,25846,25868,25888,25906,25926,25947,25967,25987,26007,26027,26048,26067,26086,26107,26127,26146,26167,26187,26206,26226,26246,26266,26288,26308,26327,26347,26366,26386,26407,26428,26447,26467,26486,26507,26543,26548,26568,26587,26606,26627,26647,26666,26688,26707,26727,26747,26768,26787,26808,26826,26847,26867,26888,26907,26928,26946,26967,26986,27007,27026,27046,27066,27086,27107,27126,27147,27167,27187,27208,27228,27247,27267,27287,27307,27326,27347,27367,27388,27406,27426,27446,27467,27487,27508,27526,27547,27567,27586,27606,27627,27646,27667,27687,27708,27726,27747,27767,27787,27808,27827,27847,27867,27886,27907,27927,27946,27967,27986,28007,28028,28048,28067,28087,28108,28128,28147,28167,28188,28208,28227,28247,28266,28286,28308,28327,28347,28367,28387,28407,28426,28446,28468,28487,28506,28526,28546,28566,28588,28607,28628,28647,28667,28687,28707,28726,28747,28766,28787,28808,28827,28847,28868,28886,28907,28926,28948,28967,28987,29007,29026,29046,29067,29087,29106,29127,29147,29167,29187,29207,29226,29247,29267,29286,29308,29327,29348,29367,29387,29406,29427,29448,29466,29487,29506,29527,29547,29566,29587,29606,29627,29648,29667,29687,29706,29727,29748,29767,29787,29806,29828,29847,29867,29887,29907,29926,29946,29966,29986,30006,30028,30046,30067,30086,30107,30128,30146,30166,30187,30206,30227,30248,30266,30287,30306,30327,30346,30368,30387,30407,30427,30446,30467,30486,30506,30528,30548,30568,30587,30606,30627,30648,30666,30686,30706,30727,30746,30768,30786,30806,30827,30848,30868,30887,30906,30926,30946,30966,30986,31007,31027,31047,31067,31087,31107,31128,31147,31167,31186,31207,31227,31247,31266,31288,31306,31326,31347,31367,31387,31407,31426,31447,31468,31487,31506,31527,31547,31566,31586,31606,31628,31646,31666,31686,31707,31727,31747,31766,31787,31807,31826,31847,31866,31887,31907,31927,31946,31966,31987,32007,32026,32048,32066,32087,32108,32126,32146,32168,32186,32207,32227,32248,32266,32288,32307,32326,32348,32367,32387,32408,32427,32447,32467,32486,32507,32526,32546,32567,32586,32606,32628,32647,32667,32686,32707,32726,32748,32768,32787,32807,32826,32848,32866,32886,32907,32927,32946,32968,32986,33007,33027,33046,33067,33087,33106,33128,33146,33167,33187,33207,33228,33247,33267,33286,33308,33328,33347,33367,33388,33407,33427,33446,33467,33486,33507,33527,33546,33567,33586,33606,33627,33647,33666,33687,33706,33727,33747,33766,33788,33808,33827,33847,33867,33888,33907,33927,33946,33967,33986,34008,34026,34047,34066,34087,34108,34127,34147,34167,34186,34208,34227,34247,34266,34288,34308,34328,34347,34367,34386,34407,34428,34447,34468,34488,34508,34527,34547,34567,34588,34606,34628,34647,34667,34687,34707,34726,34747,34767,34787,34807,34826,34847,34867,34888,34906,34926,34947,34968,34987,35007,35027,35047,35068,35087,35106,35127,35146,35166,35188,35208,35227,35247,35267,35287,35308,35328,35347,35367,35386,35406,35427,35446,35468,35488,35507,35527,35546,35567,35587,35606,35627,35646,35668,35686,35707,35727,35746,35768,35787,35806,35827,35848,35866,35886,35907,35927,35946,35968,35988,36008,36027,36046,36067,36087,36107,36128,36148,36168,36187,36207,36227,36247,36268,36286,36306,36326,36346,36368,36388,36407,36426,36447,36468,36488,36507,36527,36546,36567,36587,36606,36628,36647,36667,36687,36707,36728,36746,36766,36787,36807,36828,36847,36867,36887,36907,36926,36947,36966,36986,37007,37027,37048,37067,37086,37106,37126,37146,37166,37187,37207,37228,37246,37267,37287,37307,37327,37347,37366,37386,37407,37427,37446,37468,37486,37506,37528,37548,37567,37588,37607,37628,37646,37668,37687,37707,37727,37746,37767,37787,37807,37826,37848,37866,37886,37906,37928,37947,37967,37987,38007,38027,38047,38066,38087,38106,38126,38147,38166,38186,38207,38226,38246,38268,38288,38307,38326,38346,38366,38388,38406,38426,38446,38468,38487,38508,38526,38547,38567,38586,38606,38627,38648,38667,38686,38707,38726,38747,38767,38786,38807,38826,38847,38868,38887,38908,38926,38947,38967,38988,39008,39026,39046,39067,39086,39106,39126,39147,39167,39186,39206,39227,39246,39266,39287,39308,39327,39347,39367,39388,39407,39427,39446,39467,39487,39508,39527,39546,39566,39587,39606,39627,39648,39667,39686,39706,39727,39748,39768,39788,39806,39826,39846,39868,39888,39906,39927,39946,39966,39988,40008,40027,40046,40067,40088,40107,40127,40147,40166,40187,40207,40227,40246,40267,40287,40307,40326,40347,40367,40388,40407,40426,40446,40468,40487,40506,40528,40548,40567,40588,40608,40627,40646,40667,40688,40706,40727,40747,40767,40786,40806,40826,40847,40868,40888,40906,40927,40947,40968,40987,41006,41027,41046,41067,41088,41108,41127,41146,41167,41187,41207,41227,41246,41267,41287,41307,41327,41347,41367,41387,41408,41426,41447,41468,41488,41507,41527,41546,41567,41586,41608,41627,41647,41667,41686,41707,41728,41748,41767,41787,41807,41828,41846,41866,41887,41908,41928,41947,41966,41987,42006,42027,42048,42067,42086,42106,42127,42148,42167,42187,42206,42227,42247,42266,42286,42306,42327,42347,42367,42388,42407,42426,42446,42468,42487,42506,42528,42547,42567,42586,42606,42626,42646,42667,42688,42707,42726,42747,42766,42787,42807,42826,42847,42867,42886,42908,42928,42947,42967,42987,43006,43027,43047,43066,43086,43108,43128,43148,43167,43187,43208,43228,43247,43267,43286,43307,43328,43347,43367,43387,43408,43428,43446,43467,43488,43507,43526,43547,43568,43587,43607,43626,43646,43666,43688,43708,43728,43747,43766,43787,43806,43828,43847,43866,43886,43908,43926,43947,43967,43987,44007,44028,44047,44066,44087,44108,44127,44147,44167,44188,44206,44226,44248,44266,44287,44306,44326,44348,44368,44387,44407,44427,44446,44467,44486,44508,44526,44546,44566,44587,44606,44627,44646,44666,44687,44707,44727,44748,44767,44788,44807,44827,44846,44868,44887,44906,44926,44946,44967,44987,45007,45028,45048,45066,45087,45106,45127,45147,45166,45188,45208,45228,45247,45266,45287,45308,45327,45347,45366,45386,45406,45427,45446,45467,45487,45508,45527,45546,45566,45587,45606,45627,45647,45667,45686,45707,45726,45746,45767,45787,45806,45827,45846,45866,45886,45908,45928,45948,45967,45987,46008,46026,46046,46066,46087,46108,46127,46146,46167,46188,46208,46227,46247,46266,46286,46306,46326,46346,46366,46387,46407,46427,46446,46467,46487,46506,46528,46548,46567,46586,46606,46626,46648,46667,46688,46708,46727,46746,46766,46788,46806,46827,46846,46866,46888,46908,46927,46946,46967,46988,47006,47027,47047,47066,47086,47108,47127,47146,47167,47187,47207,47226,47246,47268,47287,47307,47326,47346,47368,47388,47408,47427,47448,47467,47487,47506,47528,47547,47566,47586,47606,47627,47647,47668,47687,47707,47727,47746,47766,47788,47807,47827,47846,47868,47887,47906,47928,47946,47966,47986,48007,48026,48046,48066,48088,48108,48127,48146,48166,48188,48208,48228,48246,48267,48287,48308,48327,48347,48367,48386,48407,48426,48446,48466,48488,48507,48527,48546,48567,48587,48608,48627,48646,48666,48688,48707,48728,48747,48767,48787,48806,48826,48847,48868,48888,48906,48927,48946,48967,48987,49007,49028,49047,49068,49087,49106,49127,49146,49166,49187,49206,49228,49246,49267,49286,49306,49328,49347,49367,49387,49408,49427,49447,49466,49487,49507,49528,49547,49567,49586,49606,49627,49646,49666,49688,49707,49726,49747,49766,49786,49807,49827,49848,49867,49887,49906,49927,49946,49967,49986,50008,50028,50047,50066,50087,50106,50127,50147,50167,50188,50207,50226,50247,50267,50287,50306,50326,50347,50367,50386,50407,50427,50447,50467,50487,50507,50527,50548,50568,50587,50606,50626,50647,50666,50687,50707,50728,50746,50767,50787,50807,50828,50847,50866,50887,50908,50927,50947,50968,50987,51007,51027,51047,51068,51086,51107,51127,51146,51166,51188,51208,51228,51247,51267,51286,51307,51326,51347,51368,51387,51408,51426,51446,51467,51487,51508,51528,51548,51568,51587,51606,51627,51647,51667,51686,51707,51726,51746,51767,51787,51807,51827,51847,51868,51886,51907,51926,51946,51966,51986,52006,52027,52046,52066,52087,52107,52127,52146,52167,52186,52208,52228,52247,52266,52287,52308,52326,52348,52366,52387,52407,52427,52447,52467,52487,52507,52527,52547,52568,52587,52607,52626,52647,52667,52688,52706,52727,52746,52767,52788,52808,52827,52846,52867,52886,52908,52927,52947,52966,52987,53008,53026,53047,53067,53087,53107,53127,53147,53167,53187,53206,53226,53248,53266,53287,53308,53326,53348,53366,53387,53407,53428,53446,53468,53486,53507,53527,53546,53568,53587,53606,53627,53647,53668,53686,53707,53727,53746,53766,53786,53806,53826,53847,53867,53886,53907,53928,53947,53966,53987,54006,54026,54046,54068,54087,54107,54127,54147,54166,54186,54207,54226,54247,54268,54287,54306,54326,54347,54367,54387,54408,54428,54447,54466,54486,54506,54526,54546,54567,54588,54607,54628,54647,54667,54687,54708,54728,54747,54767,54788,54808,54826,54847,54867,54886,54908,54928,54947,54967,54987,55007,55027,55047,55066,55088,55107,55127,55147,55166,55187,55207,55227,55247,55268,55287,55306,55326,55347,55368,55387,55407,55427,55446,55467,55487,55508,55526,55546,55567,55586,55607,55627,55647,55667,55687,55707,55727,55747,55767,55786,55808,55827,55846,55866,55888,55908,55928,55948,55966,55987,56007,56027,56047,56067,56087,56106,56127,56147,56166,56186,56207,56228,56248,56267,56286,56307,56326,56348,56367,56387,56407,56427,56446,56466,56487,56508,56527,56547,56566,56587,56606,56626,56647,56666,56688,56707,56727,56746,56766,56788,56807,56826,56847,56867,56887,56907,56926,56946,56967,56986,57006,57026,57047,57066,57087,57106,57127,57147,57165,57187,57207,57226,57247,57266,57285,57307,57326,57346,57366,57386,57407,57427,57446,57466,57486,57505,57526,57546,57566,57586,57606,57627,57647,57667,57685,57707,57727,57747,57767,57785,57806,57826,57847,57867,57886,57906,57926,57946,57967,57986,58006,58025,58046,58067,58085,58107,58127,58147],"xSR":741.5,"ySR":469.95,"xT1":424.9,"yT1":0,"xT2":1058.1,"yT2":0,"toosoon":0,"cond_shown":"randomdotsizeEA","ratio_trial":500,"smaller_num":"9","larger_num":"18","correct_side":1,"subjID":"elianarinconacosta19","gender":"1","age":"9","school":"1"},{"start_time":1552310207291,"click_time":1552310208549,"finger_time":1552310208110,"fix_duration":1380.2944484964646,"trial":4,"RT":819,"MT":439,"sideResp":1,"stimulus":"img/250/randomdotsizeEA/L/3_Ratio_250_L_8_R_2.png","xmouse":[792,792,792,792,792,792,792,792,792,792,792,792,792,792,792,792,792,792,792,792,792,792,792,792,792,792,792,792,792,791,791,791,791,791,791,791,791,791,791,788,762,723,707,697,683,667,656,639,623,611,588,581,574,564,557,532,517,507,501,495,488,485,483],"ymouse":[486,486,486,486,486,486,486,486,486,486,486,486,486,486,486,486,486,486,486,486,486,486,486,486,486,486,486,486,486,486,486,486,486,486,486,486,486,486,486,484,445,378,352,335,318,290,272,252,234,225,212,210,206,201,197,178,165,152,136,123,107,102,99],"timestamp_mouse":[18,46,59,78,97,119,138,159,178,198,219,238,259,279,299,319,339,359,379,398,419,439,459,478,499,519,539,559,578,599,618,638,658,679,698,718,739,759,777,798,819,838,858,879,898,918,938,957,978,998,1018,1038,1058,1078,1099,1118,1138,1159,1178,1199,1217,1238,1258],"xSR":741.5,"ySR":469.95,"xT1":424.9,"yT1":0,"xT2":1058.1,"yT2":0,"toosoon":0,"cond_shown":"randomdotsizeEA","ratio_trial":250,"smaller_num":"2","larger_num":"8","correct_side":1,"subjID":"elianarinconacosta19","gender":"1","age":"9","school":"1"},{"start_time":1552310214754,"click_time":1552310216029,"finger_time":1552310215548,"fix_duration":743.765518915552,"trial":5,"RT":794,"MT":481,"sideResp":2,"stimulus":"img/900/equaldotsize/L/8_Ratio_900_L_20_R_18.png","xmouse":[757,757,757,757,757,757,757,757,757,757,757,757,757,757,757,757,757,757,757,757,757,757,757,757,757,757,757,757,757,757,757,757,757,757,757,757,757,757,766,784,802,832,909,929,943,954,961,969,969,969,969,969,969,969,969,969,969,969,969,984,1005,1008,1044,1069],"ymouse":[516,516,516,516,516,516,516,516,516,516,516,516,516,516,516,516,516,516,516,516,516,516,516,516,516,516,516,516,516,516,516,516,516,516,516,516,516,516,497,467,439,388,276,237,195,150,118,93,93,93,93,93,93,93,93,93,93,93,93,92,90,90,90,88],"timestamp_mouse":[16,36,69,75,95,115,135,155,175,195,215,235,256,275,295,315,335,355,375,394,416,436,455,476,496,516,535,556,575,596,615,636,655,676,696,715,736,755,776,794,816,835,856,875,895,915,936,956,975,995,1015,1035,1055,1075,1096,1116,1135,1155,1175,1195,1215,1234,1257,1274],"xSR":741.5,"ySR":469.95,"xT1":424.9,"yT1":0,"xT2":1058.1,"yT2":0,"toosoon":0,"cond_shown":"equaldotsize","ratio_trial":900,"smaller_num":"18","larger_num":"20","correct_side":1,"subjID":"elianarinconacosta19","gender":"1","age":"9","school":"1"},{"start_time":1552310230332,"click_time":1552310231308,"finger_time":1552310230809,"fix_duration":802.5613993968063,"trial":6,"RT":477,"MT":499,"sideResp":1,"stimulus":"img/500/equaldotanddens/L/13_Ratio_500_L_12_R_6.png","xmouse":[803,803,803,803,803,803,803,803,803,803,803,803,803,803,803,803,803,803,803,803,803,787,772,753,733,670,623,571,540,515,492,482,477,471,465,458,441,428,418,412,407,406,406,406,406,413,416,423,430],"ymouse":[527,527,527,527,527,527,527,527,527,527,527,527,527,527,527,527,527,527,527,527,527,502,483,464,445,389,351,318,300,280,257,240,227,213,198,183,159,150,141,134,115,110,107,105,100,87,81,73,67],"timestamp_mouse":[17,36,64,76,97,117,137,157,177,197,215,236,257,276,296,317,336,356,377,397,416,436,456,477,496,517,536,556,576,596,616,637,656,676,696,716,736,757,776,796,817,837,856,877,897,916,936,956,976],"xSR":741.5,"ySR":469.95,"xT1":424.9,"yT1":0,"xT2":1058.1,"yT2":0,"toosoon":0,"cond_shown":"equaldotanddens","ratio_trial":500,"smaller_num":"6","larger_num":"12","correct_side":1,"subjID":"elianarinconacosta19","gender":"1","age":"9","school":"1"},{"start_time":1552310233058,"click_time":1552310234550,"finger_time":1552310233908,"fix_duration":767.4664463375979,"trial":7,"RT":850,"MT":642,"sideResp":1,"stimulus":"img/750/randomdotsizeEA/L/9_Ratio_750_L_4_R_3.png","xmouse":[818,818,818,818,818,818,818,818,818,818,818,818,818,818,818,818,818,818,818,818,818,818,818,818,818,818,818,818,818,818,818,818,818,818,818,818,818,818,818,818,818,818,814,810,808,801,796,789,781,754,734,713,689,654,506,440,383,346,330,323,323,323,324,324,328,335,339,343,349,355,382,399,419,424,429],"ymouse":[511,511,511,511,511,511,511,511,511,511,511,511,511,511,511,511,511,511,511,511,511,511,511,511,511,511,511,511,511,511,511,511,511,511,511,511,511,511,511,511,511,511,463,436,420,395,385,378,371,354,345,337,325,311,241,207,180,161,151,144,142,139,134,133,126,117,113,107,100,96,84,76,67,64,61],"timestamp_mouse":[9,38,50,71,90,111,131,150,171,190,211,230,251,270,291,310,331,350,371,391,411,430,451,470,491,511,530,550,570,590,610,631,650,670,690,710,731,750,771,791,810,831,850,870,890,911,930,950,970,992,1011,1030,1050,1071,1092,1110,1130,1150,1170,1192,1210,1230,1250,1271,1290,1311,1330,1351,1370,1390,1410,1430,1450,1471,1491],"xSR":741.5,"ySR":469.95,"xT1":424.9,"yT1":0,"xT2":1058.1,"yT2":0,"toosoon":0,"cond_shown":"randomdotsizeEA","ratio_trial":750,"smaller_num":"3","larger_num":"4","correct_side":1,"subjID":"elianarinconacosta19","gender":"1","age":"9","school":"1"},{"start_time":1552310264508,"click_time":1552310280808,"finger_time":1552310279889,"fix_duration":1239.4203679531681,"trial":8,"RT":15381,"MT":919,"sideResp":1,"stimulus":"img/900/equaldotanddens/R/14_Ratio_900_L_18_R_20.png","xmouse":[819,819,819,819,819,820,820,820,820,820,820,820,820,820,820,820,820,820,820,820,820,820,820,820,820,820,820,820,820,820,820,820,820,820,820,820,820,820,820,820,820,820,820,820,820,820,820,820,820,820,820,820,820,820,820,820,820,820,820,820,820,820,820,820,820,820,820,820,820,820,820,820,820,820,820,820,820,820,820,820,820,820,820,820,820,820,820,820,820,820,820,820,820,820,820,820,820,820,820,820,820,820,820,820,820,820,820,820,820,820,820,820,820,820,820,820,820,820,820,820,820,820,820,820,820,820,820,820,820,820,820,820,820,820,820,820,820,820,820,820,820,820,820,820,820,820,820,820,820,820,820,820,820,820,820,820,820,820,820,820,820,820,820,820,820,820,820,820,820,820,820,820,820,820,820,820,820,820,820,820,820,820,820,820,820,820,820,820,820,820,820,820,820,820,820,820,820,820,820,820,820,820,820,820,820,820,820,820,820,820,820,820,820,820,820,820,820,820,820,820,820,820,820,820,820,820,820,820,820,820,820,820,820,820,820,820,820,820,820,820,820,820,820,820,820,820,820,820,820,820,820,820,820,820,820,820,820,820,820,820,820,820,820,820,820,820,820,820,820,820,820,820,820,820,820,820,820,820,820,820,820,820,820,820,820,820,820,820,820,820,820,820,820,820,820,820,820,820,820,820,820,820,820,820,820,820,820,820,820,820,820,820,820,820,820,820,820,820,820,820,820,820,820,820,820,820,820,820,820,820,820,820,820,820,820,820,820,820,820,820,820,820,820,820,820,820,820,820,820,820,820,820,820,820,820,820,820,820,820,820,820,820,820,820,820,820,820,820,820,820,820,820,820,820,820,820,820,820,820,820,820,820,820,820,820,820,820,820,820,820,820,820,820,820,820,820,820,820,820,820,820,820,820,820,820,820,820,820,820,820,820,820,820,820,820,820,820,820,820,820,820,820,820,820,820,820,820,820,820,820,820,820,820,820,820,820,820,820,820,820,820,820,820,820,820,820,820,820,820,820,820,820,820,820,820,820,820,820,820,820,820,820,820,820,820,820,820,820,820,820,820,820,820,820,820,820,820,820,820,820,820,820,820,820,820,820,820,820,820,820,820,820,820,820,820,820,820,820,820,820,820,820,820,820,820,820,820,820,820,820,820,820,820,820,820,820,820,820,820,820,820,820,820,820,820,820,820,820,820,820,820,820,820,820,820,820,820,820,820,820,820,820,820,820,820,820,820,820,820,820,820,820,820,820,820,820,820,820,820,820,820,820,820,820,820,820,820,820,820,820,820,820,820,820,820,820,820,820,820,820,820,820,820,820,820,820,820,820,820,820,820,820,820,820,820,820,820,820,820,820,820,820,820,820,820,820,820,820,820,820,820,820,820,820,820,820,820,820,820,820,820,820,820,820,820,820,820,820,820,820,820,820,820,820,820,820,820,820,820,820,820,820,820,820,820,820,820,820,820,820,820,820,820,820,820,820,820,820,820,820,820,820,820,820,820,820,820,820,820,820,820,820,820,820,820,820,820,820,820,820,820,820,820,820,820,820,820,820,820,820,820,820,820,820,820,820,820,820,820,820,820,820,820,820,820,820,820,820,820,820,820,820,820,820,820,820,820,820,820,820,820,820,820,820,820,820,820,820,820,820,820,820,820,820,820,820,820,820,820,820,820,820,820,820,820,820,820,820,820,820,820,820,820,820,820,820,820,820,825,829,830,831,831,831,834,836,836,836,838,843,846,849,852,847,850,847,839,837,831,832,833,825,825,824,825,828,828,829,827,813,802,785,764,714,673,620,550,481,400,397,397,397,397,394,391,386,383,381,383,393,401,412,424,446,457,471],"ymouse":[524,524,524,524,524,525,525,525,525,525,525,525,525,525,525,525,525,525,525,525,525,525,525,525,525,525,525,525,525,525,525,525,525,525,525,525,525,525,525,525,525,525,525,525,525,525,525,525,525,525,525,525,525,525,525,525,525,525,525,525,525,525,525,525,525,525,525,525,525,525,525,525,525,525,525,525,525,525,525,525,525,525,525,525,525,525,525,525,525,525,525,525,525,525,525,525,525,525,525,525,525,525,525,525,525,525,525,525,525,525,525,525,525,525,525,525,525,525,525,525,525,525,525,525,525,525,525,525,525,525,525,525,525,525,525,525,525,525,525,525,525,525,525,525,525,525,525,525,525,525,525,525,525,525,525,525,525,525,525,525,525,525,525,525,525,525,525,525,525,525,525,525,525,525,525,525,525,525,525,525,525,525,525,525,525,525,525,525,525,525,525,525,525,525,525,525,525,525,525,525,525,525,525,525,525,525,525,525,525,525,525,525,525,525,525,525,525,525,525,525,525,525,525,525,525,525,525,525,525,525,525,525,525,525,525,525,525,525,525,525,525,525,525,525,525,525,525,525,525,525,525,525,525,525,525,525,525,525,525,525,525,525,525,525,525,525,525,525,525,525,525,525,525,525,525,525,525,525,525,525,525,525,525,525,525,525,525,525,525,525,525,525,525,525,525,525,525,525,525,525,525,525,525,525,525,525,525,525,525,525,525,525,525,525,525,525,525,525,525,525,525,525,525,525,525,525,525,525,525,525,525,525,525,525,525,525,525,525,525,525,525,525,525,525,525,525,525,525,525,525,525,525,525,525,525,525,525,525,525,525,525,525,525,525,525,525,525,525,525,525,525,525,525,525,525,525,525,525,525,525,525,525,525,525,525,525,525,525,525,525,525,525,525,525,525,525,525,525,525,525,525,525,525,525,525,525,525,525,525,525,525,525,525,525,525,525,525,525,525,525,525,525,525,525,525,525,525,525,525,525,525,525,525,525,525,525,525,525,525,525,525,525,525,525,525,525,525,525,525,525,525,525,525,525,525,525,525,525,525,525,525,525,525,525,525,525,525,525,525,525,525,525,525,525,525,525,525,525,525,525,525,525,525,525,525,525,525,525,525,525,525,525,525,525,525,525,525,525,525,525,525,525,525,525,525,525,525,525,525,525,525,525,525,525,525,525,525,525,525,525,525,525,525,525,525,525,525,525,525,525,525,525,525,525,525,525,525,525,525,525,525,525,525,525,525,525,525,525,525,525,525,525,525,525,525,525,525,525,525,525,525,525,525,525,525,525,525,525,525,525,525,525,525,525,525,525,525,525,525,525,525,525,525,525,525,525,525,525,525,525,525,525,525,525,525,525,525,525,525,525,525,525,525,525,525,525,525,525,525,525,525,525,525,525,525,525,525,525,525,525,525,525,525,525,525,525,525,525,525,525,525,525,525,525,525,525,525,525,525,525,525,525,525,525,525,525,525,525,525,525,525,525,525,525,525,525,525,525,525,525,525,525,525,525,525,525,525,525,525,525,525,525,525,525,525,525,525,525,525,525,525,525,525,525,525,525,525,525,525,525,525,525,525,525,525,525,525,525,525,525,525,525,525,525,525,525,525,525,525,525,525,525,525,525,525,525,525,525,525,525,525,525,525,525,525,525,525,525,525,525,525,525,525,525,525,525,525,525,525,525,525,525,525,525,525,525,525,525,525,525,525,525,525,525,525,525,525,525,525,524,522,520,520,518,518,517,514,513,502,488,469,451,425,411,393,388,376,369,362,358,354,340,338,338,338,338,338,338,332,316,305,292,286,292,312,351,400,448,489,490,490,481,452,376,348,322,301,282,256,237,222,204,184,135,109,80],"timestamp_mouse":[10,20,40,68,80,101,121,141,161,180,200,221,241,261,281,300,320,341,361,379,401,421,441,461,480,500,521,541,560,580,601,620,641,661,680,700,720,741,760,781,800,820,841,861,880,901,920,940,961,981,1001,1020,1040,1060,1081,1100,1120,1140,1161,1180,1201,1221,1241,1259,1280,1300,1321,1341,1360,1381,1400,1421,1441,1461,1480,1501,1520,1540,1561,1581,1600,1620,1640,1661,1680,1700,1720,1741,1760,1780,1800,1821,1840,1861,1881,1900,1921,1940,1961,1980,2001,2021,2040,2060,2081,2100,2120,2141,2160,2180,2200,2221,2240,2260,2281,2300,2320,2341,2360,2380,2400,2420,2440,2461,2480,2501,2521,2541,2560,2580,2600,2620,2641,2661,2681,2701,2720,2740,2760,2781,2800,2820,2841,2861,2881,2900,2920,2941,2961,2980,3001,3020,3041,3061,3081,3100,3120,3141,3161,3181,3201,3220,3240,3261,3280,3301,3321,3340,3361,3380,3400,3420,3440,3461,3480,3499,3521,3540,3560,3581,3600,3621,3641,3660,3680,3701,3721,3740,3761,3781,3801,3820,3841,3860,3881,3900,3921,3940,3960,3980,4000,4020,4040,4061,4081,4101,4120,4141,4161,4181,4201,4220,4241,4261,4280,4301,4321,4341,4361,4381,4400,4420,4440,4461,4480,4501,4520,4541,4561,4581,4600,4621,4641,4661,4680,4700,4721,4741,4761,4781,4800,4820,4841,4861,4881,4900,4921,4941,4961,4982,5000,5020,5041,5060,5081,5101,5121,5140,5161,5180,5201,5220,5241,5260,5281,5301,5321,5341,5361,5380,5402,5421,5441,5461,5481,5500,5521,5541,5560,5581,5601,5620,5640,5661,5680,5701,5720,5740,5760,5780,5800,5821,5841,5861,5880,5900,5920,5940,5960,5980,6001,6019,6041,6061,6080,6101,6121,6141,6160,6180,6201,6220,6241,6261,6281,6300,6320,6341,6360,6380,6401,6421,6440,6460,6480,6501,6520,6541,6561,6580,6600,6621,6641,6661,6681,6700,6721,6740,6761,6780,6800,6820,6841,6860,6881,6900,6920,6941,6960,6980,7001,7021,7041,7060,7081,7101,7120,7141,7160,7181,7201,7220,7241,7261,7280,7301,7320,7341,7361,7381,7401,7421,7441,7461,7480,7500,7520,7541,7561,7581,7601,7620,7641,7661,7680,7701,7720,7741,7760,7780,7801,7821,7840,7860,7880,7900,7920,7940,7960,7980,8001,8020,8041,8061,8080,8101,8120,8141,8160,8180,8200,8221,8241,8261,8281,8301,8321,8341,8360,8380,8401,8421,8441,8460,8480,8501,8521,8541,8561,8581,8600,8621,8641,8661,8680,8701,8720,8741,8760,8781,8801,8820,8841,8861,8881,8900,8921,8940,8960,8981,9001,9020,9041,9061,9081,9100,9120,9140,9161,9180,9200,9220,9240,9260,9281,9301,9321,9341,9360,9380,9401,9420,9440,9460,9480,9500,9521,9541,9560,9581,9601,9620,9641,9660,9679,9701,9720,9741,9761,9780,9801,9820,9840,9860,9881,9900,9920,9940,9960,9981,10000,10021,10040,10061,10081,10101,10121,10141,10160,10180,10200,10220,10241,10260,10281,10301,10321,10341,10361,10381,10400,10421,10440,10461,10481,10500,10521,10541,10560,10581,10600,10620,10641,10660,10680,10701,10721,10740,10761,10781,10801,10821,10840,10861,10880,10900,10921,10940,10961,10982,11000,11021,11040,11060,11080,11100,11121,11140,11161,11180,11200,11221,11240,11260,11281,11300,11320,11340,11360,11380,11401,11421,11440,11461,11480,11500,11521,11540,11560,11581,11601,11620,11640,11661,11680,11700,11721,11740,11761,11781,11801,11820,11840,11861,11881,11900,11921,11940,11961,11982,12001,12020,12040,12061,12079,12101,12120,12140,12159,12180,12200,12221,12240,12261,12280,12301,12320,12341,12361,12381,12400,12421,12440,12461,12480,12501,12521,12540,12560,12580,12601,12621,12640,12661,12681,12701,12721,12741,12760,12780,12800,12821,12840,12860,12881,12900,12921,12940,12961,12980,13000,13020,13041,13060,13081,13101,13120,13141,13161,13180,13200,13221,13240,13260,13280,13301,13321,13341,13360,13381,13400,13421,13440,13459,13479,13501,13520,13541,13561,13581,13601,13621,13641,13660,13681,13701,13721,13740,13761,13781,13800,13820,13841,13861,13881,13900,13921,13940,13960,13981,14001,14021,14040,14061,14080,14101,14120,14141,14160,14180,14200,14221,14240,14261,14281,14301,14321,14341,14360,14381,14401,14421,14440,14460,14481,14500,14520,14541,14561,14581,14601,14620,14641,14661,14680,14700,14721,14741,14761,14780,14800,14820,14841,14861,14881,14900,14920,14940,14961,14980,15001,15020,15040,15060,15081,15100,15120,15139,15160,15180,15200,15220,15240,15261,15280,15300,15321,15340,15360,15381,15400,15421,15440,15460,15480,15500,15520,15541,15560,15580,15600,15620,15640,15660,15680,15700,15721,15740,15760,15780,15800,15820,15840,15861,15880,15900,15921,15941,15960,15981,16001,16021,16041,16060,16081,16101,16120,16141,16160,16180,16199,16221,16241,16260,16280,16300],"xSR":741.5,"ySR":469.95,"xT1":424.9,"yT1":0,"xT2":1058.1,"yT2":0,"toosoon":0,"cond_shown":"equaldotanddens","ratio_trial":900,"smaller_num":"18","larger_num":"20","correct_side":2,"subjID":"elianarinconacosta19","gender":"1","age":"9","school":"1"},{"start_time":1552310289723,"click_time":1552310291973,"finger_time":1552310291873,"fix_duration":1249.4822921776654,"trial":9,"RT":2150,"MT":100,"sideResp":1,"stimulus":"img/900/equaldotsize/R/13_Ratio_900_L_18_R_20.png","xmouse":[760,760,760,760,760,760,760,760,760,760,760,760,760,760,760,760,760,760,760,760,760,760,760,760,760,760,760,760,760,760,760,760,760,760,760,760,760,760,760,760,760,760,760,760,760,760,760,760,760,760,760,760,760,760,760,760,760,760,760,760,760,760,760,760,760,760,760,760,760,760,760,760,760,760,760,760,760,760,760,760,760,760,760,760,760,760,760,760,760,760,760,760,760,760,760,760,760,760,760,760,760,760,760,760,760,760,748,733,661,616,567,530,503],"ymouse":[558,558,558,558,558,558,558,558,558,549,542,537,534,530,530,530,530,530,530,530,530,530,530,530,530,530,530,530,530,530,530,530,530,530,530,530,530,530,530,530,530,530,530,530,530,530,530,530,530,530,530,530,530,530,530,530,530,530,530,530,530,530,530,530,530,530,530,530,530,530,530,530,530,530,529,529,529,529,529,529,529,529,529,529,529,529,529,529,529,529,529,529,529,529,529,529,529,529,529,529,529,529,529,529,529,529,494,455,323,233,143,66,12],"timestamp_mouse":[10,30,51,71,90,110,131,151,172,191,211,230,251,270,290,311,331,350,370,391,411,430,452,471,490,511,532,551,571,591,610,631,650,671,690,711,731,751,770,790,812,832,851,870,891,910,930,951,971,991,1011,1030,1051,1071,1091,1111,1131,1150,1171,1190,1212,1231,1250,1270,1291,1310,1330,1350,1370,1391,1410,1431,1451,1470,1491,1511,1530,1551,1570,1591,1611,1630,1651,1671,1690,1711,1731,1752,1770,1790,1811,1832,1851,1871,1890,1911,1931,1950,1970,1991,2011,2031,2051,2071,2091,2111,2130,2150,2171,2190,2210,2231,2250],"xSR":741.5,"ySR":469.95,"xT1":424.9,"yT1":0,"xT2":1058.1,"yT2":0,"toosoon":0,"cond_shown":"equaldotsize","ratio_trial":900,"smaller_num":"18","larger_num":"20","correct_side":2,"subjID":"elianarinconacosta19","gender":"1","age":"9","school":"1"},{"start_time":1552310307537,"click_time":1552310309033,"finger_time":1552310308493,"fix_duration":701.4093486286146,"trial":10,"RT":956,"MT":540,"sideResp":2,"stimulus":"img/250/equaldotsize/R/11_Ratio_250_L_3_R_12.png","xmouse":[761,761,761,761,761,761,761,761,761,761,761,761,761,761,761,761,761,761,761,761,761,761,761,761,761,761,761,761,761,761,761,761,761,761,761,761,761,761,761,761,761,761,761,765,787,813,832,855,885,919,919,919,919,919,920,921,921,924,930,947,953,956,963,968,982,989,992,995,1001,1019,1027,1036,1045,1050,1059],"ymouse":[542,542,542,542,542,542,542,542,542,542,542,542,542,542,542,542,542,542,542,542,542,542,542,542,542,542,542,542,542,542,542,542,542,542,542,542,542,542,542,542,542,542,542,541,522,496,476,453,428,392,392,392,392,392,378,352,330,312,296,280,275,273,272,271,269,266,264,254,241,207,186,164,142,122,94],"timestamp_mouse":[16,36,56,76,97,116,136,156,178,197,216,237,257,276,297,317,336,356,377,397,418,436,457,476,497,517,536,556,576,596,617,637,657,677,696,717,737,757,776,797,816,836,856,877,896,916,936,956,976,997,1017,1036,1057,1076,1097,1117,1136,1157,1176,1196,1216,1237,1256,1277,1296,1316,1336,1357,1376,1396,1416,1436,1457,1476,1496],"xSR":741.5,"ySR":469.95,"xT1":424.9,"yT1":0,"xT2":1058.1,"yT2":0,"toosoon":0,"cond_shown":"equaldotsize","ratio_trial":250,"smaller_num":"3","larger_num":"12","correct_side":2,"subjID":"elianarinconacosta19","gender":"1","age":"9","school":"1"},{"start_time":1552310338697,"click_time":1552310339813,"finger_time":1552310339595,"fix_duration":640.9821642909413,"trial":11,"RT":898,"MT":218,"sideResp":2,"stimulus":"img/500/randomdotsizeEA/R/6_Ratio_500_L_9_R_18.png","xmouse":[796,796,796,796,796,796,796,796,796,796,796,796,796,796,796,796,796,796,796,796,796,796,796,796,796,796,796,796,796,796,796,796,796,796,796,796,796,796,796,796,796,796,796,797,860,922,999,1049,1071,1090,1094,1097,1101,1106,1114,1127],"ymouse":[538,538,538,538,538,538,538,538,538,538,538,538,538,538,538,538,538,538,538,538,538,538,538,538,538,538,538,538,538,538,538,538,538,538,538,538,538,538,538,538,538,538,538,531,458,401,327,265,228,175,159,150,139,131,119,95],"timestamp_mouse":[17,37,60,78,97,116,137,158,177,196,217,236,258,276,296,316,338,356,377,396,416,436,456,478,497,517,537,556,577,597,617,636,657,676,697,716,737,756,778,798,817,837,857,877,898,917,937,957,976,998,1016,1038,1056,1077,1096,1116],"xSR":741.5,"ySR":469.95,"xT1":424.9,"yT1":0,"xT2":1058.1,"yT2":0,"toosoon":0,"cond_shown":"randomdotsizeEA","ratio_trial":500,"smaller_num":"9","larger_num":"18","correct_side":2,"subjID":"elianarinconacosta19","gender":"1","age":"9","school":"1"},{"start_time":1552310343439,"click_time":1552310348399,"finger_time":1552310347133,"fix_duration":1244.9059911788336,"trial":12,"RT":3694,"MT":1266,"sideResp":1,"stimulus":"img/250/equaldotsize/L/15_Ratio_250_L_12_R_3.png","xmouse":[751,751,751,751,751,751,751,751,751,751,751,751,751,751,751,751,751,751,751,751,751,751,751,751,750,749,749,749,749,749,749,749,749,749,749,749,749,749,749,749,749,749,749,749,749,749,749,748,748,748,748,748,748,748,748,748,748,748,748,748,748,748,748,748,748,748,748,748,748,748,748,748,748,748,748,748,748,748,748,748,748,748,748,748,748,748,748,748,748,748,748,748,748,748,748,748,748,748,748,748,748,748,748,748,748,748,748,748,748,748,748,748,748,748,748,748,748,748,748,748,748,748,748,748,748,748,748,748,748,748,748,748,748,748,748,748,748,748,748,748,748,748,748,748,747,746,745,745,745,745,745,744,744,744,744,744,744,744,744,744,744,744,744,744,744,744,744,745,746,749,749,749,749,749,749,749,749,749,749,749,749,749,749,766,793,813,829,837,849,853,858,864,867,871,879,881,884,888,890,890,890,890,890,890,880,867,848,819,724,647,603,603,603,603,603,603,603,603,603,603,603,603,603,603,603,603,603,603,603,603,603,603,257,277,351,380,396,402,402,402,402,402,402,402,402,402,415,445],"ymouse":[529,529,529,529,529,529,529,529,529,529,529,529,529,529,529,529,529,529,529,528,528,528,528,528,528,528,528,528,528,528,528,528,528,528,528,528,528,528,528,528,528,528,528,528,528,528,528,527,526,526,526,526,526,526,526,526,526,526,526,526,526,526,526,526,526,526,526,526,526,526,526,526,526,526,526,526,526,526,526,526,526,526,526,526,526,526,526,526,526,526,526,526,526,526,526,526,526,526,526,526,526,526,526,526,526,526,526,526,526,526,526,526,526,526,526,526,526,526,526,526,526,526,526,526,526,526,526,526,526,526,526,526,526,526,526,526,526,526,526,526,526,526,526,526,526,525,525,525,525,525,525,525,524,524,524,524,524,524,524,524,524,524,524,524,524,524,524,524,525,527,527,527,527,527,527,527,527,527,527,527,527,527,527,502,457,408,368,342,301,283,267,246,234,221,195,185,174,162,151,151,149,144,135,130,113,103,92,80,46,17,3,3,3,3,3,3,3,3,3,3,3,3,3,3,3,3,3,3,3,3,3,3,8,18,56,70,76,78,78,78,78,78,78,78,78,77,62,48],"timestamp_mouse":[15,44,55,75,94,115,135,154,175,194,214,236,255,274,295,315,335,356,375,395,415,435,455,474,494,516,535,555,574,594,614,635,655,676,695,715,736,755,774,796,815,834,855,875,895,914,934,955,974,995,1015,1035,1054,1074,1094,1114,1135,1155,1174,1195,1215,1235,1256,1274,1295,1315,1335,1355,1375,1395,1415,1435,1454,1474,1494,1514,1535,1555,1574,1595,1616,1635,1655,1674,1694,1715,1734,1754,1774,1795,1815,1835,1855,1875,1895,1915,1935,1955,1974,1994,2015,2035,2056,2074,2094,2115,2135,2154,2175,2195,2215,2235,2254,2275,2295,2314,2334,2355,2374,2394,2414,2435,2455,2474,2495,2514,2534,2555,2575,2595,2615,2636,2654,2674,2695,2714,2735,2754,2774,2795,2815,2836,2854,2874,2895,2915,2934,2955,2975,2995,3015,3034,3055,3075,3094,3115,3135,3155,3174,3195,3215,3235,3254,3274,3295,3314,3336,3354,3374,3395,3414,3434,3454,3474,3496,3515,3534,3554,3574,3595,3615,3635,3655,3674,3694,3714,3735,3756,3775,3794,3814,3834,3854,3874,3895,3914,3936,3956,3976,3994,4014,4034,4054,4075,4095,4114,4134,4156,4175,4194,4215,4235,4255,4275,4296,4314,4336,4355,4375,4395,4415,4435,4454,4476,4496,4515,4535,4554,4575,4594,4615,4635,4655,4674,4694,4715,4734,4755,4775,4795,4815,4839,4860,4879,4900,4920,4939,4960],"xSR":741.5,"ySR":469.95,"xT1":424.9,"yT1":0,"xT2":1058.1,"yT2":0,"toosoon":0,"cond_shown":"equaldotsize","ratio_trial":250,"smaller_num":"3","larger_num":"12","correct_side":1,"subjID":"elianarinconacosta19","gender":"1","age":"9","school":"1"},{"start_time":1552310353500,"click_time":1552310358378,"finger_time":1552310356658,"fix_duration":761.5537147234389,"trial":13,"RT":3158,"MT":1720,"sideResp":2,"stimulus":"img/750/equaldotanddens/R/2_Ratio_750_L_6_R_8.png","xmouse":[770,770,770,770,770,770,770,770,770,770,770,770,770,770,770,770,770,770,770,770,770,770,770,770,770,770,770,770,770,770,770,770,770,770,770,770,770,770,770,770,770,770,770,770,770,770,770,770,770,770,770,770,770,770,770,770,770,770,770,770,770,770,770,770,770,770,770,770,770,770,770,770,770,770,770,770,770,770,770,770,770,770,770,770,770,770,770,772,772,772,773,773,774,775,776,777,779,780,780,780,780,780,780,780,780,780,780,780,780,780,780,780,780,780,780,780,780,780,780,780,780,780,780,780,780,780,780,780,780,780,780,780,782,784,787,788,792,792,792,793,793,794,795,797,803,805,809,810,810,810,810,810,810,810,812,821,839,870,897,936,947,948,949,949,962,969,976,978,979,980,981,982,982,982,977,847,747,747,747,747,747,747,747,747,747,747,747,747,747,747,747,747,747,747,747,747,747,747,747,747,747,747,747,747,747,747,747,747,747,747,747,747,747,747,1338,1474,1474,1474,1474,1474,1474,1474,1474,1474,1474,1474,1474,1474,1474,1474,1474,1486,1414,1387,1358,1288,1212,1170,1166,1162,1162,1162,1162,1154],"ymouse":[547,547,547,547,547,547,547,547,547,547,547,547,547,547,547,547,547,547,547,547,547,547,547,547,547,547,547,547,547,547,547,547,547,547,547,547,547,547,547,547,547,547,547,547,547,547,547,547,547,547,547,547,547,547,547,547,547,547,547,547,547,547,547,547,547,547,547,547,547,547,547,547,547,547,547,547,547,547,547,547,547,547,547,547,547,547,547,547,547,547,547,547,548,548,548,550,551,551,551,552,552,552,552,552,552,552,552,552,552,552,552,552,552,552,552,552,552,552,552,552,552,552,552,552,552,552,552,552,552,552,552,552,552,554,555,557,559,559,559,559,559,560,562,562,565,567,568,569,569,569,569,569,569,569,569,560,534,498,472,450,446,446,446,446,451,456,460,461,462,462,462,463,463,463,476,592,673,673,673,673,673,673,673,673,673,673,673,673,673,673,673,673,673,673,673,673,673,673,673,673,673,673,673,673,673,673,673,673,673,673,673,673,673,673,694,584,584,584,584,584,584,584,584,584,584,584,584,584,584,584,584,434,440,440,464,555,598,531,511,482,414,316,130,26],"timestamp_mouse":[18,39,68,78,98,118,137,157,178,198,218,237,257,278,299,317,337,359,377,397,418,437,458,477,498,517,538,557,577,599,619,637,657,678,699,719,737,758,777,799,818,838,857,877,899,919,938,958,979,998,1018,1037,1058,1077,1098,1117,1138,1159,1178,1197,1219,1238,1258,1278,1298,1319,1337,1358,1378,1397,1417,1438,1459,1479,1498,1519,1538,1558,1577,1599,1617,1637,1658,1677,1697,1718,1738,1758,1779,1798,1817,1838,1857,1879,1897,1918,1938,1959,1979,1999,2018,2038,2058,2077,2098,2118,2137,2157,2177,2197,2219,2239,2259,2277,2298,2318,2338,2359,2379,2397,2417,2438,2458,2478,2499,2518,2538,2557,2579,2597,2618,2638,2658,2678,2697,2718,2738,2758,2778,2798,2817,2838,2857,2879,2898,2919,2938,2957,2978,2998,3017,3039,3058,3077,3097,3118,3138,3158,3177,3197,3219,3238,3257,3278,3298,3318,3339,3357,3378,3397,3418,3439,3459,3478,3498,3518,3538,3559,3578,3598,3618,3637,3657,3678,3698,3717,3739,3757,3779,3799,3819,3838,3857,3878,3897,3917,3938,3957,3978,3998,4019,4040,4058,4077,4099,4119,4137,4158,4179,4198,4218,4237,4259,4279,4297,4318,4337,4357,4377,4398,4419,4438,4458,4478,4499,4517,4538,4558,4578,4598,4619,4637,4657,4678,4698,4718,4739,4758,4778,4798,4818,4838,4857,4878],"xSR":741.5,"ySR":469.95,"xT1":424.9,"yT1":0,"xT2":1058.1,"yT2":0,"toosoon":0,"cond_shown":"equaldotanddens","ratio_trial":750,"smaller_num":"6","larger_num":"8","correct_side":2,"subjID":"elianarinconacosta19","gender":"1","age":"9","school":"1"},{"start_time":1552310412117,"click_time":1552310413300,"finger_time":1552310412899,"fix_duration":1374.8496785187158,"trial":14,"RT":782,"MT":401,"sideResp":2,"stimulus":"img/750/equaldotanddens/L/9_Ratio_750_L_4_R_3.png","xmouse":[750,750,750,750,750,750,750,750,750,750,750,750,750,750,750,750,750,750,750,750,750,750,750,750,750,750,750,750,751,752,753,760,769,780,785,789,794,800,820,826,831,837,844,853,857,864,872,878,903,918,932,945,960,988,1000,1015,1034,1059,1110,1110],"ymouse":[527,527,527,527,527,527,527,527,527,527,527,527,527,527,527,527,527,527,527,527,527,527,527,527,527,527,527,527,527,528,528,527,522,511,506,502,496,490,471,463,456,448,439,417,406,393,378,364,323,310,298,289,281,263,254,241,222,195,102,74],"timestamp_mouse":[9,23,56,63,82,102,124,144,162,182,202,224,243,262,283,303,323,343,364,382,402,422,443,464,484,504,523,543,562,583,603,623,644,663,684,703,724,743,763,782,803,823,844,863,883,903,924,944,963,982,1002,1024,1043,1063,1083,1103,1123,1144,1163,1183],"xSR":741.5,"ySR":469.95,"xT1":424.9,"yT1":0,"xT2":1058.1,"yT2":0,"toosoon":0,"cond_shown":"equaldotanddens","ratio_trial":750,"smaller_num":"3","larger_num":"4","correct_side":1,"subjID":"elianarinconacosta19","gender":"1","age":"9","school":"1"},{"start_time":1552310415080,"click_time":1552310416520,"finger_time":1552310415580,"fix_duration":1058.4674957371378,"trial":15,"RT":500,"MT":940,"sideResp":2,"stimulus":"img/500/equaldotsize/R/2_Ratio_500_L_3_R_6.png","xmouse":[799,799,799,799,799,799,799,799,799,799,799,799,799,799,799,799,799,799,799,799,798,798,798,797,798,923,969,987,995,998,1007,1011,1014,1016,1017,1020,1021,1021,1023,1028,1049,1061,1069,1079,1089,1108,1113,1117,1117,1117,1117,1117,1117,1117,1117,1117,1117,1117,1117,1117,1117,1117,1117,1117,1117,1117,1117,1117,1117,1117,1117,1117,1105],"ymouse":[514,514,514,514,514,514,514,514,514,514,514,514,514,514,514,514,514,514,514,514,514,514,514,514,505,386,344,318,299,282,242,227,215,209,203,195,193,189,187,179,163,156,149,141,132,114,108,103,102,102,102,102,102,102,102,102,102,102,102,102,102,102,102,102,102,102,102,102,102,102,102,102,94],"timestamp_mouse":[9,20,40,63,80,101,121,141,159,181,200,219,241,260,279,301,321,339,360,380,401,421,440,460,480,500,519,540,559,580,600,620,640,660,681,701,720,740,760,780,801,819,841,861,880,900,920,940,960,979,1000,1020,1039,1061,1080,1099,1120,1141,1161,1181,1200,1220,1240,1261,1281,1300,1320,1339,1360,1380,1401,1420,1440],"xSR":741.5,"ySR":469.95,"xT1":424.9,"yT1":0,"xT2":1058.1,"yT2":0,"toosoon":0,"cond_shown":"equaldotsize","ratio_trial":500,"smaller_num":"3","larger_num":"6","correct_side":2,"subjID":"elianarinconacosta19","gender":"1","age":"9","school":"1"},{"start_time":1552310418619,"click_time":1552310419540,"finger_time":1552310419041,"fix_duration":937.6003132350199,"trial":16,"RT":422,"MT":499,"sideResp":2,"stimulus":"img/500/equaldotanddens/R/3_Ratio_500_L_10_R_20.png","xmouse":[775,775,775,775,775,775,775,775,775,775,775,775,775,775,775,775,775,775,775,775,786,838,901,964,1041,1055,1065,1069,1073,1084,1088,1096,1100,1101,1101,1101,1102,1102,1102,1102,1102,1101,1100,1100,1105,1107,1109],"ymouse":[528,528,528,528,528,528,528,528,528,528,528,528,528,528,528,528,528,528,528,517,492,440,395,350,279,257,233,219,208,192,187,178,172,168,166,166,166,166,166,166,164,149,137,126,107,100,97],"timestamp_mouse":[9,21,50,62,81,102,121,141,161,182,201,221,241,262,282,301,322,342,360,381,401,422,440,461,481,501,521,542,563,580,600,620,641,661,681,701,721,741,761,781,801,821,841,861,881,902,921],"xSR":741.5,"ySR":469.95,"xT1":424.9,"yT1":0,"xT2":1058.1,"yT2":0,"toosoon":0,"cond_shown":"equaldotanddens","ratio_trial":500,"smaller_num":"10","larger_num":"20","correct_side":2,"subjID":"elianarinconacosta19","gender":"1","age":"9","school":"1"},{"start_time":1552310421270,"click_time":1552310422120,"finger_time":1552310421800,"fix_duration":767.8491340482707,"trial":17,"RT":530,"MT":320,"sideResp":2,"stimulus":"img/500/equaldotsize/R/12_Ratio_500_L_1_R_2.png","xmouse":[795,795,795,795,795,795,795,795,795,795,795,795,795,795,795,795,803,804,804,804,804,804,804,805,809,821,846,854,866,880,901,939,952,964,977,989,1010,1018,1026,1037,1047,1057,1060],"ymouse":[505,505,505,505,505,505,505,505,505,505,505,505,505,505,505,506,511,511,511,511,511,511,511,511,504,483,436,415,391,369,339,284,263,244,227,212,187,176,164,149,129,101,94],"timestamp_mouse":[10,29,50,70,90,109,131,149,169,190,209,230,251,269,290,310,330,350,369,391,409,431,450,470,490,510,530,550,570,591,611,630,649,670,690,711,730,749,770,790,811,830,850],"xSR":741.5,"ySR":469.95,"xT1":424.9,"yT1":0,"xT2":1058.1,"yT2":0,"toosoon":0,"cond_shown":"equaldotsize","ratio_trial":500,"smaller_num":"1","larger_num":"2","correct_side":2,"subjID":"elianarinconacosta19","gender":"1","age":"9","school":"1"},{"start_time":1552310424471,"click_time":1552310468581,"finger_time":1552310468160,"fix_duration":1427.139368342205,"trial":18,"RT":43689,"MT":421,"sideResp":2,"stimulus":"img/250/equaldotsize/R/11_Ratio_250_L_3_R_12.png","xmouse":[754,754,754,754,754,754,754,753,753,753,753,753,753,753,753,753,753,753,753,753,753,753,753,753,753,753,753,753,753,753,753,753,753,753,753,753,753,753,753,753,753,753,753,753,753,753,753,753,753,753,753,753,753,753,753,753,753,753,753,753,753,753,753,753,753,753,753,753,753,753,753,753,753,753,753,753,753,753,753,753,753,753,753,753,753,753,753,753,753,753,753,753,753,753,753,753,753,753,753,753,753,753,753,753,753,753,753,753,753,753,753,753,753,753,753,753,753,753,753,753,753,753,753,753,753,753,753,753,753,753,753,753,753,753,753,753,753,753,753,753,753,753,753,753,753,753,753,753,753,753,753,753,753,753,753,753,753,753,753,753,753,753,753,753,753,753,753,753,753,753,753,753,753,753,753,753,753,753,753,753,753,753,753,753,753,753,753,753,753,753,753,753,753,753,753,753,753,753,753,753,753,753,753,753,753,753,753,753,753,753,753,753,753,753,753,753,753,753,753,753,753,753,753,753,753,753,753,753,753,753,753,753,753,753,753,753,753,753,753,753,753,753,753,753,753,753,753,753,753,753,753,753,753,753,753,753,753,753,753,753,753,753,753,753,753,753,753,753,753,753,753,753,753,753,753,753,753,753,753,753,753,753,753,753,753,753,753,753,753,753,753,753,753,753,753,753,753,753,753,753,753,753,753,753,753,753,753,753,753,753,753,753,753,753,753,753,753,753,753,753,753,753,753,753,753,753,753,753,753,753,753,753,753,753,753,753,753,753,753,753,753,753,753,753,753,753,753,753,753,753,753,753,753,753,753,753,753,753,753,753,753,753,753,753,753,753,753,753,753,753,753,753,753,753,753,753,753,753,753,753,753,753,753,753,753,753,753,753,753,753,753,753,753,753,753,753,753,753,753,753,753,753,753,753,753,753,753,753,753,753,753,753,753,753,753,753,753,753,753,753,753,753,753,753,753,753,753,753,753,753,753,753,753,753,753,753,753,753,753,753,753,753,753,753,753,753,753,753,753,753,753,753,753,753,753,753,753,753,753,753,753,753,753,753,753,753,753,753,753,753,753,753,753,753,753,753,753,753,753,753,753,753,753,753,753,753,753,753,753,753,753,753,753,753,753,753,753,753,753,753,753,753,753,753,753,753,753,753,753,753,753,753,753,753,753,753,753,753,753,753,753,753,753,753,753,753,753,753,753,753,753,753,753,753,753,753,753,753,753,753,753,753,753,753,753,753,753,753,753,753,753,753,753,753,753,753,753,753,753,753,753,753,753,753,753,753,753,753,753,753,753,753,753,753,753,753,753,753,753,753,753,753,753,753,753,753,753,753,753,753,753,753,753,753,753,753,753,753,753,753,753,753,753,753,753,753,753,753,753,753,753,753,753,753,753,753,753,753,753,753,753,753,753,753,753,753,753,753,753,753,753,753,753,753,753,753,753,753,753,753,753,753,753,753,753,753,753,753,753,753,753,753,753,753,753,753,753,753,753,753,753,753,753,753,753,753,753,753,753,753,753,753,753,753,753,753,753,753,753,753,753,753,753,753,753,753,753,753,753,753,753,753,753,753,753,753,753,753,753,753,753,753,753,753,753,753,753,753,753,753,753,753,753,753,753,753,753,753,753,753,753,753,753,753,753,753,753,753,753,753,753,753,753,753,753,753,753,753,753,753,753,753,753,753,753,753,753,753,753,753,753,753,753,753,753,753,753,753,753,753,753,753,753,753,753,753,753,753,753,753,753,753,753,753,753,753,753,753,753,753,753,753,753,753,753,753,753,753,753,753,753,753,753,753,753,753,753,753,753,753,753,753,753,753,753,753,753,753,753,753,753,753,753,753,753,753,753,753,753,753,753,753,753,753,753,753,753,753,753,753,753,753,753,753,753,753,753,753,753,753,753,753,753,753,753,753,753,753,753,753,753,753,753,753,753,753,753,753,753,753,753,753,753,753,753,753,753,753,753,753,753,753,753,753,753,753,753,753,753,753,753,753,753,753,753,753,753,753,753,753,753,753,753,753,753,753,753,753,753,753,753,753,753,753,753,753,753,753,753,753,753,753,753,753,753,753,753,753,753,753,753,753,753,753,753,753,753,753,753,753,753,753,753,753,753,753,753,753,753,753,753,753,753,753,753,753,753,753,753,753,753,753,753,753,753,753,753,753,753,753,753,753,753,753,753,753,753,753,753,753,753,753,753,753,753,753,753,753,753,753,753,753,753,753,753,753,753,753,753,753,753,753,753,753,753,753,753,753,753,753,753,753,753,753,753,753,753,753,753,753,753,753,753,753,753,753,753,753,753,753,753,753,753,753,753,753,753,753,753,753,753,753,753,753,753,753,753,753,753,753,753,753,753,753,753,753,753,753,753,753,753,753,753,753,753,753,753,753,753,753,753,753,753,753,753,753,753,753,753,753,753,753,753,753,753,753,753,753,753,753,753,753,753,753,753,753,753,753,753,753,753,753,753,753,753,753,753,753,753,753,753,753,753,753,753,753,753,753,753,753,753,753,753,753,753,753,753,753,753,753,753,753,753,753,753,753,753,753,753,753,753,753,753,753,753,753,753,753,753,753,753,753,753,753,753,753,753,753,753,753,753,753,753,753,753,753,753,753,753,753,753,753,753,753,753,753,753,753,753,753,753,753,753,753,753,753,753,753,753,753,753,753,753,753,753,753,753,753,753,753,753,753,753,753,753,753,753,753,753,753,753,753,753,753,753,753,753,753,753,753,753,753,753,753,753,753,753,753,753,753,753,753,753,753,753,753,753,753,753,753,753,753,753,753,753,753,753,753,753,753,753,753,753,753,753,753,753,753,753,753,753,753,753,753,753,753,753,753,753,753,753,753,753,753,753,753,753,753,753,753,753,753,753,753,753,753,753,753,753,753,753,753,753,753,753,753,753,753,753,753,753,753,753,753,753,753,753,753,753,753,753,753,753,753,753,753,753,753,753,753,753,753,753,753,753,753,753,753,753,753,753,753,753,753,753,753,753,753,753,753,753,753,753,753,753,753,753,753,753,753,753,753,753,753,753,753,753,753,753,753,753,753,753,753,753,753,753,753,753,753,753,753,753,753,753,753,753,753,753,753,753,753,753,753,753,753,753,753,753,753,753,753,753,753,753,753,753,753,753,753,753,753,753,753,753,753,753,753,753,753,753,753,753,753,753,753,753,753,753,753,753,753,753,753,753,753,753,753,753,753,753,753,753,753,753,753,753,753,753,753,753,753,753,753,753,753,753,753,753,753,753,753,753,753,753,753,753,753,753,753,753,753,753,753,753,753,753,753,753,753,753,753,753,753,753,753,753,753,753,753,753,753,753,753,753,753,753,753,753,753,753,753,753,753,753,753,753,753,753,753,753,753,753,753,753,753,753,753,753,753,753,753,753,753,753,753,753,753,753,753,753,753,753,753,753,753,753,753,753,753,753,753,753,753,753,753,753,753,753,753,753,753,753,753,753,753,753,753,753,753,753,753,753,753,753,753,753,753,753,753,753,753,753,753,753,753,753,753,753,753,753,753,753,753,753,753,753,753,753,753,753,753,753,753,753,753,753,753,753,753,753,753,753,753,753,753,753,753,753,753,753,753,753,753,753,753,753,753,753,753,753,753,753,753,753,753,753,753,753,753,753,753,753,753,753,753,753,753,753,753,753,753,753,753,753,753,753,753,753,753,753,753,753,753,753,753,753,753,753,753,753,753,753,753,753,753,753,753,753,753,753,753,753,753,753,753,753,753,753,753,753,753,753,753,753,753,753,753,753,753,753,753,753,753,753,753,753,753,753,753,753,753,753,753,753,753,753,753,753,753,753,753,753,753,753,753,753,753,753,753,753,753,753,753,753,753,753,753,753,753,753,753,753,753,753,753,753,753,753,753,753,753,753,753,753,753,753,753,753,753,753,753,753,753,753,753,753,753,753,753,753,753,753,753,753,753,753,753,753,753,753,753,753,753,753,753,753,753,753,753,753,753,753,753,753,753,753,753,753,753,753,753,753,753,753,753,753,753,753,753,753,753,753,753,753,753,753,753,753,753,753,753,753,753,753,753,753,753,753,753,753,753,753,753,753,753,753,753,753,753,753,753,753,753,753,753,753,753,753,753,753,753,753,753,753,753,753,753,753,753,753,753,753,753,753,753,753,753,753,753,753,753,753,753,753,753,753,753,753,753,753,753,753,753,753,753,753,753,753,753,753,753,753,753,753,753,753,753,753,753,753,753,753,753,753,753,753,753,753,753,753,753,753,753,753,753,753,753,753,753,753,753,753,753,753,753,753,753,753,753,753,753,753,753,753,753,753,753,753,753,753,753,753,753,753,753,753,753,753,753,753,753,753,753,753,753,753,753,753,753,753,753,753,753,753,753,753,753,753,753,753,753,753,753,753,753,753,753,753,753,753,753,753,753,753,753,753,753,753,753,753,753,753,753,753,753,753,753,753,753,753,753,753,753,753,753,753,753,753,753,753,753,753,753,753