[{"start_time":1552073686476,"click_time":1552073687351,"finger_time":1552073686890,"fix_duration":643.7910422899373,"trial":0,"RT":414,"MT":461,"sideResp":1,"stimulus":[],"xmouse":[784,784,784,784,784,784,784,784,784,784,784,784,784,784,784,784,784,784,782,774,728,691,654,617,568,568,568,568,568,568,568,568,568,568,568,568,568,568,568,568,568,568,457,457],"ymouse":[544,544,544,544,544,544,544,544,544,544,544,544,544,544,544,544,541,536,524,502,414,340,254,158,13,13,13,13,13,13,13,13,13,13,13,13,13,13,13,13,13,13,0,7],"timestamp_mouse":[21,34,55,75,95,113,134,155,174,194,215,234,255,274,295,313,335,354,374,394,414,434,454,475,494,515,535,554,575,594,614,634,655,674,694,716,734,755,774,794,814,834,855,874],"xSR":732.5,"ySR":490.1,"xT1":419.5,"yT1":0,"xT2":1045.5,"yT2":0,"toosoon":0,"cond_shown":"Congruent","ratio_trial":300,"L_num":24,"L_den":30,"R_num":2,"R_den":4,"correct_side":1,"subjID":"alejandra sanchez collante 20","gender":"1","age":"9","school":"4","test":{"fix_dur":[250,1500],"timestim":1000,"targets_dim":[100,100],"targets_relative_coord":[0.3,0.7],"size_stim":[880,420],"start_dim":[100,100],"size_start":[300,300],"size_fix":60,"samplingrate":20,"img_types":["Congruent","Incongruent"],"ratios":[100,200,300],"rep_conds":19,"nTrials":120,"trials_to_rest":500,"Trials_order":[40,5,32,84,86,73,104,91,105,22,20,74,3,65,19,100,34,60,106,109,77,71,1,97,94,107,53,95,66,108,113,115,13,44,14,25,62,33,42,2,80,52,54,82,111,103,68,96,4,101,76,27,47,90,56,39,118,89,79,17,88,24,59,12,37,110,41,85,67,58,75,61,15,28,30,78,29,9,18,112,46,83,63,55,98,45,21,6,48,7,102,70,16,93,69,50,49,57,38,72,31,117,81,114,51,11,64,119,23,26,87,10,8,43,36,92,0,116,99,35],"cond_shown":["Congruent","Incongruent","Congruent","Congruent","Congruent","Incongruent","Congruent","Incongruent","Incongruent","Congruent","Congruent","Congruent","Incongruent","Incongruent","Incongruent","Congruent","Congruent","Congruent","Congruent","Incongruent","Incongruent","Incongruent","Incongruent","Incongruent","Congruent","Incongruent","Incongruent","Incongruent","Congruent","Congruent","Incongruent","Incongruent","Incongruent","Congruent","Congruent","Incongruent","Congruent","Incongruent","Congruent","Congruent","Congruent","Congruent","Congruent","Congruent","Incongruent","Incongruent","Congruent","Congruent","Congruent","Incongruent","Congruent","Incongruent","Incongruent","Congruent","Congruent","Incongruent","Congruent","Incongruent","Incongruent","Incongruent","Congruent","Congruent","Incongruent","Congruent","Incongruent","Congruent","Incongruent","Incongruent","Incongruent","Congruent","Incongruent","Incongruent","Incongruent","Congruent","Congruent","Congruent","Incongruent","Incongruent","Congruent","Congruent","Congruent","Incongruent","Incongruent","Incongruent","Congruent","Incongruent","Incongruent","Congruent","Congruent","Incongruent","Congruent","Congruent","Congruent","Incongruent","Incongruent","Congruent","Incongruent","Incongruent","Congruent","Congruent","Incongruent","Incongruent","Incongruent","Congruent","Incongruent","Incongruent","Congruent","Incongruent","Incongruent","Congruent","Incongruent","Congruent","Congruent","Incongruent","Congruent","Congruent","Congruent","Congruent","Incongruent","Incongruent"],"ratio_trial":[300,300,200,100,200,100,200,100,200,300,200,200,200,300,100,300,300,100,300,100,300,300,100,100,300,300,300,300,100,100,300,100,100,200,200,100,200,200,100,200,200,300,100,300,200,100,200,100,300,300,300,200,300,100,200,200,300,300,100,300,300,100,300,100,100,200,300,100,100,300,200,100,200,300,100,100,300,200,100,300,300,300,200,100,200,200,200,100,100,100,100,300,300,200,200,200,100,200,200,100,100,200,200,100,200,300,300,300,300,200,200,300,200,100,100,200,100,200,200,300],"left_num":[24,4,3,3,11,3,3,3,14,1,9,1,1,13,11,3,4,11,12,8,13,13,2,6,3,13,4,4,9,8,8,3,6,9,3,6,6,7,7,12,12,1,2,5,4,12,4,12,5,13,9,4,3,15,3,14,1,8,11,13,1,1,4,9,6,16,13,8,2,1,7,8,7,24,7,12,1,7,7,7,5,4,11,11,6,7,4,2,11,3,8,3,1,3,14,5,2,7,3,1,11,4,9,4,7,8,9,4,13,12,3,4,13,9,7,6,10,9,7,4],"right_num":[2,6,9,4,3,8,14,7,12,6,4,21,3,12,9,11,2,4,2,1,12,12,6,7,11,12,2,2,8,2,9,11,13,4,14,3,11,8,15,6,6,8,11,7,1,2,3,13,6,12,3,14,4,13,11,12,19,9,9,12,3,18,2,8,3,9,12,1,8,19,12,6,8,2,9,13,3,4,15,20,7,2,3,9,3,12,6,11,4,11,2,4,11,11,12,14,6,8,14,18,9,14,8,15,4,14,3,2,12,6,11,13,14,20,15,11,3,4,4,2],"left_den":[30,5,12,20,22,5,10,9,30,5,20,2,2,26,22,12,5,22,24,20,26,26,4,10,12,26,20,20,15,16,10,5,10,20,10,12,20,10,14,20,20,30,5,25,30,30,8,30,25,26,10,6,6,25,10,30,3,10,22,26,5,2,20,15,12,30,26,20,4,3,10,16,10,30,14,30,2,15,14,14,25,20,20,22,15,10,5,5,22,5,16,6,5,4,30,10,4,10,10,2,22,6,15,10,15,10,10,20,26,15,4,20,26,10,14,20,25,20,15,20],"right_den":[4,12,20,16,10,16,28,30,18,12,16,30,10,15,15,20,4,10,10,2,15,15,15,14,20,15,4,4,16,5,18,22,26,16,28,5,22,16,25,15,15,24,22,14,3,4,10,26,12,15,5,30,20,26,22,18,30,18,15,15,6,30,4,16,5,27,15,2,20,30,24,10,16,4,15,26,15,6,25,25,14,4,4,15,15,24,10,22,10,22,5,5,22,20,18,20,15,16,28,30,15,30,10,30,6,28,5,4,15,10,20,26,20,25,25,22,10,16,6,4],"correct_side":[1,1,2,2,1,1,2,1,2,2,1,2,1,2,2,2,1,1,1,2,2,2,1,1,2,2,2,2,1,1,1,1,1,1,2,2,2,1,2,1,1,2,2,2,2,2,1,2,2,2,1,1,1,1,2,2,2,1,2,2,2,2,2,1,2,1,2,2,1,2,1,2,1,1,2,2,1,2,2,2,2,2,2,2,1,1,1,2,1,1,1,2,2,1,2,2,1,1,2,2,2,1,2,2,2,1,1,2,2,1,1,2,2,1,2,2,1,1,2,2],"img_shown":["img2/300/Congruent/L/C_Dist_300_LN_24_LD_30_RN_2_RD_4_0.png","img2/300/Incongruent/L/I_Dist_300_LN_4_LD_5_RN_6_RD_12_0.png","img2/200/Congruent/R/C_Dist_200_LN_3_LD_12_RN_9_RD_20_1.png","img2/100/Congruent/R/C_Dist_100_LN_3_LD_20_RN_4_RD_16_1.png","img2/200/Congruent/L/C_Dist_200_LN_11_LD_22_RN_3_RD_10_0.png","img2/100/Incongruent/L/I_Dist_100_LN_3_LD_5_RN_8_RD_16_0.png","img2/200/Congruent/R/C_Dist_200_LN_3_LD_10_RN_14_RD_28_1.png","img2/100/Incongruent/L/I_Dist_100_LN_3_LD_9_RN_7_RD_30_0.png","img2/200/Incongruent/R/I_Dist_200_LN_14_LD_30_RN_12_RD_18_1.png","img2/300/Congruent/R/C_Dist_300_LN_1_LD_5_RN_6_RD_12_1.png","img2/200/Congruent/L/C_Dist_200_LN_9_LD_20_RN_4_RD_16_0.png","img2/200/Congruent/R/C_Dist_200_LN_1_LD_2_RN_21_RD_30_1.png","img2/200/Incongruent/L/I_Dist_200_LN_1_LD_2_RN_3_RD_10_0.png","img2/300/Incongruent/R/I_Dist_300_LN_13_LD_26_RN_12_RD_15_1.png","img2/100/Incongruent/R/I_Dist_100_LN_11_LD_22_RN_9_RD_15_1.png","img2/300/Congruent/R/C_Dist_300_LN_3_LD_12_RN_11_RD_20_1.png","img2/300/Congruent/L/C_Dist_300_LN_4_LD_5_RN_2_RD_4_0.png","img2/100/Congruent/L/C_Dist_100_LN_11_LD_22_RN_4_RD_10_0.png","img2/300/Congruent/L/C_Dist_300_LN_12_LD_24_RN_2_RD_10_0.png","img2/100/Incongruent/R/I_Dist_100_LN_8_LD_20_RN_1_RD_2_1.png","img2/300/Incongruent/R/I_Dist_300_LN_13_LD_26_RN_12_RD_15_1.png","img2/300/Incongruent/R/I_Dist_300_LN_13_LD_26_RN_12_RD_15_1.png","img2/100/Incongruent/L/I_Dist_100_LN_2_LD_4_RN_6_RD_15_0.png","img2/100/Incongruent/L/I_Dist_100_LN_6_LD_10_RN_7_RD_14_0.png","img2/300/Congruent/R/C_Dist_300_LN_3_LD_12_RN_11_RD_20_1.png","img2/300/Incongruent/R/I_Dist_300_LN_13_LD_26_RN_12_RD_15_1.png","img2/300/Incongruent/R/I_Dist_300_LN_4_LD_20_RN_2_RD_4_1.png","img2/300/Incongruent/R/I_Dist_300_LN_4_LD_20_RN_2_RD_4_1.png","img2/100/Congruent/L/C_Dist_100_LN_9_LD_15_RN_8_RD_16_0.png","img2/100/Congruent/L/C_Dist_100_LN_8_LD_16_RN_2_RD_5_0.png","img2/300/Incongruent/L/I_Dist_300_LN_8_LD_10_RN_9_RD_18_0.png","img2/100/Incongruent/L/I_Dist_100_LN_3_LD_5_RN_11_RD_22_0.png","img2/100/Incongruent/L/I_Dist_100_LN_6_LD_10_RN_13_RD_26_0.png","img2/200/Congruent/L/C_Dist_200_LN_9_LD_20_RN_4_RD_16_0.png","img2/200/Congruent/R/C_Dist_200_LN_3_LD_10_RN_14_RD_28_1.png","img2/100/Incongruent/R/I_Dist_100_LN_6_LD_12_RN_3_RD_5_1.png","img2/200/Congruent/R/C_Dist_200_LN_6_LD_20_RN_11_RD_22_1.png","img2/200/Incongruent/L/I_Dist_200_LN_7_LD_10_RN_8_RD_16_0.png","img2/100/Congruent/R/C_Dist_100_LN_7_LD_14_RN_15_RD_25_1.png","img2/200/Congruent/L/C_Dist_200_LN_12_LD_20_RN_6_RD_15_0.png","img2/200/Congruent/L/C_Dist_200_LN_12_LD_20_RN_6_RD_15_0.png","img2/300/Congruent/R/C_Dist_300_LN_1_LD_30_RN_8_RD_24_1.png","img2/100/Congruent/R/C_Dist_100_LN_2_LD_5_RN_11_RD_22_1.png","img2/300/Congruent/R/C_Dist_300_LN_5_LD_25_RN_7_RD_14_1.png","img2/200/Incongruent/R/I_Dist_200_LN_4_LD_30_RN_1_RD_3_1.png","img2/100/Incongruent/R/I_Dist_100_LN_12_LD_30_RN_2_RD_4_1.png","img2/200/Congruent/L/C_Dist_200_LN_4_LD_8_RN_3_RD_10_0.png","img2/100/Congruent/R/C_Dist_100_LN_12_LD_30_RN_13_RD_26_1.png","img2/300/Congruent/R/C_Dist_300_LN_5_LD_25_RN_6_RD_12_1.png","img2/300/Incongruent/R/I_Dist_300_LN_13_LD_26_RN_12_RD_15_1.png","img2/300/Congruent/L/C_Dist_300_LN_9_LD_10_RN_3_RD_5_0.png","img2/200/Incongruent/L/I_Dist_200_LN_4_LD_6_RN_14_RD_30_0.png","img2/300/Incongruent/L/I_Dist_300_LN_3_LD_6_RN_4_RD_20_0.png","img2/100/Congruent/L/C_Dist_100_LN_15_LD_25_RN_13_RD_26_0.png","img2/200/Congruent/R/C_Dist_200_LN_3_LD_10_RN_11_RD_22_1.png","img2/200/Incongruent/R/I_Dist_200_LN_14_LD_30_RN_12_RD_18_1.png","img2/300/Congruent/R/C_Dist_300_LN_1_LD_3_RN_19_RD_30_1.png","img2/300/Incongruent/L/I_Dist_300_LN_8_LD_10_RN_9_RD_18_0.png","img2/100/Incongruent/R/I_Dist_100_LN_11_LD_22_RN_9_RD_15_1.png","img2/300/Incongruent/R/I_Dist_300_LN_13_LD_26_RN_12_RD_15_1.png","img2/300/Congruent/R/C_Dist_300_LN_1_LD_5_RN_3_RD_6_1.png","img2/100/Congruent/R/C_Dist_100_LN_1_LD_2_RN_18_RD_30_1.png","img2/300/Incongruent/R/I_Dist_300_LN_4_LD_20_RN_2_RD_4_1.png","img2/100/Congruent/L/C_Dist_100_LN_9_LD_15_RN_8_RD_16_0.png","img2/100/Incongruent/R/I_Dist_100_LN_6_LD_12_RN_3_RD_5_1.png","img2/200/Congruent/L/C_Dist_200_LN_16_LD_30_RN_9_RD_27_0.png","img2/300/Incongruent/R/I_Dist_300_LN_13_LD_26_RN_12_RD_15_1.png","img2/100/Incongruent/R/I_Dist_100_LN_8_LD_20_RN_1_RD_2_1.png","img2/100/Incongruent/L/I_Dist_100_LN_2_LD_4_RN_8_RD_20_0.png","img2/300/Congruent/R/C_Dist_300_LN_1_LD_3_RN_19_RD_30_1.png","img2/200/Incongruent/L/I_Dist_200_LN_7_LD_10_RN_12_RD_24_0.png","img2/100/Incongruent/R/I_Dist_100_LN_8_LD_16_RN_6_RD_10_1.png","img2/200/Incongruent/L/I_Dist_200_LN_7_LD_10_RN_8_RD_16_0.png","img2/300/Congruent/L/C_Dist_300_LN_24_LD_30_RN_2_RD_4_0.png","img2/100/Congruent/R/C_Dist_100_LN_7_LD_14_RN_9_RD_15_1.png","img2/100/Congruent/R/C_Dist_100_LN_12_LD_30_RN_13_RD_26_1.png","img2/300/Incongruent/L/I_Dist_300_LN_1_LD_2_RN_3_RD_15_0.png","img2/200/Incongruent/R/I_Dist_200_LN_7_LD_15_RN_4_RD_6_1.png","img2/100/Congruent/R/C_Dist_100_LN_7_LD_14_RN_15_RD_25_1.png","img2/300/Congruent/R/C_Dist_300_LN_7_LD_14_RN_20_RD_25_1.png","img2/300/Congruent/R/C_Dist_300_LN_5_LD_25_RN_7_RD_14_1.png","img2/300/Incongruent/R/I_Dist_300_LN_4_LD_20_RN_2_RD_4_1.png","img2/200/Incongruent/R/I_Dist_200_LN_11_LD_20_RN_3_RD_4_1.png","img2/100/Incongruent/R/I_Dist_100_LN_11_LD_22_RN_9_RD_15_1.png","img2/200/Congruent/L/C_Dist_200_LN_6_LD_15_RN_3_RD_15_0.png","img2/200/Incongruent/L/I_Dist_200_LN_7_LD_10_RN_12_RD_24_0.png","img2/200/Incongruent/L/I_Dist_200_LN_4_LD_5_RN_6_RD_10_0.png","img2/100/Congruent/R/C_Dist_100_LN_2_LD_5_RN_11_RD_22_1.png","img2/100/Congruent/L/C_Dist_100_LN_11_LD_22_RN_4_RD_10_0.png","img2/100/Incongruent/L/I_Dist_100_LN_3_LD_5_RN_11_RD_22_0.png","img2/100/Congruent/L/C_Dist_100_LN_8_LD_16_RN_2_RD_5_0.png","img2/300/Congruent/R/C_Dist_300_LN_3_LD_6_RN_4_RD_5_1.png","img2/300/Congruent/R/C_Dist_300_LN_1_LD_5_RN_11_RD_22_1.png","img2/200/Incongruent/L/I_Dist_200_LN_3_LD_4_RN_11_RD_20_0.png","img2/200/Incongruent/R/I_Dist_200_LN_14_LD_30_RN_12_RD_18_1.png","img2/200/Congruent/R/C_Dist_200_LN_5_LD_10_RN_14_RD_20_1.png","img2/100/Incongruent/L/I_Dist_100_LN_2_LD_4_RN_6_RD_15_0.png","img2/200/Incongruent/L/I_Dist_200_LN_7_LD_10_RN_8_RD_16_0.png","img2/200/Congruent/R/C_Dist_200_LN_3_LD_10_RN_14_RD_28_1.png","img2/100/Congruent/R/C_Dist_100_LN_1_LD_2_RN_18_RD_30_1.png","img2/100/Incongruent/R/I_Dist_100_LN_11_LD_22_RN_9_RD_15_1.png","img2/200/Incongruent/L/I_Dist_200_LN_4_LD_6_RN_14_RD_30_0.png","img2/200/Incongruent/R/I_Dist_200_LN_9_LD_15_RN_8_RD_10_1.png","img2/100/Congruent/R/C_Dist_100_LN_4_LD_10_RN_15_RD_30_1.png","img2/200/Incongruent/R/I_Dist_200_LN_7_LD_15_RN_4_RD_6_1.png","img2/300/Incongruent/L/I_Dist_300_LN_8_LD_10_RN_14_RD_28_0.png","img2/300/Congruent/L/C_Dist_300_LN_9_LD_10_RN_3_RD_5_0.png","img2/300/Incongruent/R/I_Dist_300_LN_4_LD_20_RN_2_RD_4_1.png","img2/300/Incongruent/R/I_Dist_300_LN_13_LD_26_RN_12_RD_15_1.png","img2/200/Congruent/L/C_Dist_200_LN_12_LD_15_RN_6_RD_10_0.png","img2/200/Incongruent/L/I_Dist_200_LN_3_LD_4_RN_11_RD_20_0.png","img2/300/Congruent/R/C_Dist_300_LN_4_LD_20_RN_13_RD_26_1.png","img2/200/Congruent/R/C_Dist_200_LN_13_LD_26_RN_14_RD_20_1.png","img2/100/Incongruent/L/I_Dist_100_LN_9_LD_10_RN_20_RD_25_0.png","img2/100/Congruent/R/C_Dist_100_LN_7_LD_14_RN_15_RD_25_1.png","img2/200/Congruent/R/C_Dist_200_LN_6_LD_20_RN_11_RD_22_1.png","img2/100/Congruent/L/C_Dist_100_LN_10_LD_25_RN_3_RD_10_0.png","img2/200/Congruent/L/C_Dist_200_LN_9_LD_20_RN_4_RD_16_0.png","img2/200/Incongruent/R/I_Dist_200_LN_7_LD_15_RN_4_RD_6_1.png","img2/300/Incongruent/R/I_Dist_300_LN_4_LD_20_RN_2_RD_4_1.png"],"dist100_C":[["C_Dist_100_LN_10_LD_25_RN_3_RD_10_0.png","C_Dist_100_LN_11_LD_22_RN_4_RD_10_0.png","C_Dist_100_LN_11_LD_22_RN_6_RD_15_0.png","C_Dist_100_LN_15_LD_25_RN_13_RD_26_0.png","C_Dist_100_LN_3_LD_6_RN_2_RD_5_0.png","C_Dist_100_LN_6_LD_20_RN_5_RD_25_0.png","C_Dist_100_LN_8_LD_16_RN_2_RD_5_0.png","C_Dist_100_LN_9_LD_15_RN_8_RD_16_0.png"],["C_Dist_100_LN_1_LD_2_RN_18_RD_30_1.png","C_Dist_100_LN_1_LD_2_RN_3_RD_5_1.png","C_Dist_100_LN_12_LD_30_RN_13_RD_26_1.png","C_Dist_100_LN_2_LD_5_RN_11_RD_22_1.png","C_Dist_100_LN_2_LD_5_RN_6_RD_12_1.png","C_Dist_100_LN_3_LD_20_RN_4_RD_16_1.png","C_Dist_100_LN_4_LD_10_RN_15_RD_30_1.png","C_Dist_100_LN_4_LD_8_RN_6_RD_10_1.png","C_Dist_100_LN_6_LD_12_RN_15_RD_25_1.png","C_Dist_100_LN_7_LD_14_RN_15_RD_25_1.png","C_Dist_100_LN_7_LD_14_RN_9_RD_15_1.png"]],"dist100_I":[["I_Dist_100_LN_1_LD_2_RN_8_RD_20_0.png","I_Dist_100_LN_2_LD_4_RN_6_RD_15_0.png","I_Dist_100_LN_2_LD_4_RN_8_RD_20_0.png","I_Dist_100_LN_3_LD_5_RN_11_RD_22_0.png","I_Dist_100_LN_3_LD_5_RN_8_RD_16_0.png","I_Dist_100_LN_3_LD_6_RN_4_RD_10_0.png","I_Dist_100_LN_3_LD_9_RN_7_RD_30_0.png","I_Dist_100_LN_4_LD_8_RN_8_RD_20_0.png","I_Dist_100_LN_6_LD_10_RN_11_RD_22_0.png","I_Dist_100_LN_6_LD_10_RN_13_RD_26_0.png","I_Dist_100_LN_6_LD_10_RN_7_RD_14_0.png","I_Dist_100_LN_9_LD_10_RN_20_RD_25_0.png","I_Dist_100_LN_9_LD_15_RN_13_RD_26_0.png","I_Dist_100_LN_9_LD_15_RN_14_RD_28_0.png"],["I_Dist_100_LN_10_LD_25_RN_8_RD_16_1.png","I_Dist_100_LN_10_LD_25_RN_9_RD_18_1.png","I_Dist_100_LN_11_LD_22_RN_9_RD_15_1.png","I_Dist_100_LN_12_LD_24_RN_9_RD_15_1.png","I_Dist_100_LN_12_LD_30_RN_2_RD_4_1.png","I_Dist_100_LN_13_LD_26_RN_12_RD_20_1.png","I_Dist_100_LN_13_LD_26_RN_6_RD_10_1.png","I_Dist_100_LN_17_LD_30_RN_10_RD_15_1.png","I_Dist_100_LN_6_LD_12_RN_3_RD_5_1.png","I_Dist_100_LN_8_LD_16_RN_6_RD_10_1.png","I_Dist_100_LN_8_LD_20_RN_1_RD_2_1.png","I_Dist_100_LN_9_LD_18_RN_6_RD_10_1.png"]],"dist100_S":[["E_Dist_100_LN_2_LD_12_RN_2_RD_30_0.png","E_Dist_100_LN_6_LD_10_RN_6_RD_12_0.png"],["E_Dist_100_LN_6_LD_12_RN_6_RD_10_1.png"]],"dist200_C":[["C_Dist_200_LN_11_LD_22_RN_3_RD_10_0.png","C_Dist_200_LN_12_LD_15_RN_6_RD_10_0.png","C_Dist_200_LN_12_LD_20_RN_6_RD_15_0.png","C_Dist_200_LN_14_LD_28_RN_6_RD_20_0.png","C_Dist_200_LN_15_LD_25_RN_4_RD_10_0.png","C_Dist_200_LN_16_LD_20_RN_12_RD_20_0.png","C_Dist_200_LN_16_LD_30_RN_9_RD_27_0.png","C_Dist_200_LN_20_LD_25_RN_9_RD_15_0.png","C_Dist_200_LN_21_LD_30_RN_2_RD_4_0.png","C_Dist_200_LN_4_LD_10_RN_3_RD_15_0.png","C_Dist_200_LN_4_LD_8_RN_3_RD_10_0.png","C_Dist_200_LN_6_LD_15_RN_3_RD_15_0.png","C_Dist_200_LN_7_LD_21_RN_2_RD_15_0.png","C_Dist_200_LN_8_LD_15_RN_2_RD_6_0.png","C_Dist_200_LN_8_LD_15_RN_3_RD_9_0.png","C_Dist_200_LN_8_LD_15_RN_7_RD_21_0.png","C_Dist_200_LN_9_LD_20_RN_4_RD_16_0.png"],["C_Dist_200_LN_1_LD_2_RN_21_RD_30_1.png","C_Dist_200_LN_13_LD_26_RN_14_RD_20_1.png","C_Dist_200_LN_3_LD_10_RN_11_RD_22_1.png","C_Dist_200_LN_3_LD_10_RN_14_RD_28_1.png","C_Dist_200_LN_3_LD_10_RN_7_RD_14_1.png","C_Dist_200_LN_3_LD_12_RN_9_RD_20_1.png","C_Dist_200_LN_3_LD_6_RN_14_RD_20_1.png","C_Dist_200_LN_5_LD_10_RN_14_RD_20_1.png","C_Dist_200_LN_6_LD_12_RN_7_RD_10_1.png","C_Dist_200_LN_6_LD_20_RN_11_RD_22_1.png","C_Dist_200_LN_7_LD_15_RN_18_RD_27_1.png","C_Dist_200_LN_9_LD_30_RN_13_RD_26_1.png"]],"dist200_I":[["I_Dist_200_LN_1_LD_2_RN_3_RD_10_0.png","I_Dist_200_LN_1_LD_3_RN_2_RD_15_0.png","I_Dist_200_LN_3_LD_4_RN_11_RD_20_0.png","I_Dist_200_LN_4_LD_5_RN_6_RD_10_0.png","I_Dist_200_LN_4_LD_6_RN_14_RD_30_0.png","I_Dist_200_LN_7_LD_10_RN_12_RD_24_0.png","I_Dist_200_LN_7_LD_10_RN_14_RD_28_0.png","I_Dist_200_LN_7_LD_10_RN_8_RD_16_0.png"],["I_Dist_200_LN_11_LD_20_RN_3_RD_4_1.png","I_Dist_200_LN_14_LD_30_RN_12_RD_18_1.png","I_Dist_200_LN_14_LD_30_RN_6_RD_9_1.png","I_Dist_200_LN_3_LD_10_RN_1_RD_2_1.png","I_Dist_200_LN_4_LD_30_RN_1_RD_3_1.png","I_Dist_200_LN_6_LD_20_RN_3_RD_6_1.png","I_Dist_200_LN_7_LD_15_RN_4_RD_6_1.png","I_Dist_200_LN_7_LD_15_RN_6_RD_9_1.png","I_Dist_200_LN_9_LD_15_RN_8_RD_10_1.png"]],"dist200_S":[["E_Dist_200_LN_3_LD_6_RN_3_RD_10_0.png"],["E_Dist_200_LN_3_LD_10_RN_3_RD_6_1.png"]],"dist300_C":[["C_Dist_300_LN_11_LD_22_RN_1_RD_5_0.png","C_Dist_300_LN_11_LD_22_RN_2_RD_10_0.png","C_Dist_300_LN_11_LD_22_RN_4_RD_20_0.png","C_Dist_300_LN_12_LD_24_RN_2_RD_10_0.png","C_Dist_300_LN_18_LD_20_RN_9_RD_15_0.png","C_Dist_300_LN_20_LD_25_RN_13_RD_26_0.png","C_Dist_300_LN_20_LD_25_RN_14_RD_28_0.png","C_Dist_300_LN_20_LD_25_RN_5_RD_10_0.png","C_Dist_300_LN_20_LD_25_RN_8_RD_16_0.png","C_Dist_300_LN_20_LD_25_RN_9_RD_18_0.png","C_Dist_300_LN_24_LD_30_RN_2_RD_4_0.png","C_Dist_300_LN_24_LD_30_RN_8_RD_16_0.png","C_Dist_300_LN_3_LD_6_RN_2_RD_10_0.png","C_Dist_300_LN_4_LD_10_RN_1_RD_10_0.png","C_Dist_300_LN_4_LD_5_RN_2_RD_4_0.png","C_Dist_300_LN_8_LD_16_RN_1_RD_5_0.png","C_Dist_300_LN_9_LD_10_RN_3_RD_5_0.png"],["C_Dist_300_LN_1_LD_20_RN_7_RD_20_1.png","C_Dist_300_LN_1_LD_3_RN_19_RD_30_1.png","C_Dist_300_LN_1_LD_30_RN_8_RD_24_1.png","C_Dist_300_LN_1_LD_5_RN_11_RD_22_1.png","C_Dist_300_LN_1_LD_5_RN_3_RD_6_1.png","C_Dist_300_LN_1_LD_5_RN_6_RD_12_1.png","C_Dist_300_LN_2_LD_10_RN_12_RD_24_1.png","C_Dist_300_LN_2_LD_20_RN_10_RD_25_1.png","C_Dist_300_LN_3_LD_12_RN_11_RD_20_1.png","C_Dist_300_LN_3_LD_6_RN_4_RD_5_1.png","C_Dist_300_LN_4_LD_20_RN_13_RD_26_1.png","C_Dist_300_LN_5_LD_25_RN_6_RD_12_1.png","C_Dist_300_LN_5_LD_25_RN_7_RD_14_1.png","C_Dist_300_LN_7_LD_14_RN_20_RD_25_1.png","C_Dist_300_LN_8_LD_15_RN_10_RD_12_1.png"]],"dist300_I":[["I_Dist_300_LN_1_LD_2_RN_2_RD_10_0.png","I_Dist_300_LN_1_LD_2_RN_3_RD_15_0.png","I_Dist_300_LN_2_LD_4_RN_6_RD_30_0.png","I_Dist_300_LN_3_LD_6_RN_4_RD_20_0.png","I_Dist_300_LN_4_LD_5_RN_6_RD_12_0.png","I_Dist_300_LN_4_LD_5_RN_8_RD_16_0.png","I_Dist_300_LN_7_LD_10_RN_8_RD_20_0.png","I_Dist_300_LN_8_LD_10_RN_14_RD_28_0.png","I_Dist_300_LN_8_LD_10_RN_9_RD_18_0.png"],["I_Dist_300_LN_13_LD_26_RN_12_RD_15_1.png","I_Dist_300_LN_4_LD_20_RN_2_RD_4_1.png"]],"dist300_S":[["E_Dist_300_LN_9_LD_12_RN_9_RD_20_0.png"],["E_Dist_300_LN_18_LD_30_RN_18_RD_20_1.png","E_Dist_300_LN_3_LD_10_RN_3_RD_5_1.png","E_Dist_300_LN_9_LD_20_RN_9_RD_12_1.png"]],"dist500_C":[["C_Dist_500_LN_10_LD_13_RN_7_RD_26_0.png","C_Dist_500_LN_10_LD_15_RN_4_RD_24_0.png","C_Dist_500_LN_12_LD_16_RN_3_RD_12_0.png","C_Dist_500_LN_12_LD_18_RN_4_RD_24_0.png","C_Dist_500_LN_15_LD_18_RN_5_RD_15_0.png","C_Dist_500_LN_15_LD_20_RN_1_RD_4_0.png","C_Dist_500_LN_18_LD_27_RN_1_RD_6_0.png","C_Dist_500_LN_20_LD_24_RN_1_RD_3_0.png","C_Dist_500_LN_20_LD_24_RN_3_RD_9_0.png","C_Dist_500_LN_20_LD_24_RN_7_RD_21_0.png","C_Dist_500_LN_20_LD_28_RN_3_RD_14_0.png","C_Dist_500_LN_21_LD_28_RN_6_RD_24_0.png","C_Dist_500_LN_22_LD_28_RN_2_RD_7_0.png","C_Dist_500_LN_25_LD_30_RN_9_RD_27_0.png","C_Dist_500_LN_4_LD_6_RN_1_RD_6_0.png","C_Dist_500_LN_5_LD_6_RN_2_RD_6_0.png","C_Dist_500_LN_6_LD_9_RN_1_RD_6_0.png","C_Dist_500_LN_7_LD_10_RN_1_RD_5_0.png","C_Dist_500_LN_8_LD_12_RN_1_RD_6_0.png","C_Dist_500_LN_8_LD_12_RN_4_RD_24_0.png"],["C_Dist_500_LN_1_LD_4_RN_12_RD_16_1.png","C_Dist_500_LN_1_LD_4_RN_9_RD_12_1.png","C_Dist_500_LN_1_LD_9_RN_11_RD_18_1.png","C_Dist_500_LN_10_LD_24_RN_22_RD_24_1.png","C_Dist_500_LN_2_LD_12_RN_10_RD_15_1.png","C_Dist_500_LN_2_LD_12_RN_12_RD_18_1.png","C_Dist_500_LN_2_LD_12_RN_4_RD_6_1.png","C_Dist_500_LN_2_LD_24_RN_7_RD_12_1.png","C_Dist_500_LN_2_LD_5_RN_18_RD_20_1.png","C_Dist_500_LN_2_LD_5_RN_9_RD_10_1.png","C_Dist_500_LN_2_LD_8_RN_12_RD_16_1.png","C_Dist_500_LN_2_LD_8_RN_21_RD_28_1.png","C_Dist_500_LN_3_LD_10_RN_4_RD_5_1.png","C_Dist_500_LN_3_LD_12_RN_15_RD_20_1.png","C_Dist_500_LN_3_LD_30_RN_6_RD_10_1.png","C_Dist_500_LN_3_LD_8_RN_14_RD_16_1.png","C_Dist_500_LN_4_LD_16_RN_15_RD_20_1.png","C_Dist_500_LN_4_LD_24_RN_12_RD_18_1.png","C_Dist_500_LN_5_LD_14_RN_6_RD_7_1.png","C_Dist_500_LN_7_LD_21_RN_20_RD_24_1.png","C_Dist_500_LN_7_LD_28_RN_12_RD_16_1.png","C_Dist_500_LN_7_LD_28_RN_9_RD_12_1.png","C_Dist_500_LN_9_LD_27_RN_20_RD_24_1.png"]],"dist500_I":[["I_Dist_500_LN_2_LD_3_RN_4_RD_24_0.png","I_Dist_500_LN_5_LD_6_RN_6_RD_18_0.png","I_Dist_500_LN_7_LD_8_RN_9_RD_24_0.png"],["I_Dist_500_LN_7_LD_21_RN_5_RD_6_1.png"]],"dist500_S":[["E_Dist_500_LN_6_LD_8_RN_6_RD_24_0.png"],["E_Dist_500_LN_2_LD_12_RN_2_RD_3_1.png","E_Dist_500_LN_6_LD_24_RN_6_RD_8_1.png"]]}},{"start_time":1552073691665,"click_time":1552073692571,"finger_time":1552073691991,"fix_duration":753.2842593960461,"trial":1,"RT":326,"MT":580,"sideResp":1,"stimulus":[],"xmouse":[773,773,773,773,773,773,773,773,773,773,773,773,770,767,761,754,747,735,729,720,712,705,685,677,668,662,649,635,633,632,632,629,620,615,610,603,597,583,577,571,568,566,553,537,520,498],"ymouse":[504,504,504,504,504,504,504,504,504,504,504,504,501,496,484,463,445,405,383,357,333,308,252,227,202,180,152,126,123,122,122,122,122,125,128,130,131,131,131,129,128,128,122,111,99,80],"timestamp_mouse":[4,25,45,66,85,106,126,145,165,186,205,226,245,265,285,305,326,345,365,386,405,425,445,465,485,505,525,545,565,585,605,625,645,664,685,705,725,746,765,785,805,825,845,866,885,905],"xSR":732.5,"ySR":458.25,"xT1":419.5,"yT1":0,"xT2":1045.5,"yT2":0,"toosoon":0,"cond_shown":"Incongruent","ratio_trial":300,"L_num":4,"L_den":5,"R_num":6,"R_den":12,"correct_side":1,"subjID":"alejandra sanchez collante 20","gender":"1","school":"4","age":"9"},{"start_time":1552073694182,"click_time":1552073695110,"finger_time":1552073694651,"fix_duration":250,"trial":2,"RT":469,"MT":459,"sideResp":1,"stimulus":[],"xmouse":[760,760,760,760,760,760,760,760,760,760,760,760,760,760,760,760,760,760,760,760,760,756,749,740,728,714,683,659,648,616,595,569,565,563,562,560,553,551,549,548,547,543,542,538,530,522,500],"ymouse":[497,497,497,497,497,497,497,497,497,497,497,497,497,497,497,497,497,497,497,497,497,491,476,454,421,367,248,181,157,106,82,55,52,52,52,52,48,47,47,47,47,50,51,52,54,55,55],"timestamp_mouse":[11,27,49,69,88,109,129,148,168,188,208,228,248,269,289,307,329,349,369,388,409,428,448,469,488,509,528,548,568,589,608,627,648,668,688,708,728,748,768,788,808,827,848,868,888,909,928],"xSR":732.5,"ySR":458.25,"xT1":419.5,"yT1":0,"xT2":1045.5,"yT2":0,"toosoon":0,"cond_shown":"Congruent","ratio_trial":200,"L_num":3,"L_den":12,"R_num":9,"R_den":20,"correct_side":2,"subjID":"alejandra sanchez collante 20","gender":"1","school":"4","age":"9"},{"start_time":1552073696826,"click_time":1552073698350,"finger_time":1552073698010,"fix_duration":495.24501638789377,"trial":3,"RT":1184,"MT":340,"sideResp":1,"stimulus":[],"xmouse":[765,765,765,765,765,765,765,765,765,765,765,765,765,765,765,765,765,765,765,765,765,765,765,765,765,765,765,765,765,765,765,765,765,765,765,765,765,765,765,765,765,765,765,765,765,765,765,765,765,765,765,765,765,765,765,765,766,764,757,728,707,690,678,667,603,581,569,562,562,562,562,562,560,554,531,523,518],"ymouse":[519,519,520,520,520,520,520,520,520,520,520,520,520,520,520,520,520,520,520,520,520,520,520,520,520,520,520,520,520,520,520,520,520,520,520,520,520,520,520,520,520,520,520,520,520,520,520,520,520,520,520,520,520,520,520,520,519,511,495,448,418,394,373,348,258,233,218,210,209,209,209,206,199,183,130,108,91],"timestamp_mouse":[4,24,44,64,84,104,124,144,164,184,204,225,245,265,284,305,325,345,364,384,405,424,444,465,484,505,524,544,565,585,604,625,645,664,685,704,724,745,765,785,804,825,845,865,885,905,924,943,965,984,1004,1025,1045,1065,1084,1105,1124,1144,1164,1184,1204,1223,1245,1264,1285,1305,1324,1345,1364,1385,1404,1424,1443,1464,1485,1505,1524],"xSR":732.5,"ySR":458.25,"xT1":419.5,"yT1":0,"xT2":1045.5,"yT2":0,"toosoon":0,"cond_shown":"Congruent","ratio_trial":100,"L_num":3,"L_den":20,"R_num":4,"R_den":16,"correct_side":2,"subjID":"alejandra sanchez collante 20","gender":"1","school":"4","age":"9"},{"start_time":1552073700792,"click_time":1552073701491,"finger_time":1552073701390,"fix_duration":1260.4833012917134,"trial":4,"RT":598,"MT":101,"sideResp":1,"stimulus":[],"xmouse":[784,784,784,784,784,784,784,784,784,784,784,784,784,784,784,784,784,784,784,784,784,784,784,784,784,784,784,785,776,750,714,625,579,540,501],"ymouse":[502,502,502,502,502,502,502,502,502,502,502,502,502,502,502,502,502,502,502,502,502,502,502,502,502,502,502,501,478,429,360,205,135,73,11],"timestamp_mouse":[18,38,58,79,99,118,138,158,178,199,219,238,259,278,299,319,339,358,379,397,419,439,458,478,499,519,538,558,578,598,619,638,658,677,699],"xSR":732.5,"ySR":458.25,"xT1":419.5,"yT1":0,"xT2":1045.5,"yT2":0,"toosoon":0,"cond_shown":"Congruent","ratio_trial":200,"L_num":11,"L_den":22,"R_num":3,"R_den":10,"correct_side":1,"subjID":"alejandra sanchez collante 20","gender":"1","school":"4","age":"9"},{"start_time":1552073703321,"click_time":1552073704150,"finger_time":1552073703771,"fix_duration":250,"trial":5,"RT":450,"MT":379,"sideResp":1,"stimulus":[],"xmouse":[761,761,761,761,761,761,761,761,761,761,761,761,761,761,761,761,761,761,761,761,761,757,750,742,732,697,674,641,622,610,592,590,587,583,578,559,553,549,543,528,491,474],"ymouse":[475,475,475,475,476,476,476,476,476,476,476,476,476,476,476,476,476,476,476,476,476,473,456,437,415,341,299,245,220,204,187,185,183,181,176,160,154,149,144,133,106,98],"timestamp_mouse":[10,30,49,69,89,110,129,149,170,188,209,230,249,269,290,309,329,350,369,390,408,429,450,469,490,509,529,549,570,589,609,629,650,669,690,708,728,749,769,789,809,829],"xSR":732.5,"ySR":458.25,"xT1":419.5,"yT1":0,"xT2":1045.5,"yT2":0,"toosoon":0,"cond_shown":"Incongruent","ratio_trial":100,"L_num":3,"L_den":5,"R_num":8,"R_den":16,"correct_side":1,"subjID":"alejandra sanchez collante 20","gender":"1","school":"4","age":"9"},{"start_time":1552073706637,"click_time":1552073707570,"finger_time":1552073707130,"fix_duration":846.2117781482644,"trial":6,"RT":493,"MT":440,"sideResp":2,"stimulus":[],"xmouse":[764,764,764,764,764,764,764,764,764,764,764,764,764,764,764,764,764,764,764,763,763,763,764,770,813,860,926,1009,1080,1155,1161,1162,1162,1162,1162,1163,1164,1165,1167,1167,1167,1166,1160,1147,1115,1079,1057],"ymouse":[526,526,526,526,526,526,526,526,526,526,526,526,526,526,526,526,525,523,521,516,514,511,505,494,439,385,323,256,204,144,138,136,136,136,136,136,134,132,128,125,119,118,116,113,109,102,96],"timestamp_mouse":[15,33,53,74,93,113,134,153,174,194,214,233,253,274,294,313,333,353,374,393,414,433,454,473,493,513,534,552,573,594,613,633,653,673,694,713,733,753,773,794,813,833,854,873,894,913,933],"xSR":732.5,"ySR":458.25,"xT1":419.5,"yT1":0,"xT2":1045.5,"yT2":0,"toosoon":0,"cond_shown":"Congruent","ratio_trial":200,"L_num":3,"L_den":10,"R_num":14,"R_den":28,"correct_side":2,"subjID":"alejandra sanchez collante 20","gender":"1","school":"4","age":"9"},{"start_time":1552073709563,"click_time":1552073710050,"finger_time":1552073709830,"fix_duration":432.77976391825035,"trial":7,"RT":267,"MT":220,"sideResp":2,"stimulus":[],"xmouse":[798,798,799,800,802,802,802,803,804,805,806,808,808,809,809,809,810,814,820,869,912,969,1054,1101,1137],"ymouse":[500,498,496,492,487,485,483,482,479,475,472,467,464,458,448,441,436,427,418,390,364,312,192,100,21],"timestamp_mouse":[7,27,47,67,88,107,127,148,167,187,207,227,247,267,286,307,328,347,367,387,407,427,447,468,487],"xSR":732.5,"ySR":458.25,"xT1":419.5,"yT1":0,"xT2":1045.5,"yT2":0,"toosoon":0,"cond_shown":"Incongruent","ratio_trial":100,"L_num":3,"L_den":9,"R_num":7,"R_den":30,"correct_side":1,"subjID":"alejandra sanchez collante 20","gender":"1","school":"4","age":"9"},{"start_time":1552073716147,"click_time":1552073717010,"finger_time":1552073716550,"fix_duration":1356.3425690095005,"trial":8,"RT":403,"MT":460,"sideResp":1,"stimulus":[],"xmouse":[777,777,777,777,777,777,777,777,777,777,777,777,777,777,777,772,767,761,752,745,726,670,643,627,616,605,603,600,591,582,565,544,541,539,537,536,536,536,535,534,527,524,521,517],"ymouse":[514,514,514,514,514,514,514,514,514,514,514,514,514,514,514,510,503,496,486,473,444,367,331,308,293,278,275,271,263,250,216,157,133,116,103,97,92,91,89,85,65,56,51,47],"timestamp_mouse":[3,26,43,64,83,103,123,143,164,183,203,223,243,263,283,303,323,342,363,384,403,423,443,464,484,503,523,543,563,583,603,624,643,663,683,704,724,743,764,782,803,823,843,863],"xSR":732.5,"ySR":458.25,"xT1":419.5,"yT1":0,"xT2":1045.5,"yT2":0,"toosoon":0,"cond_shown":"Incongruent","ratio_trial":200,"L_num":14,"L_den":30,"R_num":12,"R_den":18,"correct_side":2,"subjID":"alejandra sanchez collante 20","gender":"1","school":"4","age":"9"},{"start_time":1552073719080,"click_time":1552073720570,"finger_time":1552073719510,"fix_duration":1010.0890801253804,"trial":9,"RT":430,"MT":1060,"sideResp":2,"stimulus":[],"xmouse":[793,793,793,793,794,794,794,794,794,794,794,794,794,794,794,794,794,794,794,797,798,803,807,814,835,850,864,877,892,914,922,930,938,943,948,949,949,949,950,956,964,975,993,1007,1028,1038,1044,1044,1044,1044,1044,1044,1044,1044,1044,1044,1044,1044,1044,1044,1044,1044,1044,1044,1044,1044,1044,1044,1044,1044,1044,1044,1044,1044,1063],"ymouse":[517,517,517,517,516,515,515,515,515,515,515,515,515,513,510,507,502,499,493,477,466,450,437,422,387,368,347,327,309,276,262,252,238,228,218,215,215,215,214,207,196,179,141,110,59,35,12,12,12,12,12,12,12,12,12,12,12,12,12,12,12,12,12,12,12,12,12,12,12,12,12,12,12,12,5],"timestamp_mouse":[10,31,50,70,91,111,130,151,170,191,210,231,250,271,290,310,331,350,371,390,410,430,450,470,490,510,530,550,569,590,610,630,651,670,690,710,730,751,770,790,809,830,850,870,890,910,931,951,971,991,1010,1031,1051,1070,1091,1110,1131,1150,1170,1190,1210,1230,1250,1270,1290,1310,1330,1351,1370,1391,1410,1431,1450,1471,1490],"xSR":732.5,"ySR":458.25,"xT1":419.5,"yT1":0,"xT2":1045.5,"yT2":0,"toosoon":0,"cond_shown":"Congruent","ratio_trial":300,"L_num":1,"L_den":5,"R_num":6,"R_den":12,"correct_side":2,"subjID":"alejandra sanchez collante 20","gender":"1","school":"4","age":"9"},{"start_time":1552073797148,"click_time":1552073798012,"finger_time":1552073797492,"fix_duration":976.0073079499399,"trial":10,"RT":344,"MT":520,"sideResp":1,"stimulus":[],"xmouse":[800,800,800,800,800,800,800,800,800,800,800,800,800,800,798,789,779,763,740,713,684,684,684,684,684,684,684,684,684,684,684,684,684,684,684,684,684,684,684,684,684,684,684,480],"ymouse":[520,520,520,520,520,520,520,520,520,520,520,520,520,520,518,498,473,433,367,272,56,4,4,4,4,4,4,4,4,4,4,4,4,4,4,4,4,4,4,4,4,4,4,6],"timestamp_mouse":[5,24,45,64,84,105,123,145,165,185,203,224,243,263,283,305,323,344,364,384,403,423,443,464,484,504,524,545,564,584,604,624,644,664,684,704,725,744,764,784,804,824,844,864],"xSR":732.5,"ySR":458.25,"xT1":419.5,"yT1":0,"xT2":1045.5,"yT2":0,"toosoon":0,"cond_shown":"Congruent","ratio_trial":200,"L_num":9,"L_den":20,"R_num":4,"R_den":16,"correct_side":1,"subjID":"alejandra sanchez collante 20","gender":"1","school":"4","age":"9"},{"start_time":1552073804765,"click_time":1552073805751,"finger_time":1552073805171,"fix_duration":573.9233999892607,"trial":11,"RT":406,"MT":580,"sideResp":1,"stimulus":[],"xmouse":[763,763,763,763,763,763,763,763,763,763,763,763,763,763,763,763,763,763,758,747,694,653,615,588,572,563,562,561,561,561,553,544,533,522,515,511,511,509,505,493,478,471,468,468,468,468,468,468,468,468],"ymouse":[517,517,517,517,517,517,517,517,517,517,517,517,517,517,517,517,517,517,508,490,412,347,281,235,204,180,175,174,174,174,170,164,156,148,143,140,139,137,133,126,116,110,107,106,106,106,106,105,102,98],"timestamp_mouse":[10,26,47,67,88,107,127,146,166,186,208,227,247,267,288,306,327,346,367,387,406,426,447,467,488,506,527,547,566,587,608,626,647,667,688,707,726,748,768,787,807,826,847,867,887,907,927,946,966,986],"xSR":732.5,"ySR":458.25,"xT1":419.5,"yT1":0,"xT2":1045.5,"yT2":0,"toosoon":0,"cond_shown":"Congruent","ratio_trial":200,"L_num":1,"L_den":2,"R_num":21,"R_den":30,"correct_side":2,"subjID":"alejandra sanchez collante 20","gender":"1","school":"4","age":"9"},{"start_time":1552073808215,"click_time":1552073809192,"finger_time":1552073808612,"fix_duration":843.8279944988743,"trial":12,"RT":397,"MT":580,"sideResp":2,"stimulus":[],"xmouse":[744,744,744,744,744,744,744,744,744,744,744,744,744,744,744,744,745,749,752,754,758,762,782,790,799,806,808,814,819,824,833,840,864,888,902,915,924,931,933,934,936,938,947,966,986,1010,1027,1044,1046],"ymouse":[501,501,501,501,501,501,501,501,501,501,501,501,501,501,501,496,493,474,461,446,429,410,358,336,306,286,276,259,248,240,226,215,180,159,146,134,126,117,114,113,113,112,110,105,99,90,81,65,59],"timestamp_mouse":[17,37,56,76,97,117,138,157,176,197,217,237,257,278,297,317,336,356,376,397,417,437,457,477,496,517,537,557,576,597,617,638,657,676,696,717,737,757,776,796,817,838,857,878,896,917,936,956,977],"xSR":732.5,"ySR":458.25,"xT1":419.5,"yT1":0,"xT2":1045.5,"yT2":0,"toosoon":0,"cond_shown":"Incongruent","ratio_trial":200,"L_num":1,"L_den":2,"R_num":3,"R_den":10,"correct_side":1,"subjID":"alejandra sanchez collante 20","gender":"1","school":"4","age":"9"},{"start_time":1552073818315,"click_time":1552073818992,"finger_time":1552073818451,"fix_duration":522.0690075997134,"trial":13,"RT":136,"MT":541,"sideResp":1,"stimulus":[],"xmouse":[762,763,763,765,765,765,765,765,763,760,757,753,747,730,716,697,667,628,545,510,490,475,471,467,460,454,447,441,434,432,432,432,432,432],"ymouse":[530,523,517,498,480,468,458,448,434,426,418,411,397,373,359,346,330,309,274,261,253,246,244,242,225,211,196,181,147,134,123,114,109,97],"timestamp_mouse":[17,36,57,76,97,116,136,156,176,197,217,237,257,277,298,316,337,357,377,397,416,437,458,476,496,516,537,558,576,597,618,637,657,677],"xSR":732.5,"ySR":458.25,"xT1":419.5,"yT1":0,"xT2":1045.5,"yT2":0,"toosoon":0,"cond_shown":"Incongruent","ratio_trial":300,"L_num":13,"L_den":26,"R_num":12,"R_den":15,"correct_side":2,"subjID":"alejandra sanchez collante 20","gender":"1","school":"4","age":"9"},{"start_time":1552073820583,"click_time":1552073821712,"finger_time":1552073820692,"fix_duration":250,"trial":14,"RT":109,"MT":1020,"sideResp":2,"stimulus":[],"xmouse":[773,776,778,780,781,782,782,782,782,782,782,777,772,766,762,760,758,759,766,777,808,820,835,849,861,870,870,870,870,870,872,881,894,911,926,940,971,989,1015,1067,1067,1067,1067,1067,1067,1067,1067,1067,1067,1067,1067,1067,1067,1067,1067,1067,1133],"ymouse":[502,490,481,471,461,452,440,434,427,425,420,393,378,358,338,322,291,277,260,243,195,174,151,134,120,110,110,110,110,110,110,110,110,107,104,100,77,57,35,0,0,0,0,0,0,0,0,0,0,0,0,0,0,0,0,0,13],"timestamp_mouse":[11,31,48,70,89,109,128,148,168,188,209,229,248,269,288,308,328,350,369,388,409,429,448,468,489,510,528,548,569,590,608,629,648,670,689,710,729,748,768,789,810,828,849,870,889,910,928,949,969,989,1009,1029,1048,1070,1089,1108,1129],"xSR":732.5,"ySR":458.25,"xT1":419.5,"yT1":0,"xT2":1045.5,"yT2":0,"toosoon":0,"cond_shown":"Incongruent","ratio_trial":100,"L_num":11,"L_den":22,"R_num":9,"R_den":15,"correct_side":2,"subjID":"alejandra sanchez collante 20","gender":"1","school":"4","age":"9"},{"start_time":1552073829173,"click_time":1552073830072,"finger_time":1552073829712,"fix_duration":840.530875117023,"trial":15,"RT":539,"MT":360,"sideResp":1,"stimulus":[],"xmouse":[768,768,768,768,768,768,768,768,768,768,768,768,768,768,768,768,768,768,768,768,768,768,768,765,762,757,750,738,732,724,711,632,571,514,469,441,424,417,417,417,417,417,417,418,420],"ymouse":[517,517,517,517,517,517,517,517,517,517,517,517,517,517,517,517,517,517,517,516,512,495,488,479,473,463,452,437,431,424,416,360,311,262,219,187,156,130,118,104,92,80,56,46,38],"timestamp_mouse":[19,40,60,80,98,120,139,159,179,199,218,240,258,278,300,318,339,360,380,400,419,439,458,479,499,520,539,560,578,600,619,640,658,680,699,720,739,760,778,798,820,839,858,878,899],"xSR":732.5,"ySR":458.25,"xT1":419.5,"yT1":0,"xT2":1045.5,"yT2":0,"toosoon":0,"cond_shown":"Congruent","ratio_trial":300,"L_num":3,"L_den":12,"R_num":11,"R_den":20,"correct_side":2,"subjID":"alejandra sanchez collante 20","gender":"1","school":"4","age":"9"},{"start_time":1552073840204,"click_time":1552073840751,"finger_time":1552073840351,"fix_duration":453.1676343057334,"trial":16,"RT":147,"MT":400,"sideResp":1,"stimulus":[],"xmouse":[802,802,802,800,798,795,792,789,787,785,782,779,769,762,751,735,717,684,666,640,613,583,521,495,480,471,466,461],"ymouse":[507,507,507,506,497,486,473,456,450,443,435,429,410,397,379,358,338,300,284,261,233,208,156,133,120,113,107,99],"timestamp_mouse":[7,27,47,67,88,108,129,147,169,187,208,228,248,267,287,309,328,347,369,387,408,428,448,467,488,508,528,547],"xSR":732.5,"ySR":458.25,"xT1":419.5,"yT1":0,"xT2":1045.5,"yT2":0,"toosoon":0,"cond_shown":"Congruent","ratio_trial":300,"L_num":4,"L_den":5,"R_num":2,"R_den":4,"correct_side":1,"subjID":"alejandra sanchez collante 20","gender":"1","school":"4","age":"9"},{"start_time":1552073848594,"click_time":1552073849072,"finger_time":1552073848892,"fix_duration":1381.2818371816645,"trial":17,"RT":298,"MT":180,"sideResp":1,"stimulus":[],"xmouse":[777,777,777,777,777,777,777,777,777,777,777,777,777,774,764,741,726,714,655,597,536,490,462,440],"ymouse":[475,475,475,475,475,475,475,475,475,475,475,475,475,463,445,413,393,375,309,252,189,140,111,94],"timestamp_mouse":[18,37,58,79,98,117,138,158,179,197,217,239,258,277,298,317,337,358,379,397,418,438,458,478],"xSR":732.5,"ySR":458.25,"xT1":419.5,"yT1":0,"xT2":1045.5,"yT2":0,"toosoon":0,"cond_shown":"Congruent","ratio_trial":100,"L_num":11,"L_den":22,"R_num":4,"R_den":10,"correct_side":1,"subjID":"alejandra sanchez collante 20","gender":"1","school":"4","age":"9"},{"start_time":1552073864574,"click_time":1552073865573,"finger_time":1552073864793,"fix_duration":980.5741868046504,"trial":18,"RT":219,"MT":780,"sideResp":1,"stimulus":[],"xmouse":[777,777,777,777,777,777,777,777,774,770,766,751,737,719,703,692,675,663,642,616,609,605,603,602,602,601,597,589,577,568,560,558,552,541,538,533,528,527,526,526,526,526,526,526,526,526,526,526,525,518],"ymouse":[485,485,485,485,485,485,484,481,474,463,456,437,423,409,394,379,347,323,281,218,191,156,152,149,148,144,122,101,75,51,33,31,34,44,49,57,68,72,72,73,73,73,73,73,73,73,73,73,73,73],"timestamp_mouse":[19,39,59,79,99,120,139,160,180,200,219,240,259,280,299,319,339,360,380,400,420,440,459,481,500,519,539,560,580,599,619,640,659,680,699,719,740,760,780,799,821,841,860,879,899,920,940,961,980,999],"xSR":732.5,"ySR":458.25,"xT1":419.5,"yT1":0,"xT2":1045.5,"yT2":0,"toosoon":0,"cond_shown":"Congruent","ratio_trial":300,"L_num":12,"L_den":24,"R_num":2,"R_den":10,"correct_side":1,"subjID":"alejandra sanchez collante 20","gender":"1","school":"4","age":"9"},{"start_time":1552073890716,"click_time":1552073891613,"finger_time":1552073891093,"fix_duration":740.1545091254231,"trial":19,"RT":377,"MT":520,"sideResp":1,"stimulus":[],"xmouse":[769,769,769,769,769,769,769,769,769,769,769,769,769,769,769,770,772,771,758,723,659,632,603,597,594,593,578,561,540,520,498,489,484,482,482,482,481,480,478,476,475,475,475,473,470],"ymouse":[514,514,514,514,514,514,514,514,514,514,514,514,514,514,514,509,505,478,454,409,344,320,300,297,296,294,284,272,256,242,226,219,210,207,204,201,199,189,179,167,156,146,131,115,93],"timestamp_mouse":[17,39,57,77,97,118,139,157,177,197,218,237,257,277,298,317,338,357,377,398,418,437,459,477,497,517,538,557,578,598,618,637,657,678,698,717,737,757,778,797,818,838,858,877,897],"xSR":732.5,"ySR":458.25,"xT1":419.5,"yT1":0,"xT2":1045.5,"yT2":0,"toosoon":0,"cond_shown":"Incongruent","ratio_trial":100,"L_num":8,"L_den":20,"R_num":1,"R_den":2,"correct_side":2,"subjID":"alejandra sanchez collante 20","gender":"1","school":"4","age":"9"},{"start_time":1552073894254,"click_time":1552073895993,"finger_time":1552073895254,"fix_duration":1200.6229321048218,"trial":20,"RT":1000,"MT":739,"sideResp":1,"stimulus":[],"xmouse":[794,794,794,794,794,794,794,794,794,794,794,794,794,794,794,794,794,794,794,794,794,794,794,795,795,795,795,795,795,795,795,795,795,795,795,795,795,795,795,795,795,795,795,795,795,795,795,785,769,742,641,603,581,578,577,573,571,569,565,560,554,535,528,521,511,493,481,468,454,442,418,401,394,393,392,392,392,392,394,395,400,403,406,408,412,419,421],"ymouse":[525,525,525,525,525,525,525,525,525,525,525,525,525,525,525,525,525,525,525,525,525,524,522,521,521,521,521,521,521,521,521,521,521,521,521,521,521,521,521,521,521,521,521,521,521,521,517,501,482,454,385,362,346,342,339,328,322,316,308,301,292,270,264,258,251,238,229,218,203,184,143,114,103,100,99,99,99,99,98,97,95,93,92,91,90,88,87],"timestamp_mouse":[24,39,59,81,99,119,139,160,180,200,220,239,261,279,300,320,341,360,380,400,419,439,459,480,500,519,540,561,579,599,620,641,659,680,701,720,739,759,780,799,819,841,860,879,900,919,939,960,980,1000,1020,1039,1059,1079,1100,1119,1139,1160,1180,1199,1219,1239,1259,1279,1300,1319,1339,1360,1379,1399,1420,1440,1459,1479,1499,1521,1541,1559,1579,1600,1620,1640,1659,1679,1700,1720,1739],"xSR":732.5,"ySR":458.25,"xT1":419.5,"yT1":0,"xT2":1045.5,"yT2":0,"toosoon":0,"cond_shown":"Incongruent","ratio_trial":300,"L_num":13,"L_den":26,"R_num":12,"R_den":15,"correct_side":2,"subjID":"alejandra sanchez collante 20","gender":"1","school":"4","age":"9"},{"start_time":1552073902443,"click_time":1552073903275,"finger_time":1552073902833,"fix_duration":608.3449833582753,"trial":21,"RT":390,"MT":442,"sideResp":1,"stimulus":[],"xmouse":[761,761,761,761,761,761,761,761,761,761,761,761,761,761,759,758,757,747,739,724,708,688,648,632,624,618,615,601,593,579,567,555,537,531,524,517,510,499,493,487,483,483],"ymouse":[530,530,530,530,530,530,530,530,530,530,530,530,530,530,524,517,507,485,472,454,442,431,405,394,385,377,370,348,333,311,293,274,246,229,215,200,185,154,137,114,104,99],"timestamp_mouse":[10,31,51,72,90,111,131,151,170,191,210,230,250,271,290,310,332,351,370,390,411,430,450,470,490,511,531,550,570,590,611,631,650,670,690,711,731,750,770,790,810,832],"xSR":732.5,"ySR":458.25,"xT1":419.5,"yT1":0,"xT2":1045.5,"yT2":0,"toosoon":0,"cond_shown":"Incongruent","ratio_trial":300,"L_num":13,"L_den":26,"R_num":12,"R_den":15,"correct_side":2,"subjID":"alejandra sanchez collante 20","gender":"1","school":"4","age":"9"},{"start_time":1552073905872,"click_time":1552073906854,"finger_time":1552073906294,"fix_duration":1059.8692497539,"trial":22,"RT":422,"MT":560,"sideResp":1,"stimulus":[],"xmouse":[762,762,762,762,762,762,762,762,762,762,762,762,762,762,762,762,762,762,762,761,755,735,714,665,589,511,418,375,369,366,365,365,370,376,381,387,390,391,393,394,397,402,409,412,415,415,415,415,417,422],"ymouse":[503,503,503,503,503,503,503,503,503,503,503,503,503,503,503,503,503,503,497,494,480,450,431,395,348,296,244,210,198,183,167,132,116,103,93,84,77,77,75,73,68,61,45,40,35,35,35,34,35,41],"timestamp_mouse":[1,21,41,63,81,102,122,142,162,182,201,223,242,262,282,303,321,342,361,382,401,422,441,461,482,503,522,542,561,581,602,622,641,661,682,701,722,741,762,781,801,823,842,862,881,901,922,942,961,982],"xSR":732.5,"ySR":458.25,"xT1":419.5,"yT1":0,"xT2":1045.5,"yT2":0,"toosoon":0,"cond_shown":"Incongruent","ratio_trial":100,"L_num":2,"L_den":4,"R_num":6,"R_den":15,"correct_side":1,"subjID":"alejandra sanchez collante 20","gender":"1","school":"4","age":"9"},{"start_time":1552073911867,"click_time":1552073912574,"finger_time":1552073912334,"fix_duration":873.811023371408,"trial":23,"RT":467,"MT":240,"sideResp":1,"stimulus":[],"xmouse":[779,779,779,779,779,779,780,780,780,779,779,778,778,778,778,778,778,778,777,775,771,767,761,750,741,724,693,620,594,579,569,562,556,541,526,511],"ymouse":[511,511,511,511,511,511,511,505,500,495,493,492,492,492,492,492,491,491,490,486,479,472,464,446,432,409,367,261,216,183,157,138,125,104,91,76],"timestamp_mouse":[6,26,46,67,86,106,126,146,166,187,207,227,246,266,288,306,326,346,366,387,407,427,446,467,487,507,526,546,566,587,607,626,646,667,687,707],"xSR":732.5,"ySR":458.25,"xT1":419.5,"yT1":0,"xT2":1045.5,"yT2":0,"toosoon":0,"cond_shown":"Incongruent","ratio_trial":100,"L_num":6,"L_den":10,"R_num":7,"R_den":14,"correct_side":1,"subjID":"alejandra sanchez collante 20","gender":"1","school":"4","age":"9"},{"start_time":1552073936908,"click_time":1552073937595,"finger_time":1552073937395,"fix_duration":992.6136595082048,"trial":24,"RT":487,"MT":200,"sideResp":1,"stimulus":[],"xmouse":[803,803,803,805,809,812,814,814,814,814,814,814,814,814,814,814,814,814,814,814,814,813,808,748,706,665,638,623,606,601,598,587,566,538,478],"ymouse":[523,523,523,521,515,510,507,507,507,507,507,507,507,507,507,507,507,507,507,507,507,507,503,465,434,396,366,341,301,272,249,226,192,149,70],"timestamp_mouse":[7,27,46,68,86,107,128,146,167,188,208,226,247,268,287,308,327,347,367,386,407,427,447,467,487,507,526,548,566,587,606,626,646,667,687],"xSR":732.5,"ySR":458.25,"xT1":419.5,"yT1":0,"xT2":1045.5,"yT2":0,"toosoon":0,"cond_shown":"Congruent","ratio_trial":300,"L_num":3,"L_den":12,"R_num":11,"R_den":20,"correct_side":2,"subjID":"alejandra sanchez collante 20","gender":"1","school":"4","age":"9"},{"start_time":1552073940899,"click_time":1552073941355,"finger_time":1552073941015,"fix_duration":864.8899508167335,"trial":25,"RT":116,"MT":340,"sideResp":1,"stimulus":[],"xmouse":[751,751,751,751,751,751,741,735,725,700,691,680,664,648,601,574,550,532,508,501,495,488,479],"ymouse":[462,462,462,462,461,456,438,431,416,383,367,349,328,303,243,209,180,160,127,119,112,104,97],"timestamp_mouse":[15,37,56,75,95,116,136,155,175,196,216,236,256,276,296,316,336,355,376,396,416,436,456],"xSR":732.5,"ySR":458.25,"xT1":419.5,"yT1":0,"xT2":1045.5,"yT2":0,"toosoon":0,"cond_shown":"Incongruent","ratio_trial":300,"L_num":13,"L_den":26,"R_num":12,"R_den":15,"correct_side":2,"subjID":"alejandra sanchez collante 20","gender":"1","school":"4","age":"9"},{"start_time":1552073943138,"click_time":1552073943876,"finger_time":1552073943314,"fix_duration":262.5087058587383,"trial":26,"RT":176,"MT":562,"sideResp":1,"stimulus":[],"xmouse":[752,752,752,752,752,752,750,741,730,716,699,681,641,623,609,588,573,527,503,485,472,463,460,460,460,458,455,444,438,435,433,432,432,432,433,435,437],"ymouse":[553,553,550,548,546,545,541,529,517,501,481,459,409,388,370,344,327,271,244,225,209,198,192,190,188,183,176,153,138,128,121,117,115,113,112,109,99],"timestamp_mouse":[17,37,56,78,97,118,137,157,176,196,216,237,256,277,297,317,336,356,377,397,417,437,456,477,497,517,536,556,577,597,617,636,656,677,697,717,738],"xSR":732.5,"ySR":458.25,"xT1":419.5,"yT1":0,"xT2":1045.5,"yT2":0,"toosoon":0,"cond_shown":"Incongruent","ratio_trial":300,"L_num":4,"L_den":20,"R_num":2,"R_den":4,"correct_side":2,"subjID":"alejandra sanchez collante 20","gender":"1","school":"4","age":"9"},{"start_time":1552073946893,"click_time":1552073947795,"finger_time":1552073946994,"fix_duration":396.190700675726,"trial":27,"RT":101,"MT":801,"sideResp":1,"stimulus":[],"xmouse":[804,803,799,793,786,713,695,658,639,631,627,624,617,604,586,553,541,540,540,540,540,538,533,526,509,467,444,439,439,439,439,439,439,440,440,442,445,447,448,449,450,450,450,450,450,453],"ymouse":[478,478,477,474,472,434,424,403,391,384,374,368,357,342,323,290,280,279,279,279,277,273,263,250,228,178,151,143,142,141,141,140,140,138,138,133,128,123,121,119,116,116,115,112,108,95],"timestamp_mouse":[4,22,42,62,81,101,122,142,163,182,202,222,242,261,281,302,321,343,362,382,401,421,442,462,481,502,523,542,562,582,602,621,641,662,682,701,723,742,761,782,803,821,843,862,883,902],"xSR":732.5,"ySR":458.25,"xT1":419.5,"yT1":0,"xT2":1045.5,"yT2":0,"toosoon":0,"cond_shown":"Incongruent","ratio_trial":300,"L_num":4,"L_den":20,"R_num":2,"R_den":4,"correct_side":2,"subjID":"alejandra sanchez collante 20","gender":"1","school":"4","age":"9"},{"start_time":1552073951332,"click_time":1552073951715,"finger_time":1552073951615,"fix_duration":415.1703270924072,"trial":28,"RT":283,"MT":100,"sideResp":1,"stimulus":[],"xmouse":[762,762,762,762,762,762,762,762,762,762,762,762,762,749,669,611,553,506,467,420],"ymouse":[548,548,548,548,548,548,548,548,548,548,548,547,544,528,425,355,279,213,153,67],"timestamp_mouse":[4,22,43,63,84,102,122,144,164,182,204,222,242,263,283,303,322,343,363,382],"xSR":732.5,"ySR":458.25,"xT1":419.5,"yT1":0,"xT2":1045.5,"yT2":0,"toosoon":0,"cond_shown":"Congruent","ratio_trial":100,"L_num":9,"L_den":15,"R_num":8,"R_den":16,"correct_side":1,"subjID":"alejandra sanchez collante 20","gender":"1","school":"4","age":"9"},{"start_time":1552073954409,"click_time":1552073955014,"finger_time":1552073954736,"fix_duration":1294.2293950679532,"trial":29,"RT":327,"MT":278,"sideResp":1,"stimulus":[],"xmouse":[787,787,786,786,785,783,781,777,773,770,762,758,754,751,748,737,732,718,704,692,661,638,610,581,554,505,477,469,462,459,452],"ymouse":[532,532,532,531,531,530,528,526,524,523,520,520,518,517,516,511,509,499,485,469,424,391,350,306,268,198,159,138,121,106,74],"timestamp_mouse":[7,25,45,66,86,105,126,146,165,186,206,226,246,266,285,306,327,346,365,386,405,425,446,466,485,506,525,545,566,586,605],"xSR":732.5,"ySR":458.25,"xT1":419.5,"yT1":0,"xT2":1045.5,"yT2":0,"toosoon":0,"cond_shown":"Congruent","ratio_trial":100,"L_num":8,"L_den":16,"R_num":2,"R_den":5,"correct_side":1,"subjID":"alejandra sanchez collante 20","gender":"1","school":"4","age":"9"},{"start_time":1552073956645,"click_time":1552073957915,"finger_time":1552073957096,"fix_duration":250,"trial":30,"RT":451,"MT":819,"sideResp":1,"stimulus":[],"xmouse":[790,790,790,790,790,790,790,790,790,790,790,790,790,790,790,790,790,790,790,790,789,783,770,713,652,611,584,570,566,566,566,566,566,566,564,562,559,552,528,511,490,462,427,322,322,322,322,322,322,322,322,322,322,322,322,322,322,322,322,357,373,390,404,423],"ymouse":[464,464,465,466,466,466,466,466,466,466,466,466,466,466,466,466,466,466,466,466,466,465,458,424,388,371,359,353,352,352,352,352,352,352,350,350,348,344,325,310,286,249,197,19,19,19,19,19,19,19,19,19,19,19,19,19,19,19,19,4,12,21,28,36],"timestamp_mouse":[10,30,51,70,90,111,131,150,169,189,211,231,250,270,290,310,331,349,370,391,410,430,451,470,490,510,530,550,570,591,610,630,649,670,689,710,729,750,770,790,811,830,850,870,889,911,930,950,970,990,1011,1030,1050,1071,1091,1110,1129,1150,1170,1189,1210,1230,1250,1270],"xSR":732.5,"ySR":458.25,"xT1":419.5,"yT1":0,"xT2":1045.5,"yT2":0,"toosoon":0,"cond_shown":"Incongruent","ratio_trial":300,"L_num":8,"L_den":10,"R_num":9,"R_den":18,"correct_side":1,"subjID":"alejandra sanchez collante 20","gender":"1","school":"4","age":"9"},{"start_time":1552073959523,"click_time":1552073960035,"finger_time":1552073959554,"fix_duration":267.5580374670664,"trial":31,"RT":31,"MT":481,"sideResp":1,"stimulus":[],"xmouse":[737,721,708,703,702,699,691,678,660,629,601,593,588,583,579,563,550,528,504,448,441,438,437,435,433,424],"ymouse":[470,463,457,455,454,451,446,438,425,402,382,375,369,363,356,328,305,272,229,155,142,133,125,115,101,72],"timestamp_mouse":[12,31,53,72,92,112,132,151,171,192,213,232,251,271,293,311,333,351,373,392,412,431,453,472,492,512],"xSR":732.5,"ySR":458.25,"xT1":419.5,"yT1":0,"xT2":1045.5,"yT2":0,"toosoon":0,"cond_shown":"Incongruent","ratio_trial":100,"L_num":3,"L_den":5,"R_num":11,"R_den":22,"correct_side":1,"subjID":"alejandra sanchez collante 20","gender":"1","school":"4","age":"9"},{"start_time":1552073972005,"click_time":1552073972934,"finger_time":1552073972315,"fix_duration":1268.0124931479947,"trial":32,"RT":310,"MT":619,"sideResp":1,"stimulus":[],"xmouse":[741,741,741,741,741,741,741,741,741,741,741,741,741,738,734,715,682,607,580,575,573,573,571,571,570,568,567,564,562,554,545,535,508,494,479,466,456,450,447,445,444,444,444,444,447,450,453],"ymouse":[519,519,519,519,519,519,519,519,519,519,519,519,519,518,513,491,461,398,371,364,359,357,354,352,351,349,348,347,345,340,332,323,297,281,260,242,229,212,202,198,194,189,169,152,131,109,86],"timestamp_mouse":[10,30,50,70,91,109,129,149,171,191,211,230,249,269,289,310,330,349,370,390,409,429,449,469,490,509,529,549,570,590,609,630,649,669,690,710,731,750,769,790,810,830,850,869,890,910,929],"xSR":732.5,"ySR":458.25,"xT1":419.5,"yT1":0,"xT2":1045.5,"yT2":0,"toosoon":0,"cond_shown":"Incongruent","ratio_trial":100,"L_num":6,"L_den":10,"R_num":13,"R_den":26,"correct_side":1,"subjID":"alejandra sanchez collante 20","gender":"1","school":"4","age":"9"},{"start_time":1552073978303,"click_time":1552073979435,"finger_time":1552073978775,"fix_duration":328.48039888171866,"trial":33,"RT":472,"MT":660,"sideResp":1,"stimulus":[],"xmouse":[805,805,805,805,805,805,805,805,805,805,805,805,805,805,805,805,805,805,803,802,797,787,780,765,755,746,737,727,691,596,541,374,279,279,279,279,279,279,279,279,279,279,279,279,279,279,279,307,346,367,370,372,372,381,395,412,431],"ymouse":[511,511,511,511,511,511,511,511,511,511,511,511,511,511,511,511,511,510,505,499,492,477,468,447,436,425,413,400,357,265,217,83,12,12,12,12,12,12,12,12,12,12,12,12,12,12,12,4,27,35,36,37,37,38,44,54,65],"timestamp_mouse":[12,31,53,72,91,111,133,153,173,193,212,231,252,273,293,311,331,352,372,392,412,433,452,472,491,513,532,552,571,592,612,632,652,672,692,712,732,752,772,791,811,831,851,872,892,913,931,951,971,992,1012,1033,1052,1072,1091,1112,1132],"xSR":732.5,"ySR":458.25,"xT1":419.5,"yT1":0,"xT2":1045.5,"yT2":0,"toosoon":0,"cond_shown":"Congruent","ratio_trial":200,"L_num":9,"L_den":20,"R_num":4,"R_den":16,"correct_side":1,"subjID":"alejandra sanchez collante 20","gender":"1","school":"4","age":"9"},{"start_time":1552073983370,"click_time":1552073984095,"finger_time":1552073983475,"fix_duration":492.2239803338557,"trial":34,"RT":105,"MT":620,"sideResp":1,"stimulus":[],"xmouse":[804,804,803,801,797,789,729,700,680,671,669,669,669,669,667,651,633,612,592,580,575,575,575,575,575,573,565,563,562,562,559,549,544,539,531,518,474],"ymouse":[473,472,471,469,465,458,408,385,369,361,359,358,357,352,344,302,273,243,217,202,195,195,195,195,193,188,169,167,164,162,158,145,139,132,122,104,51],"timestamp_mouse":[4,24,45,65,85,105,125,145,165,185,205,224,245,265,285,304,326,345,366,385,405,425,445,464,485,505,524,545,565,584,606,625,645,665,684,705,725],"xSR":732.5,"ySR":458.25,"xT1":419.5,"yT1":0,"xT2":1045.5,"yT2":0,"toosoon":0,"cond_shown":"Congruent","ratio_trial":200,"L_num":3,"L_den":10,"R_num":14,"R_den":28,"correct_side":2,"subjID":"alejandra sanchez collante 20","gender":"1","school":"4","age":"9"},{"start_time":1552073995146,"click_time":1552073996717,"finger_time":1552073996717,"fix_duration":250,"trial":35,"RT":1571,"MT":0,"sideResp":1,"stimulus":[],"xmouse":[757,757,757,757,757,757,757,757,757,757,757,757,757,757,757,757,757,757,757,757,757,757,757,757,757,757,757,757,757,757,757,757,757,757,757,757,757,757,757,757,757,757,757,757,757,757,757,757,757,757,757,757,757,757,757,757,757,757,757,757,757,757,757,757,757,757,757,757,757,757,757,757,757,757,757,757,757,757,474],"ymouse":[479,479,479,479,479,479,479,479,479,479,479,479,479,479,479,479,479,479,479,479,479,479,479,479,479,479,479,479,479,479,479,479,479,479,479,479,479,479,479,479,479,479,479,479,479,479,479,479,479,479,479,479,479,479,479,479,479,479,479,479,479,479,479,479,479,479,479,479,479,479,479,479,479,479,479,479,479,479,97],"timestamp_mouse":[10,30,51,69,90,111,130,150,169,190,210,231,250,269,290,309,330,350,370,389,411,430,450,469,490,510,530,550,570,591,610,629,649,671,690,710,730,751,770,789,810,830,849,870,890,910,930,949,971,990,1009,1030,1050,1071,1090,1109,1130,1150,1170,1189,1210,1231,1249,1271,1290,1311,1330,1351,1371,1391,1409,1430,1450,1470,1490,1510,1530,1549,1571],"xSR":732.5,"ySR":458.25,"xT1":419.5,"yT1":0,"xT2":1045.5,"yT2":0,"toosoon":0,"cond_shown":"Incongruent","ratio_trial":100,"L_num":6,"L_den":12,"R_num":3,"R_den":5,"correct_side":2,"subjID":"alejandra sanchez collante 20","gender":"1","school":"4","age":"9"},{"start_time":1552073998719,"click_time":1552073999815,"finger_time":1552073999815,"fix_duration":963.0774274131442,"trial":36,"RT":1096,"MT":0,"sideResp":1,"stimulus":[],"xmouse":[763,763,763,763,763,763,763,763,763,763,763,763,763,763,763,763,763,763,763,763,763,763,763,763,763,763,763,763,763,763,763,763,763,763,763,763,763,763,763,763,763,763,763,763,763,763,763,763,763,763,763,763,763,763,465],"ymouse":[527,527,527,527,527,527,527,527,527,527,527,527,527,527,527,527,526,522,522,522,522,522,522,522,522,522,522,522,522,522,522,522,522,522,522,522,522,522,522,522,522,522,522,522,522,522,522,522,522,522,522,522,522,522,88],"timestamp_mouse":[18,37,58,76,96,118,138,157,176,198,217,237,258,278,296,316,337,357,378,397,416,437,456,477,497,517,537,557,577,597,617,637,656,676,697,716,737,758,778,797,816,837,858,876,898,918,937,958,977,997,1017,1036,1056,1077,1096],"xSR":732.5,"ySR":458.25,"xT1":419.5,"yT1":0,"xT2":1045.5,"yT2":0,"toosoon":0,"cond_shown":"Congruent","ratio_trial":200,"L_num":6,"L_den":20,"R_num":11,"R_den":22,"correct_side":2,"subjID":"alejandra sanchez collante 20","gender":"1","school":"4","age":"9"},{"start_time":1552074002053,"click_time":1552074003435,"finger_time":1552074003435,"fix_duration":1117.8061453476603,"trial":37,"RT":1382,"MT":0,"sideResp":2,"stimulus":[],"xmouse":[744,744,744,744,744,744,744,744,744,744,744,744,744,744,744,744,744,744,744,745,745,745,745,745,745,745,745,745,745,745,745,745,745,745,745,745,745,745,745,745,745,745,745,745,745,745,745,745,745,745,745,745,745,745,745,745,745,745,745,745,745,745,745,745,745,745,745,745,745,1120],"ymouse":[526,526,526,526,526,526,526,526,526,526,526,526,526,526,526,526,526,526,526,523,523,523,523,523,523,523,523,523,523,523,523,523,523,523,523,523,523,523,523,523,523,523,523,523,523,523,523,523,523,523,523,523,523,523,523,523,523,523,523,523,523,523,523,523,523,523,523,523,523,21],"timestamp_mouse":[4,23,42,62,82,102,124,144,162,182,202,224,243,264,283,303,323,344,363,383,404,423,443,463,484,503,522,542,563,583,603,623,644,663,683,702,723,743,764,782,803,823,843,863,882,903,924,943,963,982,1002,1023,1044,1063,1084,1102,1122,1142,1163,1183,1203,1223,1242,1262,1283,1303,1323,1342,1362,1382],"xSR":732.5,"ySR":458.25,"xT1":419.5,"yT1":0,"xT2":1045.5,"yT2":0,"toosoon":0,"cond_shown":"Incongruent","ratio_trial":200,"L_num":7,"L_den":10,"R_num":8,"R_den":16,"correct_side":1,"subjID":"alejandra sanchez collante 20","gender":"1","school":"4","age":"9"},{"start_time":1552074006018,"click_time":1552074009855,"finger_time":1552074008735,"fix_duration":1181.5235898174212,"trial":38,"RT":2717,"MT":1120,"sideResp":1,"stimulus":[],"xmouse":[803,803,803,803,803,803,803,803,803,803,803,803,803,803,803,803,803,803,803,803,803,803,803,803,803,803,803,803,803,803,803,803,803,803,803,803,803,803,803,803,803,803,803,803,803,803,803,803,803,803,803,803,803,803,803,803,803,803,803,803,803,803,803,803,803,803,803,803,803,803,803,803,803,803,803,803,803,803,803,803,803,803,803,803,803,803,803,803,803,803,803,803,803,803,803,803,803,803,803,803,803,803,803,803,803,803,803,803,803,803,803,803,803,803,803,803,803,803,803,803,803,803,803,803,803,803,803,803,803,803,803,803,803,803,803,848,829,822,822,822,822,822,820,810,792,668,577,464,350,329,244,171,167,167,167,167,167,167,167,167,167,167,167,167,167,166,237,299,335,335,335,335,335,335,335,335,335,335,335,335,335,335,335,364,363,369,402,410,412,412,418,427],"ymouse":[470,470,470,470,470,470,470,470,470,470,470,470,470,470,470,470,470,470,470,470,470,470,470,470,470,470,470,470,470,470,470,470,470,470,470,470,470,470,470,470,470,470,470,470,470,470,470,470,470,470,470,470,470,470,470,470,470,470,470,470,470,470,470,470,470,470,470,470,470,470,470,470,470,470,470,470,470,470,470,470,470,470,470,470,470,470,470,470,470,470,470,470,470,470,470,470,470,470,470,470,470,470,470,470,470,470,470,470,470,470,470,470,470,470,470,470,470,470,470,470,470,470,470,470,470,470,470,470,470,470,470,470,470,470,470,76,57,56,56,56,56,56,64,88,115,197,251,298,335,343,363,357,356,356,356,356,356,356,356,356,356,356,356,356,356,353,180,66,0,0,0,0,0,0,0,0,0,0,0,0,0,0,0,77,86,87,81,78,75,67,47,13],"timestamp_mouse":[22,39,58,78,98,117,138,159,178,199,218,238,257,278,298,319,338,358,378,398,418,438,458,479,497,517,538,559,578,598,619,638,658,679,698,718,738,758,777,798,818,838,858,877,897,918,938,959,979,997,1017,1037,1058,1078,1097,1119,1137,1158,1178,1198,1218,1237,1258,1277,1298,1318,1338,1358,1378,1399,1418,1438,1458,1478,1498,1518,1538,1557,1578,1599,1618,1638,1658,1679,1699,1717,1737,1759,1778,1798,1818,1839,1858,1877,1898,1918,1938,1958,1977,1997,2017,2038,2058,2078,2097,2117,2137,2158,2178,2199,2218,2237,2258,2277,2299,2317,2338,2358,2378,2398,2418,2439,2458,2477,2498,2518,2538,2559,2578,2599,2618,2638,2658,2677,2697,2717,2737,2759,2779,2798,2818,2839,2858,2878,2897,2917,2937,2958,2978,2998,3018,3037,3058,3078,3097,3118,3138,3157,3177,3198,3218,3238,3258,3278,3299,3317,3337,3357,3378,3398,3418,3437,3458,3477,3498,3518,3538,3559,3578,3598,3618,3637,3657,3679,3698,3718,3739,3758,3778,3798,3818,3837],"xSR":732.5,"ySR":458.25,"xT1":419.5,"yT1":0,"xT2":1045.5,"yT2":0,"toosoon":0,"cond_shown":"Congruent","ratio_trial":100,"L_num":7,"L_den":14,"R_num":15,"R_den":25,"correct_side":2,"subjID":"alejandra sanchez collante 20","gender":"1","school":"4","age":"9"},{"start_time":1552074013515,"click_time":1552074014556,"finger_time":1552074014556,"fix_duration":478.76682609865395,"trial":39,"RT":1041,"MT":0,"sideResp":1,"stimulus":[],"xmouse":[780,780,780,780,780,780,780,780,780,780,780,780,780,780,780,780,780,780,780,780,780,780,780,780,780,780,780,780,780,780,780,780,780,780,780,780,780,780,780,780,780,780,780,780,780,780,780,780,780,780,780,780,510],"ymouse":[522,522,522,522,522,503,503,503,503,503,503,503,503,503,503,503,503,503,503,503,503,503,503,503,503,503,503,503,503,503,503,503,503,503,503,503,503,503,503,503,503,503,503,503,503,503,503,503,503,503,503,503,57],"timestamp_mouse":[3,21,43,61,80,101,121,141,161,182,201,220,241,262,280,301,322,341,360,380,400,420,441,462,481,500,521,541,561,580,601,620,641,662,681,701,721,740,761,781,801,821,842,860,880,902,920,940,961,982,1001,1022,1041],"xSR":732.5,"ySR":458.25,"xT1":419.5,"yT1":0,"xT2":1045.5,"yT2":0,"toosoon":0,"cond_shown":"Congruent","ratio_trial":200,"L_num":12,"L_den":20,"R_num":6,"R_den":15,"correct_side":1,"subjID":"alejandra sanchez collante 20","gender":"1","school":"4","age":"9"},{"start_time":1552074016520,"click_time":1552074021815,"finger_time":1552074021815,"fix_duration":1263.5937293866284,"trial":40,"RT":5295,"MT":0,"sideResp":2,"stimulus":[],"xmouse":[798,798,798,798,798,798,798,798,798,798,798,798,798,798,798,798,798,798,798,798,798,798,798,798,798,798,798,798,798,798,798,798,798,798,798,798,798,798,798,798,798,798,798,798,798,798,798,798,798,798,798,798,798,798,798,798,798,798,798,798,798,798,798,798,798,798,798,798,798,798,798,798,798,798,798,798,798,798,798,798,798,798,798,798,798,798,798,798,798,798,798,798,798,798,798,798,798,798,798,798,798,798,798,798,798,798,798,798,798,798,798,798,798,798,798,798,798,798,798,798,798,798,798,798,798,798,798,798,798,798,798,798,798,798,798,798,798,798,798,798,798,798,798,798,798,798,798,798,798,798,798,798,798,798,798,798,798,798,798,798,798,798,798,798,798,798,798,798,798,798,798,798,798,798,798,798,798,798,798,798,798,798,798,798,798,798,798,798,798,798,798,798,798,798,798,798,798,798,798,798,798,798,798,798,798,798,798,798,798,798,798,798,798,798,798,798,798,798,798,798,798,798,798,798,798,798,798,798,798,798,798,798,798,798,798,798,798,798,798,798,798,798,798,798,798,798,798,798,798,798,798,798,798,798,798,798,798,798,798,798,798,798,798,798,1119],"ymouse":[528,528,528,528,528,528,528,528,528,528,528,528,528,528,528,528,528,528,528,528,528,528,528,528,528,528,528,528,528,528,528,528,528,528,528,528,528,528,528,528,528,528,528,528,528,528,528,528,528,528,528,528,528,528,528,528,528,528,528,528,528,528,528,528,528,528,528,528,528,528,528,528,528,528,528,528,528,528,528,528,528,528,528,528,528,528,528,528,528,528,528,528,528,528,528,528,528,528,528,528,528,528,528,528,528,528,528,528,528,528,528,528,528,528,528,528,528,528,528,528,528,528,528,528,528,528,528,528,528,528,528,528,528,528,528,528,528,528,528,528,528,528,528,528,528,528,528,528,528,528,528,528,528,528,528,528,528,528,528,528,528,528,528,528,528,528,528,528,528,528,528,528,528,528,528,528,528,528,528,528,528,528,528,528,528,528,528,528,528,528,528,528,528,528,528,528,528,528,528,528,528,528,528,528,528,528,528,528,528,528,528,528,528,528,528,528,528,528,528,528,528,528,528,528,528,528,528,528,528,528,528,528,528,528,528,528,528,528,528,528,528,528,528,528,528,528,528,528,528,528,528,528,528,528,528,528,528,528,528,528,528,528,528,528,76],"timestamp_mouse":[15,35,55,76,97,117,135,155,176,196,217,236,255,276,295,316,337,356,376,397,416,436,456,476,495,517,536,557,576,596,617,636,656,675,696,715,736,756,777,795,816,836,857,876,897,915,936,955,976,995,1016,1036,1055,1075,1097,1116,1137,1156,1176,1196,1215,1237,1256,1277,1297,1315,1336,1356,1375,1396,1416,1436,1456,1475,1496,1515,1537,1556,1577,1595,1616,1636,1657,1676,1697,1716,1736,1756,1777,1796,1816,1836,1856,1876,1897,1916,1935,1956,1977,1996,2015,2036,2056,2075,2097,2115,2136,2156,2176,2196,2215,2236,2255,2275,2296,2315,2337,2355,2377,2396,2417,2436,2456,2476,2496,2516,2536,2556,2577,2595,2616,2636,2656,2676,2696,2716,2736,2756,2775,2795,2817,2836,2855,2876,2896,2915,2936,2956,2977,2996,3017,3036,3056,3077,3096,3117,3135,3156,3177,3197,3217,3236,3257,3276,3297,3315,3335,3355,3376,3396,3417,3436,3456,3476,3496,3517,3537,3557,3576,3596,3617,3636,3656,3675,3697,3716,3736,3756,3777,3795,3817,3836,3857,3875,3895,3916,3936,3957,3975,3997,4016,4036,4056,4076,4096,4116,4137,4156,4175,4195,4216,4237,4256,4277,4296,4316,4336,4356,4377,4396,4416,4436,4456,4477,4497,4515,4537,4555,4576,4595,4615,4637,4656,4675,4697,4717,4736,4756,4776,4795,4816,4836,4856,4875,4895,4916,4937,4956,4975,4997,5016,5035,5057,5075,5096,5116,5136,5156,5175,5195,5217,5237,5255,5277,5295],"xSR":732.5,"ySR":458.25,"xT1":419.5,"yT1":0,"xT2":1045.5,"yT2":0,"toosoon":0,"cond_shown":"Congruent","ratio_trial":200,"L_num":12,"L_den":20,"R_num":6,"R_den":15,"correct_side":1,"subjID":"alejandra sanchez collante 20","gender":"1","school":"4","age":"9"},{"start_time":1552074024545,"click_time":1552074034417,"finger_time":1552074031137,"fix_duration":346.07375949396044,"trial":41,"RT":6592,"MT":3280,"sideResp":2,"stimulus":[],"xmouse":[801,801,801,801,801,801,801,801,801,801,801,800,800,800,800,800,800,800,800,800,800,800,800,800,800,800,800,800,800,800,800,800,800,800,800,800,800,800,800,800,800,800,800,800,800,800,800,800,800,800,800,800,800,800,800,800,800,800,800,800,800,800,800,800,800,800,800,800,800,800,800,800,800,800,800,800,800,800,800,800,800,800,800,800,800,800,800,800,800,800,800,800,800,800,800,800,800,800,800,800,800,800,800,800,800,800,800,800,800,800,800,800,800,800,800,800,800,800,800,800,800,800,800,800,800,800,800,800,800,800,800,800,800,800,800,800,800,800,800,800,800,800,800,800,800,800,800,800,800,800,800,800,800,800,800,800,800,800,800,800,800,800,800,800,800,800,800,800,800,800,800,800,800,800,800,800,800,800,800,800,800,800,800,800,800,800,800,800,800,800,800,800,800,800,800,800,800,800,800,800,800,800,800,800,800,800,800,800,800,800,800,800,800,800,800,800,800,800,800,800,800,800,800,800,800,800,800,800,800,800,800,800,800,800,800,800,800,800,800,800,800,800,800,800,800,800,800,800,800,800,800,800,800,800,800,800,800,800,800,800,800,800,800,800,800,800,800,800,800,800,800,800,800,800,800,800,800,800,800,800,800,800,800,800,800,800,800,800,800,800,800,800,800,800,800,800,800,800,800,800,800,800,800,800,800,800,800,800,800,800,800,800,800,800,800,800,800,800,800,800,800,800,800,800,800,800,800,800,800,8,18,34,44,48,49,57,67,95,109,127,143,160,199,200,200,200,200,203,204,206,206,208,209,214,222,234,250,273,281,283,287,288,294,301,314,320,322,329,334,346,362,380,405,411,412,413,414,416,416,416,416,416,416,416,416,416,416,416,416,416,416,416,416,416,416,416,416,416,416,416,416,416,416,416,416,416,416,416,416,416,416,416,416,416,416,416,416,416,416,416,416,416,416,416,416,416,416,416,416,416,416,416,416,416,1049,1372,1372,1372,1372,1372,1372,1372,1372,1372,1372,1372,1372,1372,1372,1372,1372,1372,1372,1372,1372,1372,1372,1372,1372,1372,1372,1372,1372,1372,1372,1372,1372,1372,1372,1372,1372,1372,1372,1372,1372,1372,23,106,130,136,136,137,138,142,174,276,445,855,1028,1134,1172,1176,1152,1145],"ymouse":[535,535,535,535,535,535,535,535,535,535,534,529,529,529,529,529,529,529,529,529,529,529,529,529,529,529,529,529,529,529,529,529,529,529,529,529,529,529,529,529,529,529,529,529,529,529,529,529,529,529,529,529,529,529,529,529,529,529,529,529,529,529,529,529,529,529,529,529,529,529,529,529,529,529,529,529,529,529,529,529,529,529,529,529,529,529,529,529,529,529,529,529,529,529,529,529,529,529,529,529,529,529,529,529,529,529,529,529,529,529,529,529,529,529,529,529,529,529,529,529,529,529,529,529,529,529,529,529,529,529,529,529,529,529,529,529,529,529,529,529,529,529,529,529,529,529,529,529,529,529,529,529,529,529,529,529,529,529,529,529,529,529,529,529,529,529,529,529,529,529,529,529,529,529,529,529,529,529,529,529,529,529,529,529,529,529,529,529,529,529,529,529,529,529,529,529,529,529,529,529,529,529,529,529,529,529,529,529,529,529,529,529,529,529,529,529,529,529,529,529,529,529,529,529,529,529,529,529,529,529,529,529,529,529,529,529,529,529,529,529,529,529,529,529,529,529,529,529,529,529,529,529,529,529,529,529,529,529,529,529,529,529,529,529,529,529,529,529,529,529,529,529,529,529,529,529,529,529,529,529,529,529,529,529,529,529,529,529,529,529,529,529,529,529,529,529,529,529,529,529,529,529,529,529,529,529,529,529,529,529,529,529,529,529,529,529,529,529,529,529,529,529,529,529,529,529,529,529,529,135,136,140,141,141,142,142,144,148,150,152,152,153,158,158,158,158,158,154,149,144,141,137,132,121,106,89,70,52,48,47,46,45,42,41,39,38,38,38,38,38,36,35,37,41,42,42,43,52,61,85,85,85,85,85,85,85,85,85,85,85,85,85,85,85,85,85,85,85,85,85,85,85,85,85,85,85,85,85,85,85,85,85,85,85,85,85,85,85,85,85,85,85,85,85,85,85,85,85,85,85,85,85,85,85,702,585,585,585,585,585,585,585,585,585,585,585,585,585,585,585,585,585,585,585,585,585,585,585,585,585,585,585,585,585,585,585,585,585,585,585,585,585,585,585,585,585,5,171,218,225,225,226,226,226,226,215,202,202,200,184,166,145,39,2],"timestamp_mouse":[12,31,51,72,90,111,132,152,171,190,212,231,250,270,291,311,331,350,371,392,411,430,450,471,491,511,530,552,571,591,611,631,650,671,691,710,731,751,770,790,810,831,851,871,891,910,930,951,970,992,1011,1031,1051,1072,1091,1111,1131,1150,1171,1192,1211,1231,1251,1271,1291,1311,1331,1351,1371,1391,1411,1431,1450,1471,1492,1511,1530,1551,1571,1590,1611,1631,1651,1672,1690,1710,1732,1750,1772,1792,1810,1830,1851,1872,1891,1910,1931,1951,1971,1991,2010,2031,2051,2071,2092,2111,2132,2151,2170,2190,2212,2230,2251,2272,2291,2311,2331,2351,2371,2390,2411,2431,2452,2472,2490,2511,2531,2552,2570,2591,2611,2631,2651,2670,2691,2711,2731,2750,2771,2790,2811,2832,2851,2872,2891,2910,2930,2951,2971,2991,3011,3031,3051,3072,3091,3111,3131,3150,3172,3190,3211,3231,3251,3271,3290,3312,3330,3352,3371,3390,3411,3430,3450,3472,3491,3511,3531,3552,3571,3592,3610,3631,3650,3671,3691,3711,3731,3751,3771,3790,3812,3830,3850,3871,3891,3912,3930,3950,3971,3990,4010,4032,4051,4070,4091,4112,4130,4151,4171,4191,4211,4231,4250,4271,4291,4310,4331,4352,4371,4391,4410,4431,4451,4471,4491,4510,4531,4551,4571,4590,4611,4630,4650,4671,4690,4712,4732,4752,4772,4792,4812,4830,4850,4871,4890,4912,4932,4950,4970,4992,5011,5030,5051,5071,5091,5110,5130,5152,5171,5190,5211,5232,5251,5270,5291,5310,5332,5350,5372,5391,5411,5431,5451,5471,5491,5511,5532,5552,5572,5590,5611,5630,5651,5671,5691,5712,5731,5751,5771,5790,5810,5831,5851,5870,5890,5912,5931,5951,5971,5991,6011,6031,6051,6072,6091,6110,6130,6151,6171,6191,6211,6230,6252,6271,6290,6311,6331,6350,6371,6392,6410,6430,6451,6471,6490,6510,6530,6551,6572,6592,6611,6632,6651,6670,6691,6711,6731,6750,6770,6791,6810,6831,6850,6870,6891,6912,6931,6951,6971,6990,7010,7030,7050,7072,7091,7110,7130,7151,7170,7192,7211,7231,7251,7270,7290,7312,7331,7351,7370,7392,7411,7431,7450,7471,7491,7510,7530,7550,7570,7591,7611,7632,7650,7671,7691,7711,7730,7751,7771,7790,7811,7831,7850,7871,7891,7911,7932,7950,7970,7991,8011,8031,8051,8070,8091,8111,8131,8151,8170,8191,8211,8232,8251,8272,8291,8311,8332,8351,8371,8391,8410,8431,8452,8471,8491,8512,8531,8551,8571,8591,8612,8631,8652,8670,8690,8711,8730,8751,8770,8791,8810,8831,8852,8872,8891,8911,8931,8950,8971,8991,9011,9032,9051,9072,9091,9110,9131,9151,9171,9191,9211,9231,9251,9270,9291,9311,9331,9351,9371,9391,9411,9432,9452,9470,9490,9512,9531,9551,9570,9592,9610,9631,9651,9671,9691,9710,9730,9751,9770,9791,9810,9830,9851,9871],"xSR":732.5,"ySR":458.25,"xT1":419.5,"yT1":0,"xT2":1045.5,"yT2":0,"toosoon":0,"cond_shown":"Congruent","ratio_trial":300,"L_num":1,"L_den":30,"R_num":8,"R_den":24,"correct_side":2,"subjID":"alejandra sanchez collante 20","gender":"1","school":"4","age":"9"},{"start_time":1552074046371,"click_time":1552074051596,"finger_time":1552074047996,"fix_duration":1495.5977999790055,"trial":42,"RT":1625,"MT":3600,"sideResp":2,"stimulus":[],"xmouse":[765,765,765,765,765,765,765,765,765,765,765,765,765,765,765,765,765,765,765,765,765,765,765,765,765,765,765,765,765,765,765,765,765,765,765,765,765,765,765,765,765,765,765,765,765,765,765,765,765,765,765,765,765,765,765,765,765,765,765,765,765,765,765,765,765,765,765,765,765,765,765,765,765,765,765,765,765,765,765,765,765,1532,1500,1449,1438,1428,1409,1398,1368,1353,1342,1331,1317,1283,1283,1283,1283,1188,1153,1144,1138,1128,1108,1074,1054,1052,1052,1052,1052,1052,1048,1041,1021,1008,1008,1008,1008,1008,1008,1008,1008,1008,1008,1008,1008,1008,742,762,767,767,767,767,767,767,767,767,767,767,767,767,767,767,767,767,767,767,767,767,767,767,767,767,767,767,767,767,767,767,767,767,767,767,767,767,767,767,767,767,767,767,767,767,767,767,767,767,767,767,767,767,767,767,767,767,767,767,767,859,893,964,1062,1197,1395,1395,1395,1395,1395,1395,1395,1395,1395,1395,1395,1395,1403,1296,1296,1296,1296,1296,1296,1296,1296,1296,1296,1296,1296,1296,1296,1296,1296,1296,1296,1296,1296,1296,1296,1296,1296,1296,1296,1296,1296,1296,1296,1296,1296,1296,1296,1296,1296,1296,1296,902,910,921,944,970,1056,1103,1139,1167,1187,1199,1204,1202,1198,1194,1189,1182,1170,1145],"ymouse":[522,522,522,522,522,522,522,522,522,522,522,522,522,522,522,522,522,522,522,522,522,522,522,522,522,522,522,522,522,522,522,522,522,522,522,522,522,522,522,522,522,522,522,522,522,522,522,522,522,522,522,522,522,522,522,522,522,522,522,522,522,522,522,522,522,522,522,522,522,522,522,522,522,522,522,522,522,522,522,522,522,261,233,198,193,191,187,186,181,179,178,176,176,176,176,176,176,169,164,161,159,154,143,121,108,106,106,106,106,106,106,105,102,102,102,102,102,102,102,102,102,102,102,102,102,102,635,631,630,630,630,630,630,630,630,630,630,630,630,630,630,630,630,630,630,630,630,630,630,630,630,630,630,630,630,630,630,630,630,630,630,630,630,630,630,630,630,630,630,630,630,630,630,630,630,630,630,630,630,630,630,630,630,630,630,630,630,438,418,381,316,220,20,20,20,20,20,20,20,20,20,20,20,20,5,104,104,104,104,104,104,104,104,104,104,104,104,104,104,104,104,104,104,104,104,104,104,104,104,104,104,104,104,104,104,104,104,104,104,104,104,104,104,698,682,660,622,570,420,330,249,180,134,100,58,51,48,48,48,48,48,52],"timestamp_mouse":[6,26,46,65,85,105,126,144,166,185,205,224,245,264,285,305,326,345,365,385,404,425,446,465,484,504,525,546,564,585,606,625,646,664,684,705,726,744,765,785,806,825,844,865,885,905,926,944,966,986,1004,1025,1045,1064,1086,1105,1125,1144,1166,1185,1205,1226,1246,1265,1285,1306,1324,1345,1364,1385,1406,1426,1446,1465,1486,1505,1525,1545,1567,1585,1606,1625,1645,1665,1686,1705,1726,1745,1765,1785,1805,1826,1845,1865,1885,1905,1925,1946,1965,1985,2005,2026,2046,2065,2086,2106,2125,2146,2166,2187,2206,2226,2246,2265,2287,2305,2325,2345,2365,2386,2406,2426,2445,2465,2485,2505,2526,2546,2565,2585,2605,2625,2646,2665,2685,2706,2725,2745,2765,2786,2805,2825,2846,2865,2887,2906,2925,2945,2965,2985,3006,3025,3045,3065,3086,3106,3127,3146,3166,3186,3205,3226,3246,3265,3286,3305,3327,3345,3365,3385,3406,3426,3447,3465,3486,3505,3525,3545,3565,3586,3606,3625,3646,3665,3685,3706,3726,3745,3765,3785,3806,3825,3847,3866,3886,3906,3926,3945,3966,3985,4005,4026,4045,4065,4085,4105,4125,4146,4165,4185,4205,4225,4246,4265,4285,4305,4325,4346,4365,4385,4406,4425,4446,4466,4485,4506,4525,4546,4566,4585,4605,4625,4646,4665,4686,4705,4725,4746,4765,4785,4805,4825,4846,4866,4886,4905,4927,4946,4966,4985,5006,5025,5046,5066,5086,5105,5127,5146,5166,5185,5206,5225],"xSR":732.5,"ySR":458.25,"xT1":419.5,"yT1":0,"xT2":1045.5,"yT2":0,"toosoon":0,"cond_shown":"Congruent","ratio_trial":100,"L_num":2,"L_den":5,"R_num":11,"R_den":22,"correct_side":2,"subjID":"alejandra sanchez collante 20","gender":"1","school":"4","age":"9"},{"start_time":1552074058096,"click_time":1552074059297,"finger_time":1552074059297,"fix_duration":537.5941668305519,"trial":43,"RT":1201,"MT":0,"sideResp":1,"stimulus":[],"xmouse":[816,816,816,816,816,816,816,816,816,816,816,816,816,816,816,816,816,816,816,816,816,816,816,816,816,816,816,816,816,816,816,816,816,816,816,816,816,816,816,816,816,816,816,816,816,816,816,816,816,816,816,816,816,816,816,816,816,816,816,816,484],"ymouse":[502,502,502,502,502,502,502,502,502,502,502,502,502,502,502,502,502,502,502,502,502,502,502,502,502,502,502,502,502,502,502,502,502,502,502,502,502,502,502,502,502,502,502,502,502,502,502,502,502,502,502,502,502,502,502,502,502,502,502,502,68],"timestamp_mouse":[3,20,41,61,80,101,122,140,161,181,202,220,241,262,281,300,320,341,360,380,401,422,442,460,481,500,520,540,562,580,600,620,640,660,681,701,721,740,761,782,800,820,841,860,882,901,921,940,961,981,1000,1021,1040,1061,1081,1102,1121,1141,1160,1180,1201],"xSR":732.5,"ySR":458.25,"xT1":419.5,"yT1":0,"xT2":1045.5,"yT2":0,"toosoon":0,"cond_shown":"Congruent","ratio_trial":300,"L_num":5,"L_den":25,"R_num":7,"R_den":14,"correct_side":2,"subjID":"alejandra sanchez collante 20","gender":"1","school":"4","age":"9"},{"start_time":1552074119218,"click_time":1552074120597,"finger_time":1552074119698,"fix_duration":1381.3681053122668,"trial":44,"RT":480,"MT":899,"sideResp":1,"stimulus":[],"xmouse":[757,757,757,757,757,757,757,757,757,757,757,757,757,757,757,757,757,757,757,757,758,758,759,763,763,763,759,752,738,729,729,729,727,722,716,707,697,684,661,643,635,630,628,628,626,622,617,609,588,571,559,541,525,502,499,498,498,498,498,497,497,497,497,497,497,495,491,481,471],"ymouse":[510,510,510,510,510,510,510,510,510,510,510,510,510,510,510,510,510,510,510,510,507,496,472,408,370,336,308,286,257,249,248,248,248,249,249,247,244,240,235,229,227,226,226,226,226,226,223,219,205,193,182,168,155,135,133,132,132,132,132,132,132,132,132,132,132,131,125,112,95],"timestamp_mouse":[19,41,59,80,99,119,140,159,179,200,220,240,259,279,299,320,340,360,381,399,419,440,460,480,499,519,539,559,579,599,620,639,659,679,699,719,739,759,779,799,819,839,859,880,899,920,939,959,979,1000,1019,1040,1059,1079,1099,1120,1140,1160,1179,1199,1219,1240,1259,1279,1300,1319,1339,1359,1379],"xSR":732.5,"ySR":458.25,"xT1":419.5,"yT1":0,"xT2":1045.5,"yT2":0,"toosoon":0,"cond_shown":"Incongruent","ratio_trial":200,"L_num":4,"L_den":30,"R_num":1,"R_den":3,"correct_side":2,"subjID":"alejandra sanchez collante 20","gender":"1","school":"4","age":"9"},{"start_time":1552074122470,"click_time":1552074131538,"finger_time":1552074123217,"fix_duration":250,"trial":45,"RT":747,"MT":8321,"sideResp":2,"stimulus":[],"xmouse":[800,800,800,800,800,800,800,800,800,800,800,800,800,800,801,802,802,802,802,802,802,802,802,802,802,802,802,802,802,802,802,802,802,798,789,766,734,718,717,717,717,717,717,717,717,717,717,717,717,717,717,717,717,719,725,732,735,737,737,737,737,737,737,737,737,737,737,737,737,737,737,737,740,750,762,777,791,803,809,815,818,818,824,827,830,834,836,836,836,837,839,841,843,843,844,846,847,848,849,852,853,857,864,874,885,894,897,897,897,897,897,895,889,883,878,875,869,868,868,868,868,867,864,863,863,862,862,856,845,827,806,782,752,746,745,740,736,733,733,733,733,736,743,756,769,787,792,795,795,795,795,795,795,795,795,795,795,795,795,795,795,795,795,795,795,795,795,795,795,795,795,795,795,795,795,795,795,795,795,795,795,795,795,795,795,795,795,795,795,795,795,795,795,795,795,795,795,795,795,795,795,795,795,795,795,795,795,795,795,795,795,795,795,795,795,795,795,795,795,795,795,795,795,795,795,795,795,795,795,795,795,795,795,795,795,795,794,794,794,794,794,794,794,794,794,794,794,794,794,794,794,794,794,794,794,794,794,794,794,794,794,794,794,794,794,794,794,794,794,794,794,794,794,794,795,796,796,796,796,796,796,796,796,796,796,796,796,796,796,796,796,796,796,796,796,796,796,796,796,796,796,796,796,796,796,796,796,796,796,796,796,796,796,796,796,796,796,796,796,796,796,796,796,796,796,796,796,796,796,796,796,796,796,796,796,796,796,796,796,796,796,796,796,796,796,796,794,794,794,794,795,795,795,795,795,795,795,795,795,795,795,795,795,795,795,795,795,795,795,795,795,795,795,795,795,795,795,795,795,795,794,794,794,794,794,794,793,792,778,777,781,788,829,851,869,877,879,880,880,880,880,880,880,882,882,882,882,882,988,1005,1018,1034,1034,1034,1034,1034,1034,1034,1034,1034,1034,1034,1034,1034,1034,1034,1034,1034,1158,1158,1159,1159,1159,1159,1159,1159,1159,1159,1159,1159,1159,1159,1159,1159,1159,1159,1159,1159,1158,1156,1154,1151,1146,1132],"ymouse":[519,519,519,519,519,519,519,519,519,519,519,519,519,519,518,517,515,506,504,502,501,501,501,501,501,501,501,501,501,501,500,500,500,493,488,476,464,457,456,456,456,456,456,456,456,456,456,456,456,456,456,456,456,454,449,443,440,438,438,438,438,438,438,438,438,438,438,438,438,438,438,438,438,450,473,502,551,599,616,628,632,632,631,626,621,616,613,613,612,612,611,610,610,610,610,610,609,609,607,605,605,604,600,592,582,575,573,573,573,573,573,573,586,603,621,640,670,673,673,673,673,673,668,665,663,662,662,655,647,635,627,614,593,585,579,567,558,549,549,549,549,549,549,548,546,540,539,537,536,534,531,528,523,523,523,523,523,523,523,523,523,523,523,523,523,523,523,523,523,523,523,523,523,523,523,523,523,523,523,523,523,523,523,523,523,523,523,523,523,523,523,523,523,523,523,523,523,523,523,523,523,523,523,523,523,523,523,523,523,523,523,523,523,523,522,522,522,522,522,522,522,522,522,522,522,522,522,522,522,522,522,522,522,522,520,516,512,509,509,509,509,509,509,509,509,509,509,509,509,509,509,509,509,509,509,509,509,509,509,509,509,509,509,509,509,509,509,509,509,509,509,509,506,505,501,500,500,500,500,500,500,500,500,500,500,500,500,500,500,500,500,500,500,500,500,500,500,500,500,500,500,500,500,500,500,500,500,500,500,500,500,500,500,500,500,500,500,500,500,500,500,500,500,500,500,500,500,500,500,500,500,500,500,500,501,503,504,505,505,505,505,505,505,506,512,520,532,562,575,584,590,592,592,592,592,592,592,592,592,592,592,592,592,592,592,592,592,592,590,578,565,550,507,494,485,481,480,478,475,472,467,466,466,466,466,466,465,465,463,463,463,463,470,481,488,493,495,497,497,497,497,497,497,492,492,492,492,492,124,71,39,1,1,1,1,1,1,1,1,1,1,1,1,1,1,1,1,1,141,149,154,154,154,154,154,154,154,154,154,151,148,145,145,145,145,145,145,144,143,139,133,128,119,92],"timestamp_mouse":[8,27,48,67,87,107,128,147,167,187,208,227,248,268,288,307,327,347,367,387,407,427,448,467,487,508,528,547,567,588,608,628,647,667,687,707,727,747,767,787,807,828,847,868,888,907,928,947,968,987,1007,1028,1047,1068,1087,1108,1127,1147,1167,1188,1207,1228,1247,1267,1287,1307,1327,1348,1367,1387,1408,1427,1447,1468,1487,1507,1527,1547,1567,1587,1607,1627,1647,1668,1687,1707,1728,1747,1767,1787,1807,1828,1847,1868,1887,1907,1928,1947,1967,1988,2007,2028,2048,2068,2087,2108,2128,2148,2167,2188,2208,2228,2247,2267,2287,2308,2328,2347,2367,2387,2407,2427,2447,2468,2487,2507,2527,2547,2567,2587,2607,2628,2647,2667,2687,2708,2727,2747,2768,2787,2809,2827,2847,2867,2887,2907,2927,2948,2967,2987,3007,3028,3047,3068,3087,3108,3128,3148,3168,3188,3207,3228,3247,3268,3287,3308,3328,3348,3368,3387,3408,3427,3447,3468,3488,3507,3528,3547,3568,3587,3607,3628,3648,3667,3688,3707,3727,3748,3768,3788,3807,3827,3848,3867,3889,3908,3927,3947,3967,3987,4008,4027,4047,4068,4087,4107,4127,4148,4168,4188,4207,4228,4248,4267,4287,4308,4327,4348,4368,4388,4408,4427,4448,4467,4487,4508,4527,4547,4568,4587,4607,4627,4647,4668,4687,4708,4727,4747,4767,4788,4807,4828,4848,4867,4887,4908,4927,4948,4968,4987,5008,5027,5048,5067,5087,5107,5127,5148,5168,5187,5207,5228,5248,5267,5288,5308,5327,5347,5367,5387,5407,5427,5447,5467,5487,5507,5527,5548,5568,5588,5608,5628,5647,5667,5687,5707,5727,5747,5767,5787,5808,5828,5847,5869,5888,5907,5927,5947,5967,5988,6007,6029,6047,6068,6087,6108,6127,6147,6168,6187,6208,6228,6247,6267,6288,6307,6327,6348,6368,6387,6408,6428,6448,6467,6488,6507,6528,6547,6567,6588,6608,6627,6647,6667,6688,6707,6728,6747,6768,6787,6809,6827,6847,6867,6887,6908,6927,6948,6967,6987,7007,7028,7048,7068,7087,7108,7127,7147,7168,7187,7207,7228,7247,7267,7288,7308,7327,7347,7367,7387,7407,7428,7447,7467,7487,7507,7527,7547,7568,7588,7607,7627,7647,7667,7688,7707,7727,7747,7767,7787,7807,7827,7847,7869,7887,7908,7927,7947,7968,7988,8007,8027,8048,8067,8087,8107,8127,8148,8167,8187,8207,8228,8248,8267,8287,8308,8327,8348,8368,8388,8408,8427,8447,8468,8487,8508,8528,8547,8567,8587,8607,8627,8648,8667,8688,8707,8728,8747,8767,8787,8807,8827,8848,8867,8888,8907,8927,8947,8967,8988,9007,9027,9047,9068],"xSR":732.5,"ySR":458.25,"xT1":419.5,"yT1":0,"xT2":1045.5,"yT2":0,"toosoon":0,"cond_shown":"Incongruent","ratio_trial":100,"L_num":12,"L_den":30,"R_num":2,"R_den":4,"correct_side":2,"subjID":"alejandra sanchez collante 20","gender":"1","school":"4","age":"9"},{"start_time":1552074134455,"click_time":1552074136117,"finger_time":1552074136078,"fix_duration":1317.9568414931268,"trial":46,"RT":1623,"MT":39,"sideResp":2,"stimulus":[],"xmouse":[799,799,799,799,799,799,799,799,799,799,799,799,799,799,799,799,799,799,799,799,799,799,799,799,799,799,799,799,799,799,799,799,799,799,799,799,799,799,799,799,799,799,799,799,799,799,799,799,799,799,799,799,799,799,799,799,799,799,799,799,799,799,799,799,799,799,799,799,799,799,799,799,799,799,799,799,799,799,799,799,799,1041,1041,1047],"ymouse":[482,482,482,482,482,482,482,482,482,482,482,482,482,482,482,482,482,482,482,482,482,482,482,482,482,482,482,482,482,482,482,482,482,482,482,482,482,482,482,482,482,482,482,482,482,482,482,482,482,482,482,482,482,482,482,482,482,482,482,482,482,482,482,482,482,482,482,482,482,482,482,482,482,482,482,482,482,482,482,482,482,51,51,53],"timestamp_mouse":[4,22,43,62,83,103,123,143,163,183,202,223,243,263,282,302,322,342,362,382,403,422,443,462,482,502,523,542,562,582,602,622,643,662,683,702,722,742,762,784,803,823,842,862,883,903,922,942,962,982,1002,1022,1042,1062,1082,1102,1123,1143,1162,1183,1203,1222,1243,1262,1283,1302,1322,1342,1362,1382,1402,1422,1442,1462,1482,1502,1522,1543,1563,1583,1603,1623,1642,1662],"xSR":732.5,"ySR":458.25,"xT1":419.5,"yT1":0,"xT2":1045.5,"yT2":0,"toosoon":0,"cond_shown":"Congruent","ratio_trial":200,"L_num":4,"L_den":8,"R_num":3,"R_den":10,"correct_side":1,"subjID":"alejandra sanchez collante 20","gender":"1","school":"4","age":"9"},{"start_time":1552074190449,"click_time":1552074192479,"finger_time":1552074192479,"fix_duration":250,"trial":47,"RT":2030,"MT":0,"sideResp":1,"stimulus":[],"xmouse":[750,750,750,750,750,750,750,750,750,750,750,750,750,750,750,750,750,750,750,750,750,750,750,750,750,750,750,750,750,750,750,750,750,750,750,750,750,750,750,750,750,750,750,750,750,750,750,750,750,750,750,750,750,750,750,750,750,750,750,750,750,750,750,750,750,750,750,750,750,750,750,750,750,750,750,750,750,750,750,750,750,750,750,750,750,750,750,750,750,750,750,750,750,750,750,750,750,750,750,750,750,488],"ymouse":[521,521,521,521,521,521,521,521,521,521,521,521,521,521,521,521,521,521,521,521,521,521,521,521,521,521,521,521,521,521,521,521,521,521,521,521,521,521,521,521,521,521,521,521,521,521,521,521,521,521,521,521,521,521,521,521,521,521,521,521,521,521,521,521,521,521,521,521,521,521,521,521,521,521,521,521,521,521,521,521,521,521,521,521,521,521,521,521,521,521,521,521,521,521,521,521,521,521,521,521,521,85],"timestamp_mouse":[11,28,50,70,90,108,130,149,170,189,209,230,249,268,288,308,328,349,370,388,408,429,450,469,488,508,529,549,570,589,610,629,648,668,689,710,729,748,768,788,809,828,848,868,888,908,929,950,968,988,1009,1030,1049,1070,1088,1109,1129,1148,1168,1188,1209,1228,1250,1269,1288,1308,1329,1349,1368,1388,1409,1428,1449,1469,1490,1508,1528,1549,1569,1588,1609,1628,1649,1668,1690,1709,1729,1749,1770,1789,1809,1830,1849,1869,1889,1908,1929,1948,1968,1989,2010,2030],"xSR":732.5,"ySR":458.25,"xT1":419.5,"yT1":0,"xT2":1045.5,"yT2":0,"toosoon":0,"cond_shown":"Congruent","ratio_trial":100,"L_num":12,"L_den":30,"R_num":13,"R_den":26,"correct_side":2,"subjID":"alejandra sanchez collante 20","gender":"1","school":"4","age":"9"},{"start_time":1552074194365,"click_time":1552074195718,"finger_time":1552074195718,"fix_duration":866.1516708065693,"trial":48,"RT":1353,"MT":0,"sideResp":2,"stimulus":[],"xmouse":[779,779,779,779,779,779,779,779,779,779,779,779,779,779,779,779,779,779,779,779,779,779,779,779,779,779,779,779,779,779,779,779,779,779,779,779,779,779,779,779,779,779,779,779,779,779,779,779,779,779,779,779,779,779,779,779,779,779,779,779,779,779,779,779,779,779,779,1074],"ymouse":[499,499,499,499,499,499,499,499,499,499,499,496,491,491,491,491,491,491,491,491,491,491,491,491,491,491,491,491,491,491,491,491,491,491,491,491,491,491,491,491,491,491,491,491,491,491,491,491,491,491,491,491,491,491,491,491,491,491,491,491,491,491,491,491,491,491,491,69],"timestamp_mouse":[14,32,53,74,92,113,133,152,174,192,213,233,254,273,293,312,333,353,373,392,412,432,453,472,494,512,532,552,574,593,614,632,652,672,693,712,732,752,772,792,812,832,853,872,892,912,933,953,973,992,1012,1033,1053,1073,1092,1112,1134,1154,1172,1192,1214,1232,1253,1273,1293,1313,1332,1353],"xSR":732.5,"ySR":458.25,"xT1":419.5,"yT1":0,"xT2":1045.5,"yT2":0,"toosoon":0,"cond_shown":"Congruent","ratio_trial":300,"L_num":5,"L_den":25,"R_num":6,"R_den":12,"correct_side":2,"subjID":"alejandra sanchez collante 20","gender":"1","school":"4","age":"9"},{"start_time":1552074197189,"click_time":1552074198437,"finger_time":1552074198437,"fix_duration":250,"trial":49,"RT":1248,"MT":0,"sideResp":1,"stimulus":[],"xmouse":[818,818,818,818,818,818,818,818,818,818,818,818,818,818,818,818,818,818,818,818,818,818,818,818,818,818,818,818,818,818,818,818,818,818,818,818,818,818,818,818,818,818,818,818,818,818,818,818,818,818,818,818,818,818,818,818,818,818,818,818,818,818,512],"ymouse":[524,524,524,524,524,524,524,524,524,524,524,524,524,524,524,524,524,524,524,524,524,524,524,524,524,524,524,524,524,524,524,524,524,524,524,524,524,524,524,524,524,524,524,524,524,524,524,524,524,524,524,524,524,524,524,524,524,524,524,524,524,524,89],"timestamp_mouse":[10,30,49,70,88,108,128,149,169,189,208,228,249,270,288,308,329,349,368,388,408,428,448,470,488,508,530,549,569,590,609,630,648,669,688,708,730,749,769,790,809,828,849,868,888,909,928,948,970,988,1008,1029,1049,1069,1088,1108,1128,1148,1169,1189,1210,1228,1248],"xSR":732.5,"ySR":458.25,"xT1":419.5,"yT1":0,"xT2":1045.5,"yT2":0,"toosoon":0,"cond_shown":"Incongruent","ratio_trial":300,"L_num":13,"L_den":26,"R_num":12,"R_den":15,"correct_side":2,"subjID":"alejandra sanchez collante 20","gender":"1","school":"4","age":"9"},{"start_time":1552074200588,"click_time":1552074202198,"finger_time":1552074202198,"fix_duration":1169.5978509192996,"trial":50,"RT":1610,"MT":0,"sideResp":2,"stimulus":[],"xmouse":[779,779,779,779,779,779,779,779,779,779,779,779,779,779,779,779,779,779,779,779,779,779,779,779,779,779,779,779,779,779,779,779,779,779,779,779,779,779,779,779,779,779,779,779,779,779,779,779,779,779,779,779,779,779,779,779,779,779,779,779,779,779,779,779,779,779,779,779,779,779,779,779,779,779,779,779,779,779,779,779,1066],"ymouse":[477,477,477,477,477,477,477,477,477,477,477,477,477,477,477,477,477,477,477,477,477,477,477,477,477,477,477,477,477,477,477,477,477,477,477,477,477,477,477,477,477,477,477,477,477,477,477,477,477,477,477,477,477,477,477,477,477,477,477,477,477,477,477,477,477,477,477,477,477,477,477,477,477,477,477,477,477,477,477,477,32],"timestamp_mouse":[10,31,50,71,90,110,131,149,169,191,210,229,249,270,289,311,329,350,370,391,409,429,449,470,489,511,530,550,569,591,610,630,650,670,690,709,729,749,770,791,810,831,850,871,889,909,929,949,969,990,1009,1029,1049,1069,1091,1110,1129,1150,1170,1191,1210,1229,1249,1269,1289,1310,1330,1350,1369,1390,1409,1430,1450,1469,1491,1511,1531,1550,1570,1589,1610],"xSR":732.5,"ySR":458.25,"xT1":419.5,"yT1":0,"xT2":1045.5,"yT2":0,"toosoon":0,"cond_shown":"Congruent","ratio_trial":300,"L_num":9,"L_den":10,"R_num":3,"R_den":5,"correct_side":1,"subjID":"alejandra sanchez collante 20","gender":"1","school":"4","age":"9"},{"start_time":1552074203929,"click_time":1552074205897,"finger_time":1552074205897,"fix_duration":250,"trial":51,"RT":1968,"MT":0,"sideResp":1,"stimulus":[],"xmouse":[763,766,766,766,766,766,766,766,766,766,766,766,766,766,766,766,766,766,766,766,766,766,766,766,766,766,766,766,766,766,766,766,766,766,766,766,766,766,766,766,766,766,766,766,766,766,766,766,766,766,766,766,766,766,766,766,766,766,766,766,766,766,766,766,766,766,766,766,766,766,766,766,766,766,766,766,766,766,766,766,766,766,766,766,766,766,766,766,766,766,766,766,766,766,766,766,766,766,468],"ymouse":[500,501,501,501,501,501,501,501,501,501,501,501,501,501,501,501,501,501,501,501,501,501,501,501,501,501,501,501,501,501,501,501,501,501,501,501,501,501,501,501,501,501,501,501,501,501,501,501,501,501,501,501,501,501,501,501,501,501,501,501,501,501,501,501,501,501,501,501,501,501,501,501,501,501,501,501,501,501,501,501,501,501,501,501,501,501,501,501,501,501,501,501,501,501,501,501,501,501,22],"timestamp_mouse":[10,29,49,68,89,108,129,149,170,188,208,228,249,270,289,308,330,348,370,388,408,428,449,469,489,508,528,549,569,588,608,628,649,669,690,709,729,749,770,788,810,829,848,869,888,908,929,948,969,988,1009,1029,1048,1068,1088,1108,1129,1149,1168,1188,1209,1228,1248,1268,1290,1309,1329,1348,1369,1389,1409,1428,1449,1469,1488,1508,1530,1549,1569,1589,1608,1628,1649,1668,1688,1708,1729,1748,1769,1789,1809,1829,1848,1869,1890,1909,1930,1949,1968],"xSR":732.5,"ySR":458.25,"xT1":419.5,"yT1":0,"xT2":1045.5,"yT2":0,"toosoon":0,"cond_shown":"Incongruent","ratio_trial":200,"L_num":4,"L_den":6,"R_num":14,"R_den":30,"correct_side":1,"subjID":"alejandra sanchez collante 20","gender":"1","school":"4","age":"9"},{"start_time":1552074210148,"click_time":1552074221537,"finger_time":1552074210597,"fix_duration":250,"trial":52,"RT":449,"MT":10940,"sideResp":1,"stimulus":[],"xmouse":[782,783,784,788,789,791,792,792,792,792,792,792,792,792,792,792,792,792,791,789,789,789,789,789,789,790,795,806,810,810,810,810,810,810,810,810,810,810,810,810,810,810,810,810,810,810,810,810,810,810,810,810,810,810,810,810,810,810,810,810,810,810,810,810,810,810,810,810,810,810,810,810,810,810,810,810,810,919,925,928,934,936,936,936,936,936,935,933,933,932,928,926,925,925,925,924,924,921,913,907,902,899,897,897,896,895,894,894,892,888,887,886,880,868,856,832,798,751,655,628,601,590,583,568,562,558,556,552,548,547,547,547,547,547,547,547,547,547,547,547,547,547,547,547,547,547,547,547,547,547,547,547,547,547,547,547,547,547,547,547,547,547,547,547,547,547,547,547,547,547,547,547,547,547,547,547,547,547,547,547,547,547,547,547,547,547,547,547,547,547,547,547,547,547,547,547,547,547,547,547,547,547,547,547,547,547,547,547,547,547,547,547,547,547,547,547,547,547,547,547,547,547,547,547,547,547,547,547,547,547,547,547,547,547,547,547,547,547,547,547,547,547,547,547,547,547,547,547,547,547,547,547,547,547,547,547,547,547,547,547,547,547,547,547,547,547,547,547,547,547,547,547,547,547,547,547,547,547,547,547,547,547,547,547,547,547,547,547,547,547,547,547,547,547,547,547,547,547,547,547,547,547,547,547,547,547,547,547,547,547,547,547,547,547,547,547,547,547,547,547,547,547,547,547,547,547,547,547,547,547,547,547,547,547,547,547,547,547,547,547,547,547,547,547,547,547,547,547,547,547,547,547,547,547,547,547,547,547,547,547,547,547,547,547,547,547,547,547,547,547,547,547,547,547,547,547,547,547,547,547,547,547,547,547,547,547,547,547,547,547,547,547,547,547,547,547,547,547,547,547,547,547,547,547,547,547,547,547,547,547,547,547,547,547,547,547,547,547,547,547,547,547,547,547,547,547,547,547,547,547,547,547,547,547,547,547,547,547,547,547,547,547,547,547,547,547,547,547,547,547,547,547,547,547,547,547,547,547,547,547,547,547,547,547,547,547,547,547,547,547,547,547,547,547,547,547,547,547,547,547,547,547,547,547,547,547,547,547,547,547,547,547,547,547,547,547,547,547,547,547,547,547,547,547,547,547,547,547,547,547,547,547,547,547,547,547,547,547,547,547,547,547,547,547,547,547,547,547,547,547,547,547,547,547,547,547,547,547,547,547,547,547,547,549,607,653,708,726,744,767,771,768,739,619,619,619,619,619,619,619,619,619,619,619,619,619,619,619,619,450],"ymouse":[510,509,509,509,510,510,510,510,510,510,510,510,510,510,510,510,510,511,516,522,532,544,564,596,611,628,645,682,703,703,703,703,703,703,703,703,703,703,703,703,703,703,703,703,703,703,703,703,703,703,703,703,703,703,703,703,703,703,703,703,703,703,703,703,703,703,703,703,703,703,703,703,703,703,703,703,703,695,686,678,661,647,613,596,580,568,560,557,556,556,556,555,555,555,555,555,555,553,552,551,550,550,549,549,549,549,549,549,549,548,548,548,553,578,585,594,600,608,618,619,619,619,619,615,614,613,612,611,610,609,609,609,609,609,609,609,609,609,609,609,609,609,609,609,609,609,609,609,609,609,609,609,609,609,609,609,609,609,609,609,609,609,609,609,609,609,609,609,609,609,609,609,609,609,609,609,609,609,609,609,609,609,609,609,609,609,609,609,609,609,609,609,609,609,609,609,609,609,609,609,609,609,609,609,609,609,609,609,609,609,609,609,609,609,609,609,609,609,609,609,609,609,609,609,609,609,609,609,609,609,609,609,609,609,609,609,609,609,609,609,609,609,609,609,609,609,609,609,609,609,609,609,609,609,609,609,609,609,609,609,609,609,609,609,609,609,609,609,609,609,609,609,609,609,609,609,609,609,609,609,609,609,609,609,609,609,609,609,609,609,609,609,609,609,609,609,609,609,609,609,609,609,609,609,609,609,609,609,609,609,609,609,609,609,609,609,609,609,609,609,609,609,609,609,609,609,609,609,609,609,609,609,609,609,609,609,609,609,609,609,609,609,609,609,609,609,609,609,609,609,609,609,609,609,609,609,609,609,609,609,609,609,609,609,609,609,609,609,609,609,609,609,609,609,609,609,609,609,609,609,609,609,609,609,609,609,609,609,609,609,609,609,609,609,609,609,609,609,609,609,609,609,609,609,609,609,609,609,609,609,609,609,609,609,609,609,609,609,609,609,609,609,609,609,609,609,609,609,609,609,609,609,609,609,609,609,609,609,609,609,609,609,609,609,609,609,609,609,609,609,609,609,609,609,609,609,609,609,609,609,609,609,609,609,609,609,609,609,609,609,609,609,609,609,609,609,609,609,609,609,609,609,609,609,609,609,609,609,609,609,609,609,609,609,609,609,609,609,609,609,609,609,609,609,609,609,609,609,609,609,609,609,609,609,609,609,609,609,609,609,609,609,609,609,609,609,609,609,609,609,609,609,609,609,609,609,609,609,609,609,609,609,609,603,521,441,325,294,251,134,88,63,42,3,3,3,3,3,3,3,3,3,3,3,3,3,3,3,3,36],"timestamp_mouse":[10,30,50,69,89,109,129,151,171,189,210,231,250,269,290,310,329,351,369,389,409,429,449,470,490,511,530,551,569,589,610,630,651,670,689,709,731,751,771,789,809,829,849,869,889,909,931,950,970,989,1009,1030,1050,1070,1090,1111,1129,1149,1169,1189,1209,1230,