[{"start_time":1552312986777,"click_time":1552312990525,"finger_time":1552312986788,"fix_duration":590.2176268146978,"trial":0,"RT":11,"MT":3737,"sideResp":1,"stimulus":[],"xmouse":[784,784,784,784,784,784,784,784,784,784,784,784,784,784,784,784,784,784,784,784,784,784,784,784,784,784,784,784,784,784,784,784,784,784,784,784,784,784,785,788,796,816,826,829,829,829,829,829,829,827,823,807,804,802,802,802,802,802,801,801,801,803,803,803,803,803,804,804,804,804,804,804,804,804,804,804,804,804,804,804,804,804,804,804,804,804,804,804,804,804,804,804,804,804,804,804,804,804,804,804,804,804,804,804,804,804,804,804,804,804,809,826,849,875,904,930,952,953,953,953,955,960,962,962,963,963,961,957,940,916,889,851,848,848,848,848,876,884,892,896,902,922,931,938,944,945,948,948,953,965,977,1020,1032,1061,1096,1134,1174,1174,1174,1174,1174,1097,1064,1043,1036,1034,1034,1034,1034,1034,1034,1034,1034,1025,1006,964,773,691,608,542,494,471,471,471,471,471,477,488],"ymouse":[542,542,542,542,542,542,542,542,542,542,542,542,542,542,542,542,542,542,542,542,542,542,542,542,542,542,542,542,542,542,542,542,542,542,542,542,542,542,547,558,577,613,627,632,632,632,632,632,632,625,617,596,591,590,590,590,590,590,591,595,598,606,608,608,608,608,609,609,609,609,609,609,609,609,609,609,609,609,609,609,609,609,609,609,609,609,609,609,609,609,609,609,609,609,609,609,609,609,609,609,609,609,609,609,609,609,609,609,609,609,606,597,588,582,575,567,559,558,558,558,558,557,556,555,554,552,548,545,539,532,523,513,512,512,512,511,495,487,481,477,471,450,442,435,426,425,423,423,420,417,414,405,400,385,364,341,312,312,312,312,312,309,304,302,300,300,300,300,300,300,300,300,300,290,276,248,91,7,0,0,0,0,0,0,0,0,0,3],"timestamp_mouse":[11,26,47,68,87,108,128,147,167,187,207,227,247,267,288,308,327,347,367,387,407,427,447,467,487,507,527,547,567,587,606,626,647,666,686,706,728,748,768,787,808,827,848,867,887,906,927,948,968,988,1007,1026,1046,1067,1088,1107,1128,1148,1167,1186,1207,1227,1247,1266,1288,1306,1327,1347,1366,1387,1406,1427,1447,1466,1487,1507,1527,1547,1567,1586,1608,1627,1647,1667,1686,1708,1726,1748,1767,1788,1807,1827,1847,1867,1887,1906,1926,1948,1966,1986,2007,2028,2048,2067,2086,2106,2128,2147,2167,2186,2206,2228,2248,2267,2287,2308,2327,2347,2367,2388,2408,2427,2447,2466,2486,2506,2526,2547,2566,2587,2608,2626,2648,2668,2688,2708,2727,2748,2766,2786,2806,2828,2847,2867,2886,2906,2926,2946,2966,2988,3007,3027,3048,3067,3087,3107,3127,3147,3168,3187,3207,3227,3247,3267,3288,3307,3327,3347,3367,3388,3408,3427,3446,3467,3488,3507,3527,3548,3567,3586,3607,3627,3647,3668,3686,3707,3727,3748],"xSR":741.5,"ySR":469.95,"xT1":424.9,"yT1":0,"xT2":1058.1,"yT2":0,"toosoon":0,"cond_shown":"Incongruent","ratio_trial":200,"L_num":1,"L_den":2,"R_num":3,"R_den":10,"correct_side":1,"subjID":"Angel  Emanuel  Duque   beitran  16","gender":"0","age":"9","school":"4","test":{"fix_dur":[250,1500],"timestim":1000,"targets_dim":[100,100],"targets_relative_coord":[0.3,0.7],"size_stim":[880,420],"start_dim":[100,100],"size_start":[300,300],"size_fix":60,"samplingrate":20,"img_types":["Congruent","Incongruent"],"ratios":[100,200,300],"rep_conds":19,"nTrials":120,"trials_to_rest":500,"Trials_order":[99,117,53,23,33,35,40,91,82,107,16,28,9,14,114,98,30,109,72,52,19,86,17,2,12,79,0,32,6,70,101,42,22,84,83,110,95,31,92,61,104,115,77,58,94,96,47,87,3,119,65,100,29,36,60,68,43,78,59,45,97,69,89,118,76,39,112,105,81,34,57,75,67,102,71,49,103,113,106,26,1,48,41,38,55,27,108,85,25,93,63,80,24,62,54,44,11,5,10,51,74,66,64,21,20,13,8,7,88,111,56,18,37,116,46,50,15,4,73,90],"cond_shown":["Incongruent","Incongruent","Incongruent","Incongruent","Incongruent","Incongruent","Congruent","Incongruent","Congruent","Incongruent","Congruent","Congruent","Incongruent","Congruent","Congruent","Congruent","Congruent","Incongruent","Congruent","Congruent","Incongruent","Congruent","Incongruent","Congruent","Congruent","Incongruent","Congruent","Congruent","Congruent","Congruent","Incongruent","Congruent","Congruent","Congruent","Incongruent","Congruent","Incongruent","Incongruent","Congruent","Incongruent","Congruent","Incongruent","Incongruent","Congruent","Congruent","Congruent","Incongruent","Incongruent","Incongruent","Incongruent","Incongruent","Congruent","Incongruent","Congruent","Congruent","Congruent","Incongruent","Congruent","Incongruent","Incongruent","Incongruent","Incongruent","Incongruent","Congruent","Congruent","Incongruent","Congruent","Incongruent","Incongruent","Congruent","Incongruent","Incongruent","Incongruent","Congruent","Incongruent","Incongruent","Incongruent","Incongruent","Congruent","Congruent","Incongruent","Congruent","Incongruent","Congruent","Incongruent","Incongruent","Congruent","Incongruent","Incongruent","Incongruent","Incongruent","Congruent","Congruent","Congruent","Congruent","Congruent","Incongruent","Incongruent","Congruent","Incongruent","Congruent","Congruent","Congruent","Incongruent","Congruent","Incongruent","Congruent","Incongruent","Congruent","Incongruent","Congruent","Congruent","Incongruent","Congruent","Congruent","Congruent","Incongruent","Congruent","Incongruent","Congruent"],"ratio_trial":[200,200,300,300,200,300,300,100,300,300,300,300,200,200,100,200,100,100,100,300,100,200,300,200,100,100,100,200,100,300,300,100,300,100,300,200,300,100,200,100,200,100,300,300,300,100,300,200,200,300,300,300,300,100,100,200,100,100,300,200,100,200,300,300,300,200,300,200,200,300,200,200,100,100,300,100,100,300,300,200,100,100,300,200,100,200,100,100,100,200,200,200,100,200,100,200,300,300,300,200,200,100,300,200,200,100,200,100,300,200,200,100,100,200,300,200,200,300,100,100],"left_num":[1,7,1,8,4,4,1,8,20,4,20,3,7,20,10,4,4,2,4,12,6,4,4,8,7,10,9,6,1,12,8,6,5,7,13,13,4,13,11,6,6,10,4,3,4,8,13,1,3,4,13,5,8,2,3,21,1,6,3,6,17,6,1,1,7,7,1,14,4,20,7,4,17,1,13,8,13,4,24,7,2,4,13,6,10,1,7,12,8,7,4,9,11,3,4,6,1,13,3,7,6,7,4,7,3,11,3,12,1,14,6,9,3,8,20,8,6,8,8,2],"right_num":[3,4,2,9,1,2,19,1,13,8,5,4,14,9,3,3,15,8,6,2,13,3,2,3,9,9,8,11,3,2,14,5,6,15,12,14,2,6,3,7,3,8,2,4,1,2,12,2,1,2,12,7,9,11,4,2,8,5,4,3,10,3,3,7,20,6,3,6,6,8,6,14,10,3,12,1,12,2,8,18,8,6,12,3,8,2,15,9,1,14,6,4,6,7,15,11,2,12,2,12,11,15,2,12,14,9,7,2,3,12,7,8,8,7,8,2,3,1,6,11],"left_den":[2,15,2,10,30,20,3,20,25,5,25,6,10,25,25,8,10,4,8,24,10,8,20,15,14,25,15,20,2,24,10,20,25,14,26,26,20,26,22,10,15,25,20,6,10,16,26,3,10,20,26,25,10,5,20,30,2,20,6,20,30,20,2,20,14,15,5,30,5,25,15,6,30,2,26,20,26,20,30,15,4,8,26,15,25,3,14,24,20,10,5,20,22,10,10,20,2,26,6,10,20,14,5,10,6,22,10,30,5,30,12,15,5,15,25,15,20,16,16,5],"right_den":[10,6,10,18,3,4,30,2,26,16,10,5,28,15,10,10,30,20,10,10,26,10,4,9,15,18,16,22,5,10,28,25,12,25,15,20,4,10,10,14,15,16,4,5,10,5,15,15,2,4,15,14,18,22,16,4,20,25,20,6,15,6,15,20,25,9,6,9,10,16,9,30,15,5,15,2,20,4,16,27,20,10,15,15,16,15,25,15,2,28,10,16,15,14,30,22,10,15,10,24,22,25,4,24,20,15,14,4,6,18,10,16,16,21,16,6,6,5,10,22],"correct_side":[1,2,1,1,2,2,2,2,1,1,1,2,1,1,1,1,2,1,2,1,1,1,2,1,2,2,1,2,2,1,1,1,2,2,2,2,2,2,1,1,1,2,2,2,1,1,2,1,2,2,2,2,1,2,2,1,1,1,1,2,2,2,1,2,2,2,2,2,1,1,2,1,2,2,2,2,2,2,1,2,1,2,2,1,2,1,2,2,2,1,1,1,1,2,2,2,1,2,1,1,2,2,1,1,2,2,2,2,2,2,2,1,1,1,1,1,2,1,2,2],"img_shown":["img2/200/Incongruent/L/I_Dist_200_LN_1_LD_2_RN_3_RD_10_0.png","img2/200/Incongruent/R/I_Dist_200_LN_7_LD_15_RN_4_RD_6_1.png","img2/300/Incongruent/L/I_Dist_300_LN_1_LD_2_RN_2_RD_10_0.png","img2/300/Incongruent/L/I_Dist_300_LN_8_LD_10_RN_9_RD_18_0.png","img2/200/Incongruent/R/I_Dist_200_LN_4_LD_30_RN_1_RD_3_1.png","img2/300/Incongruent/R/I_Dist_300_LN_4_LD_20_RN_2_RD_4_1.png","img2/300/Congruent/R/C_Dist_300_LN_1_LD_3_RN_19_RD_30_1.png","img2/100/Incongruent/R/I_Dist_100_LN_8_LD_20_RN_1_RD_2_1.png","img2/300/Congruent/L/C_Dist_300_LN_20_LD_25_RN_13_RD_26_0.png","img2/300/Incongruent/L/I_Dist_300_LN_4_LD_5_RN_8_RD_16_0.png","img2/300/Congruent/L/C_Dist_300_LN_20_LD_25_RN_5_RD_10_0.png","img2/300/Congruent/R/C_Dist_300_LN_3_LD_6_RN_4_RD_5_1.png","img2/200/Incongruent/L/I_Dist_200_LN_7_LD_10_RN_14_RD_28_0.png","img2/200/Congruent/L/C_Dist_200_LN_20_LD_25_RN_9_RD_15_0.png","img2/100/Congruent/L/C_Dist_100_LN_10_LD_25_RN_3_RD_10_0.png","img2/200/Congruent/L/C_Dist_200_LN_4_LD_8_RN_3_RD_10_0.png","img2/100/Congruent/R/C_Dist_100_LN_4_LD_10_RN_15_RD_30_1.png","img2/100/Incongruent/L/I_Dist_100_LN_2_LD_4_RN_8_RD_20_0.png","img2/100/Congruent/R/C_Dist_100_LN_4_LD_8_RN_6_RD_10_1.png","img2/300/Congruent/L/C_Dist_300_LN_12_LD_24_RN_2_RD_10_0.png","img2/100/Incongruent/L/I_Dist_100_LN_6_LD_10_RN_13_RD_26_0.png","img2/200/Congruent/L/C_Dist_200_LN_4_LD_8_RN_3_RD_10_0.png","img2/300/Incongruent/R/I_Dist_300_LN_4_LD_20_RN_2_RD_4_1.png","img2/200/Congruent/L/C_Dist_200_LN_8_LD_15_RN_3_RD_9_0.png","img2/100/Congruent/R/C_Dist_100_LN_7_LD_14_RN_9_RD_15_1.png","img2/100/Incongruent/R/I_Dist_100_LN_10_LD_25_RN_9_RD_18_1.png","img2/100/Congruent/L/C_Dist_100_LN_9_LD_15_RN_8_RD_16_0.png","img2/200/Congruent/R/C_Dist_200_LN_6_LD_20_RN_11_RD_22_1.png","img2/100/Congruent/R/C_Dist_100_LN_1_LD_2_RN_3_RD_5_1.png","img2/300/Congruent/L/C_Dist_300_LN_12_LD_24_RN_2_RD_10_0.png","img2/300/Incongruent/L/I_Dist_300_LN_8_LD_10_RN_14_RD_28_0.png","img2/100/Congruent/L/C_Dist_100_LN_6_LD_20_RN_5_RD_25_0.png","img2/300/Congruent/R/C_Dist_300_LN_5_LD_25_RN_6_RD_12_1.png","img2/100/Congruent/R/C_Dist_100_LN_7_LD_14_RN_15_RD_25_1.png","img2/300/Incongruent/R/I_Dist_300_LN_13_LD_26_RN_12_RD_15_1.png","img2/200/Congruent/R/C_Dist_200_LN_13_LD_26_RN_14_RD_20_1.png","img2/300/Incongruent/R/I_Dist_300_LN_4_LD_20_RN_2_RD_4_1.png","img2/100/Incongruent/R/I_Dist_100_LN_13_LD_26_RN_6_RD_10_1.png","img2/200/Congruent/L/C_Dist_200_LN_11_LD_22_RN_3_RD_10_0.png","img2/100/Incongruent/L/I_Dist_100_LN_6_LD_10_RN_7_RD_14_0.png","img2/200/Congruent/L/C_Dist_200_LN_6_LD_15_RN_3_RD_15_0.png","img2/100/Incongruent/R/I_Dist_100_LN_10_LD_25_RN_8_RD_16_1.png","img2/300/Incongruent/R/I_Dist_300_LN_4_LD_20_RN_2_RD_4_1.png","img2/300/Congruent/R/C_Dist_300_LN_3_LD_6_RN_4_RD_5_1.png","img2/300/Congruent/L/C_Dist_300_LN_4_LD_10_RN_1_RD_10_0.png","img2/100/Congruent/L/C_Dist_100_LN_8_LD_16_RN_2_RD_5_0.png","img2/300/Incongruent/R/I_Dist_300_LN_13_LD_26_RN_12_RD_15_1.png","img2/200/Incongruent/L/I_Dist_200_LN_1_LD_3_RN_2_RD_15_0.png","img2/200/Incongruent/R/I_Dist_200_LN_3_LD_10_RN_1_RD_2_1.png","img2/300/Incongruent/R/I_Dist_300_LN_4_LD_20_RN_2_RD_4_1.png","img2/300/Incongruent/R/I_Dist_300_LN_13_LD_26_RN_12_RD_15_1.png","img2/300/Congruent/R/C_Dist_300_LN_5_LD_25_RN_7_RD_14_1.png","img2/300/Incongruent/L/I_Dist_300_LN_8_LD_10_RN_9_RD_18_0.png","img2/100/Congruent/R/C_Dist_100_LN_2_LD_5_RN_11_RD_22_1.png","img2/100/Congruent/R/C_Dist_100_LN_3_LD_20_RN_4_RD_16_1.png","img2/200/Congruent/L/C_Dist_200_LN_21_LD_30_RN_2_RD_4_0.png","img2/100/Incongruent/L/I_Dist_100_LN_1_LD_2_RN_8_RD_20_0.png","img2/100/Congruent/L/C_Dist_100_LN_6_LD_20_RN_5_RD_25_0.png","img2/300/Incongruent/L/I_Dist_300_LN_3_LD_6_RN_4_RD_20_0.png","img2/200/Incongruent/R/I_Dist_200_LN_6_LD_20_RN_3_RD_6_1.png","img2/100/Incongruent/R/I_Dist_100_LN_17_LD_30_RN_10_RD_15_1.png","img2/200/Incongruent/R/I_Dist_200_LN_6_LD_20_RN_3_RD_6_1.png","img2/300/Incongruent/L/I_Dist_300_LN_1_LD_2_RN_3_RD_15_0.png","img2/300/Congruent/R/C_Dist_300_LN_1_LD_20_RN_7_RD_20_1.png","img2/300/Congruent/R/C_Dist_300_LN_7_LD_14_RN_20_RD_25_1.png","img2/200/Incongruent/R/I_Dist_200_LN_7_LD_15_RN_6_RD_9_1.png","img2/300/Congruent/R/C_Dist_300_LN_1_LD_5_RN_3_RD_6_1.png","img2/200/Incongruent/R/I_Dist_200_LN_14_LD_30_RN_6_RD_9_1.png","img2/200/Incongruent/L/I_Dist_200_LN_4_LD_5_RN_6_RD_10_0.png","img2/300/Congruent/L/C_Dist_300_LN_20_LD_25_RN_8_RD_16_0.png","img2/200/Incongruent/R/I_Dist_200_LN_7_LD_15_RN_6_RD_9_1.png","img2/200/Incongruent/L/I_Dist_200_LN_4_LD_6_RN_14_RD_30_0.png","img2/100/Incongruent/R/I_Dist_100_LN_17_LD_30_RN_10_RD_15_1.png","img2/100/Congruent/R/C_Dist_100_LN_1_LD_2_RN_3_RD_5_1.png","img2/300/Incongruent/R/I_Dist_300_LN_13_LD_26_RN_12_RD_15_1.png","img2/100/Incongruent/R/I_Dist_100_LN_8_LD_20_RN_1_RD_2_1.png","img2/100/Incongruent/R/I_Dist_100_LN_13_LD_26_RN_12_RD_20_1.png","img2/300/Incongruent/R/I_Dist_300_LN_4_LD_20_RN_2_RD_4_1.png","img2/300/Congruent/L/C_Dist_300_LN_24_LD_30_RN_8_RD_16_0.png","img2/200/Congruent/R/C_Dist_200_LN_7_LD_15_RN_18_RD_27_1.png","img2/100/Incongruent/L/I_Dist_100_LN_2_LD_4_RN_8_RD_20_0.png","img2/100/Congruent/R/C_Dist_100_LN_4_LD_8_RN_6_RD_10_1.png","img2/300/Incongruent/R/I_Dist_300_LN_13_LD_26_RN_12_RD_15_1.png","img2/200/Congruent/L/C_Dist_200_LN_6_LD_15_RN_3_RD_15_0.png","img2/100/Incongruent/R/I_Dist_100_LN_10_LD_25_RN_8_RD_16_1.png","img2/200/Incongruent/L/I_Dist_200_LN_1_LD_3_RN_2_RD_15_0.png","img2/100/Congruent/R/C_Dist_100_LN_7_LD_14_RN_15_RD_25_1.png","img2/100/Incongruent/R/I_Dist_100_LN_12_LD_24_RN_9_RD_15_1.png","img2/100/Incongruent/R/I_Dist_100_LN_8_LD_20_RN_1_RD_2_1.png","img2/200/Incongruent/L/I_Dist_200_LN_7_LD_10_RN_14_RD_28_0.png","img2/200/Incongruent/L/I_Dist_200_LN_4_LD_5_RN_6_RD_10_0.png","img2/200/Congruent/L/C_Dist_200_LN_9_LD_20_RN_4_RD_16_0.png","img2/100/Congruent/L/C_Dist_100_LN_11_LD_22_RN_6_RD_15_0.png","img2/200/Congruent/R/C_Dist_200_LN_3_LD_10_RN_7_RD_14_1.png","img2/100/Congruent/R/C_Dist_100_LN_4_LD_10_RN_15_RD_30_1.png","img2/200/Congruent/R/C_Dist_200_LN_6_LD_20_RN_11_RD_22_1.png","img2/300/Incongruent/L/I_Dist_300_LN_1_LD_2_RN_2_RD_10_0.png","img2/300/Incongruent/R/I_Dist_300_LN_13_LD_26_RN_12_RD_15_1.png","img2/300/Congruent/L/C_Dist_300_LN_3_LD_6_RN_2_RD_10_0.png","img2/200/Incongruent/L/I_Dist_200_LN_7_LD_10_RN_12_RD_24_0.png","img2/200/Congruent/R/C_Dist_200_LN_6_LD_20_RN_11_RD_22_1.png","img2/100/Congruent/R/C_Dist_100_LN_7_LD_14_RN_15_RD_25_1.png","img2/300/Congruent/L/C_Dist_300_LN_4_LD_5_RN_2_RD_4_0.png","img2/200/Incongruent/L/I_Dist_200_LN_7_LD_10_RN_12_RD_24_0.png","img2/200/Congruent/R/C_Dist_200_LN_3_LD_6_RN_14_RD_20_1.png","img2/100/Incongruent/R/I_Dist_100_LN_11_LD_22_RN_9_RD_15_1.png","img2/200/Congruent/R/C_Dist_200_LN_3_LD_10_RN_7_RD_14_1.png","img2/100/Incongruent/R/I_Dist_100_LN_12_LD_30_RN_2_RD_4_1.png","img2/300/Congruent/R/C_Dist_300_LN_1_LD_5_RN_3_RD_6_1.png","img2/200/Incongruent/R/I_Dist_200_LN_14_LD_30_RN_12_RD_18_1.png","img2/200/Congruent/R/C_Dist_200_LN_6_LD_12_RN_7_RD_10_1.png","img2/100/Congruent/L/C_Dist_100_LN_9_LD_15_RN_8_RD_16_0.png","img2/100/Incongruent/L/I_Dist_100_LN_3_LD_5_RN_8_RD_16_0.png","img2/200/Congruent/L/C_Dist_200_LN_8_LD_15_RN_7_RD_21_0.png","img2/300/Congruent/L/C_Dist_300_LN_20_LD_25_RN_8_RD_16_0.png","img2/200/Congruent/L/C_Dist_200_LN_8_LD_15_RN_2_RD_6_0.png","img2/200/Incongruent/R/I_Dist_200_LN_6_LD_20_RN_3_RD_6_1.png","img2/300/Congruent/L/C_Dist_300_LN_8_LD_16_RN_1_RD_5_0.png","img2/100/Incongruent/R/I_Dist_100_LN_8_LD_16_RN_6_RD_10_1.png","img2/100/Congruent/R/C_Dist_100_LN_2_LD_5_RN_11_RD_22_1.png"],"dist100_C":[["C_Dist_100_LN_10_LD_25_RN_3_RD_10_0.png","C_Dist_100_LN_11_LD_22_RN_4_RD_10_0.png","C_Dist_100_LN_11_LD_22_RN_6_RD_15_0.png","C_Dist_100_LN_15_LD_25_RN_13_RD_26_0.png","C_Dist_100_LN_3_LD_6_RN_2_RD_5_0.png","C_Dist_100_LN_6_LD_20_RN_5_RD_25_0.png","C_Dist_100_LN_8_LD_16_RN_2_RD_5_0.png","C_Dist_100_LN_9_LD_15_RN_8_RD_16_0.png"],["C_Dist_100_LN_1_LD_2_RN_18_RD_30_1.png","C_Dist_100_LN_1_LD_2_RN_3_RD_5_1.png","C_Dist_100_LN_12_LD_30_RN_13_RD_26_1.png","C_Dist_100_LN_2_LD_5_RN_11_RD_22_1.png","C_Dist_100_LN_2_LD_5_RN_6_RD_12_1.png","C_Dist_100_LN_3_LD_20_RN_4_RD_16_1.png","C_Dist_100_LN_4_LD_10_RN_15_RD_30_1.png","C_Dist_100_LN_4_LD_8_RN_6_RD_10_1.png","C_Dist_100_LN_6_LD_12_RN_15_RD_25_1.png","C_Dist_100_LN_7_LD_14_RN_15_RD_25_1.png","C_Dist_100_LN_7_LD_14_RN_9_RD_15_1.png"]],"dist100_I":[["I_Dist_100_LN_1_LD_2_RN_8_RD_20_0.png","I_Dist_100_LN_2_LD_4_RN_6_RD_15_0.png","I_Dist_100_LN_2_LD_4_RN_8_RD_20_0.png","I_Dist_100_LN_3_LD_5_RN_11_RD_22_0.png","I_Dist_100_LN_3_LD_5_RN_8_RD_16_0.png","I_Dist_100_LN_3_LD_6_RN_4_RD_10_0.png","I_Dist_100_LN_3_LD_9_RN_7_RD_30_0.png","I_Dist_100_LN_4_LD_8_RN_8_RD_20_0.png","I_Dist_100_LN_6_LD_10_RN_11_RD_22_0.png","I_Dist_100_LN_6_LD_10_RN_13_RD_26_0.png","I_Dist_100_LN_6_LD_10_RN_7_RD_14_0.png","I_Dist_100_LN_9_LD_10_RN_20_RD_25_0.png","I_Dist_100_LN_9_LD_15_RN_13_RD_26_0.png","I_Dist_100_LN_9_LD_15_RN_14_RD_28_0.png"],["I_Dist_100_LN_10_LD_25_RN_8_RD_16_1.png","I_Dist_100_LN_10_LD_25_RN_9_RD_18_1.png","I_Dist_100_LN_11_LD_22_RN_9_RD_15_1.png","I_Dist_100_LN_12_LD_24_RN_9_RD_15_1.png","I_Dist_100_LN_12_LD_30_RN_2_RD_4_1.png","I_Dist_100_LN_13_LD_26_RN_12_RD_20_1.png","I_Dist_100_LN_13_LD_26_RN_6_RD_10_1.png","I_Dist_100_LN_17_LD_30_RN_10_RD_15_1.png","I_Dist_100_LN_6_LD_12_RN_3_RD_5_1.png","I_Dist_100_LN_8_LD_16_RN_6_RD_10_1.png","I_Dist_100_LN_8_LD_20_RN_1_RD_2_1.png","I_Dist_100_LN_9_LD_18_RN_6_RD_10_1.png"]],"dist100_S":[["E_Dist_100_LN_2_LD_12_RN_2_RD_30_0.png","E_Dist_100_LN_6_LD_10_RN_6_RD_12_0.png"],["E_Dist_100_LN_6_LD_12_RN_6_RD_10_1.png"]],"dist200_C":[["C_Dist_200_LN_11_LD_22_RN_3_RD_10_0.png","C_Dist_200_LN_12_LD_15_RN_6_RD_10_0.png","C_Dist_200_LN_12_LD_20_RN_6_RD_15_0.png","C_Dist_200_LN_14_LD_28_RN_6_RD_20_0.png","C_Dist_200_LN_15_LD_25_RN_4_RD_10_0.png","C_Dist_200_LN_16_LD_20_RN_12_RD_20_0.png","C_Dist_200_LN_16_LD_30_RN_9_RD_27_0.png","C_Dist_200_LN_20_LD_25_RN_9_RD_15_0.png","C_Dist_200_LN_21_LD_30_RN_2_RD_4_0.png","C_Dist_200_LN_4_LD_10_RN_3_RD_15_0.png","C_Dist_200_LN_4_LD_8_RN_3_RD_10_0.png","C_Dist_200_LN_6_LD_15_RN_3_RD_15_0.png","C_Dist_200_LN_7_LD_21_RN_2_RD_15_0.png","C_Dist_200_LN_8_LD_15_RN_2_RD_6_0.png","C_Dist_200_LN_8_LD_15_RN_3_RD_9_0.png","C_Dist_200_LN_8_LD_15_RN_7_RD_21_0.png","C_Dist_200_LN_9_LD_20_RN_4_RD_16_0.png"],["C_Dist_200_LN_1_LD_2_RN_21_RD_30_1.png","C_Dist_200_LN_13_LD_26_RN_14_RD_20_1.png","C_Dist_200_LN_3_LD_10_RN_11_RD_22_1.png","C_Dist_200_LN_3_LD_10_RN_14_RD_28_1.png","C_Dist_200_LN_3_LD_10_RN_7_RD_14_1.png","C_Dist_200_LN_3_LD_12_RN_9_RD_20_1.png","C_Dist_200_LN_3_LD_6_RN_14_RD_20_1.png","C_Dist_200_LN_5_LD_10_RN_14_RD_20_1.png","C_Dist_200_LN_6_LD_12_RN_7_RD_10_1.png","C_Dist_200_LN_6_LD_20_RN_11_RD_22_1.png","C_Dist_200_LN_7_LD_15_RN_18_RD_27_1.png","C_Dist_200_LN_9_LD_30_RN_13_RD_26_1.png"]],"dist200_I":[["I_Dist_200_LN_1_LD_2_RN_3_RD_10_0.png","I_Dist_200_LN_1_LD_3_RN_2_RD_15_0.png","I_Dist_200_LN_3_LD_4_RN_11_RD_20_0.png","I_Dist_200_LN_4_LD_5_RN_6_RD_10_0.png","I_Dist_200_LN_4_LD_6_RN_14_RD_30_0.png","I_Dist_200_LN_7_LD_10_RN_12_RD_24_0.png","I_Dist_200_LN_7_LD_10_RN_14_RD_28_0.png","I_Dist_200_LN_7_LD_10_RN_8_RD_16_0.png"],["I_Dist_200_LN_11_LD_20_RN_3_RD_4_1.png","I_Dist_200_LN_14_LD_30_RN_12_RD_18_1.png","I_Dist_200_LN_14_LD_30_RN_6_RD_9_1.png","I_Dist_200_LN_3_LD_10_RN_1_RD_2_1.png","I_Dist_200_LN_4_LD_30_RN_1_RD_3_1.png","I_Dist_200_LN_6_LD_20_RN_3_RD_6_1.png","I_Dist_200_LN_7_LD_15_RN_4_RD_6_1.png","I_Dist_200_LN_7_LD_15_RN_6_RD_9_1.png","I_Dist_200_LN_9_LD_15_RN_8_RD_10_1.png"]],"dist200_S":[["E_Dist_200_LN_3_LD_6_RN_3_RD_10_0.png"],["E_Dist_200_LN_3_LD_10_RN_3_RD_6_1.png"]],"dist300_C":[["C_Dist_300_LN_11_LD_22_RN_1_RD_5_0.png","C_Dist_300_LN_11_LD_22_RN_2_RD_10_0.png","C_Dist_300_LN_11_LD_22_RN_4_RD_20_0.png","C_Dist_300_LN_12_LD_24_RN_2_RD_10_0.png","C_Dist_300_LN_18_LD_20_RN_9_RD_15_0.png","C_Dist_300_LN_20_LD_25_RN_13_RD_26_0.png","C_Dist_300_LN_20_LD_25_RN_14_RD_28_0.png","C_Dist_300_LN_20_LD_25_RN_5_RD_10_0.png","C_Dist_300_LN_20_LD_25_RN_8_RD_16_0.png","C_Dist_300_LN_20_LD_25_RN_9_RD_18_0.png","C_Dist_300_LN_24_LD_30_RN_2_RD_4_0.png","C_Dist_300_LN_24_LD_30_RN_8_RD_16_0.png","C_Dist_300_LN_3_LD_6_RN_2_RD_10_0.png","C_Dist_300_LN_4_LD_10_RN_1_RD_10_0.png","C_Dist_300_LN_4_LD_5_RN_2_RD_4_0.png","C_Dist_300_LN_8_LD_16_RN_1_RD_5_0.png","C_Dist_300_LN_9_LD_10_RN_3_RD_5_0.png"],["C_Dist_300_LN_1_LD_20_RN_7_RD_20_1.png","C_Dist_300_LN_1_LD_3_RN_19_RD_30_1.png","C_Dist_300_LN_1_LD_30_RN_8_RD_24_1.png","C_Dist_300_LN_1_LD_5_RN_11_RD_22_1.png","C_Dist_300_LN_1_LD_5_RN_3_RD_6_1.png","C_Dist_300_LN_1_LD_5_RN_6_RD_12_1.png","C_Dist_300_LN_2_LD_10_RN_12_RD_24_1.png","C_Dist_300_LN_2_LD_20_RN_10_RD_25_1.png","C_Dist_300_LN_3_LD_12_RN_11_RD_20_1.png","C_Dist_300_LN_3_LD_6_RN_4_RD_5_1.png","C_Dist_300_LN_4_LD_20_RN_13_RD_26_1.png","C_Dist_300_LN_5_LD_25_RN_6_RD_12_1.png","C_Dist_300_LN_5_LD_25_RN_7_RD_14_1.png","C_Dist_300_LN_7_LD_14_RN_20_RD_25_1.png","C_Dist_300_LN_8_LD_15_RN_10_RD_12_1.png"]],"dist300_I":[["I_Dist_300_LN_1_LD_2_RN_2_RD_10_0.png","I_Dist_300_LN_1_LD_2_RN_3_RD_15_0.png","I_Dist_300_LN_2_LD_4_RN_6_RD_30_0.png","I_Dist_300_LN_3_LD_6_RN_4_RD_20_0.png","I_Dist_300_LN_4_LD_5_RN_6_RD_12_0.png","I_Dist_300_LN_4_LD_5_RN_8_RD_16_0.png","I_Dist_300_LN_7_LD_10_RN_8_RD_20_0.png","I_Dist_300_LN_8_LD_10_RN_14_RD_28_0.png","I_Dist_300_LN_8_LD_10_RN_9_RD_18_0.png"],["I_Dist_300_LN_13_LD_26_RN_12_RD_15_1.png","I_Dist_300_LN_4_LD_20_RN_2_RD_4_1.png"]],"dist300_S":[["E_Dist_300_LN_9_LD_12_RN_9_RD_20_0.png"],["E_Dist_300_LN_18_LD_30_RN_18_RD_20_1.png","E_Dist_300_LN_3_LD_10_RN_3_RD_5_1.png","E_Dist_300_LN_9_LD_20_RN_9_RD_12_1.png"]],"dist500_C":[["C_Dist_500_LN_10_LD_13_RN_7_RD_26_0.png","C_Dist_500_LN_10_LD_15_RN_4_RD_24_0.png","C_Dist_500_LN_12_LD_16_RN_3_RD_12_0.png","C_Dist_500_LN_12_LD_18_RN_4_RD_24_0.png","C_Dist_500_LN_15_LD_18_RN_5_RD_15_0.png","C_Dist_500_LN_15_LD_20_RN_1_RD_4_0.png","C_Dist_500_LN_18_LD_27_RN_1_RD_6_0.png","C_Dist_500_LN_20_LD_24_RN_1_RD_3_0.png","C_Dist_500_LN_20_LD_24_RN_3_RD_9_0.png","C_Dist_500_LN_20_LD_24_RN_7_RD_21_0.png","C_Dist_500_LN_20_LD_28_RN_3_RD_14_0.png","C_Dist_500_LN_21_LD_28_RN_6_RD_24_0.png","C_Dist_500_LN_22_LD_28_RN_2_RD_7_0.png","C_Dist_500_LN_25_LD_30_RN_9_RD_27_0.png","C_Dist_500_LN_4_LD_6_RN_1_RD_6_0.png","C_Dist_500_LN_5_LD_6_RN_2_RD_6_0.png","C_Dist_500_LN_6_LD_9_RN_1_RD_6_0.png","C_Dist_500_LN_7_LD_10_RN_1_RD_5_0.png","C_Dist_500_LN_8_LD_12_RN_1_RD_6_0.png","C_Dist_500_LN_8_LD_12_RN_4_RD_24_0.png"],["C_Dist_500_LN_1_LD_4_RN_12_RD_16_1.png","C_Dist_500_LN_1_LD_4_RN_9_RD_12_1.png","C_Dist_500_LN_1_LD_9_RN_11_RD_18_1.png","C_Dist_500_LN_10_LD_24_RN_22_RD_24_1.png","C_Dist_500_LN_2_LD_12_RN_10_RD_15_1.png","C_Dist_500_LN_2_LD_12_RN_12_RD_18_1.png","C_Dist_500_LN_2_LD_12_RN_4_RD_6_1.png","C_Dist_500_LN_2_LD_24_RN_7_RD_12_1.png","C_Dist_500_LN_2_LD_5_RN_18_RD_20_1.png","C_Dist_500_LN_2_LD_5_RN_9_RD_10_1.png","C_Dist_500_LN_2_LD_8_RN_12_RD_16_1.png","C_Dist_500_LN_2_LD_8_RN_21_RD_28_1.png","C_Dist_500_LN_3_LD_10_RN_4_RD_5_1.png","C_Dist_500_LN_3_LD_12_RN_15_RD_20_1.png","C_Dist_500_LN_3_LD_30_RN_6_RD_10_1.png","C_Dist_500_LN_3_LD_8_RN_14_RD_16_1.png","C_Dist_500_LN_4_LD_16_RN_15_RD_20_1.png","C_Dist_500_LN_4_LD_24_RN_12_RD_18_1.png","C_Dist_500_LN_5_LD_14_RN_6_RD_7_1.png","C_Dist_500_LN_7_LD_21_RN_20_RD_24_1.png","C_Dist_500_LN_7_LD_28_RN_12_RD_16_1.png","C_Dist_500_LN_7_LD_28_RN_9_RD_12_1.png","C_Dist_500_LN_9_LD_27_RN_20_RD_24_1.png"]],"dist500_I":[["I_Dist_500_LN_2_LD_3_RN_4_RD_24_0.png","I_Dist_500_LN_5_LD_6_RN_6_RD_18_0.png","I_Dist_500_LN_7_LD_8_RN_9_RD_24_0.png"],["I_Dist_500_LN_7_LD_21_RN_5_RD_6_1.png"]],"dist500_S":[["E_Dist_500_LN_6_LD_8_RN_6_RD_24_0.png"],["E_Dist_500_LN_2_LD_12_RN_2_RD_3_1.png","E_Dist_500_LN_6_LD_24_RN_6_RD_8_1.png"]]}},{"start_time":1552312992956,"click_time":1552312995625,"finger_time":1552312994404,"fix_duration":1450.7072413240944,"trial":1,"RT":1448,"MT":1221,"sideResp":2,"stimulus":[],"xmouse":[780,780,780,780,780,780,780,780,780,780,780,780,780,780,780,780,780,780,780,780,780,780,780,780,780,780,780,780,780,780,780,780,780,780,780,780,780,780,780,780,780,780,780,780,780,780,780,780,780,780,780,780,780,780,780,780,780,780,780,780,780,780,780,780,780,780,780,780,780,796,808,838,847,849,850,850,850,850,850,850,847,812,766,716,671,619,502,479,473,472,475,490,492,493,493,493,494,494,495,499,502,503,500,496,494,494,494,494,494,494,494,494,494,494,494,494,494,494,494,512,535,600,630,650,676,687,749,809,879,955,1023,1070,1079],"ymouse":[616,616,616,616,616,616,616,616,616,616,616,616,616,616,616,616,616,616,616,616,616,616,616,616,616,616,616,616,616,616,616,616,616,616,616,616,616,616,616,616,616,616,616,616,616,616,616,616,616,616,616,616,616,616,616,616,616,616,616,616,616,616,616,616,616,616,616,616,616,594,575,530,514,506,503,503,503,503,503,503,502,501,498,489,472,448,372,355,349,346,338,309,293,269,250,238,233,232,228,219,207,174,158,144,136,131,131,131,131,131,131,131,131,131,131,131,131,131,130,158,204,296,310,311,306,299,243,201,168,147,128,106,98],"timestamp_mouse":[10,53,68,89,109,127,147,167,188,208,228,247,268,288,307,328,348,369,388,407,428,449,469,488,509,527,548,567,588,609,629,647,669,688,709,728,749,768,787,808,829,848,868,889,909,928,948,969,989,1008,1028,1048,1069,1088,1109,1128,1147,1169,1189,1209,1228,1247,1267,1289,1307,1329,1348,1369,1388,1408,1428,1448,1468,1488,1507,1528,1548,1567,1587,1608,1627,1648,1669,1687,1707,1728,1747,1769,1788,1808,1828,1847,1868,1889,1908,1927,1947,1968,1988,2009,2029,2048,2067,2088,2107,2128,2147,2168,2187,2208,2228,2249,2268,2289,2307,2328,2348,2367,2387,2408,2428,2447,2467,2488,2508,2528,2548,2569,2587,2608,2628,2648,2668],"xSR":741.5,"ySR":573.95,"xT1":424.9,"yT1":0,"xT2":1058.1,"yT2":0,"toosoon":0,"cond_shown":"Incongruent","ratio_trial":200,"L_num":7,"L_den":15,"R_num":4,"R_den":6,"correct_side":2,"subjID":"Angel  Emanuel  Duque   beitran  16","gender":"0","school":"4","age":"9"},{"start_time":1552313002800,"click_time":1552313005363,"finger_time":1552313004404,"fix_duration":1494.9406610717294,"trial":2,"RT":1604,"MT":959,"sideResp":1,"stimulus":[],"xmouse":[810,810,810,810,810,810,810,810,810,810,810,810,810,810,810,810,810,810,810,810,810,810,810,810,810,810,810,810,810,810,810,810,810,810,810,810,810,810,810,810,810,810,810,810,810,810,810,810,810,810,810,810,810,810,810,810,810,810,810,810,810,810,810,810,810,810,810,810,810,810,810,810,810,810,810,810,810,810,810,813,866,896,915,927,952,1000,1023,1036,1040,1041,1041,1041,1041,1040,1035,1021,1012,1002,991,978,956,943,934,926,924,923,923,923,923,923,923,923,921,914,890,823,802,788,777,759,694,652,612,583,571,565,555,542,522],"ymouse":[600,600,600,600,600,600,600,600,600,600,600,600,600,600,600,600,600,600,600,600,600,600,600,600,600,600,600,600,600,600,600,600,600,600,600,600,600,600,600,600,600,600,600,600,600,600,600,600,600,600,600,600,600,600,600,600,600,600,600,600,600,600,600,600,600,600,600,600,600,600,600,600,600,600,600,600,600,600,600,597,528,479,438,407,353,242,186,142,107,88,82,82,82,82,82,88,97,110,123,136,161,177,192,203,208,210,210,210,210,210,210,210,211,211,211,200,191,178,154,121,42,0,0,0,0,0,3,11,18],"timestamp_mouse":[10,37,44,63,84,103,123,145,164,183,203,224,244,263,283,303,324,344,364,384,403,424,445,464,483,504,525,544,563,585,605,623,644,665,684,705,724,745,763,784,803,825,844,864,884,904,923,951,963,983,1004,1024,1045,1064,1083,1103,1124,1145,1163,1184,1203,1225,1244,1264,1285,1303,1325,1345,1365,1383,1404,1425,1444,1464,1483,1504,1523,1544,1564,1585,1604,1623,1644,1664,1685,1703,1723,1744,1765,1784,1804,1824,1844,1863,1885,1904,1923,1944,1965,1985,2004,2025,2044,2063,2084,2103,2124,2145,2165,2184,2205,2224,2244,2265,2284,2304,2324,2343,2364,2384,2403,2424,2445,2464,2485,2504,2523,2543,2563],"xSR":741.5,"ySR":573.95,"xT1":424.9,"yT1":0,"xT2":1058.1,"yT2":0,"toosoon":0,"cond_shown":"Incongruent","ratio_trial":300,"L_num":1,"L_den":2,"R_num":2,"R_den":10,"correct_side":1,"subjID":"Angel  Emanuel  Duque   beitran  16","gender":"0","school":"4","age":"9"},{"start_time":1552313007736,"click_time":1552313009563,"finger_time":1552313008983,"fix_duration":1008.6372630458541,"trial":3,"RT":1247,"MT":580,"sideResp":1,"stimulus":[],"xmouse":[766,766,766,766,766,766,766,766,766,766,766,766,766,766,766,766,766,766,766,766,766,766,766,766,766,766,766,766,766,766,766,766,766,766,766,766,766,766,766,766,766,766,766,766,766,766,766,766,766,766,766,766,766,766,766,766,766,766,766,766,763,748,718,705,646,633,622,618,624,626,627,627,628,634,639,653,667,674,647,608,592,548,535,530,529,527,521,514,513,508,508,504],"ymouse":[610,610,610,610,610,610,610,610,610,610,610,610,610,610,610,610,610,610,610,610,610,610,610,610,610,610,610,610,610,610,610,610,610,610,610,610,610,610,610,610,610,610,610,610,610,610,610,610,610,610,610,610,610,610,610,610,610,610,610,610,605,589,555,542,472,463,430,409,388,382,380,379,378,365,344,293,234,169,60,23,12,0,0,0,0,0,0,0,0,0,0,2],"timestamp_mouse":[9,43,48,68,89,109,128,147,167,189,209,229,248,269,288,309,329,348,368,389,408,429,448,468,487,508,528,547,569,588,607,629,648,669,689,709,728,748,769,788,807,827,849,867,887,907,929,949,967,989,1008,1028,1047,1069,1087,1108,1128,1147,1168,1189,1208,1228,1247,1269,1289,1308,1327,1348,1367,1387,1408,1427,1449,1468,1488,1509,1529,1549,1568,1587,1608,1627,1648,1667,1687,1708,1728,1748,1768,1788,1808,1827],"xSR":741.5,"ySR":573.95,"xT1":424.9,"yT1":0,"xT2":1058.1,"yT2":0,"toosoon":0,"cond_shown":"Incongruent","ratio_trial":300,"L_num":8,"L_den":10,"R_num":9,"R_den":18,"correct_side":1,"subjID":"Angel  Emanuel  Duque   beitran  16","gender":"0","school":"4","age":"9"},{"start_time":1552313011506,"click_time":1552313013165,"finger_time":1552313012304,"fix_duration":800.9826883507272,"trial":4,"RT":798,"MT":861,"sideResp":2,"stimulus":[],"xmouse":[773,773,773,773,773,773,773,773,773,773,773,773,773,773,773,773,773,773,773,773,773,773,773,773,773,773,773,773,773,773,773,773,773,773,773,773,786,796,820,845,858,879,898,913,921,927,933,945,965,986,993,998,1003,1009,1019,1024,1027,1032,1034,1037,1038,1038,1039,1039,1039,1039,1039,1037,1032,1022,1021,1021,1021,1021,1021,1021,1021,1021,1021,1035,1045,1052,1060],"ymouse":[615,615,615,615,615,615,615,615,615,615,615,615,615,615,615,615,615,615,615,615,615,615,615,615,615,615,615,615,615,615,615,615,615,615,615,615,610,606,589,567,553,526,495,456,389,345,309,263,200,128,104,83,66,55,41,35,34,31,31,31,31,31,31,31,31,31,31,31,33,42,43,43,43,43,43,43,43,43,44,46,46,46,46],"timestamp_mouse":[26,46,58,78,97,118,139,158,179,199,218,238,258,277,299,318,337,358,378,398,417,437,459,477,499,518,539,557,579,599,617,638,659,678,698,718,738,757,777,798,817,839,858,878,898,917,937,957,977,997,1018,1037,1058,1077,1097,1118,1137,1157,1178,1197,1217,1238,1259,1279,1298,1318,1338,1359,1378,1398,1417,1438,1457,1478,1499,1519,1539,1558,1579,1598,1617,1637,1658],"xSR":741.5,"ySR":573.95,"xT1":424.9,"yT1":0,"xT2":1058.1,"yT2":0,"toosoon":0,"cond_shown":"Incongruent","ratio_trial":200,"L_num":4,"L_den":30,"R_num":1,"R_den":3,"correct_side":2,"subjID":"Angel  Emanuel  Duque   beitran  16","gender":"0","school":"4","age":"9"},{"start_time":1552313014633,"click_time":1552313016224,"finger_time":1552313016004,"fix_duration":327.5846379084281,"trial":5,"RT":1371,"MT":220,"sideResp":2,"stimulus":[],"xmouse":[811,811,811,811,811,811,811,811,811,811,811,811,811,811,811,811,811,811,811,811,811,811,811,811,811,811,811,811,811,811,811,811,811,811,811,811,811,811,811,811,811,811,811,811,811,811,811,811,811,811,811,811,811,811,811,811,811,811,811,811,811,811,811,811,815,820,822,826,840,856,878,888,891,937,958,979,1007,1031,1068,1096],"ymouse":[612,612,612,612,612,612,612,612,612,612,612,612,612,612,612,612,612,612,612,612,612,612,612,612,612,612,612,612,612,612,612,612,612,612,612,612,612,612,612,612,612,612,612,612,612,612,612,612,612,612,612,612,612,612,612,612,612,612,612,612,612,612,612,612,606,588,585,580,561,539,509,493,490,431,400,366,311,244,150,95],"timestamp_mouse":[11,31,51,71,92,110,130,152,172,190,211,232,251,271,290,312,330,351,371,391,411,432,452,471,490,510,530,552,572,592,611,630,652,672,692,710,731,751,772,791,811,831,850,872,891,911,931,951,971,991,1010,1032,1051,1070,1091,1112,1131,1150,1171,1192,1211,1231,1251,1271,1291,1311,1332,1351,1371,1390,1411,1431,1452,1471,1491,1510,1530,1551,1571,1591],"xSR":741.5,"ySR":573.95,"xT1":424.9,"yT1":0,"xT2":1058.1,"yT2":0,"toosoon":0,"cond_shown":"Incongruent","ratio_trial":300,"L_num":4,"L_den":20,"R_num":2,"R_den":4,"correct_side":2,"subjID":"Angel  Emanuel  Duque   beitran  16","gender":"0","school":"4","age":"9"},{"start_time":1552313019083,"click_time":1552313021344,"finger_time":1552313020543,"fix_duration":558.8081010326165,"trial":6,"RT":1460,"MT":801,"sideResp":2,"stimulus":[],"xmouse":[752,752,752,752,752,752,752,752,752,752,752,752,752,752,752,752,752,752,752,752,752,752,752,752,752,752,752,752,752,752,752,752,752,752,752,752,752,752,752,752,752,752,752,752,752,752,752,752,752,752,752,752,752,752,752,752,752,752,752,752,752,752,752,752,752,752,752,752,752,752,752,752,752,733,704,704,674,647,594,569,567,567,567,569,576,593,636,667,703,711,732,746,746,746,746,746,750,750,750,757,781,798,800,808,820,854,919,946,964,982,999,1040,1052,1063],"ymouse":[599,599,599,599,599,599,599,599,599,599,599,599,599,599,599,599,599,599,599,599,599,599,599,599,599,599,599,599,599,599,599,599,599,599,599,599,599,599,599,599,599,599,599,599,599,599,599,599,599,599,599,599,599,599,599,599,599,599,599,599,599,599,599,599,599,599,599,599,599,599,599,599,599,569,538,538,507,474,399,359,350,350,350,349,350,359,386,403,421,426,434,435,435,435,435,435,435,435,435,434,429,415,412,394,376,335,242,197,160,135,116,75,61,49],"timestamp_mouse":[10,21,46,60,82,102,121,141,161,180,200,222,242,260,281,301,321,341,361,382,400,420,442,462,482,501,520,540,562,582,601,622,642,662,681,701,721,742,761,780,800,821,842,862,881,900,922,942,961,980,1000,1021,1041,1062,1081,1102,1121,1141,1161,1180,1201,1221,1242,1261,1281,1302,1321,1341,1361,1381,1402,1421,1441,1460,1481,1501,1521,1540,1560,1580,1602,1622,1640,1660,1681,1700,1720,1740,1761,1782,1801,1821,1841,1861,1881,1902,1921,1942,1962,1982,2001,2021,2041,2061,2081,2100,2120,2142,2161,2182,2202,2220,2242,2261],"xSR":741.5,"ySR":573.95,"xT1":424.9,"yT1":0,"xT2":1058.1,"yT2":0,"toosoon":0,"cond_shown":"Congruent","ratio_trial":300,"L_num":1,"L_den":3,"R_num":19,"R_den":30,"correct_side":2,"subjID":"Angel  Emanuel  Duque   beitran  16","gender":"0","school":"4","age":"9"},{"start_time":1552313025390,"click_time":1552313026625,"finger_time":1552313026403,"fix_duration":825.5151537019113,"trial":7,"RT":1013,"MT":222,"sideResp":2,"stimulus":[],"xmouse":[805,805,805,805,805,805,805,805,805,805,805,805,805,805,805,805,804,803,803,803,803,803,803,803,803,803,803,803,803,803,803,803,803,803,803,803,803,803,803,803,803,803,803,803,803,814,819,825,831,833,854,869,885,893,903,961,987,1014,1034,1052,1090,1116],"ymouse":[662,662,662,662,662,662,662,662,662,662,662,662,662,662,658,653,647,644,640,638,638,638,638,638,638,638,638,638,638,638,638,638,638,638,638,638,638,638,638,638,638,638,638,638,638,626,620,613,606,603,577,560,539,521,507,413,370,315,267,221,133,83],"timestamp_mouse":[13,33,54,75,95,113,135,155,173,193,215,234,253,275,294,313,334,354,375,393,414,435,453,473,495,515,535,555,574,595,615,635,654,674,695,714,734,754,774,795,815,835,854,875,894,914,933,954,974,994,1013,1035,1055,1073,1094,1113,1135,1155,1174,1193,1214,1235],"xSR":741.5,"ySR":573.95,"xT1":424.9,"yT1":0,"xT2":1058.1,"yT2":0,"toosoon":0,"cond_shown":"Incongruent","ratio_trial":100,"L_num":8,"L_den":20,"R_num":1,"R_den":2,"correct_side":2,"subjID":"Angel  Emanuel  Duque   beitran  16","gender":"0","school":"4","age":"9"},{"start_time":1552313032155,"click_time":1552313033345,"finger_time":1552313033204,"fix_duration":569.5109396894103,"trial":8,"RT":1049,"MT":141,"sideResp":1,"stimulus":[],"xmouse":[795,795,795,795,795,795,795,795,795,795,795,795,795,795,795,795,795,795,795,795,795,795,795,795,795,795,795,795,795,795,795,795,795,795,795,795,795,795,795,795,795,795,795,795,795,795,795,795,795,795,795,791,768,721,689,599,575,495,484,479],"ymouse":[603,603,603,603,603,603,603,603,603,603,603,603,603,603,603,603,603,603,603,603,603,603,603,603,603,603,603,603,603,603,603,603,603,603,603,603,603,603,603,603,603,603,603,603,603,603,603,603,603,603,603,598,573,508,463,325,288,132,105,86],"timestamp_mouse":[9,29,49,69,89,109,129,150,169,189,210,230,248,268,289,309,328,349,370,389,410,428,450,470,489,508,528,550,569,589,608,630,650,668,689,708,730,749,770,790,810,830,850,870,890,910,928,948,969,989,1010,1028,1048,1068,1089,1108,1128,1148,1168,1189],"xSR":741.5,"ySR":573.95,"xT1":424.9,"yT1":0,"xT2":1058.1,"yT2":0,"toosoon":0,"cond_shown":"Congruent","ratio_trial":300,"L_num":20,"L_den":25,"R_num":13,"R_den":26,"correct_side":1,"subjID":"Angel  Emanuel  Duque   beitran  16","gender":"0","school":"4","age":"9"},{"start_time":1552313036001,"click_time":1552313036904,"finger_time":1552313036744,"fix_duration":634.3252237285706,"trial":9,"RT":743,"MT":160,"sideResp":1,"stimulus":[],"xmouse":[787,787,787,787,787,787,787,787,787,787,787,787,787,787,787,787,787,787,787,787,787,787,787,787,787,787,787,787,787,787,787,787,787,787,787,786,786,751,698,685,650,597,542,506,489,478],"ymouse":[636,636,636,636,636,636,636,636,636,636,636,636,636,636,636,636,636,636,636,636,636,636,636,636,636,636,636,636,636,636,636,636,636,636,636,630,630,544,436,397,343,264,192,145,114,84],"timestamp_mouse":[13,36,43,63,83,103,123,142,163,183,204,223,243,263,283,303,324,344,362,383,404,424,443,463,483,504,524,543,562,583,603,623,644,663,684,703,723,743,763,783,804,824,843,862,882,903],"xSR":741.5,"ySR":573.95,"xT1":424.9,"yT1":0,"xT2":1058.1,"yT2":0,"toosoon":0,"cond_shown":"Incongruent","ratio_trial":300,"L_num":4,"L_den":5,"R_num":8,"R_den":16,"correct_side":1,"subjID":"Angel  Emanuel  Duque   beitran  16","gender":"0","school":"4","age":"9"},{"start_time":1552313040056,"click_time":1552313042064,"finger_time":1552313041904,"fix_duration":250,"trial":10,"RT":1848,"MT":160,"sideResp":1,"stimulus":[],"xmouse":[775,775,775,775,775,775,775,775,775,775,775,775,775,775,775,775,775,775,775,775,775,775,775,775,775,775,775,775,775,775,775,775,775,775,775,775,775,775,775,775,775,775,775,775,775,775,775,775,775,775,775,775,775,775,775,775,775,775,775,775,775,775,775,775,775,775,775,775,775,775,775,775,775,775,775,775,775,775,775,775,775,775,775,775,775,775,775,775,775,775,775,775,736,675,659,659,641,484,467,466,471],"ymouse":[615,615,615,615,615,615,615,615,615,615,615,615,615,615,615,615,615,615,615,615,615,615,615,615,615,615,615,615,615,615,615,615,615,615,615,615,615,615,615,615,615,615,615,615,615,615,615,615,615,615,615,615,615,615,615,615,615,615,615,615,615,615,615,615,615,615,615,615,615,615,615,615,615,615,615,615,615,615,615,615,615,615,615,615,615,615,615,615,615,615,615,615,532,412,385,384,357,159,120,102,93],"timestamp_mouse":[12,28,49,67,88,107,129,149,168,189,208,228,248,268,287,308,329,348,367,389,409,427,449,467,488,509,529,548,568,588,609,629,648,668,688,707,728,749,769,788,809,829,847,868,889,908,929,948,968,989,1009,1028,1047,1068,1089,1109,1127,1148,1168,1189,1209,1229,1248,1267,1288,1308,1328,1349,1369,1388,1409,1428,1449,1468,1488,1508,1527,1548,1569,1588,1609,1628,1647,1668,1688,1707,1729,1749,1768,1789,1809,1829,1848,1868,1888,1908,1928,1947,1967,1988,2008],"xSR":741.5,"ySR":573.95,"xT1":424.9,"yT1":0,"xT2":1058.1,"yT2":0,"toosoon":0,"cond_shown":"Congruent","ratio_trial":300,"L_num":20,"L_den":25,"R_num":5,"R_den":10,"correct_side":1,"subjID":"Angel  Emanuel  Duque   beitran  16","gender":"0","school":"4","age":"9"},{"start_time":1552313044212,"click_time":1552313046004,"finger_time":1552313045704,"fix_duration":1006.107348813311,"trial":11,"RT":1492,"MT":300,"sideResp":2,"stimulus":[],"xmouse":[758,758,758,758,758,758,758,758,758,758,758,758,758,758,758,758,758,758,758,758,758,758,758,758,758,758,758,758,758,758,758,758,758,758,758,758,758,758,758,758,758,758,758,758,758,758,758,758,758,758,758,758,758,758,758,758,758,758,758,758,758,758,758,758,758,758,758,758,758,758,758,758,766,781,882,913,940,952,968,984,996,1009,1018,1024,1029,1038,1055,1065,1088,1117],"ymouse":[649,649,649,649,649,649,649,649,649,649,649,649,649,649,649,649,649,649,649,649,649,649,649,649,649,649,649,649,649,649,649,649,649,649,649,649,649,649,649,649,649,649,649,649,649,649,649,649,649,649,649,649,649,649,649,649,649,649,649,649,649,649,649,649,649,649,649,649,649,649,649,649,637,623,533,500,468,446,420,398,378,358,339,321,264,238,197,178,139,85],"timestamp_mouse":[12,45,52,71,92,112,131,153,171,193,212,232,252,272,293,312,332,352,371,392,412,433,453,472,491,512,533,551,573,593,613,631,653,672,693,711,732,753,773,792,812,833,853,872,892,911,932,952,972,992,1012,1033,1052,1071,1092,1112,1133,1152,1172,1193,1212,1233,1253,1273,1292,1311,1331,1353,1373,1393,1413,1433,1452,1472,1492,1512,1531,1553,1573,1592,1612,1632,1652,1672,1692,1712,1732,1752,1773,1792],"xSR":741.5,"ySR":573.95,"xT1":424.9,"yT1":0,"xT2":1058.1,"yT2":0,"toosoon":0,"cond_shown":"Congruent","ratio_trial":300,"L_num":3,"L_den":6,"R_num":4,"R_den":5,"correct_side":2,"subjID":"Angel  Emanuel  Duque   beitran  16","gender":"0","school":"4","age":"9"},{"start_time":1552313047840,"click_time":1552313049124,"finger_time":1552313049085,"fix_duration":634.0900953036011,"trial":12,"RT":1245,"MT":39,"sideResp":1,"stimulus":[],"xmouse":[765,765,765,765,765,765,765,765,765,765,765,765,765,765,765,765,765,765,765,765,765,765,765,765,765,765,765,765,765,765,765,765,765,765,765,765,765,765,765,765,765,765,765,765,765,765,765,765,765,765,765,765,765,765,765,765,765,765,765,764,756,748,709,577,509],"ymouse":[632,632,632,632,632,632,632,632,632,632,632,632,632,632,632,632,632,632,632,632,632,632,632,632,632,632,632,632,632,632,632,632,632,632,632,632,632,632,632,632,632,632,632,632,632,632,632,632,632,632,632,632,632,632,632,632,632,632,632,631,615,593,524,273,88],"timestamp_mouse":[4,26,49,65,84,104,123,145,164,185,204,224,245,264,285,305,324,345,365,383,405,424,443,465,485,504,525,545,563,585,604,624,643,665,684,705,724,745,764,784,805,825,845,864,883,905,925,945,965,984,1005,1023,1044,1065,1085,1104,1124,1144,1165,1184,1204,1225,1245,1264,1284],"xSR":741.5,"ySR":573.95,"xT1":424.9,"yT1":0,"xT2":1058.1,"yT2":0,"toosoon":0,"cond_shown":"Incongruent","ratio_trial":200,"L_num":7,"L_den":10,"R_num":14,"R_den":28,"correct_side":1,"subjID":"Angel  Emanuel  Duque   beitran  16","gender":"0","school":"4","age":"9"},{"start_time":1552313050733,"click_time":1552313052064,"finger_time":1552313051645,"fix_duration":286.5874111312613,"trial":13,"RT":912,"MT":419,"sideResp":1,"stimulus":[],"xmouse":[782,782,782,782,782,782,782,782,782,782,782,782,782,782,782,782,782,782,782,782,782,782,782,782,782,782,782,782,782,782,782,782,782,782,782,782,782,782,782,782,782,782,779,771,763,729,677,630,568,542,542,542,541,541,541,541,541,541,541,541,541,541,541,537,525,525,522],"ymouse":[634,634,634,634,634,634,634,634,634,634,634,634,634,634,634,634,634,634,634,634,634,634,634,634,634,634,634,634,634,634,634,634,634,634,634,634,634,634,634,634,634,634,621,596,581,523,409,299,46,0,0,0,0,0,0,0,0,0,0,0,0,0,0,2,17,17,21],"timestamp_mouse":[11,39,63,71,91,112,132,151,172,191,211,232,250,272,292,311,332,350,372,391,411,431,452,472,490,511,532,551,572,592,612,632,651,672,691,712,732,751,771,792,812,832,851,871,891,912,931,952,971,990,1011,1031,1052,1072,1091,1111,1131,1152,1171,1191,1212,1232,1251,1272,1291,1310,1330],"xSR":741.5,"ySR":573.95,"xT1":424.9,"yT1":0,"xT2":1058.1,"yT2":0,"toosoon":0,"cond_shown":"Congruent","ratio_trial":200,"L_num":20,"L_den":25,"R_num":9,"R_den":15,"correct_side":1,"subjID":"Angel  Emanuel  Duque   beitran  16","gender":"0","school":"4","age":"9"},{"start_time":1552313053784,"click_time":1552313056324,"finger_time":1552313054625,"fix_duration":716.8255022917098,"trial":14,"RT":841,"MT":1699,"sideResp":2,"stimulus":[],"xmouse":[786,786,786,786,786,786,786,786,786,786,786,786,786,786,786,786,786,786,786,786,786,786,786,786,786,786,786,786,786,786,786,786,786,786,786,786,786,786,786,792,792,838,894,932,938,1001,1016,1019,1019,1019,1022,1030,1030,1030,1030,1030,1030,1030,1030,1030,1034,1042,1056,1056,1056,1056,1056,1052,1050,1050,1050,1050,1050,1050,1050,1056,1066,1074,1088,1104,1104,1114,1116,1116,1116,1116,1111,1109,1096,1081,1047,977,952,947,947,947,1003,1003,1013,1016,1016,1016,1016,1016,1016,1016,1021,1027,1029,1029,1029,1029,1019,1019,1019,1019,1019,1019,1019,1019,1019,1019,1019,1022,1024,1041,1057,1062],"ymouse":[665,665,665,665,665,665,665,665,665,665,665,665,665,665,665,665,665,665,665,665,665,665,665,665,665,665,665,665,665,665,665,665,665,665,665,665,665,665,665,659,658,600,519,465,453,343,285,269,269,268,250,213,213,213,213,213,213,213,213,213,209,202,193,193,193,193,193,193,193,193,193,193,193,193,192,187,174,161,140,122,122,110,106,106,106,106,106,107,113,124,144,187,202,205,205,205,156,156,143,139,139,139,139,139,139,139,131,115,104,104,104,104,104,104,104,104,104,104,104,104,104,104,104,103,100,91,84,82],"timestamp_mouse":[9,20,41,60,80,100,120,141,160,181,200,220,240,261,280,301,321,341,360,380,400,420,440,460,481,500,520,540,561,579,601,621,640,660,680,699,719,741,759,780,800,820,841,860,880,900,920,941,960,980,1000,1020,1041,1061,1080,1099,1121,1140,1161,1180,1200,1220,1241,1260,1281,1301,1320,1341,1360,1380,1401,1421,1441,1460,1481,1501,1520,1542,1560,1580,1600,1621,1640,1661,1680,1700,1719,1741,1760,1781,1800,1819,1839,1861,1880,1900,1920,1941,1960,1980,2001,2021,2041,2061,2081,2101,2120,2141,2159,2181,2200,2221,2240,2260,2281,2300,2320,2340,2359,2381,2401,2421,2441,2460,2480,2501,2520,2540],"xSR":741.5,"ySR":573.95,"xT1":424.9,"yT1":0,"xT2":1058.1,"yT2":0,"toosoon":0,"cond_shown":"Congruent","ratio_trial":100,"L_num":10,"L_den":25,"R_num":3,"R_den":10,"correct_side":1,"subjID":"Angel  Emanuel  Duque   beitran  16","gender":"0","school":"4","age":"9"},{"start_time":1552313059289,"click_time":1552313060605,"finger_time":1552313059965,"fix_duration":1083.1180064959092,"trial":15,"RT":676,"MT":640,"sideResp":1,"stimulus":[],"xmouse":[756,756,753,751,749,746,746,746,746,746,746,746,746,746,746,746,746,746,746,746,746,746,746,746,746,746,746,746,746,746,746,746,743,736,724,670,668,615,594,574,572,574,575,575,575,575,575,575,575,571,558,556,551,549,547,547,547,547,547,547,547,547,546,546,538,521],"ymouse":[614,614,614,614,616,618,618,618,618,618,618,618,618,618,618,618,618,618,618,618,618,618,618,618,618,618,618,618,618,618,618,618,605,583,550,434,418,284,193,84,47,22,20,20,20,12,12,12,12,13,20,22,28,32,34,35,35,35,35,35,36,36,36,36,36,36],"timestamp_mouse":[16,42,55,76,95,115,135,155,175,195,215,235,256,275,294,316,335,356,376,395,416,436,456,475,496,516,536,556,576,595,615,635,655,676,695,715,736,756,776,795,816,836,855,875,896,916,935,955,976,994,1016,1036,1055,1074,1095,1116,1135,1155,1175,1195,1215,1236,1256,1275,1295,1315],"xSR":741.5,"ySR":573.95,"xT1":424.9,"yT1":0,"xT2":1058.1,"yT2":0,"toosoon":0,"cond_shown":"Congruent","ratio_trial":200,"L_num":4,"L_den":8,"R_num":3,"R_den":10,"correct_side":1,"subjID":"Angel  Emanuel  Duque   beitran  16","gender":"0","school":"4","age":"9"},{"start_time":1552313062603,"click_time":1552313064164,"finger_time":1552313064064,"fix_duration":515.2723045219509,"trial":16,"RT":1461,"MT":100,"sideResp":1,"stimulus":[],"xmouse":[778,778,778,778,778,778,778,778,778,778,778,778,778,778,778,778,778,778,778,778,778,778,778,778,778,778,778,778,778,778,778,778,778,778,778,778,778,778,778,778,778,778,778,778,778,778,778,778,778,778,778,778,778,778,778,778,778,778,778,778,778,778,778,778,778,778,778,778,778,778,778,778,778,762,737,610,582,530,515],"ymouse":[656,656,656,656,656,656,656,656,656,656,656,656,656,656,656,656,656,656,656,656,656,656,656,656,656,656,656,656,656,656,656,656,656,656,656,656,656,656,656,656,656,656,656,656,656,656,656,656,656,656,656,656,656,656,656,656,656,656,656,656,656,656,656,656,656,656,656,656,656,656,656,656,656,573,517,239,177,59,13],"timestamp_mouse":[9,21,41,61,82,101,121,142,161,182,202,221,241,261,281,301,322,341,362,381,402,421,441,462,482,501,522,542,562,581,601,622,641,662,680,702,721,742,761,781,800,822,842,861,882,902,922,942,962,981,1000,1022,1041,1061,1081,1102,1120,1142,1161,1181,1202,1222,1241,1261,1281,1301,1322,1341,1361,1382,1402,1422,1441,1461,1481,1501,1522,1541,1561],"xSR":741.5,"ySR":573.95,"xT1":424.9,"yT1":0,"xT2":1058.1,"yT2":0,"toosoon":0,"cond_shown":"Congruent","ratio_trial":100,"L_num":4,"L_den":10,"R_num":15,"R_den":30,"correct_side":2,"subjID":"Angel  Emanuel  Duque   beitran  16","gender":"0","school":"4","age":"9"},{"start_time":1552313065845,"click_time":1552313067685,"finger_time":1552313067264,"fix_duration":678.8359188505337,"trial":17,"RT":1419,"MT":421,"sideResp":2,"stimulus":[],"xmouse":[814,814,814,814,814,814,814,814,814,814,814,814,814,814,814,814,814,814,814,814,814,814,814,814,814,814,814,814,814,814,814,814,814,814,814,814,814,814,814,814,814,814,814,814,814,814,814,814,814,814,814,814,814,814,814,814,814,814,814,814,814,814,814,814,814,814,814,815,817,819,821,821,831,888,921,971,1019,1074,1177,1216,1235,1260,1265,1276,1276,1276,1276,1276,1249,1232,1197,1197,1136],"ymouse":[663,663,663,663,663,663,663,663,663,663,663,663,663,663,663,663,663,663,663,663,663,663,663,663,663,663,663,663,663,663,663,663,663,663,663,663,663,663,663,663,663,663,663,663,663,663,663,663,663,663,663,663,663,663,663,663,663,663,663,663,663,663,663,663,663,663,663,658,637,616,590,571,540,443,396,322,245,168,0,0,0,0,0,0,0,0,0,0,0,7,21,21,52],"timestamp_mouse":[1,20,39,60,80,98,119,140,159,180,200,220,239,260,279,299,320,339,360,380,400,419,439,460,479,499,520,539,559,579,600,619,639,660,678,698,719,740,759,780,799,819,840,860,878,898,920,940,960,979,1000,1019,1039,1059,1079,1100,1119,1139,1160,1180,1199,1220,1239,1260,1279,1300,1320,1339,1359,1380,1399,1419,1440,1459,1478,1499,1519,1538,1560,1580,1599,1618,1638,1660,1680,1699,1720,1740,1761,1779,1800,1818,1839],"xSR":741.5,"ySR":573.95,"xT1":424.9,"yT1":0,"xT2":1058.1,"yT2":0,"toosoon":0,"cond_shown":"Incongruent","ratio_trial":100,"L_num":2,"L_den":4,"R_num":8,"R_den":20,"correct_side":1,"subjID":"Angel  Emanuel  Duque   beitran  16","gender":"0","school":"4","age":"9"},{"start_time":1552313069827,"click_time":1552313071265,"finger_time":1552313070865,"fix_duration":1362.2440334923117,"trial":18,"RT":1038,"MT":400,"sideResp":1,"stimulus":[],"xmouse":[788,788,788,788,788,788,788,788,788,788,788,788,788,786,786,786,786,786,786,786,786,786,786,786,786,786,786,786,786,786,786,786,786,786,786,786,786,786,786,786,786,786,786,786,786,786,786,786,786,786,786,784,770,703,679,661,647,637,623,611,602,589,569,523,504,482,472,467,466,466,466,464],"ymouse":[641,641,641,641,641,641,641,641,641,641,641,641,641,639,626,613,608,608,608,608,608,608,608,608,608,608,608,608,608,608,608,608,608,608,608,608,608,608,608,608,608,608,608,608,608,608,608,608,608,604,600,551,497,357,321,295,273,251,208,167,137,101,53,0,0,0,0,0,0,0,0,2],"timestamp_mouse":[17,40,57,77,98,118,137,158,178,198,217,237,257,277,298,317,337,357,377,396,417,436,456,478,498,517,536,558,577,596,618,638,657,678,697,718,738,757,776,797,818,838,858,878,898,918,938,958,978,996,1017,1038,1058,1077,1096,1117,1137,1157,1177,1197,1217,1238,1257,1278,1297,1317,1337,1358,1377,1397,1418,1438],"xSR":741.5,"ySR":573.95,"xT1":424.9,"yT1":0,"xT2":1058.1,"yT2":0,"toosoon":0,"cond_shown":"Congruent","ratio_trial":100,"L_num":4,"L_den":8,"R_num":6,"R_den":10,"correct_side":2,"subjID":"Angel  Emanuel  Duque   beitran  16","gender":"0","school":"4","age":"9"},{"start_time":1552313075508,"click_time":1552313078044,"finger_time":1552313077104,"fix_duration":701.3806338294122,"trial":19,"RT":1596,"MT":940,"sideResp":1,"stimulus":[],"xmouse":[766,766,766,766,766,766,766,766,766,766,766,766,766,766,766,766,766,766,766,766,766,766,766,766,766,766,766,766,766,766,766,766,766,766,766,766,766,766,766,766,766,766,766,766,766,766,766,766,766,766,766,766,766,766,766,766,766,766,766,766,766,766,766,766,766,766,766,766,766,766,766,766,766,766,766,766,766,768,775,801,814,825,837,844,857,862,867,872,873,900,908,920,934,943,968,971,974,975,975,975,975,975,975,975,975,975,975,975,974,948,921,891,842,798,724,694,672,628,594,582,579,578,566,542,534,532,516],"ymouse":[611,611,611,611,611,611,611,611,611,611,611,611,611,611,611,611,611,611,611,611,611,611,611,611,611,611,611,611,611,611,611,611,611,611,611,611,611,611,611,611,611,611,611,611,611,611,611,611,611,611,611,611,611,611,611,611,611,611,611,611,611,611,611,611,611,611,611,611,611,611,611,611,611,611,611,611,611,608,599,560,537,516,495,479,449,438,425,411,408,345,314,279,230,195,127,118,102,89,89,88,88,88,88,88,88,88,88,88,88,89,89,83,71,58,34,26,19,6,0,0,0,0,0,0,0,0,3],"timestamp_mouse":[16,45,55,77,96,116,135,156,176,196,216,236,257,276,296,316,336,356,377,396,417,437,456,475,497,515,536,557,577,596,616,636,657,676,697,717,736,757,777,796,817,837,857,877,895,917,937,957,976,997,1016,1036,1057,1076,1095,1117,1137,1157,1176,1196,1217,1236,1257,1276,1296,1317,1337,1356,1375,1397,1416,1437,1456,1476,1497,1517,1537,1556,1576,1596,1616,1635,1657,1676,1696,1716,1736,1757,1776,1796,1816,1835,1856,1877,1896,1916,1937,1957,1977,1996,2016,2037,2057,2077,2096,2117,2136,2155,2176,2196,2217,2237,2256,2277,2297,2316,2337,2356,2376,2396,2416,2436,2456,2476,2497,2516,2536],"xSR":741.5,"ySR":573.95,"xT1":424.9,"yT1":0,"xT2":1058.1,"yT2":0,"toosoon":0,"cond_shown":"Congruent","ratio_trial":300,"L_num":12,"L_den":24,"R_num":2,"R_den":10,"correct_side":1,"subjID":"Angel  Emanuel  Duque   beitran  16","gender":"0","school":"4","age":"9"},{"start_time":1552313083813,"click_time":1552313085205,"finger_time":1552313084665,"fix_duration":1407.522225325286,"trial":20,"RT":852,"MT":540,"sideResp":1,"stimulus":[],"xmouse":[787,787,787,787,787,787,787,787,787,787,787,787,787,787,787,787,787,787,787,787,787,787,787,787,787,787,787,787,787,787,787,787,787,787,787,787,787,787,787,787,780,763,738,709,654,639,619,609,604,603,607,612,619,622,617,611,600,588,580,578,578,578,578,578,578,574,563,551,540,524],"ymouse":[623,623,623,623,623,623,623,623,623,623,623,623,623,623,623,623,623,623,623,623,623,623,623,623,623,623,623,623,623,623,623,623,623,623,623,623,623,623,623,623,622,612,596,570,471,436,368,300,236,126,67,37,0,0,0,0,0,0,0,0,0,0,0,0,0,1,10,19,26,33],"timestamp_mouse":[14,31,51,72,92,111,132,152,171,191,212,232,251,271,292,310,331,352,371,391,412,432,452,471,492,510,531,551,571,591,612,632,650,672,692,711,732,751,772,790,811,831,852,871,891,912,931,950,970,991,1011,1031,1051,1072,1093,1110,1131,1151,1171,1192,1212,1232,1251,1272,1292,1311,1332,1352,1371,1392],"xSR":741.5,"ySR":573.95,"xT1":424.9,"yT1":0,"xT2":1058.1,"yT2":0,"toosoon":0,"cond_shown":"Incongruent","ratio_trial":100,"L_num":6,"L_den":10,"R_num":13,"R_den":26,"correct_side":1,"subjID":"Angel  Emanuel  Duque   beitran  16","gender":"0","school":"4","age":"9"},{"start_time":1552313096742,"click_time":1552313097904,"finger_time":1552313097504,"fix_duration":695.3148594113504,"trial":21,"RT":762,"MT":400,"sideResp":1,"stimulus":[],"xmouse":[775,775,775,775,775,775,775,775,775,775,775,775,775,775,775,775,775,775,775,775,775,775,775,775,775,775,775,775,775,775,775,775,775,775,775,775,774,739,708,685,642,603,564,564,564,564,564,564,564,564,564,564,564,563,554,542,539,505],"ymouse":[611,611,611,611,611,611,611,611,611,611,611,611,611,611,611,611,611,611,611,611,611,611,611,611,611,611,611,611,611,611,611,611,611,611,611,611,595,500,392,331,221,120,16,9,9,9,9,8,8,8,8,8,8,8,11,18,20,51],"timestamp_mouse":[20,44,62,82,101,123,143,162,183,203,222,242,262,282,302,323,342,361,382,403,423,442,463,481,503,522,542,562,582,603,623,642,663,683,702,723,742,762,782,802,822,843,862,882,902,922,943,962,982,1003,1023,1043,1062,1082,1102,1123,1143,1162],"xSR":741.5,"ySR":573.95,"xT1":424.9,"yT1":0,"xT2":1058.1,"yT2":0,"toosoon":0,"cond_shown":"Congruent","ratio_trial":200,"L_num":4,"L_den":8,"R_num":3,"R_den":10,"correct_side":1,"subjID":"Angel  Emanuel  Duque   beitran  16","gender":"0","school":"4","age":"9"},{"start_time":1552313099981,"click_time":1552313101304,"finger_time":1552313100903,"fix_duration":854.540621831634,"trial":22,"RT":922,"MT":401,"sideResp":2,"stimulus":[],"xmouse":[786,786,786,786,786,786,786,786,786,786,786,786,786,786,786,786,786,786,786,786,786,786,786,786,786,786,786,786,786,786,786,786,786,786,786,786,786,786,786,786,786,786,786,786,789,794,809,820,831,847,860,894,908,915,928,942,966,974,974,974,974,995,1010,1027,1063,1077,1152],"ymouse":[596,596,596,596,596,596,596,596,596,596,596,596,596,596,596,596,596,596,596,596,596,596,596,596,596,596,596,596,596,596,596,596,596,596,596,596,596,596,596,596,596,596,596,596,591,580,549,529,510,490,471,427,407,399,381,361,320,305,305,305,305,267,245,223,164,137,5],"timestamp_mouse":[13,41,42,63,82,104,123,143,163,184,203,223,244,263,283,303,323,344,363,384,404,423,443,464,483,504,524,543,563,584,604,624,644,663,684,704,724,744,764,783,802,824,844,863,883,903,922,942,963,983,1002,1023,1043,1064,1084,1104,1122,1143,1164,1184,1203,1223,1242,1263,1283,1304,1323],"xSR":741.5,"ySR":573.95,"xT1":424.9,"yT1":0,"xT2":1058.1,"yT2":0,"toosoon":0,"cond_shown":"Incongruent","ratio_trial":300,"L_num":4,"L_den":20,"R_num":2,"R_den":4,"correct_side":2,"subjID":"Angel  Emanuel  Duque   beitran  16","gender":"0","school":"4","age":"9"},{"start_time":1552313102857,"click_time":1552313105184,"finger_time":1552313104283,"fix_duration":250,"trial":23,"RT":1426,"MT":901,"sideResp":2,"stimulus":[],"xmouse":[777,777,777,777,777,777,777,777,777,777,777,777,777,777,777,777,777,777,777,777,777,777,777,777,777,777,777,777,777,777,777,777,777,777,777,777,777,777,777,777,777,777,777,777,777,777,777,777,777,777,777,777,777,777,777,777,777,777,777,777,777,777,777,777,777,777,777,777,777,781,786,808,824,828,828,828,830,835,844,858,871,886,900,901,902,903,904,914,921,932,941,947,975,983,989,995,999,1008,1008,1008,1012,1018,1024,1025,1027,1029,1032,1036,1038,1042,1043,1046,1059,1067,1074,1079,1083],"ymouse":[610,610,610,610,610,610,610,610,610,610,610,610,610,610,610,610,610,610,610,610,610,610,610,610,610,610,610,610,610,610,610,610,610,610,610,610,610,610,610,610,610,610,610,610,610,610,610,610,610,610,610,610,610,610,610,610,610,610,610,610,610,610,610,610,610,610,610,610,610,602,593,558,525,494,465,442,430,423,414,396,379,361,342,338,336,336,335,332,329,323,316,312,287,278,269,262,255,245,244,244,238,231,222,220,217,213,208,199,194,189,184,173,148,134,117,102,92],"timestamp_mouse":[6,29,49,67,86,108,127,148,167,187,207,227,247,267,287,307,328,347,367,386,407,427,447,467,486,508,527,547,568,588,608,627,648,668,687,707,727,748,767,787,807,828,846,867,888,908,928,948,967,988,1007,1027,1047,1067,1088,1108,1127,1147,1168,1187,1208,1228,1246,1267,1288,1307,1327,1347,1368,1387,1407,1426,1447,1466,1487,1507,1528,1547,1566,1587,1608,1627,1647,1669,1687,1707,1728,1747,1767,1787,1807,1828,1846,1866,1887,1908,1928,1947,1968,1988,2008,2028,2047,2080,2088,2106,2127,2147,2168,2188,2207,2227,2247,2267,2286,2307,2327],"xSR":741.5,"ySR":573.95,"xT1":424.9,"yT1":0,"xT2":1058.1,"yT2":0,"toosoon":0,"cond_shown":"Congruent","ratio_trial":200,"L_num":8,"L_den":15,"R_num":3,"R_den":9,"correct_side":1,"subjID":"Angel  Emanuel  Duque   beitran  16","gender":"0","school":"4","age":"9"},{"start_time":1552313106262,"click_time":1552313108044,"finger_time":1552313107664,"fix_duration":356.2720510513916,"trial":24,"RT":1402,"MT":380,"sideResp":2,"stimulus":[],"xmouse":[745,745,745,745,745,745,745,745,745,745,745,745,745,745,745,745,745,745,745,745,745,745,745,745,745,745,745,745,745,745,745,745,745,745,745,745,745,745,745,745,745,745,745,745,745,745,745,745,745,745,745,745,745,745,745,745,745,745,745,745,745,745,745,745,745,745,745,745,773,808,857,922,1049,1090,1134,1175,1202,1226,1231,1240,1243,1243,1243,1242,1242,1235,1235,1210,1182,1157],"ymouse":[635,635,635,635,635,635,635,635,635,635,635,635,635,635,635,635,635,635,635,635,635,635,635,635,635,635,635,635,635,635,635,635,635,635,635,635,635,635,635,635,635,635,635,635,635,635,635,635,635,635,635,635,635,635,635,635,635,635,635,635,635,635,635,635,635,635,635,635,608,576,543,502,396,350,291,232,182,130,122,100,87,87,49,45,43,35,35,30,29,29],"timestamp_mouse":[10,21,42,62,82,103,122,142,161,183,201,223,243,262,281,302,322,342,362,381,402,423,443,462,482,502,522,543,561,582,603,622,643,661,682,703,721,743,762,781,802,823,842,862,881,903,922,943,962,982,1002,1022,1042,1062,1081,1103,1122,1142,1163,1182,1202,1223,1242,1263,1283,1302,1323,1343,1362,1382,1402,1422,1441,1463,1481,1502,1522,1542,1563,1583,1603,1622,1641,1663,1682,1703,1722,1742,1761,1781],"xSR":741.5,"ySR":573.95,"xT1":424.9,"yT1":0,"xT2":1058.1,"yT2":0,"toosoon":0,"cond_shown":"Congruent","ratio_trial":100,"L_num":7,"L_den":14,"R_num":9,"R_den":15,"correct_side":2,"subjID":"Angel  Emanuel  Duque   beitran  16","gender":"0","school":"4","age":"9"},{"start_time":1552313109631,"click_time":1552313111085,"finger_time":1552313110524,"fix_duration":444.9513725480615,"trial":25,"RT":893,"MT":561,"sideResp":2,"stimulus":[],"xmouse":[798,798,798,798,798,798,798,798,798,798,798,798,798,798,798,798,798,798,798,798,798,798,798,798,798,798,798,798,798,798,798,798,798,798,798,798,798,798,798,798,798,798,801,830,844,859,865,866,879,885,887,888,890,896,899,899,899,908,930,939,950,962,981,1004,1008,1022,1036,1050,1080,1091,1099,1101,1106],"ymouse":[670,670,670,670,670,670,670,670,670,670,670,670,670,670,670,670,670,670,670,670,670,670,670,670,670,670,670,670,670,670,670,670,670,670,670,670,670,670,670,670,670,670,666,615,589,558,545,543,514,503,497,491,485,464,453,453,453,435,387,363,339,316,289,259,254,239,219,198,150,128,109,100,88],"timestamp_mouse":[15,39,54,74,92,113,133,153,173,193,212,233,254,273,294,313,333,352,374,393,413,434,453,474,494,513,533,553,574,593,614,633,653,673,693,713,732,754,773,794,814,833,853,873,893,913,933,954,973,994,1013,1034,1053,1073,1092,1113,1133,1154,1173,1192,1213,1233,1253,1273,1294,1314,1334,1354,1373,1394,1414,1433,1454],"xSR":741.5,"ySR":573.95,"xT1":424.9,"yT1":0,"xT2":1058.1,"yT2":0,"toosoon":0,"cond_shown":"Incongruent","ratio_trial":100,"L_num":10,"L_den":25,"R_num":9,"R_den":18,"correct_side":2,"subjID":"Angel  Emanuel  Duque   beitran  16","gender":"0","school":"4","age":"9"},{"start_time":1552313113148,"click_time":1552313115085,"finger_time":1552313114524,"fix_duration":402.45620038239247,"trial":26,"RT":1376,"MT":561,"sideResp":1,"stimulus":[],"xmouse":[820,820,820,820,820,820,820,820,820,820,820,820,820,820,820,820,820,820,820,820,820,820,820,820,820,820,820,820,820,820,820,820,820,820,820,820,820,820,820,820,820,820,820,820,820,820,820,820,820,820,820,820,820,820,820,820,820,820,820,820,820,820,820,820,820,820,820,818,783,767,733,712,651,646,646,646,646,646,646,646,646,646,646,644,639,625,618,605,599,592,580,564,550,538,538,537,523],"ymouse":[643,643,643,643,643,643,643,643,643,643,643,643,643,643,643,643,643,643,643,643,643,643,643,643,643,643,643,643,643,643,643,643,643,643,643,643,643,643,643,643,643,643,643,643,643,643,643,643,643,643,643,643,643,643,643,643,643,643,643,643,643,643,643,643,643,643,643,588,464,412,298,246,104,86,83,83,83,83,83,83,83,83,83,83,83,83,83,82,82,82,81,76,72,67,67,67,64],"timestamp_mouse":[16,40,56,77,96,117,136,156,177,197,216,237,256,275,296,317,337,355,377,397,416,435,455,476,496,516,537,557,576,596,616,636,657,677,697,716,736,757,777,796,817,836,857,877,896,915,937,957,977,997,1017,1035,1057,1077,1097,1116,1137,1155,1177,1197,1217,1236,1256,1277,1297,1317,1336,1356,1376,1396,1416,1436,1457,1476,1497,1516,1537,1555,1576,1596,1617,1636,1657,1676,1697,1715,1737,1756,1776,1796,1815,1837,1856,1875,1897,1917,1937],"xSR":741.5,"ySR":573.95,"xT1":424.9,"yT1":0,"xT2":1058.1,"yT2":0,"toosoon":0,"cond_shown":"Congruent","ratio_trial":100,"L_num":9,"L_den":15,"R_num":8,"R_den":16,"correct_side":1,"subjID":"Angel  Emanuel  Duque   beitran  16","gender":"0","school":"4","age":"9"},{"start_time":1552313118517,"click_time":1552313121485,"finger_time":1552313121005,"fix_duration":490.6944202473483,"trial":27,"RT":2488,"MT":480,"sideResp":2,"stimulus":[],"xmouse":[776,776,776,776,776,776,776,776,776,776,776,776,776,776,776,776,776,776,776,776,776,776,776,776,776,776,776,776,776,776,776,776,776,776,776,776,776,776,776,776,776,776,776,776,776,776,776,776,776,776,776,776,776,776,776,776,776,776,776,776,776,776,776,776,776,776,776,776,776,776,776,776,776,776,776,776,776,776,776,776,776,776,776,776,776,776,776,776,776,776,776,776,776,776,776,776,776,776,776,776,776,776,776,776,776,776,776,776,776,776,776,776,776,776,776,776,776,776,776,776,776,777,779,794,816,831,840,845,863,896,908,913,913,924,946,959,975,991,1007,1034,1034,1044,1050,1052,1056,1056,1057,1058,1060],"ymouse":[612,612,612,612,612,612,612,612,612,612,612,612,612,612,612,612,612,612,612,612,612,612,612,612,612,612,612,612,612,612,612,612,612,612,612,612,612,612,612,612,612,612,612,612,612,612,612,612,612,612,612,612,612,612,612,612,612,612,612,612,612,612,612,612,612,612,612,612,612,612,612,612,612,612,612,612,612,612,612,612,612,612,612,612,612,612,612,612,612,612,612,612,612,612,612,612,612,612,612,612,612,612,612,612,612,612,612,612,612,612,612,612,612,612,612,612,612,612,612,612,612,611,608,585,557,540,528,520,496,443,417,406,406,384,332,307,279,254,225,176,174,154,136,127,109,104,98,93,89],"timestamp_mouse":[10,27,50,66,87,108,128,148,167,188,207,227,247,268,288,307,327,348,367,387,408,428,447,468,487,507,528,547,568,587,607,628,647,667,688,707,726,747,768,788,807,828,847,867,888,908,927,947,967,988,1007,1027,1046,1068,1088,1108,1127,1146,1167,1188,1207,1226,1248,1266,1288,1307,1328,1348,1367,1388,1407,1427,1448,1468,1488,1507,1528,1547,1567,1587,1606,1627,1648,1667,1687,1706,1727,1747,1767,1787,1807,1828,1847,1867,1888,1906,1927,1948,1967,1986,2008,2028,2048,2068,2087,2108,2128,2148,2167,2188,2207,2227,2247,2268,2288,2308,2327,2348,2367,2387,2407,2427,2447,2468,2488,2507,2527,2548,2568,2587,2608,2627,2647,2667,2688,2706,2727,2748,2768,2787,2808,2827,2846,2867,2887,2908,2927,2948,2967],"xSR":741.5,"ySR":573.95,"xT1":424.9,"yT1":0,"xT2":1058.1,"yT2":0,"toosoon":0,"cond_shown":"Congruent","ratio_trial":200,"L_num":6,"L_den":20,"R_num":11,"R_den":22,"correct_side":2,"subjID":"Angel  Emanuel  Duque   beitran  16","gender":"0","school":"4","age":"9"},{"start_time":1552313122806,"click_time":1552313124504,"finger_time":1552313124065,"fix_duration":259.48736011872677,"trial":28,"RT":1259,"MT":439,"sideResp":2,"stimulus":[],"xmouse":[779,784,784,787,787,787,787,787,787,787,787,787,787,787,787,787,787,787,787,787,787,787,787,787,787,787,787,787,787,787,787,787,787,787,787,787,787,787,787,787,787,787,787,787,787,787,787,787,787,787,787,787,787,787,787,787,787,787,787,787,795,802,814,830,861,878,895,912,924,927,940,949,956,967,976,976,980,998,1016,1048,1062,1067,1075,1091,1123],"ymouse":[613,616,616,616,616,616,616,616,616,616,616,616,616,616,616,616,616,616,616,616,616,616,616,616,616,616,616,616,616,616,616,616,616,616,616,616,616,616,616,616,616,616,616,616,616,616,616,616,616,616,616,616,616,616,616,616,616,616,616,616,605,592,569,547,503,472,443,418,399,390,367,347,333,308,274,274,270,249,228,186,168,161,150,127,74],"timestamp_mouse":[25,48,58,78,99,118,138,158,178,198,218,239,258,279,299,319,338,359,379,399,418,439,457,478,497,518,539,558,578,599,617,638,658,679,698,719,738,759,777,798,818,838,858,878,899,918,938,959,979,999,1018,1038,1058,1078,1098,1119,1139,1158,1178,1199,1219,1239,1259,1277,1298,1318,1339,1358,1378,1398,1418,1438,1459,1478,1497,1518,1538,1557,1579,1599,1630,1637,1658,1678,1698],"xSR":741.5,"ySR":573.95,"xT1":424.9,"yT1":0,"xT2":1058.1,"yT2":0,"toosoon":0,"cond_shown":"Congruent","ratio_trial":100,"L_num":1,"L_den":2,"R_num":3,"R_den":5,"correct_side":2,"subjID":"Angel  Emanuel  Duque   beitran  16","gender":"0","school":"4","age":"9"},{"start_time":1552313128795,"click_time":1552313130204,"finger_time":1552313129785,"fix_duration":1147.854820294422,"trial":29,"RT":990,"MT":419,"sideResp":1,"stimulus":[],"xmouse":[779,779,779,779,779,779,779,779,779,779,779,779,779,779,779,779,779,779,779,779,779,779,779,779,779,779,779,779,779,779,779,779,779,779,779,779,779,779,779,779,779,779,779,779,778,778,775,771,761,744,709,690,671,666,665,665,665,663,663,663,633,625,618,597,585,550,528,501,488,486,470],"ymouse":[641,641,641,641,641,641,641,641,641,641,641,641,641,641,641,641,641,641,641,641,641,641,641,641,641,641,641,641,641,641,641,641,641,641,641,641,641,641,641,641,641,641,641,641,640,638,625,611,590,559,500,470,442,434,433,433,433,431,431,431,393,379,369,330,303,230,181,134,106,102,67],"timestamp_mouse":[12,43,50,69,90,109,129,150,168,190,210,229,248,270,289,309,330,349,370,389,410,429,450,470,490,510,530,549,570,590,610,630,650,670,690,710,730,750,769,790,810,829,849,870,889,909,930,949,969,990,1010,1029,1049,1068,1089,1110,1130,1149,1169,1189,1209,1229,1249,1269,1290,1309,1329,1349,1369,1390,1409],"xSR":741.5,"ySR":573.95,"xT1":424.9,"yT1":0,"xT2":1058.1,"yT2":0,"toosoon":0,"cond_shown":"Congruent","ratio_trial":300,"L_num":12,"L_den":24,"R_num":2,"R_den":10,"correct_side":1,"subjID":"Angel  Emanuel  Duque   beitran  16","gender":"0","school":"4","age":"9"},{"start_time":1552313135086,"click_time":1552313136164,"finger_time":1552313135764,"fix_duration":1440.149970906901,"trial":30,"RT":678,"MT":400,"sideResp":1,"stimulus":[],"xmouse":[769,769,769,769,769,769,769,769,769,769,769,769,769,769,769,769,769,769,769,769,769,769,769,769,769,769,769,769,769,769,769,769,769,766,764,753,747,747,740,735,718,714,710,709,709,709,709,709,705,688,634,588,549,492],"ymouse":[626,626,626,626,626,626,626,626,626,626,626,626,626,626,626,626,626,626,626,626,626,626,626,626,626,626,626,626,626,626,626,623,587,554,537,502,487,486,465,453,393,383,372,366,366,366,366,366,360,329,249,191,146,82],"timestamp_mouse":[18,47,58,79,99,118,138,158,178,199,217,239,258,277,298,319,338,359,379,398,419,439,459,479,499,518,537,559,579,598,619,638,658,678,699,718,738,758,777,798,818,839,858,878,898,919,938,958,978,998,1019,1038,1058,1078],"xSR":741.5,"ySR":573.95,"xT1":424.9,"yT1":0,"xT2":1058.1,"yT2":0,"toosoon":0,"cond_shown":"Incongruent","ratio_trial":300,"L_num":8,"L_den":10,"R_num":14,"R_den":28,"correct_side":1,"subjID":"Angel  Emanuel  Duque   beitran  16","gender":"0","school":"4","age":"9"},{"start_time":1552313141341,"click_time":1552313144305,"finger_time":1552313141904,"fix_duration":875.2542632392109,"trial":31,"RT":563,"MT":2401,"sideResp":2,"stimulus":[],"xmouse":[810,810,810,810,810,810,810,810,810,810,810,810,810,810,810,810,810,810,810,810,810,810,810,810,810,810,810,808,759,756,752,748,747,747,747,747,747,747,747,746,746,745,744,743,742,741,741,739,738,738,738,739,744,756,763,769,771,771,780,800,824,846,871,918,947,974,983,996,1008,1008,1004,1004,993,904,827,738,683,681,668,654,653,653,653,653,653,653,653,653,653,653,652,650,646,646,646,646,646,645,645,645,648,650,657,670,688,711,719,720,720,720,720,720,720,699,647,641,636,636,636,636,637,654,705,736,747,759,769,771,792,819,826,848,862,891,901,902,904,910,933,945,955,971,989,1032,1054,1060,1079,1101,1148],"ymouse":[651,651,651,651,651,651,651,651,651,651,651,651,651,651,651,651,651,651,651,651,651,651,651,651,651,651,647,630,536,529,517,512,510,510,510,510,510,510,510,509,509,509,509,509,509,509,510,510,512,514,516,517,518,519,519,519,519,519,514,502,490,478,466,434,403,369,356,329,271,253,241,241,236,210,193,171,158,158,158,158,158,158,158,158,158,158,158,158,158,158,158,158,158,158,158,158,158,158,158,158,158,158,159,165,172,179,181,181,181,181,181,181,179,159,121,115,113,113,113,113,113,121,141,156,164,169,172,173,178,183,184,184,184,179,176,176,175,174,171,170,165,159,152,135,126,124,117,108,83],"timestamp_mouse":[9,24,45,63,83,103,124,142,163,183,203,223,244,263,283,303,323,344,364,384,403,423,442,464,484,503,523,543,563,583,603,624,643,663,683,704,724,743,764,783,803,824,844,864,882,903,924,943,963,984,1003,1023,1044,1063,1084,1104,1124,1144,1163,1184,1203,1223,1244,1263,1284,1304,1324,1344,1364,1384,1403,1424,1443,1463,1483,1503,1523,1543,1564,1584,1603,1622,1643,1664,1682,1704,1723,1743,1762,1782,1804,1824,1843,1864,1884,1904,1923,1943,1963,1983,2004,2023,2043,2064,2084,2103,2122,2143,2164,2184,2204,2224,2244,2263,2284,2303,2322,2342,2363,2383,2403,2423,2444,2463,2484,2503,2523,2544,2563,2583,2603,2623,2643,2664,2684,2703,2723,2744,2764,2783,2803,2824,2844,2863,2883,2904,2923,2944,2964],"xSR":741.5,"ySR":573.95,"xT1":424.9,"yT1":0,"xT2":1058.1,"yT2":0,"toosoon":0,"cond_shown":"Congruent","ratio_trial":100,"L_num":6,"L_den":20,"R_num":5,"R_den":25,"correct_side":1,"subjID":"Angel  Emanuel  Duque   beitran  16","gender":"0","school":"4","age":"9"},{"start_time":1552313146384,"click_time":1552313147865,"finger_time":1552313147205,"fix_duration":816.8161306874267,"trial":32,"RT":821,"MT":660,"sideResp":2,"stimulus":[],"xmouse":[809,809,809,809,809,809,809,809,809,809,809,809,809,809,809,809,809,809,809,809,809,809,809,809,809,809,809,809,809,809,809,809,809,809,809,809,809,809,809,816,825,848,857,857,859,861,867,877,886,891,891,894,904,916,935,947,1005,1065,1080,1103,1134,1158,1160,1160,1160,1160,1160,1161,1162,1162,1163,1163,1161,1159,1157],"ymouse":[620,620,620,620,620,620,620,620,620,620,620,620,620,620,620,620,620,620,620,620,620,620,620,620,620,620,620,620,620,620,620,620,620,620,620,620,620,620,620,615,589,545,520,520,513,504,481,460,444,434,434,429,411,392,367,351,293,237,223,194,155,120,117,117,117,117,117,117,113,108,103,92,88,86,85],"timestamp_mouse":[8,20,40,60,81,100,121,141,160,179,201,220,241,259,281,300,321,341,361,380,401,421,441,461,479,500,520,540,561,581,601,620,641,660,680,700,721,741,761,780,800,821,840,860,880,900,921,941,959,981,1000,1020,1040,1060,1079,1100,1120,1140,1161,1180,1201,1221,1240,1260,1280,1299,1320,1339,1360,1380,1401,1421,1440,1460,1481],"xSR":741.5,"ySR":573.95,"xT1":424.9,"yT1":0,"xT2":1058.1,"yT2":0,"toosoon":0,"cond_shown":"Congruent","ratio_trial":300,"L_num":5,"L_den":25,"R_num":6,"R_den":12,"correct_side":2,"subjID":"Angel  Emanuel  Duque   beitran  16","gender":"0","school":"4","age":"9"},{"start_time":1552313149477,"click_time":1552313150904,"finger_time":1552313150524,"fix_duration":250,"trial":33,"RT":1047,"MT":380,"sideResp":1,"stimulus":[],"xmouse":[790,790,790,790,790,790,790,790,790,790,790,790,790,790,790,790,790,790,790,790,790,790,790,790,790,790,790,790,790,790,790,790,790,790,790,790,790,790,790,790,790,790,790,790,790,790,790,790,790,790,790,790,783,755,705,640,549,546,537,533,533,533,533,533,533,532,532,532,532,531,529,524],"ymouse":[607,607,607,607,607,607,607,607,607,607,607,607,607,607,607,607,607,607,607,607,607,607,607,607,607,607,607,607,607,607,607,607,607,607,607,607,607,607,607,607,607,607,607,607,607,607,607,607,607,607,607,607,537,437,309,171,2,0,0,0,0,0,0,0,0,0,0,0,0,0,0,3],"timestamp_mouse":[11,43,48,68,87,107,128,148,168,186,207,227,247,267,287,308,328,347,367,387,407,427,448,468,487,507,527,547,567,587,607,627,647,667,688,708,727,747,767,786,808,827,848,867,888,908,928,947,966,987,1008,1027,1047,1066,1088,1107,1128,1147,1167,1188,1207,1228,1247,1267,1286,1306,1327,1347,1367,1387,1408,1427],"xSR":741.5,"ySR":573.95,"xT1":424.9,"yT1":0,"xT2":1058.1,"yT2":0,"toosoon":0,"cond_shown":"Congruent","ratio_trial":100,"L_num":7,"L_den":14,"R_num":15,"R_den":25,"correct_side":2,"subjID":"Angel  Emanuel  Duque   beitran  16","gender":"0","school":"4","age":"9"},{"start_time":1552313154437,"click_time":1552313155684,"finger_time":1552313155184,"fix_duration":250,"trial":34,"RT":747,"MT":500,"sideResp":2,"stimulus":[],"xmouse":[762,762,762,762,762,762,762,762,762,762,762,762,762,762,762,762,762,762,762,762,762,762,762,762,762,762,762,762,762,762,762,762,762,762,762,791,814,879,937,999,1053,1106,1111,1146,1153,1156,1157,1157,1157,1157,1157,1157,1146,1122,1117,1114,1111,1106,1103,1103,1103,1106,1117],"ymouse":[633,633,633,633,633,633,633,633,633,633,633,633,633,633,633,633,633,633,633,633,633,633,633,633,633,633,633,633,633,633,633,633,633,633,633,608,584,523,456,364,295,231,226,191,180,174,169,166,164,164,164,164,162,155,152,150,147,142,134,127,118,113,98],"timestamp_mouse":[15,26,48,68,87,108,127,148,167,188,208,226,248,267,288,307,328,347,367,387,407,427,446,467,488,508,528,546,568,587,608,627,648,668,687,708,727,747,767,786,807,827,848,866,886,907,927,947,967,987,1006,1028,1047,1067,1088,1108,1127,1148,1168,1187,1208,1228,1247],"xSR":741.5,"ySR":573.95,"xT1":424.9,"yT1":0,"xT2":1058.1,"yT2":0,"toosoon":0,"cond_shown":"Incongruent","ratio_trial":300,"L_num":13,"L_den":26,"R_num":12,"R_den":15,"correct_side":2,"subjID":"Angel  Emanuel  Duque   beitran  16","gender":"0","school":"4","age":"9"},{"start_time":1552313157561,"click_time":1552313158584,"finger_time":1552313158125,"fix_duration":855.9357529347428,"trial":35,"RT":564,"MT":459,"sideResp":2,"stimulus":[],"xmouse":[781,781,781,781,781,781,781,781,781,781,780,780,780,780,780,779,779,779,779,779,779,779,779,778,778,776,776,782,791,804,809,820,873,893,905,911,912,923,938,956,969,981,991,997,1003,1010,1027,1046,1056,1062,1068,1073],"ymouse":[605,605,605,605,605,605,605,605,605,605,605,605,605,605,605,605,605,605,605,605,605,605,605,605,605,604,600,575,558,537,526,513,450,430,419,414,412,402,387,367,350,335,314,304,289,273,235,171,145,123,105,90],"timestamp_mouse":[9,22,44,62,82,104,123,144,164,183,203,224,243,263,283,303,324,343,364,383,404,424,443,464,483,502,523,543,564,582,604,623,642,664,683,703,723,742,762,784,803,823,843,864,882,902,923,944,963,984,1002,1023],"xSR":741.5,"ySR":573.95,"xT1":424.9,"yT1":0,"xT2":1058.1,"yT2":0,"toosoon":0,"cond_shown":"Congruent","ratio_trial":200,"L_num":13,"L_den":26,"R_num":14,"R_den":20,"correct_side":2,"subjID":"Angel  Emanuel  Duque   beitran  16","gender":"0","school":"4","age":"9"},{"start_time":1552313161545,"click_time":1552313162485,"finger_time":1552313162304,"fix_duration":639.7336557645384,"trial":36,"RT":759,"MT":181,"sideResp":2,"stimulus":[],"xmouse":[796,796,796,796,796,796,796,796,796,796,796,796,796,796,796,796,796,796,796,796,796,796,796,796,796,796,796,796,796,796,796,796,796,801,805,817,826,860,891,925,959,989,1024,1039,1046,1058,1066],"ymouse":[621,621,621,621,621,621,621,621,621,621,621,621,621,621,621,621,621,621,621,621,621,621,621,621,621,621,621,621,621,621,621,621,621,614,608,592,579,537,500,455,408,353,269,205,158,105,80],"timestamp_mouse":[21,40,60,78,99,119,139,159,178,199,219,240,259,279,300,318,339,360,380,399,419,440,460,480,499,520,540,560,579,599,619,640,659,679,700,720,740,759,779,798,819,839,859,879,900,919,940],"xSR":741.5,"ySR":573.95,"xT1":424.9,"yT1":0,"xT2":1058.1,"yT2":0,"toosoon":0,"cond_shown":"Incongruent","ratio_trial":300,"L_num":4,"L_den":20,"R_num":2,"R_den":4,"correct_side":2,"subjID":"Angel  Emanuel  Duque   beitran  16","gender":"0","school":"4","age":"9"},{"start_time":1552313165476,"click_time":1552313166727,"finger_time":1552313166204,"fix_duration":250,"trial":37,"RT":728,"MT":523,"sideResp":2,"stimulus":[],"xmouse":[793,793,793,793,793,793,793,793,793,793,793,793,793,793,793,793,793,793,793,793,793,793,793,793,793,793,793,793,793,793,793,793,793,793,794,802,821,830,840,846,851,867,874,879,882,885,890,894,897,899,902,909,912,916,921,923,930,946,969,1004,1032,1088,1107],"ymouse":[598,598,598,598,598,598,598,598,598,598,598,598,598,598,598,598,598,598,598,598,598,598,598,598,598,598,598,598,598,598,598,598,598,596,590,579,551,533,514,499,486,450,433,418,407,398,383,372,358,347,335,325,319,314,308,306,299,285,263,225,196,118,93],"timestamp_mouse":[9,40,48,69,88,109,127,149,168,187,209,229,249,268,288,308,329,347,368,388,407,429,449,467,489,509,529,548,569,589,609,628,649,668,688,709,728,749,769,789,808,828,850,869,889,909,928,948,969,990,1010,1029,1049,1070,1089,1110,1129,1149,1169,1190,1210,1229,1250],"xSR":741.5,"ySR":573.95,"xT1":424.9,"yT1":0,"xT2":1058.1,"yT2":0,"toosoon":0,"cond_shown":"Incongruent","ratio_trial":100,"L_num":13,"L_den":26,"R_num":6,"R_den":10,"correct_side":2,"subjID":"Angel  Emanuel  Duque   beitran  16","gender":"0","school":"4","age":"9"},{"start_time":1552313170616,"click_time":1552313171966,"finger_time":1552313171626,"fix_duration":1088.78173357314,"trial":38,"RT":1010,"MT":340,"sideResp":1,"stimulus":[],"xmouse":[790,790,790,790,790,790,790,790,790,790,790,790,790,790,790,790,790,790,790,790,790,790,800,806,823,826,827,827,827,827,827,827,827,827,827,827,827,827,827,827,827,827,827,827,827,827,827,827,810,770,737,716,690,656,626,620,614,613,613,604,595,576,567,558,545,535,530,512],"ymouse":[626,626,626,626,626,626,626,626,626,626,626,626,626,626,626,626,626,626,626,626,626,626,617,615,607,605,605,605,605,605,605,605,605,605,605,605,605,605,605,605,605,605,605,605,605,605,605,605,605,605,603,597,586,567,538,520,497,468,438,351,295,233,200,178,133,111,102,77],"timestamp_mouse":[10,28,56,68,88,110,128,149,170,190,209,230,250,270,290,310,328,350,370,388,409,429,449,470,489,509,529,549,569,590,610,629,648,668,689,709,730,749,769,788,810,830,850,870,890,910,930,948,970,989,1010,1029,1049,1070,1088,1110,1130,1148,1170,1189,1210,1229,1249,1269,1289,1308,1330,1350],"xSR":741.5,"ySR":573.95,"xT1":424.9,"yT1":0,"xT2":1058.1,"yT2":0,"toosoon":0,"cond_shown":"Congruent","ratio_trial":200,"L_num":11,"L_den":22,"R_num":3,"R_den":10,"correct_side":1,"subjID":"Angel  Emanuel  Duque   beitran  16","gender":"0","school":"4","age":"9"},{"start_time":1552313173863,"click_time":1552313176664,"finger_time":1552313175346,"fix_duration":1076.596876101943,"trial":39,"RT":1483,"MT":1318,"sideResp":1,"stimulus":[],"xmouse":[802,802,802,802,802,802,802,802,802,802,802,802,802,802,802,802,802,802,802,802,802,802,802,802,802,802,802,802,802,802,802,802,802,802,802,802,802,802,802,802,802,802,802,802,802,802,802,802,802,802,802,802,802,802,802,802,802,802,802,802,802,802,802,802,802,802,802,802,802,802,802,802,802,802,785,749,730,665,638,626,621,620,620,634,683,722,755,790,810,825,846,852,874,875,879,883,889,907,909,909,889,821,615,518,408,322,258,219,208,199,189,174,161,157,153,151,151,151,158,176,197,236,296,326,348,366,377,398,401,403,406,409,410,410,410,410,410,417,421,423,425],"ymouse":[595,595,595,595,595,595,595,595,595,595,595,595,595,595,595,595,595,595,595,595,595,595,595,595,595,595,595,595,595,595,595,595,595,595,595,595,595,595,595,595,595,595,595,595,595,595,595,595,595,595,595,595,595,595,595,595,595,595,595,595,595,595,595,595,595,595,595,595,595,595,595,595,595,595,561,506,477,391,361,343,335,333,333,333,333,339,344,346,346,341,327,321,294,289,281,272,262,219,192,161,118,27,0,0,0,0,0,0,5,14,26,44,63,68,72,79,84,91,95,103,109,118,120,120,117,112,106,86,81,69,61,52,44,44,44,44,44,44,44,44,44],"timestamp_mouse":[9,22,42,61,82,101,123,143,162,183,203,223,242,261,283,303,322,343,363,382,403,423,442,461,482,502,523,542,562,583,603,621,642,663,683,702,723,742,761,782,802,823,843,863,883,902,922,942,962,982,1002,1022,1041,1063,1083,1102,1122,1143,1163,1182,1201,1223,1243,1263,1283,1303,1321,1343,1363,1381,1402,1423,1441,1461,1483,1502,1522,1542,1562,1582,1602,1622,1642,1662,1682,1703,1723,1741,1761,1783,1803,1823,1842,1862,1882,1902,1923,1942,1961,1982,2003,2023,2042,2061,2082,2102,2121,2144,2161,2181,2202,2223,2244,2261,2282,2303,2321,2342,2361,2382,2402,2423,2442,2462,2482,2502,2522,2543,2563,2582,2602,2623,2642,2661,2682,2702,2722,2742,2763,2783,2801],"xSR":741.5,"ySR":573.95,"xT1":424.9,"yT1":0,"xT2":1058.1,"yT2":0,"toosoon":0,"cond_shown":"Incongruent","ratio_trial":100,"L_num":6,"L_den":10,"R_num":7,"R_den":14,"correct_side":1,"subjID":"Angel  Emanuel  Duque   beitran  16","gender":"0","school":"4","age":"9"},{"start_time":1552313210529,"click_time":1552313212086,"finger_time":1552313212005,"fix_duration":1241.127839719459,"trial":40,"RT":1476,"MT":81,"sideResp":1,"stimulus":[],"xmouse":[800,800,800,800,800,800,800,800,800,800,800,800,800,800,800,800,800,800,800,800,800,800,800,800,800,800,800,800,800,800,800,800,800,800,800,800,800,800,800,800,800,800,800,800,800,800,800,800,800,800,800,800,800,800,800,800,800,800,800,800,800,800,800,800,800,800,800,800,800,800,800,800,796,734,665,600,537,488],"ymouse":[639,639,639,639,639,639,639,639,639,639,639,639,639,639,639,639,639,639,639,639,639,639,639,639,639,639,639,639,639,639,639,639,639,639,639,639,639,639,639,639,639,639,639,639,639,639,639,639,639,639,639,639,639,639,639,639,639,639,639,639,639,639,639,639,639,639,639,639,639,639,639,639,617,470,358,245,143,70],"timestamp_mouse":[16,41,55,77,97,115,135,157,177,197,216,236,255,277,297,316,337,357,377,395,416,435,456,476,496,517,536,556,576,595,617,636,657,676,697,717,736,756,777,796,817,837,856,877,896,916,937,957,976,996,1017,1036,1057,1077,1096,1117,1136,1157,1175,1196,1216,1237,1257,1276,1296,1316,1335,1357,1375,1396,1417,1437,1456,1476,1496,1516,1536,1557],"xSR":741.5,"ySR":573.95,"xT1":424.9,"yT1":0,"xT2":1058.1,"yT2":0,"toosoon":0,"cond_shown":"Congruent","ratio_trial":200,"L_num":6,"L_den":15,"R_num":3,"R_den":15,"correct_side":1,"subjID":"Angel  Emanuel  Duque   beitran  16","gender":"0","school":"4","age":"9"},{"start_time":1552313214017,"click_time":1552313215705,"finger_time":1552313215445,"fix_duration":689.1780840624297,"trial":41,"RT":1428,"MT":260,"sideResp":2,"stimulus":[],"xmouse":[776,776,776,776,776,776,776,776,776,776,776,776,776,776,776,776,776,776,776,776,776,776,776,776,776,776,776,776,776,776,776,776,776,776,776,776,776,776,776,776,776,776,776,776,776,776,776,776,776,776,776,776,776,776,776,776,776,776,776,776,776,776,776,776,776,776,776,776,778,804,811,817,826,836,846,853,862,877,888,934,962,984,1025,1037,1069],"ymouse":[622,622,622,622,622,622,622,622,622,622,622,622,622,622,622,622,622,622,622,622,622,622,622,622,622,622,622,622,622,622,622,622,622,622,622,622,622,622,622,622,622,622,622,622,622,622,622,622,622,622,622,622,622,622,622,622,622,622,622,622,622,622,622,622,622,622,622,622,621,586,574,562,546,524,488,467,440,405,381,272,204,156,77,58,21],"timestamp_mouse":[14,28,49,68,88,108,127,148,169,187,209,228,248,268,289,308,328,347,369,388,408,429,448,468,487,507,527,549,569,588,608,628,649,667,688,708,728,747,769,788,808,828,848,868,888,908,928,948,968,989,1008,1027,1048,1069,1088,1108,1129,1147,1169,1189,1207,1229,1248,1267,1289,1309,1328,1349,1368,1388,1408,1428,1449,1468,1488,1509,1528,1549,1569,1588,1608,1629,1648,1667,1688],"xSR":741.5,"ySR":573.95,"xT1":424.9,"yT1":0,"xT2":1058.1,"yT2":0,"toosoon":0,"cond_shown":"Incongruent","ratio_trial":100,"L_num":10,"L_den":25,"R_num":8,"R_den":16,"correct_side":2,"subjID":"Angel  Emanuel  Duque   beitran  16","gender":"0","school":"4","age":"9"},{"start_time":1552313217510,"click_time":1552313218806,"finger_time":1552313218585,"fix_duration":662.6835181404871,"trial":42,"RT":1075,"MT":221,"sideResp":2,"stimulus":[],"xmouse":[797,797,797,797,797,797,797,797,797,797,797,797,797,797,797,797,797,797,797,797,797,797,797,797,797,797,797,797,797,797,797,797,797,797,797,797,797,797,797,797,797,797,797,797,797,797,797,797,797,797,797,797,805,846,882,899,908,939,987,1044,1061,1071,1094,1115,1136],"ymouse":[650,650,650,650,650,650,650,650,650,650,650,650,650,650,650,650,650,650,650,650,650,650,650,650,650,650,650,650,650,650,650,650,650,650,650,650,650,650,650,650,650,650,650,650,650,650,650,650,650,650,650,650,642,586,536,500,484,433,355,245,213,202,165,131,94],"timestamp_mouse":[15,43,56,76,96,115,135,156,176,196,215,236,255,276,295,315,334,355,375,396,415,435,456,475,496,515,535,554,576,596,615,634,656,676,694,715,734,756,775,796,815,836,854,874,896,915,936,956,976,996,1015,1036,1056,1075,1096,1115,1135,1156,1175,1195,1215,1235,1255,1276,1296],"xSR":741.5,"ySR":573.95,"xT1":424.9,"yT1":0,"xT2":1058.1,"yT2":0,"toosoon":0,"cond_shown":"Incongruent","ratio_trial":300,"L_num":4,"L_den":20,"R_num":2,"R_den":4,"correct_side":2,"subjID":"Angel  Emanuel  Duque   beitran  16","gender":"0","school":"4","age":"9"},{"start_time":1552313225719,"click_time":1552313226986,"finger_time":1552313226386,"fix_duration":1490.9770617686859,"trial":43,"RT":667,"MT":600,"sideResp":2,"stimulus":[],"xmouse":[779,779,779,779,779,779,779,779,779,779,779,779,779,779,779,779,779,779,779,779,779,779,779,779,779,779,779,779,779,779,779,779,785,794,814,828,838,847,854,860,865,880,893,902,925,931,934,937,938,946,952,961,972,988,1034,1054,1073,1082,1082,1105,1109,1116,1123,1126],"ymouse":[606,606,606,606,606,606,606,606,606,606,606,606,606,606,606,606,606,606,606,606,606,606,606,606,606,606,606,606,606,606,606,606,594,573,527,493,470,449,433,416,407,388,372,357,324,313,306,303,302,293,286,275,261,244,198,180,164,155,155,133,128,117,105,99],"timestamp_mouse":[12,36,45,65,85,107,127,146,166,187,207,227,245,266,287,306,327,347,365,386,406,427,446,467,486,506,525,547,567,587,606,626,647,667,687,707,727,747,766,786,806,826,846,866,886,906,927,946,967,986,1006,1026,1047,1067,1086,1106,1127,1147,1166,1186,1207,1227,1246,1267],"xSR":741.5,"ySR":573.95,"xT1":424.9,"yT1":0,"xT2":1058.1,"yT2":0,"toosoon":0,"cond_shown":"Congruent","ratio_trial":300,"L_num":3,"L_den":6,"R_num":4,"R_den":5,"correct_side":2,"subjID":"Angel  Emanuel  Duque   beitran  16","gender":"0","school":"4","age":"9"},{"start_time":1552313228503,"click_time":1552313230406,"finger_time":1552313229865,"fix_duration":355.8261741858688,"trial":44,"RT":1362,"MT":541,"sideResp":1,"stimulus":[],"xmouse":[768,768,768,768,768,768,768,768,768,768,768,768,768,768,768,768,768,768,768,768,768,768,768,768,768,768,768,768,768,768,768,768,768,768,768,768,768,768,768,768,768,768,768,768,768,768,768,768,768,768,768,768,768,768,768,768,768,768,770,770,773,776,777,778,779,781,782,782,782,778,762,746,731,722,720,720,719,719,717,706,684,684,690,703,720,749,750,748,725,691,664,650,633,609,584,522],"ymouse":[624,624,624,624,624,624,624,624,624,624,624,624,624,624,624,624,624,624,624,624,624,624,624,624,624,624,624,624,624,624,624,624,624,624,624,624,624,624,624,624,624,624,624,624,624,624,624,624,624,624,624,624,624,624,624,624,624,624,616,615,609,601,597,593,588,583,579,575,565,556,544,540,538,538,538,538,538,522,489,457,406,398,374,342,290,136,43,0,0,0,0,0,0,0,12,51],"timestamp_mouse":[10,23,42,63,83,102,123,142,162,183,203,223,242,264,283,303,323,342,364,383,402,423,443,464,483,502,522,542,563,583,602,623,643,663,682,703,723,742,763,783,804,823,842,862,883,904,923,943,962,982,1003,1024,1043,1062,1083,1102,1124,1142,1163,1183,1202,1223,1243,1263,1283,1303,1322,1342,1362,1383,1404,1423,1442,1462,1483,1503,1524,1543,1562,1582,1602,1622,1642,1662,1682,1704,1722,1743,1762,1782,1802,1823,1842,1863,1882,1902],"xSR":741.5,"ySR":573.95,"xT1":424.9,"yT1":0,"xT2":1058.1,"yT2":0,"toosoon":0,"cond_shown":"Congruent","ratio_trial":300,"L_num":4,"L_den":10,"R_num":1,"R_den":10,"correct_side":1,"subjID":"Angel  Emanuel  Duque   beitran  16","gender":"0","school":"4","age":"9"},{"start_time":1552313232540,"click_time":1552313234106,"finger_time":1552313233905,"fix_duration":472.0533320497328,"trial":45,"RT":1365,"MT":201,"sideResp":1,"stimulus":[],"xmouse":[799,799,799,799,799,799,799,799,799,799,799,799,799,799,799,799,799,799,799,799,799,799,799,799,799,799,799,799,799,799,799,799,799,799,799,799,799,799,799,799,799,799,799,799,799,799,799,799,799,799,799,799,799,799,799,799,799,799,799,799,799,799,799,799,799,799,794,768,648,585,539,515,507,506,510,514,519,520,523],"ymouse":[632,632,632,632,632,632,632,632,632,632,632,632,632,632,632,632,632,632,632,632,632,632,632,632,632,632,632,632,632,632,632,632,632,632,632,632,632,632,632,632,632,632,632,632,632,632,632,632,632,632,632,632,632,632,632,632,632,632,632,632,632,632,632,632,632,632,620,575,374,277,209,171,154,147,139,128,117,111,95],"timestamp_mouse":[10,26,45,66,85,106,126,145,166,186,207,225,246,267,285,305,325,347,366,386,406,427,445,466,486,506,525,546,566,585,606,627,646,665,686,707,726,746,766,785,805,826,845,865,886,905,926,947,966,986,1005,1026,1046,1066,1085,1105,1126,1145,1165,1185,1206,1226,1246,1267,1285,1305,1325,1346,1365,1385,1406,1426,1446,1465,1485,1505,1525,1546,1566],"xSR":741.5,"ySR":573.95,"xT1":424.9,"yT1":0,"xT2":1058.1,"yT2":0,"toosoon":0,"cond_shown":"Congruent","ratio_trial":100,"L_num":8,"L_den":16,"R_num":2,"R_den":5,"correct_side":1,"subjID":"Angel  Emanuel  Duque   beitran  16","gender":"0","school":"4","age":"9"},{"start_time":1552313237192,"click_time":1552313238585,"finger_time":1552313238245,"fix_duration":1164.980769370843,"trial":46,"RT":1053,"MT":340,"sideResp":2,"stimulus":[],"xmouse":[777,777,777,777,777,777,777,777,777,777,777,777,777,777,777,777,777,777,777,777,777,777,777,777,777,777,777,777,777,777,777,777,777,777,777,777,777,777,777,777,777,777,777,777,777,777,777,777,777,777,781,795,818,841,860,886,893,898,903,908,916,916,924,935,960,998,1021,1043,1064,1090],"ymouse":[602,602,602,602,602,602,602,602,602,602,602,602,602,602,602,602,602,602,602,602,602,602,602,602,602,602,602,602,602,602,602,602,602,602,602,602,602,602,602,602,602,602,602,602,602,602,602,602,602,602,596,575,543,506,469,406,386,371,358,346,316,313,292,268,228,176,149,124,106,84],"timestamp_mouse":[13,43,54,74,94,113,133,155,174,193,214,234,254,274,294,314,333,353,374,393,413,433,454,473,494,514,533,553,573,593,615,634,653,673,694,714,734,753,774,794,813,833,853,873,894,913,934,953,973,993,1013,1034,1053,1074,1093,1113,1135,1153,1173,1193,1214,1234,1254,1274,1293,1313,1334,1353,1373,1393],"xSR":741.5,"ySR":573.95,"xT1":424.9,"yT1":0,"xT2":1058.1,"yT2":0,"toosoon":0,"cond_shown":"Incongruent","ratio_trial":300,"L_num":13,"L_den":26,"R_num":12,"R_den":15,"correct_side":2,"subjID":"Angel  Emanuel  Duque   beitran  16","gender":"0","school":"4","age":"9"},{"start_time":1552313240538,"click_time":1552313244527,"finger_time":1552313241186,"fix_duration":831.8944767038586,"trial":47,"RT":648,"MT":3341,"sideResp":1,"stimulus":[],"xmouse":[813,813,813,813,813,813,813,813,813,813,813,813,813,813,813,813,813,813,813,813,813,813,813,813,813,813,813,813,813,822,828,833,835,835,836,837,836,836,833,833,833,829,826,818,814,811,811,811,811,811,811,811,811,811,811,811,805,774,759,741,730,728,727,727,727,727,727,727,727,727,727,705,662,602,580,575,575,575,575,567,559,545,531,522,515,513,511,509,507,507,507,507,507,507,507,507,507,507,507,507,507,507,507,507,507,507,507,507,507,507,507,507,507,507,507,507,507,515,586,619,623,623,623,623,623,623,623,623,625,639,648,654,655,640,617,595,567,538,524,523,521,518,513,508,507,507,507,507,507,507,507,507,507,507,507,507,507,507,507,507,507,507,508,509,509,509,509,509,509,509,505,502,502,502,502,502,502,502,502,502,502,502,502,502,502,502,502,502,502,502,502,502,502,502,502,502,502,502,499,491],"ymouse":[648,648,648,648,648,648,648,648,648,648,648,648,648,648,648,648,648,648,648,648,648,648,648,648,648,648,648,648,648,626,600,583,570,561,553,547,542,540,535,535,534,529,524,509,501,497,497,497,497,497,497,497,497,497,497,497,492,465,449,426,409,402,402,401,401,401,401,401,401,401,401,386,348,299,279,274,274,274,274,267,261,247,226,199,165,155,139,126,110,108,108,107,106,106,106,106,106,106,106,106,106,106,106,106,106,106,106,106,106,106,106,106,106,106,106,106,106,128,279,331,336,336,336,336,336,336,336,336,336,314,294,271,248,195,164,140,120,107,106,106,106,107,112,116,117,117,117,117,117,117,117,117,117,117,117,117,117,117,117,117,118,112,107,102,102,102,102,102,102,103,114,122,125,127,127,127,127,127,127,127,127,127,127,127,127,127,127,127,127,127,127,127,127,127,127,127,127,127,116,86],"timestamp_mouse":[10,39,47,68,88,109,127,147,167,187,209,228,249,267,288,308,328,347,368,389,408,427,448,469,487,507,527,548,568,588,608,627,648,668,687,708,727,747,767,787,807,829,848,867,887,907,928,947,968,987,1007,1028,1048,1069,1088,1108,1127,1148,1167,1187,1207,1228,1248,1268,1288,1307,1327,1347,1368,1388,1407,1427,1448,1467,1487,1507,1527,1548,1568,1588,1607,1627,1647,1668,1687,1707,1729,1747,1767,1787,1808,1828,1847,1868,1887,1907,1927,1947,1968,1987,2007,2028,2047,2068,2087,2107,2128,2147,2167,2188,2207,2227,2247,2268,2287,2307,2329,2348,2367,2387,2408,2429,2448,2467,2487,2507,2527,2549,2567,2588,2608,2628,2648,2667,2687,2707,2727,2748,2767,2787,2807,2828,2847,2867,2887,2908,2928,2948,2967,2988,3008,3029,3047,3067,3088,3108,3127,3148,3167,3188,3207,3228,3248,3267,3288,3307,3327,3348,3367,3388,3407,3427,3448,3467,3488,3507,3529,3547,3567,3587,3608,3627,3648,3668,3687,3707,3729,3748,3767,3788,3808,3827,3847,3867,3887,3908,3927,3948,3967,3988],"xSR":741.5,"ySR":573.95,"xT1":424.9,"yT1":0,"xT2":1058.1,"yT2":0,"toosoon":0,"cond_shown":"Incongruent","ratio_trial":200,"L_num":1,"L_den":3,"R_num":2,"R_den":15,"correct_side":1,"subjID":"Angel  Emanuel  Duque   beitran  16","gender":"0","school":"4","age":"9"},{"start_time":1552313246143,"click_time":1552313247225,"finger_time":1552313246765,"fix_duration":475.3171388602646,"trial":48,"RT":622,"MT":460,"sideResp":2,"stimulus":[],"xmouse":[781,781,781,781,781,781,781,781,781,781,781,781,781,781,781,781,779,778,778,778,778,778,778,778,778,778,778,778,783,788,790,792,793,800,802,808,816,823,854,870,881,888,894,903,905,906,907,908,918,935,961,989,1017,1052,1062],"ymouse":[600,600,600,600,600,600,600,600,600,600,600,600,600,600,600,600,601,602,602,602,602,602,602,602,602,602,602,602,592,584,576,572,562,540,533,523,510,498,456,436,415,394,375,349,343,338,335,331,308,283,247,204,158,87,53],"timestamp_mouse":[9,23,42,63,82,102,122,143,162,182,202,223,242,262,283,302,322,344,363,382,402,423,443,463,482,502,522,542,562,583,602,622,643,662,682,703,723,743,762,783,802,822,843,862,883,902,923,944,963,983,1003,1023,1044,1062,1082],"xSR":741.5,"ySR":573.95,"xT1":424.9,"yT1":0,"xT2":1058.1,"yT2":0,"toosoon":0,"cond_shown":"Incongruent","ratio_trial":200,"L_num":3,"L_den":10,"R_num":1,"R_den":2,"correct_side":2,"subjID":"Angel  Emanuel  Duque   beitran  16","gender":"0","school":"4","age":"9"},{"start_time":1552313250106,"click_time":1552313251186,"finger_time":1552313250806,"fix_duration":578.7474632590306,"trial":49,"RT":700,"MT":380,"sideResp":2,"stimulus":[],"xmouse":[831,831,831,831,831,831,831,831,829,825,808,801,796,794,794,794,794,794,794,794,794,794,794,794,794,794,794,794,794,794,794,794,796,798,809,837,851,861,873,889,936,952,964,977,1008,1081,1110,1136,1140,1145,1150,1150,1150,1150,1141],"ymouse":[636,636,636,636,636,636,636,636,636,635,628,624,622,621,621,621,621,621,621,621,621,621,621,621,621,621,621,621,621,621,621,621,608,607,588,537,510,486,461,421,266,194,133,74,2,0,0,0,0,0,0,0,0,0,5],"timestamp_mouse":[1,37,39,60,80,100,120,139,159,180,199,220,241,261,279,300,319,341,360,379,400,419,440,459,479,499,519,540,559,580,600,620,640,659,680,700,720,739,759,780,799,820,840,860,879,900,919,939,960,980,999,1019,1039,1060,1080],"xSR":741.5,"ySR":573.95,"xT1":424.9,"yT1":0,"xT2":1058.1,"yT2":0,"toosoon":0,"cond_shown":"Incongruent","ratio_trial":300,"L_num":4,"L_den":20,"R_num":2,"R_den":4,"correct_side":2,"subjID":"Angel  Emanuel  Duque   beitran  16","gender":"0","school":"4","age":"9"},{"start_time":1552313255498,"click_time":1552313256705,"finger_time":1552313256466,"fix_duration":250,"trial":50,"RT":968,"MT":239,"sideResp":2,"stimulus":[],"xmouse":[798,798,798,798,798,798,798,798,798,798,798,798,798,798,798,798,798,798,798,798,798,798,798,798,798,798,798,798,798,798,798,798,798,798,798,798,798,798,798,798,798,798,798,798,798,798,807,816,835,843,874,887,899,909,927,957,982,1012,1041,1058,1071],"ymouse":[616,616,616,616,616,616,616,616,616,616,616,616,616,616,616,616,616,616,616,616,616,616,616,616,616,616,616,616,616,616,616,616,616,616,616,616,616,616,616,616,616,616,616,616,616,615,599,588,565,556,511,489,468,445,405,324,263,203,138,95,59],"timestamp_mouse":[13,38,47,68,88,107,128,147,168,188,208,227,248,268,287,307,328,348,368,387,408,427,447,467,487,509,528,548,568,589,608,628,648,668,687,708,728,747,768,789,807,828,848,867,888,907,928,947,968,987,1007,1028,1047,1068,1087,1108,1127,1148,1167,1189,1207],"xSR":741.5,"ySR":573.95,"xT1":424.9,"yT1":0,"xT2":1058.1,"yT2":0,"toosoon":0,"cond_shown":"Incongruent","ratio_trial":300,"L_num":13,"L_den":26,"R_num":12,"R_den":15,"correct_side":2,"subjID":"Angel  Emanuel  Duque   beitran  16","gender":"0","school":"4","age":"9"},{"start_time":1552313258057,"click_time":1552313259186,"finger_time":1552313258686,"fix_duration":250,"trial":51,"RT":629,"MT":500,"sideResp":2,"stimulus":[],"xmouse":[811,811,811,810,809,809,808,807,807,807,807,807,807,807,807,807,807,807,807,807,807,807,807,807,807,807,807,807,807,807,816,829,849,860,880,904,920,939,944,950,959,967,999,1005,1005,1005,1005,1005,1005,1005,1005,1005,1024,1031,1043,1053,1065],"ymouse":[584,584,585,588,589,591,593,594,594,594,594,594,594,594,594,594,594,594,594,594,594,594,594,594,594,594,594,594,594,594,576,555,524,497,446,388,336,262,242,222,202,182,120,109,108,108,108,108,108,108,108,108,101,96,91,86,81],"timestamp_mouse":[10,39,49,68,88,108,128,149,168,188,208,229,248,269,289,309,330,350,370,389,409,429,449,468,489,508,530,549,568,589,609,629,64