[{"start_time":1552313671864,"click_time":1552313676397,"finger_time":1552313671876,"fix_duration":1282.5326590115571,"trial":0,"RT":12,"MT":4521,"sideResp":2,"stimulus":"img/750/randomdotsizeEA/L/10_Ratio_750_L_4_R_3.png","xmouse":[794,794,794,794,794,794,794,794,794,794,794,794,794,794,794,794,794,794,794,794,794,794,794,794,794,794,794,794,794,794,794,794,794,794,796,801,806,811,816,816,817,817,817,817,818,818,818,818,818,817,816,813,813,812,812,812,812,812,811,811,811,811,811,811,811,811,811,811,811,811,811,811,811,811,811,811,811,811,811,811,811,811,811,811,810,809,809,808,808,807,806,803,802,800,799,799,797,796,794,789,788,788,788,788,788,788,788,786,786,784,783,783,782,782,781,781,781,780,780,779,778,778,778,778,778,778,778,778,778,778,778,778,778,778,778,778,778,778,778,778,778,778,778,778,778,778,778,778,778,778,778,778,778,778,778,778,778,778,778,778,778,778,778,778,779,779,779,779,779,780,781,782,783,784,786,786,787,787,787,787,787,788,788,788,788,788,788,788,788,788,788,788,788,788,789,789,789,789,790,793,799,804,811,837,852,870,885,896,902,914,919,920,920,920,920,920,920,921,924,927,930,941,965,990,1029,1054,1079],"ymouse":[527,527,527,527,527,527,527,527,527,527,527,527,527,527,527,527,527,527,527,527,527,527,527,527,527,527,527,527,527,527,527,527,527,531,547,563,578,595,612,615,617,620,622,624,626,626,626,626,627,629,630,634,635,635,636,636,636,636,636,636,636,636,636,636,636,636,636,636,636,636,636,636,636,636,636,636,636,636,636,636,636,636,636,636,636,636,636,636,636,636,636,636,636,636,635,635,635,635,635,635,635,635,635,635,635,635,635,634,634,633,633,633,633,633,632,632,632,632,632,632,632,632,632,632,632,632,632,632,632,632,632,632,632,632,632,632,632,632,632,632,632,632,632,632,632,632,632,632,632,632,632,632,632,632,632,632,632,632,631,631,629,628,627,626,625,625,624,623,622,620,617,615,615,612,608,607,606,606,606,606,606,605,605,605,605,605,605,605,605,605,605,604,603,601,599,599,599,599,597,588,576,565,549,497,466,423,379,340,315,265,207,160,111,62,0,0,0,0,0,0,0,0,2,8,23,29,34],"timestamp_mouse":[12,32,53,72,93,113,133,152,173,192,213,232,253,272,292,312,333,352,373,392,414,433,453,473,492,513,533,553,572,593,612,633,653,672,692,712,733,752,774,792,812,833,852,872,894,913,933,953,973,992,1012,1032,1053,1072,1093,1112,1132,1153,1172,1193,1213,1233,1252,1273,1293,1312,1333,1352,1373,1392,1413,1433,1453,1472,1493,1513,1532,1553,1573,1592,1613,1633,1652,1672,1692,1712,1732,1752,1773,1792,1812,1832,1852,1872,1892,1912,1932,1953,1972,1992,2013,2032,2052,2073,2093,2113,2133,2152,2172,2192,2212,2233,2253,2272,2293,2312,2333,2352,2372,2393,2412,2432,2452,2472,2492,2513,2533,2553,2573,2593,2613,2633,2652,2673,2693,2712,2733,2753,2772,2793,2812,2832,2852,2873,2893,2914,2933,2953,2972,2992,3012,3032,3052,3072,3093,3113,3133,3153,3173,3192,3213,3233,3252,3273,3293,3312,3333,3353,3373,3392,3413,3432,3452,3473,3492,3512,3532,3553,3573,3593,3612,3633,3652,3674,3693,3713,3732,3753,3772,3792,3812,3832,3852,3872,3893,3912,3934,3952,3972,3993,4012,4033,4053,4074,4092,4113,4133,4152,4172,4192,4214,4232,4252,4272,4293,4312,4333,4352,4373,4393,4413,4432,4452,4473,4493,4514,4533],"xSR":741.5,"ySR":501.8,"xT1":424.9,"yT1":0,"xT2":1058.1,"yT2":0,"toosoon":0,"cond_shown":"randomdotsizeEA","ratio_trial":750,"smaller_num":"3","larger_num":"4","correct_side":1,"subjID":"Emanuel   DuqueBELTRAN","gender":"0","age":"9","school":"4","test":{"fix_dur":[250,1500],"timestim":300,"targets_dim":[100,100],"targets_relative_coord":[0.3,0.7],"size_stim":[880,420],"start_dim":[100,100],"size_start":[300,300],"size_fix":60,"samplingrate":20,"img_types":["equaldotsize","equaldotanddens","randomdotsizeEA"],"ratios":[250,500,750,900],"rep_conds":9,"nTrials":120,"trials_to_rest":500,"Trials_order":[8,96,41,97,119,73,117,63,12,72,42,40,62,19,7,35,111,94,87,60,83,45,54,91,118,88,110,33,27,66,113,38,36,25,0,13,22,53,70,44,106,64,107,32,103,16,1,84,65,109,86,11,21,30,28,31,20,102,80,55,56,95,90,46,48,49,112,98,5,52,15,101,68,39,108,99,116,43,58,26,114,57,79,34,78,2,81,89,4,93,82,23,71,47,29,67,74,14,18,115,105,51,59,24,9,85,75,6,76,61,37,17,3,10,104,50,100,77,69,92],"cond_shown":["randomdotsizeEA","equaldotsize","randomdotsizeEA","equaldotanddens","randomdotsizeEA","equaldotanddens","equaldotsize","equaldotsize","equaldotsize","equaldotsize","equaldotsize","equaldotanddens","randomdotsizeEA","equaldotanddens","equaldotanddens","randomdotsizeEA","equaldotsize","equaldotanddens","equaldotsize","equaldotsize","randomdotsizeEA","equaldotsize","equaldotsize","equaldotanddens","equaldotanddens","equaldotanddens","randomdotsizeEA","equaldotsize","equaldotsize","equaldotsize","randomdotsizeEA","randomdotsizeEA","equaldotsize","equaldotanddens","equaldotsize","equaldotanddens","equaldotanddens","randomdotsizeEA","equaldotanddens","randomdotsizeEA","equaldotanddens","equaldotanddens","randomdotsizeEA","randomdotsizeEA","equaldotanddens","equaldotanddens","equaldotanddens","equaldotsize","randomdotsizeEA","equaldotanddens","randomdotsizeEA","randomdotsizeEA","equaldotsize","equaldotsize","equaldotanddens","equaldotanddens","randomdotsizeEA","equaldotsize","randomdotsizeEA","equaldotanddens","randomdotsizeEA","randomdotsizeEA","equaldotsize","equaldotanddens","equaldotsize","equaldotanddens","equaldotanddens","randomdotsizeEA","randomdotsizeEA","equaldotanddens","equaldotsize","randomdotsizeEA","randomdotsizeEA","equaldotsize","equaldotsize","equaldotsize","randomdotsizeEA","equaldotanddens","equaldotanddens","randomdotsizeEA","equaldotsize","equaldotsize","equaldotanddens","equaldotanddens","equaldotsize","randomdotsizeEA","equaldotsize","randomdotsizeEA","equaldotanddens","equaldotsize","equaldotanddens","randomdotsizeEA","randomdotsizeEA","randomdotsizeEA","randomdotsizeEA","equaldotanddens","randomdotsizeEA","randomdotsizeEA","equaldotsize","equaldotanddens","equaldotsize","equaldotsize","randomdotsizeEA","equaldotsize","equaldotsize","equaldotanddens","equaldotsize","equaldotsize","equaldotanddens","equaldotanddens","equaldotanddens","randomdotsizeEA","equaldotsize","equaldotanddens","randomdotsizeEA","randomdotsizeEA","equaldotanddens","randomdotsizeEA","equaldotsize","randomdotsizeEA"],"ratio_trial":[750,250,500,250,900,250,900,500,250,250,750,500,250,750,750,900,500,900,500,250,900,900,750,750,900,500,250,900,500,750,500,250,250,250,250,250,900,500,900,750,900,500,900,750,750,500,250,250,500,250,250,900,900,750,500,750,750,750,750,750,750,900,750,900,250,250,500,250,500,500,500,500,750,500,250,500,750,750,900,250,750,900,750,900,750,250,900,500,500,900,900,900,900,900,500,750,250,250,750,750,900,500,900,250,900,250,500,750,500,250,250,500,500,900,750,250,500,500,900,750],"smaller_num":["3","2","6","2","9","4","18","2","4","6","3","2","4","15","9","18","5","18","10","5","18","18","15","3","18","6","3","9","5","18","1","6","2","4","6","2","18","4","18","18","9","2","18","18","3","1","2","5","2","3","2","9","18","15","2","15","6","6","3","9","3","18","6","18","3","2","3","2","4","6","9","2","6","1","6","9","9","3","9","2","3","18","6","18","15","1","9","9","6","18","18","9","18","18","2","15","3","5","3","6","18","2","9","3","18","2","9","15","2","2","5","9","5","18","3","2","3","9","18","3"],"larger_num":["4","8","12","8","10","16","20","4","16","24","4","4","16","20","12","20","10","20","20","20","20","20","20","4","20","12","12","10","10","24","2","24","8","16","24","8","20","8","20","24","10","4","20","24","4","2","8","20","4","12","8","10","20","20","4","20","8","8","4","12","4","20","8","20","12","8","6","8","8","12","18","4","8","2","24","18","12","4","10","8","4","20","8","20","20","4","10","18","12","20","20","10","20","20","4","20","12","20","4","8","20","4","10","12","20","8","18","20","4","8","20","18","10","20","4","8","6","18","20","4"],"correct_side":[1,1,1,1,2,1,1,1,1,2,2,1,2,2,2,2,2,1,2,2,2,2,2,1,1,1,1,1,1,1,2,2,1,2,2,2,1,1,1,1,1,1,2,1,2,2,1,2,1,2,2,2,1,1,1,2,2,1,1,2,1,2,1,1,2,1,2,1,1,1,1,2,1,2,1,1,2,2,2,1,2,1,1,1,2,2,2,2,1,1,1,2,2,1,2,2,1,2,2,2,1,1,1,2,2,1,2,1,1,1,2,2,2,1,1,1,2,2,1,1],"img_shown":["img/750/randomdotsizeEA/L/10_Ratio_750_L_4_R_3.png","img/250/equaldotsize/L/1_Ratio_250_L_8_R_2.png","img/500/randomdotsizeEA/L/13_Ratio_500_L_12_R_6.png","img/250/equaldotanddens/L/7_Ratio_250_L_8_R_2.png","img/900/randomdotsizeEA/R/5_Ratio_900_L_9_R_10.png","img/250/equaldotanddens/L/2_Ratio_250_L_16_R_4.png","img/900/equaldotsize/L/8_Ratio_900_L_20_R_18.png","img/500/equaldotsize/L/10_Ratio_500_L_4_R_2.png","img/250/equaldotsize/L/2_Ratio_250_L_16_R_4.png","img/250/equaldotsize/R/6_Ratio_250_L_6_R_24.png","img/750/equaldotsize/R/7_Ratio_750_L_3_R_4.png","img/500/equaldotanddens/L/10_Ratio_500_L_4_R_2.png","img/250/randomdotsizeEA/R/10_Ratio_250_L_4_R_16.png","img/750/equaldotanddens/R/5_Ratio_750_L_15_R_20.png","img/750/equaldotanddens/R/15_Ratio_750_L_9_R_12.png","img/900/randomdotsizeEA/R/9_Ratio_900_L_18_R_20.png","img/500/equaldotsize/R/14_Ratio_500_L_5_R_10.png","img/900/equaldotanddens/L/8_Ratio_900_L_20_R_18.png","img/500/equaldotsize/R/3_Ratio_500_L_10_R_20.png","img/250/equaldotsize/R/12_Ratio_250_L_5_R_20.png","img/900/randomdotsizeEA/R/11_Ratio_900_L_18_R_20.png","img/900/equaldotsize/R/13_Ratio_900_L_18_R_20.png","img/750/equaldotsize/R/5_Ratio_750_L_15_R_20.png","img/750/equaldotanddens/L/10_Ratio_750_L_4_R_3.png","img/900/equaldotanddens/L/8_Ratio_900_L_20_R_18.png","img/500/equaldotanddens/L/13_Ratio_500_L_12_R_6.png","img/250/randomdotsizeEA/L/15_Ratio_250_L_12_R_3.png","img/900/equaldotsize/L/1_Ratio_900_L_10_R_9.png","img/500/equaldotsize/L/7_Ratio_500_L_10_R_5.png","img/750/equaldotsize/L/6_Ratio_750_L_24_R_18.png","img/500/randomdotsizeEA/R/12_Ratio_500_L_1_R_2.png","img/250/randomdotsizeEA/R/6_Ratio_250_L_6_R_24.png","img/250/equaldotsize/L/3_Ratio_250_L_8_R_2.png","img/250/equaldotanddens/R/10_Ratio_250_L_4_R_16.png","img/250/equaldotsize/R/6_Ratio_250_L_6_R_24.png","img/250/equaldotanddens/R/13_Ratio_250_L_2_R_8.png","img/900/equaldotanddens/L/2_Ratio_900_L_20_R_18.png","img/500/randomdotsizeEA/L/8_Ratio_500_L_8_R_4.png","img/900/equaldotanddens/L/4_Ratio_900_L_20_R_18.png","img/750/randomdotsizeEA/L/6_Ratio_750_L_24_R_18.png","img/900/equaldotanddens/L/1_Ratio_900_L_10_R_9.png","img/500/equaldotanddens/L/5_Ratio_500_L_4_R_2.png","img/900/randomdotsizeEA/R/11_Ratio_900_L_18_R_20.png","img/750/randomdotsizeEA/L/6_Ratio_750_L_24_R_18.png","img/750/equaldotanddens/R/12_Ratio_750_L_3_R_4.png","img/500/equaldotanddens/R/12_Ratio_500_L_1_R_2.png","img/250/equaldotanddens/L/7_Ratio_250_L_8_R_2.png","img/250/equaldotsize/R/12_Ratio_250_L_5_R_20.png","img/500/randomdotsizeEA/L/10_Ratio_500_L_4_R_2.png","img/250/equaldotanddens/R/4_Ratio_250_L_3_R_12.png","img/250/randomdotsizeEA/R/13_Ratio_250_L_2_R_8.png","img/900/randomdotsizeEA/R/5_Ratio_900_L_9_R_10.png","img/900/equaldotsize/L/2_Ratio_900_L_20_R_18.png","img/750/equaldotsize/L/1_Ratio_750_L_20_R_15.png","img/500/equaldotanddens/L/5_Ratio_500_L_4_R_2.png","img/750/equaldotanddens/R/5_Ratio_750_L_15_R_20.png","img/750/randomdotsizeEA/R/2_Ratio_750_L_6_R_8.png","img/750/equaldotsize/L/14_Ratio_750_L_8_R_6.png","img/750/randomdotsizeEA/L/8_Ratio_750_L_4_R_3.png","img/750/equaldotanddens/R/15_Ratio_750_L_9_R_12.png","img/750/randomdotsizeEA/L/8_Ratio_750_L_4_R_3.png","img/900/randomdotsizeEA/R/13_Ratio_900_L_18_R_20.png","img/750/equaldotsize/L/13_Ratio_750_L_8_R_6.png","img/900/equaldotanddens/L/4_Ratio_900_L_20_R_18.png","img/250/equaldotsize/R/4_Ratio_250_L_3_R_12.png","img/250/equaldotanddens/L/3_Ratio_250_L_8_R_2.png","img/500/equaldotanddens/R/2_Ratio_500_L_3_R_6.png","img/250/randomdotsizeEA/L/3_Ratio_250_L_8_R_2.png","img/500/randomdotsizeEA/L/8_Ratio_500_L_8_R_4.png","img/500/equaldotanddens/L/13_Ratio_500_L_12_R_6.png","img/500/equaldotsize/L/4_Ratio_500_L_18_R_9.png","img/500/randomdotsizeEA/R/9_Ratio_500_L_2_R_4.png","img/750/randomdotsizeEA/L/13_Ratio_750_L_8_R_6.png","img/500/equaldotsize/R/12_Ratio_500_L_1_R_2.png","img/250/equaldotsize/L/5_Ratio_250_L_24_R_6.png","img/500/equaldotsize/L/4_Ratio_500_L_18_R_9.png","img/750/randomdotsizeEA/R/15_Ratio_750_L_9_R_12.png","img/750/equaldotanddens/R/12_Ratio_750_L_3_R_4.png","img/900/equaldotanddens/R/6_Ratio_900_L_9_R_10.png","img/250/randomdotsizeEA/L/7_Ratio_250_L_8_R_2.png","img/750/equaldotsize/R/12_Ratio_750_L_3_R_4.png","img/900/equaldotsize/L/2_Ratio_900_L_20_R_18.png","img/750/equaldotanddens/L/14_Ratio_750_L_8_R_6.png","img/900/equaldotanddens/L/10_Ratio_900_L_20_R_18.png","img/750/equaldotsize/R/3_Ratio_750_L_15_R_20.png","img/250/randomdotsizeEA/R/8_Ratio_250_L_1_R_4.png","img/900/equaldotsize/R/5_Ratio_900_L_9_R_10.png","img/500/randomdotsizeEA/R/6_Ratio_500_L_9_R_18.png","img/500/equaldotanddens/L/11_Ratio_500_L_12_R_6.png","img/900/equaldotsize/L/10_Ratio_900_L_20_R_18.png","img/900/equaldotanddens/L/10_Ratio_900_L_20_R_18.png","img/900/randomdotsizeEA/R/15_Ratio_900_L_9_R_10.png","img/900/randomdotsizeEA/R/13_Ratio_900_L_18_R_20.png","img/900/randomdotsizeEA/L/2_Ratio_900_L_20_R_18.png","img/500/randomdotsizeEA/R/9_Ratio_500_L_2_R_4.png","img/750/equaldotanddens/R/5_Ratio_750_L_15_R_20.png","img/250/randomdotsizeEA/L/14_Ratio_250_L_12_R_3.png","img/250/randomdotsizeEA/R/12_Ratio_250_L_5_R_20.png","img/750/equaldotsize/R/12_Ratio_750_L_3_R_4.png","img/750/equaldotanddens/R/2_Ratio_750_L_6_R_8.png","img/900/equaldotsize/L/2_Ratio_900_L_20_R_18.png","img/500/equaldotsize/L/10_Ratio_500_L_4_R_2.png","img/900/randomdotsizeEA/L/1_Ratio_900_L_10_R_9.png","img/250/equaldotsize/R/9_Ratio_250_L_3_R_12.png","img/900/equaldotsize/R/9_Ratio_900_L_18_R_20.png","img/250/equaldotanddens/L/1_Ratio_250_L_8_R_2.png","img/500/equaldotsize/R/1_Ratio_500_L_9_R_18.png","img/750/equaldotsize/L/1_Ratio_750_L_20_R_15.png","img/500/equaldotanddens/L/10_Ratio_500_L_4_R_2.png","img/250/equaldotanddens/L/7_Ratio_250_L_8_R_2.png","img/250/equaldotanddens/R/12_Ratio_250_L_5_R_20.png","img/500/randomdotsizeEA/R/6_Ratio_500_L_9_R_18.png","img/500/equaldotsize/R/14_Ratio_500_L_5_R_10.png","img/900/equaldotanddens/L/2_Ratio_900_L_20_R_18.png","img/750/randomdotsizeEA/L/8_Ratio_750_L_4_R_3.png","img/250/randomdotsizeEA/L/1_Ratio_250_L_8_R_2.png","img/500/equaldotanddens/R/2_Ratio_500_L_3_R_6.png","img/500/randomdotsizeEA/R/6_Ratio_500_L_9_R_18.png","img/900/equaldotsize/L/8_Ratio_900_L_20_R_18.png","img/750/randomdotsizeEA/L/8_Ratio_750_L_4_R_3.png"],"Rat0":[["12_Ratio_0_L_9_R_0.png","13_Ratio_0_L_6_R_0.png","5_Ratio_0_L_2_R_0.png","6_Ratio_0_L_4_R_0.png","8_Ratio_0_L_6_R_0.png"],["1_Ratio_0_L_0_R_17.png","10_Ratio_0_L_0_R_22.png","11_Ratio_0_L_0_R_1.png","14_Ratio_0_L_0_R_24.png","15_Ratio_0_L_0_R_4.png","2_Ratio_0_L_0_R_5.png","3_Ratio_0_L_0_R_17.png","4_Ratio_0_L_0_R_7.png","7_Ratio_0_L_0_R_19.png","9_Ratio_0_L_0_R_15.png"]],"Rat250":[["1_Ratio_250_L_8_R_2.png","14_Ratio_250_L_12_R_3.png","15_Ratio_250_L_12_R_3.png","2_Ratio_250_L_16_R_4.png","3_Ratio_250_L_8_R_2.png","5_Ratio_250_L_24_R_6.png","7_Ratio_250_L_8_R_2.png"],["10_Ratio_250_L_4_R_16.png","11_Ratio_250_L_3_R_12.png","12_Ratio_250_L_5_R_20.png","13_Ratio_250_L_2_R_8.png","4_Ratio_250_L_3_R_12.png","6_Ratio_250_L_6_R_24.png","8_Ratio_250_L_1_R_4.png","9_Ratio_250_L_3_R_12.png"]],"Rat500":[["10_Ratio_500_L_4_R_2.png","11_Ratio_500_L_12_R_6.png","13_Ratio_500_L_12_R_6.png","4_Ratio_500_L_18_R_9.png","5_Ratio_500_L_4_R_2.png","7_Ratio_500_L_10_R_5.png","8_Ratio_500_L_8_R_4.png"],["1_Ratio_500_L_9_R_18.png","12_Ratio_500_L_1_R_2.png","14_Ratio_500_L_5_R_10.png","15_Ratio_500_L_1_R_2.png","2_Ratio_500_L_3_R_6.png","3_Ratio_500_L_10_R_20.png","6_Ratio_500_L_9_R_18.png","9_Ratio_500_L_2_R_4.png"]],"Rat750":[["1_Ratio_750_L_20_R_15.png","10_Ratio_750_L_4_R_3.png","13_Ratio_750_L_8_R_6.png","14_Ratio_750_L_8_R_6.png","6_Ratio_750_L_24_R_18.png","8_Ratio_750_L_4_R_3.png","9_Ratio_750_L_4_R_3.png"],["11_Ratio_750_L_12_R_16.png","12_Ratio_750_L_3_R_4.png","15_Ratio_750_L_9_R_12.png","2_Ratio_750_L_6_R_8.png","3_Ratio_750_L_15_R_20.png","4_Ratio_750_L_15_R_20.png","5_Ratio_750_L_15_R_20.png","7_Ratio_750_L_3_R_4.png"]],"Rat900":[["1_Ratio_900_L_10_R_9.png","10_Ratio_900_L_20_R_18.png","2_Ratio_900_L_20_R_18.png","4_Ratio_900_L_20_R_18.png","8_Ratio_900_L_20_R_18.png"],["11_Ratio_900_L_18_R_20.png","12_Ratio_900_L_18_R_20.png","13_Ratio_900_L_18_R_20.png","14_Ratio_900_L_18_R_20.png","15_Ratio_900_L_9_R_10.png","3_Ratio_900_L_9_R_10.png","5_Ratio_900_L_9_R_10.png","6_Ratio_900_L_9_R_10.png","7_Ratio_900_L_9_R_10.png","9_Ratio_900_L_18_R_20.png"]],"Rat1000":[["10_Ratio_1000_L_16_R_16.png","11_Ratio_1000_L_6_R_6.png","12_Ratio_1000_L_14_R_14.png","13_Ratio_1000_L_20_R_20.png","15_Ratio_1000_L_15_R_15.png","2_Ratio_1000_L_17_R_17.png","4_Ratio_1000_L_9_R_9.png","5_Ratio_1000_L_6_R_6.png","6_Ratio_1000_L_19_R_19.png","8_Ratio_1000_L_14_R_14.png","9_Ratio_1000_L_25_R_25.png"],["1_Ratio_1000_L_1_R_1.png","14_Ratio_1000_L_17_R_17.png","3_Ratio_1000_L_17_R_17.png","7_Ratio_1000_L_6_R_6.png"]]}},{"start_time":1552313678241,"click_time":1552313679518,"finger_time":1552313679039,"fix_duration":881.6493528113444,"trial":1,"RT":798,"MT":479,"sideResp":1,"stimulus":"img/250/equaldotsize/L/1_Ratio_250_L_8_R_2.png","xmouse":[775,775,775,775,775,775,775,775,775,775,775,775,775,775,775,775,775,775,775,775,775,775,775,775,775,775,775,775,775,775,775,775,775,775,775,775,774,774,755,698,532,470,431,422,418,416,415,415,414,414,414,413,413,415,417,422,426,426,427,428,428,429,430,437],"ymouse":[621,621,621,621,621,621,621,621,621,621,621,621,621,621,621,621,621,621,621,621,621,621,621,621,621,621,621,621,621,621,621,621,621,621,621,621,621,620,598,546,425,370,320,296,280,261,259,258,257,254,231,214,183,163,149,126,115,111,108,106,104,102,100,93],"timestamp_mouse":[18,37,56,76,97,130,138,156,178,197,217,236,256,277,296,317,337,357,377,397,417,437,457,478,497,517,537,558,577,598,616,637,658,677,698,718,736,758,778,798,817,837,856,877,898,917,936,956,976,996,1017,1037,1056,1077,1098,1117,1138,1157,1178,1197,1218,1237,1256,1277],"xSR":741.5,"ySR":573.95,"xT1":424.9,"yT1":0,"xT2":1058.1,"yT2":0,"toosoon":0,"cond_shown":"equaldotsize","ratio_trial":250,"smaller_num":"2","larger_num":"8","correct_side":1,"subjID":"Emanuel   DuqueBELTRAN","gender":"0","age":"9","school":"4"},{"start_time":1552313681611,"click_time":1552313682899,"finger_time":1552313682657,"fix_duration":1050.2521989423788,"trial":2,"RT":1046,"MT":242,"sideResp":2,"stimulus":"img/500/randomdotsizeEA/L/13_Ratio_500_L_12_R_6.png","xmouse":[776,776,776,776,776,776,776,776,776,776,776,776,776,776,776,776,776,776,776,776,776,776,776,776,776,776,776,776,776,776,776,776,776,776,776,776,776,776,776,776,776,777,780,781,781,781,781,781,781,781,781,782,786,793,802,813,831,871,898,921,944,963,1010,1048,1074],"ymouse":[635,635,635,635,635,635,635,635,635,635,635,635,635,635,635,635,635,635,635,635,635,635,635,635,635,635,635,635,635,635,635,635,635,635,635,635,635,635,635,629,621,611,589,585,583,583,583,583,583,582,580,577,563,540,519,494,458,378,330,290,253,221,137,63,9],"timestamp_mouse":[10,28,48,66,87,107,128,148,168,187,207,227,246,267,288,307,327,348,366,386,408,428,446,466,488,507,528,548,568,588,606,627,648,668,687,708,727,747,768,787,808,827,847,866,887,908,927,946,966,986,1008,1027,1046,1068,1086,1107,1127,1147,1168,1188,1208,1228,1247,1267,1287],"xSR":741.5,"ySR":573.95,"xT1":424.9,"yT1":0,"xT2":1058.1,"yT2":0,"toosoon":0,"cond_shown":"randomdotsizeEA","ratio_trial":500,"smaller_num":"6","larger_num":"12","correct_side":1,"subjID":"Emanuel   DuqueBELTRAN","gender":"0","age":"9","school":"4"},{"start_time":1552313686393,"click_time":1552313687439,"finger_time":1552313687119,"fix_duration":1072.6353602655595,"trial":3,"RT":726,"MT":320,"sideResp":1,"stimulus":"img/250/equaldotanddens/L/7_Ratio_250_L_8_R_2.png","xmouse":[789,789,789,789,789,789,789,789,789,789,789,789,789,789,789,789,789,789,789,789,789,789,789,789,789,789,789,789,789,789,789,789,789,789,784,758,723,684,631,616,603,594,582,549,528,520,512,503,497,491,480,464,446],"ymouse":[629,629,629,629,629,629,629,629,629,629,629,629,629,629,629,629,629,629,629,629,629,629,629,629,629,629,629,629,629,629,629,629,629,629,625,614,599,577,535,516,493,469,444,394,364,347,332,305,287,264,223,149,53],"timestamp_mouse":[12,24,44,66,91,105,125,145,166,185,206,225,246,266,285,305,324,345,366,386,406,425,444,464,485,505,526,546,565,584,605,625,645,664,686,706,726,746,765,785,804,824,846,865,886,905,926,946,965,985,1004,1024,1045],"xSR":741.5,"ySR":573.95,"xT1":424.9,"yT1":0,"xT2":1058.1,"yT2":0,"toosoon":0,"cond_shown":"equaldotanddens","ratio_trial":250,"smaller_num":"2","larger_num":"8","correct_side":1,"subjID":"Emanuel   DuqueBELTRAN","gender":"0","age":"9","school":"4"},{"start_time":1552313689797,"click_time":1552313690919,"finger_time":1552313690478,"fix_duration":1296.380256036356,"trial":4,"RT":681,"MT":441,"sideResp":1,"stimulus":"img/900/randomdotsizeEA/R/5_Ratio_900_L_9_R_10.png","xmouse":[767,767,767,767,767,767,767,767,767,767,767,767,767,767,767,767,767,767,767,767,767,767,767,767,767,767,767,767,767,767,767,768,766,746,735,729,728,725,724,724,724,724,723,718,709,695,679,662,626,610,589,564,542,507,496,486,478],"ymouse":[626,626,626,626,626,626,626,626,626,626,626,626,626,626,626,626,626,626,626,626,626,626,626,626,626,626,626,626,626,626,626,626,622,604,590,582,578,575,574,574,574,574,574,564,553,536,516,497,450,427,399,361,317,199,148,106,76],"timestamp_mouse":[9,21,41,60,82,101,121,141,160,181,202,221,241,261,281,301,320,340,361,381,401,420,442,462,481,502,521,541,562,580,601,620,641,661,681,700,721,741,761,782,801,821,843,861,880,900,921,941,961,981,1001,1022,1041,1061,1081,1100,1122],"xSR":741.5,"ySR":573.95,"xT1":424.9,"yT1":0,"xT2":1058.1,"yT2":0,"toosoon":0,"cond_shown":"randomdotsizeEA","ratio_trial":900,"smaller_num":"9","larger_num":"10","correct_side":2,"subjID":"Emanuel   DuqueBELTRAN","gender":"0","age":"9","school":"4"},{"start_time":1552313692650,"click_time":1552313693658,"finger_time":1552313693519,"fix_duration":490.45215100580674,"trial":5,"RT":869,"MT":139,"sideResp":1,"stimulus":"img/250/equaldotanddens/L/2_Ratio_250_L_16_R_4.png","xmouse":[783,783,783,783,783,783,783,783,783,783,783,783,783,783,783,783,783,783,783,783,783,783,783,783,783,783,783,783,783,783,786,786,789,790,790,791,791,791,791,791,791,789,779,767,751,691,654,608,564,529,473],"ymouse":[637,637,637,637,637,637,637,637,637,637,637,637,637,637,637,637,637,637,637,637,637,637,637,637,637,637,637,637,637,634,628,627,622,622,621,620,620,620,620,620,620,607,586,563,529,420,361,291,223,160,52],"timestamp_mouse":[14,38,48,67,88,108,127,147,167,187,209,228,248,267,288,308,327,348,369,388,408,428,447,469,487,508,528,549,569,588,608,628,649,668,689,707,728,748,769,788,808,829,849,869,888,908,928,948,969,989,1008],"xSR":741.5,"ySR":573.95,"xT1":424.9,"yT1":0,"xT2":1058.1,"yT2":0,"toosoon":0,"cond_shown":"equaldotanddens","ratio_trial":250,"smaller_num":"4","larger_num":"16","correct_side":1,"subjID":"Emanuel   DuqueBELTRAN","gender":"0","age":"9","school":"4"},{"start_time":1552313695071,"click_time":1552313695999,"finger_time":1552313695838,"fix_duration":250,"trial":6,"RT":767,"MT":161,"sideResp":2,"stimulus":"img/900/equaldotsize/L/8_Ratio_900_L_20_R_18.png","xmouse":[774,774,774,774,774,774,774,774,774,774,774,774,774,774,774,774,774,774,774,774,774,774,774,774,774,774,774,774,774,774,774,774,774,774,774,775,782,795,822,905,954,1000,1047,1085,1108,1115,1121],"ymouse":[625,625,625,625,625,625,625,625,625,625,625,625,625,625,625,625,625,625,625,625,625,625,625,625,625,625,625,625,625,625,625,625,625,625,625,624,615,596,561,449,376,303,231,162,119,101,88],"timestamp_mouse":[9,27,46,67,87,107,127,146,166,200,207,226,246,267,288,307,326,348,367,387,408,426,446,468,487,506,528,546,568,588,606,627,648,667,687,706,726,747,767,787,808,827,847,867,887,906,928],"xSR":741.5,"ySR":573.95,"xT1":424.9,"yT1":0,"xT2":1058.1,"yT2":0,"toosoon":0,"cond_shown":"equaldotsize","ratio_trial":900,"smaller_num":"18","larger_num":"20","correct_side":1,"subjID":"Emanuel   DuqueBELTRAN","gender":"0","age":"9","school":"4"},{"start_time":1552313698466,"click_time":1552313699498,"finger_time":1552313699158,"fix_duration":1446.7623789669424,"trial":7,"RT":692,"MT":340,"sideResp":1,"stimulus":"img/500/equaldotsize/L/10_Ratio_500_L_4_R_2.png","xmouse":[805,805,805,805,805,805,805,805,805,805,805,805,805,805,805,805,805,805,805,805,805,805,805,805,805,805,805,805,805,805,805,805,805,805,798,785,765,742,718,673,645,626,613,601,575,560,542,522,502,487,487,485],"ymouse":[593,593,593,593,593,593,593,593,593,593,593,593,593,593,593,593,593,593,593,593,593,593,593,593,593,593,593,593,593,593,593,593,593,590,565,536,492,436,374,267,203,162,130,104,57,34,13,0,0,0,0,1],"timestamp_mouse":[14,31,51,71,92,112,132,153,172,193,213,231,253,272,293,313,332,352,372,392,413,432,451,473,492,513,533,553,573,592,613,632,652,672,692,713,732,752,772,791,812,832,852,871,892,913,933,953,971,992,1012,1031],"xSR":741.5,"ySR":573.95,"xT1":424.9,"yT1":0,"xT2":1058.1,"yT2":0,"toosoon":0,"cond_shown":"equaldotsize","ratio_trial":500,"smaller_num":"2","larger_num":"4","correct_side":1,"subjID":"Emanuel   DuqueBELTRAN","gender":"0","age":"9","school":"4"},{"start_time":1552313701474,"click_time":1552313702578,"finger_time":1552313702078,"fix_duration":1254.2095417104608,"trial":8,"RT":604,"MT":500,"sideResp":1,"stimulus":"img/250/equaldotsize/L/2_Ratio_250_L_16_R_4.png","xmouse":[789,789,789,789,789,789,789,789,789,789,789,789,789,789,789,789,789,789,789,789,789,789,789,789,789,789,789,789,789,787,778,764,742,724,703,698,689,685,682,681,679,676,669,657,628,608,591,577,568,553,549,548,546,544,526,509],"ymouse":[610,610,610,610,610,610,610,610,610,610,610,610,610,610,610,610,610,610,610,610,610,610,610,610,610,610,610,610,610,589,558,506,445,385,313,304,285,274,267,259,254,247,236,221,184,162,143,126,111,90,82,79,77,75,66,58],"timestamp_mouse":[9,33,44,65,84,104,123,145,163,183,204,224,245,263,284,303,323,345,364,384,405,423,444,465,483,503,524,545,563,584,604,623,645,663,683,705,725,744,764,783,804,824,843,863,884,904,924,944,964,984,1004,1024,1044,1064,1084,1104],"xSR":741.5,"ySR":573.95,"xT1":424.9,"yT1":0,"xT2":1058.1,"yT2":0,"toosoon":0,"cond_shown":"equaldotsize","ratio_trial":250,"smaller_num":"4","larger_num":"16","correct_side":1,"subjID":"Emanuel   DuqueBELTRAN","gender":"0","age":"9","school":"4"},{"start_time":1552313703906,"click_time":1552313705037,"finger_time":1552313704238,"fix_duration":707.8017612230664,"trial":9,"RT":332,"MT":799,"sideResp":2,"stimulus":"img/250/equaldotsize/R/6_Ratio_250_L_6_R_24.png","xmouse":[765,765,765,765,765,765,765,765,765,765,765,766,767,765,758,746,743,728,723,719,717,717,717,717,717,717,717,717,717,717,725,740,844,880,914,955,1029,1059,1077,1099,1107,1115,1126,1129,1131,1135,1136,1137,1138,1138,1138,1138,1138,1138,1136,1135,1134],"ymouse":[653,653,653,653,653,653,653,653,653,653,653,651,634,617,595,576,568,543,535,526,524,521,521,521,521,521,521,521,521,521,521,521,521,512,492,465,399,355,319,262,239,220,192,182,171,160,151,141,139,138,138,138,138,130,121,108,96],"timestamp_mouse":[14,32,59,72,93,112,132,152,173,191,211,232,253,273,293,313,332,351,372,391,411,431,453,473,493,512,533,553,571,592,613,633,653,672,692,712,733,752,772,792,813,833,851,873,893,912,933,952,972,991,1011,1032,1052,1072,1092,1113,1131],"xSR":741.5,"ySR":573.95,"xT1":424.9,"yT1":0,"xT2":1058.1,"yT2":0,"toosoon":0,"cond_shown":"equaldotsize","ratio_trial":250,"smaller_num":"6","larger_num":"24","correct_side":2,"subjID":"Emanuel   DuqueBELTRAN","gender":"0","age":"9","school":"4"},{"start_time":1552313708810,"click_time":1552313709918,"finger_time":1552313709537,"fix_duration":250,"trial":10,"RT":727,"MT":381,"sideResp":2,"stimulus":"img/750/equaldotsize/R/7_Ratio_750_L_3_R_4.png","xmouse":[801,801,801,801,801,801,801,801,801,801,801,801,801,801,801,801,801,801,801,801,801,801,801,801,801,801,801,801,801,801,801,801,807,818,825,834,843,862,870,881,890,912,922,932,946,956,967,997,1008,1019,1031,1043,1061,1072,1083,1086],"ymouse":[630,630,630,630,630,630,630,630,630,630,630,630,630,630,630,630,630,630,630,630,630,630,630,630,630,630,630,630,630,630,630,629,622,607,597,584,570,542,529,512,495,454,435,415,381,357,334,282,259,236,214,190,145,125,104,96],"timestamp_mouse":[9,42,49,68,89,108,128,149,167,189,209,227,249,269,288,308,329,349,369,389,407,428,449,468,487,507,528,549,569,588,608,628,648,669,689,709,727,747,769,788,809,829,848,867,888,908,929,948,969,988,1009,1028,1048,1068,1087,1108],"xSR":741.5,"ySR":573.95,"xT1":424.9,"yT1":0,"xT2":1058.1,"yT2":0,"toosoon":0,"cond_shown":"equaldotsize","ratio_trial":750,"smaller_num":"3","larger_num":"4","correct_side":2,"subjID":"Emanuel   DuqueBELTRAN","gender":"0","age":"9","school":"4"},{"start_time":1552313712773,"click_time":1552313713738,"finger_time":1552313713438,"fix_duration":614.3717143493003,"trial":11,"RT":665,"MT":300,"sideResp":1,"stimulus":"img/500/equaldotanddens/L/10_Ratio_500_L_4_R_2.png","xmouse":[810,809,808,808,808,808,808,808,808,808,808,808,808,808,808,808,808,808,808,808,808,808,808,808,808,808,808,808,808,808,808,808,808,808,797,779,753,741,730,719,717,714,709,681,651,616,568,540,500],"ymouse":[623,611,601,595,593,593,593,593,593,593,593,593,593,593,593,593,593,593,593,593,593,593,593,593,593,593,593,593,593,593,593,593,581,566,513,478,431,410,390,367,361,351,337,290,251,208,151,120,88],"timestamp_mouse":[10,24,44,65,85,106,125,146,165,186,205,225,246,266,286,305,326,345,366,385,405,426,445,464,485,506,525,544,564,584,604,624,644,665,685,706,725,744,764,785,805,826,845,866,884,905,925,944,965],"xSR":741.5,"ySR":573.95,"xT1":424.9,"yT1":0,"xT2":1058.1,"yT2":0,"toosoon":0,"cond_shown":"equaldotanddens","ratio_trial":500,"smaller_num":"2","larger_num":"4","correct_side":1,"subjID":"Emanuel   DuqueBELTRAN","gender":"0","age":"9","school":"4"},{"start_time":1552313716106,"click_time":1552313718258,"finger_time":1552313716899,"fix_duration":1167.2398538627913,"trial":12,"RT":793,"MT":1359,"sideResp":2,"stimulus":"img/250/randomdotsizeEA/R/10_Ratio_250_L_4_R_16.png","xmouse":[776,776,776,776,776,776,776,776,776,776,776,776,776,776,776,776,776,776,776,776,776,776,776,776,776,776,776,776,776,776,776,776,776,776,776,776,776,776,777,777,777,755,702,681,670,668,666,666,666,666,665,660,653,652,652,652,652,652,652,652,652,652,648,644,639,630,626,610,608,608,608,608,608,608,608,608,608,608,608,608,608,608,645,673,706,741,760,816,853,888,916,943,985,1003,1020,1044,1076,1103,1109,1109,1110,1110,1113,1115,1115,1116,1117,1118],"ymouse":[604,604,604,604,604,604,604,604,604,604,604,604,604,604,604,604,604,604,604,604,604,604,604,604,604,604,604,604,604,604,604,604,604,604,604,604,604,604,600,570,534,468,359,329,309,300,296,296,295,288,278,267,246,241,237,236,235,232,227,222,218,211,200,192,184,174,171,164,164,164,164,164,164,164,164,164,163,159,158,158,158,158,164,173,181,192,195,203,203,203,203,203,203,199,191,182,171,162,159,158,157,155,148,142,135,124,113,98],"timestamp_mouse":[13,37,63,73,93,112,132,151,172,193,211,231,252,273,293,312,332,352,371,393,413,432,452,472,491,512,533,552,572,593,613,631,653,672,692,713,732,751,772,793,812,833,852,872,891,912,932,952,972,991,1012,1033,1053,1072,1093,1112,1132,1151,1172,1191,1212,1233,1253,1273,1292,1312,1332,1351,1373,1392,1413,1432,1451,1472,1491,1512,1532,1552,1572,1593,1613,1633,1652,1672,1693,1712,1731,1751,1772,1792,1811,1833,1852,1872,1892,1913,1932,1951,1972,1993,2012,2032,2053,2073,2092,2113,2131,2152],"xSR":741.5,"ySR":573.95,"xT1":424.9,"yT1":0,"xT2":1058.1,"yT2":0,"toosoon":0,"cond_shown":"randomdotsizeEA","ratio_trial":250,"smaller_num":"4","larger_num":"16","correct_side":2,"subjID":"Emanuel   DuqueBELTRAN","gender":"0","age":"9","school":"4"},{"start_time":1552313721161,"click_time":1552313722478,"finger_time":1552313721937,"fix_duration":1401.8964623210634,"trial":13,"RT":776,"MT":541,"sideResp":2,"stimulus":"img/750/equaldotanddens/R/5_Ratio_750_L_15_R_20.png","xmouse":[787,787,787,787,787,787,787,787,787,787,787,787,787,787,787,787,787,787,787,787,787,787,787,787,787,787,787,787,787,787,787,787,787,787,787,787,788,792,802,825,839,857,877,893,941,950,973,984,993,1016,1026,1033,1036,1038,1038,1038,1038,1038,1038,1038,1038,1038,1038,1038,1045,1088],"ymouse":[585,585,585,585,585,585,585,585,585,585,585,585,585,585,585,585,585,585,585,585,585,585,585,585,585,585,585,585,585,585,585,585,585,585,585,585,585,579,559,505,466,418,360,328,221,201,148,121,99,57,41,29,22,21,21,21,21,21,21,21,21,21,21,21,20,20],"timestamp_mouse":[17,38,71,77,96,116,137,157,178,198,217,237,258,277,297,317,338,357,377,398,418,436,458,478,496,517,537,558,578,598,618,637,657,677,697,718,736,758,776,797,818,837,858,877,897,916,936,957,978,998,1017,1037,1058,1077,1098,1117,1137,1156,1178,1197,1217,1237,1256,1276,1296,1317],"xSR":741.5,"ySR":573.95,"xT1":424.9,"yT1":0,"xT2":1058.1,"yT2":0,"toosoon":0,"cond_shown":"equaldotanddens","ratio_trial":750,"smaller_num":"15","larger_num":"20","correct_side":2,"subjID":"Emanuel   DuqueBELTRAN","gender":"0","age":"9","school":"4"},{"start_time":1552313723969,"click_time":1552313726097,"finger_time":1552313724697,"fix_duration":789.805355539298,"trial":14,"RT":728,"MT":1400,"sideResp":2,"stimulus":"img/750/equaldotanddens/R/15_Ratio_750_L_9_R_12.png","xmouse":[762,762,762,762,762,762,762,762,762,762,762,762,762,762,762,762,762,762,762,762,762,762,762,762,762,762,762,762,762,762,762,762,765,769,787,791,807,818,833,854,869,882,899,912,941,954,969,980,998,1005,1011,1017,1021,1025,1032,1034,1035,1035,1035,1035,1035,1035,1035,1035,1035,1036,1037,1037,1037,1037,1037,1037,1037,1039,1039,1039,1039,1039,1039,1039,1039,1039,1039,1039,1039,1039,1039,1039,1039,1041,1042,1042,1043,1044,1044,1044,1044,1045,1045,1046,1048,1048,1049,1049,1051,1053,1060],"ymouse":[660,660,660,660,660,660,660,660,660,660,660,660,660,660,660,660,660,660,660,660,660,660,660,660,660,660,660,660,660,660,660,660,651,641,610,601,565,540,510,466,428,401,363,337,286,263,235,217,184,169,155,146,137,132,122,119,118,118,118,118,118,118,118,118,118,116,115,115,115,114,114,114,114,107,105,104,103,103,103,101,98,97,95,93,91,91,91,91,91,88,86,85,84,81,80,80,80,80,80,79,77,76,75,74,72,70,63],"timestamp_mouse":[14,36,50,69,90,109,129,150,168,189,210,229,249,270,290,309,328,349,368,389,408,428,450,468,489,510,528,549,569,589,608,629,649,669,689,709,728,750,769,789,810,829,848,868,888,909,928,949,970,989,1009,1029,1049,1069,1089,1109,1130,1148,1168,1189,1209,1229,1249,1270,1289,1309,1329,1349,1369,1390,1408,1429,1449,1470,1489,1510,1529,1549,1570,1589,1609,1628,1649,1669,1689,1709,1729,1748,1769,1788,1808,1828,1850,1870,1889,1909,1928,1948,1968,1990,2009,2029,2049,2069,2089,2108,2128],"xSR":741.5,"ySR":573.95,"xT1":424.9,"yT1":0,"xT2":1058.1,"yT2":0,"toosoon":0,"cond_shown":"equaldotanddens","ratio_trial":750,"smaller_num":"9","larger_num":"12","correct_side":2,"subjID":"Emanuel   DuqueBELTRAN","gender":"0","age":"9","school":"4"},{"start_time":1552313729089,"click_time":1552313731639,"finger_time":1552313729858,"fix_duration":250,"trial":15,"RT":769,"MT":1781,"sideResp":2,"stimulus":"img/900/randomdotsizeEA/R/9_Ratio_900_L_18_R_20.png","xmouse":[817,817,817,817,817,817,817,817,817,817,817,817,817,817,817,817,817,817,817,817,817,817,817,817,817,817,817,817,817,817,817,817,817,817,817,817,811,803,784,784,784,784,784,807,825,850,882,910,919,933,975,1001,1013,1007,1002,1001,1001,1001,1001,1001,1001,1001,1001,1001,1001,1001,1001,1001,1001,1001,1001,999,995,995,995,994,994,994,994,995,995,996,997,999,999,1000,1001,1004,1005,1009,1011,1011,1012,1019,1020,1020,1020,1020,1020,1020,1020,1020,1019,1019,1019,1019,1019,1019,1019,1019,1019,1019,1019,1019,1020,1026,1031,1031,1039,1051,1064,1076,1105,1115,1123,1128,1133,1142],"ymouse":[654,654,654,654,654,654,654,654,654,654,654,654,654,654,654,654,654,654,654,654,654,654,654,654,654,654,654,654,654,654,654,654,654,654,654,654,659,667,685,685,685,685,685,597,534,463,385,317,302,271,199,154,124,89,76,72,72,72,71,71,71,71,71,71,70,70,70,70,68,66,64,64,59,57,57,56,55,54,49,48,46,45,43,40,40,40,41,49,70,95,130,142,173,216,222,222,222,222,222,222,222,222,223,223,223,223,223,223,223,223,223,223,223,223,222,218,217,216,207,192,180,166,140,130,119,111,102,86],"timestamp_mouse":[10,39,49,70,88,108,130,150,168,188,210,229,250,269,290,310,330,348,368,390,409,430,448,469,490,509,530,549,569,590,610,629,650,670,689,709,728,750,769,790,810,829,849,869,890,908,929,950,968,988,1008,1030,1050,1070,1089,1110,1129,1149,1169,1188,1209,1229,1249,1269,1290,1309,1328,1348,1369,1388,1410,1429,1449,1468,1489,1510,1528,1548,1570,1588,1609,1629,1649,1668,1688,1709,1729,1749,1769,1789,1809,1829,1848,1869,1889,1909,1929,1950,1969,1988,2009,2028,2050,2068,2089,2109,2128,2148,2169,2190,2209,2228,2249,2270,2289,2309,2329,2349,2369,2389,2408,2429,2450,2469,2489,2510,2529,2550],"xSR":741.5,"ySR":573.95,"xT1":424.9,"yT1":0,"xT2":1058.1,"yT2":0,"toosoon":0,"cond_shown":"randomdotsizeEA","ratio_trial":900,"smaller_num":"18","larger_num":"20","correct_side":2,"subjID":"Emanuel   DuqueBELTRAN","gender":"0","age":"9","school":"4"},{"start_time":1552313734131,"click_time":1552313734919,"finger_time":1552313734718,"fix_duration":1490.9191186812584,"trial":16,"RT":587,"MT":201,"sideResp":2,"stimulus":"img/500/equaldotsize/R/14_Ratio_500_L_5_R_10.png","xmouse":[793,793,793,793,793,793,793,793,793,793,793,793,793,793,793,793,793,793,793,793,793,793,793,793,793,793,793,793,803,811,841,872,890,909,936,962,1010,1048,1069,1088],"ymouse":[595,595,595,595,595,595,595,595,595,595,595,595,595,595,595,595,595,595,595,595,595,595,595,595,595,595,595,595,582,572,535,496,470,436,384,329,219,148,111,77],"timestamp_mouse":[10,38,46,67,87,108,126,147,167,188,207,226,247,267,287,306,326,347,366,387,407,427,447,468,487,507,527,547,568,587,607,626,648,667,688,707,728,747,767,788],"xSR":741.5,"ySR":573.95,"xT1":424.9,"yT1":0,"xT2":1058.1,"yT2":0,"toosoon":0,"cond_shown":"equaldotsize","ratio_trial":500,"smaller_num":"5","larger_num":"10","correct_side":2,"subjID":"Emanuel   DuqueBELTRAN","gender":"0","age":"9","school":"4"},{"start_time":1552313737603,"click_time":1552313738759,"finger_time":1552313738340,"fix_duration":1420.384348867312,"trial":17,"RT":737,"MT":419,"sideResp":1,"stimulus":"img/900/equaldotanddens/L/8_Ratio_900_L_20_R_18.png","xmouse":[797,797,797,797,797,797,797,797,797,797,797,797,797,797,797,797,797,797,797,797,797,797,797,797,797,797,797,797,797,797,797,797,797,797,795,790,785,770,759,742,724,699,658,645,638,632,627,619,610,602,597,591,574,570,562,551,540,514],"ymouse":[631,631,631,631,631,631,631,631,631,631,631,631,631,631,631,631,631,631,631,631,631,631,631,631,631,631,631,631,631,631,631,631,631,623,605,578,545,454,393,331,273,217,145,122,109,100,91,70,56,43,37,27,10,8,6,4,4,6],"timestamp_mouse":[16,37,73,76,96,116,137,156,176,197,218,237,257,276,296,316,336,357,377,398,418,437,456,476,496,517,536,557,576,596,616,636,657,676,697,716,737,757,777,796,817,836,856,876,896,917,937,956,977,996,1016,1037,1056,1076,1096,1116,1137,1156],"xSR":741.5,"ySR":573.95,"xT1":424.9,"yT1":0,"xT2":1058.1,"yT2":0,"toosoon":0,"cond_shown":"equaldotanddens","ratio_trial":900,"smaller_num":"18","larger_num":"20","correct_side":1,"subjID":"Emanuel   DuqueBELTRAN","gender":"0","age":"9","school":"4"},{"start_time":1552313741370,"click_time":1552313742379,"finger_time":1552313741961,"fix_duration":250,"trial":18,"RT":591,"MT":418,"sideResp":2,"stimulus":"img/500/equaldotsize/R/3_Ratio_500_L_10_R_20.png","xmouse":[803,803,803,803,803,803,803,803,803,803,803,803,803,803,803,803,803,803,803,803,803,803,803,803,803,803,804,804,807,819,828,837,850,864,902,911,948,967,985,1007,1014,1016,1018,1018,1024,1031,1037,1045,1057,1068,1071],"ymouse":[613,613,613,613,613,613,613,613,613,613,613,613,613,613,613,613,613,613,613,613,613,613,613,613,613,613,611,608,597,556,528,493,456,409,279,253,169,116,68,0,0,0,0,0,0,0,0,0,0,0,1],"timestamp_mouse":[10,44,49,71,90,110,129,149,170,189,211,230,250,270,290,310,331,350,370,390,409,431,450,470,491,510,529,550,571,591,610,629,649,669,689,709,729,749,770,789,809,829,849,870,889,910,929,949,969,989,1009],"xSR":741.5,"ySR":573.95,"xT1":424.9,"yT1":0,"xT2":1058.1,"yT2":0,"toosoon":0,"cond_shown":"equaldotsize","ratio_trial":500,"smaller_num":"10","larger_num":"20","correct_side":2,"subjID":"Emanuel   DuqueBELTRAN","gender":"0","age":"9","school":"4"},{"start_time":1552313744608,"click_time":1552313745280,"finger_time":1552313745080,"fix_duration":1146.4162352610401,"trial":19,"RT":472,"MT":200,"sideResp":2,"stimulus":"img/250/equaldotsize/R/12_Ratio_250_L_5_R_20.png","xmouse":[802,802,802,802,802,802,802,802,802,802,802,802,802,802,802,802,802,802,802,802,802,805,818,840,857,877,896,952,979,1000,1024,1049,1088,1109],"ymouse":[606,606,606,606,606,606,606,606,606,606,606,606,606,606,606,606,606,606,606,606,606,603,586,555,528,498,462,362,314,270,225,183,112,67],"timestamp_mouse":[11,36,52,72,93,112,131,152,172,192,211,232,253,271,291,312,331,351,371,392,412,431,452,472,492,512,532,551,572,592,611,631,652,671],"xSR":741.5,"ySR":573.95,"xT1":424.9,"yT1":0,"xT2":1058.1,"yT2":0,"toosoon":0,"cond_shown":"equaldotsize","ratio_trial":250,"smaller_num":"5","larger_num":"20","correct_side":2,"subjID":"Emanuel   DuqueBELTRAN","gender":"0","age":"9","school":"4"},{"start_time":1552313747139,"click_time":1552313748159,"finger_time":1552313747939,"fix_duration":857.4742582764894,"trial":20,"RT":800,"MT":220,"sideResp":1,"stimulus":"img/900/randomdotsizeEA/R/11_Ratio_900_L_18_R_20.png","xmouse":[793,793,793,793,793,793,793,793,793,793,793,793,793,793,793,793,793,793,793,793,793,793,793,793,793,793,793,793,793,793,793,793,795,796,797,799,800,799,791,775,756,724,708,692,663,616,499,485,462,458,457,457],"ymouse":[645,645,645,645,645,645,645,645,645,645,645,645,645,645,645,645,645,645,645,645,645,645,645,645,645,645,645,645,645,645,645,644,640,636,631,625,614,604,592,579,567,538,516,488,440,376,229,210,165,144,124,88],"timestamp_mouse":[9,21,40,61,81,101,120,140,161,182,201,220,241,260,281,301,321,341,361,381,401,420,440,460,480,500,520,540,562,582,600,620,640,661,680,700,720,740,761,781,800,820,841,860,880,900,920,941,960,980,1001,1020],"xSR":741.5,"ySR":573.95,"xT1":424.9,"yT1":0,"xT2":1058.1,"yT2":0,"toosoon":0,"cond_shown":"randomdotsizeEA","ratio_trial":900,"smaller_num":"18","larger_num":"20","correct_side":2,"subjID":"Emanuel   DuqueBELTRAN","gender":"0","age":"9","school":"4"},{"start_time":1552313750320,"click_time":1552313751760,"finger_time":1552313751059,"fix_duration":879.467150132387,"trial":21,"RT":739,"MT":701,"sideResp":2,"stimulus":"img/900/equaldotsize/R/13_Ratio_900_L_18_R_20.png","xmouse":[821,821,821,821,821,821,821,821,821,821,821,821,821,821,821,821,821,821,821,821,821,821,821,821,821,821,821,821,821,821,821,822,827,830,834,839,851,864,873,881,898,908,916,926,936,948,976,987,999,1010,1017,1024,1024,1025,1027,1028,1031,1033,1035,1036,1037,1037,1037,1040,1042,1047,1053,1054,1055,1056,1056,1059],"ymouse":[622,622,622,622,622,622,622,622,622,622,622,622,622,622,622,622,622,622,622,622,622,622,622,622,622,622,622,622,622,622,622,621,608,601,591,579,550,520,501,483,442,420,399,377,357,330,263,238,213,192,180,167,165,163,159,158,151,146,141,138,138,138,136,131,126,117,107,106,102,100,98,86],"timestamp_mouse":[21,55,59,79,100,119,139,160,179,200,219,240,259,279,300,319,339,359,379,400,420,440,460,480,500,521,540,560,579,599,620,640,660,680,701,719,739,760,779,799,820,839,859,880,899,920,939,960,980,1000,1020,1039,1059,1079,1099,1119,1139,1159,1179,1199,1219,1240,1259,1279,1300,1320,1339,1359,1380,1400,1419,1440],"xSR":741.5,"ySR":573.95,"xT1":424.9,"yT1":0,"xT2":1058.1,"yT2":0,"toosoon":0,"cond_shown":"equaldotsize","ratio_trial":900,"smaller_num":"18","larger_num":"20","correct_side":2,"subjID":"Emanuel   DuqueBELTRAN","gender":"0","age":"9","school":"4"},{"start_time":1552313753706,"click_time":1552313756140,"finger_time":1552313755039,"fix_duration":763.9545543462247,"trial":22,"RT":1333,"MT":1101,"sideResp":2,"stimulus":"img/750/equaldotsize/R/5_Ratio_750_L_15_R_20.png","xmouse":[797,797,797,797,797,797,797,797,797,797,797,797,797,797,797,797,797,797,797,797,797,797,797,797,797,797,797,797,797,797,797,797,797,797,797,797,797,797,797,797,797,797,797,797,797,797,797,797,797,797,797,797,797,797,797,797,797,797,797,797,797,797,797,796,796,797,809,818,823,829,836,844,864,877,886,893,899,911,918,931,945,967,978,978,978,978,978,978,978,978,978,978,978,978,978,978,978,1002,1019,1023,1026,1027,1042,1048,1049,1049,1049,1049,1049,1049,1049,1049,1049,1049,1049,1049,1049,1049,1049,1049,1051,1065],"ymouse":[640,640,640,640,640,640,640,640,640,640,640,640,640,640,640,640,640,640,640,640,640,640,640,640,640,640,640,640,640,640,640,640,640,640,640,640,640,640,640,640,640,640,640,640,640,640,640,640,640,640,640,640,640,640,640,640,640,640,640,640,640,640,640,627,619,601,545,495,457,413,361,307,206,165,138,119,107,96,93,89,86,82,82,82,82,82,82,82,82,82,82,82,82,82,82,82,82,74,65,61,59,55,41,37,35,35,35,35,35,35,35,35,35,35,35,35,35,35,35,35,35,40],"timestamp_mouse":[13,46,54,73,94,114,135,154,174,193,214,233,255,274,294,313,334,353,374,393,415,433,453,473,493,513,534,554,574,594,613,634,654,673,694,714,733,755,773,794,814,834,854,873,893,914,933,953,974,994,1013,1034,1053,1074,1094,1113,1133,1155,1175,1193,1214,1233,1253,1274,1293,1313,1333,1353,1373,1393,1414,1434,1453,1473,1493,1514,1534,1553,1574,1593,1614,1634,1653,1674,1693,1714,1735,1753,1774,1793,1813,1835,1853,1874,1894,1914,1933,1953,1974,1993,2013,2033,2053,2073,2094,2113,2134,2153,2174,2194,2215,2234,2254,2274,2295,2315,2334,2354,2373,2395,2414,2434],"xSR":741.5,"ySR":573.95,"xT1":424.9,"yT1":0,"xT2":1058.1,"yT2":0,"toosoon":0,"cond_shown":"equaldotsize","ratio_trial":750,"smaller_num":"15","larger_num":"20","correct_side":2,"subjID":"Emanuel   DuqueBELTRAN","gender":"0","age":"9","school":"4"},{"start_time":1552313759464,"click_time":1552313760659,"finger_time":1552313759939,"fix_duration":1444.1817789349543,"trial":23,"RT":475,"MT":720,"sideResp":1,"stimulus":"img/750/equaldotanddens/L/10_Ratio_750_L_4_R_3.png","xmouse":[809,809,809,809,809,809,809,809,809,809,809,809,809,809,809,809,809,809,809,810,809,808,806,806,805,804,803,803,798,794,790,787,783,777,762,751,737,719,670,645,627,617,601,583,576,572,566,561,545,539,538,537,534,527,522,515,508,502,492,477],"ymouse":[591,591,591,591,591,590,590,590,590,590,590,590,590,590,590,590,590,590,590,588,583,577,574,573,569,567,565,563,556,550,542,535,525,512,483,467,450,432,385,363,344,328,301,265,252,241,232,224,204,193,190,179,169,150,140,129,118,112,106,99],"timestamp_mouse":[15,37,57,75,95,115,136,157,176,196,215,236,255,277,296,316,335,356,375,395,415,436,456,475,496,516,536,555,576,596,616,635,656,675,696,715,736,756,777,795,815,835,856,877,895,916,935,955,977,995,1016,1037,1056,1077,1095,1115,1135,1155,1175,1195],"xSR":741.5,"ySR":573.95,"xT1":424.9,"yT1":0,"xT2":1058.1,"yT2":0,"toosoon":0,"cond_shown":"equaldotanddens","ratio_trial":750,"smaller_num":"3","larger_num":"4","correct_side":1,"subjID":"Emanuel   DuqueBELTRAN","gender":"0","age":"9","school":"4"},{"start_time":1552313762588,"click_time":1552313763619,"finger_time":1552313763299,"fix_duration":667.2781747575158,"trial":24,"RT":711,"MT":320,"sideResp":1,"stimulus":"img/900/equaldotanddens/L/8_Ratio_900_L_20_R_18.png","xmouse":[807,807,807,807,807,807,807,807,807,807,807,807,807,807,807,807,807,807,807,807,807,807,807,807,807,807,807,807,807,807,807,807,807,800,795,774,754,723,678,668,654,645,637,622,617,611,605,585,570,554,537,515],"ymouse":[604,604,604,604,604,604,604,604,604,604,604,604,604,604,604,604,604,604,604,604,604,604,604,604,604,604,604,604,604,604,604,604,604,591,583,560,539,512,470,451,429,407,389,340,320,299,274,211,173,136,98,58],"timestamp_mouse":[13,35,53,72,91,112,132,152,171,193,212,232,252,272,291,312,331,352,371,391,412,433,452,472,493,512,532,552,571,591,611,631,651,671,691,711,732,752,771,793,811,831,851,871,892,911,932,953,972,992,1012,1031],"xSR":741.5,"ySR":573.95,"xT1":424.9,"yT1":0,"xT2":1058.1,"yT2":0,"toosoon":0,"cond_shown":"equaldotanddens","ratio_trial":900,"smaller_num":"18","larger_num":"20","correct_side":1,"subjID":"Emanuel   DuqueBELTRAN","gender":"0","age":"9","school":"4"},{"start_time":1552313766314,"click_time":1552313767421,"finger_time":1552313766700,"fix_duration":1313.5883340492371,"trial":25,"RT":386,"MT":721,"sideResp":1,"stimulus":"img/500/equaldotanddens/L/13_Ratio_500_L_12_R_6.png","xmouse":[781,781,781,781,781,781,781,781,781,781,781,781,781,781,781,781,781,780,779,776,773,769,759,754,745,736,706,692,680,662,648,648,618,605,595,591,590,590,590,590,585,567,533,523,519,519,519,519,519,519,519,519,519,517,516,513],"ymouse":[630,630,630,630,630,630,630,630,630,630,630,630,630,630,630,623,616,593,579,555,536,516,468,444,421,393,335,309,285,249,225,225,179,162,150,144,144,144,144,144,143,138,125,119,117,117,117,117,117,117,115,114,110,105,102,95],"timestamp_mouse":[11,26,45,65,85,105,126,146,165,185,206,226,245,267,285,305,326,345,365,386,406,426,447,465,485,505,527,545,565,585,606,626,646,666,685,705,725,745,767,786,806,825,845,866,886,906,925,945,967,986,1005,1026,1046,1066,1087,1107],"xSR":741.5,"ySR":573.95,"xT1":424.9,"yT1":0,"xT2":1058.1,"yT2":0,"toosoon":0,"cond_shown":"equaldotanddens","ratio_trial":500,"smaller_num":"6","larger_num":"12","correct_side":1,"subjID":"Emanuel   DuqueBELTRAN","gender":"0","age":"9","school":"4"},{"start_time":1552313768957,"click_time":1552313770459,"finger_time":1552313770041,"fix_duration":295.68075648538195,"trial":26,"RT":1084,"MT":418,"sideResp":1,"stimulus":"img/250/randomdotsizeEA/L/15_Ratio_250_L_12_R_3.png","xmouse":[807,807,807,807,807,807,806,806,806,806,806,806,806,806,806,806,806,806,806,806,806,806,806,806,806,806,806,806,806,806,806,806,806,806,806,806,806,806,806,806,806,806,806,806,806,806,806,806,808,815,816,818,819,820,822,822,822,821,816,813,775,743,717,697,634,607,602,591,580,573,559,553,543,531,520,494],"ymouse":[671,669,665,665,647,642,637,636,636,636,636,636,636,636,636,636,636,636,636,636,636,636,636,635,635,635,635,635,635,635,635,635,635,635,635,635,635,635,635,635,635,635,635,635,635,634,634,630,620,600,594,589,585,582,572,567,561,553,540,534,489,452,422,392,281,234,228,208,191,178,153,142,130,116,103,78],"timestamp_mouse":[10,22,50,62,84,104,123,142,164,182,202,223,244,263,282,302,322,342,362,383,403,424,443,462,483,504,523,543,562,583,602,623,642,662,683,702,722,742,762,782,803,822,843,862,884,903,922,943,962,984,1002,1023,1042,1062,1084,1103,1122,1142,1163,1183,1203,1222,1242,1262,1283,1302,1323,1342,1362,1383,1403,1423,1442,1462,1483,1502],"xSR":741.5,"ySR":573.95,"xT1":424.9,"yT1":0,"xT2":1058.1,"yT2":0,"toosoon":0,"cond_shown":"randomdotsizeEA","ratio_trial":250,"smaller_num":"3","larger_num":"12","correct_side":1,"subjID":"Emanuel   DuqueBELTRAN","gender":"0","age":"9","school":"4"},{"start_time":1552313772446,"click_time":1552313773841,"finger_time":1552313773140,"fix_duration":924.6261675691037,"trial":27,"RT":694,"MT":701,"sideResp":1,"stimulus":"img/900/equaldotsize/L/1_Ratio_900_L_10_R_9.png","xmouse":[791,791,791,791,791,791,791,791,791,791,791,791,791,791,791,791,791,791,791,791,791,791,791,791,791,791,791,791,791,791,791,791,788,776,737,714,683,670,650,600,534,525,517,516,515,514,514,514,513,513,513,517,517,517,517,517,517,517,517,517,517,515,514,513,512,512,512,511,510,509],"ymouse":[640,640,640,640,640,640,640,640,640,640,640,640,640,640,640,640,640,640,640,640,640,641,641,641,641,641,641,641,641,641,641,641,639,626,589,568,543,532,512,464,406,396,372,366,357,339,331,320,308,303,268,232,208,187,161,153,148,146,145,142,134,128,125,123,120,119,118,113,106,89],"timestamp_mouse":[16,40,54,74,93,114,133,154,173,195,213,234,253,273,293,315,334,354,375,393,414,434,454,475,494,513,533,555,574,594,613,635,653,673,694,713,735,754,775,794,813,834,854,874,894,913,934,953,973,993,1013,1035,1053,1074,1095,1113,1134,1153,1173,1194,1213,1233,1254,1274,1295,1314,1333,1353,1373,1394],"xSR":741.5,"ySR":573.95,"xT1":424.9,"yT1":0,"xT2":1058.1,"yT2":0,"toosoon":0,"cond_shown":"equaldotsize","ratio_trial":900,"smaller_num":"9","larger_num":"10","correct_side":1,"subjID":"Emanuel   DuqueBELTRAN","gender":"0","age":"9","school":"4"},{"start_time":1552313777031,"click_time":1552313778279,"finger_time":1552313777719,"fix_duration":250,"trial":28,"RT":688,"MT":560,"sideResp":1,"stimulus":"img/500/equaldotsize/L/7_Ratio_500_L_10_R_5.png","xmouse":[827,827,827,827,827,827,827,827,827,827,825,807,791,761,750,748,748,748,748,748,748,748,748,748,748,748,748,748,748,748,748,748,748,747,737,720,671,627,582,538,519,458,411,396,386,379,379,379,379,379,381,381,381,381,381,381,381,381,381,381,393,424,425],"ymouse":[622,622,622,622,622,622,622,622,622,622,622,617,611,602,599,598,598,598,598,598,598,598,598,598,598,598,598,598,598,598,598,598,598,598,580,555,475,414,351,293,266,174,108,82,62,36,28,22,16,13,11,11,11,11,11,11,11,11,11,11,11,18,19],"timestamp_mouse":[10,39,49,70,89,108,128,149,169,189,209,229,249,269,289,310,330,348,369,388,409,428,448,469,489,509,530,548,569,588,609,629,648,668,688,708,729,748,769,788,809,828,849,868,889,910,928,949,968,988,1008,1028,1049,1068,1089,1109,1128,1148,1169,1189,1208,1228,1248],"xSR":741.5,"ySR":573.95,"xT1":424.9,"yT1":0,"xT2":1058.1,"yT2":0,"toosoon":0,"cond_shown":"equaldotsize","ratio_trial":500,"smaller_num":"5","larger_num":"10","correct_side":1,"subjID":"Emanuel   DuqueBELTRAN","gender":"0","age":"9","school":"4"},{"start_time":1552313779945,"click_time":1552313781019,"finger_time":1552313780659,"fix_duration":443.4125570008822,"trial":29,"RT":714,"MT":360,"sideResp":1,"stimulus":"img/750/equaldotsize/L/6_Ratio_750_L_24_R_18.png","xmouse":[782,782,782,782,782,782,782,782,782,782,782,782,782,782,782,782,782,782,782,782,782,782,782,782,782,782,782,782,782,782,782,782,782,782,782,756,731,705,680,659,626,615,607,598,591,577,573,568,564,556,539,527,513,498],"ymouse":[618,618,618,618,618,618,618,618,618,618,618,618,618,618,618,618,618,618,618,618,618,618,618,618,618,618,618,618,618,618,618,618,618,613,599,532,490,452,414,375,312,287,268,250,234,204,194,183,174,161,140,127,109,94],"timestamp_mouse":[15,38,54,75,95,116,134,154,175,194,214,235,255,275,295,315,334,355,376,394,415,434,455,476,495,515,534,554,574,594,615,634,655,675,694,714,734,755,775,795,814,835,854,875,896,914,936,955,974,995,1014,1035,1054,1074],"xSR":741.5,"ySR":573.95,"xT1":424.9,"yT1":0,"xT2":1058.1,"yT2":0,"toosoon":0,"cond_shown":"equaldotsize","ratio_trial":750,"smaller_num":"18","larger_num":"24","correct_side":1,"subjID":"Emanuel   DuqueBELTRAN","gender":"0","age":"9","school":"4"},{"start_time":1552313783423,"click_time":1552313784939,"finger_time":1552313784300,"fix_duration":981.1816998652516,"trial":30,"RT":877,"MT":639,"sideResp":2,"stimulus":"img/500/randomdotsizeEA/R/12_Ratio_500_L_1_R_2.png","xmouse":[796,796,795,795,795,795,795,795,795,795,795,795,795,795,795,795,795,795,795,793,791,780,774,770,765,755,750,747,745,745,745,745,745,745,745,744,744,744,744,744,744,744,744,744,755,777,795,816,836,858,892,970,1017,1039,1054,1064,1080,1085,1088,1089,1089,1089,1089,1089,1089,1089,1089,1089,1089,1089,1089,1089,1089,1089,1089,1090],"ymouse":[637,637,637,637,637,637,637,637,637,637,637,637,637,637,637,637,637,637,637,635,632,617,610,605,599,588,583,580,578,578,578,578,578,578,577,576,576,576,576,576,576,576,576,571,553,514,481,440,392,343,274,138,58,17,0,0,0,0,0,0,0,0,0,0,0,0,0,0,0,0,0,0,0,0,0,3],"timestamp_mouse":[17,37,57,77,96,116,137,157,176,196,217,237,257,277,297,317,338,357,377,397,418,437,457,477,496,518,537,556,578,597,617,637,657,676,697,717,736,756,777,796,817,837,857,877,896,917,936,957,977,997,1016,1036,1056,1076,1097,1116,1138,1156,1177,1197,1216,1236,1257,1276,1297,1318,1336,1357,1377,1397,1416,1437,1456,1477,1496,1516],"xSR":741.5,"ySR":573.95,"xT1":424.9,"yT1":0,"xT2":1058.1,"yT2":0,"toosoon":0,"cond_shown":"randomdotsizeEA","ratio_trial":500,"smaller_num":"1","larger_num":"2","correct_side":2,"subjID":"Emanuel   DuqueBELTRAN","gender":"0","age":"9","school":"4"},{"start_time":1552313786557,"click_time":1552313787899,"finger_time":1552313787339,"fix_duration":315.3424586893117,"trial":31,"RT":782,"MT":560,"sideResp":2,"stimulus":"img/250/randomdotsizeEA/R/6_Ratio_250_L_6_R_24.png","xmouse":[826,826,826,826,826,826,826,826,826,826,826,826,826,826,826,826,826,826,826,826,826,826,826,826,826,826,826,826,826,826,826,826,826,826,826,826,826,826,831,854,898,909,927,940,948,970,978,980,981,981,981,981,981,981,981,981,981,981,981,981,981,981,981,981,986,1014,1051,1061],"ymouse":[618,618,618,618,618,618,618,618,618,618,618,618,618,618,618,618,618,618,618,618,618,618,618,618,618,618,618,618,618,618,618,618,618,618,618,618,618,616,594,537,413,367,300,233,184,80,50,43,42,41,41,41,41,41,41,41,41,41,41,41,41,41,41,41,40,40,40,40],"timestamp_mouse":[10,24,45,62,83,102,122,143,163,182,202,223,242,263,283,302,322,343,363,383,404,424,442,463,482,503,522,542,562,582,603,623,643,662,682,703,722,743,763,782,802,823,842,862,882,902,922,942,962,983,1002,1022,1044,1063,1082,1103,1122,1142,1163,1183,1202,1222,1242,1263,1284,1302,1322,1342],"xSR":741.5,"ySR":573.95,"xT1":424.9,"yT1":0,"xT2":1058.1,"yT2":0,"toosoon":0,"cond_shown":"randomdotsizeEA","ratio_trial":250,"smaller_num":"6","larger_num":"24","correct_side":2,"subjID":"Emanuel   DuqueBELTRAN","gender":"0","age":"9","school":"4"},{"start_time":1552313791822,"click_time":1552313793079,"finger_time":1552313792580,"fix_duration":820.1741157288678,"trial":32,"RT":758,"MT":499,"sideResp":1,"stimulus":"img/250/equaldotsize/L/3_Ratio_250_L_8_R_2.png","xmouse":[760,760,760,760,760,760,760,760,760,760,760,760,760,760,760,760,760,760,760,760,760,760,760,760,760,760,760,760,760,760,760,760,760,760,760,758,751,742,736,733,732,729,725,718,702,673,567,544,528,516,501,483,478,477,477,477,477,477,479,481,484,487,490],"ymouse":[638,638,638,638,638,638,638,638,638,638,638,638,638,638,638,638,638,638,638,638,638,638,638,638,638,638,638,638,638,638,638,638,638,638,638,611,580,550,526,514,509,499,487,474,452,422,342,323,305,288,265,232,222,216,214,213,202,193,179,161,144,110,98],"timestamp_mouse":[18,38,58,78,97,119,138,158,178,197,217,237,258,279,299,318,338,357,379,398,418,439,457,478,498,518,538,558,577,597,617,638,657,677,698,718,737,758,778,799,818,837,858,877,898,918,937,957,977,997,1017,1037,1057,1078,1097,1118,1138,1159,1178,1199,1217,1243,1257],"xSR":741.5,"ySR":573.95,"xT1":424.9,"yT1":0,"xT2":1058.1,"yT2":0,"toosoon":0,"cond_shown":"equaldotsize","ratio_trial":250,"smaller_num":"2","larger_num":"8","correct_side":1,"subjID":"Emanuel   DuqueBELTRAN","gender":"0","age":"9","school":"4"},{"start_time":1552313797289,"click_time":1552313798201,"finger_time":1552313797860,"fix_duration":408.42926195722293,"trial":33,"RT":571,"MT":341,"sideResp":2,"stimulus":"img/250/equaldotanddens/R/10_Ratio_250_L_4_R_16.png","xmouse":[807,807,807,807,807,807,807,807,807,807,807,807,807,807,807,807,807,807,804,804,804,804,804,804,804,804,804,806,817,824,836,853,872,900,910,920,932,944,963,971,985,997,1015,1053,1075,1098],"ymouse":[606,606,606,606,606,606,606,606,606,606,606,606,606,606,606,606,606,606,605,605,605,605,605,605,604,603,599,594,569,551,525,489,458,404,379,355,328,310,277,261,237,218,199,152,122,93],"timestamp_mouse":[11,38,51,71,91,111,130,151,170,191,211,232,251,270,292,311,332,351,371,391,412,433,452,471,491,512,532,552,571,592,613,632,651,671,692,711,731,751,771,791,811,831,852,871,892,912],"xSR":741.5,"ySR":573.95,"xT1":424.9,"yT1":0,"xT2":1058.1,"yT2":0,"toosoon":0,"cond_shown":"equaldotanddens","ratio_trial":250,"smaller_num":"4","larger_num":"16","correct_side":2,"subjID":"Emanuel   DuqueBELTRAN","gender":"0","age":"9","school":"4"},{"start_time":1552313799842,"click_time":1552313800900,"finger_time":1552313800440,"fix_duration":458.8697255457099,"trial":34,"RT":598,"MT":460,"sideResp":2,"stimulus":"img/250/equaldotsize/R/6_Ratio_250_L_6_R_24.png","xmouse":[781,781,781,781,781,781,781,781,781,781,781,781,781,781,781,781,781,781,781,781,781,781,781,781,781,781,781,787,797,807,820,871,890,906,916,921,931,946,963,980,991,999,1005,1009,1014,1019,1025,1025,1025,1029,1041,1049,1056,1061],"ymouse":[643,643,643,643,643,643,643,643,643,643,643,643,643,643,643,643,643,643,643,643,643,643,643,643,643,643,641,629,613,593,561,444,403,365,341,326,299,278,259,243,224,192,170,163,159,157,155,153,149,135,96,84,74,62],"timestamp_mouse":[1,18,39,59,78,98,118,138,158,178,199,218,238,258,279,298,319,338,358,379,400,419,439,458,479,498,519,539,558,579,598,618,638,659,679,699,718,739,758,778,799,818,838,858,878,899,918,938,958,978,1000,1018,1039,1058],"xSR":741.5,"ySR":573.95,"xT1":424.9,"yT1":0,"xT2":1058.1,"yT2":0,"toosoon":0,"cond_shown":"equaldotsize","ratio_trial":250,"smaller_num":"6","larger_num":"24","correct_side":2,"subjID":"Emanuel   DuqueBELTRAN","gender":"0","age":"9","school":"4"},{"start_time":1552313803199,"click_time":1552313804642,"finger_time":1552313803780,"fix_duration":317.2241880876222,"trial":35,"RT":581,"MT":862,"sideResp":2,"stimulus":"img/250/equaldotanddens/R/13_Ratio_250_L_2_R_8.png","xmouse":[777,777,777,777,777,777,777,777,777,777,777,777,777,777,777,777,777,777,777,777,777,777,777,777,777,779,788,801,835,852,873,896,936,951,961,968,969,970,970,971,973,976,978,980,981,981,981,981,981,981,981,984,991,1018,1027,1029,1030,1030,1031,1033,1034,1035,1038,1045,1046,1046,1046,1046,1048,1049,1051,1054,1065],"ymouse":[650,650,650,650,650,650,650,650,650,650,650,650,650,650,650,650,650,650,650,650,650,650,650,650,650,650,636,621,581,553,516,469,377,333,287,236,215,203,189,183,174,164,151,126,125,125,125,125,125,125,125,122,118,103,98,97,96,96,93,92,89,88,83,73,71,71,71,70,68,66,64,62,53],"timestamp_mouse":[11,21,42,62,81,102,121,142,161,181,201,222,242,262,281,301,322,343,361,381,401,421,441,462,481,501,522,541,561,581,602,621,643,661,682,701,721,742,761,781,801,821,841,861,882,901,922,943,963,981,1001,1021,1041,1062,1081,1102,1122,1142,1161,1181,1201,1222,1241,1261,1281,1301,1322,1341,1362,1381,1401,1422,1442],"xSR":741.5,"ySR":573.95,"xT1":424.9,"yT1":0,"xT2":1058.1,"yT2":0,"toosoon":0,"cond_shown":"equaldotanddens","ratio_trial":250,"smaller_num":"2","larger_num":"8","correct_side":2,"subjID":"Emanuel   DuqueBELTRAN","gender":"0","age":"9","school":"4"},{"start_time":1552313808374,"click_time":1552313809421,"finger_time":1552313809060,"fix_duration":791.7309004053728,"trial":36,"RT":686,"MT":361,"sideResp":1,"stimulus":"img/900/equaldotanddens/L/2_Ratio_900_L_20_R_18.png","xmouse":[814,814,814,814,814,814,814,814,814,814,814,814,814,814,814,814,814,814,814,814,814,814,814,814,814,814,813,812,811,810,810,809,808,806,793,771,749,716,684,634,621,610,598,581,518,492,475,472,471,469,467,463,459],"ymouse":[654,654,654,654,654,654,654,654,654,654,654,654,654,654,654,654,654,654,654,654,654,654,654,654,653,648,643,638,632,622,617,611,605,595,564,532,508,480,451,407,388,372,351,318,224,188,163,154,149,132,118,104,95],"timestamp_mouse":[16,29,46,67,86,106,126,146,166,186,208,226,247,266,286,306,326,346,368,386,406,427,448,467,487,506,526,546,566,587,607,627,646,667,686,706,726,746,767,786,807,826,848,867,886,906,927,947,966,987,1006,1026,1047],"xSR":741.5,"ySR":573.95,"xT1":424.9,"yT1":0,"xT2":1058.1,"yT2":0,"toosoon":0,"cond_shown":"equaldotanddens","ratio_trial":900,"smaller_num":"18","larger_num":"20","correct_side":1,"subjID":"Emanuel   DuqueBELTRAN","gender":"0","age":"9","school":"4"},{"start_time":1552313812317,"click_time":1552313813660,"finger_time":1552313812961,"fix_duration":1494.2764935942325,"trial":37,"RT":644,"MT":699,"sideResp":1,"stimulus":"img/500/randomdotsizeEA/L/8_Ratio_500_L_8_R_4.png","xmouse":[796,796,796,796,796,796,796,796,796,796,796,796,796,796,796,796,796,796,796,796,796,796,797,801,803,804,806,810,814,817,819,824,826,829,834,836,839,839,833,825,813,800,785,778,763,725,677,530,420,347,282,237,213,209,209,209,225,236,256,265,297,317,347,359,370,385,413,427],"ymouse":[654,654,654,654,654,654,654,654,654,654,654,654,654,654,654,654,654,654,654,654,654,654,654,649,646,641,638,629,619,613,607,579,562,538,513,489,461,412,377,355,335,319,305,301,297,288,276,244,215,196,177,162,149,147,143,132,101,85,62,52,34,26,18,17,17,17,17,18],"timestamp_mouse":[12,23,43,63,83,103,123,143,163,183,203,224,243,263,283,304,323,343,364,383,403,424,443,463,484,504,523,543,564,584,603,624,644,664,684,703,723,743,763,783,803,823,844,863,884,904,923,943,963,985,1003,1023,1044,1063,1084,1104,1125,1143,1163,1183,1204,1223,1243,1263,1283,1304,1324,1343],"xSR":741.5,"ySR":573.95,"xT1":424.9,"yT1":0,"xT2":1058.1,"yT2":0,"toosoon":0,"cond_shown":"randomdotsizeEA","ratio_trial":500,"smaller_num":"4","larger_num":"8","correct_side":1,"subjID":"Emanuel   DuqueBELTRAN","gender":"0","age":"9","school":"4"},{"start_time":1552313816286,"click_time":1552313817881,"finger_time":1552313816302,"fix_duration":1364.8636161525314,"trial":38,"RT":16,"MT":1579,"sideResp":1,"stimulus":"img/900/equaldotanddens/L/4_Ratio_900_L_20_R_18.png","xmouse":[701,673,652,648,648,648,648,648,648,648,648,648,648,648,648,648,648,660,664,666,666,668,679,742,820,893,931,940,940,940,940,940,940,940,940,940,940,937,891,859,849,847,847,847,845,844,840,838,834,830,827,822,805,788,767,751,743,734,724,709,687,670,637,622,606,593,579,559,533,518,515,515,511,508,503,498,495,488,472,466],"ymouse":[655,656,656,656,656,656,656,656,656,656,656,656,656,656,656,656,656,656,656,656,656,656,655,644,637,628,625,623,623,623,623,623,623,623,623,623,623,623,616,611,609,609,609,609,608,607,606,605,604,603,602,600,590,575,553,531,517,486,464,434,398,376,342,329,318,304,290,267,233,216,210,210,201,189,176,164,156,144,101,78],"timestamp_mouse":[16,34,55,74,95,114,134,155,175,194,215,234,254,274,294,315,335,354,375,395,414,435,455,474,494,514,535,555,575,595,616,634,655,674,695,715,734,755,774,794,815,834,855,875,894,915,935,954,974,996,1015,1035,1054,1074,1094,1114,1135,1156,1174,1195,1214,1234,1255,1274,1295,1314,1334,1354,1374,1395,1415,1434,1455,1474,1494,1515,1535,1554,1575,1595],"xSR":741.5,"ySR":573.95,"xT1":424.9,"yT1":0,"xT2":1058.1,"yT2":0,"toosoon":0,"cond_shown":"equaldotanddens","ratio_trial":900,"smaller_num":"18","larger_num":"20","correct_side":1,"subjID":"Emanuel   DuqueBELTRAN","gender":"0","age":"9","school":"4"},{"start_time":1552313819056,"click_time":1552313820981,"finger_time":1552313819701,"fix_duration":295.4342627242109,"trial":39,"RT":645,"MT":1280,"sideResp":1,"stimulus":"img/750/randomdotsizeEA/L/6_Ratio_750_L_24_R_18.png","xmouse":[802,802,802,802,802,802,802,802,802,802,802,802,802,802,802,802,802,802,802,802,802,802,802,802,802,802,802,802,803,804,811,814,815,815,815,815,814,814,814,814,807,799,763,704,649,509,485,477,475,474,471,469,469,468,468,468,469,470,470,470,470,470,470,470,471,482,499,514,525,535,546,548,548,548,548,548,548,548,548,546,541,539,538,538,538,538,538,538,538,538,538,538,538,538,537,531,521],"ymouse":[651,651,651,651,651,651,651,651,651,651,651,651,651,651,651,651,651,651,651,651,651,651,651,651,651,651,651,651,649,637,605,574,554,536,514,508,505,503,502,500,488,479,460,436,419,360,347,341,336,331,321,316,312,310,306,300,293,288,285,280,275,269,264,257,246,198,159,113,59,2,0,0,0,0,0,0,0,0,0,3,24,30,33,34,34,34,34,34,34,34,34,34,34,34,36,40,47],"timestamp_mouse":[11,24,45,65,84,105,124,145,164,184,204,224,245,264,285,304,326,344,365,385,404,424,445,464,484,504,524,544,565,584,605,625,645,664,686,704,724,744,764,784,805,824,845,864,884,904,924,944,964,985,1006,1025,1044,1064,1085,1104,1124,1144,1165,1184,1206,1225,1244,1264,1284,1304,1324,1345,1364,1385,1404,1424,1444,1464,1484,1505,1525,1545,1564,1584,1604,1624,1644,1664,1685,1704,1725,1745,1764,1784,1805,1825,1845,1865,1884,1904,1925],"xSR":741.5,"ySR":573.95,"xT1":424.9,"yT1":0,"xT2":1058.1,"yT2":0,"toosoon":0,"cond_shown":"randomdotsizeEA","ratio_trial":750,"smaller_num":"18","larger_num":"24","correct_side":1,"subjID":"Emanuel   DuqueBELTRAN","gender":"0","age":"9","school":"4"},{"start_time":1552313822751,"click_time":1552313825200,"finger_time":1552313823521,"fix_duration":250,"trial":40,"RT":770,"MT":1679,"sideResp":1,"stimulus":"img/900/equaldotanddens/L/1_Ratio_900_L_10_R_9.png","xmouse":[764,764,764,764,764,764,764,764,764,764,764,764,764,764,764,764,764,764,764,764,764,764,764,764,764,764,764,764,764,764,764,764,764,764,765,772,777,782,788,794,802,809,815,823,831,837,838,838,839,839,842,843,844,845,846,846,846,846,846,846,847,847,848,848,845,843,843,843,843,843,843,843,842,842,842,831,823,791,771,771,771,771,771,771,771,771,771,771,771,771,769,755,744,733,722,692,687,670,662,658,651,649,646,643,640,627,616,598,578,561,549,548,548,548,548,548,548,548,548,548,547,533,519],"ymouse":[640,640,640,640,640,640,640,640,640,640,640,640,640,640,640,640,640,640,640,640,640,640,640,640,640,640,640,640,640,640,640,640,640,640,635,617,595,575,556,536,505,482,459,437,418,403,396,394,393,390,380,373,366,359,353,344,343,343,343,343,342,337,330,314,276,239,214,196,189,189,189,189,192,197,220,244,253,281,297,297,297,297,297,297,297,297,297,297,297,297,296,287,278,269,259,227,219,197,184,175,159,154,146,142,134,119,113,108,104,102,102,102,102,102,102,102,102,102,102,102,100,92,84],"timestamp_mouse":[13,40,49,70,89,109,129,149,169,189,210,229,249,270,289,310,330,350,370,390,410,430,450,469,490,510,531,550,569,589,610,629,650,670,690,711,730,749,770,790,809,829,849,869,889,909,930,950,969,990,1009,1029,1051,1069,1090,1109,1131,1150,1171,1189,1209,1230,1249,1270,1291,1310,1330,1349,1370,1389,1410,1429,1449,1469,1491,1510,1530,1549,1570,1589,1610,1629,1649,1669,1689,1709,1729,1749,1769,1790,1809,1830,1849,1870,1890,1909,1930,1949,1969,1990,2009,2029,2049,2070,2090,2109,2129,2149,2170,2189,2210,2229,2250,2270,2290,2309,2329,2349,2369,2389,2409,2430,2449],"xSR":741.5,"ySR":573.95,"xT1":424.9,"yT1":0,"xT2":1058.1,"yT2":0,"toosoon":0,"cond_shown":"equaldotanddens","ratio_trial":900,"smaller_num":"9","larger_num":"10","correct_side":1,"subjID":"Emanuel   DuqueBELTRAN","gender":"0","age":"9","school":"4"},{"start_time":1552313828756,"click_time":1552313829842,"finger_time":1552313829440,"fix_duration":634.4303071192277,"trial":41,"RT":684,"MT":402,"sideResp":1,"stimulus":"img/500/equaldotanddens/L/5_Ratio_500_L_4_R_2.png","xmouse":[776,776,776,776,776,776,776,776,776,776,776,776,776,776,776,776,776,776,776,776,776,776,776,776,776,776,776,776,776,776,776,775,773,767,762,747,732,720,700,672,598,565,540,532,530,530,529,529,528,527,520,517,513,505,466],"ymouse":[630,630,630,630,630,630,630,630,630,630,630,630,630,630,630,630,630,630,630,630,630,630,630,630,630,630,630,630,630,630,629,611,597,578,558,519,491,473,453,424,348,304,266,241,219,181,164,159,157,154,143,136,128,113,56],"timestamp_mouse":[11,36,45,65,84,105,125,145,166,184,205,225,244,264,285,304,325,344,365,385,404,425,445,464,484,505,524,544,564,586,605,626,644,665,684,704,724,744,765,785,805,824,845,864,884,905,924,944,965,984,1005,1024,1045,1064,1085],"xSR":741.5,"ySR":573.95,"xT1":424.9,"yT1":0,"xT2":1058.1,"yT2":0,"toosoon":0,"cond_shown":"equaldotanddens","ratio_trial":500,"smaller_num":"2","larger_num":"4","correct_side":1,"subjID":"Emanuel   DuqueBELTRAN","gender":"0","age":"9","school":"4"},{"start_time":1552313831213,"click_time":1552313831981,"finger_time":1552313831660,"fix_duration":250,"trial":42,"RT":447,"MT":321,"sideResp":1,"stimulus":"img/900/randomdotsizeEA/R/11_Ratio_900_L_18_R_20.png","xmouse":[811,811,811,811,811,811,811,811,811,811,811,811,811,811,811,811,811,811,811,811,808,801,769,740,726,715,705,689,680,670,658,638,628,619,607,597,583,536,508],"ymouse":[606,606,606,606,606,606,606,606,606,606,606,606,606,606,606,606,606,606,606,606,602,592,554,522,501,483,464,430,408,384,359,313,277,244,210,175,145,74,41],"timestamp_mouse":[13,27,48,68,88,107,127,147,168,189,208,228,247,267,288,308,327,347,368,387,408,427,447,468,487,507,528,547,568,587,608,629,647,667,687,707,727,748,768],"xSR":741.5,"ySR":573.95,"xT1":424.9,"yT1":0,"xT2":1058.1,"yT2":0,"toosoon":0,"cond_shown":"randomdotsizeEA","ratio_trial":900,"smaller_num":"18","larger_num":"20","correct_side":2,"subjID":"Emanuel   DuqueBELTRAN","gender":"0","age":"9","school":"4"},{"start_time":1552313835829,"click_time":1552313837060,"finger_time":1552313836581,"fix_duration":1185.8084814438073,"trial":43,"RT":752,"MT":479,"sideResp":1,"stimulus":"img/750/randomdotsizeEA/L/6_Ratio_750_L_24_R_18.png","xmouse":[781,781,781,781,781,781,781,781,781,781,781,781,781,781,781,781,781,781,781,781,781,781,781,781,781,781,781,781,781,781,781,781,781,781,781,779,759,729,682,609,535,414,367,349,338,329,320,319,319,319,318,318,318,318,318,318,318,318,338,374,413,458],"ymouse":[658,658,658,658,658,658,658,658,658,658,658,658,658,658,658,658,658,658,658,658,658,658,658,658,658,658,658,658,658,658,658,658,658,658,658,652,608,552,489,410,336,180,95,54,27,7,0,0,0,0,0,0,0,0,0,0,0,0,5,19,30,42],"timestamp_mouse":[25,43,51,72,91,111,131,152,173,192,211,231,251,272,292,313,332,351,371,392,412,432,452,471,492,511,531,551,571,591,612,631,651,671,693,712,731,752,771,791,812,831,851,871,892,912,931,951,971,991,1013,1032,1052,1071,1091,1113,1131,1152,1172,1191,1211,1231],"xSR":741.5,"ySR":573.95,"xT1":424.9,"yT1":0,"xT2":1058.1,"yT2":0,"toosoon":0,"cond_shown":"randomdotsizeEA","ratio_trial":750,"smaller_num":"18","larger_num":"24","correct_side":1,"subjID":"Emanuel   DuqueBELTRAN","gender":"0","age":"9","school":"4"},{"start_time":1552313840801,"click_time":1552313842861,"finger_time":1552313841660,"fix_duration":1237.7141274163323,"trial":44,"RT":859,"MT":1201,"sideResp":2,"stimulus":"img/750/equaldotanddens/R/12_Ratio_750_L_3_R_4.png","xmouse":[783,783,783,783,783,783,783,783,783,783,783,783,783,783,783,783,783,783,783,783,783,783,783,783,783,783,783,783,783,783,783,783,783,783,783,783,783,783,783,783,785,787,788,792,796,798,800,808,822,829,838,847,853,864,868,875,881,885,893,899,906,916,926,948,969,986,1000,1010,1013,1014,1014,1015,1016,1016,1016,1016,1016,1016,1016,1016,1016,1016,1016,1016,1016,1016,1017,1024,1034,1040,1046,1047,1047,1047,1047,1047,1047,1047,1047,1047,1047,1049,1057,1073],"ymouse":[632,632,632,632,632,632,632,632,632,632,632,632,632,632,632,632,632,632,632,632,632,632,632,632,632,632,632,632,632,632,632,632,632,632,632,632,632,632,632,632,616,608,598,568,546,531,519,497,459,439,417,398,383,360,354,341,335,330,321,314,308,299,289,264,238,218,201,186,177,173,170,167,164,163,163,161,159,157,152,149,143,137,129,108,85,68,49,30,0,0,0,0,0,0,0,0,0,0,0,0,0,0,11,33],"timestamp_mouse":[1,19,39,61,80,100,119,139,159,180,201,219,240,260,280,299,319,340,360,380,399,419,439,460,480,501,520,539,560,579,600,619,640,659,680,700,721,740,760,780,799,819,839,859,879,899,920,940,959,979,999,1020,1039,1059,1080,1099,1119,1140,1160,1179,1199,1220,1239,1259,1279,1299,1319,1340,1359,1380,1399,1419,1439,1460,1480,1499,1520,1541,1560,1581,1599,1620,1639,1659,1679,1699,1719,1740,1759,1779,1799,1819,1839,1859,1879,1899,1919,1940,1960,1979,1999,2019,2041,2059],"xSR":741.5,"ySR":573.95,"xT1":424.9,"yT1":0,"xT2":1058.1,"yT2":0,"toosoon":0,"cond_shown":"equaldotanddens","ratio_trial":750,"smaller_num":"3","larger_num":"4","correct_side":2,"subjID":"Emanuel   DuqueBELTRAN","gender":"0","age":"9","school":"4"},{"start_time":1552313844922,"click_time":1552313847060,"finger_time":1552313845880,"fix_duration":761.049157375472,"trial":45,"RT":958,"MT":1180,"sideResp":2,"stimulus":"img/500/equaldotanddens/R/12_Ratio_500_L_1_R_2.png","xmouse":[792,792,792,792,792,792,792,792,792,792,792,792,792,792,792,792,792,792,792,792,792,792,792,792,792,792,792,792,792,792,792,792,792,792,792,792,792,792,792,792,792,792,793,797,801,804,812,825,835,849,865,894,905,915,924,933,931,920,904,887,876,861,855,850,850,848,848,848,848,848,848,852,863,868,872,878,889,892,892,892,896,897,898,902,903,910,939,956,956,956,956,956,956,956,956,956,956,960,966,978,996,999,1015,1028,1037,1051,1059],"ymouse":[624,624,624,624,624,624,624,624,624,624,624,624,624,624,624,624,624,624,624,624,624,624,624,624,624,624,624,624,624,624,624,624,624,624,624,624,624,624,624,624,624,624,618,608,602,595,574,548,529,507,478,418,392,370,350,328,300,270,237,197,168,125,108,99,99,92,76,72,71,71,71,73,86,99,112,126,141,143,143,144,144,144,144,144,144,144,141,139,139,139,139,139,139,139,139,139,139,135,128,123,120,117,110,103,97,86,81],"timestamp_mouse":[19,51,59,79,98,119,138,159,178,199,219,238,259,279,298,318,339,359,379,399,420,439,458,478,499,518,539,558,579,599,618,639,658,679,699,719,739,759,779,798,819,838,858,879,898,918,938,958,980,998,1019,1038,1059,1078,1098,1120,1139,1158,1179,1198,1219,1238,1258,1278,1298,1319,1339,1358,1378,1399,1419,1438,1459,1479,1498,1518,1538,1559,1578,1598,1618,1639,1658,1679,1698,1718,1738,1758,1778,1798,1820,1838,1859,1879,1899,1919,1938,1958,1978,1999,2018,2039,2058,2078,2099,2120,2138],"xSR":741.5,"ySR":573.95,"xT1":424.9,"yT1":0,"xT2":1058.1,"yT2":0,"toosoon":0,"cond_shown":"equaldotanddens","ratio_trial":500,"smaller_num":"1","larger_num":"2","correct_side":2,"subjID":"Emanuel   DuqueBELTRAN","gender":"0","age":"9","school":"4"},{"start_time":1552313851202,"click_time":1552313852061,"finger_time":1552313851880,"fix_duration":1400.0840541844987,"trial":46,"RT":678,"MT":181,"sideResp":1,"stimulus":"img/250/equaldotanddens/L/7_Ratio_250_L_8_R_2.png","xmouse":[791,791,791,791,791,791,791,791,791,791,791,791,791,791,791,791,791,791,791,791,791,791,791,791,791,791,791,791,791,787,780,757,749,733,725,706,662,566,551,528,519,505,488],"ymouse":[636,636,636,636,636,636,636,636,636,636,636,636,636,636,636,636,636,636,636,636,636,636,636,636,636,636,636,636,636,625,615,589,580,555,537,504,443,321,295,243,203,154,98],"timestamp_mouse":[19,38,58,78,98,118,140,158,179,199,218,238,258,278,299,319,338,358,378,398,419,439,459,478,498,519,539,559,580,598,619,639,659,678,698,719,739,759,779,799,819,838,859],"xSR":741.5,"ySR":573.95,"xT1":424.9,"yT1":0,"xT2":1058.1,"yT2":0,"toosoon":0,"cond_shown":"equaldotanddens","ratio_trial":250,"smaller_num":"2","larger_num":"8","correct_side":1,"subjID":"Emanuel   DuqueBELTRAN","gender":"0","age":"9","school":"4"},{"start_time":1552313855228,"click_time":1552313856402,"finger_time":1552313855941,"fix_duration":987.5597889507471,"trial":47,"RT":713,"MT":461,"sideResp":2,"stimulus":"img/250/equaldotsize/R/12_Ratio_250_L_5_R_20.png","xmouse":[777,777,777,777,777,777,777,777,777,777,777,777,777,777,777,777,777,777,777,778,781,795,795,795,795,795,795,795,795,795,795,795,802,803,805,815,833,853,877,899,914,942,958,968,978,989,1010,1018,1025,1031,1036,1044,1047,1054,1057,1063,1075,1082,1090],"ymouse":[607,607,607,607,607,607,607,607,607,607,607,607,607,607,607,607,607,607,607,607,603,591,591,591,591,591,591,591,591,591,591,591,586,585,583,570,552,534,513,493,471,423,392,375,354,330,269,243,225,213,201,182,174,158,150,141,121,109,95],"timestamp_mouse":[14,47,53,72,93,112,132,153,172,193,214,233,253,273,292,313,333,352,372,393,412,432,453,472,493,514,532,553,572,592,612,633,653,672,692,713,732,754,772,792,812,833,853,872,892,913,933,952,972,992,1013,1032,1052,1072,1093,1114,1133,1154,1174],"xSR":741.5,"ySR":573.95,"xT1":424.9,"yT1":0,"xT2":1058.1,"yT2":0,"toosoon":0,"cond_shown":"equaldotsize","ratio_trial":250,"smaller_num":"5","larger_num":"20","correct_side":2,"subjID":"Emanuel   DuqueBELTRAN","gender":"0","age":"9","school":"4"},{"start_time":1552313857573,"click_time":1552313858842,"finger_time":1552313858161,"fix_duration":250,"trial":48,"RT":588,"MT":681,"sideResp":1,"stimulus":"img/500/randomdotsizeEA/L/10_Ratio_500_L_4_R_2.png","xmouse":[824,824,824,824,824,824,824,824,824,824,824,824,824,824,824,824,824,824,824,824,824,824,824,824,824,824,824,820,803,790,775,761,753,748,744,738,733,729,717,712,705,699,686,674,631,607,596,588,576,564,549,532,515,503,481,473,469,466,462,460,460,459,457,457],"ymouse":[603,603,603,603,603,603,603,603,603,603,603,603,603,603,603,603,603,603,603,603,603,603,603,603,603,603,603,601,583,570,554,541,526,512,501,485,474,463,433,414,392,367,338,312,248,215,203,195,185,180,176,170,165,159,146,140,136,131,122,118,115,110,104,95],"timestamp_mouse":[16,27,47,68,89,107,129,149,167,189,209,227,249,269,287,307,328,348,368,389,407,427,449,469,488,507,528,549,569,588,608,628,647,669,687,709,728,748,769,788,808,828,849,868,889,907,928,949,969,988,1008,1029,1049,1069,1088,1107,1128,1149,1169,1188,1208,1228,1248,1269],"xSR":741.5,"ySR":573.95,"xT1":424.9,"yT1":0,"xT2":1058.1,"yT2":0,"toosoon":0,"cond_shown":"randomdotsizeEA","ratio_trial":500,"smaller_num":"2","larger_num":"4","correct_side":1,"subjID":"Emanuel   DuqueBELTRAN","gender":"0","age":"9","school":"4"},{"start_time":1552313862483,"click_time":1552313863461,"finger_time":1552313863082,"fix_duration":679.0260289816925,"trial":49,"RT":599,"MT":379,"sideResp":2,"stimulus":"img/250/equaldotanddens/R/4_Ratio_250_L_3_R_12.png","xmouse":[763,763,763,763,763,763,763,763,763,763,763,763,763,763,763,763,763,763,763,763,763,763,763,763,763,763,763,767,778,786,801,812,829,839,849,856,863,869,881,898,903,924,940,967,979,990,1002,1040,1061],"ymouse":[605,605,605,605,605,605,605,605,605,605,605,605,605,605,605,605,605,605,605,605,605,605,605,605,605,605,605,602,583,567,542,523,474,441,408,383,359,338,298,269,259,228,207,161,141,122,108,79,65],"timestamp_mouse":[19,40,58,79,97,119,139,158,179,198,218,238,258,278,298,318,338,358,379,398,417,437,459,478,499,519,538,557,577,599,618,638,659,678,698,717,738,758,778,799,818,838,857,877,898,918,937,959,978],"xSR":741.5,"ySR":573.95,"xT1":424.9,"yT1":0,"xT2":1058.1,"yT2":0,"toosoon":0,"cond_shown":"equaldotanddens","ratio_trial":250,"smaller_num":"3","larger_num":"12","correct_side":2,"subjID":"Emanuel   DuqueBELTRAN","gender":"0","age":"9","school":"4"},{"start_time":1552313865643,"click_time":1552313867061,"finger_time":1552313866302,"fix_duration":1260.6033795873873,"trial":50,"RT":659,"MT":759,"sideResp":2,"stimulus":"img/250/randomdotsizeEA/R/13_Ratio_250_L_2_R_8.png","xmouse":[808,808,808,808,808,808,808,808,808,808,808,808,808,808,808,808,808,808,808,808,808,808,808,808,808,808,806,804,799,789,780,778,773,772,771,770,770,770,770,770,770,770,770,770,775,787,799,810,822,850,863,873,892,904,936,952,965,977,987,997,1005,1007,1009,1010,1010,1010,1010,1010,1012,1047,1070],"ymouse":[626,626,626,626,626,626,626,626,626,626,626,626,626,626,626,626,626,626,626,626,626,626,626,626,626,626,624,620,612,593,579,577,568,565,562,561,561,561,561,561,561,560,559,552,545,525,509,490,469,418,390,367,321,291,231,203,177,151,128,107,67,53,47,45,45,45,45,45,45,49,55],"timestamp_mouse":[18,38,59,77,99,119,138,158,178,198,219,239,258,279,299,319,338,359,379,399,418,437,458,479,498,518,539,558,578,599,617,638,659,678,698,717,738,758,778,798,818,839,857,878,897,917,938,957,978,999,1017,1038,1059,1079,1099,1117,1138,1157,1178,1197,1219,1238,1259,1279,1298,1319,1338,1358,1379,1399,1417],"xSR":741.5,"ySR":573.95,"xT1":424.9,"yT1":0,"xT2":1058.1,"yT2":0,"toosoon":0,"cond_shown":"randomdotsizeEA","ratio_trial":250,"smaller_num":"2","larger_num":"8","correct_side":2,"subjID":"Emanuel   DuqueBELTRAN","gender":"0","age":"9","school":"4"},{"start_time":1552313868748,"click_time":1552313870542,"finger_time":1552313869822,"fix_duration":384.42097233643744,"trial":51,"RT":1074,"MT":720,"sideResp":1,"stimulus":"img/900/randomdotsizeEA/R/5_Ratio_900_L_9_R_10.png","xmouse":[749,749,749,749,749,749,749,749,749,749,749,749,749,749,749,749,749,749,749,749,749,749,749,749,749,749,749,749,749,749,749,749,749,749,749,749,749,749,749,749,749,749,749,749,749,749,749,749,749,749,749,749,746,736,721,668,653,643,641,641,641,641,641,641,641,641,640,638,633,625,618,610,603,596,588,571,563,556,547,541,527,517,506,498,491,487,487,486,486,486],"ymouse":[598,598,598,598,598,598,598,598,598,598,598,598,598,598,598,598,598,598,598,598,598,598,598,598,598,598,598,598,598,598,598,598,598,598,598,598,598,598,598,598,598,598,598,598,598,598,598,598,598,598,598,587,579,557,530,457,437,419,413,412,412,411,411,411,400,388,362,354,322,278,256,236,219,207,194,179,174,171,164,160,147,137,126,117,110,104,103,101,101,99],"timestamp_mouse":[13,43,52,74,94,113,133,152,172,193,214,233,254,272,294,313,333,353,372,394,413,434,452,473,492,514,534,553,572,592,614,633,654,672,693,714,732,752,773,793,812,833,853,874,893,913,932,954,974,994,1012,1032,1052,1074,1093,1114,1133,1154,1173,1193,1212,1233,1253,1274,1294,1313,1333,1353,1373,1394,1413,1433,1453,1473,1492,1513,1533,1553,1573,1593,1612,1633,1652,1673,1693,1714,1733,1754,1773,1794],"xSR":741.5,"ySR":573.95,"xT1":424.9,"yT1":0,"xT2":1058.1,"yT2":0,"toosoon":0,"cond_shown":"randomdotsizeEA","ratio_trial":900,"smaller_num":"9","larger_num":"10","correct_side":2,"subjID":"Emanuel   DuqueBELTRAN","gender":"0","age":"9","school":"4"},{"start_time":1552313874945,"click_time":1552313876261,"finger_time":1552313875642,"fix_duration":761.240252902842,"trial":52,"RT":697,"MT":619,"sideResp":1,"stimulus":"img/900/equaldotsize/L/2_Ratio_900_L_20_R_18.png","xmouse":[788,788,788,788,788,788,788,788,788,788,788,788,788,788,788,788,788,788,788,789,792,792,793,794,794,794,794,794,794,794,794,794,794,794,794,768,732,686,618,571,489,443,402,363,295,278,274,274,276,283,311,317,319,320,324,327,331,334,338,352,363,375,388,399,420,429],"ymouse":[611,611,611,611,611,611,611,611,611,611,611,611,611,611,611,611,611,611,611,604,587,585,581,579,579,579,579,579,579,579,579,579,579,579,573,539,499,457,401,367,312,282,253,225,180,169,165,164,157,149,135,132,130,129,123,120,115,108,102,89,79,71,63,55,39,34],"timestamp_mouse":[16,40,56,76,95,115,136,157,177,196,217,237,256,277,296,316,336,356,377,396,417,435,456,477,496,516,536,556,576,597,615,636,656,675,697,716,736,757,776,796,816,836,856,876,896,915,936,956,975,997,1016,1036,1055,1075,1096,1116,1136,1155,1176,1197,1216,1235,1255,1276,1296,1316],"xSR":741.5,"ySR":573.95,"xT1":424.9,"yT1":0,"xT2":1058.1,"yT2":0,"toosoon":0,"cond_shown":"equaldotsize","ratio_trial":900,"smaller_num":"18","larger_num":"20","correct_side":1,"subjID":"Emanuel   DuqueBELTRAN","gender":"0","age":"9","school":"4"},{"start_time":1552313879054,"click_time":1552313880581,"finger_time":1552313880021,"fix_duration":250,"trial":53,"RT":967,"MT":560,"sideResp":1,"stimulus":"img/750/equaldotsize/L/1_Ratio_750_L_20_R_15.png","xmouse":[795,795,795,795,795,795,795,795,795,795,795,795,795,795,795,795,795,795,795,795,795,795,795,795,795,795,795,795,795,795,795,795,795,795,795,795,795,795,795,795,795,795,795,795,795,795,783,762,747,720,708,699,688,678,670,656,648,640,630,607,594,579,566,548,522,511,500,492,487,480,478,476,475,475,475,475,475],"ymouse":[651,651,651,651,650,650,650,650,650,650,650,650,650,650,650,650,650,650,650,650,650,650,650,650,650,650,650,650,650,650,650,650,650,650,650,650,650,650,650,650,650,650,650,650,650,650,623,593,573,539,523,508,488,473,459,436,421,404,385,347,329,309,291,267,232,217,200,188,176,159,153,146,138,128,108,100,91],"timestamp_mouse":[10,42,47,66,87,107,128,147,168,188,207,227,247,266,288,306,327,347,368,387,408,428,447,466,488,507,528,547,567,587,606,628,648,667,688,707,727,747,767,788,807,828,847,866,887,907,927,947,967,986,1007,1028,1048,1067,1086,1107,1127,1147,1167,1187,1207,1226,1247,1267,1287,1308,1328,1346,1367,1387,1407,1427,1448,1466,1486,1508,1527],"xSR":741.5,"ySR":573.95,"xT1":424.9,"yT1":0,"xT2":1058.1,"yT2":0,"toosoon":0,"cond_shown":"equaldotsize","ratio_trial":750,"smaller_num":"15","larger_num":"20","correct_side":1,"subjID":"Emanuel   DuqueBELTRAN","gender":"0","age":"9","school":"4"},{"start_time":1552313884194,"click_time":1552313885342,"finger_time":1552313884962,"fix_duration":830.0248246349156,"trial":54,"RT":768,"MT":380,"sideResp":1,"stimulus":"img/500/equaldotanddens/L/5_Ratio_500_L_4_R_2.png","xmouse":[818,818,818,818,818,818,818,818,818,818,818,818,818,818,818,818,818,818,818,818,818,818,818,818,818,818,818,818,818,818,818,818,818,818,818,817,813,802,775,756,736,716,676,655,643,632,620,589,573,564,560,557,554,551,550,541,535,523],"ymouse":[623,623,623,623,623,623,623,623,623,623,623,623,623,623,623,623,623,623,623,623,623,623,623,623,623,623,623,623,623,623,623,623,623,623,623,623,614,584,543,514,492,470,427,398,379,353,327,269,245,229,215,201,175,153,146,121,107,91],"timestamp_mouse":[12,35,47,66,86,108,128,148,167,188,206,228,248,268,288,307,328,347,366,388,408,426,448,468,486,507,528,546,573,587,607,627,647,668,688,706,727,747,768,787,806,827,848,867,886,906,928,948,967,987,1007,1028,1048,1067,1087,1107,1127,1148],"xSR":741.5,"ySR":573.95,"xT1":424.9,"yT1":0,"xT2":1058.1,"yT2":0,"toosoon":0,"cond_shown":"equaldotanddens","ratio_trial":500,"smaller_num":"2","larger_num":"4","correct_side":1,"subjID":"Emanuel   DuqueBELTRAN","gender":"0","age":"9","school":"4"},{"start_time":1552313888444,"click_time":1552313890043,"finger_time":1552313889241,"fix_duration":1001.7594979338463,"trial":55,"RT":797,"MT":802,"sideResp":2,"stimulus":"img/750/equaldotanddens/R/5_Ratio_750_L_15_R_20.png","xmouse":[803,794,788,782,777,777,777,777,777,777,777,777,777,777,777,777,777,777,777,777,777,777,777,777,777,777,777,777,777,777,777,777,777,777,777,777,777,782,790,825,840,849,857,867,888,891,891,891,886,882,881,881,881,881,881,881,882,886,900,908,921,937,950,974,987,1000,1011,1020,1032,1034,1034,1034,1034,1034,1034,1035,1035,1039,1069],"ymouse":[625,620,617,615,613,613,613,613,613,613,613,613,613,613,613,613,613,613,613,613,613,613,613,613,613,613,613,613,613,613,613,613,613,613,613,613,598,582,564,485,450,425,401,374,326,312,296,278,263,247,243,241,241,238,234,229,222,211,185,171,149,131,114,81,66,52,43,37,28,26,26,26,26,26,26,26,26,30,59],"timestamp_mouse":[36,58,77,97,117,136,158,178,196,217,237,258,277,298,317,338,356,378,398,417,438,456,477,497,518,538,558,578,597,617,637,656,677,698,717,738,756,776,797,816,837,858,877,897,918,937,957,977,997,1016,1038,1057,1078,1098,1116,1138,1157,1177,1198,1216,1236,1257,1278,1298,1317,1336,1357,1378,1398,1417,1437,1456,1478,1498,1517,1538,1557,1577,1598],"xSR":741.5,"ySR":573.95,"xT1":424.9,"yT1":0,"xT2":1058.1,"yT2":0,"toosoon":0,"cond_shown":"equaldotanddens","ratio_trial":750,"smaller_num":"15","larger_num":"20","correct_side":2,"subjID":"Emanuel   DuqueBELTRAN","gender":"0","age":"9","school":"4"},{"start_time":1552313894979,"click_time":1552313896242,"finger_time":1552313895862,"fix_duration":955.2093596797713,"trial":56,"RT":883,"MT":380,"sideResp":1,"stimulus":"img/750/randomdotsizeEA/R/2_Ratio_750_L_6_R_8.png","xmouse":[764,764,764,764,764,764,764,764,764,764,764,764,764,764,764,764,764,764,764,764,764,764,764,764,764,764,764,764,764,764,764,765,766,769,770,772,772,772,772,772,772,771,766,754,713,684,671,660,644,620,606,599,593,588,579,573,568,563,558,546,539,535,529,520],"ymouse":[643,643,643,643,643,643,643,643,643,643,643,643,643,643,643,643,643,643,643,643,643,643,643,643,643,643,643,643,643,643,643,637,635,626,621,617,613,610,605,603,600,596,590,580,547,509,475,436,382,300,263,240,218,200,162,143,124,109,97,83,80,79,78,76],"timestamp_mouse":[12,22,42,61,83,101,121,142,161,182,202,223,243,263,283,302,321,342,363,381,401,422,442,461,483,502,522,542,562,583,602,623,642,663,681,702,723,743,763,783,801,822,842,862,883,902,922,942,962,983,1002,1022,1041,1061,1081,1102,1122,1143,1162,1182,1202,1223,1241,1263],"xSR":741.5,"ySR":573.95,"xT1":424.9,"yT1":0,"xT2":1058.1,"yT2":0,"toosoon":0,"cond_shown":"randomdotsizeEA","ratio_trial":750,"smaller_num":"6","larger_num":"8","correct_side":2,"subjID":"Emanuel   DuqueBELTRAN","gender":"0","age":"9","school":"4"},{"start_time":1552313899261,"click_time":1552313900482,"finger_time":1552313899741,"fix_duration":479.0485842024297,"trial":57,"RT":480,"MT":741,"sideResp":1,"stimulus":"img/750/equaldotsize/L/14_Ratio_750_L_8_R_6.png","xmouse":[817,817,817,817,817,817,817,817,817,817,817,817,817,817,817,817,817,817,817,817,817,817,817,816,814,812,809,808,807,806,802,791,763,735,662,617,573,527,496,445,418,405,396,394,394,394,394,394,394,394,394,394,394,394,394,394,394,394,394,394,408,436],"ymouse":[648,648,648,648,648,648,648,648,648,648,648,648,648,648,648,648,648,648,648,646,624,611,596,584,573,558,550,547,545,543,538,529,508,486,402,339,272,192,114,0,0,0,0,0,0,0,0,0,0,0,0,0,0,0,0,0,0,0,0,0,11,22],"timestamp_mouse":[9,21,40,60,81,99,119,140,160,181,199,220,241,259,280,300,320,340,359,380,401,420,441,461,480,501,520,540,561,580,601,620,640,660,680,700,721,740,760,781,801,820,840,861,881,899,920,940,960,980,1000,1019,1041,1059,1079,1100,1120,1140,1161,1180,1199,1221],"xSR":741.5,"ySR":573.95,"xT1":424.9,"yT1":0,"xT2":1058.1,"yT2":0,"toosoon":0,"cond_shown":"equaldotsize","ratio_trial":750,"smaller_num":"6","larger_num":"8","correct_side":1,"subjID":"Emanuel   DuqueBELTRAN","gender":"0","age":"9","school":"4"},{"start_time":1552313901735,"click_time":1552313903042,"finger_time":1552313902520,"fix_duration":250,"trial":58,"RT":785,"MT":522,"sideResp":1,"stimulus":"img/750/randomdotsizeEA/L/8_Ratio_750_L_4_R_3.png","xmouse":[771,771,771,771,771,771,771,771,771,771,771,771,771,771,771,771,771,771,771,771,771,771,771,771,771,771,771,771,771,771,771,771,771,771,771,771,771,765,754,745,719,709,698,682,662,631,604,589,578,570,566,564,562,560,558,551,547,545,544,543,541,532,520,512,501,488],"ymouse":[644,644,644,644,644,644,644,644,644,644,644,644,644,644,644,644,644,644,644,644,644,644,644,644,644,644,644,644,644,644,644,644,644,644,644,644,643,607,577,557,505,480,455,428,401,361,332,319,309,301,297,289,282,267,249,220,210,202,199,195,191,172,144,122,105,86],"timestamp_mouse":[9,38,46,66,87,106,126,145,166,187,206,225,246,267,285,307,327,347,365,386,406,427,447,466,486,506,527,545,567,585,606,626,647,666,686,706,727,746,766,785,807,826,846,866,887,907,926,945,965,985,1007,1027,1047,1066,1086,1107,1126,1146,1167,1186,1206,1227,1246,1266,1287,1307],"xSR":741.5,"ySR":573.95,"xT1":424.9,"yT1":0,"xT2":1058.1,"yT2":0,"toosoon":0,"cond_shown":"randomdotsizeEA","ratio_trial":750,"smaller_num":"3","larger_num":"4","correct_side":1,"subjID":"Emanuel   DuqueBELTRAN","gender":"0","age":"9","school":"4"},{"start_time":1552313904554,"click_time":1552313905582,"finger_time":1552313905242,"fix_duration":250,"trial":59,"RT":688,"MT":340,"sideResp":2,"stimulus":"img/750/equaldotanddens/R/15_Ratio_750_L_9_R_12.png","xmouse":[791,791,791,791,791,791,791,791,791,791,791,791,791,791,792,792,792,792,792,792,792,792,792,792,792,792,792,792,792,792,792,792,792,797,823,844,887,917,943,960,984,993,1003,1009,1015,1027,1033,1037,1041,1045,1054,1062],"ymouse":[620,620,620,620,620,620,620,620,620,620,620,620,620,620,620,620,620,620,620,620,620,620,620,620,620,620,620,620,620,620,620,620,620,616,572,537,467,421,381,347,297,274,251,235,218,187,167,153,140,129,108,96],"timestamp_mouse":[14,42,47,66,86,108,128,147,167,186,207,227,248,268,288,308,326,347,367,388,407,428,447,467,487,508,528,548,566,588,608,627,648,667,688,707,727,747,768,787,807,828,847,868,887,907,926,946,968,987,1007,1028],"xSR":741.5,"ySR":573.95,"xT1":424.9,"yT1":0,"xT2":1058.1,"yT2":0,"toosoon":0,"cond_shown":"equaldotanddens","ratio_trial":750,"smaller_num":"9","larger_num":"12","correct_side":2,"subjID":"Emanuel   DuqueBELTRAN","gender":"0","age":"9","school":"4"},{"start_time":1552313907427,"click_time":1552313908981,"finger_time":1552313907961,"fix_duration":824.4716510188886,"trial":60,"RT":534,"MT":1020,"sideResp":1,"stimulus":"img/750/randomdotsizeEA/L/8_Ratio_750_L_4_R_3.png","xmouse":[798,798,798,798,798,798,798,798,798,798,798,798,798,798,798,798,798,798,798,798,798,798,797,793,788,782,767,755,743,727,702,692,683,663,649,635,606,592,578,564,550,537,535,534,534,531,528,525,522,520,520,519,518,516,514,510,509,508,507,505,501,498,498,498,498,498,498,498,498,498,498,498,498,498,498,498,498,498],"ymouse":[663,663,663,663,663,663,663,663,663,663,663,663,663,663,663,663,663,663,663,663,663,648,632,614,599,582,548,528,507,486,450,433,413,382,364,343,294,268,244,219,197,171,164,160,158,150,147,142,139,136,135,135,133,131,129,125,124,122,121,118,107,103,103,103,103,102,102,102,102,102,102,102,102,102,102,102,102,97],"timestamp_mouse":[13,34,55,73,94,115,135,155,174,195,215,235,254,275,294,314,333,354,374,394,414,435,454,475,494,513,534,555,575,594,615,634,654,673,694,714,733,754,773,794,814,835,854,875,895,915,934,954,974,994,1015,1034,1054,1073,1095,1115,1134,1155,1173,1194,1215,1234,1254,1274,1295,1313,1335,1354,1373,1395,1414,1434,1455,1475,1495,1515,1533,1554],"xSR":741.5,"ySR":573.95,"xT1":424.9,"yT1":0,"xT2":1058.1,"yT2":0,"toosoon":0,"cond_shown":"randomdotsizeEA","ratio_trial":750,"smaller_num":"3","larger_num":"4","correct_side":1,"subjID":"Emanuel   DuqueBELTRAN","gender":"0","age":"9","school":"4"},{"start_time":1552313910799,"click_time":1552313914501,"finger_time":1552313914221,"fix_duration":737.1282307141528,"trial":61,"RT":3422,"MT":280,"sideResp":1,"stimulus":"img/900/randomdotsizeEA/R/13_Ratio_900_L_18_R_20.png","xmouse":[787,787,787,787,787,787,787,787,787,787,787,787,787,787,787,787,787,787,787,787,787,787,787,787,787,787,787,787,787,787,787,787,787,787,787,788,788,788,788,788,788,788,788,788,788,788,788,788,788,788,788,788,788,788,788,788,788,788,788,788,788,788,788,788,788,788,788,788,788,788,788,788,788,788,788,788,788,788,788,788,788,788,788,788,788,788,788,788,788,788,788,788,788,788,788,788,788,788,788,788,788,788,788,788,788,788,788,788,788,788,788,788,788,788,788,788,788,788,788,788,788,788,788,788,788,788,788,788,788,788,788,788,788,788,788,788,788,788,788,788,788,788,788,788,788,788,788,788,788,788,788,788,788,788,788,788,788,788,788,788,788,788,788,788,788,788,788,788,788,787,785,780,767,733,708,661,606,587,569,560,553,547,533,529,521,516],"ymouse":[628,628,628,628,628,628,628,628,628,628,628,628,628,628,628,628,628,628,628,628,628,628,628,628,628,628,628,628,628,628,628,628,628,628,622,600,594,590,588,588,588,588,588,588,587,587,587,587,587,587,587,587,587,587,587,587,587,587,587,587,587,587,587,587,587,587,587,587,587,587,587,587,587,587,587,587,587,587,587,587,587,587,587,587,587,587,587,587,587,587,587,587,587,587,587,587,587,587,587,587,587,587,587,587,587,587,587,587,587,587,587,587,587,587,587,587,587,587,587,587,587,587,587,587,587,587,587,587,587,587,587,587,587,587,587,587,587,587,587,587,587,587,587,587,587,587,587,587,587,587,587,587,587,587,587,587,587,587,587,587,587,587,587,587,587,587,587,587,587,586,577,560,528,463,420,352,261,227,200,183,169,158,130,121,102,89],"timestamp_mouse":[10,21,48,62,83,102,123,142,163,182,201,222,243,263,283,302,322,343,361,383,403,422,442,463,481,503,521,541,563,581,601,622,642,661,681,703,722,742,762,783,802,823,842,862,883,901,923,942,963,981,1002,1023,1042,1063,1082,1103,1121,1142,1163,1182,1202,1223,1243,1262,1283,1303,1323,1342,1362,1383,1402,1423,1443,1462,1482,1502,1523,1543,1562,1581,1603,1622,1642,1662,1683,1703,1721,1743,1763,1781,1803,1822,1842,1863,1881,1903,1923,1943,1961,1983,2002,2023,2041,2063,2083,2103,2121,2141,2163,2182,2203,2221,2243,2263,2283,2303,2322,2342,2362,2381,2402,2423,2441,2462,2483,2502,2523,2542,2561,2581,2603,2622,2642,2663,2681,2702,2723,2741,2763,2783,2802,2823,2841,2862,2882,2910,2923,2942,2963,2981,3003,3022,3041,3062,3082,3103,3122,3142,3163,3182,3202,3223,3242,3263,3282,3303,3322,3342,3361,3382,3403,3422,3441,3461,3482,3502,3528,3544,3562,3583,3602,3622,3643,3662,3682,3702],"xSR":741.5,"ySR":573.95,"xT1":424.9,"yT1":0,"xT2":1058.1,"yT2":0,"toosoon":0,"cond_shown":"randomdotsizeEA","ratio_trial":900,"smaller_num":"18","larger_num":"20","correct_side":2,"subjID":"Emanuel   DuqueBELTRAN","gender":"0","age":"9","school":"4"},{"start_time":1552313916983,"click_time":1552313918163,"finger_time":1552313917844,"fix_duration":978.4856453958452,"trial":62,"RT":861,"MT":319,"sideResp":1,"stimulus":"img/750/equaldotsize/L/13_Ratio_750_L_8_R_6.png","xmouse":[792,792,792,792,792,792,792,792,792,792,792,792,792,792,792,792,792,792,792,792,792,792,792,792,792,792,792,792,792,792,792,792,792,792,792,792,792,792,792,792,792,792,788,779,776,769,761,729,712,698,686,674,640,619,586,566,548,532,511],"ymouse":[608,608,608,608,608,608,608,608,608,608,608,608,608,608,608,608,608,608,608,608,608,608,608,608,608,608,608,608,608,608,608,608,608,608,608,608,608,608,608,608,601,581,550,503,480,446,422,362,331,307,285,265,213,184,139,117,98,79,51],"timestamp_mous