[{"start_time":1552055101502,"click_time":1552055102700,"finger_time":1552055102118,"fix_duration":1280.407030467028,"trial":0,"RT":616,"MT":582,"sideResp":1,"stimulus":"img/250/equaldotsize/L/15_Ratio_250_L_12_R_3.png","xmouse":[776,776,776,776,776,774,774,774,774,774,774,774,774,774,774,774,774,774,774,774,774,774,774,774,774,774,774,774,774,781,792,807,810,805,796,785,780,776,768,767,765,754,731,630,595,573,568,565,559,552,551,550,549,549,548,547,545,543,535,524],"ymouse":[510,510,510,510,510,510,510,510,510,510,510,510,510,510,510,510,510,510,510,510,510,510,510,510,510,510,507,505,490,470,451,421,397,363,351,342,337,333,324,316,308,295,280,198,162,122,96,73,46,36,35,34,34,34,34,34,34,34,34,34],"timestamp_mouse":[16,37,58,76,97,117,137,156,178,198,217,237,256,276,297,317,337,357,377,397,417,438,457,477,498,517,538,556,577,597,616,638,656,676,697,717,738,758,778,796,816,838,857,876,896,917,938,957,976,996,1017,1037,1058,1078,1097,1117,1136,1158,1177,1198],"xSR":741.5,"ySR":469.95,"xT1":424.9,"yT1":0,"xT2":1058.1,"yT2":0,"toosoon":0,"cond_shown":"equaldotsize","ratio_trial":250,"smaller_num":"3","larger_num":"12","correct_side":1,"subjID":"EmilianoCallejasGonzalez23","gender":"0","age":"9","school":"4","test":{"fix_dur":[250,1500],"timestim":300,"targets_dim":[100,100],"targets_relative_coord":[0.3,0.7],"size_stim":[880,420],"start_dim":[100,100],"size_start":[300,300],"size_fix":60,"samplingrate":20,"img_types":["equaldotsize","equaldotanddens","randomdotsizeEA"],"ratios":[250,500,750,900],"rep_conds":9,"nTrials":120,"trials_to_rest":500,"Trials_order":[108,115,36,82,8,41,21,32,17,106,78,84,29,107,96,104,68,24,50,19,109,118,16,55,69,83,87,33,88,105,90,35,75,48,1,98,18,65,79,61,64,51,25,89,7,46,103,45,38,114,30,70,100,94,37,59,101,85,42,10,5,34,43,2,28,27,26,62,80,73,23,9,111,116,93,53,14,99,20,11,92,60,72,102,117,22,40,95,119,63,76,77,110,71,112,113,56,86,67,13,0,74,12,52,66,39,15,44,57,3,97,6,54,4,49,47,81,91,31,58],"cond_shown":["equaldotsize","equaldotanddens","equaldotsize","equaldotanddens","randomdotsizeEA","randomdotsizeEA","equaldotsize","randomdotsizeEA","randomdotsizeEA","equaldotanddens","equaldotsize","equaldotsize","randomdotsizeEA","randomdotsizeEA","equaldotsize","randomdotsizeEA","randomdotsizeEA","equaldotsize","randomdotsizeEA","equaldotanddens","equaldotanddens","equaldotanddens","equaldotanddens","equaldotanddens","equaldotsize","randomdotsizeEA","equaldotsize","equaldotsize","equaldotanddens","equaldotsize","equaldotsize","randomdotsizeEA","equaldotsize","equaldotsize","equaldotanddens","randomdotsizeEA","equaldotsize","randomdotsizeEA","equaldotanddens","equaldotanddens","equaldotanddens","equaldotsize","equaldotanddens","randomdotsizeEA","equaldotanddens","equaldotanddens","equaldotanddens","equaldotsize","randomdotsizeEA","equaldotsize","equaldotsize","equaldotanddens","equaldotanddens","equaldotanddens","equaldotanddens","randomdotsizeEA","randomdotsizeEA","equaldotanddens","equaldotsize","equaldotanddens","randomdotsizeEA","equaldotanddens","equaldotanddens","randomdotsizeEA","equaldotanddens","equaldotsize","randomdotsizeEA","randomdotsizeEA","randomdotsizeEA","equaldotanddens","randomdotsizeEA","equaldotsize","equaldotsize","randomdotsizeEA","equaldotsize","randomdotsizeEA","randomdotsizeEA","equaldotsize","randomdotsizeEA","randomdotsizeEA","randomdotsizeEA","equaldotsize","equaldotsize","equaldotsize","equaldotsize","equaldotanddens","equaldotanddens","randomdotsizeEA","randomdotsizeEA","equaldotsize","equaldotanddens","randomdotsizeEA","randomdotsizeEA","randomdotsizeEA","equaldotanddens","randomdotsizeEA","randomdotsizeEA","randomdotsizeEA","equaldotanddens","equaldotanddens","equaldotsize","randomdotsizeEA","equaldotsize","equaldotanddens","equaldotsize","equaldotsize","equaldotsize","randomdotsizeEA","equaldotsize","equaldotsize","equaldotanddens","equaldotsize","equaldotsize","equaldotanddens","equaldotanddens","randomdotsizeEA","equaldotsize","equaldotanddens","equaldotanddens","equaldotanddens"],"ratio_trial":[250,750,250,900,750,500,900,750,500,900,750,250,500,900,250,750,750,250,250,750,250,900,500,750,900,900,500,900,500,900,750,900,500,250,250,250,750,500,750,250,500,500,250,500,750,900,750,900,250,750,750,900,500,900,250,900,500,250,750,900,500,900,750,250,500,500,250,250,750,250,900,900,500,750,900,500,250,500,750,900,750,250,250,750,900,900,500,900,900,500,500,500,250,900,500,500,750,250,750,250,250,250,250,500,750,500,500,750,900,500,250,750,750,500,250,900,900,750,750,900],"smaller_num":["3","6","6","18","18","5","18","3","9","18","3","2","9","18","3","15","3","3","1","6","3","18","3","3","9","18","1","9","9","18","3","18","10","6","2","1","3","4","15","6","5","2","6","1","3","9","3","18","3","3","15","9","2","18","3","9","5","6","15","9","9","18","6","4","1","9","6","3","15","5","18","18","4","6","18","2","2","9","9","9","3","2","3","9","18","18","5","9","18","6","10","1","3","9","2","2","6","1","6","3","3","3","3","3","6","9","1","15","18","5","1","3","15","9","2","18","9","6","6","9"],"larger_num":["12","8","24","20","24","10","20","4","18","20","4","8","18","20","12","20","4","12","4","8","12","20","6","4","10","20","2","10","18","20","4","20","20","24","8","4","4","8","20","24","10","4","24","2","4","10","4","20","12","4","20","10","4","20","12","10","10","24","20","10","18","20","8","16","2","18","24","12","20","20","20","20","8","8","20","4","8","18","12","10","4","8","12","12","20","20","10","10","20","12","20","2","12","10","4","4","8","4","8","12","12","12","12","6","8","18","2","20","20","10","4","4","20","18","8","20","10","8","8","10"],"correct_side":[1,2,2,1,1,2,1,1,2,2,1,1,2,2,1,2,2,1,2,1,1,1,2,2,2,1,2,1,2,1,1,1,2,1,2,2,1,1,2,1,2,1,1,2,1,1,1,1,2,1,1,2,1,1,2,2,2,1,2,2,2,1,2,1,2,2,1,2,1,2,1,1,1,2,1,1,2,1,2,1,1,1,1,2,1,2,1,2,2,1,2,2,1,2,2,1,1,2,1,2,2,2,1,2,2,2,2,2,1,2,2,2,2,2,2,1,1,1,1,2],"img_shown":["img/250/equaldotsize/L/15_Ratio_250_L_12_R_3.png","img/750/equaldotanddens/R/2_Ratio_750_L_6_R_8.png","img/250/equaldotsize/R/6_Ratio_250_L_6_R_24.png","img/900/equaldotanddens/L/8_Ratio_900_L_20_R_18.png","img/750/randomdotsizeEA/L/6_Ratio_750_L_24_R_18.png","img/500/randomdotsizeEA/R/14_Ratio_500_L_5_R_10.png","img/900/equaldotsize/L/10_Ratio_900_L_20_R_18.png","img/750/randomdotsizeEA/L/8_Ratio_750_L_4_R_3.png","img/500/randomdotsizeEA/R/6_Ratio_500_L_9_R_18.png","img/900/equaldotanddens/R/11_Ratio_900_L_18_R_20.png","img/750/equaldotsize/L/9_Ratio_750_L_4_R_3.png","img/250/equaldotsize/L/3_Ratio_250_L_8_R_2.png","img/500/randomdotsizeEA/R/1_Ratio_500_L_9_R_18.png","img/900/randomdotsizeEA/R/12_Ratio_900_L_18_R_20.png","img/250/equaldotsize/L/14_Ratio_250_L_12_R_3.png","img/750/randomdotsizeEA/R/4_Ratio_750_L_15_R_20.png","img/750/randomdotsizeEA/R/7_Ratio_750_L_3_R_4.png","img/250/equaldotsize/L/14_Ratio_250_L_12_R_3.png","img/250/randomdotsizeEA/R/8_Ratio_250_L_1_R_4.png","img/750/equaldotanddens/L/13_Ratio_750_L_8_R_6.png","img/250/equaldotanddens/L/15_Ratio_250_L_12_R_3.png","img/900/equaldotanddens/L/2_Ratio_900_L_20_R_18.png","img/500/equaldotanddens/R/2_Ratio_500_L_3_R_6.png","img/750/equaldotanddens/R/7_Ratio_750_L_3_R_4.png","img/900/equaldotsize/R/15_Ratio_900_L_9_R_10.png","img/900/randomdotsizeEA/L/8_Ratio_900_L_20_R_18.png","img/500/equaldotsize/R/15_Ratio_500_L_1_R_2.png","img/900/equaldotsize/L/1_Ratio_900_L_10_R_9.png","img/500/equaldotanddens/R/6_Ratio_500_L_9_R_18.png","img/900/equaldotsize/L/10_Ratio_900_L_20_R_18.png","img/750/equaldotsize/L/9_Ratio_750_L_4_R_3.png","img/900/randomdotsizeEA/L/10_Ratio_900_L_20_R_18.png","img/500/equaldotsize/R/3_Ratio_500_L_10_R_20.png","img/250/equaldotsize/L/5_Ratio_250_L_24_R_6.png","img/250/equaldotanddens/R/13_Ratio_250_L_2_R_8.png","img/250/randomdotsizeEA/R/8_Ratio_250_L_1_R_4.png","img/750/equaldotsize/L/9_Ratio_750_L_4_R_3.png","img/500/randomdotsizeEA/L/8_Ratio_500_L_8_R_4.png","img/750/equaldotanddens/R/4_Ratio_750_L_15_R_20.png","img/250/equaldotanddens/L/5_Ratio_250_L_24_R_6.png","img/500/equaldotanddens/R/14_Ratio_500_L_5_R_10.png","img/500/equaldotsize/L/5_Ratio_500_L_4_R_2.png","img/250/equaldotanddens/L/5_Ratio_250_L_24_R_6.png","img/500/randomdotsizeEA/R/15_Ratio_500_L_1_R_2.png","img/750/equaldotanddens/L/8_Ratio_750_L_4_R_3.png","img/900/equaldotanddens/L/1_Ratio_900_L_10_R_9.png","img/750/equaldotanddens/L/10_Ratio_750_L_4_R_3.png","img/900/equaldotsize/L/10_Ratio_900_L_20_R_18.png","img/250/randomdotsizeEA/R/9_Ratio_250_L_3_R_12.png","img/750/equaldotsize/L/8_Ratio_750_L_4_R_3.png","img/750/equaldotsize/L/1_Ratio_750_L_20_R_15.png","img/900/equaldotanddens/R/5_Ratio_900_L_9_R_10.png","img/500/equaldotanddens/L/5_Ratio_500_L_4_R_2.png","img/900/equaldotanddens/L/8_Ratio_900_L_20_R_18.png","img/250/equaldotanddens/R/9_Ratio_250_L_3_R_12.png","img/900/randomdotsizeEA/R/6_Ratio_900_L_9_R_10.png","img/500/randomdotsizeEA/R/14_Ratio_500_L_5_R_10.png","img/250/equaldotanddens/L/5_Ratio_250_L_24_R_6.png","img/750/equaldotsize/R/4_Ratio_750_L_15_R_20.png","img/900/equaldotanddens/R/3_Ratio_900_L_9_R_10.png","img/500/randomdotsizeEA/R/1_Ratio_500_L_9_R_18.png","img/900/equaldotanddens/L/2_Ratio_900_L_20_R_18.png","img/750/equaldotanddens/R/2_Ratio_750_L_6_R_8.png","img/250/randomdotsizeEA/L/2_Ratio_250_L_16_R_4.png","img/500/equaldotanddens/R/12_Ratio_500_L_1_R_2.png","img/500/equaldotsize/R/1_Ratio_500_L_9_R_18.png","img/250/randomdotsizeEA/L/5_Ratio_250_L_24_R_6.png","img/250/randomdotsizeEA/R/4_Ratio_250_L_3_R_12.png","img/750/randomdotsizeEA/L/1_Ratio_750_L_20_R_15.png","img/250/equaldotanddens/R/12_Ratio_250_L_5_R_20.png","img/900/randomdotsizeEA/L/10_Ratio_900_L_20_R_18.png","img/900/equaldotsize/L/2_Ratio_900_L_20_R_18.png","img/500/equaldotsize/L/8_Ratio_500_L_8_R_4.png","img/750/randomdotsizeEA/R/2_Ratio_750_L_6_R_8.png","img/900/equaldotsize/L/2_Ratio_900_L_20_R_18.png","img/500/randomdotsizeEA/L/5_Ratio_500_L_4_R_2.png","img/250/randomdotsizeEA/R/13_Ratio_250_L_2_R_8.png","img/500/equaldotsize/L/4_Ratio_500_L_18_R_9.png","img/750/randomdotsizeEA/R/15_Ratio_750_L_9_R_12.png","img/900/randomdotsizeEA/L/1_Ratio_900_L_10_R_9.png","img/750/randomdotsizeEA/L/10_Ratio_750_L_4_R_3.png","img/250/equaldotsize/L/1_Ratio_250_L_8_R_2.png","img/250/equaldotsize/L/15_Ratio_250_L_12_R_3.png","img/750/equaldotsize/R/15_Ratio_750_L_9_R_12.png","img/900/equaldotsize/L/2_Ratio_900_L_20_R_18.png","img/900/equaldotanddens/R/13_Ratio_900_L_18_R_20.png","img/500/equaldotanddens/L/7_Ratio_500_L_10_R_5.png","img/900/randomdotsizeEA/R/6_Ratio_900_L_9_R_10.png","img/900/randomdotsizeEA/R/9_Ratio_900_L_18_R_20.png","img/500/equaldotsize/L/13_Ratio_500_L_12_R_6.png","img/500/equaldotanddens/R/3_Ratio_500_L_10_R_20.png","img/500/randomdotsizeEA/R/12_Ratio_500_L_1_R_2.png","img/250/randomdotsizeEA/L/15_Ratio_250_L_12_R_3.png","img/900/randomdotsizeEA/R/15_Ratio_900_L_9_R_10.png","img/500/equaldotanddens/R/9_Ratio_500_L_2_R_4.png","img/500/randomdotsizeEA/L/10_Ratio_500_L_4_R_2.png","img/750/randomdotsizeEA/L/13_Ratio_750_L_8_R_6.png","img/250/randomdotsizeEA/R/8_Ratio_250_L_1_R_4.png","img/750/equaldotanddens/L/14_Ratio_750_L_8_R_6.png","img/250/equaldotanddens/R/9_Ratio_250_L_3_R_12.png","img/250/equaldotsize/R/11_Ratio_250_L_3_R_12.png","img/250/randomdotsizeEA/R/9_Ratio_250_L_3_R_12.png","img/250/equaldotsize/L/15_Ratio_250_L_12_R_3.png","img/500/equaldotanddens/R/2_Ratio_500_L_3_R_6.png","img/750/equaldotsize/R/2_Ratio_750_L_6_R_8.png","img/500/equaldotsize/R/1_Ratio_500_L_9_R_18.png","img/500/equaldotsize/R/15_Ratio_500_L_1_R_2.png","img/750/randomdotsizeEA/R/5_Ratio_750_L_15_R_20.png","img/900/equaldotsize/L/2_Ratio_900_L_20_R_18.png","img/500/equaldotsize/R/14_Ratio_500_L_5_R_10.png","img/250/equaldotanddens/R/8_Ratio_250_L_1_R_4.png","img/750/equaldotsize/R/12_Ratio_750_L_3_R_4.png","img/750/equaldotsize/R/3_Ratio_750_L_15_R_20.png","img/500/equaldotanddens/R/1_Ratio_500_L_9_R_18.png","img/250/equaldotanddens/R/13_Ratio_250_L_2_R_8.png","img/900/randomdotsizeEA/L/2_Ratio_900_L_20_R_18.png","img/900/equaldotsize/L/1_Ratio_900_L_10_R_9.png","img/750/equaldotanddens/L/14_Ratio_750_L_8_R_6.png","img/750/equaldotanddens/L/14_Ratio_750_L_8_R_6.png","img/900/equaldotanddens/R/15_Ratio_900_L_9_R_10.png"],"Rat0":[["12_Ratio_0_L_9_R_0.png","13_Ratio_0_L_6_R_0.png","5_Ratio_0_L_2_R_0.png","6_Ratio_0_L_4_R_0.png","8_Ratio_0_L_6_R_0.png"],["1_Ratio_0_L_0_R_17.png","10_Ratio_0_L_0_R_22.png","11_Ratio_0_L_0_R_1.png","14_Ratio_0_L_0_R_24.png","15_Ratio_0_L_0_R_4.png","2_Ratio_0_L_0_R_5.png","3_Ratio_0_L_0_R_17.png","4_Ratio_0_L_0_R_7.png","7_Ratio_0_L_0_R_19.png","9_Ratio_0_L_0_R_15.png"]],"Rat250":[["1_Ratio_250_L_8_R_2.png","14_Ratio_250_L_12_R_3.png","15_Ratio_250_L_12_R_3.png","2_Ratio_250_L_16_R_4.png","3_Ratio_250_L_8_R_2.png","5_Ratio_250_L_24_R_6.png","7_Ratio_250_L_8_R_2.png"],["10_Ratio_250_L_4_R_16.png","11_Ratio_250_L_3_R_12.png","12_Ratio_250_L_5_R_20.png","13_Ratio_250_L_2_R_8.png","4_Ratio_250_L_3_R_12.png","6_Ratio_250_L_6_R_24.png","8_Ratio_250_L_1_R_4.png","9_Ratio_250_L_3_R_12.png"]],"Rat500":[["10_Ratio_500_L_4_R_2.png","11_Ratio_500_L_12_R_6.png","13_Ratio_500_L_12_R_6.png","4_Ratio_500_L_18_R_9.png","5_Ratio_500_L_4_R_2.png","7_Ratio_500_L_10_R_5.png","8_Ratio_500_L_8_R_4.png"],["1_Ratio_500_L_9_R_18.png","12_Ratio_500_L_1_R_2.png","14_Ratio_500_L_5_R_10.png","15_Ratio_500_L_1_R_2.png","2_Ratio_500_L_3_R_6.png","3_Ratio_500_L_10_R_20.png","6_Ratio_500_L_9_R_18.png","9_Ratio_500_L_2_R_4.png"]],"Rat750":[["1_Ratio_750_L_20_R_15.png","10_Ratio_750_L_4_R_3.png","13_Ratio_750_L_8_R_6.png","14_Ratio_750_L_8_R_6.png","6_Ratio_750_L_24_R_18.png","8_Ratio_750_L_4_R_3.png","9_Ratio_750_L_4_R_3.png"],["11_Ratio_750_L_12_R_16.png","12_Ratio_750_L_3_R_4.png","15_Ratio_750_L_9_R_12.png","2_Ratio_750_L_6_R_8.png","3_Ratio_750_L_15_R_20.png","4_Ratio_750_L_15_R_20.png","5_Ratio_750_L_15_R_20.png","7_Ratio_750_L_3_R_4.png"]],"Rat900":[["1_Ratio_900_L_10_R_9.png","10_Ratio_900_L_20_R_18.png","2_Ratio_900_L_20_R_18.png","4_Ratio_900_L_20_R_18.png","8_Ratio_900_L_20_R_18.png"],["11_Ratio_900_L_18_R_20.png","12_Ratio_900_L_18_R_20.png","13_Ratio_900_L_18_R_20.png","14_Ratio_900_L_18_R_20.png","15_Ratio_900_L_9_R_10.png","3_Ratio_900_L_9_R_10.png","5_Ratio_900_L_9_R_10.png","6_Ratio_900_L_9_R_10.png","7_Ratio_900_L_9_R_10.png","9_Ratio_900_L_18_R_20.png"]],"Rat1000":[["10_Ratio_1000_L_16_R_16.png","11_Ratio_1000_L_6_R_6.png","12_Ratio_1000_L_14_R_14.png","13_Ratio_1000_L_20_R_20.png","15_Ratio_1000_L_15_R_15.png","2_Ratio_1000_L_17_R_17.png","4_Ratio_1000_L_9_R_9.png","5_Ratio_1000_L_6_R_6.png","6_Ratio_1000_L_19_R_19.png","8_Ratio_1000_L_14_R_14.png","9_Ratio_1000_L_25_R_25.png"],["1_Ratio_1000_L_1_R_1.png","14_Ratio_1000_L_17_R_17.png","3_Ratio_1000_L_17_R_17.png","7_Ratio_1000_L_6_R_6.png"]]}},{"start_time":1552055104429,"click_time":1552055105999,"finger_time":1552055105179,"fix_duration":250,"trial":1,"RT":750,"MT":820,"sideResp":2,"stimulus":"img/750/equaldotanddens/R/2_Ratio_750_L_6_R_8.png","xmouse":[806,807,807,807,807,807,807,807,807,807,807,807,805,805,805,805,804,804,803,803,803,803,802,802,802,802,802,802,802,802,802,802,802,802,802,804,806,829,861,903,941,969,1040,1120,1228,1309,1365,1376,1376,1376,1376,1376,1376,1376,1376,1375,1369,1331,1309,1296,1289,1284,1281,1281,1280,1277,1273,1266,1260,1248,1232,1223,1182,1175,1174,1174,1174,1160,1154],"ymouse":[505,504,502,502,502,502,502,501,500,500,499,498,495,495,495,495,494,494,494,494,494,494,494,494,494,494,494,494,494,494,494,494,493,491,488,485,478,441,397,339,280,237,155,121,96,85,79,77,77,77,77,77,77,77,77,77,76,64,55,48,43,41,39,39,39,39,39,37,37,37,37,39,37,36,36,36,36,34,33],"timestamp_mouse":[9,31,50,71,89,110,131,149,169,191,209,231,251,270,289,311,331,351,371,389,409,430,449,471,490,510,531,550,571,590,609,631,650,669,689,709,731,750,770,791,810,829,850,869,889,911,929,950,970,991,1010,1030,1050,1071,1089,1110,1130,1150,1170,1190,1209,1230,1250,1270,1290,1310,1330,1350,1369,1391,1409,1430,1450,1470,1489,1511,1530,1550,1570],"xSR":741.5,"ySR":469.95,"xT1":424.9,"yT1":0,"xT2":1058.1,"yT2":0,"toosoon":0,"cond_shown":"equaldotanddens","ratio_trial":750,"smaller_num":"6","larger_num":"8","correct_side":2,"subjID":"EmilianoCallejasGonzalez23","gender":"0","age":"9","school":"4"},{"start_time":1552055108031,"click_time":1552055109080,"finger_time":1552055108679,"fix_duration":250,"trial":2,"RT":648,"MT":401,"sideResp":2,"stimulus":"img/250/equaldotsize/R/6_Ratio_250_L_6_R_24.png","xmouse":[746,746,746,746,746,746,746,746,746,746,746,746,746,746,746,746,746,746,746,746,746,746,746,746,746,748,750,753,757,762,771,780,798,823,836,857,889,945,1076,1110,1141,1152,1163,1163,1163,1165,1166,1167,1167,1167,1167,1167,1153],"ymouse":[514,514,514,514,514,514,514,514,514,514,514,514,514,514,514,514,514,514,514,514,514,514,514,514,514,513,511,506,501,493,480,471,456,434,419,400,374,326,205,158,115,100,87,87,87,84,80,66,62,59,56,56,52],"timestamp_mouse":[10,27,47,69,87,107,127,149,169,187,207,227,249,267,288,308,328,348,368,389,409,427,448,468,489,508,528,548,567,588,607,629,648,668,689,707,729,748,769,788,808,828,849,867,887,908,928,949,968,987,1008,1029,1049],"xSR":741.5,"ySR":469.95,"xT1":424.9,"yT1":0,"xT2":1058.1,"yT2":0,"toosoon":0,"cond_shown":"equaldotsize","ratio_trial":250,"smaller_num":"6","larger_num":"24","correct_side":2,"subjID":"EmilianoCallejasGonzalez23","gender":"0","age":"9","school":"4"},{"start_time":1552055110169,"click_time":1552055111399,"finger_time":1552055110799,"fix_duration":468.2300706111958,"trial":3,"RT":630,"MT":600,"sideResp":2,"stimulus":"img/900/equaldotanddens/L/8_Ratio_900_L_20_R_18.png","xmouse":[759,759,758,758,758,758,758,757,757,757,757,757,757,757,757,757,755,754,754,754,754,754,754,754,754,754,754,759,762,770,791,864,931,973,1009,1052,1136,1168,1185,1194,1201,1207,1209,1209,1209,1209,1209,1209,1209,1208,1206,1200,1198,1196,1196,1196,1196,1193,1188,1181,1170,1145],"ymouse":[528,529,529,529,529,530,530,530,530,530,530,530,530,530,530,531,532,534,535,536,536,536,536,536,536,536,536,533,530,524,510,455,400,360,317,267,161,118,90,77,62,49,43,39,37,33,29,28,28,27,27,26,26,26,26,26,26,26,26,26,26,35],"timestamp_mouse":[11,31,50,71,90,111,131,151,170,191,211,230,251,270,290,310,330,349,370,389,411,431,450,471,490,511,531,551,571,589,611,630,651,670,690,711,730,749,771,789,811,830,850,870,889,910,929,951,971,991,1010,1029,1049,1070,1090,1110,1131,1149,1169,1189,1210,1230],"xSR":741.5,"ySR":469.95,"xT1":424.9,"yT1":0,"xT2":1058.1,"yT2":0,"toosoon":0,"cond_shown":"equaldotanddens","ratio_trial":900,"smaller_num":"18","larger_num":"20","correct_side":1,"subjID":"EmilianoCallejasGonzalez23","gender":"0","age":"9","school":"4"},{"start_time":1552055114412,"click_time":1552055116299,"finger_time":1552055115300,"fix_duration":1412.0508509060446,"trial":4,"RT":888,"MT":999,"sideResp":2,"stimulus":"img/750/randomdotsizeEA/L/6_Ratio_750_L_24_R_18.png","xmouse":[799,799,799,799,799,799,799,799,799,799,799,799,799,799,799,799,799,799,799,799,799,799,799,799,799,799,799,799,799,799,799,801,802,802,802,802,803,803,803,803,803,803,803,805,806,806,806,806,806,806,806,806,806,809,819,825,832,843,856,864,867,871,873,878,889,895,906,912,921,941,948,954,957,962,970,977,983,992,999,1013,1018,1019,1022,1023,1026,1037,1044,1050,1058,1063,1070,1073,1074,1076,1084],"ymouse":[502,502,502,502,502,502,502,502,502,502,502,502,502,502,502,502,502,502,502,502,502,502,502,502,502,502,502,502,502,502,499,496,492,491,489,488,486,485,483,481,477,475,473,470,466,464,464,464,464,464,464,464,462,459,451,447,442,434,423,416,412,408,405,399,387,379,371,366,361,345,340,334,331,325,310,297,288,277,270,253,242,234,221,206,191,167,156,146,132,124,115,109,107,104,97],"timestamp_mouse":[7,27,47,67,86,108,128,148,166,186,208,228,248,267,288,308,328,347,367,388,408,426,448,468,487,508,527,546,568,587,607,627,647,667,688,708,726,748,768,787,808,828,848,867,888,907,927,948,966,987,1007,1028,1047,1067,1087,1107,1127,1146,1168,1187,1206,1228,1247,1267,1287,1307,1327,1347,1368,1387,1407,1426,1447,1468,1487,1507,1528,1546,1567,1587,1607,1627,1646,1667,1688,1707,1727,1748,1766,1787,1807,1826,1847,1868,1887],"xSR":741.5,"ySR":469.95,"xT1":424.9,"yT1":0,"xT2":1058.1,"yT2":0,"toosoon":0,"cond_shown":"randomdotsizeEA","ratio_trial":750,"smaller_num":"18","larger_num":"24","correct_side":1,"subjID":"EmilianoCallejasGonzalez23","gender":"0","age":"9","school":"4"},{"start_time":1552055120152,"click_time":1552055121700,"finger_time":1552055120999,"fix_duration":851.4547260799388,"trial":5,"RT":847,"MT":701,"sideResp":2,"stimulus":"img/500/randomdotsizeEA/R/14_Ratio_500_L_5_R_10.png","xmouse":[801,801,801,801,801,801,801,801,801,801,801,801,801,803,807,809,813,819,824,826,828,830,832,832,832,832,832,832,833,835,835,836,836,836,836,836,836,836,836,836,836,836,842,860,877,895,921,953,1024,1073,1097,1116,1131,1163,1175,1185,1194,1204,1217,1221,1221,1221,1221,1221,1221,1221,1221,1221,1221,1221,1221,1221,1221,1221,1221,1221,1221,1135],"ymouse":[532,532,532,532,532,532,532,532,532,532,532,532,532,532,532,532,532,531,529,529,528,528,527,527,527,527,527,526,526,525,525,525,525,525,525,525,525,525,525,525,525,525,523,514,505,493,478,460,413,380,362,345,329,290,270,245,215,179,95,61,38,19,0,0,0,0,0,0,0,0,0,0,0,0,0,0,0,23],"timestamp_mouse":[7,26,48,66,87,108,128,147,167,188,208,228,246,268,287,307,328,346,367,388,407,428,447,468,487,506,526,547,568,586,607,627,647,667,688,707,727,747,767,788,808,826,847,866,886,907,926,946,966,987,1008,1028,1046,1066,1088,1107,1127,1148,1167,1187,1206,1227,1248,1268,1287,1308,1327,1348,1367,1387,1406,1428,1448,1467,1488,1508,1527,1548],"xSR":741.5,"ySR":469.95,"xT1":424.9,"yT1":0,"xT2":1058.1,"yT2":0,"toosoon":0,"cond_shown":"randomdotsizeEA","ratio_trial":500,"smaller_num":"5","larger_num":"10","correct_side":2,"subjID":"EmilianoCallejasGonzalez23","gender":"0","age":"9","school":"4"},{"start_time":1552055124550,"click_time":1552055126220,"finger_time":1552055125619,"fix_duration":1471.2037987218716,"trial":6,"RT":1069,"MT":601,"sideResp":1,"stimulus":"img/900/equaldotsize/L/10_Ratio_900_L_20_R_18.png","xmouse":[785,785,785,785,785,785,785,785,785,785,785,785,785,785,785,785,785,785,785,785,785,785,785,785,785,785,785,785,785,785,785,785,785,785,785,785,788,789,790,790,790,790,790,790,790,790,790,790,791,791,791,791,791,786,784,780,776,767,761,744,737,725,716,708,698,693,688,675,649,638,625,615,610,608,608,604,598,586,580,579,573,557,531,508],"ymouse":[517,517,517,517,517,517,517,517,517,517,517,517,517,517,517,517,517,517,517,517,517,517,517,517,517,517,517,517,517,517,517,517,517,517,517,517,513,512,511,511,511,511,511,511,511,511,511,511,506,503,498,491,484,462,454,448,441,427,412,373,344,308,273,245,210,199,191,179,150,136,120,108,103,102,101,100,98,94,92,91,90,87,81,75],"timestamp_mouse":[9,29,49,70,89,109,130,149,169,188,209,229,250,269,289,308,329,348,369,390,410,428,449,470,489,509,530,549,570,589,608,628,648,668,689,709,730,749,770,788,810,830,850,868,889,910,929,950,969,990,1009,1029,1048,1069,1090,1110,1128,1149,1168,1189,1208,1228,1250,1270,1288,1309,1329,1348,1370,1389,1409,1428,1449,1469,1490,1509,1528,1549,1570,1590,1610,1629,1649,1669],"xSR":741.5,"ySR":469.95,"xT1":424.9,"yT1":0,"xT2":1058.1,"yT2":0,"toosoon":0,"cond_shown":"equaldotsize","ratio_trial":900,"smaller_num":"18","larger_num":"20","correct_side":1,"subjID":"EmilianoCallejasGonzalez23","gender":"0","age":"9","school":"4"},{"start_time":1552055127916,"click_time":1552055129699,"finger_time":1552055129118,"fix_duration":395.9157163025894,"trial":7,"RT":1202,"MT":581,"sideResp":1,"stimulus":"img/750/randomdotsizeEA/L/8_Ratio_750_L_4_R_3.png","xmouse":[769,769,769,769,769,769,769,769,769,769,771,774,775,776,776,776,776,776,776,776,776,776,776,776,776,776,776,776,776,776,776,776,776,777,777,777,777,777,777,777,777,777,777,777,777,777,777,777,777,777,777,777,777,776,773,769,764,761,760,758,755,738,723,695,659,616,575,575,575,575,575,575,575,575,575,575,575,575,575,575,575,575,575,391,391,395,403,410,419,429],"ymouse":[523,523,523,523,523,523,523,523,523,523,523,523,522,522,522,522,522,522,522,522,522,522,522,522,522,522,522,522,522,522,522,522,522,520,520,520,520,520,520,520,520,520,520,520,520,520,520,520,520,520,520,520,516,510,506,499,486,480,477,473,467,438,404,339,258,140,8,8,8,8,8,8,8,8,8,8,8,8,8,8,8,8,8,7,13,17,21,23,26,30],"timestamp_mouse":[3,25,44,64,84,102,124,143,164,184,202,222,244,262,283,303,324,342,363,384,403,424,444,462,483,504,523,543,564,584,602,623,644,664,682,703,723,742,762,784,804,824,844,863,882,904,923,943,962,983,1003,1024,1042,1063,1084,1103,1123,1142,1163,1184,1202,1222,1243,1264,1282,1303,1324,1343,1363,1382,1402,1422,1443,1463,1483,1504,1523,1543,1563,1583,1603,1623,1643,1662,1683,1702,1724,1744,1762,1783],"xSR":741.5,"ySR":469.95,"xT1":424.9,"yT1":0,"xT2":1058.1,"yT2":0,"toosoon":0,"cond_shown":"randomdotsizeEA","ratio_trial":750,"smaller_num":"3","larger_num":"4","correct_side":1,"subjID":"EmilianoCallejasGonzalez23","gender":"0","age":"9","school":"4"},{"start_time":1552055133089,"click_time":1552055134600,"finger_time":1552055133879,"fix_duration":267.6786443402516,"trial":8,"RT":790,"MT":721,"sideResp":2,"stimulus":"img/500/randomdotsizeEA/R/6_Ratio_500_L_9_R_18.png","xmouse":[805,805,805,805,805,805,805,805,805,805,805,805,805,805,805,805,805,805,805,805,805,805,805,805,805,805,805,805,805,805,805,805,805,805,805,805,805,809,819,851,892,928,994,1033,1049,1049,1049,1049,1049,1049,1049,1049,1049,1049,1049,1049,1049,1049,1049,1049,1049,1049,1049,1049,1049,1049,1049,1049,1049,1049,1049,1049,1049,1049,1049,1145],"ymouse":[529,529,529,529,529,529,529,529,529,529,529,529,529,529,529,529,529,529,529,529,529,529,529,529,529,529,529,529,529,529,529,529,529,529,529,529,529,512,486,432,353,274,121,49,18,18,18,18,18,18,18,18,18,18,18,18,18,18,18,18,18,18,18,18,18,18,18,18,18,18,18,18,18,18,18,1],"timestamp_mouse":[10,30,49,71,90,110,130,150,169,189,210,231,250,269,290,310,330,351,370,391,410,431,449,470,490,511,530,550,570,590,610,631,649,671,691,710,730,750,769,790,809,829,851,870,891,909,930,950,970,991,1010,1030,1050,1069,1089,1110,1129,1151,1170,1190,1211,1230,1250,1269,1291,1310,1330,1351,1371,1389,1409,1430,1450,1470,1489,1511],"xSR":741.5,"ySR":469.95,"xT1":424.9,"yT1":0,"xT2":1058.1,"yT2":0,"toosoon":0,"cond_shown":"randomdotsizeEA","ratio_trial":500,"smaller_num":"9","larger_num":"18","correct_side":2,"subjID":"EmilianoCallejasGonzalez23","gender":"0","age":"9","school":"4"},{"start_time":1552055136238,"click_time":1552055137759,"finger_time":1552055136900,"fix_duration":258.7752494768705,"trial":9,"RT":662,"MT":859,"sideResp":2,"stimulus":"img/900/equaldotanddens/R/11_Ratio_900_L_18_R_20.png","xmouse":[820,820,820,820,820,820,820,820,820,822,823,823,823,823,823,823,823,823,823,823,823,823,823,823,823,823,823,824,824,824,825,827,827,829,830,839,843,854,860,866,872,887,895,905,914,919,927,927,928,931,933,941,950,958,975,1020,1045,1052,1055,1057,1059,1060,1062,1063,1064,1066,1066,1066,1066,1066,1066,1067,1068,1071,1074,1076,1080],"ymouse":[494,494,494,494,494,494,494,494,494,494,493,492,492,492,492,492,492,492,492,492,492,492,492,492,492,492,492,491,491,491,491,487,480,468,457,425,411,389,376,364,352,320,302,282,263,252,240,239,239,238,237,232,227,221,209,182,165,160,158,156,156,154,152,150,145,142,136,133,132,132,131,129,127,117,111,102,94],"timestamp_mouse":[4,23,41,61,81,102,121,140,160,180,202,221,240,261,282,301,322,341,362,380,401,422,442,462,481,500,521,542,562,581,601,621,641,662,682,701,720,740,761,781,801,821,842,861,882,901,921,942,960,981,1000,1022,1040,1061,1081,1102,1120,1141,1161,1181,1201,1221,1241,1260,1281,1301,1321,1341,1360,1381,1402,1421,1440,1460,1482,1501,1521],"xSR":741.5,"ySR":469.95,"xT1":424.9,"yT1":0,"xT2":1058.1,"yT2":0,"toosoon":0,"cond_shown":"equaldotanddens","ratio_trial":900,"smaller_num":"18","larger_num":"20","correct_side":2,"subjID":"EmilianoCallejasGonzalez23","gender":"0","age":"9","school":"4"},{"start_time":1552055139838,"click_time":1552055141239,"finger_time":1552055140699,"fix_duration":577.4557090129251,"trial":10,"RT":861,"MT":540,"sideResp":1,"stimulus":"img/750/equaldotsize/L/9_Ratio_750_L_4_R_3.png","xmouse":[745,746,746,746,746,747,748,748,748,748,748,748,748,748,748,748,748,748,748,748,748,748,748,748,748,748,748,748,748,748,748,748,748,748,748,748,748,748,748,748,747,745,743,741,739,737,737,737,735,734,729,718,695,688,677,661,635,624,614,610,606,601,589,581,572,559,548,532,528,525,522],"ymouse":[541,539,539,539,538,537,537,537,537,537,537,537,537,537,537,537,537,537,537,537,537,537,537,536,536,536,536,536,536,535,534,532,531,531,530,530,528,528,527,526,523,521,519,514,506,498,493,490,486,483,477,465,428,406,377,343,284,264,247,235,222,210,181,163,139,110,89,60,51,45,42],"timestamp_mouse":[4,25,41,61,82,101,121,140,161,182,202,222,241,260,282,301,321,341,362,382,402,422,442,461,480,500,521,541,561,582,601,621,641,661,682,701,722,740,761,781,802,821,841,861,880,901,921,940,962,982,1002,1021,1042,1062,1082,1102,1120,1141,1161,1180,1201,1221,1242,1261,1282,1302,1320,1341,1360,1380,1401],"xSR":741.5,"ySR":469.95,"xT1":424.9,"yT1":0,"xT2":1058.1,"yT2":0,"toosoon":0,"cond_shown":"equaldotsize","ratio_trial":750,"smaller_num":"3","larger_num":"4","correct_side":1,"subjID":"EmilianoCallejasGonzalez23","gender":"0","age":"9","school":"4"},{"start_time":1552055143108,"click_time":1552055144319,"finger_time":1552055143899,"fix_duration":506.8127090462109,"trial":11,"RT":791,"MT":420,"sideResp":1,"stimulus":"img/250/equaldotsize/L/3_Ratio_250_L_8_R_2.png","xmouse":[790,790,790,790,790,790,788,787,785,785,785,784,783,783,783,783,783,781,781,779,778,778,778,778,778,778,778,778,778,778,778,778,778,778,778,778,778,778,775,767,759,749,727,720,713,707,700,684,674,656,641,631,618,614,607,598,587,561,547,531,513],"ymouse":[500,500,500,500,500,500,500,500,500,500,500,500,500,500,500,500,500,500,500,500,500,498,494,494,492,492,492,492,491,491,489,487,485,485,484,484,482,480,474,464,455,446,417,396,374,351,331,292,273,246,226,210,187,173,158,131,110,67,46,28,14],"timestamp_mouse":[11,32,51,71,91,111,131,152,171,191,211,231,252,271,292,312,331,352,371,391,411,430,451,471,491,510,531,551,572,592,611,631,650,672,691,710,730,750,771,791,811,831,852,872,892,910,931,951,971,991,1012,1031,1052,1070,1092,1110,1131,1152,1171,1192,1211],"xSR":741.5,"ySR":469.95,"xT1":424.9,"yT1":0,"xT2":1058.1,"yT2":0,"toosoon":0,"cond_shown":"equaldotsize","ratio_trial":250,"smaller_num":"2","larger_num":"8","correct_side":1,"subjID":"EmilianoCallejasGonzalez23","gender":"0","age":"9","school":"4"},{"start_time":1552055145923,"click_time":1552055147599,"finger_time":1552055146918,"fix_duration":602.3746707296762,"trial":12,"RT":995,"MT":681,"sideResp":2,"stimulus":"img/500/randomdotsizeEA/R/1_Ratio_500_L_9_R_18.png","xmouse":[776,773,771,769,769,768,768,768,768,767,766,765,764,764,764,764,762,762,761,761,761,761,761,761,761,761,761,761,761,761,761,761,761,761,761,761,761,761,761,761,761,761,761,761,761,761,761,761,761,761,761,761,761,761,760,759,759,752,749,746,744,744,744,744,744,744,744,744,749,756,766,775,796,811,826,844,862,926,953,978,1000,1026,1076,1134],"ymouse":[482,482,481,481,481,480,480,480,480,480,480,480,480,480,480,480,480,480,479,479,479,479,479,479,479,479,479,479,479,479,479,479,479,479,479,479,479,479,479,479,479,476,475,474,474,472,472,470,470,467,466,464,461,460,454,449,442,403,375,349,329,316,300,297,296,295,293,292,289,285,281,277,258,244,228,215,201,178,170,158,153,140,114,90],"timestamp_mouse":[16,36,57,76,97,116,137,155,177,196,216,237,256,276,296,316,336,356,375,395,416,436,455,475,495,517,536,557,577,595,617,635,656,676,696,717,737,756,776,797,817,836,855,875,896,916,936,956,976,995,1016,1037,1056,1077,1096,1117,1135,1156,1175,1195,1216,1237,1256,1276,1295,1315,1338,1355,1376,1396,1416,1436,1456,1476,1495,1517,1537,1556,1577,1597,1616,1637,1656,1676],"xSR":741.5,"ySR":469.95,"xT1":424.9,"yT1":0,"xT2":1058.1,"yT2":0,"toosoon":0,"cond_shown":"randomdotsizeEA","ratio_trial":500,"smaller_num":"9","larger_num":"18","correct_side":2,"subjID":"EmilianoCallejasGonzalez23","gender":"0","age":"9","school":"4"},{"start_time":1552055149989,"click_time":1552055151079,"finger_time":1552055150978,"fix_duration":608.7792529721675,"trial":13,"RT":989,"MT":101,"sideResp":2,"stimulus":"img/900/randomdotsizeEA/R/12_Ratio_900_L_18_R_20.png","xmouse":[821,821,821,821,821,821,822,824,824,824,824,824,824,825,827,827,827,827,827,827,827,827,827,827,827,827,827,827,827,827,827,827,827,827,827,827,827,827,827,827,827,827,827,827,827,827,829,830,836,842,866,880,905,999,1135],"ymouse":[512,512,512,512,512,518,530,536,538,538,539,540,542,544,544,544,544,544,544,544,544,544,544,544,544,544,544,544,544,544,544,544,544,544,544,544,544,544,544,544,544,544,544,544,544,544,541,534,517,501,445,388,345,222,45],"timestamp_mouse":[11,29,50,71,89,111,130,149,170,191,210,230,250,270,289,310,329,350,371,389,410,431,449,470,490,511,530,550,571,589,610,630,650,670,690,709,731,751,771,789,811,830,850,870,891,910,931,949,970,989,1010,1030,1051,1070,1090],"xSR":741.5,"ySR":469.95,"xT1":424.9,"yT1":0,"xT2":1058.1,"yT2":0,"toosoon":0,"cond_shown":"randomdotsizeEA","ratio_trial":900,"smaller_num":"18","larger_num":"20","correct_side":2,"subjID":"EmilianoCallejasGonzalez23","gender":"0","age":"9","school":"4"},{"start_time":1552055154510,"click_time":1552055156220,"finger_time":1552055155239,"fix_duration":250,"trial":14,"RT":729,"MT":981,"sideResp":1,"stimulus":"img/250/equaldotsize/L/14_Ratio_250_L_12_R_3.png","xmouse":[788,788,788,788,788,788,788,788,788,788,788,788,788,788,788,788,788,788,788,788,788,788,788,788,788,788,788,788,788,788,788,788,788,788,788,782,777,773,772,772,773,776,771,763,732,712,706,696,685,642,605,561,528,473,428,354,326,288,278,275,275,275,275,275,280,296,306,313,320,338,346,356,363,370,387,387,387,387,387,390,394,395,401,408,422,425],"ymouse":[524,524,522,522,522,522,522,521,520,520,519,518,518,518,517,517,517,516,516,516,516,515,515,515,513,513,513,513,513,512,510,509,508,506,492,484,469,454,431,372,342,321,301,286,262,252,251,245,239,213,198,177,161,132,112,77,57,40,35,28,27,26,26,26,23,23,23,23,23,23,23,23,23,25,27,27,27,27,27,28,29,29,32,32,35,35],"timestamp_mouse":[9,29,50,70,90,111,131,150,170,191,209,230,250,270,289,310,330,349,369,389,410,429,450,469,489,510,531,549,570,590,610,629,649,669,690,709,729,749,770,789,809,829,850,871,890,909,931,950,970,989,1009,1030,1050,1069,1089,1110,1129,1149,1171,1189,1210,1229,1249,1270,1289,1310,1330,1349,1371,1389,1409,1429,1449,1471,1490,1509,1529,1551,1571,1590,1610,1630,1649,1670,1690,1710],"xSR":741.5,"ySR":469.95,"xT1":424.9,"yT1":0,"xT2":1058.1,"yT2":0,"toosoon":0,"cond_shown":"equaldotsize","ratio_trial":250,"smaller_num":"3","larger_num":"12","correct_side":1,"subjID":"EmilianoCallejasGonzalez23","gender":"0","age":"9","school":"4"},{"start_time":1552055158567,"click_time":1552055159799,"finger_time":1552055159340,"fix_duration":1067.202092694196,"trial":15,"RT":773,"MT":459,"sideResp":2,"stimulus":"img/750/randomdotsizeEA/R/4_Ratio_750_L_15_R_20.png","xmouse":[762,762,762,762,762,762,762,762,762,762,762,762,762,762,762,762,762,762,762,762,762,762,762,762,762,762,762,762,762,762,762,762,762,762,762,762,762,769,786,817,893,960,979,994,1007,1016,1026,1031,1035,1038,1041,1046,1047,1047,1048,1048,1048,1048,1049,1055,1059,1078],"ymouse":[493,493,493,493,493,493,493,493,493,493,493,493,493,493,493,493,493,493,493,493,493,493,493,493,493,493,493,493,492,488,483,479,479,479,479,479,479,476,466,447,397,331,304,283,266,254,241,236,232,227,220,210,205,203,201,201,197,193,184,158,126,17],"timestamp_mouse":[12,32,53,74,93,112,133,154,174,192,212,232,252,274,294,312,332,353,372,393,413,433,452,474,494,512,533,553,573,593,613,633,652,674,694,714,733,752,773,793,812,832,852,874,893,914,933,952,972,994,1013,1033,1054,1072,1094,1113,1133,1152,1173,1193,1213,1232],"xSR":741.5,"ySR":469.95,"xT1":424.9,"yT1":0,"xT2":1058.1,"yT2":0,"toosoon":0,"cond_shown":"randomdotsizeEA","ratio_trial":750,"smaller_num":"15","larger_num":"20","correct_side":2,"subjID":"EmilianoCallejasGonzalez23","gender":"0","age":"9","school":"4"},{"start_time":1552055161162,"click_time":1552055163219,"finger_time":1552055161740,"fix_duration":520.1679068913204,"trial":16,"RT":578,"MT":1479,"sideResp":2,"stimulus":"img/750/randomdotsizeEA/R/7_Ratio_750_L_3_R_4.png","xmouse":[764,764,764,764,764,764,764,764,764,764,764,764,764,764,764,764,764,763,763,762,762,762,762,762,761,761,760,760,760,759,759,759,759,759,759,759,758,757,757,757,757,757,757,757,757,757,757,757,757,757,757,757,757,757,757,757,757,757,759,759,759,759,741,716,671,615,561,561,561,561,561,561,561,561,561,561,561,561,561,561,561,561,807,821,838,856,875,910,928,943,958,970,987,994,998,1001,1007,1010,1015,1016,1019,1024,1065],"ymouse":[480,480,480,480,480,480,480,480,480,480,480,480,480,480,480,480,480,479,479,477,477,477,476,474,472,471,470,470,469,468,468,468,468,466,466,466,464,461,461,460,459,458,457,457,456,455,453,452,450,448,448,446,441,437,434,430,425,417,411,406,400,395,362,318,230,116,20,20,20,20,20,20,20,20,20,20,20,20,20,20,20,20,7,12,18,22,28,38,44,49,53,56,59,59,61,61,63,63,63,63,63,63,63],"timestamp_mouse":[18,38,59,79,98,117,137,158,178,198,217,237,258,278,298,318,339,358,381,398,418,437,459,478,498,518,537,558,578,597,618,637,659,678,697,717,737,757,779,799,817,838,858,879,898,917,939,957,977,999,1018,1038,1058,1078,1098,1117,1137,1157,1178,1199,1218,1237,1257,1278,1298,1319,1339,1358,1377,1397,1418,1437,1458,1478,1497,1519,1538,1558,1577,1598,1618,1639,1658,1678,1697,1718,1737,1758,1778,1797,1818,1837,1857,1879,1898,1917,1939,1958,1977,1997,2018,2038,2057],"xSR":741.5,"ySR":469.95,"xT1":424.9,"yT1":0,"xT2":1058.1,"yT2":0,"toosoon":0,"cond_shown":"randomdotsizeEA","ratio_trial":750,"smaller_num":"3","larger_num":"4","correct_side":2,"subjID":"EmilianoCallejasGonzalez23","gender":"0","age":"9","school":"4"},{"start_time":1552055164895,"click_time":1552055167000,"finger_time":1552055166720,"fix_duration":535.6640891822285,"trial":17,"RT":1825,"MT":280,"sideResp":2,"stimulus":"img/250/equaldotsize/L/14_Ratio_250_L_12_R_3.png","xmouse":[810,810,810,810,810,810,810,810,811,811,811,811,811,811,811,811,811,811,811,813,815,815,815,817,818,821,821,821,821,821,821,821,821,821,821,821,821,821,821,821,821,821,821,821,821,821,821,821,821,821,821,821,821,821,821,821,821,821,821,821,821,821,821,821,821,821,821,821,821,821,821,821,821,821,821,821,821,821,821,821,821,821,821,821,821,821,821,821,821,822,823,902,966,1028,1070,1096,1109,1106,1104,1104,1104,1104,1104,1104,1104,1104],"ymouse":[525,525,525,525,525,525,525,524,522,519,514,506,503,501,500,500,500,500,500,505,508,509,509,504,497,493,492,492,492,492,492,492,492,492,492,492,492,492,492,492,492,492,492,492,492,492,492,492,492,492,492,492,492,492,492,492,492,492,492,492,492,492,492,492,492,492,492,492,492,492,492,492,492,492,492,492,492,492,492,492,492,492,492,492,492,492,492,492,492,489,483,383,330,275,233,193,136,122,112,109,107,101,100,100,100,99],"timestamp_mouse":[4,24,44,65,85,105,124,145,164,186,205,225,246,264,285,305,324,345,365,385,404,424,446,465,485,505,524,545,564,585,606,624,644,664,686,705,724,744,764,786,804,824,844,866,884,905,925,945,966,985,1004,1025,1044,1065,1086,1105,1125,1145,1164,1185,1206,1224,1246,1266,1285,1304,1324,1346,1364,1384,1405,1425,1446,1464,1484,1505,1525,1544,1565,1586,1605,1624,1645,1665,1685,1705,1726,1744,1764,1785,1806,1825,1845,1865,1885,1905,1925,1944,1965,1984,2005,2025,2044,2064,2085,2105],"xSR":741.5,"ySR":469.95,"xT1":424.9,"yT1":0,"xT2":1058.1,"yT2":0,"toosoon":0,"cond_shown":"equaldotsize","ratio_trial":250,"smaller_num":"3","larger_num":"12","correct_side":1,"subjID":"EmilianoCallejasGonzalez23","gender":"0","age":"9","school":"4"},{"start_time":1552055171081,"click_time":1552055173041,"finger_time":1552055171900,"fix_duration":1241.0735705632403,"trial":18,"RT":819,"MT":1141,"sideResp":2,"stimulus":"img/250/randomdotsizeEA/R/8_Ratio_250_L_1_R_4.png","xmouse":[787,787,787,787,787,787,787,787,787,787,787,787,787,787,787,787,787,787,787,787,787,787,787,787,787,787,787,787,787,787,786,785,784,784,783,783,783,783,783,785,790,797,799,801,802,802,802,800,791,778,767,757,750,748,748,748,748,749,758,769,784,801,823,834,854,873,892,939,979,1003,1021,1037,1062,1071,1079,1081,1082,1084,1085,1085,1085,1085,1085,1085,1085,1085,1080,1076,1076,1075,1075,1075,1075,1075,1075,1075,1075,1077],"ymouse":[511,511,511,511,511,511,511,511,511,511,511,511,511,511,511,511,511,511,511,511,511,511,511,511,511,511,511,511,511,511,508,507,504,500,499,496,494,487,480,475,467,454,450,448,447,446,445,436,429,418,409,399,388,385,385,384,384,381,377,374,370,365,356,353,346,341,334,313,295,280,266,252,216,205,193,186,172,143,121,114,107,105,105,105,105,104,103,102,102,101,101,101,101,101,101,100,100,98],"timestamp_mouse":[18,39,58,78,100,120,139,159,180,198,219,238,258,279,299,318,338,359,380,398,419,439,459,480,498,519,539,559,578,599,620,639,659,678,698,719,739,758,779,798,819,839,858,878,898,920,938,958,980,999,1018,1039,1059,1078,1099,1119,1140,1158,1180,1198,1219,1239,1258,1278,1298,1318,1339,1359,1379,1399,1419,1440,1459,1479,1499,1520,1539,1559,1578,1598,1618,1639,1658,1678,1698,1720,1739,1758,1780,1800,1818,1838,1858,1878,1899,1918,1939,1960],"xSR":741.5,"ySR":469.95,"xT1":424.9,"yT1":0,"xT2":1058.1,"yT2":0,"toosoon":0,"cond_shown":"randomdotsizeEA","ratio_trial":250,"smaller_num":"1","larger_num":"4","correct_side":2,"subjID":"EmilianoCallejasGonzalez23","gender":"0","age":"9","school":"4"},{"start_time":1552055175518,"click_time":1552055176840,"finger_time":1552055176240,"fix_duration":1458.804472880696,"trial":19,"RT":722,"MT":600,"sideResp":1,"stimulus":"img/750/equaldotanddens/L/13_Ratio_750_L_8_R_6.png","xmouse":[809,809,809,809,809,809,809,809,809,809,809,809,809,809,809,809,809,809,809,809,809,809,809,809,809,809,809,809,809,809,809,809,809,809,809,809,809,811,811,813,813,808,804,798,795,788,771,761,752,737,717,695,661,655,653,642,631,629,627,620,611,604,594,583,557,538,518],"ymouse":[486,485,485,484,484,483,483,483,482,482,482,482,481,481,481,481,481,481,481,481,481,481,481,481,481,481,481,481,481,481,481,481,481,481,481,481,468,453,436,416,395,344,317,283,257,235,186,169,154,140,125,114,92,89,87,84,82,81,81,81,79,77,76,74,72,68,65],"timestamp_mouse":[1,22,42,61,81,102,121,141,161,183,202,222,241,261,281,301,321,341,361,382,402,421,441,461,482,501,521,541,562,582,601,621,641,661,683,701,722,741,762,782,801,822,842,862,883,902,922,942,962,983,1002,1021,1041,1062,1083,1101,1122,1142,1162,1182,1201,1221,1242,1262,1283,1301,1322],"xSR":741.5,"ySR":469.95,"xT1":424.9,"yT1":0,"xT2":1058.1,"yT2":0,"toosoon":0,"cond_shown":"equaldotanddens","ratio_trial":750,"smaller_num":"6","larger_num":"8","correct_side":1,"subjID":"EmilianoCallejasGonzalez23","gender":"0","age":"9","school":"4"},{"start_time":1552055178578,"click_time":1552055179701,"finger_time":1552055179360,"fix_duration":755.7527966176115,"trial":20,"RT":782,"MT":341,"sideResp":1,"stimulus":"img/250/equaldotanddens/L/15_Ratio_250_L_12_R_3.png","xmouse":[801,801,801,801,801,801,801,801,801,801,801,801,801,801,801,800,800,800,800,799,799,799,799,799,799,799,799,799,799,799,799,799,799,797,796,795,790,787,786,780,778,778,777,767,722,698,679,666,660,656,650,642,631,616,583,551,475],"ymouse":[517,517,517,517,517,517,517,517,517,517,517,517,517,517,517,516,516,516,516,516,516,516,516,516,516,516,516,515,513,513,511,509,507,506,501,498,492,488,486,458,437,405,370,328,237,208,192,184,180,176,171,166,160,152,136,119,86],"timestamp_mouse":[3,22,42,62,81,102,122,142,163,181,203,222,242,262,282,301,321,342,362,382,401,421,441,462,483,501,522,543,562,581,601,621,643,662,682,702,722,742,762,782,801,822,842,861,882,903,921,942,963,983,1003,1022,1042,1062,1082,1103,1123],"xSR":741.5,"ySR":469.95,"xT1":424.9,"yT1":0,"xT2":1058.1,"yT2":0,"toosoon":0,"cond_shown":"equaldotanddens","ratio_trial":250,"smaller_num":"3","larger_num":"12","correct_side":1,"subjID":"EmilianoCallejasGonzalez23","gender":"0","age":"9","school":"4"},{"start_time":1552055181009,"click_time":1552055182260,"finger_time":1552055181740,"fix_duration":367.5925033723985,"trial":21,"RT":731,"MT":520,"sideResp":2,"stimulus":"img/900/equaldotanddens/L/2_Ratio_900_L_20_R_18.png","xmouse":[822,821,820,819,819,817,817,817,817,814,814,814,812,812,812,811,809,808,807,807,805,805,805,805,805,805,805,805,805,805,805,805,805,808,814,823,827,837,852,883,905,919,949,967,982,989,993,1006,1019,1034,1044,1050,1054,1054,1054,1054,1055,1058,1059,1061,1063,1069,1074],"ymouse":[521,520,520,520,520,519,519,519,519,518,518,518,518,518,518,517,517,517,516,516,516,516,515,515,515,515,515,515,515,515,515,513,510,503,490,477,467,444,423,392,369,344,306,294,283,278,275,262,250,237,220,207,185,173,169,158,155,150,149,146,140,120,93],"timestamp_mouse":[11,32,51,72,90,110,131,151,170,191,210,232,251,271,290,311,330,350,370,391,411,430,452,471,490,511,531,552,571,590,611,631,651,670,691,711,731,751,772,791,811,831,850,872,890,910,930,951,970,991,1012,1031,1050,1071,1090,1110,1132,1151,1170,1191,1211,1232,1251],"xSR":741.5,"ySR":469.95,"xT1":424.9,"yT1":0,"xT2":1058.1,"yT2":0,"toosoon":0,"cond_shown":"equaldotanddens","ratio_trial":900,"smaller_num":"18","larger_num":"20","correct_side":1,"subjID":"EmilianoCallejasGonzalez23","gender":"0","age":"9","school":"4"},{"start_time":1552055186686,"click_time":1552055187940,"finger_time":1552055187419,"fix_duration":665.1206928390626,"trial":22,"RT":733,"MT":521,"sideResp":2,"stimulus":"img/500/equaldotanddens/R/2_Ratio_500_L_3_R_6.png","xmouse":[766,766,766,766,766,766,766,766,766,766,766,766,766,766,767,767,767,767,768,768,768,768,768,768,768,768,768,768,768,768,768,768,768,771,778,790,812,849,890,899,903,913,921,943,956,968,980,990,1015,1025,1042,1055,1055,1055,1055,1055,1055,1055,1055,1055,1055,1055,1089],"ymouse":[544,544,544,544,544,544,544,544,544,544,544,542,541,540,539,539,539,539,538,538,538,538,538,537,537,536,536,536,535,534,534,534,534,533,525,507,467,405,315,291,272,244,228,201,184,161,139,116,62,50,25,6,6,6,6,6,6,6,6,6,6,6,3],"timestamp_mouse":[14,35,53,74,94,114,135,155,173,193,214,235,254,274,294,314,333,354,374,394,414,434,453,474,495,514,533,555,573,593,614,633,655,675,695,714,733,753,774,794,815,833,853,874,894,915,935,953,974,993,1015,1033,1054,1075,1094,1115,1133,1153,1173,1194,1213,1234,1254],"xSR":741.5,"ySR":469.95,"xT1":424.9,"yT1":0,"xT2":1058.1,"yT2":0,"toosoon":0,"cond_shown":"equaldotanddens","ratio_trial":500,"smaller_num":"3","larger_num":"6","correct_side":2,"subjID":"EmilianoCallejasGonzalez23","gender":"0","age":"9","school":"4"},{"start_time":1552055192115,"click_time":1552055193560,"finger_time":1552055192680,"fix_duration":1453.225727446574,"trial":23,"RT":565,"MT":880,"sideResp":2,"stimulus":"img/750/equaldotanddens/R/7_Ratio_750_L_3_R_4.png","xmouse":[777,777,777,777,777,777,777,777,777,777,777,777,777,777,777,777,777,777,777,777,777,777,777,777,777,778,787,807,1018,1124,1216,1277,1320,1320,1320,1320,1320,1320,1320,1320,1320,1320,1320,1320,1320,1320,1320,1320,1320,1320,1320,1225,1215,1207,1206,1203,1200,1198,1197,1197,1193,1189,1189,1187,1184,1179,1174,1171,1169,1169,1166,1161,1155],"ymouse":[510,510,510,510,510,510,510,510,510,510,510,510,510,510,510,510,510,510,510,510,510,510,510,510,507,505,496,483,341,264,187,114,35,35,35,35,35,35,35,35,35,35,35,35,35,35,35,35,35,35,35,2,16,31,35,39,48,55,57,60,61,61,62,63,63,59,54,48,47,46,46,46,49],"timestamp_mouse":[4,26,46,65,85,104,124,145,165,184,204,225,244,264,284,305,325,344,366,384,405,424,446,464,485,505,525,545,565,584,605,624,645,664,685,706,725,745,766,785,804,824,845,864,886,904,926,946,965,985,1005,1025,1045,1065,1085,1104,1124,1144,1164,1184,1205,1225,1244,1265,1284,1304,1326,1345,1364,1385,1405,1425,1445],"xSR":741.5,"ySR":469.95,"xT1":424.9,"yT1":0,"xT2":1058.1,"yT2":0,"toosoon":0,"cond_shown":"equaldotanddens","ratio_trial":750,"smaller_num":"3","larger_num":"4","correct_side":2,"subjID":"EmilianoCallejasGonzalez23","gender":"0","age":"9","school":"4"},{"start_time":1552055196101,"click_time":1552055197399,"finger_time":1552055196920,"fix_duration":1241.9464458540842,"trial":24,"RT":819,"MT":479,"sideResp":2,"stimulus":"img/900/equaldotsize/R/15_Ratio_900_L_9_R_10.png","xmouse":[771,771,771,771,771,771,771,771,771,771,771,771,771,771,771,771,771,771,771,771,771,771,771,771,771,771,771,771,771,771,771,771,771,771,771,771,771,772,777,801,821,845,878,891,925,935,944,954,970,979,986,989,992,996,1001,1005,1013,1018,1027,1058,1075,1087,1097,1112,1113],"ymouse":[549,549,549,549,549,549,549,549,549,549,549,549,549,548,544,542,540,538,535,535,533,533,533,531,530,529,529,529,528,527,527,526,524,524,522,522,518,515,509,477,453,434,396,373,306,277,258,232,198,184,175,171,165,161,156,154,151,148,144,133,128,123,118,107,95],"timestamp_mouse":[18,39,58,78,99,119,138,159,178,198,219,238,258,279,299,320,339,358,379,400,420,439,459,479,498,518,539,560,579,598,618,639,660,678,699,718,739,759,779,800,819,839,859,878,898,920,938,959,979,999,1019,1038,1058,1078,1098,1120,1140,1158,1179,1198,1220,1238,1258,1280,1298],"xSR":741.5,"ySR":469.95,"xT1":424.9,"yT1":0,"xT2":1058.1,"yT2":0,"toosoon":0,"cond_shown":"equaldotsize","ratio_trial":900,"smaller_num":"9","larger_num":"10","correct_side":2,"subjID":"EmilianoCallejasGonzalez23","gender":"0","age":"9","school":"4"},{"start_time":1552055200574,"click_time":1552055201740,"finger_time":1552055201300,"fix_duration":412.40351371117856,"trial":25,"RT":726,"MT":440,"sideResp":2,"stimulus":"img/900/randomdotsizeEA/L/8_Ratio_900_L_20_R_18.png","xmouse":[801,801,801,801,801,801,801,801,801,801,801,801,801,801,801,801,801,801,801,801,801,801,801,801,801,801,801,801,801,801,801,801,801,801,801,801,807,813,820,830,851,921,955,979,994,1002,1013,1016,1017,1018,1021,1027,1031,1036,1042,1047,1055,1058,1059],"ymouse":[512,512,512,512,512,512,512,512,512,512,512,512,512,512,512,512,512,512,512,512,512,512,512,512,512,512,512,512,512,509,507,500,496,493,489,483,465,456,439,410,366,208,149,109,80,60,40,37,34,33,32,30,29,29,29,29,30,32,33],"timestamp_mouse":[7,26,45,66,86,106,127,147,165,185,206,225,245,265,285,306,325,345,366,387,406,425,446,465,486,505,527,546,565,585,606,626,647,666,687,706,726,746,765,786,806,825,845,866,886,906,925,945,966,986,1005,1025,1045,1065,1086,1106,1125,1146,1166],"xSR":741.5,"ySR":469.95,"xT1":424.9,"yT1":0,"xT2":1058.1,"yT2":0,"toosoon":0,"cond_shown":"randomdotsizeEA","ratio_trial":900,"smaller_num":"18","larger_num":"20","correct_side":1,"subjID":"EmilianoCallejasGonzalez23","gender":"0","age":"9","school":"4"},{"start_time":1552055203448,"click_time":1552055204820,"finger_time":1552055204120,"fix_duration":607.2966738328853,"trial":26,"RT":672,"MT":700,"sideResp":2,"stimulus":"img/500/equaldotsize/R/15_Ratio_500_L_1_R_2.png","xmouse":[760,760,760,760,760,760,760,760,760,760,760,760,760,760,760,760,760,760,760,760,760,760,760,759,759,759,759,759,759,759,759,759,760,763,763,763,761,756,751,745,737,732,723,721,719,719,719,725,741,759,788,820,908,947,984,1043,1086,1106,1144,1162,1174,1181,1184,1186,1186,1186,1181,1171,1155],"ymouse":[491,491,491,491,491,492,493,493,493,493,493,493,493,493,493,493,493,493,494,496,497,499,500,503,504,504,506,506,506,506,506,500,480,462,446,441,437,430,424,419,411,407,393,386,376,370,363,350,343,336,323,310,269,247,218,183,165,151,121,104,91,80,70,52,44,38,35,30,23],"timestamp_mouse":[12,32,52,72,93,113,131,151,172,191,212,231,252,273,291,312,331,351,373,392,412,432,451,473,493,511,531,552,571,592,612,632,652,672,692,713,732,752,771,793,812,833,852,872,893,912,932,953,972,992,1011,1032,1051,1071,1092,1113,1131,1152,1171,1192,1213,1231,1251,1273,1293,1312,1331,1353,1372],"xSR":741.5,"ySR":469.95,"xT1":424.9,"yT1":0,"xT2":1058.1,"yT2":0,"toosoon":0,"cond_shown":"equaldotsize","ratio_trial":500,"smaller_num":"1","larger_num":"2","correct_side":2,"subjID":"EmilianoCallejasGonzalez23","gender":"0","age":"9","school":"4"},{"start_time":1552055206460,"click_time":1552055208419,"finger_time":1552055207520,"fix_duration":359.22433939177614,"trial":27,"RT":1060,"MT":899,"sideResp":1,"stimulus":"img/900/equaldotsize/L/1_Ratio_900_L_10_R_9.png","xmouse":[781,781,781,781,781,781,781,781,781,781,781,781,781,781,781,781,781,781,781,781,781,781,781,781,781,781,781,781,781,781,781,781,781,781,781,781,781,781,781,781,781,781,781,781,781,781,781,781,781,781,781,781,781,781,781,781,781,772,764,760,757,757,749,728,714,707,700,681,671,660,657,648,635,631,630,628,628,628,624,605,587,577,554,554,553,552,552,549,548,548,548,548,548,547,545,542,536,522],"ymouse":[551,551,551,551,551,551,551,551,551,551,551,551,551,551,551,551,551,551,551,551,551,551,551,551,551,551,551,551,551,551,551,550,550,550,550,548,547,547,547,547,547,547,547,547,547,547,547,547,547,547,531,507,306,222,165,134,106,62,49,40,36,34,32,29,27,27,27,35,37,40,42,46,54,58,61,61,61,61,61,55,49,46,39,39,39,39,39,39,39,39,39,39,39,39,39,39,39,39],"timestamp_mouse":[19,41,59,79,101,119,139,159,179,199,220,241,261,280,300,319,339,359,379,399,421,440,459,479,500,521,541,559,579,599,620,640,659,679,700,719,739,761,780,799,820,841,859,880,901,919,939,959,980,1000,1021,1039,1060,1081,1100,1121,1141,1161,1180,1200,1220,1241,1260,1279,1300,1320,1340,1360,1380,1399,1420,1440,1460,1479,1500,1519,1539,1561,1580,1600,1620,1639,1660,1679,1700,1719,1740,1760,1780,1799,1819,1839,1859,1881,1900,1920,1940,1959],"xSR":741.5,"ySR":469.95,"xT1":424.9,"yT1":0,"xT2":1058.1,"yT2":0,"toosoon":0,"cond_shown":"equaldotsize","ratio_trial":900,"smaller_num":"9","larger_num":"10","correct_side":1,"subjID":"EmilianoCallejasGonzalez23","gender":"0","age":"9","school":"4"},{"start_time":1552055210132,"click_time":1552055211420,"finger_time":1552055210780,"fix_duration":250,"trial":28,"RT":648,"MT":640,"sideResp":2,"stimulus":"img/500/equaldotanddens/R/6_Ratio_500_L_9_R_18.png","xmouse":[766,766,766,766,766,766,766,766,766,766,766,766,766,766,766,766,766,766,766,766,766,766,766,766,766,766,766,766,766,768,777,794,818,849,879,894,906,915,928,958,969,982,996,1010,1023,1037,1041,1041,1041,1041,1041,1041,1041,1041,1041,1041,1041,1041,1041,1041,1041,1041,1041,1041,1070],"ymouse":[500,500,500,500,500,500,500,500,500,500,500,500,500,500,500,500,500,500,500,500,500,500,500,500,500,500,500,500,500,501,495,480,462,441,418,405,389,378,361,315,290,251,202,150,72,23,2,2,2,2,2,2,2,2,2,2,2,2,2,2,2,2,2,2,1],"timestamp_mouse":[8,28,48,68,87,107,128,147,168,188,208,229,249,268,288,308,327,349,367,387,408,429,449,469,487,508,528,548,569,589,607,628,648,668,688,707,728,749,768,788,807,827,849,868,888,908,927,948,967,987,1009,1029,1049,1068,1088,1108,1127,1148,1168,1188,1209,1228,1248,1267,1288],"xSR":741.5,"ySR":469.95,"xT1":424.9,"yT1":0,"xT2":1058.1,"yT2":0,"toosoon":0,"cond_shown":"equaldotanddens","ratio_trial":500,"smaller_num":"9","larger_num":"18","correct_side":2,"subjID":"EmilianoCallejasGonzalez23","gender":"0","age":"9","school":"4"},{"start_time":1552055213509,"click_time":1552055214379,"finger_time":1552055213841,"fix_duration":868.1401635154431,"trial":29,"RT":332,"MT":538,"sideResp":1,"stimulus":"img/900/equaldotsize/L/10_Ratio_900_L_20_R_18.png","xmouse":[795,795,795,795,795,795,795,795,795,795,795,795,795,795,795,803,807,807,807,807,807,807,807,807,807,807,807,807,807,807,807,807,807,807,807,807,807,803,789,756,711,602,554,509],"ymouse":[519,519,519,519,519,519,519,519,519,519,519,519,519,518,511,472,465,465,465,465,465,465,465,465,465,465,465,465,465,465,465,465,465,465,465,465,465,462,447,412,365,212,136,29],"timestamp_mouse":[11,31,50,70,90,111,130,152,170,191,210,231,251,271,290,311,332,351,371,391,412,430,452,470,491,512,530,552,570,590,611,631,651,672,691,711,730,751,770,791,810,832,851,870],"xSR":741.5,"ySR":469.95,"xT1":424.9,"yT1":0,"xT2":1058.1,"yT2":0,"toosoon":0,"cond_shown":"equaldotsize","ratio_trial":900,"smaller_num":"18","larger_num":"20","correct_side":1,"subjID":"EmilianoCallejasGonzalez23","gender":"0","age":"9","school":"4"},{"start_time":1552055217718,"click_time":1552055219340,"finger_time":1552055218540,"fix_duration":657.1390232643284,"trial":30,"RT":822,"MT":800,"sideResp":1,"stimulus":"img/750/equaldotsize/L/9_Ratio_750_L_4_R_3.png","xmouse":[757,757,757,757,757,757,757,757,757,757,757,758,760,760,760,761,765,767,768,770,770,770,771,771,771,771,771,772,773,776,777,782,784,788,791,795,796,797,798,799,800,801,801,801,801,799,796,793,785,775,770,762,756,747,736,724,696,686,679,669,657,639,636,632,628,622,617,616,615,613,609,597,595,594,592,589,580,576,572,565,538,453],"ymouse":[513,513,513,513,513,513,513,513,513,513,513,513,513,513,513,513,513,513,513,513,513,513,513,513,513,513,513,513,513,512,510,503,498,491,487,482,479,477,475,471,470,464,459,455,451,447,436,426,411,395,382,365,354,339,324,308,271,254,235,217,194,159,146,134,125,117,110,108,106,104,98,85,82,81,81,81,81,81,81,81,81,81],"timestamp_mouse":[4,26,43,62,82,103,121,142,161,183,202,222,243,262,281,302,321,341,362,382,402,421,442,462,482,501,522,541,562,582,603,622,642,663,682,701,722,742,761,782,802,822,841,861,882,903,922,942,963,982,1002,1022,1042,1061,1081,1102,1122,1141,1162,1182,1201,1221,1241,1262,1281,1302,1322,1341,1362,1381,1402,1422,1442,1463,1481,1501,1522,1542,1562,1582,1602,1622],"xSR":741.5,"ySR":469.95,"xT1":424.9,"yT1":0,"xT2":1058.1,"yT2":0,"toosoon":0,"cond_shown":"equaldotsize","ratio_trial":750,"smaller_num":"3","larger_num":"4","correct_side":1,"subjID":"EmilianoCallejasGonzalez23","gender":"0","age":"9","school":"4"},{"start_time":1552055220999,"click_time":1552055222359,"finger_time":1552055221840,"fix_duration":396.5168712688443,"trial":31,"RT":841,"MT":519,"sideResp":2,"stimulus":"img/900/randomdotsizeEA/L/10_Ratio_900_L_20_R_18.png","xmouse":[810,810,810,809,808,803,800,800,800,800,800,800,800,800,800,800,800,800,800,800,800,800,800,800,800,800,800,800,800,800,800,800,800,800,800,800,800,800,800,800,800,799,805,809,821,834,848,897,920,949,960,971,983,1006,1017,1025,1031,1040,1042,1043,1043,1043,1047,1052,1058,1061,1066,1070,1078],"ymouse":[544,544,544,541,528,517,512,507,507,507,507,507,507,507,507,507,507,507,507,507,507,507,507,507,507,507,507,507,507,507,507,507,507,507,507,507,507,507,507,507,507,501,466,436,387,354,324,263,243,223,212,201,192,180,177,174,172,167,167,166,166,166,156,147,137,127,113,102,84],"timestamp_mouse":[3,21,41,62,80,100,122,140,160,180,200,222,241,261,281,301,320,340,360,380,400,421,440,460,482,501,521,541,560,581,601,621,641,660,681,700,720,742,761,781,800,821,841,860,880,900,921,941,960,980,1001,1020,1041,1060,1080,1101,1120,1141,1161,1180,1200,1221,1242,1262,1281,1301,1322,1341,1360],"xSR":741.5,"ySR":469.95,"xT1":424.9,"yT1":0,"xT2":1058.1,"yT2":0,"toosoon":0,"cond_shown":"randomdotsizeEA","ratio_trial":900,"smaller_num":"18","larger_num":"20","correct_side":1,"subjID":"EmilianoCallejasGonzalez23","gender":"0","age":"9","school":"4"},{"start_time":1552055225309,"click_time":1552055226500,"finger_time":1552055226080,"fix_duration":428.5525385786001,"trial":32,"RT":771,"MT":420,"sideResp":2,"stimulus":"img/500/equaldotsize/R/3_Ratio_500_L_10_R_20.png","xmouse":[776,776,776,776,775,774,772,772,772,772,772,772,771,769,768,767,767,767,767,767,767,767,767,767,767,767,767,767,767,767,767,767,767,767,767,767,767,769,789,823,857,898,951,963,973,980,984,991,996,998,1002,1006,1015,1021,1026,1032,1042,1065,1082,1091],"ymouse":[495,495,495,495,496,497,498,498,498,498,498,498,497,491,486,484,484,484,484,484,484,484,484,484,484,484,484,484,484,484,484,484,484,484,484,484,484,478,467,433,394,348,297,291,288,284,282,275,273,270,265,260,244,235,222,209,189,135,103,75],"timestamp_mouse":[12,32,51,71,91,111,131,151,172,192,210,230,251,271,290,311,330,351,371,391,410,430,451,470,491,510,532,551,572,590,610,632,652,671,690,710,731,750,771,790,810,831,851,871,890,911,932,950,971,991,1012,1031,1050,1070,1090,1112,1131,1150,1170,1191],"xSR":741.5,"ySR":469.95,"xT1":424.9,"yT1":0,"xT2":1058.1,"yT2":0,"toosoon":0,"cond_shown":"equaldotsize","ratio_trial":500,"smaller_num":"10","larger_num":"20","correct_side":2,"subjID":"EmilianoCallejasGonzalez23","gender":"0","age":"9","school":"4"},{"start_time":1552055228067,"click_time":1552055228919,"finger_time":1552055228240,"fix_duration":744.0316810760432,"trial":33,"RT":173,"MT":679,"sideResp":1,"stimulus":"img/250/equaldotsize/L/5_Ratio_250_L_24_R_6.png","xmouse":[747,747,747,746,746,744,742,742,741,741,741,741,741,741,741,741,741,741,741,741,741,741,741,741,741,741,740,740,740,740,734,724,695,680,675,664,655,644,631,593,564,526,511],"ymouse":[515,513,512,512,508,505,502,499,498,497,497,497,497,497,497,497,497,497,497,497,497,497,497,497,497,496,493,492,492,490,475,455,403,374,359,326,311,291,267,199,136,58,19],"timestamp_mouse":[12,32,53,73,92,112,133,153,173,192,213,233,254,273,292,312,332,354,373,392,412,433,452,474,493,512,534,554,573,592,613,632,652,673,692,714,734,754,773,793,814,833,852],"xSR":741.5,"ySR":469.95,"xT1":424.9,"yT1":0,"xT2":1058.1,"yT2":0,"toosoon":0,"cond_shown":"equaldotsize","ratio_trial":250,"smaller_num":"6","larger_num":"24","correct_side":1,"subjID":"EmilianoCallejasGonzalez23","gender":"0","age":"9","school":"4"},{"start_time":1552055232257,"click_time":1552055233379,"finger_time":1552055232959,"fix_duration":1095.1004981802903,"trial":34,"RT":702,"MT":420,"sideResp":2,"stimulus":"img/250/equaldotanddens/R/13_Ratio_250_L_2_R_8.png","xmouse":[775,775,775,775,775,775,775,775,775,775,775,775,775,775,775,775,775,775,775,775,775,775,775,775,775,775,775,775,775,775,775,775,777,787,809,840,890,913,933,950,960,970,971,971,971,971,976,977,977,978,980,987,999,1009,1023,1046,1071],"ymouse":[508,508,508,508,508,508,508,508,508,508,508,508,508,508,508,508,508,508,508,508,508,508,508,508,508,508,508,508,508,508,508,508,508,496,476,453,415,397,378,355,335,297,285,277,271,265,257,254,254,253,252,244,223,202,179,125,23],"timestamp_mouse":[4,25,42,62,83,102,123,144,162,182,202,222,242,263,282,303,323,342,362,382,403,422,443,463,484,503,523,543,562,582,602,622,642,663,683,702,722,744,764,783,804,824,842,863,883,902,922,943,964,983,1003,1024,1043,1062,1084,1104,1122],"xSR":741.5,"ySR":469.95,"xT1":424.9,"yT1":0,"xT2":1058.1,"yT2":0,"toosoon":0,"cond_shown":"equaldotanddens","ratio_trial":250,"smaller_num":"2","larger_num":"8","correct_side":2,"subjID":"EmilianoCallejasGonzalez23","gender":"0","age":"9","school":"4"},{"start_time":1552055237093,"click_time":1552055238860,"finger_time":1552055237960,"fix_duration":1330.8250279171157,"trial":35,"RT":867,"MT":900,"sideResp":2,"stimulus":"img/250/randomdotsizeEA/R/8_Ratio_250_L_1_R_4.png","xmouse":[793,793,793,793,793,793,793,793,793,793,793,793,793,793,793,793,793,793,793,793,793,793,793,793,793,793,793,793,793,793,793,793,793,794,794,797,798,801,805,808,818,827,833,846,867,877,897,905,921,944,951,957,962,968,976,981,984,989,992,998,1002,1006,1009,1012,1018,1020,1024,1027,1031,1041,1045,1050,1054,1060,1070,1074,1076,1078,1079,1080,1082,1082,1082,1082,1082,1083,1084,1086,1089],"ymouse":[502,502,502,502,502,502,502,502,502,502,502,502,502,502,502,502,502,502,502,502,502,502,502,502,502,502,502,502,502,502,502,502,502,498,496,494,492,491,489,488,483,478,474,466,452,446,437,434,428,416,409,399,389,377,361,353,348,337,330,319,310,300,287,278,263,259,250,245,228,208,195,177,166,155,144,139,133,130,129,128,125,123,121,119,117,113,109,103,97],"timestamp_mouse":[6,27,48,66,86,106,127,148,168,186,207,226,246,267,286,306,326,347,367,386,407,427,448,468,488,508,527,547,566,587,606,626,646,667,687,708,727,746,768,787,807,826,846,867,886,906,927,947,967,987,1006,1026,1046,1068,1086,1107,1126,1146,1166,1186,1207,1227,1247,1266,1286,1307,1327,1348,1366,1386,1407,1427,1448,1466,1487,1506,1527,1546,1567,1586,1606,1628,1646,1667,1686,1707,1727,1747,1767],"xSR":741.5,"ySR":469.95,"xT1":424.9,"yT1":0,"xT2":1058.1,"yT2":0,"toosoon":0,"cond_shown":"randomdotsizeEA","ratio_trial":250,"smaller_num":"1","larger_num":"4","correct_side":2,"subjID":"EmilianoCallejasGonzalez23","gender":"0","age":"9","school":"4"},{"start_time":1552055243203,"click_time":1552055244599,"finger_time":1552055244159,"fix_duration":1022.4914279066951,"trial":36,"RT":956,"MT":440,"sideResp":1,"stimulus":"img/750/equaldotsize/L/9_Ratio_750_L_4_R_3.png","xmouse":[789,789,789,789,789,789,789,789,789,789,789,789,789,789,789,789,789,789,789,789,789,788,788,788,788,788,788,788,788,788,788,788,788,788,788,788,787,787,787,787,787,787,785,785,782,780,776,769,767,758,756,751,746,734,656,591,565,565,565,565,565,565,565,565,565,565,565,565,565,463],"ymouse":[512,512,512,512,512,512,512,512,512,512,512,512,512,512,512,512,512,512,512,512,512,512,512,512,512,512,512,512,512,512,512,512,512,512,512,512,509,508,507,505,504,502,500,495,487,482,476,468,467,456,454,445,434,406,238,88,22,22,22,22,22,22,22,22,22,22,22,22,22,2],"timestamp_mouse":[17,37,57,76,96,116,136,157,177,197,216,236,256,276,296,316,337,356,377,396,417,437,458,477,496,516,537,558,576,597,616,638,657,676,697,717,737,757,776,797,817,837,857,876,897,918,937,956,977,996,1017,1036,1058,1076,1097,1117,1136,1157,1177,1197,1217,1238,1258,1277,1296,1316,1337,1357,1377,1396],"xSR":741.5,"ySR":469.95,"xT1":424.9,"yT1":0,"xT2":1058.1,"yT2":0,"toosoon":0,"cond_shown":"equaldotsize","ratio_trial":750,"smaller_num":"3","larger_num":"4","correct_side":1,"subjID":"EmilianoCallejasGonzalez23","gender":"0","age":"9","school":"4"},{"start_time":1552055246994,"click_time":1552055248380,"finger_time":1552055247961,"fix_duration":851.4164586076123,"trial":37,"RT":967,"MT":419,"sideResp":1,"stimulus":"img/500/randomdotsizeEA/L/8_Ratio_500_L_8_R_4.png","xmouse":[776,776,776,776,776,776,776,776,776,776,776,776,776,776,776,776,776,776,776,776,776,776,776,776,776,776,776,776,776,776,776,776,776,776,776,776,776,776,776,776,776,776,776,776,776,777,777,778,779,771,760,737,725,719,711,703,692,681,674,662,631,605,585,574,569,560,555,545,536,522],"ymouse":[486,486,486,486,486,486,486,486,486,486,486,486,486,486,486,486,486,486,486,486,486,486,486,486,486,486,486,486,486,486,486,486,486,486,486,486,486,486,486,486,486,486,486,486,486,486,484,480,468,449,428,390,370,357,339,324,298,278,268,250,208,176,146,128,114,94,87,74,62,46],"timestamp_mouse":[5,26,46,65,87,106,126,145,165,187,207,226,246,265,287,306,326,346,365,385,405,427,445,466,487,506,526,545,566,587,605,625,645,666,687,705,725,745,766,787,805,826,845,865,887,906,925,946,967,986,1006,1026,1046,1065,1086,1105,1126,1145,1165,1185,1206,1225,1245,1265,1286,1306,1325,1346,1365,1386],"xSR":741.5,"ySR":469.95,"xT1":424.9,"yT1":0,"xT2":1058.1,"yT2":0,"toosoon":0,"cond_shown":"randomdotsizeEA","ratio_trial":500,"smaller_num":"4","larger_num":"8","correct_side":1,"subjID":"EmilianoCallejasGonzalez23","gender":"0","age":"9","school":"4"},{"start_time":1552055251538,"click_time":1552055253119,"finger_time":1552055252520,"fix_duration":717.8127751484234,"trial":38,"RT":982,"MT":599,"sideResp":2,"stimulus":"img/750/equaldotanddens/R/4_Ratio_750_L_15_R_20.png","xmouse":[788,788,788,788,788,788,788,788,788,788,788,788,788,788,788,788,788,788,788,788,788,788,788,788,788,788,788,788,788,788,788,788,788,788,788,788,788,788,788,788,788,788,788,788,788,789,789,791,794,802,806,818,839,870,954,1016,1016,1016,1016,1016,1016,1016,1016,1016,1016,1016,1016,1016,1016,1016,1016,1016,1016,1016,1016,1016,1016,1016,1016,1114],"ymouse":[501,501,501,501,501,501,501,501,501,501,501,501,501,501,501,501,501,501,501,501,501,501,501,501,501,501,501,501,501,501,501,501,499,498,497,497,497,497,497,500,500,500,500,500,500,496,495,488,483,465,445,391,318,220,76,15,15,15,15,15,15,15,15,15,15,15,15,15,15,15,15,15,15,15,15,15,15,15,15,3],"timestamp_mouse":[4,21,41,62,82,101,122,141,161,181,202,221,241,261,282,301,323,342,362,383,402,423,443,462,483,503,522,541,561,582,602,622,642,662,682,701,722,742,763,782,802,823,841,861,883,902,922,942,962,982,1001,1021,1041,1061,1082,1102,1122,1142,1162,1183,1201,1221,1242,1263,1283,1302,1322,1342,1362,1381,1402,1422,1441,1462,1481,1501,1522,1541,1561,1581],"xSR":741.5,"ySR":469.95,"xT1":424.9,"yT1":0,"xT2":1058.1,"yT2":0,"toosoon":0,"cond_shown":"equaldotanddens","ratio_trial":750,"smaller_num":"15","larger_num":"20","correct_side":2,"subjID":"EmilianoCallejasGonzalez23","gender":"0","age":"9","school":"4"},{"start_time":1552055254830,"click_time":1552055256220,"finger_time":1552055255519,"fix_duration":250,"trial":39,"RT":689,"MT":701,"sideResp":1,"stimulus":"img/250/equaldotanddens/L/5_Ratio_250_L_24_R_6.png","xmouse":[797,797,797,797,797,797,797,797,797,797,797,797,797,797,797,797,797,797,797,797,797,797,797,797,797,797,797,797,797,797,796,791,781,767,750,740,729,712,688,645,635,628,620,615,610,604,598,590,583,570,570,570,570,570,570,570,561,553,550,539,533,530,529,528,528,528,526,526,525,521],"ymouse":[519,519,519,519,519,519,519,519,519,519,519,519,519,519,519,519,519,519,519,519,519,519,519,519,519,519,519,519,519,519,519,515,500,476,442,420,394,359,316,242,225,213,206,200,195,191,186,179,172,158,158,158,158,155,139,128,113,100,90,72,66,66,63,62,62,62,62,62,62,64],"timestamp_mouse":[11,29,49,69,89,110,131,149,170,189,210,230,250,269,290,309,329,350,371,390,410,430,450,470,490,509,530,549,570,589,610,630,650,670,689,710,729,750,770,789,810,831,850,870,890,909,930,949,970,989,1011,1031,1051,1069,1090,1109,1129,1149,1170,1189,1210,1230,1249,1269,1290,1310,1330,1351,1369,1390],"xSR":741.5,"ySR":469.95,"xT1":424.9,"yT1":0,"xT2":1058.1,"yT2":0,"toosoon":0,"cond_shown":"equaldotanddens","ratio_trial":250,"smaller_num":"6","larger_num":"24","correct_side":1,"subjID":"EmilianoCallejasGonzalez23","gender":"0","age":"9","school":"4"},{"start_time":1552055257812,"click_time":1552055258721,"finger_time":1552055258640,"fix_duration":251.59679581616967,"trial":40,"RT":828,"MT":81,"sideResp":2,"stimulus":"img/500/equaldotanddens/R/14_Ratio_500_L_5_R_10.png","xmouse":[762,762,762,762,762,762,762,762,762,762,762,762,762,762,762,762,762,762,762,762,762,762,762,762,762,762,762,762,762,762,762,762,762,762,762,762,762,762,764,766,772,880,947,1014,1073,1108],"ymouse":[539,539,539,539,539,539,539,539,539,539,539,539,539,539,539,539,539,539,539,539,539,539,539,539,539,539,539,539,539,539,539,539,539,539,539,539,539,539,539,539,532,381,279,186,111,60],"timestamp_mouse":[8,27,48,67,88,107,127,149,168,188,209,227,248,268,288,309,327,349,367,388,407,427,447,467,487,508,528,549,568,589,607,629,648,669,688,707,728,747,769,788,809,828,849,867,888,909],"xSR":741.5,"ySR":469.95,"xT1":424.9,"yT1":0,"xT2":1058.1,"yT2":0,"toosoon":0,"cond_shown":"equaldotanddens","ratio_trial":500,"smaller_num":"5","larger_num":"10","correct_side":2,"subjID":"EmilianoCallejasGonzalez23","gender":"0","age":"9","school":"4"},{"start_time":1552055260994,"click_time":1552055262179,"finger_time":1552055261560,"fix_duration":852.9744132018751,"trial":41,"RT":566,"MT":619,"sideResp":1,"stimulus":"img/500/equaldotsize/L/5_Ratio_500_L_4_R_2.png","xmouse":[768,768,768,768,768,768,768,768,768,768,768,768,768,768,768,768,768,768,768,768,768,768,768,768,768,768,768,765,761,753,740,720,705,699,691,680,666,625,598,570,570,570,570,570,570,570,570,570,570,570,570,570,570,570,570,570,570,570,487,499],"ymouse":[555,555,555,555,555,555,555,555,555,555,555,555,555,555,555,555,555,555,555,555,555,555,555,553,548,542,534,494,466,427,383,334,297,284,267,253,236,161,99,19,19,19,19,19,19,19,19,19,19,19,19,19,19,19,19,19,19,19,0,27],"timestamp_mouse":[6,25,45,66,86,105,126,145,166,185,206,226,246,265,285,306,326,346,367,386,407,427,447,465,485,506,525,546,566,585,607,625,646,666,685,705,725,745,765,785,805,825,847,865,886,906,927,947,965,985,1006,1025,1046,1067,1086,1105,1126,1146,1165,1185],"xSR":741.5,"ySR":469.95,"xT1":424.9,"yT1":0,"xT2":1058.1,"yT2":0,"toosoon":0,"cond_shown":"equaldotsize","ratio_trial":500,"smaller_num":"2","larger_num":"4","correct_side":1,"subjID":"EmilianoCallejasGonzalez23","gender":"0","age":"9","school":"4"},{"start_time":1552055265644,"click_time":1552055266620,"finger_time":1552055266240,"fix_duration":1143.0342183730468,"trial":42,"RT":596,"MT":380,"sideResp":1,"stimulus":"img/250/equaldotanddens/L/5_Ratio_250_L_24_R_6.png","xmouse":[804,804,804,804,804,804,804,804,804,804,804,804,804,804,804,804,804,804,804,804,804,804,804,804,804,801,798,798,792,775,763,755,745,737,724,718,702,692,680,654,642,636,617,601,585,543,490,462,428],"ymouse":[533,533,533,533,533,533,533,533,533,533,533,533,533,533,533,533,533,533,533,533,533,532,532,532,531,526,520,513,501,460,435,417,393,375,346,334,307,290,274,243,231,224,212,202,194,167,136,117,91],"timestamp_mouse":[18,36,56,75,95,116,137,156,176,196,216,236,256,275,296,317,336,355,375,396,415,436,455,475,496,516,536,555,576,596,615,635,655,675,696,715,736,755,775,796,815,837,856,876,895,915,936,956,976],"xSR":741.5,"ySR":469.95,"xT1":424.9,"yT1":0,"xT2":1058.1,"yT2":0,"toosoon":0,"cond_shown":"equaldotanddens","ratio_trial":250,"smaller_num":"6","larger_num":"24","correct_side":1,"subjID":"EmilianoCallejasGonzalez23","gender":"0","age":"9","school":"4"},{"start_time":1552055268319,"click_time":1552055269500,"finger_time":1552055269240,"fix_duration":758.6667037299933,"trial":43,"RT":921,"MT":260,"sideResp":2,"stimulus":"img/500/randomdotsizeEA/R/15_Ratio_500_L_1_R_2.png","xmouse":[765,765,765,765,765,765,765,765,765,765,765,765,765,765,765,765,765,765,765,765,765,765,765,765,765,765,765,765,765,765,765,765,765,767,769,770,772,772,773,774,776,779,790,800,811,822,838,856,872,890,910,936,985,1003,1012,1029,1048,1068,1075,1078],"ymouse":[509,509,509,509,509,509,509,509,509,509,509,509,509,509,509,509,509,509,509,509,509,509,509,509,509,509,509,509,509,509,509,509,509,509,509,509,509,509,509,508,506,504,495,488,479,470,459,446,440,430,418,403,350,313,292,249,199,126,102,87],"timestamp_mouse":[3,21,40,60,81,102,120,140,160,181,200,220,242,260,280,300,322,341,361,380,402,421,440,460,481,502,520,541,560,580,602,622,640,660,681,701,720,740,760,780,800,820,840,861,880,901,921,940,961,982,1000,1020,1041,1060,1080,1100,1121,1140,1160,1181],"xSR":741.5,"ySR":469.95,"xT1":424.9,"yT1":0,"xT2":1058.1,"yT2":0,"toosoon":0,"cond_shown":"randomdotsizeEA","ratio_trial":500,"smaller_num":"1","larger_num":"2","correct_side":2,"subjID":"EmilianoCallejasGonzalez23","gender":"0","age":"9","school":"4"},{"start_time":1552055271985,"click_time":1552055274300,"finger_time":1552055273159,"fix_duration":1124.4043690728358,"trial":44,"RT":1174,"MT":1141,"sideResp":1,"stimulus":"img/750/equaldotanddens/L/8_Ratio_750_L_4_R_3.png","xmouse":[809,809,809,809,809,809,809,809,809,809,809,809,809,809,809,809,809,809,809,809,809,809,809,809,809,809,809,809,809,809,809,809,809,809,809,809,809,809,809,809,809,809,809,810,810,810,810,810,811,811,812,812,813,814,816,817,819,821,823,823,823,821,814,792,776,753,719,699,659,646,637,629,619,608,595,589,586,584,584,582,580,576,568,564,559,559,547,535,530,530,530,530,530,530,530,530,530,530,530,530,530,530,530,530,530,530,530,530,530,530,530,530,530,530,530,505],"ymouse":[500,500,500,500,500,500,500,500,500,500,500,500,500,500,500,500,500,500,500,500,500,500,500,500,500,500,500,500,500,500,500,500,500,500,500,500,500,500,499,498,498,498,498,498,498,498,498,498,498,498,496,495,494,490,486,485,477,474,467,461,454,444,432,410,400,393,379,371,346,336,327,314,296,267,238,220,206,202,196,194,187,179,167,155,129,126,96,58,3,3,3,3,3,3,3,3,3,3,3,3,3,3,3,3,3,3,3,3,3,3,3,3,3,3,3,1],"timestamp_mouse":[16,35,55,75,94,115,134,155,176,194,215,234,254,274,295,314,336,355,376,395,415,435,455,476,495,516,535,554,576,596,614,634,654,675,694,715,735,756,775,795,814,836,854,874,896,914,935,954,975,996,1015,1035,1055,1075,1095,1114,1134,1155,1174,1194,1215,1234,1255,1274,1295,1315,1334,1354,1374,1394,1414,1435,1454,1474,1495,1515,1534,1555,1574,1594,1615,1636,1654,1674,1694,1714,1735,1755,1775,1796,1815,1836,1855,1874,1895,1914,1935,1955,1975,1994,2015,2035,2054,2075,2094,2115,2136,2155,2176,2194,2214,2234,2255,2275,2294,2315],"xSR":741.5,"ySR":469.95,"xT1":424.9,"yT1":0,"xT2":1058.1,"yT2":0,"toosoon":0,"cond_shown":"equaldotanddens","ratio_trial":750,"smaller_num":"3","larger_num":"4","correct_side":1,"subjID":"EmilianoCallejasGonzalez23","gender":"0","age":"9","school":"4"},{"start_time":1552055275731,"click_time":1552055276640,"finger_time":1552055276379,"fix_duration":449.05730120680363,"trial":45,"RT":648,"MT":261,"sideResp":2,"stimulus":"img/900/equaldotanddens/L/1_Ratio_900_L_10_R_9.png","xmouse":[808,808,808,808,808,808,808,808,808,808,808,808,808,808,808,808,808,808,808,808,808,808,808,808,808,808,808,808,808,811,818,830,859,870,880,888,908,927,943,958,973,987,1043,1068,1083,1092],"ymouse":[547,547,547,547,547,547,547,547,547,547,547,547,547,547,547,547,547,547,547,547,547,547,547,547,547,547,547,547,547,536,520,502,469,458,450,440,414,387,365,340,312,275,175,132,102,90],"timestamp_mouse":[9,29,49,68,89,109,129,149,167,188,209,229,247,267,289,308,329,348,369,387,408,429,449,468,488,509,529,548,569,587,608,629,648,669,689,708,729,747,767,788,809,828,848,869,888,909],"xSR":741.5,"ySR":469.95,"xT1":424.9,"yT1":0,"xT2":1058.1,"yT2":0,"toosoon":0,"cond_shown":"equaldotanddens","ratio_trial":900,"smaller_num":"9","larger_num":"10","correct_side":1,"subjID":"EmilianoCallejasGonzalez23","gender":"0","age":"9","school":"4"},{"start_time":1552055279929,"click_time":1552055280939,"finger_time":1552055280699,"fix_duration":250,"trial":46,"RT":770,"MT":240,"sideResp":1,"stimulus":"img/750/equaldotanddens/L/10_Ratio_750_L_4_R_3.png","xmouse":[748,748,748,748,748,748,748,748,748,748,748,748,748,748,748,748,748,748,748,748,748,747,746,746,744,744,744,744,744,744,744,744,744,744,744,744,744,744,739,725,712,687,668,647,637,627,612,586,553,491,430],"ymouse":[510,510,510,510,510,510,510,510,510,510,510,510,510,510,510,510,510,510,510,510,510,508,507,505,502,501,501,501,501,501,501,501,501,501,501,501,499,491,482,466,452,427,405,368,349,332,298,245,207,139,76],"timestamp_mouse":[10,31,51,70,89,111,131,149,170,191,211,230,249,270,290,310,329,351,370,391,409,430,451,470,490,511,530,551,569,589,610,631,651,671,690,711,731,751,770,790,811,831,850,870,891,911,930,950,970,990,1010],"xSR":741.5,"ySR":469.95,"xT1":424.9,"yT1":0,"xT2":1058.1,"yT2":0,"toosoon":0,"cond_shown":"equaldotanddens","ratio_trial":750,"smaller_num":"3","larger_num":"4","correct_side":1,"subjID":"EmilianoCallejasGonzalez23","gender":"0","age":"9","school":"4"},{"start_time":1552055282808,"click_time":1552055284280,"finger_time":1552055283639,"fix_duration":788.0406871277937,"trial":47,"RT":831,"MT":641,"sideResp":2,"stimulus":"img/900/equaldotsize/L/10_Ratio_900_L_20_R_18.png","xmouse":[782,782,781,779,779,778,778,778,778,778,778,778,778,778,778,778,778,778,778,778,778,778,778,778,778,778,778,778,778,778,778,778,778,778,778,778,788,799,806,820,831,839,848,857,872,880,891,899,908,913,915,917,917,918,927,933,942,949,955,962,962,962,966,972,991,1005,1016,1025,1032,1039,1041,1044,1048,1063],"ymouse":[545,544,540,539,537,537,536,536,536,536,536,536,536,536,536,536,536,536,536,536,536,536,536,534,534,534,534,532,532,532,532,532,532,532,528,520,511,501,496,484,476,467,445,377,339,307,273,246,219,185,180,176,174,173,171,171,171,171,171,171,171,171,168,161,143,128,114,102,94,87,86,86,86,86],"timestamp_mouse":[11,31,51,70,92,112,132,151,171,192,211,231,251,272,290,311,331,351,372,392,410,431,451,470,492,512,532,551,570,590,612,632,651,672,690,711,731,751,771,791,812,831,851,872,892,911,931,952,972,991,1011,1032,1051,1071,1092,1111,1131,1151,1171,1191,1212,1232,1252,1270,1292,1312,1331,1351,1371,1392,1412,1431,1452,1472],"xSR":741.5,"ySR":469.95,"xT1":424.9,"yT1":0,"xT2":1058.1,"yT2":0,"toosoon":0,"cond_shown":"equaldotsize","ratio_trial":900,"smaller_num":"18","larger_num":"20","correct_side":1,"subjID":"EmilianoCallejasGonzalez23","gender":"0","age":"9","school":"4"},{"start_time":1552055285868,"click_time":1552055286918,"finger_time":1552055286540,"fix_duration":568.7747504671797,"trial":48,"RT":672,"MT":378,"sideResp":2,"stimulus":"img/250/randomdotsizeEA/R/9_Ratio_250_L_3_R_12.png","xmouse":[766,766,766,766,766,766,766,766,768,769,770,772,774,774,776,776,776,776,776,776,776,776,776,776,776,776,776,776,776,776,776,781,797,835,892,957,1089,1110,1122,1128,1130,1130,1130,1130,1130,1130,1126,1123,1121,1117,1111,1095,1090],"ymouse":[495,495,495,495,495,495,495,495,495,494,493,490,487,485,485,485,485,485,485,485,485,485,485,485,485,485,485,485,485,485,483,480,472,453,426,396,329,307,286,268,257,250,249,246,240,230,194,181,164,144,125,103,96],"timestamp_mouse":[11,31,51,71,92,112,131,152,171,191,211,231,252,271,292,311,332,351,372,391,411,430,451,472,491,511,532,551,572,591,612,632,651,672,691,711,731,751,771,791,811,830,851,872,891,912,931,951,972,991,1011,1031,1050],"xSR":741.5,"ySR":469.95,"xT1":424.9,"yT1":0,"xT2":1058.1,"yT2":0,"toosoon":0,"cond_shown":"randomdotsizeEA","ratio_trial":250,"smaller_num":"3","larger_num":"12","correct_side":2,"subjID":"EmilianoCallejasGonzalez23","gender":"0","age":"9","school":"4"},{"start_time":1552055288152,"click_time":1552055289479,"finger_time":1552055289060,"fix_duration":250,"trial":49,"RT":908,"MT":419,"sideResp":1,"stimulus":"img/750/equaldotsize/L/8_Ratio_750_L_4_R_3.png","xmouse":[836,836,836,836,836,836,836,836,836,836,836,836,836,836,836,836,836,836,836,836,836,836,836,836,836,836,837,837,838,839,839,839,839,839,839,839,839,839,839,839,839,839,839,839,828,817,798,732,701,673,661,661,661,661,661,661,661,661,661,661,661,661,661,661,661,661,454],"ymouse":[507,507,507,507,507,507,507,507,507,507,507,507,507,507,507,507,507,506,505,505,505,505,505,505,505,505,504,504,503,503,503,503,503,503,503,503,503,503,503,503,503,503,503,497,482,462,418,235,134,32,1,1,1,1,1,1,1,1,1,1,1,1,1,1,1,1,11],"timestamp_mouse":[7,28,48,68,87,107,128,146,167,188,208,226,247,268,288,308,326,347,367,388,408,426,447,468,487,508,528,548,568,588,608,628,648,668,686,706,726,748,767,788,807,828,848,866,888,908,927,947,966,987,1006,1028,1047,1067,1087,1107,1127,1148,1167,1188,1206,1228,1247,1267,1288,1308,1327],"xSR":741.5,"ySR":469.95,"xT1":424.9,"yT1":0,"xT2":1058.1,"yT2":0,"toosoon":0,"cond_shown":"equaldotsize","ratio_trial":750,"smaller_num":"3","larger_num":"4","correct_side":1,"subjID":"EmilianoCallejasGonzalez23","gender":"0","age":"9","school":"4"},{"start_time":1552055294732,"click_time":1552055296659,"finger_time":1552055295499,"fix_duration":250,"trial":50,"RT":767,"MT":1160,"sideResp":2,"stimulus":"img/750/equaldotsize/L/1_Ratio_750_L_20_R_15.png","xmouse":[793,793,793,793,793,793,793,793,793,793,793,793,793,793,793,793,793,793,793,793,793,793,793,793,793,795,795,797,797,802,804,805,806,809,815,817,819,821,822,827,829,831,837,837,843,847,854,863,871,895,900,901,904,905,905,906,906,906,906,906,906,905,905,905,905,905,905,905,905,905,905,914,926,936,950,957,968,979,988,1007,1011,1013,1017,1021,1029,1033,1035,1037,1037,1039,1040,1043,1045,1047,1053,1062,1076],"ymouse":[544,544,544,544,544,544,544,544,544,544,544,544,544,544,544,544,544,544,544,544,544,544,544,544,542,539,538,532,528,517,513,509,506,500,487,482,476,472,468,463,457,450,444,441,430,419,398,368,341,285,269,253,242,234,229,227,227,226,226,223,222,222,221,221,221,221,221,221,221,221,218,215,210,205,197,194,189,185,180,172,164,155,147,142,125,120,116,114,114,111,111,109,109,108,105,102,96],"timestamp_mouse":[7,28,47,67,86,107,127,147,167,187,207,226,246,267,288,306,327,346,367,387,406,427,448,466,488,507,527,547,567,587,608,628,647,667,688,708,727,747,767,787,806,827,848,867,887,907,927,948,968,986,1007,1027,1047,1068,1087,1107,1127,1147,1166,1187,1208,1227,1248,1267,1287,1307,1326,1347,1366,1387,1407,1427,1447,1468,1487,1507,1526,1548,1567,1587,1608,1627,1648,1667,1687,1708,1727,1748,1767,1786,1806,1828,1847,1867,1886,1907,1927],"xSR":741.5,"ySR":469.95,"xT1":424.9,"yT1":0,"xT2":1058.1,"yT2":0,"toosoon":0,"cond_shown":"equaldotsize","ratio_trial":750,"smaller_num":"15","larger_num":"20","correct_side":1,"subjID":"EmilianoCallejasGonzalez23","gender":"0","age":"9","school":"4"},{"start_time":1552055298340,"click_time":1552055299599,"finger_time":1552055299198,"fix_duration":599.3261409934855,"trial":51,"RT":858,"MT":401,"sideResp":2,"stimulus":"img/900/equaldotanddens/R/5_Ratio_900_L_9_R_10.png","xmouse":[800,800,800,800,800,800,800,798,796,780,775,772,770,770,769,769,769,769,769,769,769,769,769,769,769,769,769,769,769,769,769,769,769,769,769,771,773,774,776,788,797,805,813,814,819,822,825,835,843,872,892,908,921,940,969,969,969,969,969,969,969,969,969,1063],"ymouse":[565,565,565,565,565,564,563,563,563,552,545,541,538,537,537,537,537,537,537,537,537,537,537,537,537,537,537,537,537,537,537,537,537,537,537,536,535,534,532,516,504,489,473,461,428,408,381,325,283,199,167,141,121,88,5,5,5,5,5,5,5,5,5,9],"timestamp_mouse":[0,19,40,59,79,100,120,139,159,179,200,220,239,260,280,299,319,339,359,379,400,420,439,458,479,499,519,540,558,580,599,620,639,659,680,700,719,740,760,778,799,819,840,858,879,899,920,939,959,979,999,1020,1039,1059,1080,1098,1120,1139,1159,1179,1199,1219,1239,1259],"xSR":741.5,"ySR":469.95,"xT1":424.9,"yT1":0,"xT2":1058.1,"yT2":0,"toosoon":0,"cond_shown":"equaldotanddens","ratio_trial":900,"smaller_num":"9","larger_num":"10","correct_side":2,"subjID":"EmilianoCallejasGonzalez23","gender":"0","age":"9","school":"4"},{"start_time":1552055304225,"click_time":1552055305579,"finger_time":1552055304820,"fix_duration":584.3569802556237,"trial":52,"RT":595,"MT":759,"sideResp":1,"stimulus":"img/500/equaldotanddens/L/5_Ratio_500_L_4_R_2.png","xmouse":[746,746,746,746,746,746,746,746,746,746,746,746,746,746,746,746,746,746,746,746,746,746,746,747,752,765,771,771,771,771,746,733,721,710,699,676,660,646,633,608,584,574,568,562,556,555,553,551,551,548,543,533,532,532,532,530,530,530,530,530,530,530,530,530,530,530,527,524],"ymouse":[529,529,529,529,529,529,529,529,529,529,529,529,529,529,529,529,529,529,529,529,529,529,527,524,519,500,489,484,477,465,426,406,388,372,360,335,314,293,269,231,190,173,158,138,123,100,91,85,79,75,65,51,49,49,49,49,49,49,49,49,49,49,49,49,49,49,49,49],"timestamp_mouse":[17,34,54,74,93,113,135,155,173,193,214,234,254,274,293,314,335,354,373,393,414,434,454,475,494,514,535,554,574,595,614,634,655,674,695,714,734,754,774,794,813,833,855,875,894,914,934,954,975,994,1014,1034,1054,1074,1093,1113,1133,1154,1175,1194,1214,1235,1255,1275,1294,1314,1334,1354],"xSR":741.5,"ySR":469.95,"xT1":424.9,"yT1":0,"xT2":1058.1,"yT2":0,"toosoon":0,"cond_shown":"equaldotanddens","ratio_trial":500,"smaller_num":"2","larger_num":"4","correct_side":1,"subjID":"EmilianoCallejasGonzalez23","gender":"0","age":"9","school":"4"},{"start_time":1552055309587,"click_time":1552055310839,"finger_time":1552055310339,"fix_duration":1186.4313008065392,"trial":53,"RT":752,"MT":500,"sideResp":1,"stimulus":"img/900/equaldotanddens/L/8_Ratio_900_L_20_R_18.png","xmouse":[809,809,809,809,810,810,810,810,810,810,810,810,810,810,810,810,810,810,810,810,810,810,810,810,810,810,810,810,810,810,810,810,810,810,810,805,788,758,680,632,597,568,568,568,568,568,568,568,568,568,568,568,568,568,568,568,568,568,568,568,568,568,518],"ymouse":[505,505,505,505,505,505,505,505,505,505,505,505,505,505,505,505,505,505,505,505,505,505,505,505,505,505,505,505,505,505,505,505,505,505,503,494,474,440,342,228,103,8,8,8,8,8,8,8,8,8,8,8,8,8,8,8,8,8,8,8,8,8,2],"timestamp_mouse":[12,32,52,71,92,112,133,153,171,192,213,232,253,273,291,313,333,352,372,393,412,432,451,472,493,512,532,551,571,592,613,633,652,672,693,712,733,752,772,792,812,832,853,872,892,911,933,952,973,992,1012,1033,1053,1072,1092,1113,1132,1153,1172,1192,1212,1231,1252],"xSR":741.5,"ySR":469.95,"xT1":424.9,"yT1":0,"xT2":1058.1,"yT2":0,"toosoon":0,"cond_shown":"equaldotanddens","ratio_trial":900,"smaller_num":"18","larger_num":"20","correct_side":1,"subjID":"EmilianoCallejasGonzalez23","gender":"0","age":"9","school":"4"},{"start_time":1552055315351,"click_time":1552055316860,"finger_time":1552055316040,"fix_duration":550.7167615117286,"trial":54,"RT":689,"MT":820,"sideResp":2,"stimulus":"img/250/equaldotanddens/R/9_Ratio_250_L_3_R_12.png","xmouse":[785,785,786,786,787,787,787,787,787,787,787,787,787,787,787,787,787,787,787,787,787,787,787,787,787,787,787,787,789,799,808,827,838,841,845,851,856,860,866,881,918,934,950,984,1064,1225,1318,1318,1318,1318,1318,1318,1318,1318,1318,1318,1318,1318,1318,1282,1271,1259,1244,1217,1191,1171,1148,1146,1146,1146,1146,1146,1146,1146,1146,1143],"ymouse":[546,546,546,546,546,546,546,545,545,545,545,545,545,545,545,545,545,545,545,545,545,545,545,545,545,545,545,544,543,540,536,524,518,513,508,488,483,480,478,469,452,439,427,399,333,148,3,3,3,3,3,3,3,3,3,3,3,3,3,2,57,83,97,106,107,107,104,102,102,102,102,102,102,101,100,93],"timestamp_mouse":[13,28,49,67,89,109,129,148,168,188,208,229,248,269,287,308,328,348,368,387,409,428,448,469,489,508,527,548,568,588,608,627,648,668,689,708,727,748,768,788,807,829,848,868,888,908,928,947,968,988,1008,1028,1049,1068,1089,1108,1127,1148,1168,1189,1209,1228,1248,1268,1288,1308,1328,1349,1369,1388,1408,1428,1449,1468,1488,1509],"xSR":741.5,"ySR":469.95,"xT1":424.9,"yT1":0,"xT2":1058.1,"yT2":0,"toosoon":0,"cond_shown":"equaldotanddens","ratio_trial":250,"smaller_num":"3","larger_num":"12","correct_side":2,"subjID":"EmilianoCallejasGonzalez23","gender":"0","age":"9","school":"4"},{"start_time":1552055319556,"click_time":1552055320420,"finger_time":1552055320080,"fix_duration":976.6105793908481,"trial":55,"RT":524,"MT":340,"sideResp":1,"stimulus":"img/900/randomdotsizeEA/R/6_Ratio_900_L_9_R_10.png","xmouse":[747,747,747,747,747,747,747,747,747,747,747,746,746,746,746,746,746,745,745,745,745,745,745,745,745,747,750,753,757,766,770,777,782,783,783,783,770,746,715,693,656,570,534,518],"ymouse":[493,493,493,493,493,493,493,493,493,493,493,492,492,492,492,492,492,492,492,492,492,492,491,489,487,480,459,437,417,391,366,322,298,275,251,216,193,176,153,135,109,49,23,9],"timestamp_mouse":[3,25,44,63,83,102,124,143,163,183,203,224,243,264,282,304,323,344,364,382,403,424,444,464,482,503,524,544,563,583,604,623,643,664,683,704,722,743,763,784,803,822,843,864],"xSR":741.5,"ySR":469.95,"xT1":424.9,"yT1":0,"xT2":1058.1,"yT2":0,"toosoon":0,"cond_shown":"randomdotsizeEA","ratio_trial":900,"smaller_num":"9","larger_num":"10","correct_side":2,"subjID":"EmilianoCallejasGonzalez23","gender":"0","age":"9","school":"4"},{"start_time":1552055330408,"click_time":1552055331680,"finger_time":1552055330858,"fix_duration":668.6792092980203,"trial":56,"RT":450,"MT":822,"sideResp":2,"stimulus":"img/500/randomdotsizeEA/R/14_Ratio_500_L_5_R_10.png","xmouse":[767,767,767,767,767,767,767,767,767,767,767,767,767,767,767,767,767,766,769,773,775,775,777,778,781,785,792,806,811,841,850,857,864,872,874,878,879,879,886,911,931,950,967,982,997,1001,1009,1014,1016,1019,1019,1019,1019,1019,1019,1022,1030,1038,1047,1055,1056,1058,1061,1065],"ymouse":[537,537,537,537,537,537,537,537,537,537,537,537,537,537,537,537,537,534,512,493,474,470,465,461,449,439,428,411,404,376,371,368,366,364,363,362,361,361,357,344,334,322,313,304,296,293,282,275,272,261,258,256,253,249,232,217,197,178,159,133,126,119,109,98],"timestamp_mouse":[12,32,52,70,92,111,131,151,171,192,211,231,251,271,291,311,331,352,373,390,410,430,450,470,490,510,531,551,570,590,611,632,652,671,691,712,730,751,771,790,811,831,850,870,891,911,930,952,971,990,1011,1031,1051,1071,1091,1111,1131,1151,1172,1191,1212,1231,1251,1272],"xSR":741.5,"ySR":469.95,"xT1":424.9,"yT1":0,"xT2":1058.1,"yT2":0,"toosoon":0,"cond_shown":"randomdotsizeEA","ratio_trial":500,"smaller_num":"5","larger_num":"10","correct_side":2,"subjID":"EmilianoCallejasGonzalez23","gender":"0","age":"9","school":"4"},{"start_time":1552055333999,"click_time":1552055335859,"finger_time":1552055334540,"fix_duration":1378.2333324315123,"trial":57,"RT":541,"MT":1319,"sideResp":1,"stimulus":"img/250/equaldotanddens/L/5_Ratio_250_L_24_R_6.png","xmouse":[833,834,834,834,834,834,834,834,834,834,834,834,834,834,834,834,834,834,834,834,834,834,836,836,838,839,841,842,843,845,848,849,850,850,850,842,838,829,813,798,783,722,678,629,588,561,526,506,492,483,467,463,463,463,463,463,467,470,473,474,476,476,478,479,480,482,484,485,485,486,486,486,486,486,486,484,481,473,466,461,458,455,455,455,455,455,455,456,456,456,457,457,457,457],"ymouse":[490,488,488,488,488,488,488,488,488,488,488,488,488,488,488,488,488,488,488,488,488,488,487,486,483,481,477,475,471,467,461,457,451,440,423,385,369,356,339,327,319,305,299,291,286,279,270,262,255,253,250,246,245,242,239,235,226,221,217,215,210,209,204,201,196,192,184,181,178,174,171,160,155,151,147,138,135,129,123,117,111,105,105,105,104,104,102,101,101,101,101,100,100,98],"timestamp_mouse":[0,21,41,61,81,99,121,141,161,179,199,221,241,260,281,300,321,341,360,381,400,421,441,460,481,501,521,541,561,581,600,620,640,661,680,700,719,740,761,780,800,820,840,860,879,900,920,941,959,980,1001,1021,1040,1060,1081,1099,1120,1140,1161,1181,1201,1220,1240,1261,1279,1301,1321,1341,1360,1380,1401,1421,1439,1460,1481,1501,1520,1540,1560,1581,1600,1621,1640,1660,1680,1701,1719,1741,1760,1781,1801,1821,1841,1860],"xSR":741.5,"ySR":469.95,"xT1":424.9,"yT1":0,"xT2":1058.1,"yT2":0,"toosoon":0,"cond_shown":"equaldotanddens","ratio_trial":250,"smaller_num":"6","larger_num":"24","correct_side":1,"subjID":"EmilianoCallejasGonzalez23","gender":"0","age":"9","school":"4"},{"start_time":1552055338344,"click_time":1552055339519,"finger_time":1552055338919,"fix_duration":1323.0710278006393,"trial":58,"RT":575,"MT":600,"sideResp":2,"stimulus":"img/750/equaldotsize/R/4_Ratio_750_L_15_R_20.png","xmouse":[800,800,800,800,800,800,800,800,800,800,800,800,800,800,800,800,800,800,800,800,801,803,806,813,816,820,824,831,878,926,976,1046,1145,1333,1333,1333,1333,1333,1333,1333,1333,1333,1333,1333,1333,1333,1333,1333,1275,1242,1233,1228,1222,1210,1201,1190,1183,1170,1157],"ymouse":[526,526,526,526,526,526,526,526,526,526,526,526,526,526,526,526,526,526,526,526,522,520,510,498,491,487,482,474,406,347,291,228,148,28,28,28,28,28,28,28,28,28,28,28,28,28,28,28,6,19,22,22,24,27,29,30,32,35,37],"timestamp_mouse":[16,35,56,75,94,115,136,155,176,194,215,236,256,275,296,315,334,354,376,396,414,435,455,475,496,516,536,555,575,595,614,635,655,676,695,715,735,756,776,795,816,835,855,875,894,914,934,954,976,995,1015,1035,1055,1075,1095,1115,1135,1155,1175],"xSR":741.5,"ySR":469.95,"xT1":424.9,"yT1":0,"xT2":1058.1,"yT2":0,"toosoon":0,"cond_shown":"equaldotsize","ratio_trial":750,"smaller_num":"15","larger_num":"20","correct_side":2,"subjID":"EmilianoCallejasGonzalez23","gender":"0","age":"9","school":"4"},{"start_time":1552055340916,"click_time":1552055342519,"finger_time":1552055341699,"fix_duration":556.1498394692986,"trial":59,"RT":783,"MT":820,"sideResp":2,"stimulus":"img/900/equaldotanddens/R/3_Ratio_900_L_9_R_10.png","xmouse":[781,781,781,781,781,781,781,781,781,781,781,780,780,778,778,778,778,778,778,778,778,778,778,778,778,778,778,776,776,776,776,776,776,776,776,776,776,776,776,779,806,839,901,971,1022,1059,1095,1098,1099,1099,1104,1107,1114,1123,1141,1208,1231,1239,1240,1240,1240,1240,1240,1239,1237,1228,1215,1211,1203,1199,1196,1196,1196,1196,1194,1187,1182,1174,1167,1160,1150],"ymouse":[479,479,479,479,479,479,479,479,479,479,479,479,479,479,479,479,479,479,479,479,479,479,479,479,479,479,479,479,479,479,479,479,479,479,479,479,479,479,476,467,429,391,341,292,265,243,215,209,203,199,188,179,169,154,129,80,64,59,57,57,57,57,57,57,57,57,59,60,62,62,62,62,62,62,62,64,65,66,66,67,69],"timestamp_mouse":[4,23,42,63,83,104,123,142,162,183,203,223,243,263,284,303,323,344,363,383,403,424,443,463,483,503,522,544,563,583,603,624,644,663,682,702,723,744,763,783,803,823,844,863,883,903,922,943,963,984,1003,1024,1043,1064,1083,1103,1123,1144,1164,1184,1203,1224,1243,1263,1283,1303,1323,1344,1363,1384,1403,1424,1444,1463,1483,1503,1523,1544,1563,1583,1603],"xSR":741.5,"ySR":469.95,"xT1":424.9,"yT1":0,"xT2":1058.1,"yT2":0,"toosoon":0,"cond_shown":"equaldotanddens","ratio_trial":900,"smaller_num":"9","larger_num":"10","correct_side":2,"subjID":"EmilianoCallejasGonzalez23","gender":"0","age":"9","school":"4"},{"start_time":1552055348850,"click_time":1552055350939,"finger_time":1552055350380,"fix_duration":1451.2942901381944,"trial":60,"RT":1530,"MT":559,"sideResp":2,"stimulus":"img/500/randomdotsizeEA/R/1_Ratio_500_L_9_R_18.png","xmouse":[792,792,792,792,792,792,792,792,792,792,792,792,792,792,792,792,792,792,792,792,792,792,792,792,792,792,792,792,792,792,792,792,792,793,793,793,793,793,793,793,793,793,793,793,793,793,793,793,793,793,793,793,793,793,793,793,793,793,793,793,793,793,793,793,793,793,793,793,793,793,793,793,795,797,817,840,872,900,929,943,946,953,975,999,1048,1048,1048,1048,1048,1048,1048,1048,1048,1048,1048,1048,1048,1048,1048,1048,1048,1048,1048,1048,1137],"ymouse":[537,537,537,537,537,537,537,537,537,537,537,537,537,537,537,537,538,538,538,539,539,541,541,541,541,541,541,541,541,541,541,542,543,544,544,544,544,544,544,544,544,544,544,544,544,544,544,544,544,544,544,544,544,544,544,544,544,544,544,544,544,544,544,544,544,544,544,544,544,544,544,544,540,536,513,494,471,450,424,389,364,319,243,164,35,35,35,35,35,35,35,35,35,35,35,35,35,35,35,35,35,35,35,35,1],"timestamp_mouse":[10,29,50,69,89,109,129,149,170,188,210,228,249,269,289,309,328,350,370,389,409,429,449,470,490,508,529,550,570,589,609,630,650,670,690,709,729,749,769,789,809,829,849,868,889,909,930,950,968,989,1009,1030,1048,1070,1090,1109,1130,1148,1169,1190,1209,1229,1249,1270,1289,1309,1328,1349,1370,1389,1410,1429,1449,1469,1490,1510,1530,1550,1569,1589,1609,1629,1649,1669,1689,1710,1729,1749,1768,1789,1810,1829,1850,1869,1890,1908,1929,1949,1969,1989,2009,2030,2049,2069,2089],"xSR":741.5,"ySR":469.95,"xT1":424.9,"yT1":0,"xT2":1058.1,"yT2":0,"toosoon":0,"cond_shown":"randomdotsizeEA","ratio_trial":500,"smaller_num":"9","larger_num":"18","correct_side":2,"subjID":"EmilianoCallejasGonzalez23","gender":"0","age":"9","school":"4"},{"start_time":1552055353669,"click_time":1552055355340,"finger_time":1552055354280,"fix_duration":1449.0806926011583,"trial":61,"RT":611,"MT":1060,"sideResp":2,"stimulus":"img/900/equaldotanddens/L/2_Ratio_900_L_20_R_18.png","xmouse":[789,789,789,789,789,789,789,789,789,789,789,789,789,789,789,789,789,789,789,789,789,789,789,789,791,794,797,802,821,832,847,861,883,936,966,975,978,983,994,999,1002,1009,1011,1014,1025,1025,1025,1025,1025,1025,1025,1025,1027,1028,1037,1039,1041,1043,1045,1047,1047,1047,1047,1047,1047,1047,1049,1052,1056,1059,1061,1063,1064,1064,1066,1068,1069,1070,1070,1072,1078,1084,1096,1113],"ymouse":[525,525,525,525,525,525,525,525,525,525,525,525,525,525,525,525,525,525,525,525,525,525,525,525,524,520,513,507,493,484,474,459,435,383,354,343,338,333,324,318,311,293,273,250,203,188,173,162,147,127,123,122,122,122,122,122,122,122,122,122,122,122,122,122,122,122,122,122,122,122,120,118,116,116,116,116,116,116,116,115,112,110,107,99],"timestamp_mouse":[11,30,50,69,91,111,131,151,171,190,211,230,251,270,291,310,331,350,371,391,410,430,450,470,490,510,531,549,571,590,611,630,651,672,690,710,731,750,771,790,810,830,851,870,890,910,930,949,969,990,1009,1031,1050,1070,1090,1109,1131,1151,1171,1189,1211,1231,1250,1270,1290,1310,1330,1350,1371,1389,1409,1431,1450,1471,1490,1510,1530,1550,1571,1589,1611,1629,1650,1671],"xSR":741.5,"ySR":469.95,"xT1":424.9,"yT1":0,"xT2":1058.1,"yT2":0,"toosoon":0,"cond_shown":"equaldotanddens","ratio_trial":900,"smaller_num":"18","larger_num":"20","correct_side":1,"subjID":"EmilianoCallejasGonzalez23","gender":"0","age":"9","school":"4"},{"start_time":1552055358292,"click_time":1552055359399,"finger_time":1552055358978,"fix_duration":250,"trial":62,"RT":686,"MT":421,"sideResp":2,"stimulus":"img/750/equaldotanddens/R/2_Ratio_750_L_6_R_8.png","xmouse":[810,810,810,810,810,810,810,810,810,810,810,810,810,810,810,810,810,810,810,810,810,810,810,810,810,810,810,810,810,810,810,811,815,822,852,880,926,996,1153,1202,1218,1219,1210,1201,1199,1199,1199,1199,1199,1198,1194,1191,1185,1174,1168,1158],"ymouse":[522,522,522,522,522,522,522,522,522,522,522,522,522,522,522,522,522,522,522,522,522,522,522,522,522,522,522,522,522,522,522,522,516,504,459,425,376,313,189,135,105,79,64,53,50,49,49,48,48,48,48,46,45,44,43,41],"timestamp_mouse":[7,27,48,67,88,108,127,147,168,187,208,228,247,267,287,307,326,346,367,388,