[{"start_time":1552054118084,"click_time":1552054124757,"finger_time":1552054118097,"fix_duration":525.4280071885071,"trial":0,"RT":13,"MT":6660,"sideResp":2,"stimulus":[],"xmouse":[761,761,761,761,761,761,761,761,761,761,761,761,764,768,768,768,770,770,770,770,770,770,770,770,770,770,770,770,770,770,770,770,770,770,770,770,771,771,771,771,771,771,771,771,771,771,771,771,771,771,771,771,771,771,771,771,771,771,771,771,771,771,771,771,771,771,771,771,771,771,771,771,771,771,771,771,771,771,771,771,771,771,771,771,772,773,776,781,782,782,782,785,787,790,791,791,791,791,791,791,791,791,791,793,793,793,793,794,794,794,794,794,794,794,794,794,796,800,803,805,806,807,807,807,807,807,807,807,807,807,807,807,807,807,807,807,807,807,809,809,809,809,810,810,810,810,810,810,810,810,810,810,810,810,810,810,810,810,810,810,810,810,810,810,810,810,810,810,810,810,810,810,810,810,810,810,810,810,810,810,810,810,810,810,810,810,810,810,810,810,810,810,810,810,810,810,810,810,810,810,810,810,810,810,810,810,810,810,810,810,810,810,810,810,810,810,810,810,810,810,810,810,810,810,810,810,810,810,810,810,810,810,810,810,810,810,810,810,810,810,810,810,810,810,810,810,810,810,810,810,810,810,810,810,810,810,810,810,810,810,810,810,810,810,810,810,810,810,810,810,810,809,809,807,806,802,799,797,797,797,797,797,797,797,797,797,796,793,789,783,774,765,741,737,737,737,738,797,878,973,1076,1178,1405,1506,1541,1543,1537,1532,1531,1530,1529,1527,1513,1503,1493,1485,1479,1468,1402,1345,1294,1252,1240,1239,1238,1237,1235,1226,1183,1183,1181,1180,1161,1150],"ymouse":[541,541,541,541,541,542,542,542,542,542,542,542,546,550,552,552,554,554,554,554,554,554,554,554,554,554,554,554,554,554,554,554,554,554,558,562,566,571,575,578,578,578,578,578,578,579,581,588,588,588,588,588,588,588,588,588,588,588,588,588,588,588,589,589,590,590,590,592,592,594,594,594,594,594,594,594,594,598,602,602,602,602,602,602,603,603,604,609,610,610,610,611,612,615,617,618,618,618,618,618,618,618,618,620,620,620,620,621,621,621,621,621,621,621,621,621,621,622,624,626,626,626,626,626,626,626,626,626,626,626,626,626,626,626,626,626,626,626,626,626,626,625,623,623,623,623,623,623,623,623,623,623,623,623,623,623,623,623,623,623,623,623,623,623,623,623,623,623,623,623,623,623,623,623,623,623,623,623,623,623,623,623,623,623,623,623,623,623,623,623,623,623,623,623,623,623,623,623,623,623,623,623,623,623,623,623,623,623,623,623,623,623,623,623,623,623,623,623,623,623,623,623,623,623,623,623,623,623,623,623,623,623,623,623,623,623,623,623,623,623,623,623,623,623,623,623,623,623,623,623,623,623,623,623,623,623,623,623,623,623,623,623,623,623,623,623,623,623,623,623,623,621,619,614,609,601,594,590,590,590,590,590,590,590,590,590,590,603,609,615,618,618,617,615,614,611,604,553,496,434,362,274,42,0,0,0,0,0,0,0,0,0,0,0,1,4,7,12,36,52,66,79,82,82,83,83,84,87,88,88,88,85,71,61],"timestamp_mouse":[13,32,52,73,92,112,133,152,173,192,212,232,252,273,292,313,332,352,372,392,413,432,453,472,492,512,532,552,572,592,612,632,653,673,691,713,732,752,772,792,812,832,852,873,892,912,932,952,973,992,1012,1032,1052,1073,1092,1112,1132,1152,1172,1192,1212,1233,1252,1272,1293,1313,1332,1352,1372,1392,1412,1433,1452,1472,1493,1513,1531,1552,1572,1593,1613,1631,1652,1673,1691,1713,1733,1752,1771,1793,1812,1832,1852,1872,1892,1913,1933,1952,1972,1992,2013,2033,2052,2072,2092,2112,2132,2152,2172,2193,2213,2233,2252,2273,2293,2313,2333,2353,2372,2393,2413,2432,2452,2472,2493,2513,2533,2552,2572,2592,2613,2631,2653,2672,2693,2713,2732,2752,2772,2792,2812,2833,2852,2872,2892,2912,2933,2953,2971,2991,3012,3033,3053,3072,3093,3113,3133,3152,3173,3193,3212,3233,3252,3273,3293,3312,3332,3353,3372,3392,3412,3433,3452,3472,3493,3512,3533,3552,3571,3593,3613,3633,3653,3672,3693,3713,3732,3753,3771,3793,3813,3832,3852,3872,3892,3912,3933,3952,3972,3993,4013,4032,4052,4072,4092,4112,4132,4152,4172,4192,4213,4233,4253,4273,4292,4312,4332,4352,4373,4392,4412,4432,4453,4472,4493,4513,4533,4553,4572,4593,4613,4633,4652,4672,4693,4712,4732,4752,4773,4791,4813,4833,4852,4872,4893,4913,4932,4953,4973,4992,5012,5032,5051,5073,5092,5112,5132,5153,5172,5192,5213,5232,5252,5271,5293,5313,5333,5351,5372,5393,5412,5432,5452,5472,5492,5512,5533,5552,5573,5592,5613,5631,5653,5673,5693,5711,5732,5753,5772,5793,5813,5832,5852,5872,5891,5912,5932,5952,5973,5992,6012,6032,6052,6073,6092,6112,6133,6153,6173,6193,6212,6232,6254,6273,6292,6313,6332,6352,6372,6393,6413,6432,6452,6472,6492,6512,6531,6552,6573,6593,6613,6633,6653,6672],"xSR":741.5,"ySR":501.8,"xT1":424.9,"yT1":0,"xT2":1058.1,"yT2":0,"toosoon":0,"cond_shown":"Incongruent","ratio_trial":300,"L_num":7,"L_den":10,"R_num":8,"R_den":20,"correct_side":1,"subjID":"EmilianoCallejasGonzalez23","gender":"0","age":"9","school":"4","test":{"fix_dur":[250,1500],"timestim":1000,"targets_dim":[100,100],"targets_relative_coord":[0.3,0.7],"size_stim":[880,420],"start_dim":[100,100],"size_start":[300,300],"size_fix":60,"samplingrate":20,"img_types":["Congruent","Incongruent"],"ratios":[100,200,300],"rep_conds":19,"nTrials":120,"trials_to_rest":500,"Trials_order":[107,86,11,78,37,53,30,70,20,13,45,15,116,110,80,76,106,69,5,9,111,115,52,109,44,50,18,54,24,17,27,8,39,103,29,25,96,56,14,41,105,55,114,77,23,35,97,85,83,72,60,87,6,7,75,61,22,89,26,73,58,46,2,49,48,95,38,102,90,32,66,93,42,40,81,84,10,31,88,63,59,16,119,74,57,33,68,19,118,108,92,51,104,117,21,65,113,36,64,3,43,94,67,98,34,62,0,28,47,71,100,101,112,79,91,4,82,1,12,99],"cond_shown":["Incongruent","Congruent","Incongruent","Congruent","Incongruent","Incongruent","Congruent","Congruent","Congruent","Incongruent","Incongruent","Incongruent","Congruent","Congruent","Congruent","Congruent","Congruent","Incongruent","Incongruent","Incongruent","Incongruent","Incongruent","Congruent","Incongruent","Congruent","Congruent","Congruent","Congruent","Congruent","Incongruent","Incongruent","Congruent","Incongruent","Incongruent","Incongruent","Incongruent","Congruent","Congruent","Congruent","Incongruent","Incongruent","Incongruent","Congruent","Incongruent","Incongruent","Incongruent","Incongruent","Incongruent","Incongruent","Congruent","Congruent","Incongruent","Congruent","Incongruent","Incongruent","Incongruent","Congruent","Incongruent","Congruent","Incongruent","Congruent","Congruent","Congruent","Incongruent","Congruent","Incongruent","Congruent","Congruent","Congruent","Congruent","Congruent","Incongruent","Congruent","Congruent","Incongruent","Congruent","Congruent","Incongruent","Congruent","Incongruent","Incongruent","Congruent","Incongruent","Congruent","Incongruent","Incongruent","Congruent","Incongruent","Congruent","Congruent","Congruent","Incongruent","Congruent","Incongruent","Incongruent","Incongruent","Incongruent","Congruent","Congruent","Incongruent","Incongruent","Congruent","Incongruent","Congruent","Congruent","Congruent","Congruent","Congruent","Incongruent","Incongruent","Congruent","Incongruent","Congruent","Incongruent","Incongruent","Congruent","Congruent","Incongruent","Congruent","Incongruent"],"ratio_trial":[300,200,300,100,100,300,100,300,200,100,200,200,200,200,200,300,300,200,300,200,200,100,300,100,200,200,100,100,100,300,200,200,200,100,300,100,100,200,200,300,200,100,100,300,300,300,100,100,300,100,100,200,100,100,200,100,300,300,200,100,300,300,200,100,100,300,200,100,100,200,100,200,100,300,200,100,300,100,300,200,300,300,300,200,200,200,200,100,300,100,200,200,200,200,200,300,300,100,300,200,100,300,100,200,300,200,100,300,300,300,300,300,300,100,100,300,300,100,100,200],"left_num":[7,15,4,3,2,13,11,20,7,12,3,4,9,5,6,1,4,14,13,4,1,3,3,2,3,7,2,11,15,13,3,8,7,12,3,13,10,9,16,13,1,6,3,13,4,13,13,3,1,10,8,1,3,6,7,3,4,13,3,6,12,11,9,17,11,13,7,4,11,3,4,1,4,1,4,9,8,2,2,1,3,5,4,5,4,4,14,12,11,3,3,7,9,4,7,13,13,12,20,9,11,1,2,11,4,8,15,8,8,8,1,4,1,17,3,9,20,6,6,14],"right_num":[8,4,6,4,6,12,6,14,18,2,1,1,13,14,7,19,13,6,12,1,3,8,4,6,14,18,11,6,13,12,11,7,4,2,4,12,3,13,9,12,2,13,2,12,2,12,12,8,2,3,2,2,2,3,8,11,1,12,11,7,2,4,4,10,4,12,2,15,4,14,6,3,6,7,6,8,10,8,12,2,4,6,2,14,14,14,6,2,1,4,11,14,13,1,6,12,12,13,13,8,9,19,8,3,13,2,13,1,14,14,6,2,6,10,11,3,14,13,15,12],"left_den":[10,25,5,20,4,26,22,25,15,30,10,30,30,10,12,3,20,30,26,30,2,5,6,4,6,15,5,22,25,26,4,15,15,30,6,26,25,30,30,26,3,10,6,26,20,26,26,5,2,25,16,3,6,12,10,5,10,26,10,10,24,22,20,30,22,26,21,10,22,10,8,2,8,20,5,15,15,4,10,3,6,25,20,10,6,6,28,30,22,20,10,10,30,30,15,26,26,30,25,15,22,3,4,22,20,15,25,16,10,10,5,20,5,30,5,10,25,10,12,30],"right_den":[20,10,12,16,15,15,15,28,27,4,2,3,26,20,10,30,26,9,15,3,10,16,5,15,20,27,22,15,26,15,20,21,6,4,20,20,10,26,27,15,15,26,5,15,4,15,20,16,10,10,5,15,5,5,16,22,10,15,22,14,10,20,16,15,10,15,15,30,10,28,10,10,10,20,10,16,12,20,24,15,20,12,4,20,30,30,20,4,5,16,22,28,26,3,9,15,15,26,26,10,15,30,20,10,26,6,26,5,28,28,12,4,12,15,22,5,28,26,25,18],"correct_side":[1,1,1,2,1,2,1,1,2,2,2,2,2,2,2,2,2,2,2,2,1,1,2,1,2,2,2,1,1,2,1,1,2,2,1,2,1,2,1,2,1,1,1,2,2,2,2,1,1,1,1,1,1,2,1,1,1,2,2,1,1,1,1,2,1,2,1,2,1,2,2,1,2,2,1,1,2,1,2,1,1,2,2,2,1,1,1,2,1,2,2,1,2,2,2,2,2,2,1,2,2,2,1,1,2,1,1,1,1,1,2,2,2,2,1,1,1,1,2,2],"img_shown":["img2/300/Incongruent/L/I_Dist_300_LN_7_LD_10_RN_8_RD_20_0.png","img2/200/Congruent/L/C_Dist_200_LN_15_LD_25_RN_4_RD_10_0.png","img2/300/Incongruent/L/I_Dist_300_LN_4_LD_5_RN_6_RD_12_0.png","img2/100/Congruent/R/C_Dist_100_LN_3_LD_20_RN_4_RD_16_1.png","img2/100/Incongruent/L/I_Dist_100_LN_2_LD_4_RN_6_RD_15_0.png","img2/300/Incongruent/R/I_Dist_300_LN_13_LD_26_RN_12_RD_15_1.png","img2/100/Congruent/L/C_Dist_100_LN_11_LD_22_RN_6_RD_15_0.png","img2/300/Congruent/L/C_Dist_300_LN_20_LD_25_RN_14_RD_28_0.png","img2/200/Congruent/R/C_Dist_200_LN_7_LD_15_RN_18_RD_27_1.png","img2/100/Incongruent/R/I_Dist_100_LN_12_LD_30_RN_2_RD_4_1.png","img2/200/Incongruent/R/I_Dist_200_LN_3_LD_10_RN_1_RD_2_1.png","img2/200/Incongruent/R/I_Dist_200_LN_4_LD_30_RN_1_RD_3_1.png","img2/200/Congruent/R/C_Dist_200_LN_9_LD_30_RN_13_RD_26_1.png","img2/200/Congruent/R/C_Dist_200_LN_5_LD_10_RN_14_RD_20_1.png","img2/200/Congruent/R/C_Dist_200_LN_6_LD_12_RN_7_RD_10_1.png","img2/300/Congruent/R/C_Dist_300_LN_1_LD_3_RN_19_RD_30_1.png","img2/300/Congruent/R/C_Dist_300_LN_4_LD_20_RN_13_RD_26_1.png","img2/200/Incongruent/R/I_Dist_200_LN_14_LD_30_RN_6_RD_9_1.png","img2/300/Incongruent/R/I_Dist_300_LN_13_LD_26_RN_12_RD_15_1.png","img2/200/Incongruent/R/I_Dist_200_LN_4_LD_30_RN_1_RD_3_1.png","img2/200/Incongruent/L/I_Dist_200_LN_1_LD_2_RN_3_RD_10_0.png","img2/100/Incongruent/L/I_Dist_100_LN_3_LD_5_RN_8_RD_16_0.png","img2/300/Congruent/R/C_Dist_300_LN_3_LD_6_RN_4_RD_5_1.png","img2/100/Incongruent/L/I_Dist_100_LN_2_LD_4_RN_6_RD_15_0.png","img2/200/Congruent/R/C_Dist_200_LN_3_LD_6_RN_14_RD_20_1.png","img2/200/Congruent/R/C_Dist_200_LN_7_LD_15_RN_18_RD_27_1.png","img2/100/Congruent/R/C_Dist_100_LN_2_LD_5_RN_11_RD_22_1.png","img2/100/Congruent/L/C_Dist_100_LN_11_LD_22_RN_6_RD_15_0.png","img2/100/Congruent/L/C_Dist_100_LN_15_LD_25_RN_13_RD_26_0.png","img2/300/Incongruent/R/I_Dist_300_LN_13_LD_26_RN_12_RD_15_1.png","img2/200/Incongruent/L/I_Dist_200_LN_3_LD_4_RN_11_RD_20_0.png","img2/200/Congruent/L/C_Dist_200_LN_8_LD_15_RN_7_RD_21_0.png","img2/200/Incongruent/R/I_Dist_200_LN_7_LD_15_RN_4_RD_6_1.png","img2/100/Incongruent/R/I_Dist_100_LN_12_LD_30_RN_2_RD_4_1.png","img2/300/Incongruent/L/I_Dist_300_LN_3_LD_6_RN_4_RD_20_0.png","img2/100/Incongruent/R/I_Dist_100_LN_13_LD_26_RN_12_RD_20_1.png","img2/100/Congruent/L/C_Dist_100_LN_10_LD_25_RN_3_RD_10_0.png","img2/200/Congruent/R/C_Dist_200_LN_9_LD_30_RN_13_RD_26_1.png","img2/200/Congruent/L/C_Dist_200_LN_16_LD_30_RN_9_RD_27_0.png","img2/300/Incongruent/R/I_Dist_300_LN_13_LD_26_RN_12_RD_15_1.png","img2/200/Incongruent/L/I_Dist_200_LN_1_LD_3_RN_2_RD_15_0.png","img2/100/Incongruent/L/I_Dist_100_LN_6_LD_10_RN_13_RD_26_0.png","img2/100/Congruent/L/C_Dist_100_LN_3_LD_6_RN_2_RD_5_0.png","img2/300/Incongruent/R/I_Dist_300_LN_13_LD_26_RN_12_RD_15_1.png","img2/300/Incongruent/R/I_Dist_300_LN_4_LD_20_RN_2_RD_4_1.png","img2/300/Incongruent/R/I_Dist_300_LN_13_LD_26_RN_12_RD_15_1.png","img2/100/Incongruent/R/I_Dist_100_LN_13_LD_26_RN_12_RD_20_1.png","img2/100/Incongruent/L/I_Dist_100_LN_3_LD_5_RN_8_RD_16_0.png","img2/300/Incongruent/L/I_Dist_300_LN_1_LD_2_RN_2_RD_10_0.png","img2/100/Congruent/L/C_Dist_100_LN_10_LD_25_RN_3_RD_10_0.png","img2/100/Congruent/L/C_Dist_100_LN_8_LD_16_RN_2_RD_5_0.png","img2/200/Incongruent/L/I_Dist_200_LN_1_LD_3_RN_2_RD_15_0.png","img2/100/Congruent/L/C_Dist_100_LN_3_LD_6_RN_2_RD_5_0.png","img2/100/Incongruent/R/I_Dist_100_LN_6_LD_12_RN_3_RD_5_1.png","img2/200/Incongruent/L/I_Dist_200_LN_7_LD_10_RN_8_RD_16_0.png","img2/100/Incongruent/L/I_Dist_100_LN_3_LD_5_RN_11_RD_22_0.png","img2/300/Congruent/L/C_Dist_300_LN_4_LD_10_RN_1_RD_10_0.png","img2/300/Incongruent/R/I_Dist_300_LN_13_LD_26_RN_12_RD_15_1.png","img2/200/Congruent/R/C_Dist_200_LN_3_LD_10_RN_11_RD_22_1.png","img2/100/Incongruent/L/I_Dist_100_LN_6_LD_10_RN_7_RD_14_0.png","img2/300/Congruent/L/C_Dist_300_LN_12_LD_24_RN_2_RD_10_0.png","img2/300/Congruent/L/C_Dist_300_LN_11_LD_22_RN_4_RD_20_0.png","img2/200/Congruent/L/C_Dist_200_LN_9_LD_20_RN_4_RD_16_0.png","img2/100/Incongruent/R/I_Dist_100_LN_17_LD_30_RN_10_RD_15_1.png","img2/100/Congruent/L/C_Dist_100_LN_11_LD_22_RN_4_RD_10_0.png","img2/300/Incongruent/R/I_Dist_300_LN_13_LD_26_RN_12_RD_15_1.png","img2/200/Congruent/L/C_Dist_200_LN_7_LD_21_RN_2_RD_15_0.png","img2/100/Congruent/R/C_Dist_100_LN_4_LD_10_RN_15_RD_30_1.png","img2/100/Congruent/L/C_Dist_100_LN_11_LD_22_RN_4_RD_10_0.png","img2/200/Congruent/R/C_Dist_200_LN_3_LD_10_RN_14_RD_28_1.png","img2/100/Congruent/R/C_Dist_100_LN_4_LD_8_RN_6_RD_10_1.png","img2/200/Incongruent/L/I_Dist_200_LN_1_LD_2_RN_3_RD_10_0.png","img2/100/Congruent/R/C_Dist_100_LN_4_LD_8_RN_6_RD_10_1.png","img2/300/Congruent/R/C_Dist_300_LN_1_LD_20_RN_7_RD_20_1.png","img2/200/Incongruent/L/I_Dist_200_LN_4_LD_5_RN_6_RD_10_0.png","img2/100/Congruent/L/C_Dist_100_LN_9_LD_15_RN_8_RD_16_0.png","img2/300/Congruent/R/C_Dist_300_LN_8_LD_15_RN_10_RD_12_1.png","img2/100/Incongruent/L/I_Dist_100_LN_2_LD_4_RN_8_RD_20_0.png","img2/300/Congruent/R/C_Dist_300_LN_2_LD_10_RN_12_RD_24_1.png","img2/200/Incongruent/L/I_Dist_200_LN_1_LD_3_RN_2_RD_15_0.png","img2/300/Incongruent/L/I_Dist_300_LN_3_LD_6_RN_4_RD_20_0.png","img2/300/Congruent/R/C_Dist_300_LN_5_LD_25_RN_6_RD_12_1.png","img2/300/Incongruent/R/I_Dist_300_LN_4_LD_20_RN_2_RD_4_1.png","img2/200/Congruent/R/C_Dist_200_LN_5_LD_10_RN_14_RD_20_1.png","img2/200/Incongruent/L/I_Dist_200_LN_4_LD_6_RN_14_RD_30_0.png","img2/200/Incongruent/L/I_Dist_200_LN_4_LD_6_RN_14_RD_30_0.png","img2/200/Congruent/L/C_Dist_200_LN_14_LD_28_RN_6_RD_20_0.png","img2/100/Incongruent/R/I_Dist_100_LN_12_LD_30_RN_2_RD_4_1.png","img2/300/Congruent/L/C_Dist_300_LN_11_LD_22_RN_1_RD_5_0.png","img2/100/Congruent/R/C_Dist_100_LN_3_LD_20_RN_4_RD_16_1.png","img2/200/Congruent/R/C_Dist_200_LN_3_LD_10_RN_11_RD_22_1.png","img2/200/Incongruent/L/I_Dist_200_LN_7_LD_10_RN_14_RD_28_0.png","img2/200/Congruent/R/C_Dist_200_LN_9_LD_30_RN_13_RD_26_1.png","img2/200/Incongruent/R/I_Dist_200_LN_4_LD_30_RN_1_RD_3_1.png","img2/200/Incongruent/R/I_Dist_200_LN_7_LD_15_RN_6_RD_9_1.png","img2/300/Incongruent/R/I_Dist_300_LN_13_LD_26_RN_12_RD_15_1.png","img2/300/Incongruent/R/I_Dist_300_LN_13_LD_26_RN_12_RD_15_1.png","img2/100/Congruent/R/C_Dist_100_LN_12_LD_30_RN_13_RD_26_1.png","img2/300/Congruent/L/C_Dist_300_LN_20_LD_25_RN_13_RD_26_0.png","img2/200/Incongruent/R/I_Dist_200_LN_9_LD_15_RN_8_RD_10_1.png","img2/100/Incongruent/R/I_Dist_100_LN_11_LD_22_RN_9_RD_15_1.png","img2/300/Congruent/R/C_Dist_300_LN_1_LD_3_RN_19_RD_30_1.png","img2/100/Incongruent/L/I_Dist_100_LN_2_LD_4_RN_8_RD_20_0.png","img2/200/Congruent/L/C_Dist_200_LN_11_LD_22_RN_3_RD_10_0.png","img2/300/Congruent/R/C_Dist_300_LN_4_LD_20_RN_13_RD_26_1.png","img2/200/Congruent/L/C_Dist_200_LN_8_LD_15_RN_2_RD_6_0.png","img2/100/Congruent/L/C_Dist_100_LN_15_LD_25_RN_13_RD_26_0.png","img2/300/Congruent/L/C_Dist_300_LN_8_LD_16_RN_1_RD_5_0.png","img2/300/Incongruent/L/I_Dist_300_LN_8_LD_10_RN_14_RD_28_0.png","img2/300/Incongruent/L/I_Dist_300_LN_8_LD_10_RN_14_RD_28_0.png","img2/300/Congruent/R/C_Dist_300_LN_1_LD_5_RN_6_RD_12_1.png","img2/300/Incongruent/R/I_Dist_300_LN_4_LD_20_RN_2_RD_4_1.png","img2/300/Congruent/R/C_Dist_300_LN_1_LD_5_RN_6_RD_12_1.png","img2/100/Incongruent/R/I_Dist_100_LN_17_LD_30_RN_10_RD_15_1.png","img2/100/Incongruent/L/I_Dist_100_LN_3_LD_5_RN_11_RD_22_0.png","img2/300/Congruent/L/C_Dist_300_LN_9_LD_10_RN_3_RD_5_0.png","img2/300/Congruent/L/C_Dist_300_LN_20_LD_25_RN_14_RD_28_0.png","img2/100/Incongruent/L/I_Dist_100_LN_6_LD_10_RN_13_RD_26_0.png","img2/100/Congruent/R/C_Dist_100_LN_6_LD_12_RN_15_RD_25_1.png","img2/200/Incongruent/R/I_Dist_200_LN_14_LD_30_RN_12_RD_18_1.png"],"dist100_C":[["C_Dist_100_LN_10_LD_25_RN_3_RD_10_0.png","C_Dist_100_LN_11_LD_22_RN_4_RD_10_0.png","C_Dist_100_LN_11_LD_22_RN_6_RD_15_0.png","C_Dist_100_LN_15_LD_25_RN_13_RD_26_0.png","C_Dist_100_LN_3_LD_6_RN_2_RD_5_0.png","C_Dist_100_LN_6_LD_20_RN_5_RD_25_0.png","C_Dist_100_LN_8_LD_16_RN_2_RD_5_0.png","C_Dist_100_LN_9_LD_15_RN_8_RD_16_0.png"],["C_Dist_100_LN_1_LD_2_RN_18_RD_30_1.png","C_Dist_100_LN_1_LD_2_RN_3_RD_5_1.png","C_Dist_100_LN_12_LD_30_RN_13_RD_26_1.png","C_Dist_100_LN_2_LD_5_RN_11_RD_22_1.png","C_Dist_100_LN_2_LD_5_RN_6_RD_12_1.png","C_Dist_100_LN_3_LD_20_RN_4_RD_16_1.png","C_Dist_100_LN_4_LD_10_RN_15_RD_30_1.png","C_Dist_100_LN_4_LD_8_RN_6_RD_10_1.png","C_Dist_100_LN_6_LD_12_RN_15_RD_25_1.png","C_Dist_100_LN_7_LD_14_RN_15_RD_25_1.png","C_Dist_100_LN_7_LD_14_RN_9_RD_15_1.png"]],"dist100_I":[["I_Dist_100_LN_1_LD_2_RN_8_RD_20_0.png","I_Dist_100_LN_2_LD_4_RN_6_RD_15_0.png","I_Dist_100_LN_2_LD_4_RN_8_RD_20_0.png","I_Dist_100_LN_3_LD_5_RN_11_RD_22_0.png","I_Dist_100_LN_3_LD_5_RN_8_RD_16_0.png","I_Dist_100_LN_3_LD_6_RN_4_RD_10_0.png","I_Dist_100_LN_3_LD_9_RN_7_RD_30_0.png","I_Dist_100_LN_4_LD_8_RN_8_RD_20_0.png","I_Dist_100_LN_6_LD_10_RN_11_RD_22_0.png","I_Dist_100_LN_6_LD_10_RN_13_RD_26_0.png","I_Dist_100_LN_6_LD_10_RN_7_RD_14_0.png","I_Dist_100_LN_9_LD_10_RN_20_RD_25_0.png","I_Dist_100_LN_9_LD_15_RN_13_RD_26_0.png","I_Dist_100_LN_9_LD_15_RN_14_RD_28_0.png"],["I_Dist_100_LN_10_LD_25_RN_8_RD_16_1.png","I_Dist_100_LN_10_LD_25_RN_9_RD_18_1.png","I_Dist_100_LN_11_LD_22_RN_9_RD_15_1.png","I_Dist_100_LN_12_LD_24_RN_9_RD_15_1.png","I_Dist_100_LN_12_LD_30_RN_2_RD_4_1.png","I_Dist_100_LN_13_LD_26_RN_12_RD_20_1.png","I_Dist_100_LN_13_LD_26_RN_6_RD_10_1.png","I_Dist_100_LN_17_LD_30_RN_10_RD_15_1.png","I_Dist_100_LN_6_LD_12_RN_3_RD_5_1.png","I_Dist_100_LN_8_LD_16_RN_6_RD_10_1.png","I_Dist_100_LN_8_LD_20_RN_1_RD_2_1.png","I_Dist_100_LN_9_LD_18_RN_6_RD_10_1.png"]],"dist100_S":[["E_Dist_100_LN_2_LD_12_RN_2_RD_30_0.png","E_Dist_100_LN_6_LD_10_RN_6_RD_12_0.png"],["E_Dist_100_LN_6_LD_12_RN_6_RD_10_1.png"]],"dist200_C":[["C_Dist_200_LN_11_LD_22_RN_3_RD_10_0.png","C_Dist_200_LN_12_LD_15_RN_6_RD_10_0.png","C_Dist_200_LN_12_LD_20_RN_6_RD_15_0.png","C_Dist_200_LN_14_LD_28_RN_6_RD_20_0.png","C_Dist_200_LN_15_LD_25_RN_4_RD_10_0.png","C_Dist_200_LN_16_LD_20_RN_12_RD_20_0.png","C_Dist_200_LN_16_LD_30_RN_9_RD_27_0.png","C_Dist_200_LN_20_LD_25_RN_9_RD_15_0.png","C_Dist_200_LN_21_LD_30_RN_2_RD_4_0.png","C_Dist_200_LN_4_LD_10_RN_3_RD_15_0.png","C_Dist_200_LN_4_LD_8_RN_3_RD_10_0.png","C_Dist_200_LN_6_LD_15_RN_3_RD_15_0.png","C_Dist_200_LN_7_LD_21_RN_2_RD_15_0.png","C_Dist_200_LN_8_LD_15_RN_2_RD_6_0.png","C_Dist_200_LN_8_LD_15_RN_3_RD_9_0.png","C_Dist_200_LN_8_LD_15_RN_7_RD_21_0.png","C_Dist_200_LN_9_LD_20_RN_4_RD_16_0.png"],["C_Dist_200_LN_1_LD_2_RN_21_RD_30_1.png","C_Dist_200_LN_13_LD_26_RN_14_RD_20_1.png","C_Dist_200_LN_3_LD_10_RN_11_RD_22_1.png","C_Dist_200_LN_3_LD_10_RN_14_RD_28_1.png","C_Dist_200_LN_3_LD_10_RN_7_RD_14_1.png","C_Dist_200_LN_3_LD_12_RN_9_RD_20_1.png","C_Dist_200_LN_3_LD_6_RN_14_RD_20_1.png","C_Dist_200_LN_5_LD_10_RN_14_RD_20_1.png","C_Dist_200_LN_6_LD_12_RN_7_RD_10_1.png","C_Dist_200_LN_6_LD_20_RN_11_RD_22_1.png","C_Dist_200_LN_7_LD_15_RN_18_RD_27_1.png","C_Dist_200_LN_9_LD_30_RN_13_RD_26_1.png"]],"dist200_I":[["I_Dist_200_LN_1_LD_2_RN_3_RD_10_0.png","I_Dist_200_LN_1_LD_3_RN_2_RD_15_0.png","I_Dist_200_LN_3_LD_4_RN_11_RD_20_0.png","I_Dist_200_LN_4_LD_5_RN_6_RD_10_0.png","I_Dist_200_LN_4_LD_6_RN_14_RD_30_0.png","I_Dist_200_LN_7_LD_10_RN_12_RD_24_0.png","I_Dist_200_LN_7_LD_10_RN_14_RD_28_0.png","I_Dist_200_LN_7_LD_10_RN_8_RD_16_0.png"],["I_Dist_200_LN_11_LD_20_RN_3_RD_4_1.png","I_Dist_200_LN_14_LD_30_RN_12_RD_18_1.png","I_Dist_200_LN_14_LD_30_RN_6_RD_9_1.png","I_Dist_200_LN_3_LD_10_RN_1_RD_2_1.png","I_Dist_200_LN_4_LD_30_RN_1_RD_3_1.png","I_Dist_200_LN_6_LD_20_RN_3_RD_6_1.png","I_Dist_200_LN_7_LD_15_RN_4_RD_6_1.png","I_Dist_200_LN_7_LD_15_RN_6_RD_9_1.png","I_Dist_200_LN_9_LD_15_RN_8_RD_10_1.png"]],"dist200_S":[["E_Dist_200_LN_3_LD_6_RN_3_RD_10_0.png"],["E_Dist_200_LN_3_LD_10_RN_3_RD_6_1.png"]],"dist300_C":[["C_Dist_300_LN_11_LD_22_RN_1_RD_5_0.png","C_Dist_300_LN_11_LD_22_RN_2_RD_10_0.png","C_Dist_300_LN_11_LD_22_RN_4_RD_20_0.png","C_Dist_300_LN_12_LD_24_RN_2_RD_10_0.png","C_Dist_300_LN_18_LD_20_RN_9_RD_15_0.png","C_Dist_300_LN_20_LD_25_RN_13_RD_26_0.png","C_Dist_300_LN_20_LD_25_RN_14_RD_28_0.png","C_Dist_300_LN_20_LD_25_RN_5_RD_10_0.png","C_Dist_300_LN_20_LD_25_RN_8_RD_16_0.png","C_Dist_300_LN_20_LD_25_RN_9_RD_18_0.png","C_Dist_300_LN_24_LD_30_RN_2_RD_4_0.png","C_Dist_300_LN_24_LD_30_RN_8_RD_16_0.png","C_Dist_300_LN_3_LD_6_RN_2_RD_10_0.png","C_Dist_300_LN_4_LD_10_RN_1_RD_10_0.png","C_Dist_300_LN_4_LD_5_RN_2_RD_4_0.png","C_Dist_300_LN_8_LD_16_RN_1_RD_5_0.png","C_Dist_300_LN_9_LD_10_RN_3_RD_5_0.png"],["C_Dist_300_LN_1_LD_20_RN_7_RD_20_1.png","C_Dist_300_LN_1_LD_3_RN_19_RD_30_1.png","C_Dist_300_LN_1_LD_30_RN_8_RD_24_1.png","C_Dist_300_LN_1_LD_5_RN_11_RD_22_1.png","C_Dist_300_LN_1_LD_5_RN_3_RD_6_1.png","C_Dist_300_LN_1_LD_5_RN_6_RD_12_1.png","C_Dist_300_LN_2_LD_10_RN_12_RD_24_1.png","C_Dist_300_LN_2_LD_20_RN_10_RD_25_1.png","C_Dist_300_LN_3_LD_12_RN_11_RD_20_1.png","C_Dist_300_LN_3_LD_6_RN_4_RD_5_1.png","C_Dist_300_LN_4_LD_20_RN_13_RD_26_1.png","C_Dist_300_LN_5_LD_25_RN_6_RD_12_1.png","C_Dist_300_LN_5_LD_25_RN_7_RD_14_1.png","C_Dist_300_LN_7_LD_14_RN_20_RD_25_1.png","C_Dist_300_LN_8_LD_15_RN_10_RD_12_1.png"]],"dist300_I":[["I_Dist_300_LN_1_LD_2_RN_2_RD_10_0.png","I_Dist_300_LN_1_LD_2_RN_3_RD_15_0.png","I_Dist_300_LN_2_LD_4_RN_6_RD_30_0.png","I_Dist_300_LN_3_LD_6_RN_4_RD_20_0.png","I_Dist_300_LN_4_LD_5_RN_6_RD_12_0.png","I_Dist_300_LN_4_LD_5_RN_8_RD_16_0.png","I_Dist_300_LN_7_LD_10_RN_8_RD_20_0.png","I_Dist_300_LN_8_LD_10_RN_14_RD_28_0.png","I_Dist_300_LN_8_LD_10_RN_9_RD_18_0.png"],["I_Dist_300_LN_13_LD_26_RN_12_RD_15_1.png","I_Dist_300_LN_4_LD_20_RN_2_RD_4_1.png"]],"dist300_S":[["E_Dist_300_LN_9_LD_12_RN_9_RD_20_0.png"],["E_Dist_300_LN_18_LD_30_RN_18_RD_20_1.png","E_Dist_300_LN_3_LD_10_RN_3_RD_5_1.png","E_Dist_300_LN_9_LD_20_RN_9_RD_12_1.png"]],"dist500_C":[["C_Dist_500_LN_10_LD_13_RN_7_RD_26_0.png","C_Dist_500_LN_10_LD_15_RN_4_RD_24_0.png","C_Dist_500_LN_12_LD_16_RN_3_RD_12_0.png","C_Dist_500_LN_12_LD_18_RN_4_RD_24_0.png","C_Dist_500_LN_15_LD_18_RN_5_RD_15_0.png","C_Dist_500_LN_15_LD_20_RN_1_RD_4_0.png","C_Dist_500_LN_18_LD_27_RN_1_RD_6_0.png","C_Dist_500_LN_20_LD_24_RN_1_RD_3_0.png","C_Dist_500_LN_20_LD_24_RN_3_RD_9_0.png","C_Dist_500_LN_20_LD_24_RN_7_RD_21_0.png","C_Dist_500_LN_20_LD_28_RN_3_RD_14_0.png","C_Dist_500_LN_21_LD_28_RN_6_RD_24_0.png","C_Dist_500_LN_22_LD_28_RN_2_RD_7_0.png","C_Dist_500_LN_25_LD_30_RN_9_RD_27_0.png","C_Dist_500_LN_4_LD_6_RN_1_RD_6_0.png","C_Dist_500_LN_5_LD_6_RN_2_RD_6_0.png","C_Dist_500_LN_6_LD_9_RN_1_RD_6_0.png","C_Dist_500_LN_7_LD_10_RN_1_RD_5_0.png","C_Dist_500_LN_8_LD_12_RN_1_RD_6_0.png","C_Dist_500_LN_8_LD_12_RN_4_RD_24_0.png"],["C_Dist_500_LN_1_LD_4_RN_12_RD_16_1.png","C_Dist_500_LN_1_LD_4_RN_9_RD_12_1.png","C_Dist_500_LN_1_LD_9_RN_11_RD_18_1.png","C_Dist_500_LN_10_LD_24_RN_22_RD_24_1.png","C_Dist_500_LN_2_LD_12_RN_10_RD_15_1.png","C_Dist_500_LN_2_LD_12_RN_12_RD_18_1.png","C_Dist_500_LN_2_LD_12_RN_4_RD_6_1.png","C_Dist_500_LN_2_LD_24_RN_7_RD_12_1.png","C_Dist_500_LN_2_LD_5_RN_18_RD_20_1.png","C_Dist_500_LN_2_LD_5_RN_9_RD_10_1.png","C_Dist_500_LN_2_LD_8_RN_12_RD_16_1.png","C_Dist_500_LN_2_LD_8_RN_21_RD_28_1.png","C_Dist_500_LN_3_LD_10_RN_4_RD_5_1.png","C_Dist_500_LN_3_LD_12_RN_15_RD_20_1.png","C_Dist_500_LN_3_LD_30_RN_6_RD_10_1.png","C_Dist_500_LN_3_LD_8_RN_14_RD_16_1.png","C_Dist_500_LN_4_LD_16_RN_15_RD_20_1.png","C_Dist_500_LN_4_LD_24_RN_12_RD_18_1.png","C_Dist_500_LN_5_LD_14_RN_6_RD_7_1.png","C_Dist_500_LN_7_LD_21_RN_20_RD_24_1.png","C_Dist_500_LN_7_LD_28_RN_12_RD_16_1.png","C_Dist_500_LN_7_LD_28_RN_9_RD_12_1.png","C_Dist_500_LN_9_LD_27_RN_20_RD_24_1.png"]],"dist500_I":[["I_Dist_500_LN_2_LD_3_RN_4_RD_24_0.png","I_Dist_500_LN_5_LD_6_RN_6_RD_18_0.png","I_Dist_500_LN_7_LD_8_RN_9_RD_24_0.png"],["I_Dist_500_LN_7_LD_21_RN_5_RD_6_1.png"]],"dist500_S":[["E_Dist_500_LN_6_LD_8_RN_6_RD_24_0.png"],["E_Dist_500_LN_2_LD_12_RN_2_RD_3_1.png","E_Dist_500_LN_6_LD_24_RN_6_RD_8_1.png"]]}},{"start_time":1552054126847,"click_time":1552054128656,"finger_time":1552054128197,"fix_duration":250,"trial":1,"RT":1350,"MT":459,"sideResp":1,"stimulus":[],"xmouse":[808,808,808,808,808,808,808,808,808,808,808,808,808,808,808,808,808,808,808,808,808,808,808,808,808,808,808,808,808,808,808,808,808,808,808,808,808,808,808,808,808,808,808,808,808,808,808,808,808,808,808,808,808,808,808,808,808,808,808,808,808,808,808,808,808,807,796,780,762,739,680,647,629,618,616,603,603,603,603,603,603,602,602,598,590,582,574,562,551,543,506],"ymouse":[636,636,636,636,636,636,636,636,636,636,636,636,636,636,636,636,636,636,636,636,636,636,636,636,636,636,634,634,634,634,634,634,634,634,634,634,634,634,634,634,634,634,634,634,634,634,634,634,634,634,634,634,634,634,634,628,624,622,622,622,622,622,622,622,621,608,592,567,534,507,394,316,212,115,33,0,0,0,0,0,0,0,0,0,3,7,10,13,18,19,32],"timestamp_mouse":[16,29,49,68,89,109,129,150,169,189,209,229,250,269,289,308,329,350,369,389,408,430,449,470,489,509,530,549,569,590,609,630,649,669,689,709,729,750,770,789,810,829,848,870,889,910,930,949,969,989,1009,1029,1050,1069,1089,1110,1130,1150,1170,1189,1210,1230,1250,1269,1289,1309,1329,1350,1369,1390,1409,1429,1449,1469,1490,1510,1529,1549,1569,1589,1610,1630,1649,1669,1690,1709,1730,1749,1769,1789,1809],"xSR":741.5,"ySR":573.95,"xT1":424.9,"yT1":0,"xT2":1058.1,"yT2":0,"toosoon":0,"cond_shown":"Congruent","ratio_trial":200,"L_num":15,"L_den":25,"R_num":4,"R_den":10,"correct_side":1,"subjID":"EmilianoCallejasGonzalez23","gender":"0","school":"4","age":"9"},{"start_time":1552054130891,"click_time":1552054133056,"finger_time":1552054132456,"fix_duration":692.4369622191355,"trial":2,"RT":1565,"MT":600,"sideResp":1,"stimulus":[],"xmouse":[783,783,783,783,783,783,783,783,783,781,781,781,781,781,781,781,781,781,781,781,781,781,781,781,781,781,781,781,781,781,781,781,781,781,781,781,781,781,781,781,781,782,783,786,788,789,791,791,791,791,792,793,793,793,793,793,793,793,794,797,800,802,802,802,802,802,802,802,802,802,802,802,802,802,802,802,802,802,784,735,711,637,569,433,378,333,305,292,286,286,286,286,286,286,286,286,286,288,297,302,302,303,304,343,360,373,390,407,449],"ymouse":[587,587,587,587,587,593,601,609,619,620,620,620,620,620,620,620,620,620,620,620,620,620,620,620,620,620,622,625,625,625,625,625,625,625,625,625,625,625,625,625,625,625,625,622,617,611,608,604,602,601,599,597,597,595,595,595,595,595,595,595,595,596,596,596,596,596,596,596,596,596,596,596,596,596,596,596,592,584,531,439,404,271,153,0,0,0,0,0,0,0,0,0,0,0,0,0,0,0,4,9,9,9,9,13,17,19,22,25,31],"timestamp_mouse":[4,25,45,66,85,104,125,145,165,185,205,225,246,266,285,305,326,346,366,385,405,425,445,466,486,504,525,545,566,586,604,626,646,666,686,706,726,745,766,786,804,826,845,866,885,905,925,945,965,984,1005,1026,1045,1065,1086,1105,1125,1145,1165,1186,1205,1225,1245,1266,1286,1306,1325,1346,1366,1386,1406,1425,1446,1465,1486,1506,1525,1545,1565,1585,1606,1626,1644,1665,1685,1705,1725,1745,1766,1785,1806,1826,1846,1865,1885,1905,1925,1946,1965,1985,2005,2025,2045,2065,2086,2105,2126,2145,2165],"xSR":741.5,"ySR":573.95,"xT1":424.9,"yT1":0,"xT2":1058.1,"yT2":0,"toosoon":0,"cond_shown":"Incongruent","ratio_trial":300,"L_num":4,"L_den":5,"R_num":6,"R_den":12,"correct_side":1,"subjID":"EmilianoCallejasGonzalez23","gender":"0","school":"4","age":"9"},{"start_time":1552054135888,"click_time":1552054137937,"finger_time":1552054137356,"fix_duration":250,"trial":3,"RT":1468,"MT":581,"sideResp":1,"stimulus":[],"xmouse":[804,804,804,804,804,804,804,804,804,804,804,804,804,804,804,804,804,804,804,804,804,804,804,804,804,804,804,804,804,804,804,804,804,804,804,804,804,804,804,804,804,804,804,804,804,804,804,804,804,804,804,804,804,804,804,804,804,804,804,804,804,804,804,804,804,804,804,804,804,804,801,789,773,746,664,642,631,617,613,602,601,600,599,596,582,562,541,530,522,522,522,522,522,522,516,513,510,506,504,491,479,471,466],"ymouse":[590,590,590,590,590,590,590,590,590,590,590,590,590,590,590,590,590,590,590,590,590,590,590,590,590,590,590,590,590,590,590,590,590,590,590,590,590,590,590,590,590,590,590,590,590,590,590,590,590,590,590,590,590,590,590,590,590,590,590,590,590,590,590,590,590,590,590,590,590,590,590,584,575,555,490,466,451,429,423,402,399,396,392,382,337,291,250,225,208,207,207,207,206,205,195,192,187,179,175,152,128,101,78],"timestamp_mouse":[8,29,49,68,88,108,129,149,168,188,209,228,248,268,288,308,328,349,368,389,408,428,449,469,489,508,528,549,568,589,608,629,647,669,689,709,728,749,769,789,809,829,848,868,889,908,928,949,969,989,1009,1027,1049,1069,1087,1109,1128,1149,1168,1189,1208,1229,1249,1268,1289,1308,1328,1349,1369,1388,1408,1428,1449,1468,1488,1508,1528,1548,1569,1589,1608,1628,1648,1668,1688,1708,1729,1747,1768,1789,1809,1828,1848,1869,1888,1908,1927,1948,1968,1989,2008,2028,2049],"xSR":741.5,"ySR":573.95,"xT1":424.9,"yT1":0,"xT2":1058.1,"yT2":0,"toosoon":0,"cond_shown":"Congruent","ratio_trial":100,"L_num":3,"L_den":20,"R_num":4,"R_den":16,"correct_side":2,"subjID":"EmilianoCallejasGonzalez23","gender":"0","school":"4","age":"9"},{"start_time":1552054140699,"click_time":1552054142437,"finger_time":1552054141216,"fix_duration":982.6962661687512,"trial":4,"RT":517,"MT":1221,"sideResp":1,"stimulus":[],"xmouse":[833,833,833,833,833,833,833,833,833,833,833,833,833,833,833,833,833,833,833,833,833,833,833,833,837,842,844,845,845,845,845,845,845,847,848,852,854,856,856,856,859,860,863,883,902,913,917,918,918,918,918,918,918,918,918,917,904,885,869,833,811,775,720,531,401,340,312,303,303,303,303,303,303,303,303,306,313,319,322,325,328,334,346,368,414,423,426],"ymouse":[622,622,622,622,622,622,622,622,622,622,622,622,622,622,622,622,622,622,622,622,622,622,622,622,612,600,595,592,591,591,591,591,591,590,589,589,587,587,587,587,584,583,581,563,547,542,540,540,540,540,540,540,540,540,540,538,528,519,509,486,469,440,387,236,93,31,8,5,5,5,5,5,5,5,5,4,4,4,3,3,2,2,2,2,8,10,11],"timestamp_mouse":[17,37,58,78,97,117,138,157,177,197,218,238,257,278,297,317,338,357,377,396,417,438,458,477,497,517,538,557,577,597,616,637,658,677,697,717,737,757,777,797,816,838,858,877,897,917,937,957,977,998,1018,1038,1056,1077,1097,1117,1138,1157,1177,1197,1217,1237,1257,1277,1297,1317,1336,1356,1377,1397,1418,1437,1457,1477,1497,1517,1537,1557,1579,1597,1617,1638,1657,1677,1697,1717,1738],"xSR":741.5,"ySR":573.95,"xT1":424.9,"yT1":0,"xT2":1058.1,"yT2":0,"toosoon":0,"cond_shown":"Incongruent","ratio_trial":100,"L_num":2,"L_den":4,"R_num":6,"R_den":15,"correct_side":1,"subjID":"EmilianoCallejasGonzalez23","gender":"0","school":"4","age":"9"},{"start_time":1552054146668,"click_time":1552054148396,"finger_time":1552054147716,"fix_duration":250,"trial":5,"RT":1048,"MT":680,"sideResp":2,"stimulus":[],"xmouse":[791,791,791,791,791,791,791,791,791,791,791,791,791,791,791,791,791,791,791,791,791,791,791,791,791,791,791,791,791,791,791,791,791,791,791,791,791,791,791,791,791,791,791,791,791,791,793,796,803,811,815,829,838,845,853,864,888,904,920,936,948,965,969,969,974,977,986,990,1005,1022,1039,1052,1056,1056,1056,1056,1056,1056,1056,1056,1056,1056,1056,1056,1057,1059,1061],"ymouse":[604,604,604,604,604,604,604,604,604,604,604,604,604,604,604,604,604,604,604,604,604,604,604,604,604,604,604,604,604,604,604,604,604,604,604,604,604,604,604,604,604,604,604,604,604,603,600,600,597,593,591,581,570,561,551,533,501,479,450,428,409,384,379,377,364,352,313,295,257,200,136,20,0,0,0,0,0,0,0,0,0,0,0,0,0,0,3],"timestamp_mouse":[8,28,48,68,87,108,128,147,169,188,209,228,249,269,288,309,328,349,369,388,408,429,448,469,488,508,529,549,568,589,607,628,649,668,688,709,729,748,769,788,808,828,848,869,889,909,928,948,968,989,1008,1028,1048,1068,1088,1108,1128,1148,1169,1188,1208,1228,1248,1269,1288,1309,1329,1349,1369,1389,1408,1428,1448,1468,1488,1509,1529,1548,1569,1588,1609,1628,1648,1669,1688,1709,1728],"xSR":741.5,"ySR":573.95,"xT1":424.9,"yT1":0,"xT2":1058.1,"yT2":0,"toosoon":0,"cond_shown":"Incongruent","ratio_trial":300,"L_num":13,"L_den":26,"R_num":12,"R_den":15,"correct_side":2,"subjID":"EmilianoCallejasGonzalez23","gender":"0","school":"4","age":"9"},{"start_time":1552054153816,"click_time":1552054154816,"finger_time":1552054154657,"fix_duration":1199.6580234739044,"trial":6,"RT":841,"MT":159,"sideResp":1,"stimulus":[],"xmouse":[810,810,810,810,810,810,810,810,810,810,810,810,810,810,810,810,810,810,810,810,810,810,810,810,810,810,810,810,810,810,810,810,810,810,810,810,810,810,809,808,806,803,791,759,739,608,572,534,505,488,475],"ymouse":[640,640,640,640,640,640,640,640,640,640,640,640,640,640,640,640,640,640,640,640,640,640,640,640,640,640,640,640,640,640,640,640,640,640,640,640,640,640,635,628,607,584,548,488,455,275,221,170,129,106,84],"timestamp_mouse":[0,21,41,60,80,100,120,140,159,180,201,221,240,261,281,300,321,341,361,380,400,419,441,460,481,500,520,541,560,580,599,620,640,661,681,700,721,741,760,780,800,820,841,860,881,901,920,940,961,980,1000],"xSR":741.5,"ySR":573.95,"xT1":424.9,"yT1":0,"xT2":1058.1,"yT2":0,"toosoon":0,"cond_shown":"Congruent","ratio_trial":100,"L_num":11,"L_den":22,"R_num":6,"R_den":15,"correct_side":1,"subjID":"EmilianoCallejasGonzalez23","gender":"0","school":"4","age":"9"},{"start_time":1552054158164,"click_time":1552054159616,"finger_time":1552054159296,"fix_duration":1147.1346873031741,"trial":7,"RT":1132,"MT":320,"sideResp":1,"stimulus":[],"xmouse":[787,787,787,787,787,787,787,787,787,787,787,787,787,787,787,787,787,787,787,787,787,787,787,787,787,787,787,787,787,787,787,787,787,787,787,787,787,787,787,787,787,787,787,787,787,787,787,787,787,786,786,785,785,782,772,762,749,738,718,712,710,702,693,684,673,665,652,600,565,544,535,530,523],"ymouse":[604,604,604,608,614,616,619,620,620,620,620,620,620,620,620,620,620,620,620,620,620,620,620,620,620,620,620,620,620,620,620,620,620,620,620,620,620,620,620,620,620,620,620,620,620,620,620,620,620,621,621,621,621,618,601,587,573,562,543,535,530,519,499,483,460,448,425,331,255,189,142,113,89],"timestamp_mouse":[13,31,52,72,92,113,132,153,173,193,213,232,252,273,293,312,332,353,373,392,411,433,453,473,492,512,533,552,572,593,612,632,651,673,693,713,732,752,773,792,813,832,853,873,893,912,933,952,972,992,1012,1032,1052,1073,1092,1112,1132,1151,1172,1192,1212,1233,1252,1272,1292,1313,1332,1352,1372,1392,1413,1433,1452],"xSR":741.5,"ySR":573.95,"xT1":424.9,"yT1":0,"xT2":1058.1,"yT2":0,"toosoon":0,"cond_shown":"Congruent","ratio_trial":300,"L_num":20,"L_den":25,"R_num":14,"R_den":28,"correct_side":1,"subjID":"EmilianoCallejasGonzalez23","gender":"0","school":"4","age":"9"},{"start_time":1552054162139,"click_time":1552054163116,"finger_time":1552054162897,"fix_duration":802.2468440917165,"trial":8,"RT":758,"MT":219,"sideResp":2,"stimulus":[],"xmouse":[801,801,801,801,801,801,801,801,801,801,801,801,801,801,801,801,801,801,801,801,801,801,801,801,801,801,801,801,801,801,801,801,801,801,803,803,806,806,807,820,844,880,916,1013,1040,1055,1067,1076,1086],"ymouse":[610,610,610,610,610,610,610,610,610,610,610,610,610,610,610,610,610,610,610,610,610,610,610,610,610,610,609,609,607,607,607,605,604,602,598,593,580,565,549,499,452,396,339,205,166,142,125,110,94],"timestamp_mouse":[17,38,58,76,97,118,138,156,177,197,218,237,258,277,297,318,338,357,376,397,417,437,458,478,496,517,538,557,578,597,617,637,658,677,698,716,737,758,777,797,817,837,857,878,898,917,937,958,977],"xSR":741.5,"ySR":573.95,"xT1":424.9,"yT1":0,"xT2":1058.1,"yT2":0,"toosoon":0,"cond_shown":"Congruent","ratio_trial":200,"L_num":7,"L_den":15,"R_num":18,"R_den":27,"correct_side":2,"subjID":"EmilianoCallejasGonzalez23","gender":"0","school":"4","age":"9"},{"start_time":1552054169329,"click_time":1552054170756,"finger_time":1552054169956,"fix_duration":491.54257777096876,"trial":9,"RT":627,"MT":800,"sideResp":1,"stimulus":[],"xmouse":[773,773,773,773,773,773,773,773,773,773,773,773,773,773,773,773,773,773,773,773,773,773,773,773,773,773,773,773,773,773,762,734,698,664,642,625,606,603,600,598,589,579,573,565,560,551,518,494,461,434,401,394,392,391,391,391,391,391,391,391,391,391,391,391,391,391,391,392,393,398,414,434],"ymouse":[627,627,627,627,627,627,627,627,627,627,627,627,627,627,627,627,627,627,627,627,627,627,627,627,627,627,627,627,627,623,602,577,557,532,511,490,471,468,466,464,456,446,437,429,420,406,342,293,230,170,73,44,38,35,33,33,33,33,33,33,33,33,33,33,33,33,33,33,33,33,33,36],"timestamp_mouse":[12,27,46,67,87,108,127,148,167,187,207,227,247,267,287,307,327,347,367,388,407,428,447,467,487,507,528,547,567,587,607,627,647,668,687,707,727,747,767,787,807,827,847,867,887,907,926,947,968,988,1007,1027,1047,1068,1087,1108,1127,1148,1167,1188,1208,1227,1248,1268,1287,1308,1327,1348,1367,1388,1407,1427],"xSR":741.5,"ySR":573.95,"xT1":424.9,"yT1":0,"xT2":1058.1,"yT2":0,"toosoon":0,"cond_shown":"Incongruent","ratio_trial":100,"L_num":12,"L_den":30,"R_num":2,"R_den":4,"correct_side":2,"subjID":"EmilianoCallejasGonzalez23","gender":"0","school":"4","age":"9"},{"start_time":1552054175435,"click_time":1552054177198,"finger_time":1552054176377,"fix_duration":1078.2112172007317,"trial":10,"RT":942,"MT":821,"sideResp":2,"stimulus":[],"xmouse":[801,801,801,801,801,801,801,801,801,801,801,801,801,801,801,801,801,801,801,801,801,801,801,801,801,801,801,801,801,801,801,802,803,803,803,803,803,803,803,803,803,803,803,804,804,804,804,804,804,804,804,804,804,804,804,804,804,804,804,804,804,804,804,804,804,804,804,804,804,804,819,885,929,980,1038,1054,1066,1068,1072,1076,1081,1081,1081,1081,1082,1082,1088,1090,1091],"ymouse":[624,624,624,624,624,624,624,624,624,624,624,624,624,624,624,624,624,624,624,624,624,624,624,624,624,624,624,624,624,617,614,602,600,599,599,598,595,589,586,583,581,579,579,578,577,576,574,572,572,571,571,571,571,571,571,571,571,571,571,571,571,571,571,571,571,571,571,571,571,568,549,407,280,156,20,0,0,0,0,0,0,0,0,0,0,0,0,0,2],"timestamp_mouse":[4,23,41,62,81,101,121,141,161,181,201,221,241,262,282,301,321,341,361,381,401,421,442,461,482,501,521,542,561,581,602,621,642,662,681,701,721,741,762,782,803,823,842,863,882,902,922,942,962,983,1003,1022,1042,1063,1082,1102,1123,1142,1163,1182,1203,1222,1242,1262,1283,1303,1322,1342,1363,1383,1403,1422,1443,1462,1481,1502,1522,1543,1562,1583,1603,1622,1641,1662,1682,1702,1721,1742,1763],"xSR":741.5,"ySR":573.95,"xT1":424.9,"yT1":0,"xT2":1058.1,"yT2":0,"toosoon":0,"cond_shown":"Incongruent","ratio_trial":200,"L_num":3,"L_den":10,"R_num":1,"R_den":2,"correct_side":2,"subjID":"EmilianoCallejasGonzalez23","gender":"0","school":"4","age":"9"},{"start_time":1552054179754,"click_time":1552054181277,"finger_time":1552054180677,"fix_duration":1076.0490346725035,"trial":11,"RT":923,"MT":600,"sideResp":2,"stimulus":[],"xmouse":[786,786,786,786,786,786,786,786,786,786,786,786,786,786,786,786,786,786,786,786,786,786,786,786,786,786,786,786,786,786,786,786,786,787,787,787,787,788,790,790,792,797,800,805,811,816,834,841,847,852,858,873,884,897,914,952,958,963,968,975,980,994,997,1005,1006,1012,1020,1025,1032,1037,1042,1048,1050,1053,1053,1055,1062],"ymouse":[633,633,633,633,633,633,633,633,633,633,633,633,633,633,633,633,633,633,633,633,633,633,633,633,633,633,633,633,633,633,633,633,633,633,633,633,633,633,630,629,628,621,609,602,590,579,549,542,536,530,522,505,493,478,460,409,393,382,375,365,357,334,326,307,303,281,243,221,196,181,152,115,105,95,90,87,74],"timestamp_mouse":[4,26,43,63,84,102,123,143,164,183,203,224,244,263,283,303,323,344,363,384,403,423,443,463,483,503,523,544,563,582,604,623,643,663,683,703,723,743,764,784,803,823,843,863,884,903,923,943,964,984,1003,1022,1043,1064,1084,1104,1124,1143,1164,1184,1204,1223,1243,1263,1284,1303,1323,1343,1364,1384,1404,1423,1443,1463,1484,1503,1523],"xSR":741.5,"ySR":573.95,"xT1":424.9,"yT1":0,"xT2":1058.1,"yT2":0,"toosoon":0,"cond_shown":"Incongruent","ratio_trial":200,"L_num":4,"L_den":30,"R_num":1,"R_den":3,"correct_side":2,"subjID":"EmilianoCallejasGonzalez23","gender":"0","school":"4","age":"9"},{"start_time":1552054183629,"click_time":1552054186058,"finger_time":1552054185137,"fix_duration":1109.9954900609935,"trial":12,"RT":1508,"MT":921,"sideResp":2,"stimulus":[],"xmouse":[787,787,787,787,787,787,787,787,787,787,787,787,787,787,787,787,787,787,787,787,787,787,787,787,787,787,787,787,787,787,787,787,787,787,787,787,787,787,787,787,787,787,787,787,787,787,787,787,787,787,787,787,787,787,787,787,787,787,787,787,787,787,787,787,787,787,787,787,787,787,787,787,787,787,797,822,843,910,979,1039,1111,1168,1240,1252,1267,1284,1295,1300,1305,1308,1308,1308,1308,1308,1308,1308,1301,1269,1245,1241,1237,1235,1234,1235,1236,1237,1237,1234,1225,1217,1210,1203,1184,1180,1177,1174,1169,1165,1165,1164,1160,1155],"ymouse":[646,646,646,646,646,646,646,646,646,646,646,646,646,646,646,646,646,646,646,646,646,646,646,646,646,646,646,646,646,646,646,646,646,646,646,646,646,646,646,646,646,646,646,646,646,646,646,646,646,646,646,646,646,646,646,646,646,646,646,646,646,646,646,646,646,646,646,646,646,646,646,646,631,612,583,538,499,381,293,218,127,41,0,0,0,0,0,0,0,0,0,0,0,0,0,0,0,2,4,6,6,7,10,11,13,13,13,14,17,20,20,23,28,30,30,32,33,34,34,34,36,37],"timestamp_mouse":[8,28,48,68,89,108,128,149,168,189,209,229,249,268,288,309,329,348,368,388,408,429,448,468,488,509,528,548,568,588,609,629,649,668,689,708,728,748,768,789,808,829,848,868,888,907,928,948,968,988,1009,1028,1049,1067,1088,1108,1129,1148,1168,1188,1208,1229,1248,1268,1288,1308,1327,1348,1369,1387,1408,1429,1447,1468,1489,1508,1529,1548,1568,1588,1608,1628,1649,1668,1689,1709,1728,1748,1769,1789,1808,1828,1849,1869,1889,1908,1929,1950,1968,1988,2008,2029,2050,2069,2088,2109,2128,2148,2168,2188,2208,2228,2248,2268,2288,2309,2329,2347,2368,2388,2408,2429],"xSR":741.5,"ySR":573.95,"xT1":424.9,"yT1":0,"xT2":1058.1,"yT2":0,"toosoon":0,"cond_shown":"Congruent","ratio_trial":200,"L_num":9,"L_den":30,"R_num":13,"R_den":26,"correct_side":2,"subjID":"EmilianoCallejasGonzalez23","gender":"0","school":"4","age":"9"},{"start_time":1552054188729,"click_time":1552054192038,"finger_time":1552054188798,"fix_duration":250,"trial":13,"RT":69,"MT":3240,"sideResp":1,"stimulus":[],"xmouse":[760,760,760,768,772,778,784,787,788,788,788,788,788,788,788,788,788,788,788,788,788,788,788,788,788,788,788,788,788,788,788,788,788,788,788,788,788,788,788,788,788,788,788,788,788,788,788,788,788,788,788,788,788,788,788,788,788,788,788,788,789,789,789,789,789,789,789,789,789,791,791,791,791,792,792,792,792,792,792,792,792,792,792,792,792,792,792,792,792,792,792,792,792,792,792,792,792,792,792,792,792,792,792,792,792,792,792,792,792,792,792,792,792,792,792,792,792,792,792,792,792,792,792,792,792,792,792,792,792,792,792,792,792,793,793,793,793,793,793,793,788,784,773,754,743,734,729,725,707,687,684,680,680,680,680,679,679,679,659,629,552,523,519,519,516,508],"ymouse":[669,669,672,712,729,743,756,764,766,766,766,766,766,766,766,766,766,766,766,765,760,745,711,652,637,634,634,634,634,634,634,634,634,634,634,634,634,634,634,634,634,634,634,634,634,634,634,634,634,634,634,634,634,634,634,634,634,634,634,633,632,632,632,632,632,632,631,631,631,628,626,624,623,623,622,622,622,622,622,622,622,622,622,622,622,622,622,622,622,622,622,622,622,622,622,622,622,622,622,622,622,622,622,622,622,622,622,622,622,622,622,622,622,622,622,622,622,622,622,622,622,622,622,622,622,622,622,622,622,622,622,622,622,622,622,622,622,622,622,622,613,610,598,559,529,482,388,296,60,0,0,0,0,0,0,0,0,0,0,0,0,0,0,0,0,2],"timestamp_mouse":[11,28,49,69,88,109,129,148,169,189,209,228,249,268,289,308,329,348,368,389,408,429,449,469,488,508,529,548,568,588,609,628,647,668,689,708,729,747,768,788,808,828,849,869,888,908,928,948,969,987,1008,1028,1048,1068,1088,1108,1129,1149,1169,1188,1208,1229,1249,1269,1288,1308,1328,1349,1368,1388,1408,1429,1449,1469,1489,1508,1529,1548,1568,1588,1608,1629,1649,1669,1688,1709,1728,1748,1769,1788,1808,1828,1848,1869,1888,1909,1928,1949,1969,1987,2009,2028,2048,2069,2089,2108,2128,2149,2169,2188,2208,2228,2248,2269,2289,2307,2328,2348,2369,2389,2408,2428,2448,2469,2488,2507,2529,2549,2569,2588,2607,2629,2648,2668,2688,2707,2728,2749,2768,2788,2808,2829,2848,2868,2888,2908,2928,2949,2968,2989,3008,3028,3049,3068,3088,3109,3128,3149,3168,3189,3208,3229,3248,3269,3288,3309],"xSR":741.5,"ySR":573.95,"xT1":424.9,"yT1":0,"xT2":1058.1,"yT2":0,"toosoon":0,"cond_shown":"Congruent","ratio_trial":200,"L_num":5,"L_den":10,"R_num":14,"R_den":20,"correct_side":2,"subjID":"EmilianoCallejasGonzalez23","gender":"0","school":"4","age":"9"},{"start_time":1552054196178,"click_time":1552054198099,"finger_time":1552054197717,"fix_duration":379.27132797359144,"trial":14,"RT":1539,"MT":382,"sideResp":2,"stimulus":[],"xmouse":[780,780,780,779,779,779,779,779,779,779,779,780,781,782,782,783,785,786,788,788,788,788,788,788,788,788,788,788,788,788,788,790,792,792,793,793,793,793,793,793,793,793,793,796,797,798,799,799,799,799,799,799,799,799,799,799,799,799,799,799,799,799,799,799,799,801,802,804,804,804,804,804,804,807,808,810,815,848,878,924,982,1042,1133,1138,1138,1138,1138,1139,1139,1139,1139,1139,1139,1139,1139,1139,1139],"ymouse":[606,606,606,606,606,606,606,606,606,606,606,606,606,606,606,606,606,600,593,586,585,584,584,584,584,584,584,584,584,584,583,579,578,577,577,577,577,577,577,577,577,577,577,577,577,578,579,579,579,579,579,579,579,579,579,579,579,579,579,579,579,579,579,579,579,581,584,586,586,586,586,586,587,587,587,587,580,501,413,296,159,19,0,0,0,0,0,0,0,0,0,0,0,0,0,0,2],"timestamp_mouse":[0,19,39,60,80,100,120,139,160,180,200,220,239,260,280,299,319,338,359,379,399,419,440,459,478,499,519,540,560,579,599,620,639,659,680,700,719,739,760,779,800,819,839,859,879,900,919,939,960,979,1000,1019,1039,1060,1079,1100,1119,1140,1159,1179,1199,1219,1239,1259,1280,1300,1319,1339,1360,1379,1399,1419,1440,1459,1479,1499,1520,1539,1564,1579,1600,1620,1640,1659,1679,1700,1719,1740,1760,1779,1800,1819,1840,1859,1880,1900,1921],"xSR":741.5,"ySR":573.95,"xT1":424.9,"yT1":0,"xT2":1058.1,"yT2":0,"toosoon":0,"cond_shown":"Congruent","ratio_trial":200,"L_num":6,"L_den":12,"R_num":7,"R_den":10,"correct_side":2,"subjID":"EmilianoCallejasGonzalez23","gender":"0","school":"4","age":"9"},{"start_time":1552054200914,"click_time":1552054203137,"finger_time":1552054201698,"fix_duration":635.704665156154,"trial":15,"RT":784,"MT":1439,"sideResp":2,"stimulus":[],"xmouse":[811,811,811,811,811,811,811,811,811,812,812,812,813,814,814,814,814,814,814,814,814,814,814,814,814,814,814,814,814,814,814,816,820,820,821,823,825,831,838,848,862,869,876,885,892,904,909,917,921,924,926,930,932,932,932,932,932,932,932,933,934,934,935,936,937,942,947,949,954,961,1006,1021,1032,1042,1053,1064,1069,1074,1074,1074,1074,1074,1074,1074,1074,1074,1074,1074,1074,1074,1074,1074,1074,1074,1074,1074,1076,1082,1084,1088,1091,1095,1097,1099,1099,1100,1102,1105,1109,1115,1119,1121],"ymouse":[659,659,659,659,659,659,659,659,659,658,658,658,658,658,658,658,658,658,658,658,658,658,658,658,658,658,658,658,658,658,658,656,654,653,652,646,639,614,592,564,509,484,465,445,431,402,391,374,365,358,351,344,341,341,339,339,339,339,339,338,338,337,336,335,334,329,323,320,313,302,191,124,56,0,0,0,0,0,0,0,0,0,0,0,0,0,0,0,0,0,0,0,0,0,0,0,0,0,0,0,0,0,0,0,0,0,0,0,0,0,0,7],"timestamp_mouse":[4,24,44,63,84,102,123,144,163,184,203,224,243,264,283,303,323,343,363,384,403,424,444,463,483,503,523,543,563,583,603,623,643,663,684,703,724,742,764,784,803,824,843,863,884,902,923,943,963,983,1003,1023,1043,1064,1083,1104,1124,1143,1163,1183,1203,1224,1243,1263,1283,1303,1324,1343,1364,1383,1403,1424,1444,1464,1484,1504,1523,1543,1562,1584,1603,1624,1644,1663,1684,1703,1723,1743,1764,1783,1803,1823,1843,1863,1883,1904,1923,1943,1963,1984,2004,2022,2044,2063,2084,2104,2123,2143,2163,2184,2204,2223],"xSR":741.5,"ySR":573.95,"xT1":424.9,"yT1":0,"xT2":1058.1,"yT2":0,"toosoon":0,"cond_shown":"Congruent","ratio_trial":300,"L_num":1,"L_den":3,"R_num":19,"R_den":30,"correct_side":2,"subjID":"EmilianoCallejasGonzalez23","gender":"0","school":"4","age":"9"},{"start_time":1552054206252,"click_time":1552054207777,"finger_time":1552054207218,"fix_duration":1253.9766945097672,"trial":16,"RT":966,"MT":559,"sideResp":2,"stimulus":[],"xmouse":[761,761,761,761,761,761,761,761,761,761,761,761,761,761,761,761,761,761,761,761,761,761,761,761,761,761,761,761,761,761,761,761,761,761,761,761,761,761,761,761,761,761,761,761,761,761,761,763,766,773,779,785,788,791,800,800,801,804,804,805,807,808,808,810,812,814,817,818,821,825,830,835,842,867,995,1052,1081],"ymouse":[601,602,604,605,605,605,605,605,605,605,605,605,605,605,605,605,605,605,605,605,605,605,605,605,605,605,605,605,605,605,605,605,605,605,605,605,605,605,605,605,605,605,605,605,605,605,599,584,565,518,490,460,431,405,356,340,323,293,274,237,222,201,182,163,128,109,91,81,73,66,64,62,61,61,74,82,87],"timestamp_mouse":[6,24,45,66,86,106,124,145,166,186,206,226,246,265,284,306,325,346,365,385,405,425,446,466,485,506,526,544,566,586,606,626,645,665,686,705,726,744,765,786,805,826,846,866,886,906,925,945,966,985,1005,1025,1045,1066,1085,1106,1125,1146,1165,1184,1205,1225,1246,1266,1285,1306,1326,1346,1365,1385,1405,1425,1444,1466,1485,1505,1525],"xSR":741.5,"ySR":573.95,"xT1":424.9,"yT1":0,"xT2":1058.1,"yT2":0,"toosoon":0,"cond_shown":"Congruent","ratio_trial":300,"L_num":4,"L_den":20,"R_num":13,"R_den":26,"correct_side":2,"subjID":"EmilianoCallejasGonzalez23","gender":"0","school":"4","age":"9"},{"start_time":1552054210848,"click_time":1552054212177,"finger_time":1552054211638,"fix_duration":250,"trial":17,"RT":790,"MT":539,"sideResp":1,"stimulus":[],"xmouse":[790,790,790,790,790,790,790,790,790,790,790,790,790,790,790,790,790,790,790,790,790,790,790,790,790,790,790,790,790,790,790,790,790,790,790,790,792,792,792,782,767,749,725,705,662,639,625,618,611,597,593,590,588,587,587,587,586,586,586,586,582,575,568,560,548,525,520],"ymouse":[629,629,629,629,629,629,629,629,629,629,629,629,629,629,629,629,629,629,629,629,629,629,629,629,629,629,629,629,629,629,629,629,629,629,629,626,623,617,605,556,512,469,419,380,306,262,234,213,194,167,156,151,146,144,139,139,138,138,136,132,123,113,104,90,75,51,47],"timestamp_mouse":[13,29,49,69,89,109,129,150,169,189,210,230,250,270,290,308,330,350,369,389,409,430,449,469,490,509,529,549,569,590,609,629,650,669,689,710,729,750,769,790,810,828,850,869,889,909,929,950,968,988,1010,1029,1050,1069,1090,1109,1129,1150,1168,1189,1208,1230,1250,1270,1290,1309,1329],"xSR":741.5,"ySR":573.95,"xT1":424.9,"yT1":0,"xT2":1058.1,"yT2":0,"toosoon":0,"cond_shown":"Incongruent","ratio_trial":200,"L_num":14,"L_den":30,"R_num":6,"R_den":9,"correct_side":2,"subjID":"EmilianoCallejasGonzalez23","gender":"0","school":"4","age":"9"},{"start_time":1552054214709,"click_time":1552054216477,"finger_time":1552054216118,"fix_duration":250,"trial":18,"RT":1409,"MT":359,"sideResp":2,"stimulus":[],"xmouse":[824,824,824,824,824,824,824,820,814,810,807,806,803,802,802,802,802,802,802,802,802,802,802,802,802,802,802,802,802,802,802,802,802,802,802,802,802,802,802,802,801,801,796,794,793,792,792,792,792,792,792,792,792,792,792,792,792,792,792,792,792,792,792,792,792,792,790,790,790,808,881,943,1011,1028,1032,1032,1032,1032,1032,1032,1032,1032,1032,1032,1035,1035,1037,1054,1077],"ymouse":[662,662,662,662,662,662,662,663,666,666,668,668,668,668,668,668,668,668,668,668,668,668,668,668,668,668,668,668,668,668,668,668,668,668,668,668,668,668,668,668,668,668,666,664,663,662,662,662,662,662,662,662,662,662,662,662,662,662,662,662,662,662,662,662,662,662,655,639,620,589,505,425,264,193,118,56,0,0,0,0,0,0,0,0,0,0,0,0,2],"timestamp_mouse":[8,28,47,67,89,109,129,147,168,189,209,228,248,269,289,308,329,349,369,389,409,428,448,467,488,508,529,548,568,588,608,628,648,668,688,709,729,748,769,788,808,828,848,869,889,909,929,949,968,988,1008,1028,1049,1068,1088,1109,1129,1148,1167,1189,1209,1228,1248,1269,1289,1308,1328,1347,1369,1389,1409,1428,1448,1468,1489,1508,1529,1548,1568,1588,1608,1629,1648,1668,1688,1707,1729,1749,1768],"xSR":741.5,"ySR":573.95,"xT1":424.9,"yT1":0,"xT2":1058.1,"yT2":0,"toosoon":0,"cond_shown":"Incongruent","ratio_trial":300,"L_num":13,"L_den":26,"R_num":12,"R_den":15,"correct_side":2,"subjID":"EmilianoCallejasGonzalez23","gender":"0","school":"4","age":"9"},{"start_time":1552054218028,"click_time":1552054220478,"finger_time":1552054219278,"fix_duration":250,"trial":19,"RT":1250,"MT":1200,"sideResp":2,"stimulus":[],"xmouse":[813,813,813,813,813,813,813,813,813,813,813,813,813,813,813,813,813,813,813,813,812,811,811,811,811,811,811,811,811,811,811,811,811,811,811,811,811,811,811,811,811,811,811,811,811,811,811,811,811,811,811,811,811,811,811,811,811,811,811,811,811,811,811,815,818,822,831,835,837,838,839,839,839,839,839,839,839,839,839,839,839,839,839,839,839,839,839,839,840,840,841,847,869,885,903,912,915,915,915,915,904,871,866,866,866,869,879,889,901,916,935,990,1012,1034,1045,1063,1066,1067,1067,1067,1068,1084,1096],"ymouse":[611,611,611,611,611,611,611,611,611,611,607,596,589,584,580,580,580,580,580,580,582,582,582,582,582,582,582,582,582,582,582,582,582,582,582,582,582,582,582,582,582,582,582,582,582,582,582,582,582,582,582,582,582,582,582,582,582,581,579,578,576,574,572,560,552,541,520,513,508,504,503,503,503,503,503,503,503,503,503,503,503,503,503,503,503,503,503,503,505,507,507,507,501,495,486,481,475,471,466,450,418,324,281,236,214,194,164,148,132,112,92,41,25,9,4,0,0,0,0,0,0,0,4],"timestamp_mouse":[11,29,50,69,90,109,130,150,170,189,210,229,249,270,290,310,328,350,370,389,409,429,449,470,490,509,530,550,568,590,610,629,650,670,689,709,730,749,768,789,810,830,850,870,890,909,929,950,970,989,1009,1029,1050,1070,1089,1110,1130,1149,1169,1190,1209,1229,1250,1269,1289,1310,1329,1349,1370,1389,1409,1430,1449,1469,1490,1508,1529,1550,1569,1590,1609,1629,1650,1670,1690,1710,1729,1750,1769,1789,1808,1829,1849,1869,1890,1909,1928,1949,1969,1990,2009,2029,2049,2069,2089,2110,2129,2149,2169,2190,2210,2229,2249,2269,2289,2309,2330,2350,2368,2390,2409,2429,2450],"xSR":741.5,"ySR":573.95,"xT1":424.9,"yT1":0,"xT2":1058.1,"yT2":0,"toosoon":0,"cond_shown":"Incongruent","ratio_trial":200,"L_num":4,"L_den":30,"R_num":1,"R_den":3,"correct_side":2,"subjID":"EmilianoCallejasGonzalez23","gender":"0","school":"4","age":"9"},{"start_time":1552054223270,"click_time":1552054224717,"finger_time":1552054224038,"fix_duration":831.7102137599405,"trial":20,"RT":768,"MT":679,"sideResp":1,"stimulus":[],"xmouse":[791,791,791,791,791,791,791,791,791,791,791,791,791,791,791,791,791,791,791,791,791,791,791,791,791,791,791,791,791,791,791,791,791,789,786,770,763,759,750,730,636,592,548,511,474,411,383,363,343,340,335,334,330,324,317,299,295,290,267,244,194,172,155,138,128,128,128,128,138,197,349,420,459],"ymouse":[631,631,631,631,631,631,631,631,631,631,631,631,631,631,631,631,631,631,631,631,631,631,631,631,631,631,631,631,631,631,631,631,631,629,625,599,590,579,561,528,306,183,58,0,0,0,0,0,0,0,0,0,0,0,0,9,13,18,36,50,75,85,94,103,113,114,115,116,118,126,114,103,98],"timestamp_mouse":[7,26,47,68,87,107,128,147,167,188,207,228,247,267,286,308,328,347,367,387,407,426,446,468,488,507,528,547,568,588,607,628,647,667,687,707,727,747,768,787,807,827,848,868,889,907,927,946,968,987,1007,1027,1048,1068,1087,1108,1127,1148,1167,1188,1207,1227,1247,1267,1288,1307,1327,1348,1367,1388,1407,1426,1447],"xSR":741.5,"ySR":573.95,"xT1":424.9,"yT1":0,"xT2":1058.1,"yT2":0,"toosoon":0,"cond_shown":"Incongruent","ratio_trial":200,"L_num":1,"L_den":2,"R_num":3,"R_den":10,"correct_side":1,"subjID":"EmilianoCallejasGonzalez23","gender":"0","school":"4","age":"9"},{"start_time":1552054226587,"click_time":1552054228157,"finger_time":1552054227657,"fix_duration":748.0062221520808,"trial":21,"RT":1070,"MT":500,"sideResp":1,"stimulus":[],"xmouse":[797,797,798,800,800,801,803,804,807,808,808,808,808,808,809,809,809,809,810,810,810,810,810,810,810,810,810,810,810,810,810,810,810,810,810,810,810,810,810,810,810,810,810,810,810,810,810,810,810,810,812,812,812,812,798,787,774,768,761,742,732,725,703,689,650,631,616,608,597,575,565,552,538,527,515,509,500,494,489],"ymouse":[605,605,604,603,602,602,600,599,596,595,595,595,595,595,594,594,594,593,592,592,592,592,592,592,592,592,592,592,592,592,592,592,592,592,592,592,592,592,592,592,592,592,592,592,592,592,592,592,592,592,587,586,579,565,513,488,467,452,430,396,370,360,331,316,282,266,252,241,229,207,197,186,172,164,147,135,119,105,94],"timestamp_mouse":[13,30,51,70,91,110,131,150,171,190,211,230,251,270,290,310,330,349,371,391,410,430,450,471,490,511,531,549,570,591,610,630,650,671,691,710,730,751,771,790,809,830,850,870,891,910,930,950,970,990,1010,1030,1051,1070,1091,1110,1131,1150,1170,1190,1210,1231,1250,1271,1291,1311,1330,1351,1370,1390,1410,1430,1451,1470,1490,1510,1529,1551,1570],"xSR":741.5,"ySR":573.95,"xT1":424.9,"yT1":0,"xT2":1058.1,"yT2":0,"toosoon":0,"cond_shown":"Incongruent","ratio_trial":100,"L_num":3,"L_den":5,"R_num":8,"R_den":16,"correct_side":1,"subjID":"EmilianoCallejasGonzalez23","gender":"0","school":"4","age":"9"},{"start_time":1552054230893,"click_time":1552054232398,"finger_time":1552054231777,"fix_duration":1453.2086921539174,"trial":22,"RT":884,"MT":621,"sideResp":2,"stimulus":[],"xmouse":[802,802,802,802,802,802,802,802,802,802,802,802,802,802,802,802,802,802,802,802,802,802,802,802,802,802,802,802,802,802,802,802,802,802,802,802,802,802,802,802,802,802,802,808,832,849,873,897,923,953,1024,1059,1101,1135,1158,1158,1158,1158,1158,1158,1158,1158,1158,1159,1166,1172,1173,1173,1175,1175,1175,1175,1175,1173,1162,1142],"ymouse":[629,629,629,629,629,629,629,629,629,629,629,629,629,629,629,629,629,629,629,629,629,629,629,629,629,629,629,629,629,629,629,629,629,629,629,629,629,629,629,629,627,621,609,581,481,433,381,332,268,210,53,0,0,0,0,0,0,0,0,0,0,0,0,0,2,13,17,20,25,31,39,42,45,49,56,64],"timestamp_mouse":[4,25,44,64,85,105,124,144,164,184,204,223,244,265,285,305,324,344,365,384,405,424,444,464,484,505,525,544,564,584,604,624,645,665,683,705,724,745,764,785,804,825,845,865,884,904,924,945,965,984,1004,1024,1045,1065,1084,1104,1125,1144,1165,1184,1204,1224,1244,1265,1285,1304,1324,1345,1364,1384,1404,1424,1445,1464,1484,1505],"xSR":741.5,"ySR":573.95,"xT1":424.9,"yT1":0,"xT2":1058.1,"yT2":0,"toosoon":0,"cond_shown":"Congruent","ratio_trial":300,"L_num":3,"L_den":6,"R_num":4,"R_den":5,"correct_side":2,"subjID":"EmilianoCallejasGonzalez23","gender":"0","school":"4","age":"9"},{"start_time":1552054234887,"click_time":1552054236497,"finger_time":1552054235737,"fix_duration":250,"trial":23,"RT":850,"MT":760,"sideResp":1,"stimulus":[],"xmouse":[824,825,825,825,825,825,825,825,825,825,825,825,825,825,825,825,825,825,825,825,825,825,825,824,824,823,823,823,823,823,823,823,823,823,823,823,821,819,817,814,808,804,785,759,720,622,592,575,555,537,499,478,455,442,435,427,426,426,426,426,432,435,438,440,441,445,447,449,452,452,453,453,453,453,453,453,453,452,449,446,443],"ymouse":[615,616,616,616,616,616,616,616,616,616,616,616,616,616,616,616,616,616,616,616,616,616,618,619,619,620,620,620,620,620,620,620,620,620,620,620,620,620,618,616,605,599,572,550,522,465,447,436,423,408,372,348,308,284,268,241,233,224,219,213,205,202,200,198,196,191,190,185,179,177,175,172,166,162,158,149,146,141,132,122,94],"timestamp_mouse":[16,30,50,71,90,111,131,150,170,191,211,230,251,270,291,310,331,350,370,391,409,431,450,470,490,510,531,550,570,590,610,631,650,670,689,711,730,750,770,790,810,831,850,871,891,910,930,951,970,990,1009,1031,1050,1070,1091,1110,1130,1150,1170,1190,1210,1231,1250,1271,1290,1310,1331,1350,1370,1391,1410,1431,1450,1470,1491,1510,1530,1551,1570,1591,1610],"xSR":741.5,"ySR":573.95,"xT1":424.9,"yT1":0,"xT2":1058.1,"yT2":0,"toosoon":0,"cond_shown":"Incongruent","ratio_trial":100,"L_num":2,"L_den":4,"R_num":6,"R_den":15,"correct_side":1,"subjID":"EmilianoCallejasGonzalez23","gender":"0","school":"4","age":"9"},{"start_time":1552054239347,"click_time":1552054241918,"finger_time":1552054240417,"fix_duration":250,"trial":24,"RT":1070,"MT":1501,"sideResp":2,"stimulus":[],"xmouse":[809,808,808,804,804,802,802,801,801,801,801,801,801,800,800,800,800,800,800,800,800,800,800,800,800,800,800,800,800,798,797,797,796,796,796,796,796,796,796,796,796,796,796,796,796,796,796,796,796,795,795,795,795,794,794,794,794,794,794,794,794,794,794,794,794,794,794,794,796,798,800,805,807,816,823,826,829,836,838,838,839,840,851,868,893,955,1046,1337,1386,1401,1400,1382,1342,1325,1312,1300,1290,1278,1259,1249,1241,1237,1235,1235,1235,1234,1225,1201,1137,1117,1107,1103,1100,1082,1081,1080,1080,1080,1080,1080,1080,1080,1080,1080,1080,1080,1080,1080,1081],"ymouse":[647,645,639,630,627,622,621,615,615,614,614,613,613,612,612,610,606,605,602,601,601,601,601,601,601,601,601,601,601,599,596,594,591,590,590,590,590,590,590,590,590,590,590,590,590,590,588,585,581,579,578,576,574,572,572,570,568,565,553,549,542,535,521,515,511,507,502,495,486,480,475,468,464,437,410,380,355,329,327,327,326,325,323,320,314,308,296,223,193,160,126,90,30,7,0,0,0,0,0,0,0,0,0,0,0,0,0,0,0,0,0,0,0,0,0,0,0,0,0,0,0,0,0,0,0,0,0,0,2],"timestamp_mouse":[10,31,49,70,91,110,130,150,171,190,210,230,250,271,291,310,330,350,370,390,410,430,450,471,491,511,531,550,571,590,610,629,650,670,691,711,730,750,771,790,810,831,850,870,891,910,930,950,970,990,1011,1031,1050,1070,1090,1111,1130,1150,1170,1190,1210,1230,1250,1270,1291,1311,1330,1351,1371,1390,1409,1431,1450,1470,1490,1510,1530,1550,1570,1591,1610,1630,1650,1670,1690,1711,1730,1751,1770,1790,1810,1830,1851,1871,1890,1911,1931,1950,1971,1990,2010,2030,2051,2071,2090,2110,2130,2150,2170,2191,2210,2230,2251,2271,2290,2310,2330,2350,2371,2391,2411,2430,2450,2471,2491,2510,2531,2550,2570],"xSR":741.5,"ySR":573.95,"xT1":424.9,"yT1":0,"xT2":1058.1,"yT2":0,"toosoon":0,"cond_shown":"Congruent","ratio_trial":200,"L_num":3,"L_den":6,"R_num":14,"R_den":20,"correct_side":2,"subjID":"EmilianoCallejasGonzalez23","gender":"0","school":"4","age":"9"},{"start_time":1552054244687,"click_time":1552054246078,"finger_time":1552054245318,"fix_duration":1149.1467645885132,"trial":25,"RT":631,"MT":760,"sideResp":2,"stimulus":[],"xmouse":[760,760,760,760,760,760,760,760,760,760,760,760,760,760,760,760,760,760,760,760,760,760,760,760,760,760,760,760,760,760,760,760,760,760,760,760,760,760,760,760,760,760,760,760,760,761,766,783,798,817,848,899,944,986,1017,1043,1058,1117,1186,1203,1209,1210,1210,1210,1210,1210,1210,1198,1168,1152],"ymouse":[620,620,620,620,620,620,620,620,620,620,620,620,620,620,620,620,620,620,620,620,620,620,620,620,620,620,620,616,609,598,587,560,543,528,511,497,488,474,472,471,470,469,469,469,469,469,466,459,451,438,421,389,362,338,315,294,267,182,98,58,36,25,25,25,25,25,25,22,18,15],"timestamp_mouse":[11,31,51,71,90,110,130,150,170,190,211,230,251,270,291,310,330,350,371,391,410,430,450,471,490,510,530,550,570,591,611,631,650,671,691,711,730,751,770,790,811,830,851,871,891,911,930,950,970,991,1011,1030,1050,1070,1091,1110,1130,1150,1170,1191,1209,1230,1251,1270,1290,1311,1330,1350,1370,1391],"xSR":741.5,"ySR":573.95,"xT1":424.9,"yT1":0,"xT2":1058.1,"yT2":0,"toosoon":0,"cond_shown":"Congruent","ratio_trial":200,"L_num":7,"L_den":15,"R_num":18,"R_den":27,"correct_side":2,"subjID":"EmilianoCallejasGonzalez23","gender":"0","school":"4","age":"9"},{"start_time":1552054249018,"click_time":1552054250558,"finger_time":1552054250198,"fix_duration":581.3358533114863,"trial":26,"RT":1180,"MT":360,"sideResp":1,"stimulus":[],"xmouse":[782,782,782,782,782,782,782,782,782,782,782,782,783,783,783,783,783,783,783,783,783,784,784,784,785,785,786,786,787,788,788,789,789,789,789,791,792,792,792,792,792,792,792,792,792,792,792,792,792,792,794,794,794,794,794,794,794,792,788,774,750,742,734,731,725,695,652,591,539,527,519,518,517,516,516,516,516],"ymouse":[607,606,606,606,605,605,605,605,605,605,605,605,604,604,604,604,603,603,603,603,603,601,601,601,599,598,596,596,595,594,593,592,592,591,590,588,587,586,585,585,585,585,585,585,585,585,585,585,585,584,583,583,583,583,583,583,580,574,564,538,504,494,486,482,475,449,425,390,356,343,327,322,314,303,286,178,30],"timestamp_mouse":[20,40,59,80,100,120,139,159,180,200,220,239,260,278,299,320,340,360,379,399,420,439,460,479,500,519,539,559,580,599,619,639,659,679,700,719,739,759,780,800,819,839,859,879,900,919,939,959,980,999,1019,1039,1060,1079,1099,1119,1139,1160,1180,1199,1219,1239,1259,1280,1299,1319,1339,1358,1379,1400,1419,1439,1460,1479,1499,1518,1540],"xSR":741.5,"ySR":573.95,"xT1":424.9,"yT1":0,"xT2":1058.1,"yT2":0,"toosoon":0,"cond_shown":"Congruent","ratio_trial":100,"L_num":2,"L_den":5,"R_num":11,"R_den":22,"correct_side":2,"subjID":"EmilianoCallejasGonzalez23","gender":"0","school":"4","age":"9"},{"start_time":1552054262568,"click_time":1552054265038,"finger_time":1552054264097,"fix_duration":250,"trial":27,"RT":1529,"MT":941,"sideResp":1,"stimulus":[],"xmouse":[839,839,839,839,839,839,839,839,839,839,839,839,839,839,839,839,839,839,839,839,839,839,839,839,839,839,839,839,839,839,838,838,836,835,835,835,832,831,831,831,831,831,831,831,831,832,832,832,832,832,832,832,832,832,832,832,832,832,832,831,831,828,828,828,828,828,828,828,828,828,828,828,826,824,816,802,798,796,790,770,760,744,724,704,675,666,655,644,637,617,607,599,595,593,586,579,573,559,554,543,540,537,536,532,530,529,526,524,519,516,514,514,513,512,508,505,504,504,504,504,504,504,503,503],"ymouse":[610,610,610,610,614,618,619,619,619,619,619,619,619,619,619,619,619,619,619,619,619,619,619,619,619,619,619,619,619,619,619,619,618,617,616,616,613,611,611,610,610,609,608,607,604,603,603,603,603,603,603,603,603,603,603,603,603,603,603,602,602,603,603,603,603,603,603,603,603,603,603,603,603,603,596,575,568,563,554,526,511,492,470,452,424,414,407,400,397,386,380,374,371,368,356,334,323,290,259,199,168,130,96,70,20,9,0,0,0,0,0,0,0,0,0,0,0,0,0,0,0,0,0,1],"timestamp_mouse":[9,29,50,70,89,109,129,149,169,189,209,229,250,270,290,309,329,350,369,389,409,429,449,469,489,510,530,549,569,589,608,630,649,670,689,709,730,749,769,790,810,830,849,870,889,909,929,949,970,990,1009,1029,1049,1069,1089,1110,1129,1149,1169,1189,1209,1230,1249,1269,1289,1309,1329,1349,1370,1389,1409,1430,1449,1470,1489,1509,1529,1548,1569,1589,1610,1630,1649,1670,1689,1709,1729,1749,1769,1789,1809,1830,1849,1869,1889,1909,1929,1949,1970,1989,2010,2030,2050,2070,2089,2109,2129,2149,2168,2190,2209,2229,2249,2269,2291,2309,2329,2349,2370,2390,2410,2430,2450,2470],"xSR":741.5,"ySR":573.95,"xT1":424.9,"yT1":0,"xT2":1058.1,"yT2":0,"toosoon":0,"cond_shown":"Congruent","ratio_trial":100,"L_num":11,"L_den":22,"R_num":6,"R_den":15,"correct_side":1,"subjID":"EmilianoCallejasGonzalez23","gender":"0","school":"4","age":"9"},{"start_time":1552054267985,"click_time":1552054270238,"finger_time":1552054269037,"fix_duration":1066.8312643618594,"trial":28,"RT":1052,"MT":1201,"sideResp":1,"stimulus":[],"xmouse":[794,794,794,794,794,794,794,794,794,794,794,794,794,794,794,794,794,794,794,794,794,794,794,794,808,811,815,815,817,817,817,817,818,818,818,818,818,818,818,818,818,818,818,818,818,818,818,818,818,818,814,810,795,781,712,662,623,590,570,538,521,499,487,479,472,471,468,464,460,456,452,441,438,431,425,425,425,425,424,424,425,429,435,438,453,461,468,475,481,487,488,488,488,488,488,488,488,488,488,488,488,488,488,488,488,488,488,488,488,488,489,488,482],"ymouse":[642,642,642,642,642,642,642,642,642,642,642,642,642,642,642,642,642,642,642,642,642,642,641,638,620,614,609,607,605,604,604,603,602,601,600,600,600,600,600,600,600,600,600,600,600,600,600,600,599,593,584,575,557,542,488,451,421,391,361,292,250,213,190,178,173,172,172,172,171,170,170,166,165,163,161,161,161,161,161,160,158,157,154,153,148,146,145,144,143,141,141,140,140,140,140,140,140,140,140,140,140,140,140,139,138,136,134,133,133,133,129,110,99],"timestamp_mouse":[12,31,53,72,93,111,132,153,172,193,212,233,253,273,293,311,332,352,373,392,412,432,452,472,491,512,533,552,573,592,612,633,653,672,693,713,733,753,773,793,813,832,852,872,892,913,932,953,972,992,1013,1032,1052,1071,1092,1112,1133,1152,1173,1192,1212,1232,1252,1272,1292,1312,1331,1352,1373,1392,1413,1432,1452,1472,1493,1512,1532,1553,1572,1592,1612,1632,1653,1672,1692,1712,1732,1752,1772,1792,1813,1833,1853,1873,1893,1912,1933,1952,1972,1992,2012,2033,2052,2072,2093,2113,2132,2151,2172,2192,2213,2232,2253],"xSR":741.5,"ySR":573.95,"xT1":424.9,"yT1":0,"xT2":1058.1,"yT2":0,"toosoon":0,"cond_shown":"Congruent","ratio_trial":100,"L_num":15,"L_den":25,"R_num":13,"R_den":26,"correct_side":1,"subjID":"EmilianoCallejasGonzalez23","gender":"0","school":"4","age":"9"},{"start_time":1552054275545,"click_time":1552054277098,"finger_time":1552054276417,"fix_duration":1446.5640717414797,"trial":29,"RT":872,"MT":681,"sideResp":2,"stimulus":[],"xmouse":[796,796,796,796,796,796,796,796,796,796,796,796,796,796,796,796,796,796,796,796,796,796,796,796,796,796,796,796,796,796,796,796,796,796,796,799,802,803,804,804,805,806,810,816,826,841,855,884,917,997,1118,1175,1254,1276,1287,1292,1292,1292,1288,1278,1268,1264,1261,1261,1261,1261,1261,1273,1275,1275,1275,1264,1200,1185,1176,1175,1174,1155],"ymouse":[618,618,618,618,618,618,618,618,618,618,618,618,618,618,618,618,618,618,618,618,618,618,618,618,618,618,618,618,618,618,618,618,618,618,618,614,606,602,599,594,594,592,581,569,552,530,509,462,414,317,139,35,0,0,0,0,0,0,0,0,0,0,0,0,0,0,0,9,15,19,24,36,70,84,90,90,91,95],"timestamp_mouse":[13,33,52,73,92,112,133,152,172,193,212,233,252,272,292,313,332,353,373,392,413,432,453,472,492,512,533,552,573,593,613,633,652,672,692,712,733,752,773,792,812,832,853,872,893,912,932,952,972,992,1013,1032,1053,1072,1092,1112,1133,1153,1172,1192,1212,1232,1252,1273,1292,1313,1333,1352,1372,1392,1413,1432,1453,1472,1493,1512,1532,1553],"xSR":741.5,"ySR":573.95,"xT1":424.9,"yT1":0,"xT2":1058.1,"yT2":0,"toosoon":0,"cond_shown":"Incongruent","ratio_trial":300,"L_num":13,"L_den":26,"R_num":12,"R_den":15,"correct_side":2,"subjID":"EmilianoCallejasGonzalez23","gender":"0","school":"4","age":"9"},{"start_time":1552054281309,"click_time":1552054282417,"finger_time":1552054281918,"fix_duration":250,"trial":30,"RT":609,"MT":499,"sideResp":1,"stimulus":[],"xmouse":[750,750,749,749,749,749,749,749,749,749,749,749,749,749,749,749,749,749,750,750,750,750,750,750,750,750,750,750,750,747,704,664,634,619,587,573,548,520,495,422,382,358,353,351,351,354,356,356,356,357,362,366,370,373,396,430],"ymouse":[616,616,616,616,616,617,617,617,617,619,620,621,621,622,622,622,622,622,624,624,624,624,624,624,624,624,624,624,621,613,539,482,436,409,341,322,292,262,236,181,140,105,67,46,6,3,2,2,2,0,0,0,0,0,0,1],"timestamp_mouse":[8,28,48,68,88,109,129,148,168,189,208,229,249,268,289,309,328,348,369,388,409,429,449,468,488,509,529,548,569,588,609,628,649,669,688,708,729,748,769,788,808,828,849,868,888,908,928,948,969,988,1008,1028,1048,1068,1090,1108],"xSR":741.5,"ySR":573.95,"xT1":424.9,"yT1":0,"xT2":1058.1,"yT2":0,"toosoon":0,"cond_shown":"Incongruent","ratio_trial":200,"L_num":3,"L_den":4,"R_num":11,"R_den":20,"correct_side":1,"subjID":"EmilianoCallejasGonzalez23","gender":"0","school":"4","age":"9"},{"start_time":1552054284302,"click_time":1552054285558,"finger_time":1552054285437,"fix_duration":602.0024834758835,"trial":31,"RT":1135,"MT":121,"sideResp":1,"stimulus":[],"xmouse":[783,783,783,784,784,784,784,785,785,785,785,785,785,785,785,785,785,785,785,785,785,785,785,785,785,785,785,785,785,785,785,785,785,785,785,785,785,785,786,788,791,791,791,791,791,791,791,791,791,791,791,791,791,791,791,791,785,767,730,669,573,513,444],"ymouse":[599,599,599,600,600,601,601,601,601,601,601,601,601,601,601,601,601,601,601,601,601,601,601,601,601,601,601,601,601,601,601,601,601,601,601,601,601,602,602,600,594,594,594,594,594,594,594,594,594,594,594,594,594,594,591,582,570,547,509,421,243,131,31],"timestamp_mouse":[19,36,55,76,96,115,136,155,175,195,216,236,255,276,295,315,336,355,375,395,416,436,456,476,495,516,534,556,575,595,616,635,656,675,695,716,736,755,775,795,815,835,856,875,896,916,935,956,975,996,1015,1035,1056,1075,1096,1115,1135,1155,1175,1195,1215,1235,1256],"xSR":741.5,"ySR":573.95,"xT1":424.9,"yT1":0,"xT2":1058.1,"yT2":0,"toosoon":0,"cond_shown":"Congruent","ratio_trial":200,"L_num":8,"L_den":15,"R_num":7,"R_den":21,"correct_side":1,"subjID":"EmilianoCallejasGonzalez23","gender":"0","school":"4","age":"9"},{"start_time":1552054287468,"click_time":1552054289718,"finger_time":1552054288417,"fix_duration":250,"trial":32,"RT":949,"MT":1301,"sideResp":2,"stimulus":[],"xmouse":[795,795,795,795,795,795,795,795,795,795,795,795,795,795,795,795,795,795,795,795,795,795,795,795,795,795,795,795,795,795,795,795,795,795,795,795,795,795,795,795,795,795,795,795,795,795,795,788,773,773,773,773,977,1153,1310,1411,1470,1538,1561,1580,1581,1581,1581,1581,1581,1581,1581,1581,1581,1581,1581,1581,1582,1496,1408,1348,1291,1185,1140,1082,1063,1060,1059,1059,1061,1074,1085,1095,1095,1096,1096,1091,1024,965,937,929,928,927,927,927,927,929,930,941,954,976,992,1011,1011,1012,1017,1045,1098],"ymouse":[654,654,654,654,654,654,654,654,654,654,654,654,654,654,654,654,654,654,654,654,654,654,654,654,654,654,654,654,654,654,654,654,654,654,654,654,654,654,654,654,654,654,654,654,654,653,648,569,468,252,45,0,0,0,0,0,0,0,0,0,0,0,0,0,0,0,0,0,0,0,0,0,143,179,212,232,257,297,306,309,307,306,299,297,287,282,277,273,273,272,267,260,216,178,147,131,124,121,118,114,103,90,55,19,0,0,0,0,0,0,0,30,77],"timestamp_mouse":[9,29,49,69,89,109,129,150,169,190,210,229,249,270,289,310,330,349,370,389,410,429,449,470,490,510,529,550,569,590,609,630,650,670,690,710,730,750,770,789,810,830,849,870,889,909,929,949,969,989,1010,1029,1050,1069,1090,1109,1130,1151,1169,1189,1210,1230,1251,1269,1290,1310,1329,1350,1369,1389,1409,1430,1451,1469,1490,1509,1529,1551,1570,1589,1610,1629,1649,1669,1689,1709,1729,1749,1770,1789,1810,1829,1850,1869,1889,1910,1930,1949,1969,1989,2010,2030,2049,2069,2089,2109,2130,2151,2169,2189,2210,2229,2250],"xSR":741.5,"ySR":573.95,"xT1":424.9,"yT1":0,"xT2":1058.1,"yT2":0,"toosoon":0,"cond_shown":"Incongruent","ratio_trial":200,"L_num":7,"L_den":15,"R_num":4,"R_den":6,"correct_side":2,"subjID":"EmilianoCallejasGonzalez23","gender":"0","school":"4","age":"9"},{"start_time":1552054293836,"click_time":1552054295318,"finger_time":1552054294398,"fix_duration":836.62659913123,"trial":33,"RT":562,"MT":920,"sideResp":1,"stimulus":[],"xmouse":[815,815,815,815,815,815,815,815,815,815,815,815,815,815,815,815,815,815,815,815,815,815,815,815,815,815,815,814,794,759,654,590,538,485,441,403,392,384,375,368,367,367,367,367,367,368,371,373,375,377,382,383,383,383,383,387,387,387,387,387,387,387,387,387,387,387,387,387,387,387,389,396,403,413,439],"ymouse":[643,643,643,643,643,643,643,643,643,643,643,643,643,643,643,643,643,643,643,643,643,643,643,643,643,642,626,602,540,486,376,325,278,233,195,149,132,115,96,76,68,68,68,68,68,64,63,63,62,61,60,59,59,59,59,59,59,59,59,59,59,59,59,59,59,59,59,59,59,59,59,60,60,60,58],"timestamp_mouse":[4,21,41,60,82,102,122,142,161,181,202,222,241,261,282,301,321,341,361,381,401,421,441,462,481,501,522,541,562,581,601,621,642,662,681,701,722,741,762,781,801,821,841,861,881,901,921,941,962,981,1002,1021,1041,1061,1081,1101,1121,1141,1161,1180,1202,1222,1241,1262,1280,1302,1321,1341,1362,1381,1402,1421,1441,1461,1482],"xSR":741.5,"ySR":573.95,"xT1":424.9,"yT1":0,"xT2":1058.1,"yT2":0,"toosoon":0,"cond_shown":"Incongruent","ratio_trial":100,"L_num":12,"L_den":30,"R_num":2,"R_den":4,"correct_side":2,"subjID":"EmilianoCallejasGonzalez23","gender":"0","school":"4","age":"9"},{"start_time":1552054299705,"click_time":1552054301657,"finger_time":1552054300697,"fix_duration":767.0922034700249,"trial":34,"RT":992,"MT":960,"sideResp":1,"stimulus":[],"xmouse":[771,771,771,771,770,770,770,770,770,770,770,770,770,770,770,770,770,770,770,770,770,770,770,770,770,770,770,770,770,770,770,770,770,770,770,770,770,770,770,770,770,770,770,770,770,770,770,769,764,747,709,539,319,183,75,0,0,0,0,0,0,0,0,0,0,0,0,0,0,0,0,0,0,0,0,0,10,22,40,66,87,98,117,137,164,188,201,230,254,282,304,322,378,418,438,453,471,505],"ymouse":[628,628,628,628,628,628,628,628,628,628,628,628,628,628,628,628,628,628,628,628,628,628,628,628,628,628,628,628,628,628,628,628,628,628,628,628,628,628,628,628,628,628,628,628,628,628,628,624,600,542,433,72,0,0,0,0,0,0,0,0,0,0,0,0,0,0,0,0,0,0,0,0,0,0,0,0,5,11,17,23,26,27,27,27,23,20,19,12,8,4,3,3,0,0,0,0,0,2],"timestamp_mouse":[12,32,52,71,92,112,131,151,172,193,213,231,252,271,293,313,333,353,371,392,413,433,451,473,493,512,532,552,573,592,612,632,651,673,693,713,732,751,771,792,812,833,852,872,892,911,933,952,973,992,1011,1032,1052,1072,1091,1112,1133,1152,1173,1192,1212,1232,1253,1273,1292,1312,1332,1352,1373,1391,1412,1433,1452,1471,1492,1512,1532,1552,1572,1592,1611,1633,1653,1672,1692,1712,1732,1752,1773,1792,1812,1833,1852,1872,1892,1911,1931,1952],"xSR":741.5,"ySR":573.95,"xT1":424.9,"yT1":0,"xT2":1058.1,"yT2":0,"toosoon":0,"cond_shown":"Incongruent","ratio_trial":300,"L_num":3,"L_den":6,"R_num":4,"R_den":20,"correct_side":1,"subjID":"EmilianoCallejasGonzalez23","gender":"0","school":"4","age":"9"},{"start_time":1552054305318,"click_time":1552054307577,"finger_time":1552054306776,"fix_duration":860.2513188377285,"trial":35,"RT":1458,"MT":801,"sideResp":2,"stimulus":[],"xmouse":[776,776,776,776,776,776,776,776,776,776,776,776,776,776,776,776,776,776,776,776,776,776,776,776,776,776,776,776,776,776,776,776,776,776,776,776,776,776,776,776,776,776,776,776,776,776,776,776,776,776,776,776,776,776,776,776,776,776,776,776,776,776,776,776,776,776,776,776,776,776,776,776,776,788,832,927,1396,1396,1396,1396,1396,1396,1548,1524,1509,1507,1507,1507,1507,1507,1507,1507,1507,1507,1507,1507,1507,1494,1476,1447,1420,1409,1396,1390,1382,1374,1359,1342,1327,1316,1297,1210,1131],"ymouse":[628,628,628,628,628,628,628,628,627,626,625,625,623,623,623,623,623,623,623,623,623,623,622,622,622,622,622,622,622,622,622,622,622,622,622,622,622,622,622,622,622,622,622,622,622,622,622,622,622,622,622,622,622,622,622,622,622,622,622,622,622,622,622,622,622,617,615,615,615,615,614,594,560,494,371,200,0,0,0,0,0,0,0,0,0,0,0,0,5,6,7,8,8,8,8,8,10,16,24,37,48,54,59,62,65,69,74,80,84,86,86,81,69],"timestamp_mouse":[19,40,59,79,98,119,139,160,180,199,218,240,259,279,299,319,340,360,379,398,419,440,459,478,500,520,539,559,580,600,619,639,660,680,700,718,740,760,780,800,818,839,859,880,900,918,939,960,978,1000,1020,1040,1059,1080,1100,1119,1139,1158,1180,1200,1219,1239,1260,1278,1298,1319,1339,1359,1380,1400,1418,1439,1458,1478,1500,1518,1540,1560,1579,1598,1619,1639,1659,1679,1700,1720,1740,1759,1778,1800,1819,1839,1859,1879,1899,1918,1940,1959,1979,2000,2019,2040,2058,2080,2100,2120,2140,2159,2178,2200,2219,2240,2259],"xSR":741.5,"ySR":573.95,"xT1":424.9,"yT1":0,"xT2":1058.1,"yT2":0,"toosoon":0,"cond_shown":"Incongruent","ratio_trial":100,"L_num":13,"L_den":26,"R_num":12,"R_den":20,"correct_side":2,"subjID":"EmilianoCallejasGonzalez23","gender":"0","school":"4","age":"9"},{"start_time":1552054309268,"click_time":1552054312238,"finger_time":1552054310937,"fix_duration":250,"trial":36,"RT":1669,"MT":1301,"sideResp":2,"stimulus":[],"xmouse":[801,801,801,801,801,801,801,801,801,801,801,801,801,801,801,801,801,801,801,801,801,801,801,801,801,801,801,801,801,801,801,801,801,801,801,801,801,801,801,801,801,801,801,801,801,801,801,801,801,801,801,801,801,801,801,801,801,801,801,801,801,801,801,801,801,801,801,801,801,801,801,801,801,801,801,801,801,801,801,801,801,801,805,827,905,1201,1329,1386,1420,1420,1420,1420,1420,1420,1420,1420,1420,1420,1420,1420,1420,1420,1420,1420,1420,1420,1420,1420,1420,1420,1420,1420,1420,1420,1420,1420,1420,1420,1420,1383,1307,1288,1273,1266,1264,1263,1263,1263,1256,1237,1224,1222,1220,1218,1217,1216,1216,1216,1213,1207,1205,1205,1205,1205,1205,1205,1202,1187,1137],"ymouse":[644,644,644,644,644,644,644,644,644,644,644,644,644,644,644,644,644,644,644,644,644,644,644,644,644,644,644,644,644,644,644,644,644,644,644,642,642,642,642,642,642,642,642,642,642,642,642,642,642,642,642,642,642,642,642,642,642,642,642,642,642,642,642,642,642,642,642,642,642,642,642,642,642,642,642,642,642,642,642,642,623,607,584,516,382,7,0,0,0,0,0,0,0,0,0,0,0,0,0,0,0,0,0,0,0,0,0,0,0,0,0,0,0,0,0,0,0,0,0,6,17,21,25,28,28,29,29,29,29,29,29,29,29,29,29,29,29,29,26,23,21,21,21,21,21,21,20,20,18],"timestamp_mouse":[12,29,49,70,88,109,129,149,168,188,210,229,249,269,289,309,329,349,370,390,408,428,450,469,490,510,529,550,568,589,609,629,648,670,690,709,730,748,770,789,809,830,848,870,890,909,928,949,970,990,1009,1029,1048,1069,1090,1110,1129,1150,1169,1188,1209,1229,1250,1268,1290,1309,1329,1350,1368,1390,1410,1430,1449,1469,1490,1510,1530,1549,1570,1588,1608,1628,1650,1669,1689,1709,1729,1748,1770,1790,1809,1829,1850,1869,1889,1910,1928,1949,1969,1990,2009,2030,2050,2069,2089,2110,2129,2149,2169,2190,2209,2229,2249,2269,2288,2310,2329,2350,2368,2389,2410,2429,2450,2468,2489,2509,2529,2549,2569,2589,2608,2629,2649,2668,2689,2710,2729,2748,2769,2790,2810,2829,2850,2868,2888,2910,2928,2949,2970],"xSR":741.5,"ySR":573.95,"xT1":424.9,"yT1":0,"xT2":1058.1,"yT2":0,"toosoon":0,"cond_shown":"Congruent","ratio_trial":100,"L_num":10,"L_den":25,"R_num":3,"R_den":10,"correct_side":1,"subjID":"EmilianoCallejasGonzalez23","gender":"0","school":"4","age":"9"},{"start_time":1552054317192,"click_time":1552054319117,"finger_time":1552054318277,"fix_duration":973.4820356882785,"trial":37,"RT":1085,"MT":840,"sideResp":2,"stimulus":[],"xmouse":[792,792,792,792,792,792,792,792,792,792,792,792,792,792,792,792,792,792,792,792,792,792,792,792,792,792,792,793,794,797,800,800,800,800,800,800,800,800,800,800,800,800,800,800,797,795,795,793,792,792,794,795,800,814,852,870,892,916,977,1109,1182,1252,1311,1360,1392,1436,1448,1454,1457,1458,1458,1458,1458,1458,1458,1458,1458,1458,1458,1455,1441,1432,1418,1404,1376,1362,1353,1341,1335,1334,1325,1311,1277,1246,1180,1166,1147],"ymouse":[639,639,639,639,639,639,639,639,639,639,639,639,639,639,639,639,639,639,639,639,639,639,639,639,639,639,636,634,630,622,617,617,617,617,617,617,617,617,617,617,617,617,617,617,618,619,621,623,625,631,636,636,636,631,555,507,431,349,152,0,0,0,0,0,0,0,0,0,0,0,0,0,0,0,0,0,0,0,0,0,5,9,14,18,29,34,38,41,42,43,45,48,53,53,56,56,54],"timestamp_mouse":[5,25,46,65,86,105,125,145,166,186,205,225,245,266,286,306,326,346,365,385,406,424,446,466,485,504,525,544,565,585,605,624,646,666,684,706,725,745,765,785,806,825,845,865,886,904,924,944,966,985,1005,1024,1046,1065,1085,1105,1125,1146,1166,1186,1205,1226,1245,1265,1285,1305,1326,1345,1366,1386,1405,1425,1445,1466,1484,1504,1526,1545,1566,1584,1605,1625,1645,1665,1686,1705,1725,1744,1765,1784,1805,1824,1846,1865,1886,1906,1924],"xSR":741.5,"ySR":573.95,"xT1":424.9,"yT1":0,"xT2":1058.1,"yT2":0,"toosoon":0,"cond_shown":"Congruent","ratio_trial":200,"L_num":9,"L_den":30,"R_num":13,"R_den":26,"correct_side":2,"subjID":"EmilianoCallejasGonzalez23","gender":"0","school":"4","age":"9"},{"start_time":1552054320960,"click_time":1552054322397,"finger_time":1552054321897,"fix_duration":281.39332077043423,"trial":38,"RT":937,"MT":500,"sideResp":1,"stimulus":[],"xmouse":[763,763,763,763,763,763,763,763,763,763,763,763,763,763,763,763,763,763,763,763,763,763,763,763,763,763,763,763,763,763,763,763,763,763,763,763,763,763,763,763,763,763,763,763,763,759,708,698,639,594,543,443,414,396,379,366,358,357,357,357,357,357,357,359,367,391,410,412,412,416,423,428],"ymouse":[634,634,634,634,634,634,634,634,634,634,634,634,634,634,634,634,634,634,634,634,634,634,634,634,634,634,634,634,634,634,634,634,634,634,634,634,634,634,634,634,634,634,634,634,634,625,563,552,481,418,347,207,157,128,96,78,63,60,60,60,60,60,60,60,60,61,64,65,65,65,64,61],"timestamp_mouse":[18,37,57,77,97,117,136,157,178,197,216,238,258,277,298,318,337,357,378,398,418,437,456,476,497,517,537,557,577,596,617,637,657,677,697,717,737,757,776,797,818,837,858,878,896,918,937,956,976,998,1017,1037,1057,1077,1097,1118,1137,1157,1177,1197,1217,1238,1256,1277,1297,1318,1336,1357,1376,1398,1417,1437],"xSR":741.5,"ySR":573.95,"xT1":424.9,"yT1":0,"xT2":1058.1,"yT2":0,"toosoon":0,"cond_shown":"Congruent","ratio_trial":200,"L_num":16,"L_den":30,"R_num":9,"R_den":27,"correct_side":1,"subjID":"EmilianoCallejasGonzalez23","gender":"0","school":"4","age":"9"},{"start_time":1552054323549,"click_time":1552054324797,"finger_time":1552054324397,"fix_duration":250,"trial":39,"RT":848,"MT":400,"sideResp":2,"stimulus":[],"xmouse":[821,821,821,821,821,821,821,821,821,821,821,821,821,821,821,821,821,821,821,821,821,821,821,821,821,821,821,821,821,821,821,821,821,821,821,821,821,821,821,821,823,827,855,871,893,919,957,1009,1056,1073,1078,1085,1089,1100,1105,1105,1105,1105,1105,1105,1106,1109,1116],"ymouse":[634,634,634,634,634,634,634,634,634,634,634,634,634,634,634,634,634,634,634,634,634,634,634,634,634,634,634,634,634,634,634,634,634,634,634,634,634,634,634,634,622,586,469,399,321,213,84,0,0,0,0,0,0,0,0,0,0,0,0,0,0,0,9],"timestamp_mouse":[9,29,49,68,89,108,129,148,169,189,208,229,249,268,288,308,329,348,368,389,408,428,447,468,489,509,527,548,568,589,608,628,649,669,689,708,728,749,768,787,808,828,848,868,888,907,927,947,968,988,1008,1028,1048,1067,1089,1108,1127,1148,1168,1188,1207,1228,1248],"xSR":741.5,"ySR":573.95,"xT1":424.9,"yT1":0,"xT2":1058.1,"yT2":0,"toosoon":0,"cond_shown":"Incongruent","ratio_trial":300,"L_num":13,"L_den":26,"R_num":12,"R_den":15,"correct_side":2,"subjID":"EmilianoCallejasGonzalez23","gender":"0","school":"4","age":"9"},{"start_time":1552054326491,"click_time":1552054328857,"finger_time":1552054326936,"fix_duration":473.7977888139835,"trial":40,"RT":445,"MT":1921,"sideResp":1,"stimulus":[],"xmouse":[837,837,837,837,837,837,837,837,837,837,837,837,837,837,837,837,837,837,837,837,835,810,797,794,794,794,794,794,794,794,794,794,794,794,794,794,794,794,794,794,794,794,794,794,794,794,799,824,845,847,847,847,847,835,820,787,740,739,739,739,739,739,739,740,742,749,750,752,753,755,755,755,755,755,755,755,755,755,744,707,674,637,624,611,593,563,492,484,484,484,484,484,484,483,482,482,468,454,418,395,386,372,372,372,372,372,376,380,389,392,404,405,406,406,406,414,420,424,429],"ymouse":[619,619,619,619,619,619,619,619,619,619,619,619,619,619,619,619,619,619,619,619,619,651,680,695,697,697,697,697,697,697,697,697,697,697,697,697,697,697,697,697,697,697,697,697,697,697,696,698,704,704,704,704,703,694,681,663,634,633,632,632,632,631,623,619,614,604,602,601,601,599,599,599,599,599,599,599,599,599,590,570,550,525,510,493,465,421,347,339,335,335,335,335,333,331,327,322,268,214,105,48,16,0,0,0,0,0,0,0,0,0,0,0,0,0,0,0,1,4,7],"timestamp_mouse":[7,26,46,66,87,106,127,146,166,186,206,227,246,267,287,306,327,346,365,386,406,427,445,466,487,507,526,546,566,585,606,626,646,667,687,707,726,747,767,786,807,825,846,867,886,906,925,947,966,986,1006,1025,1045,1067,1086,1106,1126,1145,1166,1187,1206,1226,1245,1267,1286,1306,1325,1346,1366,1386,1407,1426,1447,1465,1487,1506,1526,1546,1565,1586,1605,1627,1645,1667,1686,1706,1725,1745,1767,1787,1807,1826,1846,1866,1886,1906,1925,1945,1965,1986,2006,2026,2046,2067,2086,2105,2126,2146,2165,2187,2207,2225,2247,2266,2287,2307,2326,2345,2366],"xSR":741.5,"ySR":573.95,"xT1":424.9,"yT1":0,"xT2":1058.1,"yT2":0,"toosoon":0,"cond_shown":"Incongruent","ratio_trial":200,"L_num":1,"L_den":3,"R_num":2,"R_den":15,"correct_side":1,"subjID":"EmilianoCallejasGonzalez23","gender":"0","school":"4","age":"9"},{"start_time":1552054332927,"click_time":1552054334917,"finger_time":1552054334477,"fix_duration":290.44704076210024,"trial":41,"RT":1550,"MT":440,"sideResp":2,"stimulus":[],"xmouse":[790,790,790,790,790,790,790,790,790,790,790,791,791,791,791,791,791,791,791,790,790,790,790,790,790,790,790,790,790,790,790,790,790,790,790,790,790,790,790,790,790,790,790,790,790,790,790,790,790,790,790,790,790,790,790,790,790,790,790,790,790,790,790,790,790,790,790,790,790,790,788,785,785,785,785,785,787,797,814,863,876,880,880,880,880,880,880,880,881,890,891,896,903,913,956,981,992,1002,1019,1068],"ymouse":[589,589,589,589,589,589,589,589,589,589,589,585,585,585,585,585,585,585,584,584,584,584,584,584,584,584,584,584,584,584,584,584,584,584,584,584,584,584,584,584,584,584,584,584,584,584,584,584,584,584,584,584,584,584,584,584,584,584,584,584,584,584,584,584,584,584,584,584,584,584,585,587,587,587,587,587,577,556,531,487,477,475,475,475,465,431,412,390,365,313,297,274,250,232,193,172,164,156,142,92],"timestamp_mouse":[13,30,50,70,91,110,131,149,171,191,209,231,251,270,290,310,329,350,369,391,410,430,450,471,490,510,530,551,570,589,609,631,649,671,691,711,731,751,770,790,811,830,850,870,890,911,929,950,971,991,1011,1030,1051,1070,1090,1110,1131,1151,1170,1190,1209,1231,1250,1269,1290,1310,1330,1349,1370,1391,1409,1431,1450,1469,1490,1511,1529,1550,1570,1589,1611,1631,1650,1671,1691,1710,1729,1750,1770,1789,1810,1829,1851,1870,1889,1910,1929,1950,1969,1990],"xSR":741.5,"ySR":573.95,"xT1":424.9,"yT1":0,"xT2":1058.1,"yT2":0,"toosoon":0,"cond_shown":"Incongruent","ratio_trial":100,"L_num":6,"L_den":10,"R_num":13,"R_den":26,"correct_side":1,"subjID":"EmilianoCallejasGonzalez23","gender":"0","school":"4","age":"9"},{"start_time":1552054338289,"click_time":1552054341157,"finger_time":1552054339036,"fix_duration":691.373472077726,"trial":42,"RT":747,"MT":2121,"sideResp":2,"stimulus":[],"xmouse":[763,763,763,763,763,763,763,763,763,763,763,763,763,763,763,763,763,763,763,763,763,763,763,763,763,763,763,763,763,763,763,763,763,763,766,786,816,862,909,963,1026,1079,1185,1235,1317,1317,1317,1317,1317,1317,1317,1317,1317,1317,1317,1317,1317,1317,1317,1317,1317,1317,1317,1317,1317,1317,1317,1317,1317,1317,1317,1317,1317,1317,1317,1317,1317,1317,1317,1317,1317,1317,1317,1317,1317,1317,1317,1317,1317,1317,1317,1317,1317,1315,1293,1256,1222,1193,1192,1192,1192,1192,1192,1192,1192,1192,1192,1192,1192,1192,1192,1192,1192,1190,1190,1190,1171,1158,1155,1148,1135,1107,1081,1057,1057,1057,1057,1057,1057,1057,1057,1057,1057,1056,1056,1056,1055,1055,1053,1053,1053,1053,1055,1060],"ymouse":[604,604,604,604,604,604,604,605,605,605,605,605,605,605,605,605,605,605,605,605,605,605,605,605,608,612,612,612,612,612,612,612,612,612,613,602,583,533,479,413,331,234,0,0,0,0,0,0,0,0,0,0,0,0,0,0,0,0,0,0,0,0,0,0,0,0,0,0,0,0,0,0,0,0,0,0,0,0,0,0,0,0,0,0,0,0,0,0,0,0,0,0,0,0,0,0,0,0,0,0,0,0,0,0,0,0,0,0,0,0,0,0,0,0,0,0,0,0,0,0,0,0,0,0,0,0,0,0,0,0,0,0,0,0,0,0,0,0,0,0,0,0,6,9],"timestamp_mouse":[7,29,49,69,89,108,129,148,169,188,209,228,249,269,288,308,329,348,369,389,408,428,448,469,487,509,527,547,569,589,609,628,648,669,687,707,728,747,768,787,808,828,849,868,888,909,928,949,969,987,1008,1029,1048,1068,1088,1107,1127,1149,1168,1188,1208,1228,1249,1268,1289,1308,1328,1349,1369,1388,1409,1429,1449,1468,1489,1508,1527,1548,1568,1588,1608,1628,1649,1667,1687,1708,1727,1749,1768,1788,1808,1828,1849,1869,1887,1909,1928,1948,1968,1988,2008,2028,2049,2069,2088,2109,2127,2148,2168,2188,2207,2228,2248,2267,2288,2309,2328,2349,2369,2388,2408,2429,2448,2468,2488,2508,2528,2548,2568,2589,2608,2628,2648,2669,2688,2709,2728,2748,2769,2788,2808,2827,2848,2868],"xSR":741.5,"ySR":573.95,"xT1":424.9,"yT1":0,"xT2":1058.1,"yT2":0,"toosoon":0,"cond_shown":"Congruent","ratio_trial":100,"L_num":3,"L_den":6,"R_num":2,"R_den":5,"correct_side":1,"subjID":"EmilianoCallejasGonzalez23","gender":"0","school":"4","age":"9"},{"start_time":1552054346818,"click_time":1552054351597,"finger_time":1552054347957,"fix_duration":379.26300968437397,"trial":43,"RT":1139,"MT":3640,"sideResp":2,"stimulus":[],"xmouse":[791,791,791,791,791,791,791,791,791,791,791,791,791,791,791,791,791,791,791,791,791,791,791,791,791,791,791,791,791,791,791,791,791,791,791,791,791,791,791,791,791,791,791,791,791,791,791,794,800,811,822,830,833,835,838,838,839,840,842,846,852,870,888,912,921,933,949,953,967,983,998,1030,1045,1052,1052,1052,1052,1052,1052,1052,1052,1052,1052,1052,1052,1052,1052,1052,1052,1052,1052,1052,1052,1052,1052,1052,1052,1052,1052,1052,1052,1052,1052,1052,1052,1052,1052,1052,1052,1052,1052,1052,1052,1052,1052,1052,1052,1052,1052,1052,1052,1052,1052,1052,1052,1052,1052,1052,1052,1052,1052,1052,1052,1052,1052,1052,1052,1052,1052,1052,1052,1052,1052,1052,1052,1052,1052,1052,1007,970,859,702,630,630,620,604,587,585,585,578,564,553,553,554,554,555,579,597,611,625,654,772,917,1041,1200,1359,1416,1416,1416,1416,1416,1416,1416,1416,1416,1416,1416,1416,1416,1416,1416,1416,1416,1416,1416,1416,1416,1416,1416,1416,1416,1416,1416,1416,1416,1416,1416,1416,1415,1394,1371,1362,1355,1355,1355,1355,1355,1351,1328,1306,1284,1264,1234,1230,1225,1223,1223,1223,1223,1222,1222,1222,1221,1208,1190,1190,1190,1180,1156],"ymouse":[635,635,635,635,635,635,635,635,635,635,635,635,635,635,635,635,635,635,635,635,635,635,635,635,635,635,635,635,635,635,635,635,635,635,635,635,635,635,635,635,635,635,635,635,635,635,635,635,634,629,617,600,594,582,576,574,573,571,567,561,550,508,457,403,382,352,300,284,237,180,121,7,0,0,0,0,0,0,0,0,0,0,0,0,0,0,0,0,0,0,0,0,0,0,0,0,0,0,0,0,0,0,0,0,0,0,0,0,0,0,0,0,0,0,0,0,0,0,0,0,0,0,0,0,0,0,0,0,0,0,0,0,0,0,0,0,0,0,0,0,0,0,0,0,0,0,0,0,17,31,80,131,149,149,161,184,247,258,264,291,342,388,405,408,408,408,376,353,336,320,290,210,120,61,0,0,0,0,0,0,0,0,0,0,0,0,0,0,0,0,0,0,0,0,0,0,0,0,0,0,0,0,0,0,0,0,0,0,0,0,1,3,1,1,1,1,1,1,8,15,21,27,34,37,38,39,39,39,39,39,39,39,40,40,40,40,40,40,43],"timestamp_mouse":[18,39,59,79,100,120,139,159,179,199,220,238,260,278,300,320,340,360,379,399,419,439,460,479,498,518,540,560,580,600,619,640,660,679,699,720,740,759,780,798,820,840,858,880,899,918,939,958,979,999,1020,1038,1058,1078,1100,1118,1139,1159,1179,1199,1220,1238,1260,1279,1300,1319,1340,1359,1380,1399,1419,1438,1459,1479,1500,1520,1540,1559,1580,1600,1620,1640,1659,1679,1699,1718,1739,1759,1779,1800,1819,1839,1859,1880,1899,1919,1938,1959,1980,1999,2019,2039,2060,2079,2098,2118,2139,2160,2180,2199,2220,2239,2260,2280,2300,2319,2339,2359,2379,2399,2419,2440,2458,2480,2499,2519,2538,2559,2579,2600,2619,2640,2659,2678,2698,2719,2739,2759,2779,2800,2820,2839,2859,2880,2900,2920,2940,2959,2979,2999,3020,3040,3059,3079,3099,3119,3139,3159,3178,3199,3219,3240,3259,3280,3300,3319,3339,3360,3379,3399,3420,3438,3460,3478,3499,3520,3539,3559,3579,3599,3619,3640,3659,3680,3700,3720,3739,3759,3779,3799,3819,3839,3859,3879,3900,3919,3939,3959,3978,3998,4020,4039,4059,4079,4100,4119,4139,4158,4180,4199,4220,4240,4259,4279,4300,4320,4339,4359,4379,4398,4420,4440,4459,4478,4500,4518,4540,4559,4578,4599,4620,4639,4659,4678,4700,4719,4739,4758,4779],"xSR":741.5,"ySR":573.95,"xT1":424.9,"yT1":0,"xT2":1058.1,"yT2":0,"toosoon":0,"cond_shown":"Incongruent","ratio_trial":300,"L_num":13,"L_den":26,"R_num":12,"R_den":15,"correct_side":2,"subjID":"EmilianoCallejasGonzalez23","gender":"0","school":"4","age":"9"},{"start_time":1552054355966,"click_time":1552054358437,"finger_time":1552054356838,"fix_duration":1268.9993009687769,"trial":44,"RT":872,"MT":1599,"sideResp":2,"stimulus":[],"xmouse":[795,795,795,795,795,795,795,795,795,795,795,795,795,795,795,795,795,795,795,795,795,795,795,795,795,795,795,795,795,795,795,795,795,795,795,795,795,795,795,795,795,795,795,795,795,795,795,795,795,797,803,807,815,821,826,842,848,856,867,880,896,905,927,937,968,1048,1062,1062,1062,1062,1062,1062,1062,1062,1062,1062,1062,1062,1062,1062,1062,1062,1062,1062,1062,1062,1062,1062,1062,1062,1062,1062,1062,1062,1062,1062,1062,1062,1062,1062,1062,1062,1062,1062,1062,1062,1062,1062,1062,1062,1062,1062,1062,1062,1062,1062,1062,1062,1062,1062,1062,1062,1062,1063],"ymouse":[628,628,628,628,628,628,628,628,628,628,628,628,628,628,628,628,628,628,628,628,628,628,628,628,628,628,628,628,628,628,628,628,628,628,628,628,628,628,624,620,599,584,576,553,545,539,539,539,539,537,535,533,529,527,523,502,486,469,449,432,390,360,284,226,110,0,0,0,0,0,0,0,0,0,0,0,0,0,0,0,0,0,0,0,0,0,0,0,0,0,0,0,0,0,0,0,0,0,0,0,0,0,0,0,0,0,0,0,0,0,0,0,0,0,0,0,0,0,0,0,0,0,0,13],"timestamp_mouse":[14,30,52,72,91,111,131,151,171,192,211,232,252,270,292,312,332,352,371,392,412,430,452,472,492,510,532,552,570,591,612,632,651,671,692,710,731,751,772,792,811,831,851,872,891,911,930,952,971,991,1010,1030,1051,1071,1091,1111,1131,1152,1171,1191,1211,1231,1251,1271,1292,1311,1331,1351,1371,1390,1411,1431,1451,1471,1491,1511,1531,1551,1571,1591,1612,1631,1650,1671,1690,1712,1731,1752,1771,1791,1812,1832,1851,1871,1891,1911,1930,1951,1971,1991,2011,2031,2051,2071,2090,2110,2131,2151,2171,2191,2211,2231,2251,2271,2291,2311,2332,2352,2371,2390,2411,2431,2451,2471],"xSR":741.5,"ySR":573.95,"xT1":424.9,"yT1":0,"xT2":1058.1,"yT2":0,"toosoon":0,"cond_shown":"Incongruent","ratio_trial":300,"L_num":4,"L_den":20,"R_num":2,"R_den":4,"correct_side":2,"subjID":"EmilianoCallejasGonzalez23","gender":"0","school":"4","age":"9"},{"start_time":1552054366327,"click_time":1552054368697,"finger_time":1552054367556,"fix_duration":250,"trial":45,"RT":1229,"MT":1141,"sideResp":2,"stimulus":[],"xmouse":[770,770,770,770,770,770,770,770,770,770,770,770,770,770,770,770,770,770,770,770,770,770,770,770,770,770,770,770,770,770,770,770,770,770,770,770,770,770,770,770,770,770,770,770,770,770,770,770,770,770,770,770,770,770,770,770,770,770,770,770,777,795,853,1096,1265,1433,1433,1433,1433,1433,1433,1433,1433,1433,1433,1433,1433,1433,1433,1433,1433,1433,1433,1433,1433,1433,1433,1433,1433,1433,1433,1433,1433,1433,1433,1433,1433,1433,1433,1502,1420,1419,1418,1418,1409,1360,1247,1150,1079,1075,1075,1075,1072,1064,1062,1062,1062,1060,1059],"ymouse":[644,644,644,644,644,644,644,644,644,644,644,644,644,644,644,644,644,644,644,644,644,644,644,644,644,644,644,644,644,644,644,644,644,644,644,644,644,644,644,644,644,644,644,644,644,644,644,644,644,644,644,644,644,644,644,644,644,644,644,644,616,541,368,0,0,0,0,0,0,0,0,0,0,0,0,0,0,0,0,0,0,0,0,0,0,0,0,0,0,0,0,0,0,0,0,0,0,0,0,1,0,0,0,0,0,0,0,0,0,0,0,0,0,0,0,0,0,0,1],"timestamp_mouse":[10,30,51,69,90,109,131,151,171,190,210,231,251,269,290,311,331,349,369,390,411,431,450,469,490,510,530,551,569,589,610,631,651,669,691,710,730,749,769,789,811,830,850,870,889,911,929,950,970,989,1010,1030,1050,1069,1089,1109,1129,1150,1170,1190,1210,1229,1249,1269,1289,1310,1331,1350,1369,1390,1411,1431,1450,1470,1490,1509,1530,1551,1570,1590,1609,1630,1650,1671,1690,1710,1730,1749,1770,1790,1811,1831,1850,1870,1889,1909,1930,1950,1970,1990,2009,2030,2050,2070,2089,2109,2130,2150,2169,2190,2210,2229,2250,2270,2289,2309,2330,2351,2370],"xSR":741.5,"ySR":573.95,"xT1":424.9,"yT1":0,"xT2":1058.1,"yT2":0,"toosoon":0,"cond_shown":"Incongruent","ratio_trial":300,"L_num":13,"L_den":26,"R_num":12,"R_den":15,"correct_side":2,"subjID":"EmilianoCallejasGonzalez23","gender":"0","school":"4","age":"9"},{"start_time":1552054370751,"click_time":1552054372936,"finger_time":1552054372197,"fix_duration":534.8890162762435,"trial":46,"RT":1446,"MT":739,"sideResp":2,"stimulus":[],"xmouse":[819,819,819,819,820,820,820,821,821,821,821,821,821,821,821,821,821,822,822,822,823,823,823,823,823,823,823,823,823,823,823,823,823,823,823,823,823,823,823,823,823,823,823,823,823,823,823,823,823,823,823,823,823,823,823,823,823,823,823,823,823,823,823,823,823,823,823,823,826,833,834,840,848,858,860,865,873,883,914,929,937,947,956,968,974,977,980,984,985,988,988,988,989,993,995,999,1000,1006,1027,1034,1039,1042,1043,1045,1049,1052,1063,1065,1071,1073],"ymouse":[642,642,642,642,641,641,641,640,640,640,640,640,640,640,640,640,640,640,640,639,638,638,638,638,638,638,638,638,638,638,638,638,638,638,638,638,63