[{"start_time":1552328577586,"click_time":1552328580009,"finger_time":1552328579749,"fix_duration":892.1124930421079,"trial":0,"RT":2163,"MT":260,"sideResp":2,"stimulus":"img/500/equaldotsize/R/9_Ratio_500_L_2_R_4.png","xmouse":[766,766,766,766,766,766,766,766,766,766,766,766,766,766,766,766,766,766,766,766,766,766,766,766,766,766,766,766,766,766,766,766,766,766,766,766,766,766,766,766,766,766,766,766,766,766,766,766,766,766,766,766,766,766,766,766,766,766,766,766,766,766,766,766,766,766,766,766,766,766,766,766,766,766,766,766,766,766,766,766,766,766,766,766,766,766,766,766,766,766,766,766,766,766,766,766,766,769,774,776,776,776,776,776,776,780,808,845,879,916,935,953,974,994,1044,1065,1079,1091,1099,1104,1106],"ymouse":[534,534,534,534,534,534,534,534,534,534,534,534,534,534,534,534,534,534,534,534,534,534,534,534,534,534,534,534,534,534,534,534,534,534,534,534,534,534,534,534,534,534,534,534,534,534,534,534,534,534,534,534,534,534,534,534,534,534,534,534,534,534,534,534,534,534,534,534,534,534,534,534,534,534,534,534,534,534,534,534,534,534,534,534,534,534,534,534,534,534,534,534,534,534,534,534,534,532,528,527,527,527,527,527,527,522,484,432,392,345,316,296,275,257,205,177,153,132,115,101,89],"timestamp_mouse":[9,47,62,83,103,124,142,164,183,202,223,242,262,283,303,324,342,363,383,403,423,442,462,482,502,522,543,563,584,603,623,642,662,683,702,722,742,762,784,803,823,843,862,884,902,923,943,962,984,1002,1022,1043,1064,1083,1102,1123,1144,1162,1182,1202,1223,1243,1263,1282,1302,1322,1342,1363,1382,1402,1422,1444,1462,1483,1502,1524,1542,1562,1584,1602,1622,1642,1662,1683,1702,1724,1743,1762,1782,1802,1822,1842,1862,1884,1903,1923,1942,1962,1982,2003,2023,2043,2062,2083,2103,2122,2143,2163,2183,2203,2222,2242,2262,2282,2302,2322,2342,2363,2383,2403,2422],"xSR":733.5,"ySR":493.35,"xT1":420.09999999999997,"yT1":0,"xT2":1046.8999999999999,"yT2":0,"toosoon":0,"cond_shown":"equaldotsize","ratio_trial":500,"smaller_num":"2","larger_num":"4","correct_side":2,"subjID":"fabiangarcia31","gender":"0","age":"9","school":"4","test":{"fix_dur":[250,1500],"timestim":300,"targets_dim":[100,100],"targets_relative_coord":[0.3,0.7],"size_stim":[880,420],"start_dim":[100,100],"size_start":[300,300],"size_fix":60,"samplingrate":20,"img_types":["equaldotsize","equaldotanddens","randomdotsizeEA"],"ratios":[250,500,750,900],"rep_conds":9,"nTrials":120,"trials_to_rest":500,"Trials_order":[39,76,101,113,63,105,36,98,96,102,21,117,40,11,51,35,41,108,75,119,93,5,87,6,61,97,1,2,8,85,79,23,71,104,109,3,38,10,70,4,103,9,27,84,48,81,46,29,91,7,31,95,64,74,114,111,55,42,43,58,112,17,0,26,24,59,37,13,86,68,28,69,116,34,16,62,52,53,99,89,19,15,50,73,107,65,100,110,118,67,20,12,30,80,66,83,60,32,14,25,92,88,94,82,90,18,49,115,33,77,22,47,44,106,57,54,45,72,56,78],"cond_shown":["equaldotsize","equaldotanddens","randomdotsizeEA","randomdotsizeEA","equaldotsize","equaldotsize","equaldotsize","randomdotsizeEA","equaldotsize","equaldotsize","equaldotsize","equaldotsize","equaldotanddens","randomdotsizeEA","equaldotsize","randomdotsizeEA","randomdotsizeEA","equaldotsize","equaldotsize","randomdotsizeEA","equaldotsize","randomdotsizeEA","equaldotsize","equaldotsize","equaldotanddens","equaldotanddens","equaldotanddens","randomdotsizeEA","randomdotsizeEA","equaldotanddens","equaldotanddens","randomdotsizeEA","randomdotsizeEA","randomdotsizeEA","equaldotanddens","equaldotsize","randomdotsizeEA","equaldotanddens","equaldotanddens","equaldotanddens","equaldotanddens","equaldotsize","equaldotsize","equaldotsize","equaldotsize","equaldotsize","equaldotanddens","randomdotsizeEA","equaldotanddens","equaldotanddens","equaldotanddens","randomdotsizeEA","equaldotanddens","randomdotsizeEA","equaldotsize","equaldotsize","equaldotanddens","equaldotsize","equaldotanddens","equaldotanddens","equaldotanddens","randomdotsizeEA","equaldotsize","randomdotsizeEA","equaldotsize","randomdotsizeEA","equaldotanddens","equaldotanddens","randomdotsizeEA","randomdotsizeEA","equaldotanddens","equaldotsize","randomdotsizeEA","equaldotanddens","equaldotanddens","randomdotsizeEA","equaldotanddens","randomdotsizeEA","equaldotsize","randomdotsizeEA","equaldotanddens","equaldotsize","randomdotsizeEA","equaldotanddens","randomdotsizeEA","randomdotsizeEA","equaldotanddens","randomdotsizeEA","equaldotanddens","equaldotanddens","randomdotsizeEA","equaldotsize","equaldotsize","randomdotsizeEA","equaldotsize","randomdotsizeEA","equaldotsize","randomdotsizeEA","randomdotsizeEA","equaldotanddens","randomdotsizeEA","equaldotanddens","equaldotanddens","equaldotanddens","equaldotsize","equaldotsize","equaldotanddens","equaldotanddens","equaldotsize","randomdotsizeEA","equaldotanddens","randomdotsizeEA","randomdotsizeEA","equaldotanddens","equaldotsize","equaldotsize","equaldotsize","equaldotsize","randomdotsizeEA","equaldotsize"],"ratio_trial":[500,500,500,500,500,900,250,250,250,750,900,900,500,900,500,900,500,250,500,900,900,500,500,750,250,250,250,250,750,250,750,900,900,750,250,500,250,900,900,500,750,900,500,250,250,900,900,500,750,750,750,900,500,250,750,500,750,750,750,900,500,500,250,250,250,900,250,250,250,750,500,900,750,900,500,250,500,500,500,500,750,500,250,250,900,500,500,250,900,750,750,250,750,750,750,900,250,750,250,250,750,500,900,900,750,750,250,750,900,500,900,900,750,900,900,750,900,250,750,750],"smaller_num":["2","2","4","6","6","9","2","2","6","6","18","9","6","9","4","9","3","2","2","18","9","4","5","18","3","1","3","4","3","6","18","9","9","6","5","9","3","18","18","6","3","18","2","4","3","9","9","1","9","3","15","18","9","2","15","9","9","15","15","18","6","1","6","2","3","9","3","2","2","6","6","18","12","18","2","2","2","2","2","6","18","6","3","4","18","2","2","4","9","3","6","2","18","15","3","18","6","3","1","2","3","6","9","9","15","3","3","12","18","4","18","9","6","18","9","9","18","4","9","6"],"larger_num":["4","4","8","12","12","10","8","8","24","8","20","10","12","10","8","10","6","8","4","20","10","8","10","24","12","4","12","16","4","24","24","10","10","8","20","18","12","20","20","12","4","20","4","16","12","10","10","2","12","4","20","20","18","8","20","18","12","20","20","20","12","2","24","8","12","10","12","8","8","8","12","20","16","20","4","8","4","4","4","12","24","12","12","16","20","4","4","16","10","4","8","8","24","20","4","20","24","4","4","8","4","12","10","10","20","4","12","16","20","8","20","10","8","20","10","12","20","16","12","8"],"correct_side":[2,1,1,1,1,1,1,1,1,1,2,1,1,1,1,2,2,2,1,2,2,1,1,1,1,2,1,2,2,1,1,2,2,1,2,2,1,2,1,1,2,1,1,2,1,2,2,2,2,1,2,2,2,2,2,2,2,1,2,2,1,2,2,1,2,2,2,2,1,2,1,2,2,1,2,1,2,1,1,1,1,1,1,1,1,1,1,2,2,2,1,1,1,1,2,1,1,1,2,1,1,1,1,1,1,2,2,2,2,1,1,2,1,2,2,2,1,1,2,1],"img_shown":["img/500/equaldotsize/R/9_Ratio_500_L_2_R_4.png","img/500/equaldotanddens/L/5_Ratio_500_L_4_R_2.png","img/500/randomdotsizeEA/L/8_Ratio_500_L_8_R_4.png","img/500/randomdotsizeEA/L/11_Ratio_500_L_12_R_6.png","img/500/equaldotsize/L/11_Ratio_500_L_12_R_6.png","img/900/equaldotsize/L/1_Ratio_900_L_10_R_9.png","img/250/equaldotsize/L/3_Ratio_250_L_8_R_2.png","img/250/randomdotsizeEA/L/1_Ratio_250_L_8_R_2.png","img/250/equaldotsize/L/5_Ratio_250_L_24_R_6.png","img/750/equaldotsize/L/13_Ratio_750_L_8_R_6.png","img/900/equaldotsize/R/12_Ratio_900_L_18_R_20.png","img/900/equaldotsize/L/1_Ratio_900_L_10_R_9.png","img/500/equaldotanddens/L/13_Ratio_500_L_12_R_6.png","img/900/randomdotsizeEA/L/1_Ratio_900_L_10_R_9.png","img/500/equaldotsize/L/8_Ratio_500_L_8_R_4.png","img/900/randomdotsizeEA/R/15_Ratio_900_L_9_R_10.png","img/500/randomdotsizeEA/R/2_Ratio_500_L_3_R_6.png","img/250/equaldotsize/R/13_Ratio_250_L_2_R_8.png","img/500/equaldotsize/L/10_Ratio_500_L_4_R_2.png","img/900/randomdotsizeEA/R/13_Ratio_900_L_18_R_20.png","img/900/equaldotsize/R/3_Ratio_900_L_9_R_10.png","img/500/randomdotsizeEA/L/8_Ratio_500_L_8_R_4.png","img/500/equaldotsize/L/7_Ratio_500_L_10_R_5.png","img/750/equaldotsize/L/6_Ratio_750_L_24_R_18.png","img/250/equaldotanddens/L/15_Ratio_250_L_12_R_3.png","img/250/equaldotanddens/R/8_Ratio_250_L_1_R_4.png","img/250/equaldotanddens/L/14_Ratio_250_L_12_R_3.png","img/250/randomdotsizeEA/R/10_Ratio_250_L_4_R_16.png","img/750/randomdotsizeEA/R/12_Ratio_750_L_3_R_4.png","img/250/equaldotanddens/L/5_Ratio_250_L_24_R_6.png","img/750/equaldotanddens/L/6_Ratio_750_L_24_R_18.png","img/900/randomdotsizeEA/R/6_Ratio_900_L_9_R_10.png","img/900/randomdotsizeEA/R/6_Ratio_900_L_9_R_10.png","img/750/randomdotsizeEA/L/14_Ratio_750_L_8_R_6.png","img/250/equaldotanddens/R/12_Ratio_250_L_5_R_20.png","img/500/equaldotsize/R/1_Ratio_500_L_9_R_18.png","img/250/randomdotsizeEA/L/14_Ratio_250_L_12_R_3.png","img/900/equaldotanddens/R/12_Ratio_900_L_18_R_20.png","img/900/equaldotanddens/L/4_Ratio_900_L_20_R_18.png","img/500/equaldotanddens/L/13_Ratio_500_L_12_R_6.png","img/750/equaldotanddens/R/12_Ratio_750_L_3_R_4.png","img/900/equaldotsize/L/4_Ratio_900_L_20_R_18.png","img/500/equaldotsize/L/10_Ratio_500_L_4_R_2.png","img/250/equaldotsize/R/10_Ratio_250_L_4_R_16.png","img/250/equaldotsize/L/14_Ratio_250_L_12_R_3.png","img/900/equaldotsize/R/7_Ratio_900_L_9_R_10.png","img/900/equaldotanddens/R/5_Ratio_900_L_9_R_10.png","img/500/randomdotsizeEA/R/15_Ratio_500_L_1_R_2.png","img/750/equaldotanddens/R/15_Ratio_750_L_9_R_12.png","img/750/equaldotanddens/L/9_Ratio_750_L_4_R_3.png","img/750/equaldotanddens/R/5_Ratio_750_L_15_R_20.png","img/900/randomdotsizeEA/R/13_Ratio_900_L_18_R_20.png","img/500/equaldotanddens/R/1_Ratio_500_L_9_R_18.png","img/250/randomdotsizeEA/R/13_Ratio_250_L_2_R_8.png","img/750/equaldotsize/R/5_Ratio_750_L_15_R_20.png","img/500/equaldotsize/R/1_Ratio_500_L_9_R_18.png","img/750/equaldotanddens/R/15_Ratio_750_L_9_R_12.png","img/750/equaldotsize/L/1_Ratio_750_L_20_R_15.png","img/750/equaldotanddens/R/4_Ratio_750_L_15_R_20.png","img/900/equaldotanddens/R/11_Ratio_900_L_18_R_20.png","img/500/equaldotanddens/L/13_Ratio_500_L_12_R_6.png","img/500/randomdotsizeEA/R/12_Ratio_500_L_1_R_2.png","img/250/equaldotsize/R/6_Ratio_250_L_6_R_24.png","img/250/randomdotsizeEA/L/7_Ratio_250_L_8_R_2.png","img/250/equaldotsize/R/9_Ratio_250_L_3_R_12.png","img/900/randomdotsizeEA/R/5_Ratio_900_L_9_R_10.png","img/250/equaldotanddens/R/11_Ratio_250_L_3_R_12.png","img/250/equaldotanddens/R/13_Ratio_250_L_2_R_8.png","img/250/randomdotsizeEA/L/7_Ratio_250_L_8_R_2.png","img/750/randomdotsizeEA/R/2_Ratio_750_L_6_R_8.png","img/500/equaldotanddens/L/11_Ratio_500_L_12_R_6.png","img/900/equaldotsize/R/13_Ratio_900_L_18_R_20.png","img/750/randomdotsizeEA/R/11_Ratio_750_L_12_R_16.png","img/900/equaldotanddens/L/10_Ratio_900_L_20_R_18.png","img/500/equaldotanddens/R/9_Ratio_500_L_2_R_4.png","img/250/randomdotsizeEA/L/3_Ratio_250_L_8_R_2.png","img/500/equaldotanddens/R/9_Ratio_500_L_2_R_4.png","img/500/randomdotsizeEA/L/5_Ratio_500_L_4_R_2.png","img/500/equaldotsize/L/5_Ratio_500_L_4_R_2.png","img/500/randomdotsizeEA/L/11_Ratio_500_L_12_R_6.png","img/750/equaldotanddens/L/6_Ratio_750_L_24_R_18.png","img/500/equaldotsize/L/13_Ratio_500_L_12_R_6.png","img/250/randomdotsizeEA/L/15_Ratio_250_L_12_R_3.png","img/250/equaldotanddens/L/2_Ratio_250_L_16_R_4.png","img/900/randomdotsizeEA/L/2_Ratio_900_L_20_R_18.png","img/500/randomdotsizeEA/L/5_Ratio_500_L_4_R_2.png","img/500/equaldotanddens/L/5_Ratio_500_L_4_R_2.png","img/250/randomdotsizeEA/R/10_Ratio_250_L_4_R_16.png","img/900/equaldotanddens/R/7_Ratio_900_L_9_R_10.png","img/750/equaldotanddens/R/12_Ratio_750_L_3_R_4.png","img/750/randomdotsizeEA/L/13_Ratio_750_L_8_R_6.png","img/250/equaldotsize/L/7_Ratio_250_L_8_R_2.png","img/750/equaldotsize/L/6_Ratio_750_L_24_R_18.png","img/750/randomdotsizeEA/L/1_Ratio_750_L_20_R_15.png","img/750/equaldotsize/R/7_Ratio_750_L_3_R_4.png","img/900/randomdotsizeEA/L/4_Ratio_900_L_20_R_18.png","img/250/equaldotsize/L/5_Ratio_250_L_24_R_6.png","img/750/randomdotsizeEA/L/8_Ratio_750_L_4_R_3.png","img/250/randomdotsizeEA/R/8_Ratio_250_L_1_R_4.png","img/250/equaldotanddens/L/7_Ratio_250_L_8_R_2.png","img/750/randomdotsizeEA/L/8_Ratio_750_L_4_R_3.png","img/500/equaldotanddens/L/13_Ratio_500_L_12_R_6.png","img/900/equaldotanddens/L/1_Ratio_900_L_10_R_9.png","img/900/equaldotanddens/L/1_Ratio_900_L_10_R_9.png","img/750/equaldotsize/L/1_Ratio_750_L_20_R_15.png","img/750/equaldotsize/R/7_Ratio_750_L_3_R_4.png","img/250/equaldotanddens/R/11_Ratio_250_L_3_R_12.png","img/750/equaldotanddens/R/11_Ratio_750_L_12_R_16.png","img/900/equaldotsize/R/14_Ratio_900_L_18_R_20.png","img/500/randomdotsizeEA/L/8_Ratio_500_L_8_R_4.png","img/900/equaldotanddens/L/4_Ratio_900_L_20_R_18.png","img/900/randomdotsizeEA/R/3_Ratio_900_L_9_R_10.png","img/750/randomdotsizeEA/L/14_Ratio_750_L_8_R_6.png","img/900/equaldotanddens/R/13_Ratio_900_L_18_R_20.png","img/900/equaldotsize/R/7_Ratio_900_L_9_R_10.png","img/750/equaldotsize/R/15_Ratio_750_L_9_R_12.png","img/900/equaldotsize/L/10_Ratio_900_L_20_R_18.png","img/250/equaldotsize/L/2_Ratio_250_L_16_R_4.png","img/750/randomdotsizeEA/R/15_Ratio_750_L_9_R_12.png","img/750/equaldotsize/L/13_Ratio_750_L_8_R_6.png"],"Rat0":[["12_Ratio_0_L_9_R_0.png","13_Ratio_0_L_6_R_0.png","5_Ratio_0_L_2_R_0.png","6_Ratio_0_L_4_R_0.png","8_Ratio_0_L_6_R_0.png"],["1_Ratio_0_L_0_R_17.png","10_Ratio_0_L_0_R_22.png","11_Ratio_0_L_0_R_1.png","14_Ratio_0_L_0_R_24.png","15_Ratio_0_L_0_R_4.png","2_Ratio_0_L_0_R_5.png","3_Ratio_0_L_0_R_17.png","4_Ratio_0_L_0_R_7.png","7_Ratio_0_L_0_R_19.png","9_Ratio_0_L_0_R_15.png"]],"Rat250":[["1_Ratio_250_L_8_R_2.png","14_Ratio_250_L_12_R_3.png","15_Ratio_250_L_12_R_3.png","2_Ratio_250_L_16_R_4.png","3_Ratio_250_L_8_R_2.png","5_Ratio_250_L_24_R_6.png","7_Ratio_250_L_8_R_2.png"],["10_Ratio_250_L_4_R_16.png","11_Ratio_250_L_3_R_12.png","12_Ratio_250_L_5_R_20.png","13_Ratio_250_L_2_R_8.png","4_Ratio_250_L_3_R_12.png","6_Ratio_250_L_6_R_24.png","8_Ratio_250_L_1_R_4.png","9_Ratio_250_L_3_R_12.png"]],"Rat500":[["10_Ratio_500_L_4_R_2.png","11_Ratio_500_L_12_R_6.png","13_Ratio_500_L_12_R_6.png","4_Ratio_500_L_18_R_9.png","5_Ratio_500_L_4_R_2.png","7_Ratio_500_L_10_R_5.png","8_Ratio_500_L_8_R_4.png"],["1_Ratio_500_L_9_R_18.png","12_Ratio_500_L_1_R_2.png","14_Ratio_500_L_5_R_10.png","15_Ratio_500_L_1_R_2.png","2_Ratio_500_L_3_R_6.png","3_Ratio_500_L_10_R_20.png","6_Ratio_500_L_9_R_18.png","9_Ratio_500_L_2_R_4.png"]],"Rat750":[["1_Ratio_750_L_20_R_15.png","10_Ratio_750_L_4_R_3.png","13_Ratio_750_L_8_R_6.png","14_Ratio_750_L_8_R_6.png","6_Ratio_750_L_24_R_18.png","8_Ratio_750_L_4_R_3.png","9_Ratio_750_L_4_R_3.png"],["11_Ratio_750_L_12_R_16.png","12_Ratio_750_L_3_R_4.png","15_Ratio_750_L_9_R_12.png","2_Ratio_750_L_6_R_8.png","3_Ratio_750_L_15_R_20.png","4_Ratio_750_L_15_R_20.png","5_Ratio_750_L_15_R_20.png","7_Ratio_750_L_3_R_4.png"]],"Rat900":[["1_Ratio_900_L_10_R_9.png","10_Ratio_900_L_20_R_18.png","2_Ratio_900_L_20_R_18.png","4_Ratio_900_L_20_R_18.png","8_Ratio_900_L_20_R_18.png"],["11_Ratio_900_L_18_R_20.png","12_Ratio_900_L_18_R_20.png","13_Ratio_900_L_18_R_20.png","14_Ratio_900_L_18_R_20.png","15_Ratio_900_L_9_R_10.png","3_Ratio_900_L_9_R_10.png","5_Ratio_900_L_9_R_10.png","6_Ratio_900_L_9_R_10.png","7_Ratio_900_L_9_R_10.png","9_Ratio_900_L_18_R_20.png"]],"Rat1000":[["10_Ratio_1000_L_16_R_16.png","11_Ratio_1000_L_6_R_6.png","12_Ratio_1000_L_14_R_14.png","13_Ratio_1000_L_20_R_20.png","15_Ratio_1000_L_15_R_15.png","2_Ratio_1000_L_17_R_17.png","4_Ratio_1000_L_9_R_9.png","5_Ratio_1000_L_6_R_6.png","6_Ratio_1000_L_19_R_19.png","8_Ratio_1000_L_14_R_14.png","9_Ratio_1000_L_25_R_25.png"],["1_Ratio_1000_L_1_R_1.png","14_Ratio_1000_L_17_R_17.png","3_Ratio_1000_L_17_R_17.png","7_Ratio_1000_L_6_R_6.png"]]}},{"start_time":1552328583084,"click_time":1552328584049,"finger_time":1552328583929,"fix_duration":1192.0783260253786,"trial":1,"RT":845,"MT":120,"sideResp":1,"stimulus":"img/500/equaldotanddens/L/5_Ratio_500_L_4_R_2.png","xmouse":[788,788,788,788,788,788,788,788,790,791,792,792,792,792,792,792,792,792,792,792,792,792,792,792,792,792,792,792,792,792,792,792,792,792,792,792,795,797,798,800,800,797,786,768,725,686,594,533,500],"ymouse":[505,505,505,505,505,505,505,505,505,505,505,505,505,505,505,505,505,505,505,505,505,505,505,505,505,505,505,505,505,505,505,505,505,505,505,505,504,502,500,495,489,465,440,402,315,249,113,41,4],"timestamp_mouse":[13,37,45,64,85,106,125,144,166,184,204,224,244,265,285,304,325,344,364,384,404,426,446,465,485,505,524,545,565,585,606,625,645,665,685,705,724,744,765,784,805,824,845,865,885,905,925,945,965],"xSR":733.5,"ySR":461.5,"xT1":420.09999999999997,"yT1":0,"xT2":1046.8999999999999,"yT2":0,"toosoon":0,"cond_shown":"equaldotanddens","ratio_trial":500,"smaller_num":"2","larger_num":"4","correct_side":1,"subjID":"fabiangarcia31","gender":"0","age":"9","school":"4"},{"start_time":1552328585780,"click_time":1552328586929,"finger_time":1552328586628,"fix_duration":250,"trial":2,"RT":848,"MT":301,"sideResp":2,"stimulus":"img/500/randomdotsizeEA/L/8_Ratio_500_L_8_R_4.png","xmouse":[796,796,796,796,796,796,796,796,796,796,796,796,796,796,796,796,796,796,796,796,796,796,796,796,796,796,796,796,796,796,796,796,796,796,796,796,796,796,796,801,810,826,893,931,961,980,1002,1006,1007,1008,1008,1016,1022,1028,1034,1038,1045,1055],"ymouse":[524,524,524,524,524,524,524,524,524,524,524,524,524,524,524,524,524,524,524,524,524,524,524,524,524,524,524,524,524,524,524,524,524,524,524,524,524,524,524,517,502,481,378,321,275,247,213,209,206,203,200,178,165,149,136,126,109,95],"timestamp_mouse":[17,28,49,68,88,110,128,149,168,188,209,230,249,270,288,309,328,348,368,388,409,428,449,468,489,508,529,549,568,590,609,628,648,668,689,709,728,750,768,788,808,828,848,868,888,908,929,949,969,989,1008,1029,1048,1068,1088,1109,1129,1148],"xSR":733.5,"ySR":461.5,"xT1":420.09999999999997,"yT1":0,"xT2":1046.8999999999999,"yT2":0,"toosoon":0,"cond_shown":"randomdotsizeEA","ratio_trial":500,"smaller_num":"4","larger_num":"8","correct_side":1,"subjID":"fabiangarcia31","gender":"0","age":"9","school":"4"},{"start_time":1552328588283,"click_time":1552328590428,"finger_time":1552328589689,"fix_duration":373.11314027642817,"trial":3,"RT":1406,"MT":739,"sideResp":1,"stimulus":"img/500/randomdotsizeEA/L/11_Ratio_500_L_12_R_6.png","xmouse":[797,797,797,797,796,796,798,798,801,805,808,808,808,808,808,808,808,808,808,808,808,808,808,808,808,808,808,808,808,808,808,808,808,808,808,808,808,808,808,808,808,808,808,808,808,808,808,808,808,808,808,808,808,808,808,808,808,808,808,808,808,808,808,808,808,808,808,809,808,800,786,719,691,669,653,644,642,642,642,642,640,637,608,593,579,568,558,547,542,540,537,532,526,523,520,516,513,508,505,503,500,496,493,492,491,490,489,485],"ymouse":[516,516,516,516,516,515,514,514,514,514,514,514,514,514,514,514,514,514,514,514,514,514,514,514,514,514,514,514,514,514,514,514,514,514,514,514,514,514,514,514,514,514,514,514,514,514,514,514,514,514,514,514,514,514,514,514,514,514,514,514,514,514,514,514,514,514,514,514,503,481,450,359,326,308,297,291,289,289,289,289,287,284,254,241,224,211,200,185,179,175,172,167,158,154,147,143,139,132,128,125,121,116,109,108,106,105,102,93],"timestamp_mouse":[13,39,45,65,85,106,125,145,166,186,205,226,245,267,285,305,325,347,366,386,406,426,447,465,486,506,525,546,566,586,607,626,645,665,687,705,726,746,765,785,807,826,846,865,886,905,926,946,965,987,1006,1026,1046,1066,1085,1106,1126,1145,1166,1187,1205,1226,1245,1265,1286,1306,1326,1345,1366,1385,1406,1427,1445,1465,1485,1505,1525,1545,1566,1587,1607,1625,1645,1666,1686,1706,1726,1745,1765,1785,1805,1825,1845,1865,1885,1906,1925,1945,1966,1985,2005,2025,2045,2065,2086,2105,2125,2145],"xSR":733.5,"ySR":461.5,"xT1":420.09999999999997,"yT1":0,"xT2":1046.8999999999999,"yT2":0,"toosoon":0,"cond_shown":"randomdotsizeEA","ratio_trial":500,"smaller_num":"6","larger_num":"12","correct_side":1,"subjID":"fabiangarcia31","gender":"0","age":"9","school":"4"},{"start_time":1552328593777,"click_time":1552328595268,"finger_time":1552328594688,"fix_duration":1026.7278372536823,"trial":4,"RT":911,"MT":580,"sideResp":1,"stimulus":"img/500/equaldotsize/L/11_Ratio_500_L_12_R_6.png","xmouse":[796,796,796,796,796,796,796,796,796,796,796,796,796,796,796,796,796,796,796,796,796,796,796,796,796,796,796,796,796,796,796,796,796,796,796,796,796,796,796,796,796,796,796,794,787,759,723,639,614,599,590,586,578,572,566,562,561,559,557,554,547,542,541,528,523,523,523,523,523,523,523,523,523,521,519],"ymouse":[501,501,501,501,501,501,501,501,501,501,501,501,501,501,501,501,501,501,501,501,501,501,501,501,501,501,501,501,501,501,501,501,501,501,501,501,501,501,501,501,501,500,490,480,466,427,386,312,286,270,260,257,250,244,236,219,209,187,174,159,139,121,103,89,88,87,87,87,87,87,87,87,87,81,76],"timestamp_mouse":[11,36,52,71,91,113,131,152,171,191,212,231,251,273,291,311,331,352,372,392,412,432,452,472,493,511,532,552,573,592,612,631,651,672,692,713,732,751,772,791,811,831,851,871,892,911,931,951,971,991,1011,1032,1052,1073,1091,1112,1131,1152,1171,1191,1212,1231,1251,1272,1292,1311,1332,1352,1372,1391,1412,1432,1452,1473,1491],"xSR":733.5,"ySR":461.5,"xT1":420.09999999999997,"yT1":0,"xT2":1046.8999999999999,"yT2":0,"toosoon":0,"cond_shown":"equaldotsize","ratio_trial":500,"smaller_num":"6","larger_num":"12","correct_side":1,"subjID":"fabiangarcia31","gender":"0","age":"9","school":"4"},{"start_time":1552328597532,"click_time":1552328601769,"finger_time":1552328598248,"fix_duration":1081.1157947569418,"trial":5,"RT":716,"MT":3521,"sideResp":2,"stimulus":"img/900/equaldotsize/L/1_Ratio_900_L_10_R_9.png","xmouse":[810,810,810,810,810,810,810,810,810,810,810,810,810,810,810,810,810,810,810,810,810,810,810,810,810,810,810,810,810,810,810,810,810,810,815,849,884,915,943,959,954,949,948,948,949,952,956,959,962,965,967,969,975,989,1000,1010,1010,1011,1012,1012,1012,1012,1012,1012,1012,1012,1012,1012,1012,1012,1012,1012,1012,1012,1012,1012,1012,1012,1012,1013,1015,1015,1016,1016,1016,1016,1016,1017,1017,1017,1017,1017,1017,1018,1019,1021,1021,1023,1023,1023,1024,1024,1025,1025,1027,1027,1028,1028,1028,1028,1030,1030,1031,1031,1031,1036,1037,1038,1039,1040,1042,1042,1043,1043,1043,1043,1043,1043,1043,1043,1043,1043,1043,1043,1043,1043,1043,1043,1043,1043,1043,1043,1043,1043,1043,1043,1043,1043,1043,1043,1043,1043,1043,1043,1043,1043,1043,1043,1043,1043,1043,1043,1043,1043,1043,1043,1043,1043,1043,1043,1043,1043,1043,1043,1043,1043,1043,1043,1043,1043,1043,1043,1043,1043,1043,1043,1043,1043,1043,1043,1043,1043,1043,1043,1043,1043,1043,1043,1043,1043,1043,1043,1043,1043,1043,1043,1043,1043,1043,1043,1043,1058],"ymouse":[523,523,523,523,523,523,523,523,523,523,523,523,523,523,523,523,523,523,523,523,523,523,523,523,523,523,523,523,523,523,523,523,523,523,516,476,438,400,350,252,221,203,193,189,186,181,175,166,158,151,148,146,139,126,116,106,105,104,102,102,102,102,102,102,102,102,102,102,102,102,102,102,102,102,102,102,102,102,97,93,84,83,80,80,80,79,78,76,73,69,67,66,65,62,59,52,50,49,48,48,47,45,44,42,41,39,38,38,36,35,34,32,31,30,28,19,16,14,12,10,7,7,5,5,5,5,5,5,5,5,5,5,5,5,5,5,5,5,5,5,5,5,5,5,5,5,5,5,5,5,5,5,5,5,2,1,1,1,1,1,1,0,0,0,0,0,0,0,0,0,0,0,0,0,0,0,0,0,0,0,0,0,0,0,0,0,0,0,0,0,0,0,0,0,0,0,0,0,0,0,0,0,0,0,0,0,0,0,0,0,0,7],"timestamp_mouse":[16,36,56,76,96,117,137,158,177,196,216,237,256,276,296,316,336,356,377,397,417,436,457,476,498,516,537,558,577,597,617,636,656,678,697,716,737,756,776,798,817,836,856,877,897,916,936,956,976,998,1016,1036,1056,1076,1096,1116,1136,1156,1177,1197,1216,1236,1256,1278,1297,1316,1336,1357,1377,1396,1417,1438,1456,1477,1498,1516,1537,1556,1578,1597,1617,1636,1657,1677,1697,1716,1737,1757,1776,1797,1816,1836,1856,1877,1896,1916,1937,1958,1977,1997,2016,2036,2056,2077,2096,2117,2136,2157,2176,2196,2216,2237,2257,2277,2297,2318,2336,2356,2376,2396,2416,2437,2457,2477,2496,2517,2538,2557,2577,2597,2616,2637,2658,2678,2697,2716,2737,2757,2777,2796,2817,2837,2857,2876,2898,2916,2937,2957,2977,2997,3017,3037,3057,3077,3096,3117,3137,3156,3178,3197,3216,3237,3256,3276,3296,3316,3336,3356,3377,3398,3416,3437,3456,3477,3496,3517,3536,3558,3576,3597,3616,3638,3657,3676,3697,3717,3737,3757,3778,3797,3816,3837,3857,3876,3897,3916,3937,3957,3977,3998,4017,4038,4058,4076,4096,4116,4137,4157,4177,4196,4216,4236],"xSR":733.5,"ySR":461.5,"xT1":420.09999999999997,"yT1":0,"xT2":1046.8999999999999,"yT2":0,"toosoon":0,"cond_shown":"equaldotsize","ratio_trial":900,"smaller_num":"9","larger_num":"10","correct_side":1,"subjID":"fabiangarcia31","gender":"0","age":"9","school":"4"},{"start_time":1552328603325,"click_time":1552328604649,"finger_time":1552328604188,"fix_duration":273.2972901620329,"trial":6,"RT":863,"MT":461,"sideResp":1,"stimulus":"img/250/equaldotsize/L/3_Ratio_250_L_8_R_2.png","xmouse":[768,768,768,768,770,773,775,776,776,776,776,777,782,788,792,793,795,795,796,797,799,799,799,799,799,799,799,799,799,799,799,799,799,799,799,799,799,799,799,799,799,799,777,736,693,657,582,547,526,512,505,498,492,488,486,485,485,488,492,495,497,498,501,505,506,506,506],"ymouse":[507,507,507,507,507,507,507,507,507,507,507,507,507,506,506,505,505,505,505,505,505,505,505,505,505,505,505,505,505,505,505,505,505,505,505,505,505,505,505,505,505,505,483,445,407,371,301,272,252,239,230,212,197,189,183,179,175,171,166,161,157,151,136,117,108,103,98],"timestamp_mouse":[13,40,44,63,84,104,123,144,165,184,204,223,243,263,285,305,323,344,363,383,403,423,443,463,484,504,523,544,563,584,604,623,645,663,684,703,723,743,763,785,804,823,843,863,883,903,924,943,963,983,1005,1023,1043,1063,1083,1103,1123,1143,1163,1183,1203,1224,1245,1263,1283,1303,1324],"xSR":733.5,"ySR":461.5,"xT1":420.09999999999997,"yT1":0,"xT2":1046.8999999999999,"yT2":0,"toosoon":0,"cond_shown":"equaldotsize","ratio_trial":250,"smaller_num":"2","larger_num":"8","correct_side":1,"subjID":"fabiangarcia31","gender":"0","age":"9","school":"4"},{"start_time":1552328605981,"click_time":1552328609250,"finger_time":1552328608229,"fix_duration":250,"trial":7,"RT":2248,"MT":1021,"sideResp":1,"stimulus":"img/250/randomdotsizeEA/L/1_Ratio_250_L_8_R_2.png","xmouse":[828,828,828,828,828,828,828,828,828,828,828,828,828,828,828,828,828,828,828,828,828,828,828,828,828,828,828,828,828,828,828,828,828,828,828,828,828,828,828,828,828,828,828,828,828,828,828,828,828,828,828,828,828,828,828,828,828,828,828,828,828,828,828,828,828,828,828,828,828,828,828,828,828,828,828,828,828,828,828,828,828,828,828,828,828,828,828,828,828,828,828,828,828,828,828,828,828,828,828,828,828,828,828,828,828,828,828,828,828,828,827,830,837,843,846,847,847,847,847,847,849,852,857,866,888,898,912,933,988,1043,1048,1044,1029,1014,1014,1014,1014,1014,1014,1014,1014,1014,1014,1014,1014,1014,1014,1014,1014,1014,1014,1014,1014,1014,1014,1014,1014,1014,1014,1014,1014,605,552,441],"ymouse":[507,507,507,507,507,507,507,507,507,507,507,507,507,507,507,507,507,507,507,507,507,507,507,507,507,507,507,507,507,507,507,507,507,507,507,507,507,507,507,507,507,507,507,507,507,507,507,507,507,507,507,507,507,507,507,507,507,507,507,507,507,507,507,507,507,507,507,507,507,507,507,507,507,507,507,507,507,507,507,507,507,507,507,507,507,507,507,507,507,507,507,507,507,507,507,507,507,507,507,507,507,507,507,507,507,507,507,507,507,507,507,496,479,460,438,433,432,432,432,432,427,417,406,391,361,346,333,322,288,194,143,97,48,1,1,1,1,1,1,1,1,1,1,1,1,1,1,1,1,1,1,1,1,1,1,1,1,1,1,1,1,2,7,23],"timestamp_mouse":[20,40,48,67,87,107,127,147,168,188,208,228,248,268,288,307,327,349,367,388,408,429,449,467,489,507,527,548,567,588,608,629,649,668,687,708,729,748,767,788,807,829,847,868,887,909,928,949,968,988,1008,1028,1048,1068,1089,1108,1128,1147,1167,1188,1207,1228,1248,1267,1288,1308,1327,1349,1368,1388,1408,1428,1448,1468,1487,1508,1528,1547,1567,1588,1607,1627,1649,1669,1689,1708,1728,1747,1769,1788,1807,1828,1849,1867,1888,1908,1927,1949,1968,1988,2008,2029,2048,2068,2088,2108,2128,2148,2168,2187,2207,2227,2248,2268,2287,2307,2329,2347,2368,2388,2407,2427,2448,2467,2487,2508,2528,2547,2567,2587,2607,2628,2647,2668,2687,2707,2727,2748,2767,2787,2808,2827,2848,2868,2887,2907,2929,2948,2968,2987,3008,3027,3048,3067,3087,3108,3127,3147,3168,3188,3208,3228,3249,3268],"xSR":733.5,"ySR":461.5,"xT1":420.09999999999997,"yT1":0,"xT2":1046.8999999999999,"yT2":0,"toosoon":0,"cond_shown":"randomdotsizeEA","ratio_trial":250,"smaller_num":"2","larger_num":"8","correct_side":1,"subjID":"fabiangarcia31","gender":"0","age":"9","school":"4"},{"start_time":1552328611753,"click_time":1552328613329,"finger_time":1552328612649,"fix_duration":1203.6287678547337,"trial":8,"RT":896,"MT":680,"sideResp":1,"stimulus":"img/250/equaldotsize/L/5_Ratio_250_L_24_R_6.png","xmouse":[747,747,747,747,747,747,747,747,747,747,747,747,747,747,747,747,747,747,747,747,747,747,747,747,747,747,747,747,747,747,747,747,747,747,747,747,747,747,747,747,747,747,747,747,745,657,569,569,569,569,569,569,569,569,569,569,569,569,569,112,148,174,202,232,256,272,287,288,288,293,310,322,332,339,345,361,390,412,424],"ymouse":[509,509,509,509,509,509,509,509,509,509,509,509,509,509,509,509,509,509,509,509,509,509,509,509,509,509,509,509,509,509,509,509,509,509,509,509,509,509,509,509,509,509,491,469,390,148,1,1,1,1,1,1,1,1,1,1,1,1,1,16,47,61,73,87,99,107,113,113,113,110,97,89,85,82,80,78,83,93,97],"timestamp_mouse":[15,39,56,76,96,117,135,156,175,196,215,236,255,276,295,315,335,355,375,396,415,436,456,476,496,515,537,557,576,597,615,636,655,675,696,715,736,757,776,795,816,837,856,875,896,917,936,956,976,995,1015,1035,1055,1075,1096,1116,1137,1157,1176,1196,1216,1237,1256,1276,1296,1315,1335,1355,1375,1395,1415,1435,1455,1475,1495,1515,1537,1556,1576],"xSR":733.5,"ySR":461.5,"xT1":420.09999999999997,"yT1":0,"xT2":1046.8999999999999,"yT2":0,"toosoon":0,"cond_shown":"equaldotsize","ratio_trial":250,"smaller_num":"6","larger_num":"24","correct_side":1,"subjID":"fabiangarcia31","gender":"0","age":"9","school":"4"},{"start_time":1552328619349,"click_time":1552328621849,"finger_time":1552328620369,"fix_duration":1358.097838652665,"trial":9,"RT":1020,"MT":1480,"sideResp":1,"stimulus":"img/750/equaldotsize/L/13_Ratio_750_L_8_R_6.png","xmouse":[813,813,813,813,813,813,813,813,813,813,807,805,803,802,802,802,802,802,802,802,802,802,802,802,802,802,802,802,802,802,802,802,802,802,802,802,802,802,802,802,802,802,802,802,802,802,803,804,804,804,804,804,801,791,788,779,770,750,738,738,721,687,565,489,407,300,243,206,201,199,197,195,190,190,190,193,197,214,223,230,236,241,246,248,249,251,253,259,264,269,277,283,291,292,294,294,295,300,306,312,319,324,332,339,341,343,344,344,344,348,352,358,372,377,380,381,382,382,382,382,382,384,386,392,403,421],"ymouse":[508,508,508,508,508,508,508,508,508,508,509,510,511,511,511,511,511,511,511,511,511,511,511,511,511,511,511,511,511,511,511,511,511,511,511,511,511,511,511,511,511,511,511,511,507,504,500,492,486,478,468,458,448,426,418,397,382,358,349,349,342,326,281,259,244,232,224,210,204,201,198,194,180,164,155,148,143,128,120,112,107,102,96,96,95,94,92,88,85,82,76,71,64,63,62,62,62,59,56,53,51,48,45,43,43,42,41,41,41,40,39,38,38,38,38,38,38,38,38,38,38,38,37,36,36,36],"timestamp_mouse":[1,20,40,59,80,99,119,140,161,180,199,219,239,261,280,299,320,339,359,380,400,419,439,460,479,500,520,541,560,580,600,619,641,660,679,700,720,739,759,779,800,820,839,861,879,899,919,940,959,979,999,1020,1039,1059,1081,1100,1119,1140,1161,1180,1200,1219,1239,1261,1280,1301,1320,1339,1359,1379,1399,1419,1439,1459,1479,1500,1519,1540,1559,1579,1599,1619,1639,1660,1680,1699,1720,1739,1759,1779,1799,1820,1840,1859,1880,1899,1919,1940,1959,1979,1999,2020,2039,2060,2079,2100,2120,2140,2159,2180,2199,2220,2240,2260,2280,2300,2320,2340,2360,2380,2399,2419,2440,2459,2479,2500],"xSR":733.5,"ySR":461.5,"xT1":420.09999999999997,"yT1":0,"xT2":1046.8999999999999,"yT2":0,"toosoon":0,"cond_shown":"equaldotsize","ratio_trial":750,"smaller_num":"6","larger_num":"8","correct_side":1,"subjID":"fabiangarcia31","gender":"0","age":"9","school":"4"},{"start_time":1552328623601,"click_time":1552328625570,"finger_time":1552328624490,"fix_duration":290.40242763802524,"trial":10,"RT":889,"MT":1080,"sideResp":2,"stimulus":"img/900/equaldotsize/R/12_Ratio_900_L_18_R_20.png","xmouse":[754,754,754,754,754,754,754,754,754,754,754,754,754,754,754,754,754,754,754,754,754,754,754,754,754,754,754,754,754,754,754,754,754,754,754,754,754,754,756,757,769,777,789,804,838,857,881,901,909,927,935,940,946,949,950,954,958,963,973,985,997,1001,1005,1010,1020,1045,1052,1064,1075,1083,1087,1091,1095,1097,1099,1101,1101,1101,1101,1101,1101,1102,1102,1102,1102,1102,1102,1102,1102,1102,1102,1102,1102,1102,1102,1102,1102,1102,1103],"ymouse":[507,507,507,507,507,507,507,507,507,507,507,507,507,508,508,508,508,508,508,508,508,508,508,508,508,508,508,508,508,508,508,508,508,508,508,508,508,508,508,508,506,505,502,489,455,429,394,364,344,300,281,261,238,221,214,203,194,180,164,141,129,127,125,124,121,118,117,117,117,117,117,117,113,111,110,108,108,108,108,108,107,105,103,102,102,102,102,102,102,102,102,102,102,102,102,102,102,102,98],"timestamp_mouse":[13,39,48,68,88,108,129,148,168,187,209,228,247,267,287,307,327,348,368,387,408,428,448,468,489,509,528,549,569,588,608,629,648,668,688,708,729,747,767,787,809,828,848,869,889,908,928,948,967,989,1008,1028,1048,1067,1088,1107,1129,1148,1169,1189,1208,1227,1247,1267,1287,1307,1328,1348,1368,1388,1408,1428,1447,1467,1487,1509,1528,1549,1568,1587,1607,1628,1649,1668,1689,1709,1729,1749,1767,1788,1808,1828,1848,1869,1889,1908,1927,1947,1969],"xSR":733.5,"ySR":461.5,"xT1":420.09999999999997,"yT1":0,"xT2":1046.8999999999999,"yT2":0,"toosoon":0,"cond_shown":"equaldotsize","ratio_trial":900,"smaller_num":"18","larger_num":"20","correct_side":2,"subjID":"fabiangarcia31","gender":"0","age":"9","school":"4"},{"start_time":1552328628257,"click_time":1552328629589,"finger_time":1552328629070,"fix_duration":1286.5156628004345,"trial":11,"RT":813,"MT":519,"sideResp":2,"stimulus":"img/900/equaldotsize/L/1_Ratio_900_L_10_R_9.png","xmouse":[791,791,791,791,791,791,791,791,791,791,791,791,791,791,791,791,791,791,791,791,791,791,791,791,791,791,791,791,791,791,791,791,791,791,791,791,791,791,799,813,830,849,865,901,916,928,938,948,951,953,957,959,966,969,975,979,984,995,1002,1006,1011,1015,1036,1055,1064,1089,1099],"ymouse":[491,491,491,491,491,491,491,491,491,491,491,491,491,491,491,491,491,491,491,491,491,491,491,491,491,491,491,491,491,491,491,491,491,491,491,491,491,491,484,470,453,435,421,390,377,366,356,339,330,319,305,289,263,248,227,216,204,184,177,172,168,165,148,129,122,101,95],"timestamp_mouse":[20,45,51,72,93,112,132,153,171,192,212,231,251,271,292,312,332,351,373,392,411,432,453,472,493,512,532,551,573,592,613,632,651,672,692,711,732,752,772,792,813,832,852,872,892,912,932,952,972,992,1012,1032,1052,1072,1092,1112,1132,1151,1172,1191,1212,1232,1252,1273,1293,1313,1332],"xSR":733.5,"ySR":461.5,"xT1":420.09999999999997,"yT1":0,"xT2":1046.8999999999999,"yT2":0,"toosoon":0,"cond_shown":"equaldotsize","ratio_trial":900,"smaller_num":"9","larger_num":"10","correct_side":1,"subjID":"fabiangarcia31","gender":"0","age":"9","school":"4"},{"start_time":1552328631755,"click_time":1552328633010,"finger_time":1552328632549,"fix_duration":1145.6693105359507,"trial":12,"RT":794,"MT":461,"sideResp":1,"stimulus":"img/500/equaldotanddens/L/13_Ratio_500_L_12_R_6.png","xmouse":[774,774,774,774,774,774,774,774,774,774,774,774,774,774,774,774,774,774,774,774,774,774,774,774,774,774,774,774,774,774,774,774,774,774,774,774,774,774,739,669,569,477,348,320,307,304,304,304,304,307,309,311,323,331,344,357,373,379,396,402,411,419,431],"ymouse":[530,530,530,530,530,530,530,530,530,530,530,530,530,530,530,530,530,530,530,530,530,530,530,530,530,530,530,530,530,530,530,530,530,530,530,530,530,525,481,410,318,256,198,188,183,182,182,182,182,182,183,183,180,174,166,158,147,143,129,124,114,104,89],"timestamp_mouse":[15,35,55,75,94,115,134,154,175,195,213,235,253,273,295,315,334,354,373,394,414,434,454,474,494,514,534,554,574,594,614,635,654,674,695,714,734,754,773,794,815,834,855,873,893,915,934,954,974,993,1014,1034,1054,1074,1093,1114,1135,1154,1174,1194,1213,1233,1255],"xSR":733.5,"ySR":461.5,"xT1":420.09999999999997,"yT1":0,"xT2":1046.8999999999999,"yT2":0,"toosoon":0,"cond_shown":"equaldotanddens","ratio_trial":500,"smaller_num":"6","larger_num":"12","correct_side":1,"subjID":"fabiangarcia31","gender":"0","age":"9","school":"4"},{"start_time":1552328634720,"click_time":1552328638830,"finger_time":1552328636050,"fix_duration":250,"trial":13,"RT":1330,"MT":2780,"sideResp":1,"stimulus":"img/900/randomdotsizeEA/L/1_Ratio_900_L_10_R_9.png","xmouse":[794,794,794,794,794,794,794,794,794,794,794,794,794,794,794,794,794,794,794,794,794,794,794,794,794,794,794,794,794,794,794,794,794,794,794,794,794,794,794,794,794,794,794,794,794,794,794,794,794,794,794,794,794,794,794,794,794,795,800,805,808,809,809,809,809,831,850,874,892,910,944,960,980,999,1013,1032,1036,1039,1042,1042,1044,1044,1042,1036,1029,1026,1024,1024,1023,1023,1023,1023,1023,1023,1023,1023,1023,1023,1023,1023,1023,1023,1023,1023,1023,1023,1023,1023,1023,1023,1023,1023,1023,1023,1023,1023,1023,1023,1023,1023,1023,1023,1023,1023,1024,1032,1036,1039,1041,1041,1041,1041,1041,1041,1042,1044,1044,1044,1040,1039,1037,1037,1036,1036,1036,1036,1036,1036,1036,1036,1036,1036,1036,1036,1036,1034,1025,1025,1025,1025,1025,1025,1025,1025,1025,1025,1025,1025,1025,1025,1025,1025,1025,1025,1025,1025,1025,1025,1025,1025,1025,1025,1025,1025,1025,1025,1025,1025,1025,1025,1025,1025,1025,1025,1025,1025,1025,1025,1025,1025,1025,1025,1025,1025,1025,475],"ymouse":[529,529,529,529,529,529,529,529,529,529,529,529,529,529,529,529,529,529,529,529,529,529,529,529,529,529,529,529,529,529,529,529,529,529,529,529,529,529,529,529,529,529,529,529,529,529,529,529,529,529,529,529,529,529,529,529,529,528,511,494,486,486,486,486,485,466,447,418,397,375,335,320,306,294,286,271,265,260,251,245,233,227,214,194,167,145,136,136,136,136,136,136,136,136,136,136,136,136,136,136,136,136,136,136,136,136,136,136,136,136,136,136,136,136,136,136,136,136,136,136,136,136,136,136,128,104,90,79,73,73,73,73,73,72,70,52,42,32,19,13,9,8,8,8,8,8,8,8,8,8,8,8,7,7,7,7,1,1,1,1,1,1,1,1,1,1,1,1,1,1,1,1,1,1,1,1,1,1,1,1,1,1,1,1,1,1,1,1,1,1,1,1,1,1,1,1,1,1,1,1,1,1,1,1,1,1],"timestamp_mouse":[13,38,48,69,90,110,128,149,170,189,209,230,248,270,288,310,329,349,369,389,408,429,449,469,490,509,529,550,570,589,609,629,649,668,690,710,729,750,770,790,810,828,850,868,889,909,928,948,970,989,1009,1029,1050,1069,1090,1109,1129,1149,1170,1189,1210,1230,1249,1270,1289,1309,1329,1348,1369,1389,1409,1429,1448,1469,1490,1509,1529,1548,1568,1589,1608,1629,1649,1669,1689,1709,1728,1749,1769,1790,1809,1829,1850,1869,1890,1909,1929,1948,1969,1990,2009,2030,2050,2068,2090,2109,2129,2150,2169,2190,2209,2230,2248,2269,2294,2309,2329,2349,2368,2389,2409,2429,2449,2468,2489,2508,2530,2549,2570,2589,2609,2629,2649,2668,2689,2708,2730,2750,2770,2789,2809,2829,2849,2868,2888,2908,2928,2950,2970,2991,3009,3028,3050,3070,3089,3108,3129,3148,3169,3188,3209,3229,3250,3269,3289,3309,3330,3349,3368,3388,3409,3428,3449,3469,3489,3509,3530,3550,3568,3589,3609,3629,3649,3669,3690,3710,3730,3748,3769,3788,3809,3828,3848,3868,3888,3909,3929,3950,3969,3989,4009,4029,4050,4069,4089,4109],"xSR":733.5,"ySR":461.5,"xT1":420.09999999999997,"yT1":0,"xT2":1046.8999999999999,"yT2":0,"toosoon":0,"cond_shown":"randomdotsizeEA","ratio_trial":900,"smaller_num":"9","larger_num":"10","correct_side":1,"subjID":"fabiangarcia31","gender":"0","age":"9","school":"4"},{"start_time":1552328642300,"click_time":1552328651870,"finger_time":1552328643569,"fix_duration":1469.2982199805722,"trial":14,"RT":1269,"MT":8301,"sideResp":1,"stimulus":"img/500/equaldotsize/L/8_Ratio_500_L_8_R_4.png","xmouse":[787,787,787,787,787,787,787,787,787,787,787,787,787,787,787,787,787,787,787,787,787,787,787,787,787,787,787,786,786,786,786,786,786,786,786,786,786,786,786,786,786,785,785,784,784,784,784,784,783,782,782,782,782,782,782,782,782,782,782,782,782,780,771,761,748,737,727,719,716,713,710,704,698,698,698,698,698,698,698,698,698,697,669,602,514,378,378,378,378,378,378,378,378,378,378,378,378,378,378,378,378,378,378,378,378,378,378,378,378,378,378,378,378,378,378,378,378,378,378,378,378,378,378,378,378,378,378,378,243,234,214,202,202,202,202,202,202,202,202,202,202,202,202,202,202,202,202,202,202,202,203,206,228,236,237,237,237,237,237,237,237,237,237,237,237,237,237,237,237,237,237,237,237,237,237,237,237,237,237,237,237,238,250,267,315,359,424,611,716,803,858,880,889,890,892,900,914,956,976,995,1009,1023,1039,1041,1041,1038,1024,950,918,900,897,896,890,890,890,890,894,902,909,913,920,927,940,941,941,941,941,941,944,951,959,964,965,965,965,965,963,962,962,962,962,962,962,962,960,960,954,954,954,954,954,954,954,954,954,954,954,954,954,954,954,954,954,954,954,951,959,987,994,995,995,995,995,995,995,995,995,995,995,995,995,995,995,995,995,995,995,995,995,995,995,995,995,993,973,944,909,828,804,789,771,741,696,630,615,615,615,615,615,612,611,611,611,611,611,611,611,611,616,622,630,634,639,640,641,644,653,674,687,700,708,717,787,811,811,811,811,811,811,811,811,811,811,811,811,811,811,811,811,811,811,811,811,811,811,811,811,811,811,811,811,811,811,784,763,749,736,725,722,718,703,703,703,703,703,703,703,703,703,703,703,703,703,751,790,834,869,869,869,869,869,869,869,917,927,935,938,941,943,946,948,950,951,951,951,951,951,951,938,910,910,910,910,910,910,910,910,910,910,910,910,713,663,638,637,637,637,628,615,606,605,605,610,621,637,668,729,870,928,962,984,1002,1027,1057,1057,1057,1057,1057,1057,1057,1057,1057,1057,1057,1057,1057,1057,1057,1057,1057,1057,1057,1057,1057,1057,1057,1057,1057,1057,1057,1057,1057,1057,1057,1057,1057,1057,1057,513],"ymouse":[507,507,507,507,507,507,507,507,507,507,507,507,507,507,507,507,507,507,507,507,507,507,507,507,507,507,507,507,507,507,507,507,507,507,507,507,507,507,507,507,507,507,507,507,507,507,507,507,507,507,507,507,507,507,507,507,507,507,507,507,507,503,477,432,390,352,317,287,278,273,266,258,253,253,253,253,253,253,253,253,253,252,227,170,100,4,4,4,4,4,4,4,4,4,4,4,4,4,4,4,4,4,4,4,4,4,4,4,4,4,4,4,4,4,4,4,4,4,4,4,4,4,4,4,4,4,4,4,29,61,122,167,169,169,169,169,169,169,169,169,169,169,169,169,169,169,169,169,169,169,169,170,190,197,198,198,198,198,198,198,198,198,198,198,198,198,198,198,198,198,198,198,198,198,198,198,198,198,198,198,198,198,202,217,294,343,387,461,486,499,503,503,500,499,497,491,482,455,441,427,415,403,385,373,363,344,312,234,199,172,159,151,137,137,137,136,137,141,143,146,148,151,156,156,156,156,156,156,154,147,136,128,119,117,115,114,113,113,113,113,113,113,113,113,96,53,7,7,7,7,7,7,7,7,7,7,7,7,7,7,7,7,7,7,7,1,15,48,54,54,54,54,54,54,54,54,54,54,54,54,54,54,54,54,54,54,54,54,54,54,54,54,54,54,57,61,61,65,69,71,75,79,80,78,78,78,78,78,78,80,81,81,81,81,81,81,81,81,84,85,88,89,90,90,90,90,89,81,77,73,70,65,18,5,5,5,5,5,5,5,5,5,5,5,5,5,5,5,5,5,5,5,5,5,5,5,5,5,5,5,5,5,5,12,21,32,36,38,40,48,61,61,61,61,61,61,61,61,61,61,61,61,61,43,32,19,3,3,3,3,3,3,3,1,6,9,9,11,11,12,14,14,15,15,15,15,15,15,12,4,4,4,4,4,4,4,4,4,4,4,4,4,32,44,44,44,44,50,59,66,66,67,70,71,72,72,71,51,39,29,21,14,8,0,0,0,0,0,0,0,0,0,0,0,0,0,0,0,0,0,0,0,0,0,0,0,0,0,0,0,0,0,0,0,0,0,0,0,1],"timestamp_mouse":[12,37,48,68,89,109,129,150,170,188,208,230,248,269,289,310,330,348,368,390,410,430,449,468,490,510,529,549,570,590,608,630,649,670,690,710,729,750,769,790,808,829,849,869,889,909,930,949,969,990,1009,1029,1050,1070,1089,1110,1130,1150,1168,1190,1209,1229,1248,1269,1289,1308,1329,1349,1369,1390,1409,1429,1449,1468,1489,1510,1530,1550,1570,1590,1608,1628,1649,1668,1689,1709,1730,1750,1769,1790,1809,1829,1849,1870,1889,1909,1929,1949,1968,1989,2010,2029,2050,2068,2088,2109,2130,2148,2169,2188,2209,2230,2249,2269,2289,2310,2329,2350,2369,2390,2410,2429,2476,2476,2490,2510,2529,2549,2570,2589,2608,2630,2649,2669,2689,2709,2729,2748,2770,2789,2810,2829,2850,2870,2888,2908,2928,2948,2969,2989,3010,3030,3049,3069,3088,3110,3130,3149,3169,3189,3209,3228,3248,3269,3288,3309,3329,3348,3370,3389,3410,3430,3449,3468,3489,3509,3530,3549,3568,3590,3609,3629,3649,3670,3689,3709,3729,3750,3768,3788,3809,3829,3848,3869,3890,3909,3929,3949,3969,3989,4008,4030,4049,4069,4089,4109,4129,4149,4169,4188,4208,4229,4249,4270,4288,4310,4329,4349,4368,4388,4408,4429,4448,4470,4490,4510,4528,4548,4568,4589,4609,4630,4649,4669,4689,4709,4728,4748,4768,4789,4809,4830,4849,4869,4888,4909,4928,4949,4968,4988,5010,5030,5049,5070,5090,5110,5130,5149,5170,5190,5210,5229,5250,5269,5289,5308,5330,5349,5368,5390,5409,5429,5450,5469,5490,5509,5530,5548,5569,5588,5610,5629,5650,5669,5689,5710,5730,5749,5768,5788,5808,5828,5849,5870,5889,5910,5930,5949,5969,5989,6010,6030,6049,6070,6089,6110,6130,6149,6168,6190,6209,6229,6250,6269,6289,6308,6329,6349,6368,6390,6409,6429,6448,6469,6490,6509,6528,6549,6569,6589,6609,6629,6650,6668,6689,6708,6729,6749,6768,6788,6809,6829,6849,6870,6889,6909,6929,6949,6969,6989,7009,7029,7049,7068,7088,7109,7129,7150,7169,7190,7209,7229,7249,7270,7288,7309,7330,7350,7369,7390,7408,7428,7449,7469,7489,7509,7530,7549,7569,7589,7609,7630,7649,7669,7689,7709,7729,7749,7768,7789,7808,7830,7849,7870,7889,7910,7929,7950,7969,7989,8009,8028,8049,8070,8090,8109,8129,8149,8168,8189,8209,8230,8249,8270,8289,8310,8328,8350,8368,8389,8409,8429,8449,8468,8488,8509,8529,8550,8569,8589,8609,8628,8648,8668,8688,8710,8729,8751,8769,8789,8808,8829,8849,8869,8889,8910,8929,8950,8969,8989,9009,9030,9049,9069,9089,9110,9129,9149,9170,9189,9210,9229,9250,9269,9289,9310,9329,9350,9370,9389,9410,9429,9448,9469,9488,9508,9530,9549,9570],"xSR":733.5,"ySR":461.5,"xT1":420.09999999999997,"yT1":0,"xT2":1046.8999999999999,"yT2":0,"toosoon":0,"cond_shown":"equaldotsize","ratio_trial":500,"smaller_num":"4","larger_num":"8","correct_side":1,"subjID":"fabiangarcia31","gender":"0","age":"9","school":"4"},{"start_time":1552328657196,"click_time":1552328658670,"finger_time":1552328658229,"fix_duration":1084.310940343865,"trial":15,"RT":1033,"MT":441,"sideResp":2,"stimulus":"img/900/randomdotsizeEA/R/15_Ratio_900_L_9_R_10.png","xmouse":[769,769,769,769,769,769,769,769,769,769,769,769,769,769,769,769,769,769,769,769,769,769,769,769,768,768,768,768,768,768,768,768,768,768,768,768,768,768,768,768,768,768,768,768,768,768,768,769,771,775,789,824,859,912,927,935,944,951,962,964,966,968,971,976,991,997,1003,1006,1008,1013,1024,1036,1044,1047],"ymouse":[512,512,512,512,512,512,512,512,512,512,512,512,512,512,512,512,512,512,512,512,512,512,512,512,512,512,512,512,512,512,512,512,512,512,512,512,512,512,512,512,512,512,512,512,512,512,512,512,512,511,494,456,423,362,334,314,296,279,252,245,240,233,225,216,183,167,153,146,143,138,124,106,94,91],"timestamp_mouse":[12,35,54,72,93,113,134,154,173,192,213,234,254,273,294,313,334,352,372,393,414,434,452,473,494,513,533,553,573,594,613,633,653,672,693,714,733,754,774,794,814,834,853,874,893,914,932,953,973,993,1013,1033,1052,1073,1092,1113,1133,1153,1174,1193,1212,1233,1253,1273,1294,1312,1332,1353,1374,1392,1412,1433,1454,1474],"xSR":733.5,"ySR":461.5,"xT1":420.09999999999997,"yT1":0,"xT2":1046.8999999999999,"yT2":0,"toosoon":0,"cond_shown":"randomdotsizeEA","ratio_trial":900,"smaller_num":"9","larger_num":"10","correct_side":2,"subjID":"fabiangarcia31","gender":"0","age":"9","school":"4"},{"start_time":1552328663925,"click_time":1552328666230,"finger_time":1552328665170,"fix_duration":813.1149136241963,"trial":16,"RT":1245,"MT":1060,"sideResp":2,"stimulus":"img/500/randomdotsizeEA/R/2_Ratio_500_L_3_R_6.png","xmouse":[805,805,805,803,799,797,796,795,795,794,794,794,794,794,794,794,794,794,794,794,794,794,794,794,794,794,794,794,794,794,794,794,794,794,794,794,794,794,794,794,794,794,794,794,794,794,794,794,794,794,794,794,794,794,794,794,794,794,794,794,793,791,783,766,732,725,714,704,690,669,667,666,666,666,666,666,666,666,666,666,666,666,666,666,666,666,666,666,668,669,671,681,708,781,876,935,954,963,985,1017,1061,1108,1152,1188,1200,1206,1209,1210,1210,1210,1210,1210,1210,1187,1159,1137],"ymouse":[539,539,539,538,536,535,535,535,534,534,534,534,534,534,534,534,534,534,534,534,534,534,534,534,533,533,533,533,533,533,533,533,533,533,533,533,533,533,533,533,533,533,533,533,533,533,533,533,533,533,533,533,532,532,532,532,532,532,532,531,529,519,449,367,242,220,201,182,156,121,114,113,113,113,113,113,113,113,113,113,113,113,113,113,113,113,114,114,114,114,114,117,126,146,175,190,192,192,184,170,155,142,128,113,103,95,90,86,86,86,86,86,85,79,70,67],"timestamp_mouse":[4,37,45,64,84,103,125,144,164,184,204,225,243,264,285,303,324,345,364,385,405,424,445,463,485,503,523,544,564,583,603,624,645,664,683,705,725,743,764,784,805,825,845,863,884,903,924,944,963,985,1004,1024,1045,1064,1085,1105,1125,1144,1163,1185,1205,1224,1245,1264,1285,1304,1324,1345,1364,1384,1404,1425,1443,1464,1485,1504,1523,1543,1564,1585,1604,1624,1645,1665,1684,1703,1723,1745,1764,1783,1804,1824,1844,1864,1885,1904,1924,1944,1964,1983,2005,2024,2045,2065,2084,2105,2123,2143,2164,2184,2204,2223,2245,2265,2285,2305],"xSR":733.5,"ySR":461.5,"xT1":420.09999999999997,"yT1":0,"xT2":1046.8999999999999,"yT2":0,"toosoon":0,"cond_shown":"randomdotsizeEA","ratio_trial":500,"smaller_num":"3","larger_num":"6","correct_side":2,"subjID":"fabiangarcia31","gender":"0","age":"9","school":"4"},{"start_time":1552328669351,"click_time":1552328673049,"finger_time":1552328672569,"fix_duration":378.9824520649172,"trial":17,"RT":3218,"MT":480,"sideResp":2,"stimulus":"img/250/equaldotsize/R/13_Ratio_250_L_2_R_8.png","xmouse":[781,781,781,782,782,782,782,782,782,782,782,782,782,781,780,780,780,780,779,779,779,779,779,781,784,786,787,790,791,791,792,792,792,792,792,792,792,792,792,792,792,792,792,792,792,792,792,787,784,784,783,783,783,783,783,783,783,783,783,783,783,783,783,783,783,783,783,783,783,783,783,783,783,783,783,783,783,783,783,783,783,783,783,783,783,783,783,783,783,783,783,783,783,783,783,783,783,783,783,783,783,783,783,783,783,783,783,783,783,783,783,783,783,783,783,783,783,783,783,783,783,783,783,783,783,783,783,783,783,783,783,783,783,783,783,782,782,782,782,782,782,782,782,782,782,782,782,782,782,782,782,782,782,782,782,782,782,782,782,782,783,849,922,1024,1035,1060,1076,1083,1074,1072,1072,1072,1072,1072,1072,1072,1072,1072,1072,1072,1072,1072,1072,1072,1070,1068],"ymouse":[537,537,537,537,537,537,537,536,536,536,535,534,534,531,530,529,529,529,528,528,528,528,527,527,526,526,525,524,524,524,523,523,523,523,523,523,523,523,523,523,523,523,523,523,523,523,522,515,513,512,511,511,511,511,511,511,511,511,511,511,511,511,511,511,511,511,511,511,511,511,511,511,511,511,511,511,511,511,511,511,511,511,511,511,511,511,511,511,511,511,511,511,511,511,511,511,511,511,511,511,511,511,511,511,511,511,511,511,511,511,511,511,511,511,511,511,511,511,511,511,511,511,511,511,511,511,511,511,511,511,511,511,511,511,511,510,510,510,510,510,510,510,510,510,510,510,510,510,510,510,510,510,510,510,510,510,510,510,510,509,507,458,405,309,294,250,210,171,128,126,126,126,126,126,126,126,126,126,126,126,126,126,125,116,106,96],"timestamp_mouse":[1,19,39,57,77,98,118,139,158,178,198,218,239,258,277,297,319,339,359,378,398,419,437,458,478,499,518,539,557,579,598,619,637,659,678,698,718,737,758,778,798,818,839,859,878,898,917,939,957,978,997,1019,1038,1058,1078,1097,1119,1139,1158,1178,1197,1218,1239,1258,1278,1297,1318,1338,1359,1378,1398,1418,1438,1459,1477,1498,1519,1538,1559,1578,1597,1617,1638,1658,1679,1698,1718,1739,1759,1778,1798,1817,1838,1859,1879,1899,1918,1938,1959,1978,1998,2019,2038,2058,2077,2099,2118,2138,2158,2179,2198,2218,2238,2259,2278,2299,2319,2338,2358,2377,2397,2417,2438,2458,2479,2498,2519,2538,2559,2579,2599,2618,2638,2658,2679,2699,2718,2738,2758,2777,2797,2818,2839,2857,2878,2899,2919,2937,2957,2978,2997,3018,3038,3059,3077,3098,3119,3138,3159,3179,3198,3218,3238,3258,3278,3297,3318,3339,3358,3378,3398,3417,3439,3458,3479,3498,3518,3538,3559,3578,3599,3619,3639,3658,3677,3698],"xSR":733.5,"ySR":461.5,"xT1":420.09999999999997,"yT1":0,"xT2":1046.8999999999999,"yT2":0,"toosoon":0,"cond_shown":"equaldotsize","ratio_trial":250,"smaller_num":"2","larger_num":"8","correct_side":2,"subjID":"fabiangarcia31","gender":"0","age":"9","school":"4"},{"start_time":1552328678620,"click_time":1552328707749,"finger_time":1552328682748,"fix_duration":1447.9139243191294,"trial":18,"RT":4128,"MT":25001,"sideResp":1,"stimulus":"img/500/equaldotsize/L/10_Ratio_500_L_4_R_2.png","xmouse":[794,794,794,792,791,791,791,791,790,790,790,790,790,790,790,790,790,790,790,789,789,789,789,789,789,789,789,789,789,788,788,788,788,788,787,787,787,787,787,787,787,787,787,787,787,786,786,786,786,786,786,786,786,786,786,786,786,786,786,786,786,786,786,786,786,786,786,786,786,786,786,786,786,786,786,786,786,786,786,786,786,786,786,786,786,786,786,786,786,786,786,786,786,786,786,786,786,786,786,786,786,786,786,786,786,786,786,786,786,786,786,786,786,786,786,786,786,786,786,786,786,786,786,786,786,786,786,786,786,786,786,786,786,786,786,786,786,786,786,786,786,786,786,786,786,786,786,786,786,786,786,786,786,786,786,786,786,786,786,786,786,786,786,786,786,786,786,786,786,786,786,786,786,786,786,786,786,785,785,783,782,781,781,781,781,780,779,778,778,777,776,774,773,772,771,770,770,769,769,768,767,766,763,760,756,741,729,717,709,704,701,701,701,701,701,701,700,699,699,699,697,696,696,696,695,695,695,695,695,695,695,695,695,695,695,695,695,695,695,695,695,695,695,695,695,695,695,695,695,695,695,695,695,695,695,695,695,695,695,695,695,695,695,695,695,695,695,695,695,695,693,693,693,692,691,688,687,686,686,682,669,664,659,635,624,616,613,608,607,605,605,605,599,592,584,567,561,549,543,539,537,537,537,536,535,509,478,430,361,286,150,137,136,136,138,140,148,154,159,165,184,197,204,212,217,222,222,222,210,193,144,144,144,144,144,144,144,144,144,144,144,144,144,144,144,144,144,144,144,144,144,144,144,144,144,144,144,144,144,144,144,144,144,144,144,144,144,144,144,144,144,144,144,144,144,144,144,144,144,144,144,144,144,144,144,144,144,144,144,144,144,144,144,144,144,144,144,144,144,144,144,144,144,144,144,144,144,144,144,144,144,144,144,144,144,144,144,144,144,144,144,144,144,144,144,144,144,144,144,144,144,144,144,144,144,144,144,144,144,144,144,144,144,144,144,144,144,144,144,144,144,144,144,144,144,144,144,144,144,144,144,144,144,144,144,144,144,144,144,144,144,144,144,144,144,144,144,144,144,144,144,144,144,144,144,144,144,144,144,144,144,144,144,144,144,144,144,144,144,144,144,144,144,144,144,144,144,144,144,144,144,144,144,144,144,144,144,144,144,144,144,144,144,144,144,144,144,144,144,144,144,144,144,144,144,144,144,144,144,144,144,144,144,144,144,144,144,144,144,144,144,144,144,144,144,144,144,144,144,144,144,144,144,144,144,144,144,144,144,144,144,144,144,144,144,144,144,144,144,144,144,144,144,144,144,144,144,144,144,144,144,144,144,144,144,144,144,144,144,144,144,144,144,144,144,144,144,144,144,144,144,144,144,144,144,144,144,144,144,144,144,144,144,144,144,144,144,144,144,144,144,144,144,144,144,144,144,144,144,144,144,144,144,144,144,144,144,144,144,144,144,144,144,144,144,144,144,144,144,144,144,144,144,144,144,144,144,144,144,144,144,144,144,144,144,144,144,144,144,144,144,144,144,144,144,144,144,144,144,144,144,144,144,144,144,144,144,144,144,144,144,144,144,144,144,144,144,144,144,144,144,144,144,144,144,144,144,144,144,144,144,144,144,144,144,144,144,144,144,144,144,144,144,144,144,144,144,144,144,144,144,144,144,144,144,144,144,144,144,144,144,144,144,144,144,144,144,144,144,144,144,144,144,144,144,144,144,144,144,144,144,144,144,144,144,144,144,144,144,144,144,144,144,144,144,144,144,144,144,144,144,144,144,144,144,144,144,144,144,144,144,144,144,144,144,144,144,144,144,144,144,144,144,144,144,144,144,144,144,144,144,144,144,144,144,144,144,144,144,144,144,144,144,144,144,144,144,144,144,144,144,144,144,144,144,144,144,144,144,144,144,144,144,144,144,144,144,144,144,144,144,144,144,144,144,144,144,144,144,144,144,144,144,144,144,144,144,144,144,144,144,144,144,144,144,144,144,144,144,144,144,144,144,144,144,144,144,144,144,144,144,144,144,144,144,144,144,144,144,144,144,144,144,144,144,144,144,144,144,144,144,144,144,144,144,144,144,144,144,144,144,144,144,144,144,144,144,144,144,144,144,144,144,144,144,144,144,144,144,144,144,144,144,144,144,144,144,144,144,144,144,144,144,144,144,144,144,144,144,144,144,144,144,144,144,144,144,144,144,144,144,144,144,144,144,144,144,144,144,144,144,144,144,144,144,144,144,144,144,144,144,144,144,144,144,144,144,144,144,144,144,144,144,144,144,144,144,144,144,144,144,144,144,144,144,144,144,144,144,144,144,144,144,144,144,144,144,144,144,144,144,144,144,144,144,144,144,144,144,144,144,144,144,144,144,144,144,144,144,144,144,144,144,144,144,144,144,144,144,144,144,144,144,144,144,144,144,144,144,144,144,144,144,144,144,144,144,144,144,144,144,144,144,144,144,144,144,144,144,144,144,144,144,144,144,144,144,144,144,144,144,144,144,144,144,144,144,144,144,144,144,144,144,144,144,144,144,144,144,144,144,144,144,144,144,144,144,144,144,144,144,144,144,144,144,144,144,144,144,144,144,144,144,144,144,144,144,144,144,144,144,144,144,144,144,144,144,144,144,144,144,144,144,144,144,144,144,144,144,144,144,144,144,144,144,144,144,144,144,144,144,144,144,144,144,144,144,144,144,144,144,144,144,144,144,144,144,144,144,144,144,144,144,144,144,144,144,144,144,144,144,144,144,144,144,144,144,144,144,144,144,144,144,144,144,144,144,144,144,144,144,144,144,144,144,144,144,144,144,144,144,144,144,144,144,144,144,144,144,144,144,144,144,144,144,144,144,144,144,144,144,144,144,144,144,144,144,144,144,144,144,144,144,144,144,144,144,144,144,144,144,144,144,144,144,144,144,144,144,144,144,144,144,144,144,144,144,144,144,144,144,144,144,144,144,144,144,144,144,144,144,144,144,144,144,144,144,144,144,144,144,144,144,144,144,144,144,144,144,144,144,144,144,44,21,3,3,3,3,3,3,3,3,3,3,3,3,3,3,3,3,3,3,3,3,3,3,3,3,3,3,3,3,3,3,3,0,0,0,0,0,0,0,0,0,0,0,0,0,0,0,0,0,0,0,0,0,0,0,0,0,0,0,0,0,0,0,0,0,0,0,0,0,0,0,0,0,0,0,0,0,0,0,0,0,142,215,279,316,316,316,316,316,316,316,316,316,316,317,319,321,323,325,327,327,327,327,327,327,327,329,333,338,352,369,406,447],"ymouse":[510,510,511,514,515,515,515,515,515,515,515,515,515,515,515,515,515,515,515,515,515,515,515,515,515,515,515,515,515,515,515,515,515,515,515,515,515,515,515,515,515,515,515,515,515,514,514,514,514,514,514,514,514,514,514,514,514,514,514,514,514,514,514,514,513,513,513,513,513,513,513,513,513,513,513,513,513,513,513,513,513,513,513,513,513,513,513,513,513,513,513,513,513,513,513,513,513,513,513,513,513,513,513,513,512,512,512,512,512,512,512,512,512,512,512,512,512,512,512,512,512,512,512,512,512,512,512,512,512,512,512,512,512,512,512,512,512,512,512,512,512,512,512,512,512,512,512,512,512,512,512,512,512,512,512,512,512,512,512,512,512,512,512,512,512,512,512,512,512,512,512,512,512,512,512,512,512,512,512,511,511,511,511,511,511,510,510,510,510,509,508,508,508,508,507,507,507,506,506,505,505,505,504,503,501,495,490,486,482,480,478,478,478,478,478,478,478,478,478,478,477,476,476,476,476,476,476,476,476,476,476,476,476,476,476,476,476,476,476,476,476,476,476,476,476,476,476,476,476,476,476,476,476,476,476,476,476,476,476,476,476,476,476,476,476,476,476,476,476,476,475,475,475,475,475,473,473,473,473,471,467,464,463,463,463,463,462,462,462,461,461,461,461,462,463,465,464,464,463,462,461,461,460,460,457,407,361,299,219,153,69,64,64,64,64,64,68,70,72,73,80,85,87,89,91,92,92,86,66,48,7,7,7,7,7,7,7,7,7,7,7,7,7,7,7,7,7,7,7,7,7,7,7,7,7,7,7,7,7,7,7,7,7,7,7,7,7,7,7,7,7,7,7,7,7,7,7,7,7,7,7,7,7,7,7,7,7,7,7,7,7,7,7,7,7,7,7,7,7,7,7,7,7,7,7,7,7,7,7,7,7,7,7,7,7,7,7,7,7,7,7,7,7,7,7,7,7,7,7,7,7,7,7,7,7,7,7,7,7,7,7,7,7,7,7,7,7,7,7,7,7,7,7,7,7,7,7,7,7,7,7,7,7,7,7,7,7,7,7,7,7,7,7,7,7,7,7,7,7,7,7,7,7,7,7,7,7,7,7,7,7,7,7,7,7,7,7,7,7,7,7,7,7,7,7,7,7,7,7,7,7,7,7,7,7,7,7,7,7,7,7,7,7,7,7,7,7,7,7,7,7,7,7,7,7,7,7,7,7,7,7,7,7,7,7,7,7,7,7,7,7,7,7,7,7,7,7,7,7,7,7,7,7,7,7,7,7,7,7,7,7,7,7,7,7,7,7,7,7,7,7,7,7,7,7,7,7,7,7,7,7,7,7,7,7,7,7,7,7,7,7,7,7,7,7,7,7,7,7,7,7,7,7,7,7,7,7,7,7,7,7,7,7,7,7,7,7,7,7,7,7,7,7,7,7,7,7,7,7,7,7,7,7,7,7,7,7,7,7,7,7,7,7,7,7,7,7,7,7,7,7,7,7,7,7,7,7,7,7,7,7,7,7,7,7,7,7,7,7,7,7,7,7,7,7,7,7,7,7,7,7,7,7,7,7,7,7,7,7,7,7,7,7,7,7,7,7,7,7,7,7,7,7,7,7,7,7,7,7,7,7,7,7,7,7,7,7,7,7,7,7,7,7,7,7,7,7,7,7,7,7,7,7,7,7,7,7,7,7,7,7,7,7,7,7,7,7,7,7,7,7,7,7,7,7,7,7,7,7,7,7,7,7,7,7,7,7,7,7,7,7,7,7,7,7,7,7,7,7,7,7,7,7,7,7,7,7,7,7,7,7,7,7,7,7,7,7,7,7,7,7,7,7,7,7,7,7,7,7,7,7,7,7,7,7,7,7,7,7,7,7,7,7,7,7,7,7,7,7,7,7,7,7,7,7,7,7,7,7,7,7,7,7,7,7,7,7,7,7,7,7,7,7,7,7,7,7,7,7,7,7,7,7,7,7,7,7,7,7,7,7,7,7,7,7,7,7,7,7,7,7,7,7,7,7,7,7,7,7,7,7,7,7,7,7,7,7,7,7,7,7,7,7,7,7,7,7,7,7,7,7,7,7,7,7,7,7,7,7,7,7,7,7,7,7,7,7,7,7,7,7,7,7,7,7,7,7,7,7,7,7,7,7,7,7,7,7,7,7,7,7,7,7,7,7,7,7,7,7,7,7,7,7,7,7,7,7,7,7,7,7,7,7,7,7,7,7,7,7,7,7,7,7,7,7,7,7,7,7,7,7,7,7,7,7,7,7,7,7,7,7,7,7,7,7,7,7,7,7,7,7,7,7,7,7,7,7,7,7,7,7,7,7,7,7,7,7,7,7,7,7,7,7,7,7,7,7,7,7,7,7,7,7,7,7,7,7,7,7,7,7,7,7,7,7,7,7,7,7,7,7,7,7,7,7,7,7,7,7,7,7,7,7,7,7,7,7,7,7,7,7,7,7,7,7,7,7,7,7,7,7,7,7,7,7,7,7,7,7,7,7,7,7,7,7,7,7,7,7,7,7,7,7,7,7,7,7,7,7,7,7,7,7,7,7,7,7,7,7,7,7,7,7,7,7,7,7,7,7,7,7,7,7,7,7,7,7,7,7,7,7,7,7,7,7,7,7,7,7,7,7,7,7,7,7,7,7,7,7,7,7,7,7,7,7,7,7,7,7,7,7,7,7,7,7,7,7,7,7,7,7,7,7,7,7,7,7,7,7,7,7,7,7,7,7,7,7,7,7,7,7,7,7,7,7,7,7,7,7,7,7,7,7,7,7,7,7,7,7,7,7,7,7,7,7,7,7,7,7,7,7,7,7,7,7,7,7,7,7,7,7,7,7,7,7,7,7,7,7,7,7,7,7,7,7,7,7,7,7,7,7,7,7,7,7,7,7,7,7,7,7,7,7,7,7,7,7,7,7,7,7,7,7,7,7,7,7,7,7,7,7,7,7,7,7,7,7,7,7,7,7,7,7,7,7,7,7,7,7,7,7,7,7,7,7,7,7,7,7,7,7,7,7,18,31,40,40,40,40,40,40,40,40,40,40,40,40,40,40,40,40,40,40,40,40,40,40,40,40,40,40,40,40,40,40,40,24,14,5,3,1,1,1,1,1,1,1,1,1,1,1,1,1,1,1,1,1,1,1,1,1,1,1,1,1,1,1,1,1,1,1,1,1,1,1,1,1,1,1,1,1,1,1,1,1,9,42,67,78,78,78,78,78,78,78,78,78,78,78,77,73,67,64,58,56,54,51,48,45,43,41,41,41,46,56,77,97],"timestamp_mouse":[10,34,49,69,88,110,129,150,170,188,209,229,250,268,288,308,329,349,370,388,409,430,450,469,490,510,530,549,568,589,610,630,650,669,689,710,729,749,770,790,809,830,848,870,890,909,928,950,969,988,1010,1030,1049,1070,1090,1108,1130,1150,1170,1189,1210,1228,1250,1270,1289,1309,1328,1349,1369,1389,1410,1430,1450,1468,1488,1509,1529,1548,1570,1589,1610,1629,1649,1670,1690,1710,1729,1750,1769,1789,1810,1829,1848,1870,1889,1909,1929,1950,1968,1989,2009,2029,2050,2068,2090,2109,2129,2149,2169,2189,2210,2230,2249,2268,2289,2308,2329,2350,2369,2389,2408,2430,2450,2469,2488,2509,2530,2549,2570,2589,2609,2630,2649,2668,2689,2709,2730,2750,2770,2789,2808,2830,2850,2869,2889,2908,2928,2950,2970,2989,3008,3029,3050,3070,3088,3109,3130,3148,3170,3189,3209,3230,3249,3269,3289,3309,3330,3348,3370,3389,3408,3430,3450,3469,3488,3509,3528,3550,3569,3589,3609,3629,3650,3670,3688,3709,3728,3748,3769,3789,3808,3828,3848,3870,3888,3909,3930,3949,3968,3990,4008,4029,4048,4069,4089,4109,4128,4149,4169,4190,4209,4228,4249,4270,4289,4309,4330,4349,4370,4390,4410,4430,4450,4469,4489,4510,4529,4548,4569,4589,4609,4630,4649,4669,4690,4709,4729,4749,4770,4789,4809,4829,4850,4869,4890,4909,4929,4948,4969,4990,5010,5028,5048,5070,5089,5110,5129,5150,5169,5188,5208,5228,5249,5270,5290,5309,5329,5350,5370,5389,5409,5429,5449,5469,5490,5509,5529,5549,5570,5589,5610,5629,5649,5670,5689,5709,5728,5749,5769,5789,5808,5829,5849,5868,5888,5909,5929,5949,5970,5990,6009,6030,6048,6069,6090,6109,6128,6149,6169,6190,6210,6229,6249,6268,6288,6309,6330,6349,6370,6389,6409,6429,6448,6469,6488,6510,6528,6549,6570,6589,6610,6630,6648,6669,6690,6710,6730,6750,6769,6789,6810,6830,6850,6869,6889,6909,6930,6949,6970,6989,7009,7028,7049,7069,7089,7110,7129,7149,7169,7189,7209,7228,7249,7270,7290,7308,7328,7349,7370,7390,7409,7430,7450,7468,7489,7510,7529,7549,7569,7588,7609,7628,7649,7669,7689,7709,7730,7750,7770,7789,7810,7830,7850,7870,7889,7910,7929,7950,7969,7990,8008,8028,8050,8070,8089,8109,8129,8150,8170,8190,8208,8229,8249,8268,8288,8308,8328,8349,8370,8390,8410,8429,8449,8469,8489,8509,8529,8549,8569,8588,8610,8630,8650,8669,8689,8710,8728,8748,8769,8790,8810,8830,8850,8869,8890,8909,8930,8949,8968,8990,9009,9030,9049,9069,9090,9109,9129,9150,9169,9190,9209,9229,9249,9270,9289,9309,9330,9348,9368,9390,9409,9429,9449,9470,9490,9510,9529,9548,9569,9589,9610,9628,9650,9669,9689,9710,9729,9750,9769,9789,9810,9829,9849,9870,9889,9910,9928,9949,9969,9989,10008,10029,10050,10069,10090,10109,10129,10150,10169,10189,10210,10229,10249,10270,10290,10309,10328,10349,10370,10389,10410,10429,10450,10469,10489,10509,10529,10550,10569,10589,10609,10628,10648,10668,10688,10708,10729,10749,10770,10790,10809,10829,10849,10869,10889,10910,10929,10948,10969,10989,11010,11029,11049,11069,11088,11109,11129,11148,11168,11189,11209,11230,11249,11270,11290,11310,11329,11349,11370,11389,11409,11429,11449,11470,11488,11508,11529,11549,11570,11590,11610,11629,11649,11670,11690,11708,11729,11750,11769,11789,11809,11829,11849,11870,11890,11910,11929,11950,11970,11989,12010,12028,12049,12070,12090,12110,12129,12150,12169,12189,12209,12229,12248,12269,12289,12310,12329,12349,12368,12388,12410,12430,12449,12469,12490,12510,12530,12548,12570,12589,12610,12629,12650,12670,12688,12709,12729,12748,12770,12790,12810,12830,12850,12869,12889,12909,12928,12948,12969,12988,13009,13030,13050,13069,13089,13108,13129,13148,13170,13190,13209,13229,13249,13270,13289,13309,13329,13350,13368,13389,13410,13429,13449,13469,13489,13510,13529,13548,13569,13590,13608,13629,13649,13669,13688,13709,13730,13750,13770,13790,13809,13830,13850,13869,13890,13909,13930,13950,13968,13989,14008,14030,14049,14069,14090,14110,14129,14149,14169,14190,14209,14229,14248,14269,14289,14310,14329,14349,14370,14389,14410,14429,14449,14470,14489,14509,14529,14549,14568,14588,14610,14629,14650,14669,14690,14710,14729,14749,14770,14789,14810,14829,14848,14869,14890,14909,14930,14950,14969,14990,15010,15029,15049,15068,15089,15109,15129,15149,15169,15190,15210,15230,15249,15269,15289,15309,15329,15350,15370,15389,15409,15430,15450,15469,15489,15510,15529,15550,15570,15590,15609,15630,15650,15669,15690,15710,15729,15749,15770,15789,15810,15828,15850,15870,15890,15910,15930,15948,15969,15990,16010,16029,16049,16068,16090,16110,16129,16150,16170,16189,16209,16228,16249,16269,16290,16309,16330,16350,16368,16389,16409,16429,16448,16469,16490,16510,16530,16549,16569,16589,16609,16629,16649,16668,16690,16709,16730,16749,16770,16790,16809,16829,16849,16868,16888,16908,16930,16949,16969,16990,17009,17029,17049,17069,17088,17109,17128,17148,17170,17190,17210,17230,17250,17270,17288,17309,17328,17349,17370,17389,17409,17430,17448,17468,17488,17508,17530,17549,17570,17589,17610,17629,17649,17668,17689,17709,17730,17748,17769,17790,17810,17829,17848,17869,17890,17910,17930,17948,17969,17989,18009,18030,18049,18069,18088,18109,18129,18150,18170,18190,18209,18229,18248,18268,18288,18309,18330,18349,18369,18390,18409,18428,18448,18468,18489,18509,18529,18550,18570,18590,18609,18629,18648,18670,18690,18709,18730,18749,18768,18788,18810,18830,18850,18870,18889,18910,18930,18948,18968,18988,19008,19029,19049,19070,19090,19109,19130,19150,19170,19189,19208,19228,19248,19270,19289,19310,19329,19350,19368,19389,19410,19430,19450,19470,19489,19510,19528,19548,19569,19589,19610,19629,19649,19669,19689,19709,19729,19749,19769,19788,19808,19828,19850,19870,19889,19909,19929,19949,19968,19988,20009,20030,20049,20069,20089,20110,20128,20148,20168,20190,20209,20229,20249,20269,20289,20309,20328,20350,20369,20389,20409,20429,20449,20470,20490,20510,20530,20549,20570,20589,20609,20630,20649,20669,20689,20709,20729,20748,20769,20790,20810,20830,20849,20870,20889,20910,20929,20949,20970,20989,21009,21028,21048,21068,21089,21109,21130,21149,21170,21190,21209,21229,21249,21270,21289,21310,21328,21350,21370,21389,21410,21429,21449,21469,21490,21509,21530,21549,21570,21589,21610,21629,21649,21669,21689,21710,21729,21750,21769,21789,21808,21830,21849,21869,21889,21910,21929,21948,21969,21990,22010,22030,22049,22069,22089,22110,22128,22149,22169,22189,22210,22229,22249,22270,22290,22310,22328,22349,22368,22390,22408,22430,22449,22470,22489,22510,22530,22548,22568,22590,22610,22630,22649,22670,22690,22710,22729,22750,22770,22789,22809,22828,22849,22870,22890,22909,22929,22949,22970,22988,23009,23029,23049,23069,23089,23109,23129,23149,23170,23189,23210,23229,23249,23269,23289,23309,23329,23349,23369,23389,23409,23429,23450,23469,23489,23510,23529,23549,23570,23588,23608,23628,23649,23670,23689,23710,23730,23750,23769,23790,23810,23828,23850,23869,23889,23910,23929,23949,23969,23990,24010,24030,24049,24069,24089,24108,24129,24150,24169,24190,24210,24229,24250,24268,24288,24308,24329,24350,24369,24389,24410,24429,24450,24469,24490,24510,24530,24550,24569,24589,24609,24630,24650,24669,24688,24708,24728,24750,24769,24789,24809,24828,24850,24870,24890,24910,24930,24949,24969,24988,25010,25029,25049,25070,25089,25110,25129,25149,25168,25188,25209,25228,25249,25269,25289,25310,25330,25350,25368,25389,25409,25429,25448,25468,25488,25510,25530,25549,25570,25590,25610,25629,25649,25669,25689,25709,25730,25750,25769,25789,25810,25829,25849,25868,25888,25908,25930,25949,25969,25990,26010,26030,26049,26070,26090,26110,26130,26150,26170,26189,26210,26230,26250,26270,26290,26309,26330,26350,26369,26388,26408,26428,26450,26470,26488,26510,26529,26549,26569,26590,26610,26629,26650,26669,26689,26709,26729,26750,26769,26790,26809,26830,26850,26869,26889,26909,26928,26949,26968,26988,27008,27029,27048,27069,27088,27109,27129,27149,27170,27189,27209,27230,27250,27269,27289,27309,27329,27350,27369,27390,27410,27428,27449,27469,27489,27510,27529,27549,27569,27589,27609,27630,27650,27670,27688,27709,27729,27749,27769,27789,27809,27829,27849,27869,27889,27908,27930,27950,27970,27990,28009,28029,28048,28069,28089,28109,28130,28150,28170,28189,28209,28229,28249,28269,28290,28309,28329,28349,28369,28390,28409,28430,28450,28470,28489,28508,28529,28549,28569,28589,28609,28630,28650,28669,28690,28710,28729,28749,28770,28789,28808,28829,28850,28869,28889,28909,28928,28949,28969,28990,29009,29030,29050,29069,29088,29108,29128],"xSR":733.5,"ySR":461.5,"xT1":420.09999999999997,"yT1":0,"xT2":1046.8999999999999,"yT2":0,"toosoon":0,"cond_shown":"equaldotsize","ratio_trial":500,"smaller_num":"2","larger_num":"4","correct_side":1,"subjID":"fabiangarcia31","gender":"0","age":"9","school":"4"},{"start_time":1552328713063,"click_time":1552328717749,"finger_time":1552328714409,"fix_duration":250,"trial":19,"RT":1346,"MT":3340,"sideResp":1,"stimulus":"img/900/randomdotsizeEA/R/13_Ratio_900_L_18_R_20.png","xmouse":[813,813,813,813,814,814,814,814,814,814,814,814,814,816,817,817,817,817,817,817,817,817,817,817,817,817,817,817,817,817,817,817,817,817,817,817,817,817,817,817,817,817,817,817,817,817,817,817,817,817,817,817,817,817,817,817,817,817,817,817,817,817,817,817,817,818,832,879,892,900,917,945,954,958,962,964,966,967,967,967,967,967,967,967,967,967,967,967,967,967,967,967,967,967,967,967,967,993,998,1000,1000,1000,1000,1000,1000,1000,1000,1000,1000,1000,1000,1000,1000,1000,1000,1000,1001,1006,1009,1009,1009,1009,1009,1009,1009,1009,1009,1009,1008,1008,1008,1008,1007,1007,1007,1007,1007,1007,1007,1007,1007,1007,1007,1007,1007,1007,1008,1010,1011,1012,1012,1012,1012,1012,1012,1012,1012,1012,1012,1012,1014,1017,1020,1020,1020,1020,1020,1020,1021,1021,1021,1021,1021,1004,1004,1004,1004,1004,1004,1004,1004,1004,1004,1004,1004,1004,1004,1004,1004,1004,1004,1004,1004,1004,1004,1004,1004,1004,1004,1004,1004,1004,1004,1004,1004,1004,246,282,285,285,285,285,285,285,285,285,285,285,285,285,285,285,285,285,285,285,285,286,288,291,292,295,298,379,436],"ymouse":[517,517,517,517,517,517,517,517,517,517,517,517,517,517,518,518,518,518,518,518,518,518,518,518,518,518,518,518,518,518,518,518,518,518,518,518,518,518,518,518,518,518,518,518,518,518,518,518,518,518,518,518,518,518,518,518,518,518,518,518,518,518,518,518,518,515,484,362,290,220,170,110,89,70,45,29,14,0,0,0,0,0,0,0,0,0,0,0,0,0,0,0,0,0,0,0,0,8,11,12,12,12,12,12,12,12,12,12,12,12,12,12,12,12,12,12,12,13,14,14,14,14,14,14,14,14,14,14,13,12,10,10,9,9,9,9,9,9,9,9,9,9,9,9,9,9,9,9,9,9,9,9,9,9,9,9,9,9,9,9,9,8,8,8,8,8,8,8,7,7,7,7,7,5,5,5,5,5,5,5,5,5,5,5,5,5,5,5,5,5,5,5,5,5,5,5,5,5,5,5,5,5,5,5,5,5,13,34,35,35,35,35,35,35,35,35,35,35,35,35,35,35,35,35,35,35,35,35,35,36,36,37,37,50,58],"timestamp_mouse":[10,35,47,67,86,107,126,146,167,187,205,227,246,266,286,307,326,346,366,387,406,426,446,465,487,507,525,547,567,587,606,625,647,667,686,706,725,745,767,787,805,825,847,867,887,907,927,947,968,986,1007,1026,1046,1066,1087,1106,1127,1147,1166,1187,1206,1227,1247,1266,1285,1306,1326,1346,1365,1385,1406,1428,1446,1466,1485,1507,1526,1546,1566,1585,1606,1627,1646,1666,1687,1705,1725,1745,1766,1786,1806,1827,1845,1867,1886,1906,1926,1947,1966,1986,2007,2025,2046,2065,2087,2107,2127,2145,2166,2186,2206,2225,2245,2266,2287,2307,2326,2346,2366,2387,2405,2425,2445,2465,2487,2506,2527,2546,2567,2586,2606,2627,2646,2667,2687,2707,2726,2745,2765,2785,2806,2827,2847,2867,2887,2907,2927,2947,2966,2986,3005,3026,3046,3067,3087,3105,3125,3145,3166,3186,3207,3227,3245,3266,3285,3307,3326,3347,3367,3387,3406,3427,3446,3466,3486,3506,3525,3547,3567,3586,3606,3627,3647,3666,3686,3706,3727,3747,3766,3786,3807,3826,3847,3866,3887,3906,3926,3946,3966,3987,4006,4027,4046,4066,4087,4106,4127,4147,4166,4186,4206,4226,4245,4266,4286,4306,4325,4346,4366,4386,4407,4427,4446,4467,4487,4506,4526,4546,4566,4585,4606,4625,4646,4666,4686],"xSR":733.5,"ySR":461.5,"xT1":420.09999999999997,"yT1":0,"xT2":1046.8999999999999,"yT2":0,"toosoon":0,"cond_shown":"randomdotsizeEA","ratio_trial":900,"smaller_num":"18","larger_num":"20","correct_side":2,"subjID":"fabiangarcia31","gender":"0","age":"9","school":"4"},{"start_time":1552328726207,"click_time":1552328728130,"finger_time":1552328727129,"fix_duration":1494.680364390458,"trial":20,"RT":922,"MT":1001,"sideResp":2,"stimulus":"img/900/equaldotsize/R/3_Ratio_900_L_9_R_10.png","xmouse":[754,754,754,754,754,754,754,754,754,754,754,754,754,754,754,754,754,754,754,754,754,754,754,754,754,754,754,754,755,756,756,757,757,757,757,757,757,757,757,757,758,759,762,764,770,789,829,845,856,864,876,902,925,939,950,958,973,979,985,988,993,1014,1026,1039,1051,1060,1069,1069,1068,1068,1067,1065,1065,1065,1064,1064,1063,1063,1063,1063,1062,1062,1064,1068,1069,1070,1070,1070,1070,1070,1070,1070,1072,1073,1074,1075,1076],"ymouse":[520,520,520,520,520,520,520,520,520,520,520,520,520,520,520,520,520,520,520,520,520,520,520,520,520,520,520,520,520,520,519,519,519,519,519,519,519,518,518,518,518,518,516,514,509,490,453,439,430,423,413,391,372,358,346,336,322,318,313,310,303,276,259,242,221,202,159,147,145,145,145,144,144,144,144,144,144,144,144,144,143,142,130,124,120,119,118,118,118,118,118,118,113,110,107,104,96],"timestamp_mouse":[10,37,43,63,82,102,122,143,161,183,203,223,242,263,281,303,322,342,362,382,401,422,443,463,482,501,522,543,562,583,603,621,643,662,683,702,722,742,762,781,802,822,843,861,882,902,922,941,962,982,1001,1022,1042,1062,1083,1102,1123,1141,1162,1182,1203,1223,1243,1262,1282,1303,1321,1341,1361,1381,1402,1422,1442,1463,1483,1503,1523,1543,1563,1582,1602,1623,1641,1662,1682,1702,1722,1742,1761,1783,1802,1822,1841,1862,1882,1902,1922],"xSR":733.5,"ySR":461.5,"xT1":420.09999999999997,"yT1":0,"xT2":1046.8999999999999,"yT2":0,"toosoon":0,"cond_shown":"equaldotsize","ratio_trial":900,"smaller_num":"9","larger_num":"10","correct_side":2,"subjID":"fabiangarcia31","gender":"0","age":"9","school":"4"},{"start_time":1552328755590,"click_time":1552328758088,"finger_time":1552328757409,"fix_duration":260.8137669537709,"trial":21,"RT":1819,"MT":679,"sideResp":1,"stimulus":"img/500/randomdotsizeEA/L/8_Ratio_500_L_8_R_4.png","xmouse":[817,817,817,817,817,817,817,817,817,817,817,817,817,817,817,817,817,817,817,817,817,817,817,817,817,817,817,817,817,817,817,817,817,817,817,817,817,817,817,817,817,817,817,817,817,817,817,817,817,817,817,817,817,816,816,816,814,814,814,813,812,810,810,810,810,810,810,810,810,810,810,810,810,810,810,810,810,810,810,810,810,810,810,810,810,810,810,810,810,810,814,815,815,813,807,793,788,783,776,772,752,726,693,660,643,622,619,613,610,593,567,564,562,562,561,545,534,524,523,523,523,523,522,522,520],"ymouse":[501,501,501,501,501,501,501,501,501,501,501,501,501,501,501,501,501,501,501,501,501,501,501,501,501,501,501,501,501,501,501,501,501,501,501,501,501,501,501,501,501,501,501,501,501,501,501,501,501,501,501,501,501,501,501,501,501,501,501,500,500,499,499,499,499,499,499,499,499,499,499,499,499,499,499,499,499,499,499,499,499,499,499,499,499,499,499,499,499,498,449,428,405,386,367,339,329,322,313,307,285,264,240,224,216,203,199,189,184,170,154,150,149,149,147,118,100,85,83,83,83,83,82,82,78],"timestamp_mouse":[19,39,60,79,99,118,140,159,179,199,218,240,258,280,300,319,340,358,380,398,419,440,460,478,500,520,539,560,579,600,618,638,658,678,699,719,740,760,779,800,820,839,859,878,900,920,939,958,979,999,1020,1039,1058,1080,1100,1118,1139,1160,1179,1199,1219,1240,1260,1280,1299,1318,1338,1360,1379,1400,1419,1439,1460,1478,1500,1518,1540,1558,1579,1599,1618,1640,1659,1679,1700,1719,1738,1760,1779,1798,1819,1839,1860,1879,1899,1918,1940,1959,1979,1999,2019,2038,2059,2079,2099,2118,2138,2158,2179,2199,2220,2240,2260,2279,2299,2319,2338,2358,2379,2400,2419,2440,2460,2479,2498],"xSR":733.5,"ySR":461.5,"xT1":420.09999999999997,"yT1":0,"xT2":1046.8999999999999,"yT2":0,"toosoon":0,"cond_shown":"randomdotsizeEA","ratio_trial":500,"smaller_num":"4","larger_num":"8","correct_side":1,"subjID":"fabiangarcia31","gender":"0","age":"9","school":"4"},{"start_time":1552328766938,"click_time":1552328768109,"finger_time":1552328767770,"fix_duration":1146.4689487396909,"trial":22,"RT":832,"MT":339,"sideResp":1,"stimulus":"img/500/equaldotsize/L/7_Ratio_500_L_10_R_5.png","xmouse":[765,764,764,764,764,764,764,764,764,764,764,764,763,763,762,762,762,762,762,762,762,762,762,762,762,762,762,762,762,762,762,762,762,762,762,762,762,762,762,761,760,757,744,715,623,582,556,552,551,549,549,548,548,547,545,543,536,527,515],"ymouse":[475,474,474,474,474,474,474,474,474,474,474,474,474,474,473,473,473,473,473,473,473,473,473,473,473,473,473,473,473,473,473,473,473,473,473,473,473,473,473,473,472,456,397,337,199,139,105,98,97,95,95,94,93,93,91,89,83,77,70],"timestamp_mouse":[13,35,51,70,92,111,130,150,170,190,211,232,251,270,291,311,331,351,371,392,410,431,452,470,492,511,532,551,572,590,612,631,652,672,691,711,732,752,771,790,811,832,851,871,891,911,931,951,971,991,1011,1030,1050,1072,1091,1112,1131,1150,1171],"xSR":733.5,"ySR":461.5,"xT1":420.09999999999997,"yT1":0,"xT2":1046.8999999999999,"yT2":0,"toosoon":0,"cond_shown":"equaldotsize","ratio_trial":500,"smaller_num":"5","larger_num":"10","correct_side":1,"subjID":"fabiangarcia31","gender":"0","age":"9","school":"4"},{"start_time":1552328770054,"click_time":1552328771029,"finger_time":1552328770890,"fix_duration":824.7768384725928,"trial":23,"RT":836,"MT":139,"sideResp":2,"stimulus":"img/750/equaldotsize/L/6_Ratio_750_L_24_R_18.png","xmouse":[792,792,792,792,792,792,792,792,792,792,792,792,792,792,792,792,792,792,792,792,792,792,792,792,792,792,792,792,792,792,792,792,792,792,792,792,792,792,792,792,819,873,898,959,991,1017,1035,1048,1061],"ymouse":[499,499,499,499,499,499,499,499,499,499,499,499,499,499,499,499,499,499,499,499,499,499,499,499,499,499,499,499,499,499,499,499,499,499,499,499,499,499,499,499,487,457,433,312,234,172,134,113,98],"timestamp_mouse":[17,37,56,76,94,114,136,155,174,196,214,235,256,275,296,314,336,355,375,396,414,435,456,475,496,515,535,555,574,594,615,635,656,675,695,715,736,755,775,796,814,836,855,875,894,915,935,956,975],"xSR":733.5,"ySR":461.5,"xT1":420.09999999999997,"yT1":0,"xT2":1046.8999999999999,"yT2":0,"toosoon":0,"cond_shown":"equaldotsize","ratio_trial":750,"smaller_num":"18","larger_num":"24","correct_side":1,"subjID":"fabiangarcia31","gender":"0","age":"9","school":"4"},{"start_time":1552328772343,"click_time":1552328775090,"finger_time":1552328773249,"fix_duration":250,"trial":24,"RT":906,"MT":1841,"sideResp":1,"stimulus":"img/250/equaldotanddens/L/15_Ratio_250_L_12_R_3.png","xmouse":[741,741,741,741,741,741,741,740,740,740,740,740,740,740,740,740,740,740,740,740,740,740,740,740,740,740,740,740,740,740,740,740,740,740,740,740,740,740,740,740,740,740,740,740,744,747,747,747,741,732,707,695,688,682,676,649,629,607,588,558,546,538,533,530,530,529,529,527,527,527,527,527,526,526,525,525,525,525,525,525,525,525,525,525,525,525,525,525,525,525,525,525,525,525,526,526,529,531,533,536,538,540,541,542,542,542,543,544,544,546,546,548,548,549,549,549,549,549,549,549,549,549,543,529,523,522,522,522,522,522,522,522,522,522,522,521,521,520],"ymouse":[504,504,504,504,504,504,504,504,504,504,504,504,504,504,504,504,504,504,504,504,504,504,504,504,504,504,504,504,504,504,504,504,504,504,504,504,504,504,504,504,504,504,503,501,484,459,438,422,402,381,344,331,323,320,317,294,270,240,214,180,166,153,147,137,131,123,120,118,117,117,117,116,116,116,115,115,115,115,115,115,115,115,115,115,115,115,115,115,114,114,114,114,114,114,113,113,113,113,111,110,110,110,110,110,110,110,110,110,110,110,111,111,111,111,111,111,111,111,111,111,111,111,108,99,95,94,94,94,94,94,94,94,94,94,94,94,94,93],"timestamp_mouse":[12,37,46,66,85,107,125,147,167,186,205,225,247,267,285,305,326,346,365,386,405,427,445,466,486,506,526,546,567,586,606,625,646,666,686,706,726,747,765,787,805,826,846,865,886,906,926,947,966,986,1005,1026,1046,1066,1086,1105,1125,1145,1166,1187,1205,1226,1246,1267,1286,1306,1325,1347,1366,1387,1406,1425,1446,1466,1487,1506,1526,1546,1567,1586,1607,1626,1645,1666,1686,1706,1726,1745,1765,1787,1807,1825,1847,1867,1887,1905,1927,1947,1966,1988,2006,2025,2046,2066,2085,2106,2125,2145,2165,2187,2205,2226,2246,2267,2287,2307,2326,2345,2366,2387,2406,2427,2446,2466,2487,2506,2525,2546,2565,2586,2606,2626,2646,2665,2687,2705,2727,2747],"xSR":733.5,"ySR":461.5,"xT1":420.09999999999997,"yT1":0,"xT2":1046.8999999999999,"yT2":0,"toosoon":0,"cond_shown":"equaldotanddens","ratio_trial":250,"smaller_num":"3","larger_num":"12","correct_side":1,"subjID":"fabiangarcia31","gender":"0","age":"9","school":"4"},{"start_time":1552328776834,"click_time":1552328778028,"finger_time":1552328777469,"fix_duration":404.28345081419604,"trial":25,"RT":635,"MT":559,"sideResp":2,"stimulus":"img/250/equaldotanddens/R/8_Ratio_250_L_1_R_4.png","xmouse":[781,781,781,781,781,781,781,781,781,781,781,781,781,781,781,781,781,781,781,781,781,781,781,781,781,781,781,782,784,794,825,860,900,939,965,997,1017,1027,1036,1037,1037,1037,1037,1037,1038,1047,1055,1064,1067,1069,1071,1071,1071,1072,1073,1077,1079,1079,1079,1079],"ymouse":[557,557,557,557,557,557,557,557,557,557,557,557,557,557,557,557,557,557,557,557,557,557,557,557,557,557,557,556,553,541,508,480,450,421,402,365,341,331,323,321,321,321,321,321,320,304,288,267,254,242,232,230,227,223,216,193,164,136,105,76],"timestamp_mouse":[15,34,54,76,95,116,134,156,176,195,214,235,256,275,295,315,336,356,374,395,414,435,455,474,494,514,536,555,575,595,615,635,655,675,696,714,735,756,774,795,815,835,856,875,895,915,936,954,976,995,1015,1035,1055,1074,1094,1115,1136,1155,1175,1194],"xSR":733.5,"ySR":461.5,"xT1":420.09999999999997,"yT1":0,"xT2":1046.8999999999999,"yT2":0,"toosoon":0,"cond_shown":"equaldotanddens","ratio_trial":250,"smaller_num":"1","larger_num":"4","correct_side":2,"subjID":"fabiangarcia31","gender":"0","age":"9","school":"4"},{"start_time":1552328779774,"click_time":1552328781589,"finger_time":1552328780989,"fix_duration":698.0270306611205,"trial":26,"RT":1215,"MT":600,"sideResp":1,"stimulus":"img/250/equaldotanddens/L/14_Ratio_250_L_12_R_3.png","xmouse":[811,811,811,811,811,811,811,811,811,811,811,811,811,811,811,811,811,811,811,811,811,811,811,811,811,811,811,811,811,811,811,811,811,811,811,811,811,811,811,811,811,811,811,811,811,811,811,811,811,811,811,811,811,811,811,811,811,811,811,808,768,754,745,735,732,723,718,715,712,697,681,652,618,581,551,551,551,551,551,550,550,550,550,549,549,548,547,545,544,540,518,491],"ymouse":[533,533,533,533,533,533,533,533,533,533,533,533,533,533,533,533,533,533,533,533,533,533,533,533,533,533,533,533,533,533,533,533,533,533,533,533,533,533,533,533,533,533,533,533,533,533,533,533,533,533,533,533,533,533,533,533,533,533,533,530,466,445,423,394,384,361,354,351,347,323,302,263,227,184,144,143,143,143,143,142,142,142,142,142,142,141,141,139,139,137,114,90],"timestamp_mouse":[1,16,38,54,75,95,114,134,154,175,194,214,234,254,275,296,315,335,355,375,396,415,435,455,475,495,515,535,555,575,595,615,636,656,675,695,715,735,756,775,795,815,834,856,875,896,916,935,955,975,996,1015,1036,1054,1076,1095,1116,1134,1156,1175,1196,1215,1247,1254,1274,1295,1315,1335,1356,1375,1396,1415,1435,1455,1475,1496,1515,1535,1555,1575,1595,1614,1634,1654,1674,1694,1716,1734,1756,1776,1795,1814],"xSR":733.5,"ySR":461.5,"xT1":420.09999999999997,"yT1":0,"xT2":1046.8999999999999,"yT2":0,"toosoon":0,"cond_shown":"equaldotanddens","ratio_trial":250,"smaller_num":"3","larger_num":"12","correct_side":1,"subjID":"fabiangarcia31","gender":"0","age":"9","school":"4"},{"start_time":1552328783251,"click_time":1552328785189,"finger_time":1552328784329,"fix_duration":980.4483497562709,"trial":27,"RT":1078,"MT":860,"sideResp":2,"stimulus":"img/250/randomdotsizeEA/R/10_Ratio_250_L_4_R_16.png","xmouse":[811,811,811,811,811,811,811,811,811,811,811,811,811,811,811,811,811,811,811,811,810,810,810,810,810,810,810,810,810,810,810,810,810,810,810,810,810,810,810,810,810,810,810,810,810,809,809,809,809,809,807,797,790,752,730,698,691,689,689,688,688,686,683,682,682,686,697,731,816,943,1183,1269,1354,1378,1389,1391,1391,1391,1391,1391,1391,1391,1376,1367,1356,1327,1305,1276,1244,1212,1187,1186,1186,1184,1183,1159,1145],"ymouse":[524,524,524,524,524,524,524,524,524,524,524,524,524,524,524,524,524,524,524,524,524,524,524,524,524,524,524,524,524,524,524,524,524,524,524,524,524,524,524,524,524,524,524,524,524,524,524,524,524,523,521,495,482,420,380,329,317,313,313,312,309,288,268,248,233,211,205,199,195,195,195,190,187,184,183,183,183,183,183,182,182,180,174,169,163,140,129,118,103,91,82,82,82,82,82,78,78],"timestamp_mouse":[34,39,57,79,99,119,139,158,178,199,218,238,257,277,299,318,337,358,378,397,418,438,457,478,499,517,537,559,578,598,618,638,659,677,699,718,738,759,778,798,817,838,859,879,899,917,937,959,977,998,1018,1039,1058,1078,1097,1118,1138,1158,1178,1198,1218,1239,1258,1279,1299,1318,1338,1358,1378,1398,1417,1438,1458,1477,1498,1517,1539,1558,1579,1598,1619,1638,1657,1678,1697,1717,1737,1758,1778,1798,1818,1838,1858,1878,1897,1917,1937],"xSR":733.5,"ySR":461.5,"xT1":420.09999999999997,"yT1":0,"xT2":1046.8999999999999,"yT2":0,"toosoon":0,"cond_shown":"randomdotsizeEA","ratio_trial":250,"smaller_num":"4","larger_num":"16","correct_side":2,"subjID":"fabiangarcia31","gender":"0","age":"9","school":"4"},{"start_time":1552328788237,"click_time":1552328789650,"finger_time":1552328789368,"fix_duration":1146.4548249684567,"trial":28,"RT":1131,"MT":282,"sideResp":2,"stimulus":"img/750/randomdotsizeEA/R/12_Ratio_750_L_3_R_4.png","xmouse":[782,782,782,782,782,782,782,782,782,782,782,782,782,782,782,782,782,782,782,782,782,782,782,782,782,782,782,782,782,782,782,782,782,782,782,782,782,782,782,782,782,782,782,782,782,782,782,782,782,782,782,783,789,798,813,831,869,937,961,979,994,997,998,998,1000,1007,1014,1049,1069,1085,1099],"ymouse":[522,522,522,522,522,522,522,522,522,522,522,522,522,522,522,522,522,522,522,522,522,522,522,522,522,522,522,522,522,522,522,522,522,522,522,522,522,522,522,522,522,522,522,522,522,522,522,522,522,522,522,522,522,522,524,522,501,458,431,406,386,382,381,381,374,356,331,236,180,126,69],"timestamp_mouse":[13,35,52,72,91,113,132,153,172,191,212,233,252,272,291,313,332,352,373,391,411,432,453,473,492,513,533,553,571,593,613,632,653,671,691,713,732,751,773,792,813,831,851,873,892,911,931,952,972,993,1012,1032,1052,1073,1091,1113,1131,1152,1172,1192,1212,1233,1252,1271,1292,1312,1331,1352,1373,1392,1413],"xSR":733.5,"ySR":461.5,"xT1":420.09999999999997,"yT1":0,"xT2":1046.8999999999999,"yT2":0,"toosoon":0,"cond_shown":"randomdotsizeEA","ratio_trial":750,"smaller_num":"3","larger_num":"4","correct_side":2,"subjID":"fabiangarcia31","gender":"0","age":"9","school":"4"},{"start_time":1552328791942,"click_time":1552328792869,"finger_time":1552328792689,"fix_duration":1231.4564670687548,"trial":29,"RT":747,"MT":180,"sideResp":1,"stimulus":"img/250/equaldotanddens/L/5_Ratio_250_L_24_R_6.png","xmouse":[771,771,771,771,771,771,771,771,771,771,771,771,771,771,771,771,771,771,771,771,771,771,771,771,771,771,771,771,771,771,771,771,771,771,771,771,771,766,754,735,711,686,616,581,542,526,515],"ymouse":[484,484,484,484,484,484,484,484,484,484,484,484,484,484,484,484,484,484,484,484,484,484,484,484,484,484,484,484,484,484,484,484,484,484,484,484,478,406,358,317,274,230,128,84,37,18,7],"timestamp_mouse":[13,27,46,66,86,106,127,146,166,187,207,226,248,267,287,308,326,348,366,386,408,428,446,468,488,508,528,548,567,588,608,628,648,667,688,707,727,747,767,786,807,828,846,866,886,907,926],"xSR":733.5,"ySR":461.5,"xT1":420.09999999999997,"yT1":0,"xT2":1046.8999999999999,"yT2":0,"toosoon":0,"cond_shown":"equaldotanddens","ratio_trial":250,"smaller_num":"6","larger_num":"24","correct_side":1,"subjID":"fabiangarcia31","gender":"0","age":"9","school":"4"},{"start_time":1552328795422,"click_time":1552328797070,"finger_time":1552328796228,"fix_duration":1132.0379045970067,"trial":30,"RT":806,"MT":842,"sideResp":1,"stimulus":"img/750/equaldotanddens/L/6_Ratio_750_L_24_R_18.png","xmouse":[808,808,808,808,808,808,808,808,808,808,809,809,809,809,811,811,811,811,811,811,811,811,811,811,811,811,811,811,811,811,811,811,811,811,811,811,812,813,817,824,837,854,871,897,906,911,913,916,918,918,918,918,914,897,882,858,826,789,703,703,703,703,703,703,703,703,703,703,703,703,703,703,703,703,703,703,703,703,703,524,522,521,520],"ymouse":[501,501,501,501,501,501,501,501,501,501,501,501,501,501,502,502,502,502,502,502,502,502,502,502,502,502,502,502,502,502,502,502,502,502,502,502,503,503,503,503,495,482,469,441,429,419,412,405,397,389,382,372,359,313,269,226,173,121,14,14,14,14,14,14,14,14,14,14,14,14,14,14,14,14,14,14,14,14,14,2,8,13,15],"timestamp_mouse":[12,38,46,68,87,106,128,147,166,186,208,226,248,267,287,307,327,347,366,388,408,427,447,466,487,507,526,547,566,587,607,627,647,666,687,708,728,746,766,788,806,826,846,867,887,906,927,947,967,988,1006,1026,1046,1067,1087,1107,1126,1147,1168,1188,1208,1228,1247,1267,1287,1307,1327,1347,1366,1386,1407,1426,1448,1467,1487,1508,1528,1547,1567,1587,1607,1627,1648],"xSR":733.5,"ySR":461.5,"xT1":420.09999999999997,"yT1":0,"xT2":1046.8999999999999,"yT2":0,"toosoon":0,"cond_shown":"equaldotanddens","ratio_trial":750,"smaller_num":"18","larger_num":"24","correct_side":1,"subjID":"fabiangarcia31","gender":"0","age":"9","school":"4"},{"start_time":1552328799149,"click_time":1552328800769,"finger_time":1552328800028,"fix_duration":737.7911985025241,"trial":31,"RT":879,"MT":741,"sideResp":2,"stimulus":"img/900/randomdotsizeEA/R/6_Ratio_900_L_9_R_10.png","xmouse":[804,804,804,804,804,804,804,804,804,804,804,804,804,804,804,804,804,804,804,804,804,804,804,804,804,804,804,804,804,804,804,804,804,804,804,804,804,804,805,805,805,807,816,828,841,855,869,883,901,920,927,944,967,991,998,1004,1010,1024,1030,1038,1046,1063,1092,1101,1105,1108,1113,1115,1120,1124,1124,1124,1100,1085,1075,1072,1070,1070,1068,1065,1060,1055],"ymouse":[513,513,513,513,513,513,513,513,513,513,513,513,513,513,513,513,513,513,513,513,513,513,513,513,513,513,513,513,513,513,513,513,513,513,513,513,513,513,513,513,513,514,514,508,503,496,488,481,469,456,451,439,420,400,394,389,384,371,364,355,343,318,279,265,261,253,244,237,222,210,203,179,135,116,106,105,104,104,103,102,100,98],"timestamp_mouse":[12,20,39,60,79,100,120,141,161,179,200,221,239,261,279,301,320,340,359,381,400,421,440,461,481,499,521,540,561,580,600,619,641,660,681,700,720,740,760,780,800,821,841,860,879,901,920,940,960,980,1000,1021,1040,1060,1080,1099,1120,1141,1160,1180,1199,1219,1241,1259,1280,1299,1319,1339,1359,1380,1399,1420,1441,1459,1480,1501,1521,1540,1559,1580,1601,1620],"xSR":733.5,"ySR":461.5,"xT1":420.09999999999997,"yT1":0,"xT2":1046.8999999999999,"yT2":0,"toosoon":0,"cond_shown":"randomdotsizeEA","ratio_trial":900,"smaller_num":"9","larger_num":"10","correct_side":2,"subjID":"fabiangarcia31","gender":"0","age":"9","school":"4"},{"start_time":1552328803141,"click_time":1552328804650,"finger_time":1552328803909,"fix_duration":630.7829335534758,"trial":32,"RT":768,"MT":741,"sideResp":1,"stimulus":"img/900/randomdotsizeEA/R/6_Ratio_900_L_9_R_10.png","xmouse":[807,807,807,807,807,807,807,807,807,807,807,807,807,807,807,807,807,807,807,807,807,807,807,807,807,807,807,807,807,807,807,807,807,807,807,808,808,806,736,649,515,469,436,404,390,375,354,329,288,283,283,283,283,283,283,283,285,291,313,333,347,356,359,359,360,362,368,375,392,400,404,405,405,406,413,426],"ymouse":[519,519,519,519,519,519,519,519,519,519,519,519,519,519,519,519,519,519,519,519,519,519,519,519,519,519,519,519,519,519,519,519,519,519,519,519,517,511,419,357,291,264,241,213,199,181,164,143,111,105,105,105,105,105,105,104,103,100,92,86,82,79,78,77,76,69,54,44,33,31,31,31,31,31,31,33],"timestamp_mouse":[9,27,48,69,87,107,129,148,168,187,207,228,249,269,289,308,329,348,367,388,408,429,449,467,488,509,527,548,569,587,607,629,648,667,688,709,728,748,768,787,807,829,848,868,887,907,929,949,967,988,1008,1028,1047,1067,1088,1109,1128,1148,1168,1188,1207,1229,1248,1269,1287,1308,1328,1348,1368,1387,1407,1428,1447,1468,1487,1509],"xSR":733.5,"ySR":461.5,"xT1":420.09999999999997,"yT1":0,"xT2":1046.8999999999999,"yT2":0,"toosoon":0,"cond_shown":"randomdotsizeEA","ratio_trial":900,"smaller_num":"9","larger_num":"10","correct_side":2,"subjID":"fabiangarcia31","gender":"0","age":"9","school":"4"},{"start_time":1552328806165,"click_time":1552328807330,"finger_time":1552328806928,"fix_duration":654.5467036567635,"trial":33,"RT":763,"MT":402,"sideResp":2,"stimulus":"img/750/randomdotsizeEA/L/14_Ratio_750_L_8_R_6.png","xmouse":[796,796,796,796,796,796,796,796,796,796,796,796,796,796,796,796,796,796,796,796,796,796,796,796,796,796,796,796,796,796,798,798,798,800,802,803,804,821,883,917,945,972,990,999,1000,1001,1002,1004,1021,1033,1040,1044,1045,1045,1045,1045,1045,1045,1064],"ymouse":[543,543,543,543,543,543,543,543,543,543,543,543,543,543,543,543,543,543,537,533,526,524,523,523,523,523,523,523,522,522,522,522,522,523,524,524,524,517,470,436,383,324,281,244,238,232,227,217,178,155,135,121,118,118,118,118,118,118,98],"timestamp_mouse":[10,24,48,63,84,105,123,144,164,184,204,224,243,264,284,304,324,343,365,384,404,425,444,464,485,503,523,544,565,584,604,624,644,663,684,704,723,743,763,783,803,824,845,863,884,904,925,943,963,983,1003,1025,1045,1065,1084,1105,1125,1144,1165],"xSR":733.5,"ySR":461.5,"xT1":420.09999999999997,"yT1":0,"xT2":1046.8999999999999,"yT2":0,"toosoon":0,"cond_shown":"randomdotsizeEA","ratio_trial":750,"smaller_num":"6","larger_num":"8","correct_side":1,"subjID":"fabiangarcia31","gender":"0","age":"9","school":"4"},{"start_time":1552328808300,"click_time":1552328809629,"finger_time":1552328809068,"fix_duration":250,"trial":34,"RT":768,"MT":561,"sideResp":2,"stimulus":"img/250/equaldotanddens/R/12_Ratio_250_L_5_R_20.png","xmouse":[801,801,801,801,801,801,801,801,801,801,801,801,801,801,801,801,801,801,801,801,801,801,801,801,801,801,801,801,801,801,801,801,801,801,801,801,801,810,848,901,928,984,1006,1023,1035,1042,1044,1044,1044,1044,1044,1044,1044,1044,1044,1044,1044,1044,1044,1044,1044,1044,1044,1044,1044,1045,1059],"ymouse":[523,523,523,523,523,523,523,523,523,523,523,523,523,523,523,523,523,523,523,523,523,523,523,523,523,523,523,523,523,523,523,523,523,523,523,523,523,494,425,335,287,170,121,83,60,48,46,46,46,46,46,46,46,46,46,46,46,46,46,46,46,46,46,45,45,45,47],"timestamp_mouse":[10,30,50,70,89,109,130,149,168,189,209,228,250,270,289,310,329,350,369,390,408,429,450,468,488,510,530,548,570,589,609,630,649,669,689,709,728,749,768,788,809,829,849,868,888,909,929,950,970,989,1009,1029,1048,1068,1088,1109,1130,1149,1169,1190,1210,1229,1249,1268,1289,1310,1328],"xSR":733.5,"ySR":461.5,"xT1":420.09999999999997,"yT1":0,"xT2":1046.8999999999999,"yT2":0,"toosoon":0,"cond_shown":"equaldotanddens","ratio_trial":250,"smaller_num":"5","larger_num":"20","correct_side":2,"subjID":"fabiangarcia31","gender":"0","age":"9","school":"4"},{"start_time":1552328813960,"click_time":1552328814949,"finger_time":1552328814668,"fix_duration":250,"trial":35,"RT":708,"MT":281,"sideResp":2,"stimulus":"img/500/equaldotsize/R/1_Ratio_500_L_9_R_18.png","xmouse":[755,755,755,755,755,755,755,755,755,755,755,755,755,755,755,755,755,755,755,755,755,755,755,755,755,755,755,755,755,755,755,755,755,757,778,809,841,871,913,931,945,961,972,991,995,1000,1007,1018,1042,1051],"ymouse":[518,518,518,518,518,518,518,518,518,518,518,518,518,518,518,518,518,518,518,518,518,518,518,518,518,518,518,518,518,518,518,518,518,516,490,455,417,382,324,294,268,242,220,182,174,163,153,138,110,96],"timestamp_mouse":[11,43,49,69,89,109,128,148,169,189,209,229,248,268,289,309,329,348,369,389,409,430,450,469,490,510,529,550,569,588,610,630,648,669,689,708,730,749,769,789,809,829,850,870,888,909,928,949,970,988],"xSR":733.5,"ySR":461.5,"xT1":420.09999999999997,"yT1":0,"xT2":1046.8999999999999,"yT2":0,"toosoon":0,"cond_shown":"equaldotsize","ratio_trial":500,"smaller_num":"9","larger_num":"18","correct_side":2,"subjID":"fabiangarcia31","gender":"0","age":"9","school":"4"},{"start_time":1552328816628,"click_time":1552328818210,"finger_time":1552328817689,"fix_duration":596.617165157789,"trial":36,"RT":1061,"MT":521,"sideResp":1,"stimulus":"img/250/randomdotsizeEA/L/14_Ratio_250_L_12_R_3.png","xmouse":[780,780,780,780,780,780,780,780,780,782,782,782,782,783,783,783,783,783,783,783,783,783,783,783,783,783,783,783,783,783,783,783,783,783,783,783,783,783,783,783,783,783,783,783,783,784,784,784,784,784,784,784,784,778,753,701,683,671,665,665,664,658,650,638,626,599,585,574,568,568,568,568,568,568,566,557,547,536,525,513],"ymouse":[505,505,505,505,505,505,505,506,506,506,506,506,506,506,506,506,506,506,506,506,506,507,507,507,507,507,507,507,507,507,507,507,507,507,507,507,507,507,507,507,507,507,507,507,507,507,507,507,507,507,507,507,496,439,373,266,234,212,201,197,195,177,157,132,107,62,43,30,23,23,23,23,23,23,24,36,45,54,65,72],"timestamp_mouse":[10,33,41,61,81,100,122,142,161,180,202,220,242,262,282,300,320,341,361,381,401,421,441,461,480,502,521,541,561,582,601,621,640,661,682,702,722,740,760,780,800,822,841,861,880,901,921,941,961,982,1000,1022,1042,1061,1080,1102,1121,1142,1161,1180,1200,1220,1242,1261,1280,1302,1320,1341,1361,1381,1400,1421,1441,1460,1481,1502,1521,1541,1561,1582],"xSR":733.5,"ySR":461.5,"xT1":420.09999999999997,"yT1":0,"xT2":1046.8999999999999,"yT2":0,"toosoon":0,"cond_shown":"randomdotsizeEA","ratio_trial":250,"smaller_num":"3","larger_num":"12","correct_side":1,"subjID":"fabiangarcia31","gender":"0","age":"9","school":"4"},{"start_time":1552328819501,"click_time":1552328820608,"finger_time":1552328820268,"fix_duration":250,"trial":37,"RT":767,"MT":340,"sideResp":2,"stimulus":"img/900/equaldotanddens/R/12_Ratio_900_L_18_R_20.png","xmouse":[805,805,805,805,805,805,805,805,805,805,805,805,805,805,805,805,805,805,805,805,805,805,805,805,805,805,805,805,805,805,805,805,805,805,805,805,807,831,851,874,898,919,943,954,959,962,967,982,988,996,1004,1011,1031,1038,1048,1060],"ymouse":[527,527,527,527,527,527,527,527,527,527,527,527,527,527,527,527,527,527,527,527,527,527,527,527,527,527,527,527,527,527,527,527,527,527,527,527,526,506,486,465,435,402,360,339,329,320,308,276,262,246,230,211,142,124,106,86],"timestamp_mouse":[9,33,48,69,88,109,129,149,168,188,207,227,249,267,287,307,329,348,368,389,408,427,449,469,488,508,528,547,568,589,608,628,648,669,689,708,728,749,767,788,807,828,848,867,887,907,928,948,967,987,1008,1028,1047,1068,1087,1107],"xSR":733.5,"ySR":461.5,"xT1":420.09999999999997,"yT1":0,"xT2":1046.8999999999999,"yT2":0,"toosoon":0,"cond_shown":"equaldotanddens","ratio_trial":900,"smaller_num":"18","larger_num":"20","correct_side":2,"subjID":"fabiangarcia31","gender":"0","age":"9","school":"4"},{"start_time":1552328822971,"click_time":1552328823928,"finger_time":1552328823669,"fix_durati