[{"start_time":1552327668379,"click_time":1552327674978,"finger_time":1552327668380,"fix_duration":599.1945797464316,"trial":0,"RT":1,"MT":6598,"sideResp":1,"stimulus":[],"xmouse":[763,763,763,763,763,763,763,763,763,763,763,763,763,763,763,763,763,763,763,763,763,763,763,763,763,763,763,763,763,763,763,763,763,763,763,763,763,763,763,763,763,763,763,763,763,763,763,763,763,763,763,763,763,763,763,763,763,763,763,763,763,763,763,763,763,763,763,763,763,763,763,763,763,763,763,763,763,763,763,763,763,763,763,763,763,763,763,763,763,763,763,763,763,763,763,763,763,763,763,763,763,763,763,763,763,763,763,763,763,763,763,763,763,763,763,763,763,763,763,763,763,763,763,763,763,763,763,763,763,763,763,763,763,763,763,763,763,763,763,763,763,763,763,763,763,763,764,764,765,765,765,765,765,765,765,765,765,765,765,765,765,765,765,765,765,765,765,765,765,765,765,765,765,765,765,765,765,765,765,765,765,765,765,765,765,765,765,765,765,765,765,765,765,765,765,765,765,765,765,765,765,765,765,765,765,765,765,765,765,765,765,765,765,765,765,765,765,765,765,765,765,765,765,765,765,765,765,765,765,765,763,721,693,669,653,631,624,615,609,603,590,584,569,559,552,533,522,506,486,469,462,462,462,462,462,462,462,462,465,470,481,496,514,541,571,641,673,689,699,703,704,706,717,743,804,835,835,835,835,832,813,803,800,798,794,784,773,765,762,762,762,762,762,762,762,762,762,762,762,762,762,762,759,755,750,737,730,725,722,720,716,714,711,707,698,673,657,642,626,613,603,587,583,579,574,561,552,545,537,531,516],"ymouse":[554,554,554,554,554,554,554,554,554,554,554,554,554,554,554,554,554,554,554,554,554,554,554,554,554,554,554,554,554,554,554,554,554,554,554,554,554,554,554,554,554,554,554,554,554,554,554,554,554,554,554,554,554,554,554,554,554,554,554,554,554,554,554,554,554,554,554,554,554,554,554,554,554,554,554,554,554,554,554,554,554,554,554,554,554,554,554,554,554,554,554,554,554,554,554,554,554,554,554,554,554,554,554,554,554,554,554,554,554,554,554,554,554,554,554,554,554,554,554,554,554,554,554,554,554,554,554,554,554,554,554,554,554,554,554,554,554,554,554,554,554,554,554,554,554,554,554,554,554,555,555,555,555,555,555,555,555,555,555,555,555,555,555,555,555,555,555,555,555,555,555,555,555,555,555,555,555,555,555,555,555,555,555,555,555,555,555,555,555,555,555,555,555,555,555,555,555,555,555,555,555,555,555,555,555,555,555,555,555,555,555,555,555,555,555,555,555,555,555,555,555,555,555,555,555,555,555,555,555,555,534,465,436,415,397,356,338,318,303,290,257,241,219,205,196,173,162,149,141,135,132,132,132,132,132,132,132,131,126,123,122,130,150,198,256,415,498,555,582,592,593,595,600,620,662,680,680,680,680,674,654,645,642,640,638,629,621,615,612,612,612,612,612,612,612,612,612,612,612,612,612,612,601,587,570,525,504,488,477,467,460,455,449,437,420,376,352,328,302,277,260,228,221,214,202,172,153,133,110,88,42],"timestamp_mouse":[1,17,38,57,77,97,117,137,157,178,198,217,238,257,277,298,317,337,358,377,398,418,438,458,479,498,518,538,558,578,597,618,638,658,678,697,717,737,757,778,797,818,838,857,877,898,918,938,958,977,998,1017,1037,1059,1078,1098,1117,1137,1157,1178,1199,1218,1237,1257,1277,1298,1318,1338,1357,1378,1398,1418,1437,1457,1478,1498,1519,1539,1559,1578,1597,1618,1637,1657,1679,1698,1719,1738,1757,1778,1798,1817,1837,1859,1877,1898,1918,1938,1958,1977,1997,2018,2037,2057,2078,2097,2118,2138,2158,2179,2198,2218,2237,2258,2278,2298,2317,2337,2357,2377,2398,2418,2439,2458,2478,2498,2517,2537,2558,2577,2598,2617,2639,2658,2678,2698,2718,2737,2757,2779,2798,2819,2839,2858,2879,2898,2918,2938,2957,2977,2997,3018,3038,3058,3079,3098,3117,3137,3158,3179,3198,3219,3239,3258,3278,3298,3318,3338,3358,3379,3397,3417,3437,3458,3478,3499,3519,3537,3557,3579,3598,3618,3638,3658,3679,3699,3718,3739,3758,3778,3798,3818,3838,3857,3879,3899,3918,3939,3957,3978,3998,4018,4038,4058,4078,4099,4119,4139,4157,4178,4197,4217,4237,4257,4279,4299,4318,4338,4358,4378,4397,4417,4438,4458,4479,4498,4518,4538,4558,4578,4598,4617,4637,4657,4677,4697,4719,4737,4759,4778,4798,4817,4838,4857,4878,4898,4919,4937,4957,4977,4997,5017,5039,5059,5079,5098,5117,5137,5157,5178,5198,5217,5237,5259,5278,5298,5317,5338,5357,5378,5397,5417,5438,5457,5477,5497,5517,5538,5559,5577,5598,5619,5638,5657,5678,5697,5717,5738,5757,5778,5797,5819,5837,5859,5878,5897,5917,5937,5957,5978,5997,6018,6038,6059,6078,6098,6117,6139,6159,6177,6198,6218,6237,6257,6277,6298,6317,6338,6359,6379,6398,6419,6437,6459,6477,6498,6517,6538,6558,6577,6599],"xSR":733.5,"ySR":493.35,"xT1":420.09999999999997,"yT1":0,"xT2":1046.8999999999999,"yT2":0,"toosoon":0,"cond_shown":"Incongruent","ratio_trial":200,"L_num":9,"L_den":15,"R_num":8,"R_den":10,"correct_side":2,"subjID":"FabianGarciaJimenez31","gender":"0","age":"9","school":"4","test":{"fix_dur":[250,1500],"timestim":1000,"targets_dim":[100,100],"targets_relative_coord":[0.3,0.7],"size_stim":[880,420],"start_dim":[100,100],"size_start":[300,300],"size_fix":60,"samplingrate":20,"img_types":["Congruent","Incongruent"],"ratios":[100,200,300],"rep_conds":19,"nTrials":120,"trials_to_rest":500,"Trials_order":[87,33,68,105,69,13,96,23,65,42,21,37,108,81,36,56,20,94,66,14,6,83,84,7,80,29,19,54,74,99,88,95,18,117,112,90,76,103,8,93,30,58,77,47,67,115,26,91,113,62,100,24,0,43,107,22,2,55,34,98,92,101,116,40,79,85,89,49,31,46,45,110,38,32,82,5,104,11,51,15,73,72,86,63,50,78,27,28,70,59,17,39,114,48,118,44,102,1,111,75,71,12,52,64,10,9,97,106,3,60,119,16,61,57,4,35,41,109,25,53],"cond_shown":["Incongruent","Incongruent","Congruent","Incongruent","Incongruent","Incongruent","Congruent","Incongruent","Incongruent","Congruent","Incongruent","Incongruent","Congruent","Incongruent","Congruent","Congruent","Congruent","Congruent","Congruent","Congruent","Congruent","Incongruent","Congruent","Incongruent","Congruent","Incongruent","Incongruent","Congruent","Congruent","Incongruent","Congruent","Incongruent","Congruent","Incongruent","Congruent","Congruent","Congruent","Incongruent","Congruent","Incongruent","Congruent","Congruent","Incongruent","Incongruent","Incongruent","Incongruent","Congruent","Incongruent","Incongruent","Congruent","Congruent","Congruent","Congruent","Incongruent","Incongruent","Congruent","Congruent","Incongruent","Congruent","Congruent","Congruent","Incongruent","Congruent","Congruent","Incongruent","Incongruent","Incongruent","Incongruent","Incongruent","Congruent","Incongruent","Congruent","Congruent","Congruent","Congruent","Incongruent","Congruent","Incongruent","Incongruent","Incongruent","Incongruent","Congruent","Congruent","Incongruent","Congruent","Congruent","Incongruent","Congruent","Congruent","Incongruent","Incongruent","Incongruent","Congruent","Congruent","Congruent","Congruent","Congruent","Incongruent","Incongruent","Incongruent","Incongruent","Congruent","Congruent","Congruent","Congruent","Incongruent","Incongruent","Congruent","Incongruent","Congruent","Incongruent","Congruent","Incongruent","Incongruent","Congruent","Incongruent","Incongruent","Incongruent","Incongruent","Incongruent"],"ratio_trial":[200,200,200,200,200,100,100,300,300,100,200,100,100,200,100,200,200,300,100,200,100,300,100,100,200,300,100,100,200,200,300,300,100,200,300,100,300,100,200,200,100,300,300,300,100,100,200,100,300,200,300,100,100,100,300,300,200,100,300,200,200,300,200,300,100,100,300,100,100,300,200,200,200,200,300,300,200,300,200,200,100,100,200,200,200,100,200,300,300,300,300,200,100,100,300,200,100,100,200,200,300,100,300,300,300,200,100,300,200,100,300,300,100,200,300,300,300,100,100,300],"left_num":[9,1,7,7,7,1,4,13,1,9,7,2,4,4,1,13,15,8,2,4,4,4,9,9,21,13,9,3,3,7,5,4,3,3,1,4,20,12,9,11,7,2,7,4,6,6,7,3,7,15,2,7,2,13,4,20,5,6,3,6,13,4,3,3,9,9,1,12,3,3,7,3,13,5,1,4,12,2,1,7,3,1,7,4,9,11,1,1,24,8,7,7,4,11,3,9,2,9,4,6,2,9,1,24,1,7,9,1,14,6,13,12,6,11,24,7,13,11,6,4],"right_num":[8,3,2,4,6,8,15,12,3,8,4,6,6,14,3,14,4,10,6,3,15,2,8,20,2,12,6,2,14,8,6,2,2,11,7,15,13,2,4,3,9,12,8,8,11,7,2,8,8,4,10,15,11,12,6,13,14,11,11,11,14,2,9,4,6,20,2,2,4,4,12,9,14,14,7,6,6,6,2,14,7,3,2,1,4,4,2,6,8,9,8,8,15,6,2,13,11,6,6,3,6,8,19,2,19,14,14,19,6,15,12,2,11,3,8,8,12,9,13,2],"left_den":[15,2,21,15,15,2,10,26,2,15,15,4,8,6,2,26,25,15,5,8,10,20,15,10,30,26,18,6,6,10,25,20,6,4,20,10,25,30,20,20,14,10,10,5,10,10,21,5,10,25,20,14,5,26,5,25,10,10,12,20,26,20,12,6,18,10,2,30,6,6,10,12,26,10,20,5,15,4,3,10,9,2,21,30,20,22,3,5,30,10,10,10,10,22,6,30,5,18,5,20,4,15,3,30,3,10,15,3,30,12,26,24,10,20,30,10,26,22,10,20],"right_den":[10,10,15,6,9,20,30,15,15,16,6,15,10,30,5,20,10,12,12,10,30,4,16,25,4,15,10,5,20,16,12,4,5,20,20,30,26,4,16,4,15,24,20,16,22,14,15,16,20,10,25,25,22,20,12,26,20,22,20,22,20,4,20,5,10,25,10,4,10,5,24,20,20,20,20,12,10,30,15,28,30,5,15,3,16,10,15,12,16,18,20,16,30,15,10,26,22,10,10,6,30,16,30,4,30,28,28,30,9,25,15,10,22,4,16,20,15,15,26,4],"correct_side":[2,1,1,2,2,1,2,2,1,1,2,1,2,1,2,2,1,2,2,1,2,2,1,1,1,2,2,1,2,1,2,2,1,1,2,2,1,2,1,2,2,2,1,1,1,1,1,1,1,1,2,2,2,2,1,1,2,1,2,2,2,2,2,2,2,1,1,2,1,2,1,2,2,2,2,1,1,1,1,1,1,2,1,2,1,1,1,2,1,1,1,1,2,1,1,2,2,2,1,2,1,1,2,1,2,1,1,2,2,2,2,1,1,2,1,1,2,2,1,2],"img_shown":["img2/200/Incongruent/R/I_Dist_200_LN_9_LD_15_RN_8_RD_10_1.png","img2/200/Incongruent/L/I_Dist_200_LN_1_LD_2_RN_3_RD_10_0.png","img2/200/Congruent/L/C_Dist_200_LN_7_LD_21_RN_2_RD_15_0.png","img2/200/Incongruent/R/I_Dist_200_LN_7_LD_15_RN_4_RD_6_1.png","img2/200/Incongruent/R/I_Dist_200_LN_7_LD_15_RN_6_RD_9_1.png","img2/100/Incongruent/L/I_Dist_100_LN_1_LD_2_RN_8_RD_20_0.png","img2/100/Congruent/R/C_Dist_100_LN_4_LD_10_RN_15_RD_30_1.png","img2/300/Incongruent/R/I_Dist_300_LN_13_LD_26_RN_12_RD_15_1.png","img2/300/Incongruent/L/I_Dist_300_LN_1_LD_2_RN_3_RD_15_0.png","img2/100/Congruent/L/C_Dist_100_LN_9_LD_15_RN_8_RD_16_0.png","img2/200/Incongruent/R/I_Dist_200_LN_7_LD_15_RN_4_RD_6_1.png","img2/100/Incongruent/L/I_Dist_100_LN_2_LD_4_RN_6_RD_15_0.png","img2/100/Congruent/R/C_Dist_100_LN_4_LD_8_RN_6_RD_10_1.png","img2/200/Incongruent/L/I_Dist_200_LN_4_LD_6_RN_14_RD_30_0.png","img2/100/Congruent/R/C_Dist_100_LN_1_LD_2_RN_3_RD_5_1.png","img2/200/Congruent/R/C_Dist_200_LN_13_LD_26_RN_14_RD_20_1.png","img2/200/Congruent/L/C_Dist_200_LN_15_LD_25_RN_4_RD_10_0.png","img2/300/Congruent/R/C_Dist_300_LN_8_LD_15_RN_10_RD_12_1.png","img2/100/Congruent/R/C_Dist_100_LN_2_LD_5_RN_6_RD_12_1.png","img2/200/Congruent/L/C_Dist_200_LN_4_LD_8_RN_3_RD_10_0.png","img2/100/Congruent/R/C_Dist_100_LN_4_LD_10_RN_15_RD_30_1.png","img2/300/Incongruent/R/I_Dist_300_LN_4_LD_20_RN_2_RD_4_1.png","img2/100/Congruent/L/C_Dist_100_LN_9_LD_15_RN_8_RD_16_0.png","img2/100/Incongruent/L/I_Dist_100_LN_9_LD_10_RN_20_RD_25_0.png","img2/200/Congruent/L/C_Dist_200_LN_21_LD_30_RN_2_RD_4_0.png","img2/300/Incongruent/R/I_Dist_300_LN_13_LD_26_RN_12_RD_15_1.png","img2/100/Incongruent/R/I_Dist_100_LN_9_LD_18_RN_6_RD_10_1.png","img2/100/Congruent/L/C_Dist_100_LN_3_LD_6_RN_2_RD_5_0.png","img2/200/Congruent/R/C_Dist_200_LN_3_LD_6_RN_14_RD_20_1.png","img2/200/Incongruent/L/I_Dist_200_LN_7_LD_10_RN_8_RD_16_0.png","img2/300/Congruent/R/C_Dist_300_LN_5_LD_25_RN_6_RD_12_1.png","img2/300/Incongruent/R/I_Dist_300_LN_4_LD_20_RN_2_RD_4_1.png","img2/100/Congruent/L/C_Dist_100_LN_3_LD_6_RN_2_RD_5_0.png","img2/200/Incongruent/L/I_Dist_200_LN_3_LD_4_RN_11_RD_20_0.png","img2/300/Congruent/R/C_Dist_300_LN_1_LD_20_RN_7_RD_20_1.png","img2/100/Congruent/R/C_Dist_100_LN_4_LD_10_RN_15_RD_30_1.png","img2/300/Congruent/L/C_Dist_300_LN_20_LD_25_RN_13_RD_26_0.png","img2/100/Incongruent/R/I_Dist_100_LN_12_LD_30_RN_2_RD_4_1.png","img2/200/Congruent/L/C_Dist_200_LN_9_LD_20_RN_4_RD_16_0.png","img2/200/Incongruent/R/I_Dist_200_LN_11_LD_20_RN_3_RD_4_1.png","img2/100/Congruent/R/C_Dist_100_LN_7_LD_14_RN_9_RD_15_1.png","img2/300/Congruent/R/C_Dist_300_LN_2_LD_10_RN_12_RD_24_1.png","img2/300/Incongruent/L/I_Dist_300_LN_7_LD_10_RN_8_RD_20_0.png","img2/300/Incongruent/L/I_Dist_300_LN_4_LD_5_RN_8_RD_16_0.png","img2/100/Incongruent/L/I_Dist_100_LN_6_LD_10_RN_11_RD_22_0.png","img2/100/Incongruent/L/I_Dist_100_LN_6_LD_10_RN_7_RD_14_0.png","img2/200/Congruent/L/C_Dist_200_LN_7_LD_21_RN_2_RD_15_0.png","img2/100/Incongruent/L/I_Dist_100_LN_3_LD_5_RN_8_RD_16_0.png","img2/300/Incongruent/L/I_Dist_300_LN_7_LD_10_RN_8_RD_20_0.png","img2/200/Congruent/L/C_Dist_200_LN_15_LD_25_RN_4_RD_10_0.png","img2/300/Congruent/R/C_Dist_300_LN_2_LD_20_RN_10_RD_25_1.png","img2/100/Congruent/R/C_Dist_100_LN_7_LD_14_RN_15_RD_25_1.png","img2/100/Congruent/R/C_Dist_100_LN_2_LD_5_RN_11_RD_22_1.png","img2/100/Incongruent/R/I_Dist_100_LN_13_LD_26_RN_12_RD_20_1.png","img2/300/Incongruent/L/I_Dist_300_LN_4_LD_5_RN_6_RD_12_0.png","img2/300/Congruent/L/C_Dist_300_LN_20_LD_25_RN_13_RD_26_0.png","img2/200/Congruent/R/C_Dist_200_LN_5_LD_10_RN_14_RD_20_1.png","img2/100/Incongruent/L/I_Dist_100_LN_6_LD_10_RN_11_RD_22_0.png","img2/300/Congruent/R/C_Dist_300_LN_3_LD_12_RN_11_RD_20_1.png","img2/200/Congruent/R/C_Dist_200_LN_6_LD_20_RN_11_RD_22_1.png","img2/200/Congruent/R/C_Dist_200_LN_13_LD_26_RN_14_RD_20_1.png","img2/300/Incongruent/R/I_Dist_300_LN_4_LD_20_RN_2_RD_4_1.png","img2/200/Congruent/R/C_Dist_200_LN_3_LD_12_RN_9_RD_20_1.png","img2/300/Congruent/R/C_Dist_300_LN_3_LD_6_RN_4_RD_5_1.png","img2/100/Incongruent/R/I_Dist_100_LN_9_LD_18_RN_6_RD_10_1.png","img2/100/Incongruent/L/I_Dist_100_LN_9_LD_10_RN_20_RD_25_0.png","img2/300/Incongruent/L/I_Dist_300_LN_1_LD_2_RN_2_RD_10_0.png","img2/100/Incongruent/R/I_Dist_100_LN_12_LD_30_RN_2_RD_4_1.png","img2/100/Incongruent/L/I_Dist_100_LN_3_LD_6_RN_4_RD_10_0.png","img2/300/Congruent/R/C_Dist_300_LN_3_LD_6_RN_4_RD_5_1.png","img2/200/Incongruent/L/I_Dist_200_LN_7_LD_10_RN_12_RD_24_0.png","img2/200/Congruent/R/C_Dist_200_LN_3_LD_12_RN_9_RD_20_1.png","img2/200/Congruent/R/C_Dist_200_LN_13_LD_26_RN_14_RD_20_1.png","img2/200/Congruent/R/C_Dist_200_LN_5_LD_10_RN_14_RD_20_1.png","img2/300/Congruent/R/C_Dist_300_LN_1_LD_20_RN_7_RD_20_1.png","img2/300/Incongruent/L/I_Dist_300_LN_4_LD_5_RN_6_RD_12_0.png","img2/200/Congruent/L/C_Dist_200_LN_12_LD_15_RN_6_RD_10_0.png","img2/300/Incongruent/L/I_Dist_300_LN_2_LD_4_RN_6_RD_30_0.png","img2/200/Incongruent/L/I_Dist_200_LN_1_LD_3_RN_2_RD_15_0.png","img2/200/Incongruent/L/I_Dist_200_LN_7_LD_10_RN_14_RD_28_0.png","img2/100/Incongruent/L/I_Dist_100_LN_3_LD_9_RN_7_RD_30_0.png","img2/100/Congruent/R/C_Dist_100_LN_1_LD_2_RN_3_RD_5_1.png","img2/200/Congruent/L/C_Dist_200_LN_7_LD_21_RN_2_RD_15_0.png","img2/200/Incongruent/R/I_Dist_200_LN_4_LD_30_RN_1_RD_3_1.png","img2/200/Congruent/L/C_Dist_200_LN_9_LD_20_RN_4_RD_16_0.png","img2/100/Congruent/L/C_Dist_100_LN_11_LD_22_RN_4_RD_10_0.png","img2/200/Incongruent/L/I_Dist_200_LN_1_LD_3_RN_2_RD_15_0.png","img2/300/Congruent/R/C_Dist_300_LN_1_LD_5_RN_6_RD_12_1.png","img2/300/Congruent/L/C_Dist_300_LN_24_LD_30_RN_8_RD_16_0.png","img2/300/Incongruent/L/I_Dist_300_LN_8_LD_10_RN_9_RD_18_0.png","img2/300/Incongruent/L/I_Dist_300_LN_7_LD_10_RN_8_RD_20_0.png","img2/200/Incongruent/L/I_Dist_200_LN_7_LD_10_RN_8_RD_16_0.png","img2/100/Congruent/R/C_Dist_100_LN_4_LD_10_RN_15_RD_30_1.png","img2/100/Congruent/L/C_Dist_100_LN_11_LD_22_RN_6_RD_15_0.png","img2/300/Congruent/L/C_Dist_300_LN_3_LD_6_RN_2_RD_10_0.png","img2/200/Congruent/R/C_Dist_200_LN_9_LD_30_RN_13_RD_26_1.png","img2/100/Congruent/R/C_Dist_100_LN_2_LD_5_RN_11_RD_22_1.png","img2/100/Incongruent/R/I_Dist_100_LN_9_LD_18_RN_6_RD_10_1.png","img2/200/Incongruent/L/I_Dist_200_LN_4_LD_5_RN_6_RD_10_0.png","img2/200/Incongruent/R/I_Dist_200_LN_6_LD_20_RN_3_RD_6_1.png","img2/300/Incongruent/L/I_Dist_300_LN_2_LD_4_RN_6_RD_30_0.png","img2/100/Congruent/L/C_Dist_100_LN_9_LD_15_RN_8_RD_16_0.png","img2/300/Congruent/R/C_Dist_300_LN_1_LD_3_RN_19_RD_30_1.png","img2/300/Congruent/L/C_Dist_300_LN_24_LD_30_RN_2_RD_4_0.png","img2/300/Congruent/R/C_Dist_300_LN_1_LD_3_RN_19_RD_30_1.png","img2/200/Incongruent/L/I_Dist_200_LN_7_LD_10_RN_14_RD_28_0.png","img2/100/Incongruent/L/I_Dist_100_LN_9_LD_15_RN_14_RD_28_0.png","img2/300/Congruent/R/C_Dist_300_LN_1_LD_3_RN_19_RD_30_1.png","img2/200/Incongruent/R/I_Dist_200_LN_14_LD_30_RN_6_RD_9_1.png","img2/100/Congruent/R/C_Dist_100_LN_6_LD_12_RN_15_RD_25_1.png","img2/300/Incongruent/R/I_Dist_300_LN_13_LD_26_RN_12_RD_15_1.png","img2/300/Congruent/L/C_Dist_300_LN_12_LD_24_RN_2_RD_10_0.png","img2/100/Incongruent/L/I_Dist_100_LN_6_LD_10_RN_11_RD_22_0.png","img2/200/Incongruent/R/I_Dist_200_LN_11_LD_20_RN_3_RD_4_1.png","img2/300/Congruent/L/C_Dist_300_LN_24_LD_30_RN_8_RD_16_0.png","img2/300/Incongruent/L/I_Dist_300_LN_7_LD_10_RN_8_RD_20_0.png","img2/300/Incongruent/R/I_Dist_300_LN_13_LD_26_RN_12_RD_15_1.png","img2/100/Incongruent/R/I_Dist_100_LN_11_LD_22_RN_9_RD_15_1.png","img2/100/Incongruent/L/I_Dist_100_LN_6_LD_10_RN_13_RD_26_0.png","img2/300/Incongruent/R/I_Dist_300_LN_4_LD_20_RN_2_RD_4_1.png"],"dist100_C":[["C_Dist_100_LN_10_LD_25_RN_3_RD_10_0.png","C_Dist_100_LN_11_LD_22_RN_4_RD_10_0.png","C_Dist_100_LN_11_LD_22_RN_6_RD_15_0.png","C_Dist_100_LN_15_LD_25_RN_13_RD_26_0.png","C_Dist_100_LN_3_LD_6_RN_2_RD_5_0.png","C_Dist_100_LN_6_LD_20_RN_5_RD_25_0.png","C_Dist_100_LN_8_LD_16_RN_2_RD_5_0.png","C_Dist_100_LN_9_LD_15_RN_8_RD_16_0.png"],["C_Dist_100_LN_1_LD_2_RN_18_RD_30_1.png","C_Dist_100_LN_1_LD_2_RN_3_RD_5_1.png","C_Dist_100_LN_12_LD_30_RN_13_RD_26_1.png","C_Dist_100_LN_2_LD_5_RN_11_RD_22_1.png","C_Dist_100_LN_2_LD_5_RN_6_RD_12_1.png","C_Dist_100_LN_3_LD_20_RN_4_RD_16_1.png","C_Dist_100_LN_4_LD_10_RN_15_RD_30_1.png","C_Dist_100_LN_4_LD_8_RN_6_RD_10_1.png","C_Dist_100_LN_6_LD_12_RN_15_RD_25_1.png","C_Dist_100_LN_7_LD_14_RN_15_RD_25_1.png","C_Dist_100_LN_7_LD_14_RN_9_RD_15_1.png"]],"dist100_I":[["I_Dist_100_LN_1_LD_2_RN_8_RD_20_0.png","I_Dist_100_LN_2_LD_4_RN_6_RD_15_0.png","I_Dist_100_LN_2_LD_4_RN_8_RD_20_0.png","I_Dist_100_LN_3_LD_5_RN_11_RD_22_0.png","I_Dist_100_LN_3_LD_5_RN_8_RD_16_0.png","I_Dist_100_LN_3_LD_6_RN_4_RD_10_0.png","I_Dist_100_LN_3_LD_9_RN_7_RD_30_0.png","I_Dist_100_LN_4_LD_8_RN_8_RD_20_0.png","I_Dist_100_LN_6_LD_10_RN_11_RD_22_0.png","I_Dist_100_LN_6_LD_10_RN_13_RD_26_0.png","I_Dist_100_LN_6_LD_10_RN_7_RD_14_0.png","I_Dist_100_LN_9_LD_10_RN_20_RD_25_0.png","I_Dist_100_LN_9_LD_15_RN_13_RD_26_0.png","I_Dist_100_LN_9_LD_15_RN_14_RD_28_0.png"],["I_Dist_100_LN_10_LD_25_RN_8_RD_16_1.png","I_Dist_100_LN_10_LD_25_RN_9_RD_18_1.png","I_Dist_100_LN_11_LD_22_RN_9_RD_15_1.png","I_Dist_100_LN_12_LD_24_RN_9_RD_15_1.png","I_Dist_100_LN_12_LD_30_RN_2_RD_4_1.png","I_Dist_100_LN_13_LD_26_RN_12_RD_20_1.png","I_Dist_100_LN_13_LD_26_RN_6_RD_10_1.png","I_Dist_100_LN_17_LD_30_RN_10_RD_15_1.png","I_Dist_100_LN_6_LD_12_RN_3_RD_5_1.png","I_Dist_100_LN_8_LD_16_RN_6_RD_10_1.png","I_Dist_100_LN_8_LD_20_RN_1_RD_2_1.png","I_Dist_100_LN_9_LD_18_RN_6_RD_10_1.png"]],"dist100_S":[["E_Dist_100_LN_2_LD_12_RN_2_RD_30_0.png","E_Dist_100_LN_6_LD_10_RN_6_RD_12_0.png"],["E_Dist_100_LN_6_LD_12_RN_6_RD_10_1.png"]],"dist200_C":[["C_Dist_200_LN_11_LD_22_RN_3_RD_10_0.png","C_Dist_200_LN_12_LD_15_RN_6_RD_10_0.png","C_Dist_200_LN_12_LD_20_RN_6_RD_15_0.png","C_Dist_200_LN_14_LD_28_RN_6_RD_20_0.png","C_Dist_200_LN_15_LD_25_RN_4_RD_10_0.png","C_Dist_200_LN_16_LD_20_RN_12_RD_20_0.png","C_Dist_200_LN_16_LD_30_RN_9_RD_27_0.png","C_Dist_200_LN_20_LD_25_RN_9_RD_15_0.png","C_Dist_200_LN_21_LD_30_RN_2_RD_4_0.png","C_Dist_200_LN_4_LD_10_RN_3_RD_15_0.png","C_Dist_200_LN_4_LD_8_RN_3_RD_10_0.png","C_Dist_200_LN_6_LD_15_RN_3_RD_15_0.png","C_Dist_200_LN_7_LD_21_RN_2_RD_15_0.png","C_Dist_200_LN_8_LD_15_RN_2_RD_6_0.png","C_Dist_200_LN_8_LD_15_RN_3_RD_9_0.png","C_Dist_200_LN_8_LD_15_RN_7_RD_21_0.png","C_Dist_200_LN_9_LD_20_RN_4_RD_16_0.png"],["C_Dist_200_LN_1_LD_2_RN_21_RD_30_1.png","C_Dist_200_LN_13_LD_26_RN_14_RD_20_1.png","C_Dist_200_LN_3_LD_10_RN_11_RD_22_1.png","C_Dist_200_LN_3_LD_10_RN_14_RD_28_1.png","C_Dist_200_LN_3_LD_10_RN_7_RD_14_1.png","C_Dist_200_LN_3_LD_12_RN_9_RD_20_1.png","C_Dist_200_LN_3_LD_6_RN_14_RD_20_1.png","C_Dist_200_LN_5_LD_10_RN_14_RD_20_1.png","C_Dist_200_LN_6_LD_12_RN_7_RD_10_1.png","C_Dist_200_LN_6_LD_20_RN_11_RD_22_1.png","C_Dist_200_LN_7_LD_15_RN_18_RD_27_1.png","C_Dist_200_LN_9_LD_30_RN_13_RD_26_1.png"]],"dist200_I":[["I_Dist_200_LN_1_LD_2_RN_3_RD_10_0.png","I_Dist_200_LN_1_LD_3_RN_2_RD_15_0.png","I_Dist_200_LN_3_LD_4_RN_11_RD_20_0.png","I_Dist_200_LN_4_LD_5_RN_6_RD_10_0.png","I_Dist_200_LN_4_LD_6_RN_14_RD_30_0.png","I_Dist_200_LN_7_LD_10_RN_12_RD_24_0.png","I_Dist_200_LN_7_LD_10_RN_14_RD_28_0.png","I_Dist_200_LN_7_LD_10_RN_8_RD_16_0.png"],["I_Dist_200_LN_11_LD_20_RN_3_RD_4_1.png","I_Dist_200_LN_14_LD_30_RN_12_RD_18_1.png","I_Dist_200_LN_14_LD_30_RN_6_RD_9_1.png","I_Dist_200_LN_3_LD_10_RN_1_RD_2_1.png","I_Dist_200_LN_4_LD_30_RN_1_RD_3_1.png","I_Dist_200_LN_6_LD_20_RN_3_RD_6_1.png","I_Dist_200_LN_7_LD_15_RN_4_RD_6_1.png","I_Dist_200_LN_7_LD_15_RN_6_RD_9_1.png","I_Dist_200_LN_9_LD_15_RN_8_RD_10_1.png"]],"dist200_S":[["E_Dist_200_LN_3_LD_6_RN_3_RD_10_0.png"],["E_Dist_200_LN_3_LD_10_RN_3_RD_6_1.png"]],"dist300_C":[["C_Dist_300_LN_11_LD_22_RN_1_RD_5_0.png","C_Dist_300_LN_11_LD_22_RN_2_RD_10_0.png","C_Dist_300_LN_11_LD_22_RN_4_RD_20_0.png","C_Dist_300_LN_12_LD_24_RN_2_RD_10_0.png","C_Dist_300_LN_18_LD_20_RN_9_RD_15_0.png","C_Dist_300_LN_20_LD_25_RN_13_RD_26_0.png","C_Dist_300_LN_20_LD_25_RN_14_RD_28_0.png","C_Dist_300_LN_20_LD_25_RN_5_RD_10_0.png","C_Dist_300_LN_20_LD_25_RN_8_RD_16_0.png","C_Dist_300_LN_20_LD_25_RN_9_RD_18_0.png","C_Dist_300_LN_24_LD_30_RN_2_RD_4_0.png","C_Dist_300_LN_24_LD_30_RN_8_RD_16_0.png","C_Dist_300_LN_3_LD_6_RN_2_RD_10_0.png","C_Dist_300_LN_4_LD_10_RN_1_RD_10_0.png","C_Dist_300_LN_4_LD_5_RN_2_RD_4_0.png","C_Dist_300_LN_8_LD_16_RN_1_RD_5_0.png","C_Dist_300_LN_9_LD_10_RN_3_RD_5_0.png"],["C_Dist_300_LN_1_LD_20_RN_7_RD_20_1.png","C_Dist_300_LN_1_LD_3_RN_19_RD_30_1.png","C_Dist_300_LN_1_LD_30_RN_8_RD_24_1.png","C_Dist_300_LN_1_LD_5_RN_11_RD_22_1.png","C_Dist_300_LN_1_LD_5_RN_3_RD_6_1.png","C_Dist_300_LN_1_LD_5_RN_6_RD_12_1.png","C_Dist_300_LN_2_LD_10_RN_12_RD_24_1.png","C_Dist_300_LN_2_LD_20_RN_10_RD_25_1.png","C_Dist_300_LN_3_LD_12_RN_11_RD_20_1.png","C_Dist_300_LN_3_LD_6_RN_4_RD_5_1.png","C_Dist_300_LN_4_LD_20_RN_13_RD_26_1.png","C_Dist_300_LN_5_LD_25_RN_6_RD_12_1.png","C_Dist_300_LN_5_LD_25_RN_7_RD_14_1.png","C_Dist_300_LN_7_LD_14_RN_20_RD_25_1.png","C_Dist_300_LN_8_LD_15_RN_10_RD_12_1.png"]],"dist300_I":[["I_Dist_300_LN_1_LD_2_RN_2_RD_10_0.png","I_Dist_300_LN_1_LD_2_RN_3_RD_15_0.png","I_Dist_300_LN_2_LD_4_RN_6_RD_30_0.png","I_Dist_300_LN_3_LD_6_RN_4_RD_20_0.png","I_Dist_300_LN_4_LD_5_RN_6_RD_12_0.png","I_Dist_300_LN_4_LD_5_RN_8_RD_16_0.png","I_Dist_300_LN_7_LD_10_RN_8_RD_20_0.png","I_Dist_300_LN_8_LD_10_RN_14_RD_28_0.png","I_Dist_300_LN_8_LD_10_RN_9_RD_18_0.png"],["I_Dist_300_LN_13_LD_26_RN_12_RD_15_1.png","I_Dist_300_LN_4_LD_20_RN_2_RD_4_1.png"]],"dist300_S":[["E_Dist_300_LN_9_LD_12_RN_9_RD_20_0.png"],["E_Dist_300_LN_18_LD_30_RN_18_RD_20_1.png","E_Dist_300_LN_3_LD_10_RN_3_RD_5_1.png","E_Dist_300_LN_9_LD_20_RN_9_RD_12_1.png"]],"dist500_C":[["C_Dist_500_LN_10_LD_13_RN_7_RD_26_0.png","C_Dist_500_LN_10_LD_15_RN_4_RD_24_0.png","C_Dist_500_LN_12_LD_16_RN_3_RD_12_0.png","C_Dist_500_LN_12_LD_18_RN_4_RD_24_0.png","C_Dist_500_LN_15_LD_18_RN_5_RD_15_0.png","C_Dist_500_LN_15_LD_20_RN_1_RD_4_0.png","C_Dist_500_LN_18_LD_27_RN_1_RD_6_0.png","C_Dist_500_LN_20_LD_24_RN_1_RD_3_0.png","C_Dist_500_LN_20_LD_24_RN_3_RD_9_0.png","C_Dist_500_LN_20_LD_24_RN_7_RD_21_0.png","C_Dist_500_LN_20_LD_28_RN_3_RD_14_0.png","C_Dist_500_LN_21_LD_28_RN_6_RD_24_0.png","C_Dist_500_LN_22_LD_28_RN_2_RD_7_0.png","C_Dist_500_LN_25_LD_30_RN_9_RD_27_0.png","C_Dist_500_LN_4_LD_6_RN_1_RD_6_0.png","C_Dist_500_LN_5_LD_6_RN_2_RD_6_0.png","C_Dist_500_LN_6_LD_9_RN_1_RD_6_0.png","C_Dist_500_LN_7_LD_10_RN_1_RD_5_0.png","C_Dist_500_LN_8_LD_12_RN_1_RD_6_0.png","C_Dist_500_LN_8_LD_12_RN_4_RD_24_0.png"],["C_Dist_500_LN_1_LD_4_RN_12_RD_16_1.png","C_Dist_500_LN_1_LD_4_RN_9_RD_12_1.png","C_Dist_500_LN_1_LD_9_RN_11_RD_18_1.png","C_Dist_500_LN_10_LD_24_RN_22_RD_24_1.png","C_Dist_500_LN_2_LD_12_RN_10_RD_15_1.png","C_Dist_500_LN_2_LD_12_RN_12_RD_18_1.png","C_Dist_500_LN_2_LD_12_RN_4_RD_6_1.png","C_Dist_500_LN_2_LD_24_RN_7_RD_12_1.png","C_Dist_500_LN_2_LD_5_RN_18_RD_20_1.png","C_Dist_500_LN_2_LD_5_RN_9_RD_10_1.png","C_Dist_500_LN_2_LD_8_RN_12_RD_16_1.png","C_Dist_500_LN_2_LD_8_RN_21_RD_28_1.png","C_Dist_500_LN_3_LD_10_RN_4_RD_5_1.png","C_Dist_500_LN_3_LD_12_RN_15_RD_20_1.png","C_Dist_500_LN_3_LD_30_RN_6_RD_10_1.png","C_Dist_500_LN_3_LD_8_RN_14_RD_16_1.png","C_Dist_500_LN_4_LD_16_RN_15_RD_20_1.png","C_Dist_500_LN_4_LD_24_RN_12_RD_18_1.png","C_Dist_500_LN_5_LD_14_RN_6_RD_7_1.png","C_Dist_500_LN_7_LD_21_RN_20_RD_24_1.png","C_Dist_500_LN_7_LD_28_RN_12_RD_16_1.png","C_Dist_500_LN_7_LD_28_RN_9_RD_12_1.png","C_Dist_500_LN_9_LD_27_RN_20_RD_24_1.png"]],"dist500_I":[["I_Dist_500_LN_2_LD_3_RN_4_RD_24_0.png","I_Dist_500_LN_5_LD_6_RN_6_RD_18_0.png","I_Dist_500_LN_7_LD_8_RN_9_RD_24_0.png"],["I_Dist_500_LN_7_LD_21_RN_5_RD_6_1.png"]],"dist500_S":[["E_Dist_500_LN_6_LD_8_RN_6_RD_24_0.png"],["E_Dist_500_LN_2_LD_12_RN_2_RD_3_1.png","E_Dist_500_LN_6_LD_24_RN_6_RD_8_1.png"]]}},{"start_time":1552327681525,"click_time":1552327688037,"finger_time":1552327685616,"fix_duration":1346.2355684420133,"trial":1,"RT":4091,"MT":2421,"sideResp":1,"stimulus":[],"xmouse":[779,779,779,779,779,779,779,779,779,779,779,779,779,779,779,779,779,779,779,779,779,779,779,779,779,779,779,779,779,779,779,779,779,779,779,779,779,779,779,779,779,779,779,779,779,779,779,779,779,779,779,779,779,779,779,779,779,779,779,779,779,779,779,779,779,779,779,779,779,779,779,779,779,779,779,779,779,779,779,779,779,779,779,779,779,779,779,779,779,779,779,779,779,779,779,779,779,779,779,779,779,779,779,779,779,779,779,779,779,779,779,779,779,779,779,779,779,779,779,779,779,779,779,779,779,779,779,779,779,779,779,779,779,779,779,779,779,779,779,779,779,779,779,779,779,779,779,779,779,779,779,779,779,779,779,779,779,779,779,779,779,779,779,779,779,779,779,779,779,779,779,779,779,779,779,779,779,779,779,779,779,779,779,779,779,779,779,779,779,779,779,779,779,779,779,779,779,779,779,779,779,779,779,780,780,775,769,766,764,760,757,754,749,737,703,679,654,634,620,609,609,609,609,609,609,609,609,609,607,597,592,590,590,589,589,588,588,588,588,588,588,587,584,564,507,474,456,446,445,445,445,445,445,445,445,445,445,445,445,445,445,445,445,445,445,445,445,445,445,445,445,445,447,447,448,448,448,448,450,451,451,451,452,452,452,452,452,452,452,452,452,452,452,452,452,452,452,452,452,452,452,452,452,452,452,452,452,452,452,452,452,452,452,452,452,452,452,452,452,452,452,452,452,452,454,456],"ymouse":[615,615,615,615,615,615,615,615,615,615,615,615,615,615,615,615,615,615,615,615,615,615,615,615,615,615,615,615,615,615,615,615,615,615,615,615,615,615,615,615,615,615,615,615,615,615,615,615,615,615,615,615,615,615,615,615,615,615,615,615,615,615,615,615,615,615,615,615,615,615,615,615,615,615,615,615,615,615,615,615,615,615,615,615,615,615,615,615,615,615,615,615,615,615,615,615,615,615,615,615,615,615,615,615,615,615,615,615,615,615,615,615,615,615,615,615,615,615,615,615,615,615,615,615,615,615,615,615,615,615,615,615,615,615,615,615,615,615,615,615,615,615,615,615,615,615,615,615,615,615,615,615,615,615,615,615,615,615,615,615,615,615,615,615,615,615,615,615,615,615,615,615,615,615,615,615,615,615,615,615,615,615,615,615,615,615,615,615,615,615,615,615,615,615,615,615,615,615,615,615,615,615,615,612,567,542,525,515,499,488,476,466,454,437,396,363,329,303,282,264,264,264,264,264,264,264,264,263,261,256,254,253,253,253,253,253,253,253,253,253,253,253,250,238,206,184,170,162,161,161,161,161,161,161,161,161,161,161,161,161,161,161,161,161,161,161,161,161,161,161,159,156,152,151,150,150,150,150,146,143,142,139,139,138,138,138,138,138,138,138,138,138,138,138,138,138,138,138,138,138,138,138,138,138,138,138,138,138,138,138,138,138,138,138,138,138,138,138,138,138,138,138,138,137,119,92],"timestamp_mouse":[17,41,51,71,93,111,132,152,171,192,212,232,251,272,291,311,332,352,372,391,412,431,453,472,492,511,533,551,571,592,611,633,652,672,692,711,731,751,771,792,812,833,852,871,893,912,932,952,971,992,1012,1032,1052,1071,1092,1112,1132,1152,1171,1193,1213,1232,1251,1271,1292,1312,1332,1353,1372,1392,1411,1432,1453,1472,1491,1512,1533,1552,1572,1592,1611,1632,1653,1672,1691,1711,1731,1753,1772,1791,1811,1831,1851,1872,1892,1911,1932,1952,1972,1993,2012,2032,2052,2072,2091,2112,2132,2152,2172,2191,2212,2233,2253,2272,2292,2313,2333,2351,2371,2392,2411,2432,2452,2472,2492,2513,2533,2552,2572,2591,2611,2633,2653,2672,2691,2712,2733,2753,2772,2792,2812,2831,2853,2872,2892,2911,2932,2953,2973,2991,3011,3031,3053,3073,3091,3111,3131,3152,3172,3191,3211,3233,3252,3273,3292,3312,3332,3353,3372,3392,3412,3432,3452,3472,3492,3512,3532,3551,3573,3591,3611,3631,3652,3673,3691,3711,3732,3751,3773,3791,3811,3831,3853,3873,3893,3912,3932,3951,3972,3991,4013,4031,4051,4072,4091,4112,4132,4152,4173,4192,4212,4232,4252,4272,4292,4311,4333,4353,4372,4391,4411,4432,4451,4472,4492,4512,4531,4552,4572,4591,4612,4631,4651,4672,4692,4711,4732,4752,4771,4791,4812,4832,4852,4872,4892,4911,4931,4953,4973,4992,5012,5032,5052,5071,5091,5111,5131,5152,5172,5192,5211,5231,5251,5271,5291,5311,5331,5353,5373,5391,5411,5431,5451,5472,5492,5511,5533,5553,5571,5593,5612,5631,5651,5672,5692,5712,5731,5752,5771,5791,5811,5833,5852,5871,5892,5912,5933,5952,5972,5991,6011,6032,6052,6071,6091,6112,6131,6151,6172,6191,6211,6232,6252,6273,6293,6311,6332,6352,6373,6391,6411,6431,6453,6471,6491,6511],"xSR":741.5,"ySR":573.95,"xT1":424.9,"yT1":0,"xT2":1058.1,"yT2":0,"toosoon":0,"cond_shown":"Incongruent","ratio_trial":200,"L_num":1,"L_den":2,"R_num":3,"R_den":10,"correct_side":1,"subjID":"FabianGarciaJimenez31","gender":"0","school":"4","age":"9"},{"start_time":1552327693435,"click_time":1552327699558,"finger_time":1552327697056,"fix_duration":277.02700387951893,"trial":2,"RT":3621,"MT":2502,"sideResp":1,"stimulus":[],"xmouse":[765,765,765,765,765,765,765,765,765,765,765,765,765,765,765,765,765,765,765,765,765,765,765,765,765,765,765,765,765,765,765,765,765,765,765,765,765,765,765,765,765,765,765,765,765,765,765,765,765,765,765,765,765,765,765,765,765,765,765,765,765,765,765,765,765,765,765,765,765,765,765,765,765,765,765,765,765,765,765,765,765,765,765,765,765,765,765,765,765,765,765,765,765,765,765,765,765,765,765,765,765,765,765,765,765,765,765,765,765,765,765,765,765,765,765,765,765,765,765,765,765,765,765,765,765,765,765,765,765,765,765,765,765,765,765,765,765,765,765,765,765,765,765,765,765,765,765,765,765,765,765,765,765,765,765,765,765,765,765,765,765,765,765,765,765,765,765,765,765,765,765,765,765,765,765,765,765,765,765,765,755,747,741,738,735,733,731,730,729,728,724,719,713,706,698,685,681,680,679,675,664,659,656,653,651,650,650,650,650,650,650,650,650,650,650,650,650,640,631,620,610,610,610,610,610,610,610,609,608,604,590,582,573,568,565,563,562,560,557,554,550,550,548,545,541,532,527,523,521,517,512,509,508,506,504,501,499,498,497,496,493,491,490,490,489,488,488,488,488,488,488,488,488,488,488,488,488,488,488,488,488,488,488,488,488,488,488,488,488,488,487,487,486,485,485,484,483,483,483,483,482,482,481,481,480,479,479],"ymouse":[625,625,625,625,625,625,625,625,625,625,625,625,625,625,625,625,625,625,625,625,625,625,625,625,625,625,625,625,625,625,625,625,625,625,625,625,625,625,625,625,625,625,625,625,625,625,625,625,625,625,625,625,625,625,625,625,625,625,625,625,625,625,625,625,625,625,625,625,625,625,625,625,625,625,625,625,625,625,625,625,625,625,625,625,625,625,625,625,625,625,625,625,625,625,625,625,625,625,625,625,625,625,625,625,625,625,625,625,625,625,625,625,625,625,625,625,625,625,625,625,625,625,625,625,625,625,625,625,625,625,625,625,625,625,625,625,625,625,625,625,625,625,625,625,625,625,625,625,625,625,625,625,625,625,625,625,625,625,625,625,625,625,625,625,625,625,625,625,625,625,625,625,625,625,625,625,625,625,625,625,589,567,550,536,527,511,500,491,487,483,471,460,447,429,413,390,385,381,379,369,348,341,336,333,331,329,329,329,329,329,329,329,329,329,329,329,329,315,303,288,275,275,275,275,275,275,275,274,273,270,253,242,230,223,220,218,218,217,216,215,213,213,212,211,208,197,189,180,173,167,158,153,150,144,140,131,128,125,124,123,118,114,112,110,109,106,106,106,106,106,106,106,106,106,106,106,106,106,106,106,106,106,106,106,106,106,106,106,106,106,104,104,104,104,103,103,102,102,102,102,102,102,102,102,101,100,93],"timestamp_mouse":[10,32,41,61,81,103,123,141,162,183,203,221,241,262,281,303,322,341,363,382,402,423,441,462,482,503,523,542,561,581,602,623,642,662,681,701,723,742,761,782,801,823,842,861,883,902,922,942,963,982,1001,1021,1041,1062,1082,1101,1122,1142,1163,1182,1202,1222,1243,1262,1283,1301,1322,1341,1362,1381,1402,1423,1442,1462,1481,1503,1521,1542,1563,1583,1601,1622,1641,1662,1682,1701,1722,1742,1762,1782,1803,1822,1842,1861,1882,1901,1921,1942,1962,1981,2002,2023,2041,2061,2082,2101,2123,2142,2161,2183,2202,2221,2242,2262,2283,2302,2323,2342,2361,2383,2401,2421,2442,2463,2482,2502,2523,2542,2562,2582,2601,2622,2642,2662,2682,2702,2722,2741,2761,2782,2802,2821,2843,2863,2882,2902,2921,2941,2961,2981,3001,3022,3042,3062,3082,3101,3122,3142,3161,3181,3201,3222,3241,3261,3282,3301,3321,3342,3363,3381,3402,3421,3442,3462,3482,3502,3522,3541,3561,3581,3601,3621,3641,3661,3683,3701,3721,3742,3763,3782,3802,3822,3842,3863,3881,3902,3922,3942,3963,3983,4001,4022,4042,4061,4082,4103,4122,4142,4161,4182,4202,4222,4242,4262,4281,4301,4322,4342,4363,4382,4402,4423,4443,4462,4482,4501,4521,4541,4562,4583,4602,4621,4642,4662,4682,4702,4721,4742,4762,4781,4801,4821,4842,4863,4882,4901,4922,4943,4963,4982,5002,5022,5042,5063,5083,5101,5122,5142,5162,5181,5202,5222,5243,5261,5282,5302,5321,5343,5362,5382,5402,5423,5443,5462,5481,5501,5522,5543,5562,5581,5602,5622,5641,5661,5682,5702,5723,5743,5762,5781,5801,5822,5842,5862,5882,5902,5923,5941,5962,5981,6001,6022,6043,6062,6082,6102,6122],"xSR":741.5,"ySR":573.95,"xT1":424.9,"yT1":0,"xT2":1058.1,"yT2":0,"toosoon":0,"cond_shown":"Congruent","ratio_trial":200,"L_num":7,"L_den":21,"R_num":2,"R_den":15,"correct_side":1,"subjID":"FabianGarciaJimenez31","gender":"0","school":"4","age":"9"},{"start_time":1552327702843,"click_time":1552327709557,"finger_time":1552327707377,"fix_duration":685.4113078287331,"trial":3,"RT":4534,"MT":2180,"sideResp":2,"stimulus":[],"xmouse":[807,807,807,807,807,807,807,804,803,799,798,797,797,797,797,797,795,793,787,782,781,781,781,781,781,781,781,781,781,781,781,781,781,781,781,781,781,781,781,781,781,781,781,781,781,781,781,781,781,781,781,781,781,781,781,781,781,781,781,781,781,781,781,781,781,781,781,781,781,781,781,781,781,781,781,781,781,781,781,781,781,781,781,781,781,781,781,781,781,781,781,781,781,781,781,781,781,781,781,781,781,781,781,781,781,781,781,781,781,781,781,781,781,781,781,781,781,781,781,781,781,781,781,781,781,781,781,781,781,781,781,781,781,781,781,781,781,781,781,781,781,781,781,781,781,781,781,781,781,781,781,781,781,781,781,781,781,781,781,781,781,781,781,781,781,781,781,781,781,781,781,781,781,781,781,781,781,781,781,781,781,781,781,781,781,781,781,781,781,781,781,781,781,781,781,781,781,781,781,781,781,781,781,781,781,781,781,781,781,781,781,781,781,781,781,781,794,808,813,817,817,817,818,821,827,832,837,842,846,853,855,856,856,856,863,872,883,898,916,946,955,956,957,957,957,957,958,958,963,968,969,970,970,970,970,973,974,976,976,978,980,980,982,982,982,982,982,982,982,982,982,985,987,990,994,998,1004,1012,1024,1051,1074,1090,1099,1107,1111,1111,1111,1111,1111,1111,1111,1111,1112,1114,1114,1117,1117,1117,1117,1117,1117,1117,1117,1117,1117,1117,1117,1117,1117,1117,1116,1116,1116,1116,1116,1116,1116,1116,1116,1116,1116,1116,1116,1116,1116,1116,1116,1116,1115,1115,1115,1114,1114,1113,1106],"ymouse":[617,617,617,617,617,617,617,618,618,620,620,620,620,620,620,620,620,620,618,616,616,616,616,616,616,616,616,616,616,616,616,616,616,616,616,616,616,616,616,616,616,616,616,616,616,616,616,616,616,616,616,616,616,616,616,616,616,616,616,616,616,616,616,616,616,616,616,616,616,616,616,616,616,616,616,616,616,616,616,616,616,616,616,616,616,616,616,616,616,616,616,616,616,616,616,616,616,616,616,616,616,616,616,616,616,616,616,616,616,616,616,616,616,616,616,616,616,616,616,616,616,616,616,616,616,616,616,616,616,616,616,616,616,616,616,616,616,616,616,616,616,616,616,616,616,616,616,616,616,616,616,616,616,616,616,616,616,616,616,616,616,616,616,616,616,616,616,616,616,616,616,616,616,616,616,616,616,616,616,616,616,616,616,616,616,616,616,616,616,616,616,616,616,616,616,616,616,616,616,616,616,616,616,616,616,616,616,616,616,616,616,616,616,616,616,616,606,599,595,591,591,591,591,588,578,573,567,562,558,550,547,546,546,546,539,529,517,497,477,441,428,426,425,425,425,425,425,425,416,406,404,401,401,401,401,397,394,392,390,387,384,383,381,381,381,381,381,381,381,381,381,376,371,365,356,348,339,326,309,264,222,195,178,165,158,158,158,158,158,158,158,158,155,148,141,127,120,118,118,118,118,118,118,118,118,118,117,113,111,108,105,105,105,105,105,105,105,105,105,105,105,105,105,105,105,105,105,105,104,104,104,103,103,101,89],"timestamp_mouse":[38,54,73,93,113,133,154,174,194,214,233,254,274,295,315,334,354,373,394,413,434,455,473,493,513,533,553,574,594,613,634,654,675,695,714,734,754,775,794,815,834,855,874,894,914,935,954,974,995,1015,1034,1055,1075,1094,1115,1136,1154,1174,1195,1214,1235,1254,1274,1295,1314,1335,1354,1375,1394,1414,1435,1454,1475,1495,1515,1535,1555,1574,1594,1614,1634,1655,1674,1694,1715,1734,1755,1774,1794,1814,1834,1855,1875,1895,1915,1935,1955,1975,1994,2014,2035,2055,2074,2094,2114,2135,2154,2175,2194,2214,2234,2255,2274,2294,2314,2334,2355,2374,2394,2415,2435,2455,2475,2495,2514,2535,2554,2574,2595,2614,2635,2655,2674,2694,2714,2734,2755,2774,2795,2814,2834,2855,2875,2895,2914,2935,2954,2975,2994,3015,3034,3055,3074,3095,3114,3136,3155,3175,3195,3214,3235,3255,3274,3294,3314,3335,3355,3374,3394,3414,3435,3454,3475,3494,3514,3535,3555,3575,3595,3614,3635,3655,3675,3695,3714,3734,3754,3775,3794,3814,3834,3855,3875,3894,3914,3935,3954,3975,3994,4014,4035,4055,4074,4095,4114,4135,4154,4174,4195,4214,4235,4254,4275,4295,4314,4334,4355,4374,4395,4415,4434,4454,4475,4494,4515,4534,4554,4574,4594,4614,4634,4655,4675,4694,4714,4734,4754,4774,4795,4814,4834,4854,4875,4894,4915,4934,4954,4974,4995,5015,5033,5054,5075,5095,5114,5134,5155,5174,5194,5214,5234,5254,5274,5294,5314,5334,5355,5373,5394,5414,5435,5454,5475,5494,5514,5534,5555,5574,5594,5614,5634,5654,5674,5694,5715,5734,5754,5775,5795,5814,5834,5854,5875,5894,5914,5934,5955,5974,5995,6014,6034,6055,6074,6094,6114,6134,6154,6174,6194,6214,6234,6255,6274,6295,6314,6335,6355,6375,6395,6414,6434,6455,6475,6495,6514,6534,6554,6574,6595,6615,6635,6655,6675,6694,6714],"xSR":741.5,"ySR":573.95,"xT1":424.9,"yT1":0,"xT2":1058.1,"yT2":0,"toosoon":0,"cond_shown":"Incongruent","ratio_trial":200,"L_num":7,"L_den":15,"R_num":4,"R_den":6,"correct_side":2,"subjID":"FabianGarciaJimenez31","gender":"0","school":"4","age":"9"},{"start_time":1552327713909,"click_time":1552327716338,"finger_time":1552327715938,"fix_duration":250,"trial":4,"RT":2029,"MT":400,"sideResp":2,"stimulus":[],"xmouse":[781,781,781,781,781,781,781,781,781,781,781,781,781,781,781,781,781,781,781,781,781,781,781,781,781,781,781,781,781,781,781,781,781,781,781,781,781,781,781,781,781,781,781,781,781,781,781,781,781,781,781,781,781,781,781,781,781,781,781,781,781,781,781,781,781,781,781,781,781,781,781,781,781,781,781,781,781,781,781,781,781,781,781,781,781,781,781,781,781,781,781,781,781,781,781,781,781,781,792,814,828,842,859,895,901,911,914,917,930,941,951,964,973,993,1008,1019,1030,1041,1063,1079,1099,1120],"ymouse":[622,622,622,622,622,622,622,622,622,622,622,622,622,622,622,622,622,622,622,622,622,622,622,622,622,622,622,622,622,622,622,622,622,622,622,622,622,622,622,622,622,622,622,622,622,622,622,622,622,622,622,622,622,622,622,622,622,622,622,622,622,622,622,622,622,622,622,622,622,622,622,622,622,622,622,622,622,622,622,622,622,622,622,622,622,622,622,622,622,622,622,622,622,622,622,622,622,622,611,593,583,570,549,498,491,476,473,468,453,439,428,414,401,370,346,326,304,279,228,193,149,98],"timestamp_mouse":[21,31,48,69,89,109,129,148,168,188,209,229,248,268,289,308,328,348,367,389,408,429,448,468,489,509,528,548,568,589,609,629,648,668,688,708,729,749,768,789,808,828,848,868,889,908,929,948,969,989,1008,1028,1048,1068,1088,1109,1129,1149,1168,1189,1208,1229,1248,1268,1288,1309,1329,1348,1368,1388,1409,1428,1449,1468,1489,1509,1529,1549,1568,1588,1609,1628,1649,1669,1689,1708,1729,1748,1768,1788,1808,1828,1848,1868,1888,1908,1929,1948,1968,1988,2009,2029,2048,2069,2087,2108,2129,2149,2168,2188,2208,2228,2248,2268,2289,2308,2328,2348,2369,2389,2408,2429],"xSR":741.5,"ySR":573.95,"xT1":424.9,"yT1":0,"xT2":1058.1,"yT2":0,"toosoon":0,"cond_shown":"Incongruent","ratio_trial":200,"L_num":7,"L_den":15,"R_num":6,"R_den":9,"correct_side":2,"subjID":"FabianGarciaJimenez31","gender":"0","school":"4","age":"9"},{"start_time":1552327718903,"click_time":1552327724318,"finger_time":1552327720877,"fix_duration":324.8985812874011,"trial":5,"RT":1974,"MT":3441,"sideResp":1,"stimulus":[],"xmouse":[800,800,800,800,800,800,800,800,800,800,800,800,800,800,800,800,800,800,800,800,800,800,800,800,800,800,800,800,800,800,800,800,800,800,800,800,800,800,800,800,800,800,800,800,800,800,800,800,800,800,800,800,800,800,800,800,800,800,800,800,800,800,800,800,800,800,800,800,800,800,800,800,800,800,800,800,800,800,800,800,800,800,800,800,800,800,800,800,800,800,800,800,800,800,800,796,789,781,775,763,760,757,755,750,739,733,726,717,685,664,637,610,584,573,566,566,566,566,566,566,566,566,565,560,546,541,537,536,535,535,535,535,535,535,535,535,535,535,535,535,535,535,535,535,535,535,535,535,535,535,535,535,535,535,535,535,535,535,534,527,524,524,524,524,524,524,524,524,524,524,524,524,524,524,524,524,524,524,524,524,524,524,524,524,524,524,524,524,524,524,524,524,524,524,524,524,524,524,524,524,524,524,524,524,524,524,524,524,525,528,528,528,528,528,528,528,528,528,528,528,528,528,528,528,528,528,528,528,528,528,528,528,528,528,528,528,528,528,528,528,528,528,528,528,527,527,526,525,524,520,516,516,513,512,512,512,512,512,512,512,512,511,511,511,511,511,511,511,511,511,514],"ymouse":[605,605,605,605,604,604,604,604,604,604,604,604,604,604,604,604,604,604,604,604,604,604,604,604,604,604,604,604,604,604,604,604,604,604,604,604,604,604,604,604,604,604,604,604,604,604,604,604,604,604,604,604,604,604,604,604,604,604,604,604,604,604,604,604,604,604,604,604,604,604,604,604,604,604,604,604,604,604,604,604,604,604,604,604,604,604,604,604,604,604,604,604,604,604,604,601,591,580,568,548,541,537,532,526,506,497,486,471,426,396,357,323,287,272,261,261,261,261,261,261,261,261,255,243,209,196,186,182,180,180,180,180,180,180,180,180,180,180,180,180,180,179,172,157,145,144,143,143,143,143,143,143,143,143,143,143,143,140,137,118,111,111,111,111,111,111,111,111,111,111,111,111,111,111,111,111,111,111,111,111,111,111,111,111,111,111,111,111,111,111,111,111,111,111,111,111,111,111,111,111,111,111,111,111,111,111,111,111,111,111,111,111,111,111,111,111,111,111,111,111,111,111,111,111,111,111,111,111,111,111,111,111,111,111,111,111,111,111,111,111,111,111,111,111,111,111,110,110,110,108,106,106,105,104,104,104,104,104,104,104,104,104,104,104,104,104,104,104,104,104,94],"timestamp_mouse":[14,48,54,75,95,115,134,155,175,195,215,234,255,275,294,314,335,354,375,394,415,434,454,475,495,515,535,555,575,594,614,634,655,675,694,715,734,754,775,794,815,834,854,875,894,915,934,955,975,994,1014,1034,1054,1074,1095,1115,1134,1155,1174,1195,1214,1234,1254,1275,1294,1315,1335,1355,1375,1394,1414,1435,1455,1475,1495,1514,1534,1555,1575,1595,1615,1635,1654,1674,1695,1714,1734,1755,1774,1794,1815,1834,1855,1874,1894,1914,1934,1954,1973,1994,2014,2034,2054,2074,2095,2114,2134,2154,2175,2194,2215,2235,2254,2275,2294,2314,2334,2355,2375,2395,2415,2435,2455,2474,2494,2514,2534,2554,2575,2595,2614,2634,2654,2674,2694,2714,2734,2754,2775,2794,2814,2834,2854,2874,2894,2914,2934,2955,2974,2994,3015,3034,3055,3074,3094,3115,3134,3154,3174,3194,3213,3235,3254,3275,3295,3314,3334,3354,3375,3394,3414,3435,3455,3475,3494,3514,3534,3555,3574,3595,3614,3635,3655,3674,3694,3715,3735,3754,3774,3795,3815,3834,3855,3874,3895,3915,3934,3954,3975,3994,4014,4034,4055,4076,4095,4115,4135,4154,4175,4194,4216,4234,4254,4275,4294,4315,4334,4354,4374,4395,4415,4434,4454,4474,4494,4515,4534,4555,4574,4594,4614,4634,4654,4675,4695,4714,4735,4755,4775,4794,4815,4834,4854,4875,4894,4914,4935,4954,4974,4994,5014,5034,5054,5074,5094,5114,5134,5155,5174,5195,5214,5235,5254,5274,5295,5314,5334,5354,5374,5394,5414],"xSR":741.5,"ySR":573.95,"xT1":424.9,"yT1":0,"xT2":1058.1,"yT2":0,"toosoon":0,"cond_shown":"Incongruent","ratio_trial":100,"L_num":1,"L_den":2,"R_num":8,"R_den":20,"correct_side":1,"subjID":"FabianGarciaJimenez31","gender":"0","school":"4","age":"9"},{"start_time":1552327729148,"click_time":1552327733799,"finger_time":1552327731238,"fix_duration":1269.0412921161414,"trial":6,"RT":2090,"MT":2561,"sideResp":2,"stimulus":[],"xmouse":[797,797,797,797,797,797,797,797,797,797,797,797,797,797,797,797,797,797,797,797,797,797,797,797,797,797,797,797,797,797,797,797,797,797,797,797,797,797,797,797,797,797,797,797,797,797,797,797,797,797,797,797,797,797,797,797,797,797,797,797,797,797,797,797,797,797,797,797,797,797,797,797,797,797,797,797,797,797,797,797,797,797,797,797,797,797,797,797,797,797,797,797,797,797,797,797,797,797,797,798,807,816,821,831,835,839,845,852,871,880,888,892,895,897,897,897,897,898,905,912,917,922,924,928,933,935,942,947,959,966,973,978,986,998,1003,1004,1005,1005,1005,1005,1005,1005,1005,1005,1007,1009,1009,1010,1010,1012,1014,1016,1019,1025,1028,1029,1030,1030,1030,1030,1031,1032,1033,1034,1035,1036,1036,1036,1036,1038,1038,1040,1040,1042,1043,1045,1046,1047,1051,1054,1057,1061,1063,1064,1064,1064,1064,1064,1064,1064,1064,1064,1064,1064,1064,1064,1064,1064,1064,1064,1064,1064,1064,1064,1064,1064,1064,1064,1064,1064,1064,1064,1064,1064,1064,1064,1064,1064,1064,1064,1064,1064,1064,1064,1064,1064,1064,1064,1064,1064,1064,1064,1064],"ymouse":[618,618,618,618,618,618,618,618,618,618,618,618,618,618,618,618,618,618,618,618,618,618,618,618,618,618,618,618,618,618,618,618,618,618,618,618,618,618,618,618,618,618,618,618,618,618,618,618,618,618,618,618,618,618,618,618,618,618,618,618,618,618,618,618,618,618,618,618,618,618,618,618,618,618,618,618,618,618,618,618,618,618,618,618,618,618,618,618,618,618,618,618,618,618,618,618,618,618,618,618,610,600,592,579,573,568,557,545,513,498,488,480,476,474,474,474,474,472,464,456,450,442,439,433,429,427,419,414,402,394,384,376,365,348,341,339,339,339,339,339,339,339,339,338,334,331,330,329,329,327,323,320,314,305,299,297,295,295,295,295,292,290,285,279,271,269,269,268,268,264,261,259,257,255,253,250,247,245,238,232,222,204,178,125,111,108,108,108,108,108,108,108,108,108,108,108,108,108,108,108,108,108,108,108,108,108,108,108,108,108,108,108,108,108,108,108,108,108,108,108,108,108,108,108,107,107,107,107,107,107,103,100,98],"timestamp_mouse":[14,41,50,69,89,110,130,149,170,190,210,230,249,270,290,310,330,350,369,390,410,429,450,469,489,509,529,550,569,589,609,630,649,669,689,710,729,750,770,789,810,829,849,870,890,910,929,949,970,990,1009,1030,1049,1070,1089,1110,1128,1148,1169,1189,1210,1230,1249,1269,1289,1309,1330,1349,1369,1390,1410,1429,1449,1470,1489,1509,1530,1550,1569,1590,1609,1629,1650,1669,1689,1709,1730,1750,1769,1789,1809,1831,1849,1869,1890,1909,1930,1949,1969,1989,2010,2030,2049,2069,2090,2110,2130,2150,2169,2189,2209,2229,2249,2270,2290,2310,2329,2349,2369,2389,2409,2429,2449,2469,2489,2509,2529,2550,2569,2589,2609,2629,2649,2669,2689,2710,2730,2750,2770,2790,2809,2829,2849,2869,2889,2909,2929,2949,2970,2989,3009,3029,3049,3069,3089,3109,3130,3149,3169,3189,3209,3229,3250,3269,3289,3309,3330,3349,3369,3389,3409,3429,3449,3469,3490,3509,3529,3549,3569,3589,3609,3629,3650,3669,3690,3710,3730,3750,3769,3790,3809,3830,3849,3869,3890,3909,3929,3950,3969,3990,4009,4030,4049,4070,4090,4109,4129,4149,4169,4190,4209,4230,4249,4269,4290,4310,4329,4350,4369,4390,4409,4429,4450,4469,4489,4510,4530,4550,4569,4589,4609,4630,4650],"xSR":741.5,"ySR":573.95,"xT1":424.9,"yT1":0,"xT2":1058.1,"yT2":0,"toosoon":0,"cond_shown":"Congruent","ratio_trial":100,"L_num":4,"L_den":10,"R_num":15,"R_den":30,"correct_side":2,"subjID":"FabianGarciaJimenez31","gender":"0","school":"4","age":"9"},{"start_time":1552327740069,"click_time":1552327742037,"finger_time":1552327741917,"fix_duration":788.0874475379127,"trial":7,"RT":1848,"MT":120,"sideResp":2,"stimulus":[],"xmouse":[807,808,808,808,808,808,808,808,809,809,809,809,809,809,809,809,809,809,809,809,809,809,809,809,809,809,809,809,809,809,809,809,809,809,809,809,809,809,809,809,809,809,809,809,809,809,809,809,809,809,809,809,809,809,809,809,809,809,809,809,809,809,809,809,809,809,809,809,809,809,809,809,809,809,809,809,809,809,809,809,809,809,809,809,809,809,809,809,809,809,816,827,841,903,941,999,1037,1074,1138],"ymouse":[626,622,622,619,619,619,619,619,619,619,619,619,619,619,619,619,619,619,619,619,619,619,619,619,619,619,619,619,619,619,619,619,619,619,619,619,619,619,619,619,619,619,619,619,619,619,619,619,619,619,619,619,619,619,619,619,619,619,619,619,619,619,619,619,619,619,619,619,619,619,619,619,619,619,619,619,619,619,619,619,619,619,619,619,619,619,619,619,619,618,604,584,560,467,398,297,231,169,74],"timestamp_mouse":[15,41,48,68,89,108,128,148,168,188,208,229,248,268,289,309,328,348,368,389,409,429,449,469,488,508,529,548,568,588,609,628,648,668,689,709,728,749,768,788,808,828,849,868,889,909,929,949,968,988,1008,1028,1049,1068,1089,1108,1129,1149,1168,1188,1209,1229,1248,1268,1289,1309,1328,1349,1368,1389,1408,1427,1449,1468,1488,1508,1528,1548,1569,1587,1609,1629,1649,1668,1689,1708,1728,1748,1768,1788,1809,1828,1848,1868,1888,1908,1929,1948,1968],"xSR":741.5,"ySR":573.95,"xT1":424.9,"yT1":0,"xT2":1058.1,"yT2":0,"toosoon":0,"cond_shown":"Incongruent","ratio_trial":300,"L_num":13,"L_den":26,"R_num":12,"R_den":15,"correct_side":2,"subjID":"FabianGarciaJimenez31","gender":"0","school":"4","age":"9"},{"start_time":1552327747189,"click_time":1552327749658,"finger_time":1552327748918,"fix_duration":949.3886311195057,"trial":8,"RT":1729,"MT":740,"sideResp":1,"stimulus":[],"xmouse":[777,777,777,775,775,775,775,775,775,775,775,775,775,775,775,775,775,775,775,775,775,775,775,775,775,775,775,775,775,775,775,775,775,775,775,775,775,775,775,775,775,775,775,775,775,775,775,775,775,775,775,775,775,775,775,775,775,775,775,775,775,775,775,775,775,775,775,775,775,775,775,775,775,775,775,775,775,775,775,775,775,775,775,775,774,770,758,750,736,727,720,710,700,681,673,654,635,611,561,543,532,524,518,508,507,507,507,507,507,507,507,507,507,507,507,507,507,507,507,507,507,507,500,475],"ymouse":[616,616,616,618,619,619,619,619,619,619,619,619,619,619,619,619,619,619,619,619,619,619,619,619,619,619,619,619,619,619,619,619,619,619,619,619,619,619,619,619,619,619,619,619,619,619,619,619,619,619,619,619,619,619,619,619,619,619,619,619,619,619,619,619,619,619,619,619,619,619,619,619,619,619,619,619,619,619,619,619,619,619,619,619,606,585,546,519,473,453,433,411,387,342,319,266,222,173,71,35,10,0,0,0,0,0,0,0,0,0,0,0,0,0,0,0,0,0,0,0,0,0,0,6],"timestamp_mouse":[13,35,49,68,88,109,128,148,168,189,208,228,249,268,288,309,329,348,369,389,409,429,448,469,489,508,529,548,569,589,609,627,649,669,688,709,728,749,768,788,808,829,848,868,888,909,929,948,969,989,1008,1028,1048,1068,1088,1108,1128,1148,1168,1189,1209,1228,1248,1268,1289,1309,1329,1348,1368,1389,1408,1429,1449,1468,1489,1509,1529,1548,1568,1588,1607,1628,1648,1668,1688,1708,1729,1749,1768,1788,1809,1828,1849,1868,1889,1908,1928,1949,1968,1989,2009,2028,2048,2068,2089,2108,2128,2148,2169,2188,2208,2228,2249,2268,2289,2308,2328,2348,2368,2388,2408,2428,2449,2468],"xSR":741.5,"ySR":573.95,"xT1":424.9,"yT1":0,"xT2":1058.1,"yT2":0,"toosoon":0,"cond_shown":"Incongruent","ratio_trial":300,"L_num":1,"L_den":2,"R_num":3,"R_den":15,"correct_side":1,"subjID":"FabianGarciaJimenez31","gender":"0","school":"4","age":"9"},{"start_time":1552327755545,"click_time":1552327757997,"finger_time":1552327757377,"fix_duration":1265.729206455362,"trial":9,"RT":1832,"MT":620,"sideResp":1,"stimulus":[],"xmouse":[798,798,798,798,798,798,798,798,798,798,798,798,798,798,798,798,798,798,798,798,798,798,798,798,798,798,798,798,798,798,798,798,798,798,798,798,798,798,798,798,798,798,798,798,798,798,798,798,798,798,798,798,798,798,798,798,798,798,798,798,798,798,798,798,798,798,798,798,798,798,798,798,798,798,798,798,798,798,797,797,797,797,797,797,797,797,797,797,796,796,785,722,664,585,468,401,340,333,330,328,327,322,321,320,320,320,320,320,320,322,323,331,334,338,339,339,342,348,352,356,363,391,425],"ymouse":[625,625,625,625,625,625,625,625,625,625,625,625,625,625,625,625,625,625,625,625,625,625,625,625,625,625,625,625,625,625,625,625,625,625,625,625,625,625,625,625,625,625,625,625,625,625,625,625,625,625,625,625,625,625,625,625,625,625,625,625,625,625,625,625,625,625,625,625,625,625,625,625,625,625,625,625,625,625,625,625,625,625,625,625,625,624,624,624,624,623,608,545,473,384,238,146,32,9,0,0,0,0,0,0,0,0,0,0,0,1,1,4,5,6,6,6,8,9,10,11,13,12,2],"timestamp_mouse":[19,48,52,72,92,112,132,152,172,193,211,232,253,273,293,312,332,351,372,393,412,432,453,473,493,513,532,553,571,592,613,632,651,673,692,712,732,753,772,793,813,832,853,873,892,912,932,953,973,993,1013,1032,1053,1073,1092,1113,1133,1153,1172,1192,1212,1232,1252,1272,1292,1312,1333,1352,1373,1392,1412,1433,1452,1472,1493,1512,1532,1552,1573,1592,1613,1633,1653,1673,1693,1712,1733,1752,1772,1791,1813,1832,1852,1873,1893,1912,1932,1952,1972,1992,2012,2032,2053,2072,2092,2112,2133,2152,2173,2192,2213,2232,2253,2272,2293,2313,2331,2352,2372,2393,2413,2432,2452],"xSR":741.5,"ySR":573.95,"xT1":424.9,"yT1":0,"xT2":1058.1,"yT2":0,"toosoon":0,"cond_shown":"Congruent","ratio_trial":100,"L_num":9,"L_den":15,"R_num":8,"R_den":16,"correct_side":1,"subjID":"FabianGarciaJimenez31","gender":"0","school":"4","age":"9"},{"start_time":1552327763407,"click_time":1552327765157,"finger_time":1552327765017,"fix_duration":948.6815685695036,"trial":10,"RT":1610,"MT":140,"sideResp":2,"stimulus":[],"xmouse":[793,793,793,793,793,793,793,793,793,793,790,787,784,783,783,783,783,783,783,783,783,783,783,783,783,783,783,783,783,783,783,783,783,783,783,783,783,783,783,783,783,783,783,783,783,783,783,783,783,783,783,783,783,783,783,783,783,783,783,783,783,783,783,783,783,783,783,783,783,783,783,783,783,783,783,783,783,783,787,805,820,841,867,898,967,1011,1051,1084],"ymouse":[623,623,623,623,623,623,623,623,623,623,623,622,622,622,622,622,622,622,622,622,622,622,622,622,622,622,622,622,622,622,622,622,622,622,622,622,622,622,622,622,622,622,622,622,622,622,622,622,622,622,622,622,622,622,622,622,622,622,622,622,622,622,622,622,622,622,622,622,622,622,622,622,622,622,622,622,621,620,614,583,559,526,486,442,322,242,163,97],"timestamp_mouse":[14,36,50,70,90,111,131,150,170,191,210,230,250,276,291,311,331,351,371,390,410,430,450,471,491,510,531,550,570,590,610,630,650,670,690,711,731,750,771,791,811,831,851,871,891,910,930,950,971,990,1011,1030,1050,1070,1090,1111,1130,1150,1170,1191,1211,1231,1249,1271,1290,1310,1331,1350,1371,1390,1410,1431,1450,1471,1490,1510,1531,1551,1571,1590,1610,1630,1650,1671,1690,1710,1730,1750],"xSR":741.5,"ySR":573.95,"xT1":424.9,"yT1":0,"xT2":1058.1,"yT2":0,"toosoon":0,"cond_shown":"Incongruent","ratio_trial":200,"L_num":7,"L_den":15,"R_num":4,"R_den":6,"correct_side":2,"subjID":"FabianGarciaJimenez31","gender":"0","school":"4","age":"9"},{"start_time":1552327771521,"click_time":1552327774317,"finger_time":1552327773198,"fix_duration":403.47918564608807,"trial":11,"RT":1677,"MT":1119,"sideResp":1,"stimulus":[],"xmouse":[795,795,795,795,795,795,795,795,795,795,795,795,795,795,795,795,795,795,795,795,795,795,795,795,795,795,795,795,795,795,795,795,795,795,795,795,795,795,795,795,795,795,795,795,795,795,795,795,795,795,795,795,795,795,795,795,795,795,795,795,795,795,795,795,795,795,795,795,795,794,793,791,790,788,786,786,784,783,782,777,770,760,747,734,707,696,685,672,652,644,635,625,611,601,576,566,556,547,544,543,543,543,543,543,543,543,543,543,543,541,536,531,529,528,528,528,528,528,528,528,528,527,527,527,523,523,522,522,522,522,522,522,522,522,522,522,522,521,516,494],"ymouse":[636,636,636,636,637,637,637,637,637,637,637,637,637,637,637,637,637,637,637,637,637,637,637,637,637,637,637,637,637,637,637,637,637,637,637,637,637,637,637,637,637,637,637,637,637,637,637,637,637,637,637,637,637,637,637,637,637,637,637,637,637,637,637,637,637,637,637,637,637,637,636,635,635,634,633,633,632,632,631,625,616,601,582,564,526,510,496,473,440,420,399,375,345,307,225,194,161,133,125,125,125,125,125,125,125,125,125,125,125,124,123,122,121,121,121,121,121,121,121,121,121,121,119,118,113,111,111,111,111,111,111,111,111,111,111,111,111,108,102,76],"timestamp_mouse":[16,53,55,77,97,117,137,156,175,196,216,236,257,277,297,316,336,357,376,397,416,437,457,476,497,517,536,556,577,597,617,637,657,677,696,716,737,755,777,796,817,837,857,877,895,917,936,956,976,997,1017,1037,1057,1077,1096,1117,1136,1156,1177,1196,1216,1237,1257,1277,1296,1316,1336,1357,1376,1396,1416,1436,1457,1476,1496,1516,1536,1556,1576,1596,1616,1636,1657,1677,1696,1716,1737,1756,1778,1797,1817,1837,1856,1877,1896,1916,1936,1957,1976,1995,2016,2036,2057,2076,2096,2116,2137,2156,2176,2196,2216,2236,2256,2275,2296,2316,2336,2356,2376,2396,2416,2436,2456,2477,2496,2516,2537,2556,2577,2597,2617,2636,2656,2675,2696,2717,2736,2757,2777,2796],"xSR":741.5,"ySR":573.95,"xT1":424.9,"yT1":0,"xT2":1058.1,"yT2":0,"toosoon":0,"cond_shown":"Incongruent","ratio_trial":100,"L_num":2,"L_den":4,"R_num":6,"R_den":15,"correct_side":1,"subjID":"FabianGarciaJimenez31","gender":"0","school":"4","age":"9"},{"start_time":1552327777604,"click_time":1552327779697,"finger_time":1552327779418,"fix_duration":624.1185534127546,"trial":12,"RT":1814,"MT":279,"sideResp":2,"stimulus":[],"xmouse":[790,790,790,790,790,790,790,789,789,789,788,787,785,784,784,782,781,781,781,781,781,781,781,781,781,781,781,781,781,781,781,781,781,780,778,777,773,772,770,769,769,768,768,768,767,767,766,766,766,766,766,766,766,766,766,766,766,766,766,766,766,766,766,766,766,766,766,766,765,764,764,764,764,764,764,764,764,764,764,764,764,764,764,764,764,764,764,764,764,766,792,808,828,845,861,876,908,926,940,952,990,1010,1030,1053,1074],"ymouse":[608,608,608,608,608,608,608,608,608,608,608,608,607,607,607,607,606,606,606,606,606,606,606,606,606,606,606,606,606,606,606,606,606,606,606,605,604,604,603,602,602,602,602,602,601,601,601,601,601,601,601,601,601,601,601,601,601,601,601,601,601,601,601,601,601,601,601,601,600,600,600,599,599,599,599,599,599,599,599,599,599,599,599,599,599,599,599,599,598,597,566,548,526,504,484,463,418,393,373,355,284,240,192,138,82],"timestamp_mouse":[14,33,60,74,94,113,133,153,174,194,213,233,253,274,293,313,334,353,373,394,413,434,454,473,493,513,534,553,573,593,614,634,653,674,693,713,733,754,773,793,813,833,853,873,894,913,934,953,973,994,1013,1033,1054,1074,1093,1114,1132,1154,1174,1193,1214,1233,1253,1274,1294,1313,1334,1353,1373,1393,1413,1434,1453,1473,1494,1513,1533,1554,1573,1594,1613,1634,1654,1672,1694,1713,1734,1753,1773,1793,1814,1833,1853,1873,1894,1914,1933,1953,1974,1994,2014,2033,2054,2073,2093],"xSR":741.5,"ySR":573.95,"xT1":424.9,"yT1":0,"xT2":1058.1,"yT2":0,"toosoon":0,"cond_shown":"Congruent","ratio_trial":100,"L_num":4,"L_den":8,"R_num":6,"R_den":10,"correct_side":2,"subjID":"FabianGarciaJimenez31","gender":"0","school":"4","age":"9"},{"start_time":1552327784010,"click_time":1552327786597,"finger_time":1552327785637,"fix_duration":250,"trial":13,"RT":1627,"MT":960,"sideResp":1,"stimulus":[],"xmouse":[793,793,793,793,794,795,795,796,796,797,797,803,804,804,804,804,804,804,804,804,804,804,804,804,804,804,804,804,804,804,804,804,804,804,804,804,804,804,804,804,804,804,804,804,804,804,804,804,804,804,804,804,804,804,804,804,804,804,804,804,804,804,804,804,804,804,804,804,804,804,804,804,804,804,804,804,804,804,804,800,792,780,756,746,741,738,731,724,718,708,698,666,641,615,589,564,528,517,503,497,496,496,496,496,496,496,496,496,496,496,496,496,496,496,496,496,496,496,496,496,496,496,496,496,496,496,496,496,498,499],"ymouse":[643,643,643,643,643,644,644,644,644,644,644,637,636,636,636,636,636,636,636,636,636,636,636,636,636,636,636,636,636,636,636,636,636,636,636,636,636,636,636,636,636,636,636,636,636,636,636,636,636,636,636,636,636,636,636,636,636,636,636,636,636,636,636,636,636,636,636,636,636,636,636,636,635,635,635,635,635,634,625,611,591,566,523,506,494,485,468,452,439,419,399,321,264,200,141,94,22,0,0,0,0,0,0,0,0,0,0,0,0,0,0,0,0,0,0,0,0,0,0,0,0,0,0,0,0,0,0,0,0,1],"timestamp_mouse":[10,39,47,67,87,108,127,147,167,187,208,227,248,267,287,308,328,347,367,387,407,427,446,468,488,507,528,547,567,588,607,628,647,667,688,708,727,748,766,788,808,828,848,867,887,907,928,947,968,988,1007,1027,1048,1068,1087,1108,1127,1147,1168,1187,1207,1227,1247,1268,1288,1308,1328,1348,1367,1388,1407,1427,1447,1468,1487,1507,1527,1548,1567,1587,1608,1627,1647,1667,1687,1707,1727,1747,1768,1787,1807,1827,1847,1868,1887,1908,1927,1948,1967,1988,2007,2028,2047,2067,2087,2108,2128,2148,2168,2188,2208,2227,2247,2267,2288,2308,2327,2348,2368,2388,2408,2427,2447,2468,2488,2508,2527,2548,2566,2587],"xSR":741.5,"ySR":573.95,"xT1":424.9,"yT1":0,"xT2":1058.1,"yT2":0,"toosoon":0,"cond_shown":"Incongruent","ratio_trial":200,"L_num":4,"L_den":6,"R_num":14,"R_den":30,"correct_side":1,"subjID":"FabianGarciaJimenez31","gender":"0","school":"4","age":"9"},{"start_time":1552327791852,"click_time":1552327795237,"finger_time":1552327794777,"fix_duration":772.2414399486745,"trial":14,"RT":2925,"MT":460,"sideResp":1,"stimulus":[],"xmouse":[822,822,822,814,800,795,795,795,795,795,795,795,794,794,794,794,794,794,794,794,794,794,799,800,800,802,802,802,802,802,802,802,802,802,802,802,802,802,802,802,802,802,802,802,802,802,802,802,802,802,802,802,802,802,802,802,802,802,802,802,802,802,802,802,802,802,802,802,802,802,802,802,801,801,800,800,800,800,800,799,799,799,799,799,799,799,799,799,799,799,799,799,799,799,799,799,799,799,799,799,799,799,799,799,799,799,799,799,799,799,799,799,799,799,799,799,799,799,799,799,799,798,797,795,794,792,788,788,788,788,788,788,788,788,788,788,788,788,788,787,787,785,784,782,779,768,756,743,730,718,690,665,648,632,617,587,576,565,554,545,537,534,533,532,532,529,528,527,525,524],"ymouse":[630,630,630,626,620,618,618,618,618,618,618,618,618,618,618,618,618,618,618,618,618,618,617,617,617,617,617,617,617,617,617,617,617,617,617,617,617,617,617,617,617,617,617,617,617,617,617,617,617,617,616,616,616,615,615,615,615,615,615,615,615,615,615,615,615,615,615,615,615,615,615,615,615,615,614,614,614,614,614,614,614,614,614,614,614,614,614,614,614,614,614,614,614,614,614,614,614,614,614,614,614,614,614,614,614,614,614,614,614,614,614,614,614,614,614,614,614,614,614,612,612,612,611,610,610,609,608,607,607,607,607,607,607,607,607,607,607,607,607,606,606,605,604,603,600,586,566,547,523,500,446,391,343,289,237,136,108,81,61,49,42,41,41,40,40,40,40,39,38,38],"timestamp_mouse":[14,26,46,67,85,105,125,145,166,186,205,225,245,265,285,305,326,345,366,386,405,426,445,466,485,506,525,545,566,585,605,626,645,665,686,706,725,746,766,786,805,825,845,866,885,905,926,946,965,985,1006,1026,1045,1065,1086,1105,1125,1146,1166,1186,1205,1225,1246,1265,1285,1305,1325,1346,1365,1385,1405,1426,1446,1465,1485,1506,1526,1545,1565,1586,1605,1626,1645,1665,1686,1706,1725,1746,1766,1786,1805,1825,1846,1865,1886,1905,1925,1946,1966,1984,2005,2026,2045,2065,2086,2105,2125,2145,2165,2186,2205,2226,2245,2265,2285,2306,2325,2345,2366,2385,2406,2425,2445,2465,2485,2505,2525,2545,2565,2586,2605,2625,2646,2665,2686,2706,2726,2745,2766,2786,2805,2825,2845,2866,2885,2905,2925,2946,2965,2985,3005,3026,3045,3065,3085,3105,3125,3145,3165,3186,3205,3226,3245,3265,3285,3305,3325,3345,3365,3385],"xSR":741.5,"ySR":573.95,"xT1":424.9,"yT1":0,"xT2":1058.1,"yT2":0,"toosoon":0,"cond_shown":"Congruent","ratio_trial":100,"L_num":1,"L_den":2,"R_num":3,"R_den":5,"correct_side":2,"subjID":"FabianGarciaJimenez31","gender":"0","school":"4","age":"9"},{"start_time":1552327801405,"click_time":1552327803397,"finger_time":1552327803017,"fix_duration":1205.0662199660376,"trial":15,"RT":1612,"MT":380,"sideResp":2,"stimulus":[],"xmouse":[777,779,779,791,805,812,817,818,819,819,819,819,819,819,819,819,819,819,819,819,819,819,819,818,818,817,815,808,801,799,799,799,799,799,799,799,793,792,790,790,790,790,790,790,789,789,789,789,789,789,790,791,793,794,794,794,795,796,797,797,797,797,797,797,797,797,797,797,797,797,797,797,797,797,797,798,798,799,806,821,839,863,888,956,978,1002,1027,1047,1064,1069,1073,1074,1076,1077,1077,1077,1077,1077,1080,1087],"ymouse":[610,610,610,622,637,644,649,649,650,650,650,650,650,650,650,650,650,650,650,650,650,650,650,649,649,649,649,647,645,644,644,644,644,644,644,644,644,644,644,644,644,644,644,644,643,641,640,639,638,635,632,631,630,630,630,630,630,630,630,630,630,630,630,630,630,630,630,630,630,630,630,630,630,630,630,629,629,628,612,581,553,511,466,365,323,281,236,199,167,152,145,140,136,133,132,132,132,132,116,93],"timestamp_mouse":[17,43,52,72,92,113,133,152,172,192,213,233,252,272,293,313,332,352,373,392,412,432,451,472,492,512,532,552,572,592,612,632,653,672,692,713,732,753,772,792,812,832,853,872,892,913,932,953,972,992,1013,1033,1052,1072,1092,1113,1132,1152,1172,1193,1213,1232,1252,1272,1292,1312,1331,1353,1373,1391,1412,1432,1453,1472,1492,1512,1532,1552,1572,1592,1612,1633,1652,1672,1692,1712,1732,1752,1772,1792,1812,1833,1852,1872,1892,1913,1932,1953,1972,1992],"xSR":741.5,"ySR":573.95,"xT1":424.9,"yT1":0,"xT2":1058.1,"yT2":0,"toosoon":0,"cond_shown":"Congruent","ratio_trial":200,"L_num":13,"L_den":26,"R_num":14,"R_den":20,"correct_side":2,"subjID":"FabianGarciaJimenez31","gender":"0","school":"4","age":"9"},{"start_time":1552327807146,"click_time":1552327809157,"finger_time":1552327808938,"fix_duration":1367.401359076398,"trial":16,"RT":1792,"MT":219,"sideResp":1,"stimulus":[],"xmouse":[785,785,785,785,785,785,783,783,783,783,783,782,782,782,782,782,782,782,782,782,782,782,782,782,782,782,782,782,782,782,782,782,782,782,782,782,782,782,782,782,782,782,782,782,782,782,782,782,782,782,782,782,782,782,782,782,782,782,782,782,782,782,782,782,782,782,782,782,782,782,782,782,782,782,782,782,782,782,782,782,782,782,782,782,782,782,782,782,775,763,728,696,623,578,541,515,496,470,462,451,448],"ymouse":[605,605,605,605,605,605,605,605,605,605,605,604,604,604,604,604,604,604,604,604,604,604,604,604,604,604,604,604,604,604,604,604,604,604,604,604,604,604,604,604,604,604,604,604,604,604,604,604,604,604,604,604,604,604,604,604,604,604,604,604,604,604,604,604,604,604,604,604,604,604,604,604,604,604,604,604,604,604,604,604,604,604,604,604,604,604,604,604,587,563,507,463,352,298,255,223,199,164,143,108,97],"timestamp_mouse":[13,35,51,71,92,111,132,151,172,191,212,232,251,272,292,311,332,350,370,392,412,431,451,471,492,512,531,552,571,591,612,632,652,672,691,712,731,751,772,791,812,832,851,871,892,912,932,951,971,992,1011,1031,1052,1071,1091,1112,1131,1151,1172,1191,1211,1232,1252,1271,1292,1312,1332,1352,1372,1392,1411,1431,1451,1471,1492,1512,1531,1551,1571,1591,1612,1631,1651,1672,1692,1712,1732,1751,1771,1792,1811,1831,1851,1872,1891,1911,1932,1951,1972,1991,2011],"xSR":741.5,"ySR":573.95,"xT1":424.9,"yT1":0,"xT2":1058.1,"yT2":0,"toosoon":0,"cond_shown":"Congruent","ratio_trial":200,"L_num":15,"L_den":25,"R_num":4,"R_den":10,"correct_side":1,"subjID":"FabianGarciaJimenez31","gender":"0","school":"4","age":"9"},{"start_time":1552327814062,"click_time":1552327815877,"finger_time":1552327815558,"fix_duration":1483.9557141884102,"trial":17,"RT":1496,"MT":319,"sideResp":2,"stimulus":[],"xmouse":[770,770,770,770,770,770,770,770,771,771,771,771,771,771,771,771,771,771,771,771,771,771,771,771,771,771,771,771,771,771,772,772,772,772,772,772,772,772,772,772,772,772,772,772,772,772,772,772,772,772,772,772,772,772,772,772,772,772,772,772,772,772,772,772,772,772,772,772,772,774,775,776,791,817,834,850,861,882,892,904,916,938,969,985,1011,1036,1058,1084,1097,1115,1133],"ymouse":[607,607,607,608,608,608,608,608,608,608,608,608,608,608,608,608,608,608,608,608,608,608,608,608,608,608,609,609,609,609,609,609,609,609,609,609,609,609,609,609,609,609,609,609,609,609,609,609,609,609,609,609,609,609,609,609,609,609,609,609,609,609,609,609,609,609,609,609,609,609,609,609,602,582,568,552,540,513,499,481,464,433,390,366,330,292,252,193,158,116,60],"timestamp_mouse":[16,48,55,76,96,116,135,156,176,196,216,236,256,276,295,316,335,355,376,396,416,436,456,475,496,516,536,556,575,595,616,636,654,675,695,716,735,755,775,796,815,836,855,876,896,916,936,955,975,995,1016,1035,1055,1076,1095,1116,1136,1155,1175,1196,1215,1235,1256,1275,1296,1316,1336,1356,1375,1395,1416,1435,1456,1475,1496,1515,1535,1555,1575,1595,1614,1636,1655,1675,1695,1715,1735,1755,1775,1795,1815],"xSR":741.5,"ySR":573.95,"xT1":424.9,"yT1":0,"xT2":1058.1,"yT2":0,"toosoon":0,"cond_shown":"Congruent","ratio_trial":300,"L_num":8,"L_den":15,"R_num":10,"R_den":12,"correct_side":2,"subjID":"FabianGarciaJimenez31","gender":"0","school":"4","age":"9"},{"start_time":1552327820671,"click_time":1552327824057,"finger_time":1552327822217,"fix_duration":733.5813092599765,"trial":18,"RT":1546,"MT":1840,"sideResp":2,"stimulus":[],"xmouse":[788,788,788,788,788,788,788,788,788,788,788,788,788,788,788,788,788,788,788,788,788,788,788,788,788,788,788,788,788,788,788,788,788,788,787,787,787,787,787,787,787,787,787,787,787,787,787,787,787,787,787,787,787,787,787,787,787,787,787,787,787,787,787,787,787,787,787,787,787,786,786,786,786,784,781,777,772,765,763,763,763,763,763,763,763,763,763,763,763,763,763,763,763,763,763,763,763,763,763,763,763,763,763,763,763,763,763,763,763,763,763,763,763,763,763,763,763,775,799,806,820,852,970,1033,1092,1162,1227,1382,1431,1467,1495,1521,1543,1570,1579,1580,1580,1580,1580,1580,1580,1580,1580,1579,1577,1564,1526,1427,1405,1394,1390,1385,1378,1363,1332,1296,1271,1248,1245,1238,1231,1219,1200,1195,1188,1181,1172,1167,1160,1158],"ymouse":[628,628,628,628,628,628,628,628,628,628,628,628,628,628,627,627,627,627,627,627,627,627,627,627,627,627,627,627,627,627,627,627,627,627,626,626,626,626,625,625,625,625,625,625,625,625,625,625,625,625,625,625,625,625,625,625,625,625,625,625,625,625,625,625,625,625,625,625,625,625,624,622,619,613,603,590,576,553,548,547,547,547,547,547,547,547,547,547,547,547,547,547,547,547,547,547,547,547,547,547,547,547,547,547,547,547,547,547,547,547,547,547,547,547,547,547,538,507,460,444,425,388,280,231,179,120,59,0,0,0,0,0,0,0,0,0,0,0,0,0,0,0,0,0,2,10,31,70,73,74,75,75,73,71,71,70,69,64,63,61,59,55,49,46,44,42,38,36,34,33],"timestamp_mouse":[12,35,46,66,87,106,127,146,167,187,206,226,246,266,287,307,327,346,366,387,406,427,446,466,486,506,527,546,566,586,607,627,646,666,687,707,727,746,766,786,806,827,846,866,887,906,926,946,966,987,1006,1026,1046,1066,1086,1107,1127,1146,1167,1187,1206,1226,1246,1267,1287,1306,1327,1347,1366,1387,1406,1427,1446,1466,1487,1506,1526,1546,1566,1586,1607,1626,1647,1666,1686,1706,1726,1747,1767,1786,1806,1827,1847,1866,1886,1907,1927,1947,1966,1987,2006,2026,2046,2066,2086,2106,2126,2147,2166,2187,2206,2226,2247,2266,2286,2305,2327,2347,2367,2386,2406,2426,2447,2466,2486,2506,2526,2547,2566,2586,2606,2627,2646,2666,2686,2706,2727,2747,2767,2786,2806,2826,2847,2865,2886,2906,2926,2947,2966,2986,3007,3025,3047,3065,3086,3106,3126,3146,3166,3185,3206,3225,3247,3266,3286,3306,3325,3346,3365,3386],"xSR":741.5,"ySR":573.95,"xT1":424.9,"yT1":0,"xT2":1058.1,"yT2":0,"toosoon":0,"cond_shown":"Congruent","ratio_trial":100,"L_num":2,"L_den":5,"R_num":6,"R_den":12,"correct_side":2,"subjID":"FabianGarciaJimenez31","gender":"0","school":"4","age":"9"},{"start_time":1552327829776,"click_time":1552327832438,"finger_time":1552327831856,"fix_duration":1498.0763110933447,"trial":19,"RT":2080,"MT":582,"sideResp":1,"stimulus":[],"xmouse":[789,789,789,789,789,789,789,789,789,789,789,789,789,789,789,789,789,789,789,789,789,789,789,789,789,789,789,789,789,789,789,789,789,789,789,789,789,789,789,789,789,789,789,789,789,789,789,789,789,789,789,789,789,789,789,789,789,789,789,789,789,789,789,789,789,789,789,789,789,789,789,789,789,789,789,789,789,789,789,789,789,789,789,789,789,789,789,789,789,789,789,789,789,789,789,789,789,789,789,789,788,786,780,774,762,757,752,745,742,737,734,730,726,720,706,698,690,681,667,645,633,620,607,593,570,559,550,541,523,519,514,510,505,491],"ymouse":[614,614,614,614,614,614,614,614,614,614,614,614,614,614,614,614,614,614,614,614,614,614,614,614,614,614,614,614,614,614,614,614,614,614,614,614,614,614,614,614,614,614,614,614,614,614,614,614,614,614,614,614,614,614,614,614,614,614,614,614,614,614,614,614,614,614,614,614,614,614,614,614,614,614,614,614,614,614,614,614,614,614,614,614,614,614,614,614,614,614,614,614,614,614,614,614,614,614,614,614,613,611,600,587,559,548,537,525,519,511,505,497,489,479,457,445,434,421,401,370,353,336,317,299,265,251,235,218,182,173,163,151,131,89],"timestamp_mouse":[10,22,40,60,81,102,121,142,161,181,201,221,240,260,282,301,320,340,361,381,402,422,440,461,482,502,522,541,561,580,601,621,640,661,681,701,720,742,761,781,801,821,842,860,881,902,921,941,961,982,1002,1021,1040,1062,1081,1102,1122,1141,1161,1181,1201,1222,1241,1262,1282,1301,1321,1342,1361,1381,1402,1420,1441,1461,1480,1501,1520,1542,1561,1581,1602,1622,1641,1661,1680,1702,1722,1741,1761,1782,1801,1822,1842,1861,1882,1901,1922,1941,1961,1982,2000,2021,2040,2061,2080,2101,2121,2142,2161,2182,2200,2221,2240,2261,2280,2301,2321,2341,2361,2381,2401,2421,2441,2461,2480,2501,2521,2541,2561,2581,2601,2622,2641,2662],"xSR":741.5,"ySR":573.95,"xT1":424.9,"yT1":0,"xT2":1058.1,"yT2":0,"toosoon":0,"cond_shown":"Congruent","ratio_trial":200,"L_num":4,"L_den":8,"R_num":3,"R_den":10,"correct_side":1,"subjID":"FabianGarciaJimenez31","gender":"0","school":"4","age":"9"},{"start_time":1552327835493,"click_time":1552327838657,"finger_time":1552327837296,"fix_duration":934.2643743873284,"trial":20,"RT":1803,"MT":1361,"sideResp":2,"stimulus":[],"xmouse":[796,796,796,796,796,796,796,796,796,796,796,796,796,796,796,796,796,796,796,796,796,796,796,796,796,796,796,796,796,796,796,796,796,796,796,796,796,796,796,796,796,796,796,796,796,796,796,796,796,796,796,796,796,796,796,796,796,796,796,796,796,796,796,796,796,796,796,796,796,796,796,796,796,796,796,796,796,796,796,796,796,796,796,796,796,796,796,796,817,838,853,865,875,890,896,902,907,913,931,954,975,1002,1047,1134,1171,1186,1198,1207,1221,1225,1230,1230,1230,1230,1230,1230,1230,1230,1230,1230,1230,1230,1226,1216,1180,1157,1133,1116,1106,1105,1105,1105,1105,1105,1105,1105,1105,1105,1105,1105,1105,1105,1105,1105,1105,1105,1105,1105,1105,1105,1105,1105,1105,1105,1105,1105,1105,1105,1103],"ymouse":[611,611,611,611,611,611,611,611,611,611,611,611,611,611,611,611,611,611,611,611,611,611,611,611,611,611,611,611,611,611,611,611,611,611,611,611,611,611,611,611,611,611,611,611,611,611,611,611,611,611,611,611,611,611,611,611,611,611,611,611,611,611,611,611,611,611,611,611,611,611,611,611,611,611,611,611,611,611,611,611,611,611,611,611,611,611,611,611,606,592,578,564,551,533,527,521,517,509,489,466,447,413,351,194,117,73,44,24,0,0,0,0,0,0,0,0,0,0,0,0,0,0,0,0,0,0,0,0,0,0,0,0,0,0,0,0,0,0,0,0,0,0,0,0,0,0,0,0,0,0,0,0,0,0,0,0,0,0,2],"timestamp_mouse":[13,25,43,64,84,103,124,145,165,185,204,224,244,265,285,304,324,343,365,384,403,423,443,465,485,504,524,544,564,584,605,624,645,665,685,705,724,744,765,785,805,825,844,863,885,905,923,944,965,985,1004,1024,1044,1064,1085,1105,1124,1144,1164,1185,1205,1223,1245,1265,1284,1305,1323,1345,1365,1385,1405,1424,1444,1463,1485,1505,1525,1545,1563,1585,1605,1624,1644,1664,1684,1703,1724,1745,1764,1784,1803,1823,1845,1864,1883,1903,1923,1944,1963,1983,2004,2024,2044,2064,2083,2104,2124,2145,2164,2184,2204,2224,2244,2265,2284,2304,2324,2344,2364,2385,2405,2425,2443,2463,2483,2505,2524,2544,2564,2585,2605,2624,2643,2663,2685,2704,2724,2744,2764,2784,2805,2824,2844,2863,2885,2904,2924,2945,2964,2983,3005,3024,3045,3064,3084,3103,3123,3144,3163],"xSR":741.5,"ySR":573.95,"xT1":424.9,"yT1":0,"xT2":1058.1,"yT2":0,"toosoon":0,"cond_shown":"Congruent","ratio_trial":100,"L_num":4,"L_den":10,"R_num":15,"R_den":30,"correct_side":2,"subjID":"FabianGarciaJimenez31","gender":"0","school":"4","age":"9"},{"start_time":1552327842326,"click_time":1552327844876,"finger_time":1552327844158,"fix_duration":1267.2984697141733,"trial":21,"RT":1832,"MT":718,"sideResp":2,"stimulus":[],"xmouse":[801,801,801,801,801,801,801,801,801,801,801,801,801,801,801,801,801,801,801,801,801,801,801,801,801,801,801,801,801,801,801,801,801,801,801,801,801,801,801,801,801,801,801,801,801,801,801,801,801,801,801,801,801,801,801,801,801,801,801,801,801,801,801,801,801,801,801,801,801,801,801,801,801,801,801,801,801,801,801,801,801,801,801,801,801,801,801,801,801,801,807,842,874,936,958,1018,1055,1108,1120,1124,1125,1125,1126,1126,1126,1126,1126,1126,1126,1126,1126,1126,1126,1126,1126,1126,1126,1126,1126,1126,1126,1126,1126,1126,1126,1126,1126,1131],"ymouse":[603,603,603,603,603,603,603,603,603,603,603,603,603,603,603,603,603,603,603,603,603,603,603,603,603,603,603,603,603,603,603,603,603,603,603,603,603,603,603,603,603,603,603,603,603,603,603,603,603,603,603,603,603,603,603,603,603,603,603,603,603,603,603,603,603,603,603,603,603,603,603,603,603,603,603,603,603,603,603,603,603,603,603,603,603,603,603,603,603,603,590,531,473,361,321,187,101,0,0,0,0,0,0,0,0,0,0,0,0,0,0,0,0,0,0,0,0,0,0,0,0,0,0,0,0,0,0,72],"timestamp_mouse":[13,33,51,70,92,111,132,151,172,192,212,232,251,271,291,312,330,351,372,391,410,431,451,471,490,512,531,550,572,591,612,630,651,672,691,712,732,751,771,792,811,832,851,871,892,912,930,951,970,991,1011,1031,1064,1071,1092,1112,1131,1150,1171,1192,1211,1231,1250,1272,1292,1311,1331,1351,1371,1390,1411,1432,1450,1472,1492,1511,1531,1551,1572,1591,1612,1631,1651,1671,1691,1712,1732,1750,1771,1792,1810,1832,1851,1871,1892,1911,1931,1951,1971,1992,2011,2030,2050,2071,2091,2112,2131,2151,2171,2191,2211,2232,2251,2272,2292,2311,2330,2352,2372,2392,2412,2432,2451,2472,2491,2511,2530,2550],"xSR":741.5,"ySR":573.95,"xT1":424.9,"yT1":0,"xT2":1058.1,"yT2":0,"toosoon":0,"cond_shown":"Incongruent","ratio_trial":300,"L_num":4,"L_den":20,"R_num":2,"R_den":4,"correct_side":2,"subjID":"FabianGarciaJimenez31","gender":"0","school":"4","age":"9"},{"start_time":1552327848689,"click_time":1552327850697,"finger_time":1552327850496,"fix_duration":250,"trial":22,"RT":1807,"MT":201,"sideResp":1,"stimulus":[],"xmouse":[787,787,787,787,787,787,787,787,787,787,787,787,787,787,787,787,787,787,787,787,787,787,787,787,787,787,787,787,787,787,787,787,787,787,787,787,787,787,787,789,789,789,789,789,789,789,789,789,789,789,789,789,789,789,789,789,789,789,789,789,789,789,789,789,789,789,789,789,789,789,789,789,789,789,789,789,789,789,789,789,789,789,789,789,789,789,789,789,789,789,773,762,745,726,689,655,636,613,587,531,508],"ymouse":[633,633,633,633,633,633,633,633,633,633,633,633,633,633,633,633,633,633,633,633,633,633,633,633,633,633,633,633,633,633,633,633,633,633,633,633,633,633,633,634,634,634,634,634,634,634,634,634,634,634,634,634,634,634,634,634,634,634,634,634,634,634,634,634,634,634,634,634,634,634,634,634,634,634,634,634,634,634,634,634,634,634,634,634,634,634,634,634,623,614,572,553,524,490,433,361,320,269,205,73,2],"timestamp_mouse":[12,36,48,67,88,108,128,149,169,188,207,228,249,267,289,308,329,349,367,388,409,428,449,467,489,508,527,548,569,589,608,628,648,667,689,709,729,749,768,789,808,828,847,869,889,908,928,949,968,989,1008,1029,1047,1069,1089,1109,1128,1149,1168,1188,1209,1228,1248,1269,1289,1309,1329,1348,1369,1388,1407,1429,1447,1468,1489,1508,1528,1548,1568,1587,1609,1628,1648,1668,1689,1709,1729,1749,1767,1788,1807,1828,1848,1868,1889,1908,1928,1948,1968,1989,2007],"xSR":741.5,"ySR":573.95,"xT1":424.9,"yT1":0,"xT2":1058.1,"yT2":0,"toosoon":0,"cond_shown":"Congruent","ratio_trial":100,"L_num":9,"L_den":15,"R_num":8,"R_den":16,"correct_side":1,"subjID":"FabianGarciaJimenez31","gender":"0","school":"4","age":"9"},{"start_time":1552327858316,"click_time":1552327860657,"finger_time":1552327860456,"fix_duration":1477.257462150923,"trial":23,"RT":2140,"MT":201,"sideResp":1,"stimulus":[],"xmouse":[801,801,801,801,801,801,801,801,801,801,801,801,801,801,801,801,801,801,801,801,801,801,801,801,801,801,801,801,801,801,801,801,801,801,801,801,801,801,801,801,801,801,801,801,801,801,801,801,801,801,801,801,801,801,801,801,801,801,801,801,801,801,801,801,801,801,801,801,802,802,802,802,802,802,802,802,802,802,802,802,802,802,802,802,802,802,802,802,796,792,788,788,788,788,788,788,788,788,788,788,788,788,788,788,787,785,783,778,776,768,751,737,720,690,657,572,538,505],"ymouse":[615,615,615,615,615,615,615,615,615,615,615,615,615,615,615,615,615,615,615,615,615,615,615,615,615,615,615,615,615,615,615,615,615,615,615,615,615,615,615,615,615,615,615,615,615,615,615,615,615,615,615,615,615,615,615,615,615,615,615,615,615,615,615,615,615,615,615,615,615,615,615,615,615,615,615,615,615,615,615,615,615,615,615,615,615,615,615,615,612,611,610,610,610,610,610,610,610,610,610,610,610,610,610,610,600,590,579,564,557,542,516,497,474,428,374,220,152,83],"timestamp_mouse":[10,22,41,64,82,102,121,141,160,182,202,222,241,262,281,301,321,341,360,382,402,421,440,462,482,502,521,540,561,581,601,621,642,660,682,702,722,741,762,782,802,820,840,862,882,902,921,940,962,982,1000,1021,1041,1061,1082,1102,1121,1140,1162,1182,1201,1220,1240,1261,1282,1302,1321,1342,1360,1382,1402,1420,1442,1461,1481,1502,1520,1542,1562,1582,1600,1622,1641,1660,1682,1701,1722,1741,1761,1781,1800,1821,1842,1861,1881,1901,1921,1941,1962,1982,2000,2020,2040,2060,2082,2100,2121,2140,2161,2181,2202,2220,2242,2261,2281,2300,2321,2340],"xSR":741.5,"ySR":573.95,"xT1":424.9,"yT1":0,"xT2":1058.1,"yT2":0,"toosoon":0,"cond_shown":"Incongruent","ratio_trial":100,"L_num":9,"L_den":10,"R_num":20,"R_den":25,"correct_side":1,"subjID":"FabianGarciaJimenez31","gender":"0","school":"4","age":"9"},{"start_time":1552327865491,"click_time":1552327867996,"finger_time":1552327867577,"fix_duration":1153.344177996374,"trial":24,"RT":2086,"MT":419,"sideResp":1,"stimulus":[],"xmouse":[804,804,804,804,804,804,804,804,804,804,804,804,804,804,804,804,804,804,804,804,804,804,804,804,804,804,804,804,804,804,804,804,803,803,803,803,801,801,800,800,800,800,800,800,800,800,800,800,800,800,800,800,800,800,800,800,800,800,800,800,800,800,800,800,800,800,800,800,800,800,800,800,800,800,800,800,800,800,800,800,800,800,800,800,800,800,800,800,800,800,800,800,800,800,800,800,800,800,799,799,799,798,795,794,790,786,777,773,771,769,767,763,759,753,743,716,695,658,649,642,637,620,600,575,536,519],"ymouse":[610,610,610,610,610,610,610,610,610,610,610,610,610,610,610,610,610,610,610,610,610,610,610,610,610,610,610,610,610,610,610,610,610,610,610,610,610,610,610,610,610,610,610,610,610,610,610,610,610,610,610,610,610,610,610,610,610,610,610,610,610,610,610,610,610,610,610,610,610,610,610,610,610,610,610,610,610,610,610,610,610,610,610,610,610,610,609,609,609,609,609,609,609,609,609,609,609,609,608,608,608,607,590,582,562,533,495,480,469,461,457,445,434,420,395,333,285,208,192,180,173,150,126,92,47,29],"timestamp_mouse":[11,26,46,67,86,105,126,147,166,187,205,226,246,267,286,307,326,345,367,387,406,426,447,467,485,506,525,546,566,587,606,626,645,667,687,706,727,746,765,786,807,826,846,865,886,907,926,945,967,987,1005,1027,1045,1066,1087,1106,1127,1146,1165,1187,1206,1226,1245,1266,1287,1306,1326,1345,1367,1385,1406,1426,1447,1466,1487,1506,1526,1545,1566,1587,1606,1627,1647,1667,1687,1707,1725,1747,1765,1786,1806,1826,1847,1866,1886,1907,1926,1947,1966,1987,2007,2026,2046,2067,2086,2106,2126,2145,2166,2187,2206,2226,2246,2267,2286,2306,2326,2347,2365,2386,2405,2427,2446,2466,2485,2505],"xSR":741.5,"ySR":573.95,"xT1":424.9,"yT1":0,"xT2":1058.1,"yT2":0,"toosoon":0,"cond_shown":"Congruent","ratio_trial":200,"L_num":21,"L_den":30,"R_num":2,"R_den":4,"correct_side":1,"subjID":"FabianGarciaJimenez31","gender":"0","school":"4","age":"9"},{"start_time":1552327872045,"click_time":1552327874337,"finger_time":1552327873797,"fix_duration":365.27395710943466,"trial":25,"RT":1752,"MT":540,"sideResp":2,"stimulus":[],"xmouse":[786,786,786,786,786,786,786,786,786,786,786,786,786,786,786,786,786,786,786,786,786,786,786,786,786,786,786,786,786,786,786,786,786,786,785,785,785,785,785,785,785,785,785,785,785,785,785,785,785,785,785,785,785,785,785,785,785,785,785,785,785,785,785,785,785,785,785,785,785,785,785,785,785,785,785,785,785,785,785,785,785,785,785,785,785,785,796,840,898,1017,1062,1111,1157,1193,1220,1247,1248,1248,1248,1248,1248,1248,1248,1248,1248,1249,1249,1249,1249,1249,1249,1245,1225,1204,1151],"ymouse":[615,615,615,615,615,615,615,615,615,615,615,615,615,615,615,615,615,615,615,615,615,615,615,615,615,615,615,615,615,615,615,615,615,615,614,614,614,614,614,614,614,614,614,614,614,614,614,614,614,614,614,614,614,614,614,614,614,614,614,614,614,614,614,614,614,614,614,614,614,614,614,614,614,614,614,614,614,614,614,614,614,614,614,614,614,614,601,558,503,363,285,207,125,49,0,0,0,0,0,0,0,0,0,0,0,0,0,0,0,0,0,0,2,7,13],"timestamp_mouse":[14,41,53,73,93,112,133,153,171,192,212,233,252,273,291,312,333,351,373,392,411,433,453,472,493,511,533,553,573,593,611,633,653,671,691,712,731,752,772,791,812,833,852,873,892,912,931,952,973,992,1013,1032,1052,1073,1092,1112,1131,1153,1172,1191,1211,1233,1251,1271,1292,1312,1332,1351,1373,1391,1412,1433,1452,1472,1491,1513,1533,1551,1571,1592,1613,1633,1653,1672,1692,1712,1731,1752,1772,1792,1812,1833,1852,1873,1892,1912,1933,1953,1972,1992,2012,2032,2052,2072,2092,2111,2132,2153,2172,2192,2212,2232,2252,2272,2292],"xSR":741.5,"ySR":573.95,"xT1":424.9,"yT1":0,"xT2":1058.1,"yT2":0,"toosoon":0,"cond_shown":"Incongruent","ratio_trial":300,"L_num":13,"L_den":26,"R_num":12,"R_den":15,"correct_side":2,"subjID":"FabianGarciaJimenez31","gender":"0","school":"4","age":"9"},{"start_time":1552327877176,"click_time":1552327879697,"finger_time":1552327878836,"fix_duration":936.9400255851067,"trial":26,"RT":1660,"MT":861,"sideResp":2,"stimulus":[],"xmouse":[823,823,823,823,823,823,823,820,815,800,792,790,790,790,789,789,789,789,789,787,786,785,785,785,785,785,785,785,785,786,788,788,787,787,787,787,787,787,787,787,787,787,787,787,787,787,787,787,787,787,787,787,787,787,785,785,785,785,785,785,785,785,785,785,785,785,785,785,785,792,797,799,799,799,799,799,799,799,799,799,800,802,809,815,845,862,879,887,892,894,894,896,899,905,925,939,951,966,973,988,994,1001,1010,1017,1028,1030,1032,1032,1032,1032,1032,1032,1036,1042,1053,1057,1057,1057,1057,1057,1057,1057,1057,1058,1059,1060,1061],"ymouse":[656,656,656,656,656,656,656,654,652,648,645,645,645,645,644,644,644,644,644,643,642,642,642,642,642,642,642,642,641,614,594,587,584,584,584,584,584,584,584,584,584,584,584,584,584,584,584,584,584,584,584,584,584,584,603,603,603,603,603,603,603,603,603,603,603,603,603,603,603,612,616,617,617,617,617,617,617,617,617,617,611,598,579,557,485,444,400,378,365,361,361,359,356,347,321,301,283,261,250,226,216,207,198,191,178,175,173,173,173,172,172,171,163,154,133,123,122,122,122,121,121,121,121,121,109,102,93],"timestamp_mouse":[10,22,41,62,82,102,121,141,160,180,201,222,241,262,282,301,322,342,362,381,400,422,442,462,482,502,522,540,561,580,601,621,641,661,681,700,722,740,760,780,802,821,842,862,880,901,922,941,960,981,1001,1022,1041,1061,1082,1101,1120,1141,1162,1181,1200,1220,1241,1260,1280,1301,1321,1342,1361,1381,1400,1420,1442,1462,1481,1502,1521,1541,1561,1581,1600,1621,1641,1660,1681,1701,1721,1742,1761,1781,1801,1820,1840,1862,1881,1901,1922,1942,1961,1981,2001,2021,2041,2062,2080,2101,2121,2141,2160,2181,2201,2222,2240,2261,2280,2300,2321,2341,2361,2381,2402,2421,2440,2462,2480,2501,2520],"xSR":741.5,"ySR":573.95,"xT1":424.9,"yT1":0,"xT2":1058.1,"yT2":0,"toosoon":0,"cond_shown":"Incongruent","ratio_trial":100,"L_num":9,"L_den":18,"R_num":6,"R_den":10,"correct_side":2,"subjID":"FabianGarciaJimenez31","gender":"0","school":"4","age":"9"},{"start_time":1552327883743,"click_time":1552327886217,"finger_time":1552327885497,"fix_duration":504.4044197849311,"trial":27,"RT":1754,"MT":720,"sideResp":1,"stimulus":[],"xmouse":[823,822,822,822,822,821,821,821,821,821,821,820,820,820,820,820,821,822,822,822,822,822,822,822,822,822,822,822,822,822,822,822,822,822,821,821,821,814,809,807,806,806,806,806,806,806,806,806,806,806,806,806,806,806,806,806,806,806,806,806,806,806,806,806,806,806,806,806,806,806,806,806,806,806,806,806,806,806,806,806,806,806,806,806,806,806,804,786,755,700,638,529,490,465,445,439,434,434,434,434,434,434,434,434,434,434,434,434,434,434,434,434,434,434,434,434,434,434,434,434,434,434,434,434],"ymouse":[594,594,594,594,594,594,594,594,594,594,594,594,594,594,594,594,594,595,595,595,595,595,595,595,595,595,595,595,595,595,595,595,595,595,596,596,596,597,598,598,599,599,599,599,599,599,599,599,599,599,599,599,599,599,599,599,599,599,599,599,599,599,599,599,599,599,599,599,599,599,599,599,599,599,599,599,599,599,599,599,599,599,599,599,599,599,598,558,483,377,267,65,0,0,0,0,0,0,0,0,0,0,0,0,0,0,0,0,0,0,0,0,0,0,0,0,0,0,0,0,0,0,0,2],"timestamp_mouse":[15,39,54,75,94,114,133,154,175,195,214,235,253,275,294,314,335,354,374,394,414,433,453,475,495,514,534,555,574,594,614,635,654,674,694,714,734,753,773,794,815,834,854,875,894,915,933,954,975,995,1015,1033,1055,1075,1095,1115,1134,1155,1175,1195,1213,1235,1254,1274,1294,1315,1335,1355,1375,1394,1414,1433,1453,1473,1494,1515,1535,1555,1574,1594,1615,1634,1653,1673,1694,1715,1733,1754,1775,1794,1813,1833,1854,1874,1894,1914,1935,1954,1975,1994,2014,2034,2054,2075,2094,2115,2133,2154,2173,2195,2215,2235,2253,2275,2294,2315,2334,2354,2375,2394,2414,2434,2454,2474],"xSR":741.5,"ySR":573.95,"xT1":424.9,"yT1":0,"xT2":1058.1,"yT2":0,"toosoon":0,"cond_shown":"Congruent","ratio_trial":100,"L_num":3,"L_den":6,"R_num":2,"R_den":5,"correct_side":1,"subjID":"FabianGarciaJimenez31","gender":"0","school":"4","age":"9"},{"start_time":1552327888847,"click_time":1552327890998,"finger_time":1552327890796,"fix_duration":369.33910216571195,"trial":28,"RT":1949,"MT":202,"sideResp":2,"stimulus":[],"xmouse":[829,829,829,829,828,824,817,813,810,808,805,800,800,800,800,800,800,800,800,800,800,800,800,800,800,800,800,800,800,800,800,800,800,800,800,800,800,800,800,800,800,800,800,800,800,800,800,800,800,800,800,800,800,801,801,801,801,801,801,801,801,801,801,801,801,801,801,801,801,801,801,801,801,801,801,801,801,801,801,801,801,801,801,801,801,801,801,801,801,801,801,801,801,801,802,805,817,893,935,971,1000,1039,1051,1059,1066,1071,1079,1083],"ymouse":[638,638,638,638,637,633,627,625,622,622,622,624,624,624,624,624,624,624,624,624,624,624,624,624,624,624,624,624,624,624,624,624,624,624,624,624,624,624,624,624,624,624,624,624,624,624,624,624,624,624,624,624,624,625,625,625,625,625,625,625,625,625,625,625,625,625,625,625,625,625,625,625,625,625,625,625,625,625,625,625,625,625,625,625,625,625,625,625,625,625,625,625,625,625,625,620,599,487,430,373,322,238,208,192,175,158,129,98],"timestamp_mouse":[10,39,50,70,90,111,130,150,169,190,210,230,250,271,290,310,331,349,370,390,410,430,450,470,491,511,531,550,570,589,610,630,649,669,690,711,731,750,771,790,810,829,850,871,891,910,930,949,971,990,1011,1029,1050,1071,1090,1110,1129,1150,1171,1190,1210,1230,1251,1270,1289,1309,1330,1350,1370,1390,1411,1430,1450,1470,1491,1511,1530,1550,1569,1591,1611,1629,1650,1669,1691,1711,1730,1750,1770,1791,1810,1830,1851,1870,1890,1911,1930,1949,1970,1990,2010,2029,2049,2070,2090,2109,2130,2151],"xSR":741.5,"ySR":573.95,"xT1":424.9,"yT1":0,"xT2":1058.1,"yT2":0,"toosoon":0,"cond_shown":"Congruent","ratio_trial":200,"L_num":3,"L_den":6,"R_num":14,"R_den":20,"correct_side":2,"subjID":"FabianGarciaJimenez31","gender":"0","school":"4","age":"9"},{"start_time":1552327897068,"click_time":1552327898598,"finger_time":1552327898497,"fix_duration":848.9708365765789,"trial":29,"RT":1429,"MT":101,"sideResp":1,"stimulus":[],"xmouse":[775,775,775,775,775,775,775,775,775,775,775,775,775,775,775,775,775,775,775,775,775,775,775,775,775,775,775,775,775,775,775,775,775,775,775,775,775,775,775,775,775,775,775,775,775,775,775,775,775,775,775,775,775,775,775,775,775,775,775,775,775,775,775,775,775,775,775,775,775,772,766,712,649,597,555,522,481],"ymouse":[620,620,620,620,620,620,620,620,620,620,620,620,620,620,620,620,620,620,620,620,620,620,620,620,620,620,620,620,620,620,620,620,620,620,620,620,620,620,620,620,620,620,620,620,620,620,620,620,620,620,620,620,620,620,620,620,620,620,620,620,620,620,620,620,620,620,620,620,620,616,600,486,359,266,179,108,16],"timestamp_mouse":[13,39,48,70,89,109,129,149,169,188,210,230,250,269,290,309,330,350,369,390,409,430,448,468,489,510,529,550,568,589,609,629,648,669,689,710,728,748,768,790,810,828,848,868,890,910,930,949,970,990,1009,1030,1049,1068,1090,1110,1128,1150,1170,1189,1209,1229,1250,1269,1290,1308,1329,1350,1369,1389,1410,1429,1448,1469,1490,1509,1530],"xSR":741.5,"ySR":573.95,"xT1":424.9,"yT1":0,"xT2":1058.1,"yT2":0,"toosoon":0,"cond_shown":"Incongruent","ratio_trial":200,"L_num":7,"L_den":10,"R_num":8,"R_den":16,"correct_side":1,"subjID":"FabianGarciaJimenez31","gender":"0","school":"4","age":"9"},{"start_time":1552327902004,"click_time":1552327904277,"finger_time":1552327903498,"fix_duration":866.7897385342173,"trial":30,"RT":1494,"MT":779,"sideResp":2,"stimulus":[],"xmouse":[793,793,793,793,793,793,793,793,793,793,793,793,793,793,793,793,793,793,793,793,793,793,793,793,793,793,793,793,793,793,793,793,793,793,793,793,793,793,793,793,793,793,793,793,793,793,793,793,793,793,793,793,793,793,793,793,793,793,793,793,793,793,793,793,793,793,793,793,793,793,793,793,803,823,890,932,964,990,1007,1018,1030,1035,1037,1040,1045,1052,1052,1052,1052,1052,1052,1053,1054,1054,1054,1054,1054,1054,1054,1054,1054,1054,1054,1054,1054,1054,1054,1054,1054,1055,1055,1056,1058,1060],"ymouse":[625,625,625,625,625,625,625,625,625,625,625,625,625,625,625,625,625,625,625,625,625,625,625,625,625,625,625,625,625,625,625,625,625,625,625,625,625,625,625,625,625,625,625,625,625,625,625,625,625,625,625,625,625,625,625,625,625,625,625,625,625,625,625,625,625,625,625,625,625,625,625,625,613,590,507,451,402,355,315,290,258,249,239,227,201,158,138,122,109,96,80,73,67,66,66,66,66,66,66,66,66,66,66,66,66,66,66,66,66,66,66,66,66,66],"timestamp_mouse":[13,41,54,73,93,113,134,153,174,193,214,233,253,273,292,314,334,354,374,392,413,433,452,473,493,513,532,553,574,594,614,632,653,673,694,714,732,753,774,793,814,834,854,873,894,914,933,952,974,993,1013,1033,1054,1074,1092,1112,1133,1154,1174,1194,1213,1234,1253,1273,1294,1314,1334,1354,1373,1394,1414,1433,1453,1474,1494,1512,1533,1554,1573,1592,1612,1633,1653,1672,1692,1714,1732,1753,1773,1793,1813,1833,1852,1873,1892,1913,1933,1954,1973,1993,2013,2033,2054,2073,2092,2113,2134,2153,2174,2193,2212,2233,2253,2272],"xSR":741.5,"ySR":573.95,"xT1":424.9,"yT1":0,"xT2":1058.1,"yT2":0,"toosoon":0,"cond_shown":"Congruent","ratio_trial":300,"L_num":5,"L_den":25,"R_num":6,"R_den":12,"correct_side":2,"subjID":"FabianGarciaJimenez31","gender":"0","school":"4","age":"9"},{"start_time":1552327907577,"click_time":1552327909598,"finger_time":1552327909336,"fix_duration":939.1085454029014,"trial":31,"RT":1759,"MT":262,"sideResp":2,"stimulus":[],"xmouse":[797,797,797,797,797,797,797,797,797,797,797,797,797,797,797,797,797,797,797,797,797,797,797,797,797,797,797,797,797,797,797,797,797,797,797,797,797,797,797,797,797,797,797,797,797,797,797,797,797,797,797,797,797,797,797,797,797,797,797,796,795,794,794,794,794,794,794,794,794,794,794,794,794,794,794,794,794,794,794,794,794,794,794,793,793,799,836,878,925,965,1002,1073,1091,1101,1109,1114,1123,1127,1130,1132,1136],"ymouse":[604,604,604,604,604,604,604,604,604,604,604,604,604,604,604,604,604,604,604,604,604,604,604,604,604,604,604,604,604,604,604,604,604,604,604,604,604,604,604,604,604,604,604,604,604,604,604,604,604,604,604,604,604,604,604,604,604,604,604,604,603,603,603,603,603,603,603,603,603,603,603,603,603,603,603,603,603,603,603,603,603,603,603,603,603,603,591,571,533,493,436,288,243,212,190,177,156,143,124,104,81],"timestamp_mouse":[20,40,59,80,101,120,140,159,181,201,220,240,259,279,300,320,340,359,380,401,420,440,460,480,501,520,539,559,581,600,621,640,660,680,701,721,739,760,781,800,820,841,860,879,901,920,940,961,980,1001,1020,1040,1061,1080,1101,1119,1139,1159,1179,1199,1221,1240,1259,1281,1301,1320,1340,1359,1381,1401,1421,1440,1460,1479,1501,1521,1540,1560,1580,1601,1620,1640,1661,1679,1701,1720,1740,1759,1780,1800,1820,1840,1859,1879,1901,1920,1940,1959,1979,1999,2021],"xSR":741.5,"ySR":573.95,"xT1":424.9,"yT1":0,"xT2":1058.1,"yT2":0,"toosoon":0,"cond_shown":"Incongruent","ratio_trial":300,"L_num":4,"L_den":20,"R_num":2,"R_den":4,"correct_side":2,"subjID":"FabianGarciaJimenez31","gender":"0","school":"4","age":"9"},{"start_time":1552327912828,"click_time":1552327915637,"finger_time":1552327914777,"fix_duration":1430.5110775473454,"trial":32,"RT":1949,"MT":860,"sideResp":1,"stimulus":[],"xmouse":[807,807,807,807,807,807,807,807,807,807,807,807,807,807,807,807,807,807,807,807,807,807,807,807,807,807,807,807,807,807,807,807,807,807,807,807,807,807,807,807,807,807,807,807,807,807,807,807,807,807,807,807,807,807,807,807,807,807,807,807,807,807,807,807,807,807,807,807,807,807,807,807,807,807,807,807,807,807,807,807,807,807,807,807,807,807,807,807,807,807,807,807,807,807,807,807,800,790,784,773,743,725,707,691,677,658,653,646,643,640,633,628,624,624,624,619,615,613,612,612,609,594,564,549,544,541,533,532,532,532,532,532,532,532,532,532,532,532,530,525,506],"ymouse":[614,615,615,615,615,615,615,615,615,615,615,615,615,615,615,615,615,615,615,615,615,615,615,615,615,615,615,615,615,615,615,615,615,615,615,615,615,615,615,615,615,615,615,615,615,615,615,615,615,615,615,615,615,615,615,615,615,615,615,615,615,615,615,615,615,615,615,615,615,615,615,615,615,615,615,615,615,615,615,615,615,615,615,615,615,615,615,615,615,615,615,615,615,615,615,607,591,565,540,505,396,326,266,206,155,96,74,51,40,30,12,3,0,0,0,0,0,0,0,0,0,0,4,7,8,10,13,13,13,13,13,13,13,13,13,13,13,13,13,12,9],"timestamp_mouse":[15,32,50,70,89,109,129,150,170,191,208,228,250,269,290,309,330,348,369,390,409,428,450,469,489,508,530,549,569,590,609,629,650,670,689,709,729,750,770,789,809,830,848,869,890,909,929,949,970,989,1009,1028,1048,1070,1088,1108,1129,1150,1169,1189,1209,1228,1248,1270,1289,1309,1329,1350,1369,1389,1408,1429,1450,1470,1488,1510,1530,1550,1569,1590,1610,1630,1650,1670,1689,1709,1729,1748,1769,1790,1810,1829,1849,1870,1890,1908,1929,1949,1969,1989,2009,2029,2050,2069,2090,2108,2129,2149,2169,2189,2209,2228,2249,2269,2290,2309,2329,2348,2369,2389,2409,2428,2449,2469,2489,2508,2529,2549,2568,2588,2609,2630,2649,2670,2689,2708,2728,2748,2770,2789,2809],"xSR":741.5,"ySR":573.95,"xT1":424.9,"yT1":0,"xT2":1058.1,"yT2":0,"toosoon":0,"cond_shown":"Congruent","ratio_trial":100,"L_num":3,"L_den":6,"R_num":2,"R_den":5,"correct_side":1,"subjID":"FabianGarciaJimenez31","gender":"0","school":"4","age":"9"},{"start_time":1552327918581,"click_time":1552327920517,"finger_time":1552327920036,"fix_duration":982.0091044454293,"trial":33,"RT":1455,"MT":481,"sideResp":1,"stimulus":[],"xmouse":[782,782,782,782,782,782,782,782,782,782,782,782,782,782,782,782,782,782,782,782,782,782,782,782,782,782,782,782,782,782,782,782,782,782,782,782,782,782,782,782,782,782,782,782,782,782,782,782,782,782,782,782,782,782,782,782,782,782,782,782,782,782,782,782,782,782,782,782,782,782,782,782,782,775,763,745,720,679,629,602,578,559,549,539,534,532,530,526,518,514,512,510,509,509,509,509,506],"ymouse":[575,575,575,575,575,575,575,575,575,575,575,575,575,575,575,575,575,575,575,575,575,575,575,575,575,575,575,575,575,575,575,575,575,575,575,575,575,575,575,575,575,575,575,575,575,575,575,575,575,575,575,575,575,575,575,575,575,575,575,575,575,575,575,575,575,575,575,575,575,575,575,574,573,526,485,439,378,292,188,140,100,66,43,17,9,4,2,0,0,0,0,0,0,0,0,0,2],"timestamp_mouse":[17,37,55,77,96,117,136,156,176,196,217,236,256,277,296,315,336,356,376,395,417,437,456,475,496,517,536,556,577,596,615,637,656,6