[{"start_time":1552309846841,"click_time":1552309854529,"finger_time":1552309846848,"fix_duration":1330.8706849065838,"trial":0,"RT":7,"MT":7681,"sideResp":2,"stimulus":"img/900/equaldotanddens/L/1_Ratio_900_L_10_R_9.png","xmouse":[754,754,754,754,754,754,754,754,754,754,754,754,754,754,754,754,754,754,754,754,754,754,754,754,754,754,754,754,754,754,754,754,754,754,754,754,754,753,753,753,753,753,753,753,753,753,753,753,757,774,784,791,796,796,796,796,796,796,796,796,797,797,797,797,798,798,798,798,798,798,798,798,798,798,798,798,799,800,800,800,800,800,800,800,801,802,803,803,799,793,790,789,788,788,788,788,788,788,788,788,788,788,788,788,788,788,788,788,788,788,788,788,788,789,789,789,789,789,789,789,789,789,789,789,789,789,789,789,789,789,789,789,789,789,789,789,789,789,789,789,789,789,789,789,789,789,789,789,789,789,789,789,789,789,789,789,789,789,789,789,789,789,789,789,789,789,789,789,789,789,789,789,789,789,789,789,789,789,789,789,789,789,789,789,789,789,789,789,789,789,789,789,789,789,789,789,789,789,789,789,789,789,789,789,789,789,789,789,789,789,789,789,789,789,789,789,789,789,789,789,789,789,789,789,789,789,789,789,789,789,789,789,789,789,789,789,789,789,789,789,789,789,789,789,789,789,789,789,789,789,789,789,789,789,789,789,789,789,789,789,789,789,789,789,789,789,789,789,789,789,789,789,789,789,789,789,789,789,789,789,789,789,789,789,789,789,789,789,789,789,789,789,789,789,789,789,789,789,789,789,789,789,789,789,789,789,789,789,789,789,789,789,789,789,789,789,789,789,789,789,789,789,789,789,789,789,789,789,789,789,789,789,789,789,789,789,789,789,789,789,789,789,789,789,789,789,789,789,789,789,789,789,789,789,789,789,789,788,782,775,775,773,771,771,805,820,836,860,880,916,930,944,959,974,1003,1013,1022,1027,1033,1056,1066,1076,1084,1090,1099],"ymouse":[469,469,469,469,469,469,469,469,469,469,469,469,469,469,469,469,469,469,469,469,469,469,469,469,469,469,469,469,469,469,469,469,469,469,469,469,469,468,468,468,468,468,468,468,468,468,468,468,468,469,474,480,486,490,494,494,494,494,494,495,495,495,495,494,494,494,494,494,494,494,494,494,494,494,494,494,493,492,492,492,492,492,492,491,490,489,490,494,501,515,520,522,524,524,524,524,524,524,524,524,524,524,524,524,524,524,524,524,524,524,524,524,524,524,524,524,524,524,524,524,524,524,524,524,524,524,524,524,524,524,524,524,524,524,523,523,523,523,523,523,523,523,523,523,523,523,523,523,523,523,523,523,523,523,523,523,523,523,523,523,523,523,523,523,523,523,523,523,523,523,523,523,523,523,523,523,523,523,523,523,523,523,523,523,523,523,523,523,523,523,523,523,523,523,523,523,523,523,523,523,523,523,523,523,523,523,523,523,523,523,523,523,523,523,523,523,523,523,523,523,523,523,523,523,523,523,523,523,523,523,523,523,523,523,523,523,523,523,523,523,523,523,523,523,523,523,523,523,523,523,523,523,523,523,523,523,523,523,523,523,523,523,523,523,523,523,523,523,523,523,523,523,523,523,523,523,523,523,523,523,523,523,523,523,523,523,523,523,523,523,523,523,523,523,523,523,523,523,523,523,523,523,523,523,523,523,523,523,523,523,523,523,523,523,523,523,523,523,523,523,523,523,523,523,523,523,523,523,523,523,523,523,523,523,523,523,523,523,523,523,523,523,523,523,523,523,523,523,523,523,523,523,523,523,523,523,523,523,523,522,522,525,529,532,503,479,443,376,325,237,210,186,169,155,139,136,135,133,131,125,121,116,109,104,89],"timestamp_mouse":[7,26,48,67,88,107,126,147,168,188,207,227,248,267,287,306,326,346,367,388,406,427,446,467,486,507,527,547,567,587,607,628,648,667,687,707,727,746,768,788,807,828,847,867,886,906,927,947,968,986,1006,1026,1046,1066,1088,1108,1126,1146,1166,1187,1206,1227,1248,1266,1286,1308,1327,1346,1367,1387,1406,1426,1447,1467,1486,1507,1527,1548,1566,1586,1606,1627,1646,1667,1687,1707,1728,1748,1766,1787,1806,1827,1846,1868,1887,1907,1928,1946,1967,1988,2008,2028,2047,2067,2087,2107,2127,2146,2166,2187,2206,2226,2247,2266,2287,2307,2328,2348,2367,2387,2407,2427,2446,2468,2488,2507,2527,2547,2568,2587,2607,2627,2646,2668,2687,2708,2728,2748,2768,2786,2807,2827,2848,2867,2888,2907,2927,2948,2968,2987,3007,3026,3047,3067,3086,3108,3128,3146,3168,3186,3207,3227,3247,3267,3288,3308,3326,3347,3367,3387,3407,3426,3446,3467,3486,3506,3527,3548,3566,3587,3607,3628,3647,3668,3687,3708,3727,3748,3766,3786,3808,3827,3846,3866,3888,3907,3927,3947,3966,3988,4007,4027,4047,4067,4088,4107,4128,4147,4166,4187,4208,4228,4247,4267,4286,4308,4327,4348,4368,4387,4407,4428,4446,4467,4487,4506,4526,4548,4567,4586,4607,4626,4647,4666,4686,4706,4727,4747,4768,4787,4808,4827,4846,4868,4888,4907,4928,4947,4967,4987,5006,5027,5048,5066,5086,5108,5127,5148,5167,5187,5207,5227,5248,5266,5287,5307,5328,5348,5367,5387,5407,5428,5447,5466,5486,5506,5526,5548,5567,5587,5606,5627,5648,5667,5686,5707,5726,5746,5767,5786,5807,5826,5847,5866,5886,5907,5928,5947,5966,5987,6007,6027,6047,6067,6086,6108,6127,6147,6167,6188,6206,6226,6246,6267,6287,6307,6327,6347,6366,6388,6407,6427,6446,6467,6488,6507,6528,6547,6567,6587,6608,6626,6646,6668,6687,6708,6727,6746,6768,6786,6807,6827,6848,6868,6888,6907,6927,6947,6966,6988,7007,7026,7047,7067,7087,7108,7128,7146,7166,7186,7207,7227,7247,7267,7287,7307,7326,7346,7367,7388,7406,7427,7448,7468,7487,7506,7526,7547,7566,7587,7606,7626,7647,7666,7688],"xSR":741.5,"ySR":469.95,"xT1":424.9,"yT1":0,"xT2":1058.1,"yT2":0,"toosoon":0,"cond_shown":"equaldotanddens","ratio_trial":900,"smaller_num":"9","larger_num":"10","correct_side":1,"subjID":"Federico Millan Alvarez 22","gender":"0","age":"9","school":"4","test":{"fix_dur":[250,1500],"timestim":300,"targets_dim":[100,100],"targets_relative_coord":[0.3,0.7],"size_stim":[880,420],"start_dim":[100,100],"size_start":[300,300],"size_fix":60,"samplingrate":20,"img_types":["equaldotsize","equaldotanddens","randomdotsizeEA"],"ratios":[250,500,750,900],"rep_conds":9,"nTrials":120,"trials_to_rest":500,"Trials_order":[82,114,45,102,54,30,40,117,72,24,87,25,108,88,63,97,4,49,92,53,119,85,67,52,96,81,26,10,55,41,99,116,101,38,46,65,86,33,66,100,11,28,44,15,56,60,1,20,64,0,90,37,36,104,73,29,51,91,22,106,78,47,32,16,5,27,39,12,43,110,94,3,107,115,23,2,68,103,112,9,13,70,6,74,69,50,34,84,42,95,105,76,83,113,61,18,118,98,35,21,8,77,7,31,48,17,58,19,62,109,75,79,57,71,111,80,93,89,14,59],"cond_shown":["equaldotanddens","equaldotsize","equaldotsize","equaldotsize","equaldotsize","equaldotsize","equaldotanddens","equaldotsize","equaldotsize","equaldotsize","equaldotsize","equaldotanddens","equaldotsize","equaldotanddens","equaldotsize","equaldotanddens","equaldotanddens","equaldotanddens","randomdotsizeEA","randomdotsizeEA","randomdotsizeEA","equaldotanddens","equaldotanddens","equaldotanddens","equaldotsize","equaldotsize","randomdotsizeEA","equaldotanddens","equaldotanddens","randomdotsizeEA","equaldotsize","randomdotsizeEA","randomdotsizeEA","randomdotsizeEA","equaldotanddens","randomdotsizeEA","randomdotsizeEA","equaldotsize","equaldotsize","equaldotanddens","randomdotsizeEA","equaldotanddens","randomdotsizeEA","equaldotsize","randomdotsizeEA","equaldotsize","equaldotanddens","randomdotsizeEA","equaldotanddens","equaldotsize","equaldotsize","equaldotanddens","equaldotsize","randomdotsizeEA","equaldotanddens","randomdotsizeEA","equaldotsize","equaldotanddens","equaldotanddens","equaldotanddens","equaldotsize","randomdotsizeEA","randomdotsizeEA","equaldotanddens","randomdotsizeEA","equaldotsize","equaldotsize","equaldotsize","equaldotanddens","randomdotsizeEA","equaldotanddens","equaldotsize","randomdotsizeEA","equaldotanddens","randomdotsizeEA","randomdotsizeEA","randomdotsizeEA","equaldotanddens","equaldotanddens","equaldotsize","equaldotanddens","equaldotanddens","equaldotsize","randomdotsizeEA","equaldotsize","randomdotsizeEA","equaldotanddens","equaldotsize","equaldotsize","randomdotsizeEA","equaldotsize","equaldotanddens","randomdotsizeEA","randomdotsizeEA","equaldotanddens","equaldotsize","equaldotanddens","randomdotsizeEA","randomdotsizeEA","equaldotsize","randomdotsizeEA","randomdotsizeEA","equaldotanddens","equaldotanddens","equaldotsize","randomdotsizeEA","equaldotanddens","equaldotanddens","randomdotsizeEA","equaldotanddens","equaldotsize","equaldotanddens","equaldotsize","randomdotsizeEA","equaldotsize","randomdotsizeEA","equaldotsize","randomdotsizeEA","randomdotsizeEA","randomdotsizeEA"],"ratio_trial":[900,750,900,750,750,750,500,900,250,250,500,250,250,500,500,250,500,250,750,500,900,250,750,500,250,900,250,900,750,500,500,750,500,250,900,500,250,900,750,500,900,500,750,500,750,250,250,750,500,250,750,250,250,750,250,500,500,750,900,900,750,900,750,500,500,500,500,250,750,250,900,500,900,750,900,250,750,750,500,900,250,900,750,250,900,250,900,250,750,900,900,500,900,500,250,750,900,250,900,900,750,500,750,750,250,500,900,750,250,250,500,750,900,900,500,750,900,500,250,900],"smaller_num":["9","3","18","3","3","15","6","18","4","4","1","1","6","6","2","3","3","2","6","3","9","3","15","6","4","9","3","18","9","1","4","12","9","3","18","6","3","18","15","1","9","3","15","3","6","1","4","6","6","2","12","5","4","3","3","3","4","3","18","9","15","18","3","6","4","5","9","4","6","2","9","2","18","3","18","6","6","15","2","18","2","18","15","2","9","2","18","3","15","18","18","9","9","9","3","3","18","5","9","18","3","5","9","6","6","6","18","6","2","2","3","6","18","9","10","3","18","9","4","18"],"larger_num":["10","4","20","4","4","20","12","20","16","16","2","4","24","12","4","12","6","8","8","6","10","12","20","12","16","10","12","20","12","2","8","16","18","12","20","12","12","20","20","2","10","6","20","6","8","4","16","8","12","8","16","20","16","4","12","6","8","4","20","10","20","20","4","12","8","10","18","16","8","8","10","4","20","4","20","24","8","20","4","20","8","20","20","8","10","8","20","12","20","20","20","18","10","18","12","4","20","20","10","20","4","10","12","8","24","12","20","8","8","8","6","8","20","10","20","4","20","18","16","20"],"correct_side":[1,2,1,2,1,2,1,2,1,2,2,2,1,1,1,2,2,1,1,2,2,1,2,1,2,2,1,2,2,2,1,2,2,2,2,1,1,1,1,2,2,2,1,2,2,2,2,1,1,2,2,2,1,1,2,2,1,1,1,1,2,2,1,1,1,1,2,1,1,1,1,1,1,1,2,2,2,2,2,1,1,2,2,1,2,2,2,1,2,2,2,2,1,2,1,1,1,2,2,2,1,1,2,1,1,1,2,1,1,2,2,2,1,1,2,1,2,1,1,1],"img_shown":["img/900/equaldotanddens/L/1_Ratio_900_L_10_R_9.png","img/750/equaldotsize/R/12_Ratio_750_L_3_R_4.png","img/900/equaldotsize/L/4_Ratio_900_L_20_R_18.png","img/750/equaldotsize/R/7_Ratio_750_L_3_R_4.png","img/750/equaldotsize/L/8_Ratio_750_L_4_R_3.png","img/750/equaldotsize/R/3_Ratio_750_L_15_R_20.png","img/500/equaldotanddens/L/11_Ratio_500_L_12_R_6.png","img/900/equaldotsize/R/12_Ratio_900_L_18_R_20.png","img/250/equaldotsize/L/2_Ratio_250_L_16_R_4.png","img/250/equaldotsize/R/10_Ratio_250_L_4_R_16.png","img/500/equaldotsize/R/12_Ratio_500_L_1_R_2.png","img/250/equaldotanddens/R/8_Ratio_250_L_1_R_4.png","img/250/equaldotsize/L/5_Ratio_250_L_24_R_6.png","img/500/equaldotanddens/L/13_Ratio_500_L_12_R_6.png","img/500/equaldotsize/L/5_Ratio_500_L_4_R_2.png","img/250/equaldotanddens/R/4_Ratio_250_L_3_R_12.png","img/500/equaldotanddens/R/2_Ratio_500_L_3_R_6.png","img/250/equaldotanddens/L/7_Ratio_250_L_8_R_2.png","img/750/randomdotsizeEA/L/14_Ratio_750_L_8_R_6.png","img/500/randomdotsizeEA/R/2_Ratio_500_L_3_R_6.png","img/900/randomdotsizeEA/R/3_Ratio_900_L_9_R_10.png","img/250/equaldotanddens/L/14_Ratio_250_L_12_R_3.png","img/750/equaldotanddens/R/3_Ratio_750_L_15_R_20.png","img/500/equaldotanddens/L/13_Ratio_500_L_12_R_6.png","img/250/equaldotsize/R/10_Ratio_250_L_4_R_16.png","img/900/equaldotsize/R/6_Ratio_900_L_9_R_10.png","img/250/randomdotsizeEA/L/14_Ratio_250_L_12_R_3.png","img/900/equaldotanddens/R/14_Ratio_900_L_18_R_20.png","img/750/equaldotanddens/R/15_Ratio_750_L_9_R_12.png","img/500/randomdotsizeEA/R/15_Ratio_500_L_1_R_2.png","img/500/equaldotsize/L/8_Ratio_500_L_8_R_4.png","img/750/randomdotsizeEA/R/11_Ratio_750_L_12_R_16.png","img/500/randomdotsizeEA/R/1_Ratio_500_L_9_R_18.png","img/250/randomdotsizeEA/R/9_Ratio_250_L_3_R_12.png","img/900/equaldotanddens/R/9_Ratio_900_L_18_R_20.png","img/500/randomdotsizeEA/L/13_Ratio_500_L_12_R_6.png","img/250/randomdotsizeEA/L/14_Ratio_250_L_12_R_3.png","img/900/equaldotsize/L/2_Ratio_900_L_20_R_18.png","img/750/equaldotsize/L/1_Ratio_750_L_20_R_15.png","img/500/equaldotanddens/R/15_Ratio_500_L_1_R_2.png","img/900/randomdotsizeEA/R/7_Ratio_900_L_9_R_10.png","img/500/equaldotanddens/R/2_Ratio_500_L_3_R_6.png","img/750/randomdotsizeEA/L/1_Ratio_750_L_20_R_15.png","img/500/equaldotsize/R/2_Ratio_500_L_3_R_6.png","img/750/randomdotsizeEA/R/2_Ratio_750_L_6_R_8.png","img/250/equaldotsize/R/8_Ratio_250_L_1_R_4.png","img/250/equaldotanddens/R/10_Ratio_250_L_4_R_16.png","img/750/randomdotsizeEA/L/13_Ratio_750_L_8_R_6.png","img/500/equaldotanddens/L/11_Ratio_500_L_12_R_6.png","img/250/equaldotsize/R/13_Ratio_250_L_2_R_8.png","img/750/equaldotsize/R/11_Ratio_750_L_12_R_16.png","img/250/equaldotanddens/R/12_Ratio_250_L_5_R_20.png","img/250/equaldotsize/L/2_Ratio_250_L_16_R_4.png","img/750/randomdotsizeEA/L/10_Ratio_750_L_4_R_3.png","img/250/equaldotanddens/R/4_Ratio_250_L_3_R_12.png","img/500/randomdotsizeEA/R/2_Ratio_500_L_3_R_6.png","img/500/equaldotsize/L/8_Ratio_500_L_8_R_4.png","img/750/equaldotanddens/L/10_Ratio_750_L_4_R_3.png","img/900/equaldotanddens/L/2_Ratio_900_L_20_R_18.png","img/900/equaldotanddens/L/1_Ratio_900_L_10_R_9.png","img/750/equaldotsize/R/5_Ratio_750_L_15_R_20.png","img/900/randomdotsizeEA/R/13_Ratio_900_L_18_R_20.png","img/750/randomdotsizeEA/L/8_Ratio_750_L_4_R_3.png","img/500/equaldotanddens/L/11_Ratio_500_L_12_R_6.png","img/500/randomdotsizeEA/L/8_Ratio_500_L_8_R_4.png","img/500/equaldotsize/L/7_Ratio_500_L_10_R_5.png","img/500/equaldotsize/R/1_Ratio_500_L_9_R_18.png","img/250/equaldotsize/L/2_Ratio_250_L_16_R_4.png","img/750/equaldotanddens/L/14_Ratio_750_L_8_R_6.png","img/250/randomdotsizeEA/L/3_Ratio_250_L_8_R_2.png","img/900/equaldotanddens/L/1_Ratio_900_L_10_R_9.png","img/500/equaldotsize/L/5_Ratio_500_L_4_R_2.png","img/900/randomdotsizeEA/L/4_Ratio_900_L_20_R_18.png","img/750/equaldotanddens/L/9_Ratio_750_L_4_R_3.png","img/900/randomdotsizeEA/R/11_Ratio_900_L_18_R_20.png","img/250/randomdotsizeEA/R/6_Ratio_250_L_6_R_24.png","img/750/randomdotsizeEA/R/2_Ratio_750_L_6_R_8.png","img/750/equaldotanddens/R/4_Ratio_750_L_15_R_20.png","img/500/equaldotanddens/R/9_Ratio_500_L_2_R_4.png","img/900/equaldotsize/L/4_Ratio_900_L_20_R_18.png","img/250/equaldotanddens/L/1_Ratio_250_L_8_R_2.png","img/900/equaldotanddens/R/13_Ratio_900_L_18_R_20.png","img/750/equaldotsize/R/5_Ratio_750_L_15_R_20.png","img/250/randomdotsizeEA/L/7_Ratio_250_L_8_R_2.png","img/900/equaldotsize/R/15_Ratio_900_L_9_R_10.png","img/250/randomdotsizeEA/R/13_Ratio_250_L_2_R_8.png","img/900/equaldotanddens/R/12_Ratio_900_L_18_R_20.png","img/250/equaldotsize/L/14_Ratio_250_L_12_R_3.png","img/750/equaldotsize/R/5_Ratio_750_L_15_R_20.png","img/900/randomdotsizeEA/R/11_Ratio_900_L_18_R_20.png","img/900/equaldotsize/R/9_Ratio_900_L_18_R_20.png","img/500/equaldotanddens/R/1_Ratio_500_L_9_R_18.png","img/900/randomdotsizeEA/L/1_Ratio_900_L_10_R_9.png","img/500/randomdotsizeEA/R/6_Ratio_500_L_9_R_18.png","img/250/equaldotanddens/L/15_Ratio_250_L_12_R_3.png","img/750/equaldotsize/L/10_Ratio_750_L_4_R_3.png","img/900/equaldotanddens/L/4_Ratio_900_L_20_R_18.png","img/250/randomdotsizeEA/R/12_Ratio_250_L_5_R_20.png","img/900/randomdotsizeEA/R/5_Ratio_900_L_9_R_10.png","img/900/equaldotsize/R/12_Ratio_900_L_18_R_20.png","img/750/randomdotsizeEA/L/9_Ratio_750_L_4_R_3.png","img/500/randomdotsizeEA/L/7_Ratio_500_L_10_R_5.png","img/750/equaldotanddens/R/15_Ratio_750_L_9_R_12.png","img/750/equaldotanddens/L/14_Ratio_750_L_8_R_6.png","img/250/equaldotsize/L/5_Ratio_250_L_24_R_6.png","img/500/randomdotsizeEA/L/13_Ratio_500_L_12_R_6.png","img/900/equaldotanddens/R/13_Ratio_900_L_18_R_20.png","img/750/equaldotanddens/L/14_Ratio_750_L_8_R_6.png","img/250/randomdotsizeEA/L/1_Ratio_250_L_8_R_2.png","img/250/equaldotanddens/R/13_Ratio_250_L_2_R_8.png","img/500/equaldotsize/R/2_Ratio_500_L_3_R_6.png","img/750/equaldotanddens/R/2_Ratio_750_L_6_R_8.png","img/900/equaldotsize/L/2_Ratio_900_L_20_R_18.png","img/900/randomdotsizeEA/L/1_Ratio_900_L_10_R_9.png","img/500/equaldotsize/R/3_Ratio_500_L_10_R_20.png","img/750/randomdotsizeEA/L/9_Ratio_750_L_4_R_3.png","img/900/equaldotsize/R/12_Ratio_900_L_18_R_20.png","img/500/randomdotsizeEA/L/4_Ratio_500_L_18_R_9.png","img/250/randomdotsizeEA/L/2_Ratio_250_L_16_R_4.png","img/900/randomdotsizeEA/L/8_Ratio_900_L_20_R_18.png"],"Rat0":[["12_Ratio_0_L_9_R_0.png","13_Ratio_0_L_6_R_0.png","5_Ratio_0_L_2_R_0.png","6_Ratio_0_L_4_R_0.png","8_Ratio_0_L_6_R_0.png"],["1_Ratio_0_L_0_R_17.png","10_Ratio_0_L_0_R_22.png","11_Ratio_0_L_0_R_1.png","14_Ratio_0_L_0_R_24.png","15_Ratio_0_L_0_R_4.png","2_Ratio_0_L_0_R_5.png","3_Ratio_0_L_0_R_17.png","4_Ratio_0_L_0_R_7.png","7_Ratio_0_L_0_R_19.png","9_Ratio_0_L_0_R_15.png"]],"Rat250":[["1_Ratio_250_L_8_R_2.png","14_Ratio_250_L_12_R_3.png","15_Ratio_250_L_12_R_3.png","2_Ratio_250_L_16_R_4.png","3_Ratio_250_L_8_R_2.png","5_Ratio_250_L_24_R_6.png","7_Ratio_250_L_8_R_2.png"],["10_Ratio_250_L_4_R_16.png","11_Ratio_250_L_3_R_12.png","12_Ratio_250_L_5_R_20.png","13_Ratio_250_L_2_R_8.png","4_Ratio_250_L_3_R_12.png","6_Ratio_250_L_6_R_24.png","8_Ratio_250_L_1_R_4.png","9_Ratio_250_L_3_R_12.png"]],"Rat500":[["10_Ratio_500_L_4_R_2.png","11_Ratio_500_L_12_R_6.png","13_Ratio_500_L_12_R_6.png","4_Ratio_500_L_18_R_9.png","5_Ratio_500_L_4_R_2.png","7_Ratio_500_L_10_R_5.png","8_Ratio_500_L_8_R_4.png"],["1_Ratio_500_L_9_R_18.png","12_Ratio_500_L_1_R_2.png","14_Ratio_500_L_5_R_10.png","15_Ratio_500_L_1_R_2.png","2_Ratio_500_L_3_R_6.png","3_Ratio_500_L_10_R_20.png","6_Ratio_500_L_9_R_18.png","9_Ratio_500_L_2_R_4.png"]],"Rat750":[["1_Ratio_750_L_20_R_15.png","10_Ratio_750_L_4_R_3.png","13_Ratio_750_L_8_R_6.png","14_Ratio_750_L_8_R_6.png","6_Ratio_750_L_24_R_18.png","8_Ratio_750_L_4_R_3.png","9_Ratio_750_L_4_R_3.png"],["11_Ratio_750_L_12_R_16.png","12_Ratio_750_L_3_R_4.png","15_Ratio_750_L_9_R_12.png","2_Ratio_750_L_6_R_8.png","3_Ratio_750_L_15_R_20.png","4_Ratio_750_L_15_R_20.png","5_Ratio_750_L_15_R_20.png","7_Ratio_750_L_3_R_4.png"]],"Rat900":[["1_Ratio_900_L_10_R_9.png","10_Ratio_900_L_20_R_18.png","2_Ratio_900_L_20_R_18.png","4_Ratio_900_L_20_R_18.png","8_Ratio_900_L_20_R_18.png"],["11_Ratio_900_L_18_R_20.png","12_Ratio_900_L_18_R_20.png","13_Ratio_900_L_18_R_20.png","14_Ratio_900_L_18_R_20.png","15_Ratio_900_L_9_R_10.png","3_Ratio_900_L_9_R_10.png","5_Ratio_900_L_9_R_10.png","6_Ratio_900_L_9_R_10.png","7_Ratio_900_L_9_R_10.png","9_Ratio_900_L_18_R_20.png"]],"Rat1000":[["10_Ratio_1000_L_16_R_16.png","11_Ratio_1000_L_6_R_6.png","12_Ratio_1000_L_14_R_14.png","13_Ratio_1000_L_20_R_20.png","15_Ratio_1000_L_15_R_15.png","2_Ratio_1000_L_17_R_17.png","4_Ratio_1000_L_9_R_9.png","5_Ratio_1000_L_6_R_6.png","6_Ratio_1000_L_19_R_19.png","8_Ratio_1000_L_14_R_14.png","9_Ratio_1000_L_25_R_25.png"],["1_Ratio_1000_L_1_R_1.png","14_Ratio_1000_L_17_R_17.png","3_Ratio_1000_L_17_R_17.png","7_Ratio_1000_L_6_R_6.png"]]}},{"start_time":1552309857325,"click_time":1552309858609,"finger_time":1552309858268,"fix_duration":1395.6241409976674,"trial":1,"RT":943,"MT":341,"sideResp":2,"stimulus":"img/750/equaldotsize/R/12_Ratio_750_L_3_R_4.png","xmouse":[796,796,796,796,796,796,796,796,796,796,796,796,796,796,796,796,796,796,796,796,796,796,796,796,796,796,796,796,796,796,796,796,796,796,796,796,796,796,796,796,796,796,796,796,796,798,812,824,839,854,877,909,926,943,959,971,985,991,996,1002,1022,1033,1043,1054,1066],"ymouse":[508,508,508,508,508,508,508,508,508,508,508,508,508,508,508,508,508,508,508,508,508,508,508,508,508,508,508,508,508,508,508,508,508,508,508,508,508,508,508,508,508,508,508,508,508,499,474,453,434,412,385,346,326,307,287,274,253,243,229,211,163,126,93,62,35],"timestamp_mouse":[10,22,43,63,94,104,123,143,162,184,203,223,242,262,283,303,323,343,362,383,402,422,443,462,482,504,522,543,562,584,604,622,643,663,683,704,724,742,762,782,803,823,843,863,883,902,924,943,962,982,1003,1023,1043,1062,1083,1102,1122,1143,1163,1183,1204,1222,1244,1264,1284],"xSR":741.5,"ySR":469.95,"xT1":424.9,"yT1":0,"xT2":1058.1,"yT2":0,"toosoon":0,"cond_shown":"equaldotsize","ratio_trial":750,"smaller_num":"3","larger_num":"4","correct_side":2,"subjID":"Federico Millan Alvarez 22","gender":"0","age":"9","school":"4"},{"start_time":1552309862472,"click_time":1552309863849,"finger_time":1552309863348,"fix_duration":923.1933958007162,"trial":2,"RT":876,"MT":501,"sideResp":1,"stimulus":"img/900/equaldotsize/L/4_Ratio_900_L_20_R_18.png","xmouse":[791,791,791,791,791,791,791,791,791,791,791,791,791,791,791,791,791,791,791,791,791,791,791,791,791,791,791,791,791,791,791,791,791,791,791,791,791,791,791,791,791,789,784,758,748,738,728,717,698,687,671,660,651,637,630,627,624,620,604,594,576,563,547,504,487,479,477,476,476],"ymouse":[524,524,524,524,524,524,524,524,524,524,524,524,524,524,524,524,524,524,524,524,524,524,524,524,524,524,524,524,524,524,524,524,524,524,524,524,524,524,524,524,524,514,499,459,443,424,407,390,359,345,316,296,279,253,241,231,221,211,186,172,153,143,135,116,109,105,104,101,96],"timestamp_mouse":[16,37,56,75,96,117,136,155,176,197,216,236,256,276,296,315,336,355,375,397,417,436,455,477,495,516,536,557,576,596,615,637,656,675,695,717,737,757,775,795,816,837,857,876,896,915,936,956,976,995,1016,1035,1056,1076,1095,1115,1135,1157,1177,1195,1216,1236,1255,1276,1295,1315,1336,1356,1376],"xSR":741.5,"ySR":469.95,"xT1":424.9,"yT1":0,"xT2":1058.1,"yT2":0,"toosoon":0,"cond_shown":"equaldotsize","ratio_trial":900,"smaller_num":"18","larger_num":"20","correct_side":1,"subjID":"Federico Millan Alvarez 22","gender":"0","age":"9","school":"4"},{"start_time":1552309866206,"click_time":1552309867027,"finger_time":1552309866607,"fix_duration":1396.2174067152587,"trial":3,"RT":401,"MT":420,"sideResp":2,"stimulus":"img/750/equaldotsize/R/7_Ratio_750_L_3_R_4.png","xmouse":[779,779,779,779,779,779,779,779,779,779,779,779,779,779,779,779,779,781,792,806,827,856,900,941,955,966,972,976,985,987,990,995,1002,1024,1030,1036,1042,1048,1057,1057,1057,1059],"ymouse":[517,517,517,517,517,517,517,517,517,517,517,517,517,517,517,517,517,511,496,482,468,450,416,367,339,315,295,278,248,235,219,203,185,141,126,112,104,100,97,97,97,96],"timestamp_mouse":[11,22,44,61,82,102,122,142,162,183,202,221,241,263,283,302,321,341,361,382,401,421,442,461,481,502,522,542,561,582,603,621,643,661,681,701,723,742,762,782,802,821],"xSR":741.5,"ySR":469.95,"xT1":424.9,"yT1":0,"xT2":1058.1,"yT2":0,"toosoon":0,"cond_shown":"equaldotsize","ratio_trial":750,"smaller_num":"3","larger_num":"4","correct_side":2,"subjID":"Federico Millan Alvarez 22","gender":"0","age":"9","school":"4"},{"start_time":1552309868899,"click_time":1552309870027,"finger_time":1552309869268,"fix_duration":928.5009971545505,"trial":4,"RT":369,"MT":759,"sideResp":2,"stimulus":"img/750/equaldotsize/L/8_Ratio_750_L_4_R_3.png","xmouse":[789,789,789,789,789,789,789,789,789,789,789,789,791,796,800,808,818,840,878,902,928,956,989,1029,1044,1052,1057,1058,1058,1057,1056,1056,1055,1050,1044,1041,1036,1034,1033,1033,1033,1032,1032,1036,1042,1047,1051,1054,1058,1059,1059,1059,1059,1059,1059,1059,1060],"ymouse":[498,498,498,498,498,498,498,498,498,498,498,498,498,498,497,493,487,472,443,424,404,380,352,302,278,259,248,243,243,242,242,242,240,212,198,186,178,176,176,176,176,176,176,172,161,148,133,114,103,101,100,100,100,100,100,100,99],"timestamp_mouse":[10,29,49,70,89,108,129,150,169,188,210,230,249,268,289,309,330,348,369,389,408,429,448,468,489,508,529,549,570,588,608,628,649,669,689,710,728,749,769,788,809,829,848,868,889,910,929,949,969,989,1008,1029,1049,1069,1088,1109,1128],"xSR":741.5,"ySR":469.95,"xT1":424.9,"yT1":0,"xT2":1058.1,"yT2":0,"toosoon":0,"cond_shown":"equaldotsize","ratio_trial":750,"smaller_num":"3","larger_num":"4","correct_side":1,"subjID":"Federico Millan Alvarez 22","gender":"0","age":"9","school":"4"},{"start_time":1552309871221,"click_time":1552309872369,"finger_time":1552309871368,"fix_duration":250,"trial":5,"RT":147,"MT":1001,"sideResp":1,"stimulus":"img/750/equaldotsize/R/3_Ratio_750_L_15_R_20.png","xmouse":[827,827,827,827,827,829,836,842,851,858,863,865,874,876,877,877,877,877,877,877,877,875,869,864,857,849,841,831,829,825,823,820,814,803,777,734,687,613,587,584,581,581,588,591,596,599,600,601,600,597,592,586,565,551,537,527,523,522],"ymouse":[516,516,516,516,512,499,482,466,427,394,376,366,349,346,346,346,346,346,346,346,346,347,359,372,388,406,425,451,460,469,475,481,481,473,440,387,333,226,191,184,171,168,167,165,162,156,149,132,125,121,118,117,114,113,111,106,103,97],"timestamp_mouse":[9,27,46,66,87,108,127,146,168,187,207,227,247,266,286,307,327,347,368,388,407,426,447,466,486,506,527,547,566,586,606,626,646,667,687,708,726,747,766,786,807,828,848,866,887,908,927,948,966,986,1007,1027,1047,1066,1086,1108,1128,1147],"xSR":741.5,"ySR":469.95,"xT1":424.9,"yT1":0,"xT2":1058.1,"yT2":0,"toosoon":0,"cond_shown":"equaldotsize","ratio_trial":750,"smaller_num":"15","larger_num":"20","correct_side":2,"subjID":"Federico Millan Alvarez 22","gender":"0","age":"9","school":"4"},{"start_time":1552309875888,"click_time":1552309877088,"finger_time":1552309876628,"fix_duration":758.3358522782373,"trial":6,"RT":740,"MT":460,"sideResp":1,"stimulus":"img/500/equaldotanddens/L/11_Ratio_500_L_12_R_6.png","xmouse":[776,776,776,776,776,776,776,776,776,776,776,776,776,776,776,776,776,776,776,776,776,776,776,776,776,776,776,776,776,776,776,776,776,777,777,768,757,745,734,726,710,697,682,661,652,618,608,598,590,582,564,554,550,546,544,542,541,539,535,531,522],"ymouse":[524,524,524,524,524,524,524,524,524,524,524,524,524,524,524,524,524,524,524,524,524,524,524,524,524,524,524,524,524,524,524,524,524,523,517,488,471,449,425,403,354,325,292,246,231,183,174,167,164,159,151,146,141,133,129,123,121,116,110,101,86],"timestamp_mouse":[1,19,40,59,80,100,120,139,160,181,200,220,240,260,279,300,321,340,361,381,400,419,440,461,481,500,520,540,561,581,600,620,641,659,680,699,720,740,760,780,800,820,840,859,881,900,921,939,959,981,1000,1020,1040,1060,1080,1099,1120,1141,1160,1181,1200],"xSR":741.5,"ySR":469.95,"xT1":424.9,"yT1":0,"xT2":1058.1,"yT2":0,"toosoon":0,"cond_shown":"equaldotanddens","ratio_trial":500,"smaller_num":"6","larger_num":"12","correct_side":1,"subjID":"Federico Millan Alvarez 22","gender":"0","age":"9","school":"4"},{"start_time":1552309878220,"click_time":1552309879509,"finger_time":1552309879028,"fix_duration":250,"trial":7,"RT":808,"MT":481,"sideResp":2,"stimulus":"img/900/equaldotsize/R/12_Ratio_900_L_18_R_20.png","xmouse":[776,776,776,776,776,776,776,776,776,776,776,776,776,776,776,776,776,776,776,776,776,776,776,776,776,776,776,776,776,776,776,776,776,776,779,780,789,793,817,833,855,878,901,964,986,1002,1014,1023,1034,1037,1041,1045,1048,1052,1054,1054,1055,1057,1059,1060,1061,1062,1062,1064,1065],"ymouse":[520,520,520,520,520,520,520,520,520,520,520,520,520,520,520,520,520,520,520,520,520,520,520,520,520,520,520,520,520,520,520,520,520,520,518,517,507,504,487,475,457,433,396,307,275,246,217,201,181,175,170,166,164,162,160,160,157,154,148,142,132,121,112,102,98],"timestamp_mouse":[11,27,52,67,88,107,128,148,168,188,208,227,249,269,288,308,327,349,368,387,408,427,447,468,487,509,527,547,569,588,608,627,649,668,689,707,727,747,768,788,808,828,848,868,889,908,928,947,968,988,1007,1028,1049,1067,1088,1108,1127,1148,1168,1188,1207,1228,1248,1268,1289],"xSR":741.5,"ySR":469.95,"xT1":424.9,"yT1":0,"xT2":1058.1,"yT2":0,"toosoon":0,"cond_shown":"equaldotsize","ratio_trial":900,"smaller_num":"18","larger_num":"20","correct_side":2,"subjID":"Federico Millan Alvarez 22","gender":"0","age":"9","school":"4"},{"start_time":1552309885194,"click_time":1552309886311,"finger_time":1552309885911,"fix_duration":1121.442211597298,"trial":8,"RT":717,"MT":400,"sideResp":1,"stimulus":"img/250/equaldotsize/L/2_Ratio_250_L_16_R_4.png","xmouse":[790,792,794,795,795,799,799,799,799,800,800,800,800,800,800,800,800,800,800,800,800,800,800,800,800,800,800,800,800,800,796,791,786,775,771,746,732,717,708,699,685,676,669,661,653,632,621,607,593,573,530,516,511,505,504,500],"ymouse":[548,547,546,544,544,538,537,535,534,533,531,530,530,530,530,530,530,530,530,530,530,530,530,530,529,527,525,524,523,522,513,507,498,480,473,429,405,379,358,340,310,295,284,273,261,221,204,185,170,156,135,126,121,114,109,98],"timestamp_mouse":[23,37,56,80,96,117,138,158,176,196,216,237,258,277,296,317,338,357,378,398,417,437,458,478,497,517,536,557,578,597,617,637,657,677,698,717,737,757,778,797,816,836,857,877,898,917,938,957,976,997,1016,1037,1056,1077,1097,1117],"xSR":741.5,"ySR":469.95,"xT1":424.9,"yT1":0,"xT2":1058.1,"yT2":0,"toosoon":0,"cond_shown":"equaldotsize","ratio_trial":250,"smaller_num":"4","larger_num":"16","correct_side":1,"subjID":"Federico Millan Alvarez 22","gender":"0","age":"9","school":"4"},{"start_time":1552309888232,"click_time":1552309889351,"finger_time":1552309888731,"fix_duration":920.1553913661324,"trial":9,"RT":499,"MT":620,"sideResp":2,"stimulus":"img/250/equaldotsize/R/10_Ratio_250_L_4_R_16.png","xmouse":[821,821,821,818,817,816,816,816,816,816,816,816,816,816,816,816,816,816,816,816,817,819,821,834,844,857,874,886,901,933,960,980,1009,1069,1093,1109,1120,1130,1135,1137,1135,1130,1118,1077,1057,1043,1029,1024,1020,1019,1019,1022,1028,1046,1054,1060],"ymouse":[512,513,513,519,521,521,521,521,521,521,522,522,523,523,523,523,523,523,522,521,519,517,515,504,495,484,470,457,439,403,374,354,332,293,276,261,248,229,215,194,187,180,172,141,127,114,100,91,84,77,74,74,73,70,69,68],"timestamp_mouse":[20,47,59,78,98,120,139,160,178,198,219,239,258,279,298,320,339,359,385,398,418,440,460,478,499,519,539,559,579,599,619,638,658,679,699,718,739,759,779,800,818,839,859,879,899,918,938,958,979,1002,1018,1038,1059,1079,1099,1119],"xSR":741.5,"ySR":469.95,"xT1":424.9,"yT1":0,"xT2":1058.1,"yT2":0,"toosoon":0,"cond_shown":"equaldotsize","ratio_trial":250,"smaller_num":"4","larger_num":"16","correct_side":2,"subjID":"Federico Millan Alvarez 22","gender":"0","age":"9","school":"4"},{"start_time":1552309936702,"click_time":1552309937531,"finger_time":1552309937391,"fix_duration":250,"trial":10,"RT":689,"MT":140,"sideResp":2,"stimulus":"img/500/equaldotsize/R/12_Ratio_500_L_1_R_2.png","xmouse":[780,780,780,780,780,780,780,780,780,780,780,780,780,780,782,782,783,784,784,784,784,784,783,782,782,782,782,782,782,782,782,791,805,825,846,869,953,999,1038,1069,1093,1125],"ymouse":[534,534,534,534,534,534,534,534,534,534,534,534,534,534,532,532,531,531,530,528,526,524,522,522,520,520,520,520,520,519,517,507,498,484,468,449,341,276,214,172,130,54],"timestamp_mouse":[9,28,48,74,89,108,128,150,169,190,209,229,249,269,290,310,330,348,369,390,409,429,449,470,488,508,529,550,569,589,609,629,648,669,689,709,728,748,768,789,808,829],"xSR":741.5,"ySR":469.95,"xT1":424.9,"yT1":0,"xT2":1058.1,"yT2":0,"toosoon":0,"cond_shown":"equaldotsize","ratio_trial":500,"smaller_num":"1","larger_num":"2","correct_side":2,"subjID":"Federico Millan Alvarez 22","gender":"0","age":"9","school":"4"},{"start_time":1552309940484,"click_time":1552309940992,"finger_time":1552309940931,"fix_duration":250,"trial":11,"RT":447,"MT":61,"sideResp":2,"stimulus":"img/250/equaldotanddens/R/8_Ratio_250_L_1_R_4.png","xmouse":[798,798,798,798,798,798,798,798,798,798,798,798,798,798,798,798,798,798,798,802,806,820,891,952,1025,1106],"ymouse":[513,513,513,513,513,513,513,513,513,513,513,513,513,513,513,513,513,513,513,509,503,479,395,320,191,69],"timestamp_mouse":[9,27,47,67,88,108,128,147,166,187,206,228,248,266,288,307,328,348,367,386,406,427,447,467,487,508],"xSR":741.5,"ySR":469.95,"xT1":424.9,"yT1":0,"xT2":1058.1,"yT2":0,"toosoon":0,"cond_shown":"equaldotanddens","ratio_trial":250,"smaller_num":"1","larger_num":"4","correct_side":2,"subjID":"Federico Millan Alvarez 22","gender":"0","age":"9","school":"4"},{"start_time":1552309943808,"click_time":1552309945012,"finger_time":1552309944492,"fix_duration":293.9963829873775,"trial":12,"RT":684,"MT":520,"sideResp":1,"stimulus":"img/250/equaldotsize/L/5_Ratio_250_L_24_R_6.png","xmouse":[769,764,761,761,761,761,761,761,761,761,761,759,757,754,750,746,745,745,745,745,745,745,745,745,745,745,745,745,748,750,753,756,756,754,750,742,731,680,659,640,624,610,592,586,585,585,584,584,584,584,584,583,571,561,550,536,513,506,505,505,505],"ymouse":[541,541,542,542,542,542,542,542,542,542,542,542,543,544,545,546,547,547,547,547,547,547,547,547,547,547,546,541,535,527,519,505,488,471,456,435,412,338,314,292,273,254,228,221,217,216,216,212,208,204,198,192,177,169,161,151,134,122,114,106,94],"timestamp_mouse":[3,24,50,64,84,104,125,143,164,183,203,223,244,263,284,304,324,344,364,383,404,423,444,464,485,504,524,543,564,585,603,624,644,664,684,703,723,744,764,784,804,823,844,864,883,903,923,943,963,984,1004,1023,1043,1063,1085,1105,1126,1143,1164,1184,1204],"xSR":741.5,"ySR":469.95,"xT1":424.9,"yT1":0,"xT2":1058.1,"yT2":0,"toosoon":0,"cond_shown":"equaldotsize","ratio_trial":250,"smaller_num":"6","larger_num":"24","correct_side":1,"subjID":"Federico Millan Alvarez 22","gender":"0","age":"9","school":"4"},{"start_time":1552309961440,"click_time":1552309962391,"finger_time":1552309961932,"fix_duration":1345.920539945516,"trial":13,"RT":492,"MT":459,"sideResp":1,"stimulus":"img/500/equaldotanddens/L/13_Ratio_500_L_12_R_6.png","xmouse":[832,832,832,833,833,834,835,836,836,836,836,836,836,836,836,836,836,836,836,836,836,836,830,815,798,776,723,672,625,571,518,457,351,316,292,285,285,285,285,287,296,310,350,370,390,407,423,432],"ymouse":[510,510,510,510,509,508,508,507,507,507,507,507,507,507,507,507,507,507,507,504,503,501,492,473,453,435,383,312,249,189,144,111,53,38,29,26,26,26,26,25,24,23,17,15,11,9,7,6],"timestamp_mouse":[11,48,52,72,91,111,131,151,172,191,211,232,252,272,291,311,331,351,371,391,412,432,451,471,492,511,533,551,572,592,611,631,651,671,691,712,731,751,772,793,812,832,852,872,892,912,932,951],"xSR":741.5,"ySR":469.95,"xT1":424.9,"yT1":0,"xT2":1058.1,"yT2":0,"toosoon":0,"cond_shown":"equaldotanddens","ratio_trial":500,"smaller_num":"6","larger_num":"12","correct_side":1,"subjID":"Federico Millan Alvarez 22","gender":"0","age":"9","school":"4"},{"start_time":1552309965715,"click_time":1552309966871,"finger_time":1552309966311,"fix_duration":682.2946517163099,"trial":14,"RT":596,"MT":560,"sideResp":1,"stimulus":"img/500/equaldotsize/L/5_Ratio_500_L_4_R_2.png","xmouse":[790,790,790,790,790,790,790,790,790,790,790,790,790,790,790,790,790,790,790,790,790,791,791,792,792,792,792,787,756,721,655,599,534,384,316,259,208,172,145,144,143,143,143,152,170,194,225,257,315,353,363,390,401,406,409,416,424,432],"ymouse":[532,532,532,532,532,532,532,532,532,532,532,532,532,532,532,532,532,532,532,532,532,532,531,528,523,518,514,507,487,473,444,421,391,301,239,177,113,66,20,15,14,14,14,18,25,35,49,60,83,95,97,99,99,98,93,83,72,62],"timestamp_mouse":[16,42,57,76,96,118,137,157,177,196,217,236,257,276,296,316,338,356,376,397,418,436,457,476,497,517,537,557,578,596,616,636,657,677,696,717,737,756,777,796,817,836,856,877,896,916,937,958,976,996,1016,1037,1057,1076,1097,1117,1137,1156],"xSR":741.5,"ySR":469.95,"xT1":424.9,"yT1":0,"xT2":1058.1,"yT2":0,"toosoon":0,"cond_shown":"equaldotsize","ratio_trial":500,"smaller_num":"2","larger_num":"4","correct_side":1,"subjID":"Federico Millan Alvarez 22","gender":"0","age":"9","school":"4"},{"start_time":1552309968885,"click_time":1552309969692,"finger_time":1552309969371,"fix_duration":313.720606922252,"trial":15,"RT":486,"MT":321,"sideResp":2,"stimulus":"img/250/equaldotanddens/R/4_Ratio_250_L_3_R_12.png","xmouse":[826,826,826,826,826,826,826,826,826,826,826,826,826,826,826,826,826,826,826,825,826,831,835,838,843,850,864,875,889,905,924,979,995,1009,1019,1029,1046,1052,1055,1058,1060],"ymouse":[522,522,522,522,522,522,522,522,522,522,522,522,522,522,522,522,522,522,522,522,516,508,500,494,488,478,449,428,404,376,342,246,218,195,176,158,128,114,101,91,86],"timestamp_mouse":[11,26,49,66,88,107,126,146,167,188,206,226,247,268,286,307,326,346,368,387,407,426,447,466,486,506,526,546,567,587,606,627,647,667,687,706,727,747,767,786,807],"xSR":741.5,"ySR":469.95,"xT1":424.9,"yT1":0,"xT2":1058.1,"yT2":0,"toosoon":0,"cond_shown":"equaldotanddens","ratio_trial":250,"smaller_num":"3","larger_num":"12","correct_side":2,"subjID":"Federico Millan Alvarez 22","gender":"0","age":"9","school":"4"},{"start_time":1552309971421,"click_time":1552309972252,"finger_time":1552309971812,"fix_duration":648.6098500572331,"trial":16,"RT":391,"MT":440,"sideResp":2,"stimulus":"img/500/equaldotanddens/R/2_Ratio_500_L_3_R_6.png","xmouse":[821,821,821,821,821,821,821,821,821,821,821,821,821,821,821,821,822,822,823,826,828,830,836,842,871,884,897,907,919,934,942,953,964,980,1007,1014,1017,1020,1022,1030,1045,1062],"ymouse":[501,499,495,490,490,489,489,489,488,488,487,486,483,481,478,476,475,473,470,465,462,458,449,438,393,370,349,327,300,251,225,196,170,141,96,84,75,70,67,66,65,65],"timestamp_mouse":[13,31,50,71,90,112,131,150,171,192,211,231,250,270,290,310,330,350,371,391,411,431,451,471,490,511,530,551,570,591,611,631,650,671,690,710,730,751,770,790,811,831],"xSR":741.5,"ySR":469.95,"xT1":424.9,"yT1":0,"xT2":1058.1,"yT2":0,"toosoon":0,"cond_shown":"equaldotanddens","ratio_trial":500,"smaller_num":"3","larger_num":"6","correct_side":2,"subjID":"Federico Millan Alvarez 22","gender":"0","age":"9","school":"4"},{"start_time":1552309975500,"click_time":1552309976812,"finger_time":1552309975932,"fix_duration":707.4901198732443,"trial":17,"RT":432,"MT":880,"sideResp":1,"stimulus":"img/250/equaldotanddens/L/7_Ratio_250_L_8_R_2.png","xmouse":[787,787,787,787,787,787,787,787,787,787,787,787,787,787,787,787,787,787,787,786,764,734,679,618,566,502,482,464,454,442,430,414,409,405,405,404,404,404,404,405,410,420,424,427,427,419,411,399,393,389,387,386,386,386,386,387,389,393,396,399,404,410,413,416,422,429],"ymouse":[512,512,512,512,512,512,512,512,512,512,512,512,512,512,512,512,512,512,511,508,498,489,480,469,453,424,407,374,343,313,286,250,237,229,226,223,222,222,222,220,215,198,181,166,148,112,99,82,72,68,64,62,62,62,63,70,76,79,79,79,78,71,66,62,56,50],"timestamp_mouse":[11,31,60,72,91,111,133,151,172,192,213,232,252,272,291,312,332,351,372,391,411,432,451,472,492,513,531,551,571,592,611,632,651,671,692,712,732,751,771,791,811,831,851,873,891,912,931,951,972,991,1012,1031,1051,1072,1092,1113,1132,1151,1172,1192,1212,1232,1251,1271,1292,1312],"xSR":741.5,"ySR":469.95,"xT1":424.9,"yT1":0,"xT2":1058.1,"yT2":0,"toosoon":0,"cond_shown":"equaldotanddens","ratio_trial":250,"smaller_num":"2","larger_num":"8","correct_side":1,"subjID":"Federico Millan Alvarez 22","gender":"0","age":"9","school":"4"},{"start_time":1552309979056,"click_time":1552309982632,"finger_time":1552309979452,"fix_duration":1363.0735895889359,"trial":18,"RT":396,"MT":3180,"sideResp":2,"stimulus":"img/750/randomdotsizeEA/L/14_Ratio_750_L_8_R_6.png","xmouse":[768,768,768,768,768,768,768,768,768,768,768,768,768,768,768,768,768,768,771,776,783,794,813,821,823,825,827,828,835,841,849,856,865,873,874,874,874,874,875,875,875,875,875,865,860,855,848,844,835,835,835,835,835,835,835,834,834,833,833,830,826,820,811,803,801,801,801,801,801,801,800,798,795,790,790,790,790,790,790,790,790,790,790,790,791,794,797,801,803,803,806,807,808,808,808,808,808,808,808,808,808,808,808,808,808,808,808,808,808,808,808,808,808,808,808,808,808,808,808,808,808,808,808,808,808,808,808,808,808,808,808,808,808,808,808,808,808,808,808,808,808,808,808,808,808,808,808,808,808,808,808,808,808,808,808,808,809,812,825,835,853,877,901,944,954,959,962,964,965,965,965,965,965,967,970,976,999,1026,1099],"ymouse":[481,481,481,481,481,481,481,481,481,481,481,481,481,481,481,481,481,481,476,465,450,432,398,385,374,364,358,352,338,332,324,318,311,306,305,305,305,305,306,310,317,325,336,368,389,409,431,453,497,505,508,509,509,509,509,511,513,514,519,527,541,559,578,612,627,639,646,649,650,650,650,638,625,612,610,610,610,610,610,611,611,611,611,610,602,589,575,551,546,541,535,532,530,530,530,530,530,530,530,530,530,530,530,530,530,530,530,530,530,530,530,530,530,530,530,530,530,530,530,530,530,530,530,530,530,530,530,530,530,530,530,530,530,530,530,530,530,530,530,530,530,530,530,530,528,523,521,519,518,518,518,518,517,509,504,499,488,474,435,410,370,313,269,194,176,164,154,149,147,147,147,147,146,146,146,144,138,130,99],"timestamp_mouse":[16,36,55,76,96,116,135,156,176,195,215,235,255,276,296,316,335,356,375,396,416,435,457,475,495,516,535,556,575,596,616,636,656,675,695,717,735,756,775,795,815,836,855,875,895,916,936,956,976,996,1015,1035,1055,1076,1096,1116,1135,1156,1175,1195,1216,1235,1255,1275,1296,1317,1336,1355,1375,1396,1415,1437,1456,1475,1495,1515,1535,1557,1576,1596,1615,1635,1656,1675,1696,1716,1737,1757,1775,1795,1815,1836,1855,1876,1897,1915,1936,1956,1975,1996,2016,2036,2055,2077,2096,2115,2135,2155,2177,2195,2217,2237,2256,2276,2296,2317,2336,2356,2376,2396,2416,2436,2456,2476,2495,2517,2535,2555,2575,2596,2615,2637,2656,2676,2696,2715,2737,2755,2775,2795,2817,2835,2855,2876,2895,2915,2935,2956,2976,2995,3016,3037,3056,3075,3096,3115,3136,3156,3175,3195,3215,3236,3255,3275,3295,3316,3336,3356,3375,3396,3416,3436,3456,3476,3495,3515,3535,3556,3576],"xSR":741.5,"ySR":469.95,"xT1":424.9,"yT1":0,"xT2":1058.1,"yT2":0,"toosoon":0,"cond_shown":"randomdotsizeEA","ratio_trial":750,"smaller_num":"6","larger_num":"8","correct_side":1,"subjID":"Federico Millan Alvarez 22","gender":"0","age":"9","school":"4"},{"start_time":1552309984424,"click_time":1552309985532,"finger_time":1552309985031,"fix_duration":250,"trial":19,"RT":607,"MT":501,"sideResp":1,"stimulus":"img/500/randomdotsizeEA/R/2_Ratio_500_L_3_R_6.png","xmouse":[773,773,773,773,773,773,773,773,773,773,773,773,773,773,773,773,773,773,773,773,773,773,773,773,773,773,773,773,773,773,770,761,748,736,721,704,669,655,643,634,619,612,608,604,601,595,586,574,563,547,505,482,463,447,434,430],"ymouse":[492,492,492,492,492,492,492,492,492,492,492,492,492,492,492,492,492,492,492,492,492,492,492,492,492,492,492,492,491,481,449,428,402,381,355,334,298,287,271,259,238,231,226,220,216,208,199,186,176,163,137,126,115,108,102,99],"timestamp_mouse":[9,28,47,68,87,109,127,148,167,189,207,227,247,269,288,308,328,348,367,388,408,427,448,467,488,507,527,547,568,587,607,628,648,667,687,708,727,747,768,788,808,828,848,867,888,909,927,947,967,988,1008,1028,1047,1067,1087,1108],"xSR":741.5,"ySR":469.95,"xT1":424.9,"yT1":0,"xT2":1058.1,"yT2":0,"toosoon":0,"cond_shown":"randomdotsizeEA","ratio_trial":500,"smaller_num":"3","larger_num":"6","correct_side":2,"subjID":"Federico Millan Alvarez 22","gender":"0","age":"9","school":"4"},{"start_time":1552309987908,"click_time":1552309989311,"finger_time":1552309988712,"fix_duration":1394.876908242955,"trial":20,"RT":804,"MT":599,"sideResp":2,"stimulus":"img/900/randomdotsizeEA/R/3_Ratio_900_L_9_R_10.png","xmouse":[807,802,800,798,798,797,797,797,797,795,793,793,790,790,790,790,790,790,790,790,790,790,790,790,790,790,790,790,790,790,790,790,790,790,790,790,790,797,806,816,829,846,870,882,895,905,915,936,948,955,959,959,961,961,962,965,968,983,994,1006,1023,1028,1048,1055,1064,1071,1076,1084,1086,1087,1087],"ymouse":[533,539,542,545,545,547,547,547,547,547,547,546,542,541,541,541,541,541,541,541,541,541,541,541,541,541,541,541,541,541,540,539,536,535,534,533,531,515,501,485,468,443,408,385,363,341,319,281,265,256,249,248,247,246,246,245,244,237,232,225,212,208,181,173,162,152,143,122,111,100,89],"timestamp_mouse":[3,23,44,72,83,105,124,144,164,184,203,223,244,264,283,303,324,345,363,384,404,423,444,464,484,504,524,543,564,583,603,624,643,664,683,703,723,744,764,783,804,824,844,864,883,904,924,943,965,984,1004,1025,1043,1064,1084,1103,1123,1143,1165,1184,1204,1223,1244,1264,1284,1304,1323,1343,1364,1383,1403],"xSR":741.5,"ySR":469.95,"xT1":424.9,"yT1":0,"xT2":1058.1,"yT2":0,"toosoon":0,"cond_shown":"randomdotsizeEA","ratio_trial":900,"smaller_num":"9","larger_num":"10","correct_side":2,"subjID":"Federico Millan Alvarez 22","gender":"0","age":"9","school":"4"},{"start_time":1552309993873,"click_time":1552309996391,"finger_time":1552309995152,"fix_duration":959.3438458728443,"trial":21,"RT":1279,"MT":1239,"sideResp":1,"stimulus":"img/250/equaldotanddens/L/14_Ratio_250_L_12_R_3.png","xmouse":[767,767,767,767,767,767,767,767,767,767,767,767,767,767,767,767,767,767,767,767,767,767,767,767,767,767,767,767,767,767,767,767,767,767,767,767,767,767,767,767,767,767,767,767,767,767,767,767,767,767,767,767,767,767,767,767,767,767,767,767,767,767,761,747,725,673,655,641,634,632,727,740,743,737,733,733,733,733,733,733,733,733,733,733,733,733,362,360,359,359,357,357,357,357,357,359,364,369,372,373,374,374,375,376,376,376,376,376,378,379,388,389,389,389,389,389,389,389,389,389,389,391,396,402,416,420,425],"ymouse":[520,520,520,520,520,520,520,520,520,520,520,520,520,520,520,520,520,520,520,520,520,520,520,520,520,520,520,520,520,520,520,520,520,520,520,520,520,520,520,520,520,520,520,520,520,520,520,520,520,520,520,520,520,520,520,520,520,520,520,520,520,520,520,520,521,522,524,526,528,521,180,90,45,20,9,9,9,9,9,9,9,9,9,9,9,9,0,4,8,11,17,19,19,20,20,21,21,21,21,21,25,33,36,37,38,38,38,38,38,38,35,35,35,35,35,35,35,35,35,35,35,35,42,49,59,60,61],"timestamp_mouse":[1,18,40,59,79,98,119,140,158,178,198,219,240,260,279,298,318,338,359,379,400,420,440,459,479,498,520,539,559,578,599,619,639,659,679,699,718,739,759,779,800,819,838,859,879,899,920,938,959,978,999,1019,1040,1059,1078,1098,1119,1138,1158,1179,1200,1219,1238,1258,1279,1299,1319,1340,1359,1378,1398,1418,1438,1459,1479,1499,1519,1539,1558,1579,1598,1619,1639,1658,1679,1699,1719,1740,1759,1779,1800,1818,1838,1859,1878,1899,1918,1939,1959,1979,1998,2019,2039,2058,2078,2099,2119,2138,2159,2180,2200,2219,2239,2259,2279,2299,2318,2338,2359,2378,2399,2418,2439,2459,2481,2498,2518],"xSR":741.5,"ySR":469.95,"xT1":424.9,"yT1":0,"xT2":1058.1,"yT2":0,"toosoon":0,"cond_shown":"equaldotanddens","ratio_trial":250,"smaller_num":"3","larger_num":"12","correct_side":1,"subjID":"Federico Millan Alvarez 22","gender":"0","age":"9","school":"4"},{"start_time":1552310002544,"click_time":1552310004314,"finger_time":1552310003291,"fix_duration":250,"trial":22,"RT":747,"MT":1023,"sideResp":1,"stimulus":"img/750/equaldotanddens/R/3_Ratio_750_L_15_R_20.png","xmouse":[790,790,790,790,790,790,790,790,790,790,790,790,790,790,790,790,790,790,790,790,790,790,790,790,790,790,790,790,790,790,790,790,790,790,790,790,782,771,760,747,739,732,717,707,700,696,688,686,683,677,668,655,614,598,585,572,536,513,490,462,429,402,356,343,332,324,317,314,314,314,314,320,354,365,372,375,377,378,379,382,386,396,406,412,416,418,419,419,425],"ymouse":[528,528,528,528,528,528,528,528,528,528,528,528,528,528,528,528,528,528,528,528,528,528,528,528,528,528,528,528,528,528,528,528,528,528,526,522,490,468,446,425,411,399,380,372,367,363,358,356,353,348,341,331,303,291,279,267,235,219,203,187,170,154,122,112,103,93,80,75,72,70,69,69,70,72,74,74,74,74,74,75,75,75,75,75,75,75,75,75,75],"timestamp_mouse":[7,28,47,68,87,108,127,147,167,187,208,227,247,268,289,308,328,347,368,388,408,427,447,467,489,508,528,547,567,587,608,628,648,667,687,708,727,747,767,788,808,828,848,867,887,907,927,948,967,988,1008,1028,1048,1067,1087,1108,1128,1147,1167,1188,1208,1228,1248,1269,1290,1310,1329,1349,1369,1389,1409,1429,1450,1469,1489,1510,1530,1549,1570,1588,1609,1631,1649,1670,1689,1710,1730,1749,1770],"xSR":741.5,"ySR":469.95,"xT1":424.9,"yT1":0,"xT2":1058.1,"yT2":0,"toosoon":0,"cond_shown":"equaldotanddens","ratio_trial":750,"smaller_num":"15","larger_num":"20","correct_side":2,"subjID":"Federico Millan Alvarez 22","gender":"0","age":"9","school":"4"},{"start_time":1552310009050,"click_time":1552310010593,"finger_time":1552310009793,"fix_duration":316.36260335044074,"trial":23,"RT":743,"MT":800,"sideResp":1,"stimulus":"img/500/equaldotanddens/L/13_Ratio_500_L_12_R_6.png","xmouse":[786,786,786,786,786,786,786,786,786,786,786,786,786,786,786,786,786,786,786,786,786,786,786,786,786,786,786,786,787,787,787,787,787,787,787,787,787,787,784,779,769,748,639,526,475,442,428,423,423,423,424,424,424,425,426,429,432,437,439,439,438,435,429,425,416,410,407,405,404,403,403,403,408,415,418,421,423,425],"ymouse":[476,475,475,475,475,475,475,475,475,475,475,475,476,478,479,480,482,483,483,483,483,485,486,487,487,488,489,491,492,492,492,492,492,492,491,486,479,460,447,433,416,389,326,288,274,265,260,254,249,242,235,225,211,207,202,198,190,176,166,156,147,140,129,123,115,111,109,107,107,106,106,106,102,99,98,97,97,95],"timestamp_mouse":[3,34,43,63,84,103,123,144,162,183,204,223,243,264,284,302,324,344,362,383,403,424,444,464,483,504,523,542,564,584,604,623,642,663,683,703,723,743,763,783,804,822,843,863,883,902,923,943,963,984,1003,1022,1043,1063,1083,1104,1123,1143,1163,1183,1203,1223,1243,1262,1283,1303,1324,1343,1364,1383,1404,1423,1444,1464,1483,1503,1523,1543],"xSR":741.5,"ySR":469.95,"xT1":424.9,"yT1":0,"xT2":1058.1,"yT2":0,"toosoon":0,"cond_shown":"equaldotanddens","ratio_trial":500,"smaller_num":"6","larger_num":"12","correct_side":1,"subjID":"Federico Millan Alvarez 22","gender":"0","age":"9","school":"4"},{"start_time":1552310012756,"click_time":1552310013714,"finger_time":1552310013233,"fix_duration":1022.5845652589377,"trial":24,"RT":477,"MT":481,"sideResp":2,"stimulus":"img/250/equaldotsize/R/10_Ratio_250_L_4_R_16.png","xmouse":[790,790,790,790,790,790,790,790,790,790,790,790,790,790,790,789,789,789,789,789,789,789,789,789,789,789,793,801,809,819,834,847,872,887,895,902,914,917,919,919,919,920,946,967,991,1019,1047,1079],"ymouse":[493,493,493,493,493,493,493,493,493,493,493,493,492,490,487,485,484,482,481,479,478,477,473,469,465,459,440,420,401,377,342,298,208,173,143,119,77,72,70,70,70,70,76,79,80,80,80,80],"timestamp_mouse":[16,40,56,76,96,118,137,157,177,198,218,237,257,277,297,317,337,358,377,397,417,437,457,477,497,518,539,557,577,597,617,636,657,678,697,718,739,757,777,798,817,837,857,878,897,918,937,958],"xSR":741.5,"ySR":469.95,"xT1":424.9,"yT1":0,"xT2":1058.1,"yT2":0,"toosoon":0,"cond_shown":"equaldotsize","ratio_trial":250,"smaller_num":"4","larger_num":"16","correct_side":2,"subjID":"Federico Millan Alvarez 22","gender":"0","age":"9","school":"4"},{"start_time":1552310015590,"click_time":1552310016733,"finger_time":1552310016152,"fix_duration":933.3715468108807,"trial":25,"RT":562,"MT":581,"sideResp":1,"stimulus":"img/900/equaldotsize/R/6_Ratio_900_L_9_R_10.png","xmouse":[802,802,802,802,802,802,802,802,802,802,802,802,802,802,802,802,802,802,802,802,802,801,798,796,795,785,760,746,728,711,691,660,644,628,613,589,563,555,550,548,545,530,518,504,488,464,449,447,447,447,447,447,446,446,449,450,454,454],"ymouse":[508,508,508,508,508,508,508,508,508,509,510,510,511,511,511,511,511,511,511,511,510,509,506,504,504,499,485,476,465,452,438,408,389,369,347,309,267,248,229,211,193,162,147,137,127,119,118,118,118,118,118,118,117,115,111,108,102,98],"timestamp_mouse":[10,23,43,63,84,103,124,143,167,183,204,223,244,263,284,304,323,343,364,383,404,424,442,463,484,504,523,542,562,583,604,623,644,663,683,703,723,744,763,784,803,822,843,863,883,903,923,943,963,983,1003,1022,1042,1063,1084,1103,1123,1143],"xSR":741.5,"ySR":469.95,"xT1":424.9,"yT1":0,"xT2":1058.1,"yT2":0,"toosoon":0,"cond_shown":"equaldotsize","ratio_trial":900,"smaller_num":"9","larger_num":"10","correct_side":2,"subjID":"Federico Millan Alvarez 22","gender":"0","age":"9","school":"4"},{"start_time":1552310018268,"click_time":1552310020854,"finger_time":1552310018972,"fix_duration":353.0936931826154,"trial":26,"RT":704,"MT":1882,"sideResp":1,"stimulus":"img/250/randomdotsizeEA/L/14_Ratio_250_L_12_R_3.png","xmouse":[791,792,793,793,794,794,794,794,794,794,794,794,794,794,794,794,794,794,794,794,794,794,794,794,796,797,797,798,799,800,801,802,804,806,809,811,815,819,821,822,825,833,847,853,859,867,875,892,909,913,928,934,938,948,952,955,958,960,960,960,961,962,964,966,968,970,971,981,989,992,995,996,1000,1001,1003,1007,1010,1016,1017,1017,1017,1017,1017,1017,1017,1017,1017,1017,1017,1016,1009,1001,974,958,936,900,838,714,668,657,655,655,655,655,655,655,655,655,653,649,636,617,553,522,497,473,462,462,463,465,466,471,483,488,489,489,489,489,490,483],"ymouse":[509,504,497,497,491,490,490,490,490,490,495,499,510,515,519,522,523,523,523,523,523,523,523,519,512,506,502,498,495,492,488,485,480,475,470,466,458,439,428,414,404,394,380,373,365,354,344,325,307,304,287,272,257,230,221,213,208,202,201,199,199,198,197,196,195,194,194,190,187,186,183,182,179,177,176,175,173,171,170,170,170,170,170,170,170,170,170,170,170,169,169,169,178,179,179,173,165,152,152,152,152,152,152,152,152,152,152,152,152,150,145,137,120,112,108,107,107,107,107,107,107,107,107,107,107,107,107,107,104,96],"timestamp_mouse":[6,25,59,66,85,106,126,144,166,185,205,225,244,265,285,304,325,346,365,384,405,426,446,466,484,506,525,545,566,585,605,625,645,665,686,704,725,746,764,786,805,825,845,865,885,905,925,945,964,985,1006,1026,1045,1065,1085,1106,1125,1145,1165,1185,1205,1225,1245,1264,1285,1305,1324,1345,1365,1385,1405,1425,1446,1465,1484,1505,1526,1545,1565,1585,1605,1625,1645,1666,1686,1706,1726,1746,1765,1785,1805,1825,1846,1864,1885,1906,1925,1946,1965,1985,2006,2026,2045,2065,2086,2105,2125,2146,2166,2185,2205,2226,2246,2265,2285,2305,2324,2346,2365,2385,2405,2425,2446,2465,2485,2505,2525,2546,2565,2586],"xSR":741.5,"ySR":469.95,"xT1":424.9,"yT1":0,"xT2":1058.1,"yT2":0,"toosoon":0,"cond_shown":"randomdotsizeEA","ratio_trial":250,"smaller_num":"3","larger_num":"12","correct_side":1,"subjID":"Federico Millan Alvarez 22","gender":"0","age":"9","school":"4"},{"start_time":1552310022062,"click_time":1552310023515,"finger_time":1552310022814,"fix_duration":546.5363848332854,"trial":27,"RT":752,"MT":701,"sideResp":2,"stimulus":"img/900/equaldotanddens/R/14_Ratio_900_L_18_R_20.png","xmouse":[769,769,769,769,769,769,769,769,769,769,769,769,769,769,769,769,769,769,769,769,769,769,769,769,769,769,769,769,769,769,769,769,770,772,773,777,781,794,807,813,820,828,842,847,850,854,855,859,865,871,878,886,897,920,935,950,967,1000,1015,1020,1022,1024,1025,1025,1025,1025,1025,1025,1025,1025,1028,1037,1064],"ymouse":[535,535,535,535,535,535,535,535,535,535,535,535,535,535,535,535,535,535,535,535,535,535,535,535,535,535,535,535,535,535,535,535,533,522,512,501,487,452,396,347,298,251,194,177,161,151,144,135,134,133,133,133,133,136,137,137,137,133,126,122,116,109,103,96,95,95,95,95,95,95,94,94,88],"timestamp_mouse":[11,31,51,71,92,111,130,150,170,190,212,231,250,271,292,310,331,352,372,392,411,432,452,471,492,511,532,550,572,592,611,632,651,671,691,711,731,752,770,791,811,831,853,871,891,910,932,953,971,991,1011,1031,1051,1071,1092,1112,1131,1152,1171,1192,1211,1232,1250,1271,1290,1311,1331,1352,1371,1391,1412,1431,1452],"xSR":741.5,"ySR":469.95,"xT1":424.9,"yT1":0,"xT2":1058.1,"yT2":0,"toosoon":0,"cond_shown":"equaldotanddens","ratio_trial":900,"smaller_num":"18","larger_num":"20","correct_side":2,"subjID":"Federico Millan Alvarez 22","gender":"0","age":"9","school":"4"},{"start_time":1552310026498,"click_time":1552310027753,"finger_time":1552310027193,"fix_duration":803.7895499456446,"trial":28,"RT":695,"MT":560,"sideResp":2,"stimulus":"img/750/equaldotanddens/R/15_Ratio_750_L_9_R_12.png","xmouse":[780,780,780,780,780,780,780,780,780,780,780,780,780,780,780,780,780,780,780,780,780,780,780,780,780,779,778,777,776,776,776,776,776,778,783,791,814,826,838,853,870,925,953,991,1010,1026,1039,1056,1058,1058,1053,1031,1023,1020,1020,1019,1019,1019,1019,1021,1025,1046,1067],"ymouse":[552,552,552,552,552,552,552,552,552,552,552,552,552,552,552,552,552,552,552,552,552,552,552,549,546,542,533,528,522,516,509,497,490,481,462,448,415,397,378,359,340,293,267,224,203,183,165,130,115,101,86,59,44,37,34,31,31,31,31,33,37,54,64],"timestamp_mouse":[15,46,55,75,95,116,136,155,175,196,216,236,255,275,295,316,334,355,376,394,416,436,455,475,495,515,535,556,575,595,616,635,655,675,695,716,735,755,775,795,815,836,855,876,895,915,935,954,975,996,1015,1036,1055,1075,1096,1116,1136,1155,1176,1195,1215,1235,1255],"xSR":741.5,"ySR":469.95,"xT1":424.9,"yT1":0,"xT2":1058.1,"yT2":0,"toosoon":0,"cond_shown":"equaldotanddens","ratio_trial":750,"smaller_num":"9","larger_num":"12","correct_side":2,"subjID":"Federico Millan Alvarez 22","gender":"0","age":"9","school":"4"},{"start_time":1552310030063,"click_time":1552310031253,"finger_time":1552310030854,"fix_duration":1448.8986190123214,"trial":29,"RT":791,"MT":399,"sideResp":2,"stimulus":"img/500/randomdotsizeEA/R/15_Ratio_500_L_1_R_2.png","xmouse":[782,782,782,782,783,784,785,787,790,794,795,795,795,795,798,800,803,805,808,809,809,809,809,809,809,809,809,809,809,809,809,809,810,809,808,805,802,799,796,795,795,797,805,815,847,877,897,906,914,933,941,951,961,983,1004,1020,1033,1042,1049,1059],"ymouse":[509,509,509,509,510,510,511,512,514,515,516,516,516,516,516,516,516,515,513,513,512,512,512,512,512,512,512,512,512,512,512,512,512,509,507,502,497,489,483,462,444,425,401,379,322,269,230,212,198,172,161,151,142,127,116,109,103,100,97,92],"timestamp_mouse":[10,43,50,69,90,110,130,149,171,190,211,229,251,270,290,310,330,350,371,391,410,430,451,471,491,511,531,550,570,591,610,629,651,671,691,710,731,750,770,791,809,830,849,870,890,910,931,951,970,990,1011,1030,1051,1072,1090,1111,1130,1150,1171,1189],"xSR":741.5,"ySR":469.95,"xT1":424.9,"yT1":0,"xT2":1058.1,"yT2":0,"toosoon":0,"cond_shown":"randomdotsizeEA","ratio_trial":500,"smaller_num":"1","larger_num":"2","correct_side":2,"subjID":"Federico Millan Alvarez 22","gender":"0","age":"9","school":"4"},{"start_time":1552310035122,"click_time":1552310036053,"finger_time":1552310035653,"fix_duration":1148.6822808670522,"trial":30,"RT":531,"MT":400,"sideResp":1,"stimulus":"img/500/equaldotsize/L/8_Ratio_500_L_8_R_4.png","xmouse":[775,776,777,777,777,777,777,778,778,779,779,779,779,779,779,779,779,779,779,779,779,779,774,769,763,754,732,721,711,693,680,649,631,610,596,584,564,550,542,532,523,512,490,479,467,455,439],"ymouse":[539,537,535,532,532,532,532,532,532,532,532,532,532,532,532,532,532,532,532,532,532,532,525,518,512,504,486,476,463,438,419,375,346,316,290,269,235,215,205,194,181,169,142,129,115,105,86],"timestamp_mouse":[12,32,51,71,91,112,132,151,171,191,212,232,252,272,292,311,332,351,372,390,412,431,450,470,492,511,531,551,571,591,611,631,650,671,691,711,732,750,771,792,812,831,852,871,891,911,931],"xSR":741.5,"ySR":469.95,"xT1":424.9,"yT1":0,"xT2":1058.1,"yT2":0,"toosoon":0,"cond_shown":"equaldotsize","ratio_trial":500,"smaller_num":"4","larger_num":"8","correct_side":1,"subjID":"Federico Millan Alvarez 22","gender":"0","age":"9","school":"4"},{"start_time":1552310037324,"click_time":1552310038754,"finger_time":1552310038054,"fix_duration":250,"trial":31,"RT":730,"MT":700,"sideResp":2,"stimulus":"img/750/randomdotsizeEA/R/11_Ratio_750_L_12_R_16.png","xmouse":[799,799,799,799,799,799,799,799,799,799,799,799,799,799,799,799,799,799,799,799,799,799,799,799,799,799,799,799,799,799,799,799,799,799,800,803,819,838,856,878,903,931,977,989,995,999,1007,1012,1014,1016,1018,1025,1032,1041,1053,1072,1149,1196,1208,1212,1212,1212,1209,1208,1207,1202,1182,1177,1177,1173,1159,1135],"ymouse":[479,479,479,479,479,479,479,479,479,479,482,485,488,491,493,495,496,497,498,498,498,498,498,498,498,498,498,498,498,498,498,498,498,498,498,492,455,422,398,373,353,332,294,277,261,249,230,220,217,214,211,204,200,199,194,184,153,130,119,110,101,93,81,78,77,74,69,67,67,67,66,65],"timestamp_mouse":[9,29,53,69,90,110,129,149,170,189,209,229,249,269,289,310,330,348,369,389,409,428,449,468,490,510,529,550,570,590,609,629,650,670,690,709,730,748,768,789,810,829,849,869,889,908,931,949,969,989,1010,1030,1048,1069,1089,1109,1130,1149,1169,1190,1210,1230,1249,1269,1290,1310,1330,1349,1369,1390,1410,1429],"xSR":741.5,"ySR":469.95,"xT1":424.9,"yT1":0,"xT2":1058.1,"yT2":0,"toosoon":0,"cond_shown":"randomdotsizeEA","ratio_trial":750,"smaller_num":"12","larger_num":"16","correct_side":2,"subjID":"Federico Millan Alvarez 22","gender":"0","age":"9","school":"4"},{"start_time":1552310042462,"click_time":1552310043193,"finger_time":1552310043053,"fix_duration":1007.581494847383,"trial":32,"RT":591,"MT":140,"sideResp":1,"stimulus":"img/500/randomdotsizeEA/R/1_Ratio_500_L_9_R_18.png","xmouse":[802,800,800,797,795,791,790,790,790,790,788,788,788,788,788,788,788,788,788,788,787,787,787,787,786,784,780,770,754,732,700,629,598,565,539,513,507],"ymouse":[530,531,531,535,538,545,546,546,546,546,546,546,546,546,546,546,546,546,546,546,546,542,537,531,527,517,509,491,470,440,400,301,252,201,158,104,87],"timestamp_mouse":[11,43,51,72,92,110,132,152,171,191,210,231,251,271,291,311,331,350,372,390,411,431,451,471,491,511,531,552,571,591,610,631,651,672,691,712,730],"xSR":741.5,"ySR":469.95,"xT1":424.9,"yT1":0,"xT2":1058.1,"yT2":0,"toosoon":0,"cond_shown":"randomdotsizeEA","ratio_trial":500,"smaller_num":"9","larger_num":"18","correct_side":2,"subjID":"Federico Millan Alvarez 22","gender":"0","age":"9","school":"4"},{"start_time":1552310044525,"click_time":1552310045854,"finger_time":1552310045473,"fix_duration":250,"trial":33,"RT":948,"MT":381,"sideResp":2,"stimulus":"img/250/randomdotsizeEA/R/9_Ratio_250_L_3_R_12.png","xmouse":[797,795,792,790,790,790,790,790,789,788,788,788,788,788,788,788,788,788,788,788,788,788,788,788,788,788,788,788,788,788,788,788,788,788,788,788,788,788,788,788,788,788,788,789,792,794,798,809,816,820,826,835,844,862,878,887,895,914,928,943,960,975,1006,1030,1044,1056,1066],"ymouse":[524,524,523,523,522,522,522,522,522,522,522,522,522,522,522,522,521,521,521,521,521,521,521,521,521,521,521,518,515,514,512,512,512,512,512,512,512,512,512,512,512,511,510,507,499,490,479,448,430,411,388,364,341,301,275,259,246,225,217,209,201,192,166,143,123,105,84],"timestamp_mouse":[9,28,47,69,87,120,129,148,168,188,208,229,247,269,289,308,328,348,368,387,409,428,449,469,489,508,528,548,568,587,609,628,649,669,688,709,727,748,769,788,809,827,848,869,888,909,927,948,968,988,1008,1027,1049,1068,1088,1109,1128,1148,1168,1189,1208,1228,1248,1268,1288,1307,1329],"xSR":741.5,"ySR":469.95,"xT1":424.9,"yT1":0,"xT2":1058.1,"yT2":0,"toosoon":0,"cond_shown":"randomdotsizeEA","ratio_trial":250,"smaller_num":"3","larger_num":"12","correct_side":2,"subjID":"Federico Millan Alvarez 22","gender":"0","age":"9","school":"4"},{"start_time":1552310049008,"click_time":1552310049733,"finger_time":1552310049334,"fix_duration":413.6567869131496,"trial":34,"RT":326,"MT":399,"sideResp":1,"stimulus":"img/900/equaldotanddens/R/9_Ratio_900_L_18_R_20.png","xmouse":[794,794,794,794,794,794,794,794,794,793,792,789,786,780,764,752,740,725,679,663,652,642,633,612,604,596,587,580,576,567,562,555,548,523,508,491,470],"ymouse":[529,529,529,529,529,529,529,529,529,529,529,526,520,511,493,481,471,459,426,413,402,389,374,340,324,306,288,265,250,217,199,183,166,133,118,106,95],"timestamp_mouse":[10,39,45,65,85,106,126,145,166,186,206,226,244,266,284,305,326,346,367,384,406,425,445,467,485,505,525,546,565,584,605,626,646,667,685,706,725],"xSR":741.5,"ySR":469.95,"xT1":424.9,"yT1":0,"xT2":1058.1,"yT2":0,"toosoon":0,"cond_shown":"equaldotanddens","ratio_trial":900,"smaller_num":"18","larger_num":"20","correct_side":2,"subjID":"Federico Millan Alvarez 22","gender":"0","age":"9","school":"4"},{"start_time":1552310051279,"click_time":1552310053053,"finger_time":1552310051753,"fix_duration":523.8096954088014,"trial":35,"RT":474,"MT":1300,"sideResp":1,"stimulus":"img/500/randomdotsizeEA/L/13_Ratio_500_L_12_R_6.png","xmouse":[812,812,812,812,812,812,812,812,812,812,812,812,812,812,812,812,812,812,812,812,812,812,812,812,813,825,837,847,854,858,861,865,871,882,890,897,899,903,909,919,942,951,960,972,976,979,979,979,979,979,979,971,966,948,932,865,803,741,692,660,620,614,611,607,602,594,590,588,585,580,562,519,461,408,378,341,335,334,334,333,333,335,337,344,346,355,373,403,448],"ymouse":[525,525,525,525,525,525,525,525,525,525,525,525,525,525,525,525,524,518,513,510,496,486,474,454,436,392,368,349,337,325,295,277,259,235,224,214,212,211,208,205,199,195,193,188,187,186,186,186,186,186,192,203,208,224,235,266,280,288,295,300,305,305,303,288,273,232,217,205,193,180,151,123,105,94,89,81,77,75,71,66,56,49,49,46,46,46,50,58,68],"timestamp_mouse":[14,34,62,74,93,115,135,154,174,194,215,235,254,275,294,314,334,354,374,394,414,435,454,474,494,515,534,554,575,594,615,635,654,675,694,714,734,754,775,794,814,835,854,874,894,914,934,955,974,994,1014,1034,1055,1075,1093,1114,1134,1155,1174,1195,1214,1235,1255,1275,1294,1314,1335,1354,1374,1393,1414,1434,1454,1474,1494,1514,1535,1555,1574,1595,1614,1634,1654,1674,1695,1714,1734,1754,1774],"xSR":741.5,"ySR":469.95,"xT1":424.9,"yT1":0,"xT2":1058.1,"yT2":0,"toosoon":0,"cond_shown":"randomdotsizeEA","ratio_trial":500,"smaller_num":"6","larger_num":"12","correct_side":1,"subjID":"Federico Millan Alvarez 22","gender":"0","age":"9","school":"4"},{"start_time":1552310057217,"click_time":1552310058933,"finger_time":1552310057893,"fix_duration":721.0020871089662,"trial":36,"RT":676,"MT":1040,"sideResp":1,"stimulus":"img/250/randomdotsizeEA/L/14_Ratio_250_L_12_R_3.png","xmouse":[787,787,787,787,787,787,787,787,787,787,787,787,787,787,787,787,787,787,787,787,787,787,787,787,787,787,787,787,789,796,804,815,829,849,875,889,905,920,949,957,962,964,967,970,976,980,984,986,988,991,992,992,987,910,863,816,754,678,587,403,329,275,239,200,165,150,139,127,115,101,101,114,163,322,578,695,791,859,887,887,887,876,828,761,558,430],"ymouse":[529,529,529,529,529,529,529,529,529,529,529,529,529,529,529,529,529,529,529,529,529,529,529,529,529,529,529,529,529,529,529,528,526,520,511,503,495,489,477,471,468,466,463,460,453,450,447,443,438,428,422,414,399,334,312,295,282,272,264,265,275,283,288,291,283,274,264,248,228,192,181,171,164,164,137,129,127,125,125,125,123,119,105,91,60,42],"timestamp_mouse":[16,42,56,77,95,116,136,156,177,196,217,236,257,277,297,316,337,357,376,396,417,436,457,475,497,517,537,556,577,596,615,637,657,676,695,716,736,757,777,797,816,836,856,876,896,916,936,956,976,996,1016,1036,1056,1077,1096,1117,1136,1157,1176,1196,1217,1236,1256,1275,1296,1316,1337,1357,1376,1396,1416,1436,1456,1475,1496,1516,1536,1557,1578,1596,1616,1636,1656,1675,1696,1716],"xSR":741.5,"ySR":469.95,"xT1":424.9,"yT1":0,"xT2":1058.1,"yT2":0,"toosoon":0,"cond_shown":"randomdotsizeEA","ratio_trial":250,"smaller_num":"3","larger_num":"12","correct_side":1,"subjID":"Federico Millan Alvarez 22","gender":"0","age":"9","school":"4"},{"start_time":1552310062333,"click_time":1552310063574,"finger_time":1552310063092,"fix_duration":798.5425569630916,"trial":37,"RT":759,"MT":482,"sideResp":2,"stimulus":"img/900/equaldotsize/L/2_Ratio_900_L_20_R_18.png","xmouse":[766,766,766,766,766,767,768,768,768,768,768,768,768,768,768,768,768,768,768,768,768,768,768,768,768,768,768,768,768,768,768,768,768,768,766,766,766,769,774,781,801,812,828,842,872,894,911,928,945,961,991,1006,1017,1025,1034,1036,1036,1036,1036,1037,1043,1056,1078],"ymouse":[540,540,540,540,540,537,531,529,527,526,526,526,526,526,526,526,526,526,526,526,526,526,526,526,526,526,526,526,526,526,526,525,524,523,513,504,496,482,465,447,407,386,366,345,305,274,254,233,212,192,151,131,111,94,70,63,61,61,61,60,60,60,60],"timestamp_mouse":[2,20,46,60,80,100,120,140,160,179,200,221,241,261,280,301,320,341,360,381,401,420,440,460,481,500,521,541,560,581,601,621,640,661,681,700,720,740,759,780,800,820,840,861,881,901,920,941,960,980,1000,1021,1040,1059,1081,1100,1121,1141,1160,1180,1200,1220,1241],"xSR":741.5,"ySR":469.95,"xT1":424.9,"yT1":0,"xT2":1058.1,"yT2":0,"toosoon":0,"cond_shown":"equaldotsize","ratio_trial":900,"smaller_num":"18","larger_num":"20","correct_side":1,"subjID":"Federico Millan Alvarez 22","gender":"0","age":"9","school":"4"},{"start_time":1552310066128,"click_time":1552310067113,"finger_time":1552310066433,"fix_duration":734.1588077602412,"trial":38,"RT":305,"MT":680,"sideResp":1,"stimulus":"img/750/equaldotsize/L/1_Ratio_750_L_20_R_15.png","xmouse":[792,792,792,792,792,792,792,792,792,792,792,792,793,793,792,775,760,736,716,692,687,684,682,679,671,663,660,656,652,645,620,599,572,511,487,420,399,383,369,365,363,363,363,363,364,375,384,401,424,448],"ymouse":[491,491,491,491,491,491,491,491,491,491,491,491,491,491,485,460,445,426,411,381,369,355,340,326,305,282,269,257,244,228,196,179,161,127,112,75,62,53,43,39,35,34,33,33,31,31,32,37,44,51],"timestamp_mouse":[10,39,45,65,85,105,126,145,166,185,206,226,246,265,286,305,325,345,365,387,405,425,446,466,485,505,525,546,565,585,605,625,646,666,685,706,725,745,765,786,805,826,846,866,886,906,925,946,965,985],"xSR":741.5,"ySR":469.95,"xT1":424.9,"yT1":0,"xT2":1058.1,"yT2":0,"toosoon":0,"cond_shown":"equaldotsize","ratio_trial":750,"smaller_num":"15","larger_num":"20","correct_side":1,"subjID":"Federico Millan Alvarez 22","gender":"0","age":"9","school":"4"},{"start_time":1552310071957,"click_time":1552310073194,"finger_time":1552310072654,"fix_duration":300.36217549141065,"trial":39,"RT":697,"MT":540,"sideResp":2,"stimulus":"img/500/equaldotanddens/R/15_Ratio_500_L_1_R_2.png","xmouse":[778,778,778,778,778,778,778,778,778,778,778,778,778,778,778,778,778,778,778,778,778,778,778,778,778,778,778,778,778,778,780,790,806,825,872,904,941,986,1063,1103,1123,1138,1148,1162,1165,1169,1169,1169,1169,1169,1169,1169,1169,1169,1169,1169,1169,1169,1169,1169,1169,1141],"ymouse":[537,537,537,537,537,537,537,537,537,537,537,537,537,537,537,537,537,537,537,537,537,537,537,537,537,537,537,537,537,537,535,528,515,499,467,443,413,378,304,246,207,168,130,67,40,13,1,1,1,1,1,1,1,1,1,1,1,1,1,1,1,5],"timestamp_mouse":[16,37,56,91,96,116,136,156,176,196,217,236,257,277,296,316,336,356,377,396,416,436,457,477,497,516,536,557,576,597,616,636,656,676,697,716,737,757,778,796,817,837,856,878,896,916,938,956,977,997,1016,1036,1057,1077,1097,1117,1136,1156,1177,1196,1216,1237],"xSR":741.5,"ySR":469.95,"xT1":424.9,"yT1":0,"xT2":1058.1,"yT2":0,"toosoon":0,"cond_shown":"equaldotanddens","ratio_trial":500,"smaller_num":"1","larger_num":"2","correct_side":2,"subjID":"Federico Millan Alvarez 22","gender":"0","age":"9","school":"4"},{"start_time":1552310075098,"click_time":1552310076194,"finger_time":1552310075753,"fix_duration":802.0157200999117,"trial":40,"RT":655,"MT":441,"sideResp":2,"stimulus":"img/900/randomdotsizeEA/R/7_Ratio_900_L_9_R_10.png","xmouse":[795,795,795,795,795,795,795,795,795,795,795,795,795,795,795,795,795,795,795,795,795,795,795,795,795,795,795,795,795,799,801,810,827,837,850,862,902,926,957,987,1022,1031,1052,1056,1062,1066,1072,1085,1091,1095,1099,1106,1112,1114,1116],"ymouse":[479,479,479,479,479,479,479,479,479,480,482,483,485,486,486,486,486,486,486,486,486,486,486,486,486,486,486,486,486,485,483,474,460,453,444,436,419,409,395,377,351,344,305,288,272,256,241,211,197,181,166,144,118,105,92],"timestamp_mouse":[15,39,55,76,96,116,136,156,177,195,216,236,255,276,295,316,337,355,375,396,416,436,455,476,496,515,535,555,575,595,616,636,655,675,695,716,737,755,777,796,815,836,856,875,895,915,935,955,976,996,1015,1036,1055,1075,1095],"xSR":741.5,"ySR":469.95,"xT1":424.9,"yT1":0,"xT2":1058.1,"yT2":0,"toosoon":0,"cond_shown":"randomdotsizeEA","ratio_trial":900,"smaller_num":"9","larger_num":"10","correct_side":2,"subjID":"Federico Millan Alvarez 22","gender":"0","age":"9","school":"4"},{"start_time":1552310079700,"click_time":1552310080713,"finger_time":1552310080153,"fix_duration":1044.0575170749398,"trial":41,"RT":453,"MT":560,"sideResp":2,"stimulus":"img/500/equaldotanddens/R/2_Ratio_500_L_3_R_6.png","xmouse":[794,794,791,790,790,790,790,790,790,790,790,790,790,790,790,790,790,790,790,790,793,799,865,941,1025,1110,1221,1221,1221,1221,1221,1221,1221,1221,1221,1221,1221,1221,1221,1221,1211,1206,1198,1194,1192,1186,1180,1176,1167,1165,1156],"ymouse":[540,540,540,540,540,540,540,540,540,540,540,540,540,540,540,540,540,540,540,540,536,529,464,396,314,217,50,50,50,50,50,50,50,50,50,50,50,50,50,50,7,16,26,30,32,33,34,35,38,39,40],"timestamp_mouse":[15,39,54,73,94,114,134,153,174,194,214,234,253,274,294,313,333,353,375,394,414,434,453,473,493,514,533,553,575,594,614,633,654,674,693,713,734,754,773,793,813,834,854,873,894,914,934,954,974,994,1013],"xSR":741.5,"ySR":469.95,"xT1":424.9,"yT1":0,"xT2":1058.1,"yT2":0,"toosoon":0,"cond_shown":"equaldotanddens","ratio_trial":500,"smaller_num":"3","larger_num":"6","correct_side":2,"subjID":"Federico Millan Alvarez 22","gender":"0","age":"9","school":"4"},{"start_time":1552310082125,"click_time":1552310083094,"finger_time":1552310082733,"fix_duration":250,"trial":42,"RT":608,"MT":361,"sideResp":2,"stimulus":"img/750/randomdotsizeEA/L/1_Ratio_750_L_20_R_15.png","xmouse":[785,785,785,785,786,786,786,786,786,786,786,787,787,787,787,787,787,787,787,787,787,787,787,787,787,789,791,797,802,808,816,824,848,867,889,911,929,959,972,987,1002,1027,1039,1049,1057,1062,1073,1077,1082],"ymouse":[503,503,503,503,503,503,503,503,503,503,503,503,503,503,503,503,503,503,503,503,503,503,503,503,503,503,500,492,485,476,465,453,428,410,392,369,348,306,291,276,263,237,220,203,184,169,126,111,94],"timestamp_mouse":[10,28,48,68,88,108,129,148,168,188,208,229,248,268,288,308,330,348,369,388,408,430,448,468,488,508,529,549,569,589,608,629,648,668,689,709,729,748,768,788,809,829,848,869,889,909,929,950,969],"xSR":741.5,"ySR":469.95,"xT1":424.9,"yT1":0,"xT2":1058.1,"yT2":0,"toosoon":0,"cond_shown":"randomdotsizeEA","ratio_trial":750,"smaller_num":"15","larger_num":"20","correct_side":1,"subjID":"Federico Millan Alvarez 22","gender":"0","age":"9","school":"4"},{"start_time":1552310085080,"click_time":1552310085993,"finger_time":1552310085613,"fix_duration":885.3723760310884,"trial":43,"RT":533,"MT":380,"sideResp":2,"stimulus":"img/500/equaldotsize/R/2_Ratio_500_L_3_R_6.png","xmouse":[786,787,787,787,787,787,787,787,787,787,787,787,787,787,787,787,787,787,787,787,787,787,787,788,793,811,848,897,979,1085,1130,1166,1193,1211,1228,1231,1231,1231,1228,1223,1221,1221,1219,1211,1177,1156],"ymouse":[494,493,492,492,491,491,491,491,491,491,491,491,491,491,491,491,491,491,491,491,491,491,491,491,490,483,472,452,406,305,254,211,172,141,94,76,63,47,40,33,31,31,31,31,31,34],"timestamp_mouse":[17,34,60,74,93,113,133,154,173,195,215,234,254,273,293,313,333,354,374,393,414,434,454,473,494,513,533,553,574,594,613,633,654,674,693,714,733,753,773,793,813,834,855,874,893,913],"xSR":741.5,"ySR":469.95,"xT1":424.9,"yT1":0,"xT2":1058.1,"yT2":0,"toosoon":0,"cond_shown":"equaldotsize","ratio_trial":500,"smaller_num":"3","larger_num":"6","correct_side":2,"subjID":"Federico Millan Alvarez 22","gender":"0","age":"9","school":"4"},{"start_time":1552310087601,"click_time":1552310088774,"finger_time":1552310088134,"fix_duration":326.5365448574745,"trial":44,"RT":533,"MT":640,"sideResp":1,"stimulus":"img/750/randomdotsizeEA/R/2_Ratio_750_L_6_R_8.png","xmouse":[781,781,781,781,781,781,781,781,781,781,781,781,781,781,781,781,781,781,781,781,781,781,781,781,781,781,781,781,779,774,762,749,730,701,687,671,657,646,641,641,641,638,631,608,592,572,552,535,521,500,491,488,488,488,488,488,488,488,491],"ymouse":[487,487,487,487,487,487,487,487,487,487,487,487,487,487,487,487,487,487,487,487,487,487,487,487,485,478,467,453,423,409,391,380,366,333,315,294,275,263,256,256,254,248,239,215,201,187,173,160,145,119,110,109,109,109,109,109,109,104,93],"timestamp_mouse":[12,43,52,72,93,113,134,153,172,192,213,233,253,272,292,312,332,353,373,393,413,432,453,472,492,512,533,552,573,592,613,632,653,672,692,712,732,752,773,792,812,833,852,873,892,912,933,952,972,993,1012,1033,1054,1073,1092,1112,1132,1153,1172],"xSR":741.5,"ySR":469.95,"xT1":424.9,"yT1":0,"xT2":1058.1,"yT2":0,"toosoon":0,"cond_shown":"randomdotsizeEA","ratio_trial":750,"smaller_num":"6","larger_num":"8","correct_side":2,"subjID":"Federico Millan Alvarez 22","gender":"0","age":"9","school":"4"},{"start_time":1552310094599,"click_time":1552310095814,"finger_time":1552310094993,"fix_duration":944.1057321265307,"trial":45,"RT":394,"MT":821,"sideResp":2,"stimulus":"img/250/equaldotsize/R/8_Ratio_250_L_1_R_4.png","xmouse":[813,813,813,813,813,813,813,813,813,813,813,813,813,813,813,813,813,813,813,818,823,828,832,836,849,861,863,873,879,892,901,913,926,941,965,974,979,982,983,983,983,983,984,987,1013,1049,1061,1088,1097,1102,1102,1102,1102,1102,1102,1102,1102,1102,1102,1099,1097],"ymouse":[520,520,519,519,519,519,519,518,517,516,515,512,511,509,502,498,489,485,470,443,427,409,395,379,345,316,308,281,264,239,225,206,188,166,129,115,106,101,99,97,97,97,97,97,110,125,129,135,135,133,132,132,132,132,132,132,132,132,130,112,99],"timestamp_mouse":[24,35,60,74,94,114,134,156,174,195,215,235,254,274,294,314,334,355,374,394,414,434,454,474,494,514,534,554,574,594,615,634,654,675,694,714,734,754,774,794,815,834,854,875,894,914,934,955,975,994,1015,1035,1054,1075,1095,1115,1134,1155,1175,1194,1215],"xSR":741.5,"ySR":469.95,"xT1":424.9,"yT1":0,"xT2":1058.1,"yT2":0,"toosoon":0,"cond_shown":"equaldotsize","ratio_trial":250,"smaller_num":"1","larger_num":"4","correct_side":2,"subjID":"Federico Millan Alvarez 22","gender":"0","age":"9","school":"4"},{"start_time":1552310100023,"click_time":1552310101195,"finger_time":1552310100674,"fix_duration":1169.2909449215,"trial":46,"RT":651,"MT":521,"sideResp":2,"stimulus":"img/250/equaldotanddens/R/10_Ratio_250_L_4_R_16.png","xmouse":[810,810,810,810,810,810,810,810,810,810,810,810,810,810,810,810,810,810,810,810,810,810,810,810,811,816,821,824,825,827,828,834,844,857,892,906,916,929,950,964,977,989,995,1001,1001,1001,1001,1001,1001,1001,1001,1001,1015,1022,1037,1041,1044,1047,1062],"ymouse":[512,512,512,512,512,512,512,512,512,512,512,512,512,512,512,512,512,512,512,512,512,512,512,512,509,504,500,497,496,490,486,474,455,435,383,359,333,302,223,177,130,87,53,2,2,2,2,2,2,2,2,2,5,12,22,24,27,29,31],"timestamp_mouse":[13,34,51,70,91,110,131,151,170,190,210,231,250,270,291,310,330,350,370,391,411,431,451,471,490,511,530,550,571,591,611,632,651,670,690,710,730,752,772,790,810,831,850,872,890,910,930,950,970,990,1010,1031,1051,1070,1090,1110,1130,1151,1172],"xSR":741.5,"ySR":469.95,"xT1":424.9,"yT1":0,"xT2":1058.1,"yT2":0,"toosoon":0,"cond_shown":"equaldotanddens","ratio_trial":250,"smaller_num":"4","larger_num":"16","correct_side":2,"subjID":"Federico Millan Alvarez 22","gender":"0","age":"9","school":"4"},{"start_time":1552310104426,"click_time":1552310105514,"finger_time":1552310104953,"fix_duration":250,"trial":47,"RT":527,"MT":561,"sideResp":2,"stimulus":"img/750/randomdotsizeEA/L/13_Ratio_750_L_8_R_6.png","xmouse":[802,802,802,802,802,802,802,802,802,802,802,802,802,802,802,802,802,802,802,802,802,802,801,801,798,796,794,793,790,783,781,780,780,782,806,824,843,868,897,984,1026,1069,1089,1108,1130,1134,1135,1135,1135,1135,1135,1135,1140,1145,1145],"ymouse":[509,509,509,509,509,509,509,509,509,509,509,509,509,509,509,509,509,509,509,509,509,509,507,502,486,476,464,454,443,423,414,406,400,397,391,386,380,374,365,334,314,285,268,250,214,200,188,181,177,176,174,170,158,137,78],"timestamp_mouse":[9,41,47,68,87,108,128,147,167,187,208,227,247,268,288,308,328,347,368,388,408,428,448,469,487,508,527,547,568,588,607,628,648,668,687,707,727,747,767,787,807,827,847,867,888,908,927,947,968,987,1008,1027,1048,1067,1087],"xSR":741.5,"ySR":469.95,"xT1":424.9,"yT1":0,"xT2":1058.1,"yT2":0,"toosoon":0,"cond_shown":"randomdotsizeEA","ratio_trial":750,"smaller_num":"6","larger_num":"8","correct_side":1,"subjID":"Federico Millan Alvarez 22","gender":"0","age":"9","school":"4"},{"start_time":1552310112386,"click_time":1552310113693,"finger_time":1552310112993,"fix_duration":290.1951426141591,"trial":48,"RT":607,"MT":700,"sideResp":1,"stimulus":"img/500/equaldotanddens/L/11_Ratio_500_L_12_R_6.png","xmouse":[771,771,771,771,771,771,771,771,771,771,771,771,771,771,771,771,771,771,771,771,771,771,771,771,771,769,768,757,752,746,734,730,710,694,678,662,645,607,588,563,524,498,450,429,417,411,406,395,392,392,392,392,392,392,392,392,392,392,392,392,392,392,392,392,392,440],"ymouse":[554,554,554,554,554,554,554,554,554,554,554,554,554,554,554,554,554,554,554,554,554,554,554,554,554,554,554,554,554,552,545,541,520,501,478,442,404,342,321,304,282,268,242,224,200,173,132,50,0,0,0,0,0,0,0,0,0,0,0,0,0,0,0,0,0,7],"timestamp_mouse":[12,34,49,67,87,108,128,148,169,188,209,228,248,268,287,308,327,348,368,387,408,427,447,467,487,507,527,547,568,588,607,628,647,667,687,707,727,747,768,788,807,828,848,867,888,907,928,947,967,987,1007,1027,1048,1067,1088,1108,1128,1148,1168,1188,1207,1228,1247,1268,1287,1307],"xSR":741.5,"ySR":469.95,"xT1":424.9,"yT1":0,"xT2":1058.1,"yT2":0,"toosoon":0,"cond_shown":"equaldotanddens","ratio_trial":500,"smaller_num":"6","larger_num":"12","correct_side":1,"subjID":"Federico Millan Alvarez 22","gender":"0","age":"9","school":"4"},{"start_time":1552310117653,"click_time":1552310118893,"finger_time":1552310118353,"fix_duration":357.23345217294036,"trial":49,"RT":700,"MT":540,"sideResp":2,"stimulus":"img/250/equaldotsize/R/13_Ratio_250_L_2_R_8.png","xmouse":[780,780,780,780,780,780,780,780,780,780,780,780,780,780,780,780,780,780,780,780,780,780,780,780,780,780,780,780,780,780,780,780,779,780,794,800,806,812,819,827,845,858,869,876,878,877,877,877,877,877,877,878,880,886,901,943,971,995,1020,1040,1060,1064,1069],"ymouse":[513,513,513,513,513,513,513,513,513,513,513,513,513,513,513,513,513,513,513,513,513,513,513,513,513,513,513,513,513,513,513,513,510,507,472,455,435,412,390,364,303,262,224,197,168,152,151,151,151,151,150,150,150,151,155,157,155,147,135,123,107,102,97],"timestamp_mouse":[9,22,40,60,80,100,121,140,160,181,200,220,241,260,281,301,321,340,360,381,401,421,441,461,481,500,520,540,561,581,601,620,641,661,681,700,720,740,761,780,800,821,840,860,882,901,920,940,960,981,1000,1020,1040,1061,1080,1100,1120,1140,1161,1181,1200,1220,1240],"xSR":741.5,"ySR":469.95,"xT1":424.9,"yT1":0,"xT2":1058.1,"yT2":0,"toosoon":0,"cond_shown":"equaldotsize","ratio_trial":250,"smaller_num":"2","larger_num":"8","correct_side":2,"subjID":"Federico Millan Alvarez 22","gender":"0","age":"9","school":"4"},{"start_time":1552310139196,"click_time":1552310140233,"finger_time":1552310139813,"fix_duration":561.8199019021547,"trial":50,"RT":617,"MT":420,"sideResp":2,"stimulus":"img/750/equaldotsize/R/11_Ratio_750_L_12_R_16.png","xmouse":[796,796,796,796,796,796,796,796,796,796,796,796,796,796,796,796,796,796,796,796,796,796,796,796,796,796,797,800,807,838,852,864,880,901,939,957,968,978,990,1003,1012,1022,1031,1037,1044,1045,1045,1045,1045,1049,1058,1073],"ymouse":[548,548,548,548,548,548,548,548,548,548,546,539,533,527,520,519,519,519,519,519,519,519,519,519,519,519,519,519,511,486,470,450,424,387,314,272,247,227,206,166,147,130,117,106,95,94,94,94,94,95,96,96],"timestamp_mouse":[18,37,60,77,97,118,138,157,177,198,218,238,257,277,297,317,338,357,377,397,418,438,458,478,498,518,537,558,578,597,617,637,658,677,697,717,738,758,778,798,817,837,858,877,898,918,938,958,978,997,1017,1037],"xSR":741.5,"ySR":469.95,"xT1":424.9,"yT1":0,"xT2":1058.1,"yT2":0,"toosoon":0,"cond_shown":"equaldotsize","ratio_trial":750,"smaller_num":"12","larger_num":"16","correct_side":2,"subjID":"Federico Millan Alvarez 22","gender":"0","age":"9","school":"4"},{"start_time":1552310146263,"click_time":1552310147353,"finger_time":1552310146813,"fix_duration":848.6858652077372,"trial":51,"RT":550,"MT":540,"sideResp":2,"stimulus":"img/250/equaldotanddens/R/12_Ratio_250_L_5_R_20.png","xmouse":[796,796,796,796,796,796,796,796,796,796,796,796,796,796,796,796,796,796,796,796,796,796,798,799,803,811,833,922,985,1085,1149,1203,1265,1282,1295,1303,1304,1304,1304,1304,1305,1299,1224,1181,1141,1108,1083,1067,1055,1054,1054,1054,1054,1058,1068],"ymouse":[546,546,546,546,546,546,546,546,546,546,546,546,546,546,546,546,546,545,544,542,541,540,534,529,520,509,487,409,366,301,261,230,186,174,169,167,167,167,167,167,167,164,141,128,119,114,108,101,94,91,89,88,88,88,88],"timestamp_mouse":[10,39,50,71,90,111,130,150,171,191,211,230,250,270,292,310,330,350,370,391,410,430,450,470,490,511,531,550,570,591,612,631,650,671,690,711,731,750,771,791,810,831,850,871,891,910,930,950,971,990,1010,1030,1050,1070,1090],"xSR":741.5,"ySR":469.95,"xT1":424.9,"yT1":0,"xT2":1058.1,"yT2":0,"toosoon":0,"cond_shown":"equaldotanddens","ratio_trial":250,"smaller_num":"5","larger_num":"20","correct_side":2,"subjID":"Federico Millan Alvarez 22","gender":"0","age":"9","school":"4"},{"start_time":1552310153655,"click_time":1552310154933,"finger_time":1552310154534,"fix_duration":520.778926034417,"trial":52,"RT":879,"MT":399,"sideResp":1,"stimulus":"img/250/equaldotsize/L/2_Ratio_250_L_16_R_4.png","xmouse":[819,819,819,825,825,825,825,825,825,825,825,825,825,825,825,825,825,825,825,825,825,825,825,825,825,822,809,803,783,783,783,783,783,783,783,783,783,783,783,783,784,784,784,751,720,677,666,655,655,655,654,654,650,640,635,634,634,633,623,613,592,571,542,490],"ymouse":[503,503,503,521,521,521,521,521,521,521,521,521,521,521,521,521,521,521,522,522,522,522,522,522,523,526,534,538,545,545,545,545,545,545,545,545,545,545,545,544,532,512,486,400,339,264,248,231,231,231,230,230,231,237,238,238,238,234,197,172,142,121,103,87],"timestamp_mouse":[18,42,58,78,98,118,138,158,178,198,218,239,258,278,299,319,339,358,378,399,419,439,458,479,499,518,538,559,579,598,619,639,660,679,699,719,739,759,779,798,818,840,859,879,899,919,939,959,979,999,1019,1038,1059,1078,1098,1118,1139,1159,1178,1198,1218,1239,1259,1278],"xSR":741.5,"ySR":469.95,"xT1":424.9,"yT1":0,"xT2":1058.1,"yT2":0,"toosoon":0,"cond_shown":"equaldotsize","ratio_trial":250,"smaller_num":"4","larger_num":"16","correct_side":1,"subjID":"Federico Millan Alvarez 22","gender":"0","age":"9","school":"4"},{"start_time":1552310159984,"click_time":1552310161553,"finger_time":1552310160733,"fix_duration":889.5114241524683,"trial":53,"RT":749,"MT":820,"sideResp":2,"stimulus":"img/750/randomdotsizeEA/L/10_Ratio_750_L_4_R_3.png","xmouse":[794,794,794,794,794,794,794,794,794,794,794,794,794,793,793,794,794,794,793,793,793,793,793,793,793,793,793,793,793,793,793,793,793,793,796,798,802,828,889,923,950,966,982,985,987,990,994,999,1013,1019,1024,1030,1039,1070,1092,1127,1164,1203,1245,1246,1244,1237,1230,1208,1200,1197,1192,1188,1177,1175,1174,1173,1173,1172,1171,1171,1168,1162,1142],"ymouse":[518,518,518,518,518,518,518,518,518,518,518,518,518,518,514,514,513,512,508,508,508,508,508,508,508,508,508,508,508,508,508,508,508,508,508,508,499,439,311,266,236,217,200,195,188,182,177,173,170,170,170,171,172,171,162,145,123,103,75,69,61,49,36,12,8,6,6,5,3,3,3,3,4,7,9,9,11,12,12],"timestamp_mouse":[9,29,50,70,89,110,129,149,170,190,210,229,250,270,290,309,329,350,369,390,410,430,450,469,489,509,530,549,570,589,609,630,650,670,690,710,729,749,771,790,809,830,850,869,889,910,929,949,969,989,1011,1029,1049,1069,1090,1109,1129,1149,1169,1190,1210,1229,1249,1269,1289,1310,1329,1349,1369,1389,1410,1429,1450,1469,1489,1510,1530,1549,1569],"xSR":741.5,"ySR":469.95,"xT1":424.9,"yT1":0,"xT2":1058.1,"yT2":0,"toosoon":0,"cond_shown":"randomdotsizeEA","ratio_trial":750,"smaller_num":"3","larger_num":"4","correct_side":1,"subjID":"Federico Millan Alvarez 22","gender":"0","age":"9","school":"4"},{"start_time":1552310169851,"click_time":1552310171313,"finger_time":1552310170714,"fix_duration":636.5968383740611,"trial":54,"RT":863,"MT":599,"sideResp":2,"stimulus":"img/250/equaldotanddens/R/4_Ratio_250_L_3_R_12.png","xmouse":[804,805,805,806,806,807,807,808,809,809,809,809,809,809,809,809,809,809,809,809,809,809,809,809,809,809,809,809,809,809,809,808,808,809,811,814,818,820,822,825,825,828,830,832,835,840,857,872,891,915,975,1000,1014,1027,1036,1044,1053,1055,1055,1056,1058,1062,1064,1065,1067,1069,1076,1079,1080,1083,1086,1086,1087,1090],"ymouse":[531,527,527,525,524,523,523,523,525,525,526,526,526,526,526,526,526,526,526,527,527,527,527,527,527,527,527,527,527,527,527,527,524,520,514,505,491,486,484,484,483,477,472,466,460,452,430,416,403,388,354,342,332,320,309,296,273,262,252,242,226,197,183,171,162,155,144,140,136,132,122,110,104,98],"timestamp_mouse":[2,37,42,62,82,103,122,143,162,183,203,222,242,262,282,302,322,342,362,382,402,423,443,463,483,502,523,543,563,582,602,623,642,662,682,703,722,743,762,783,803,823,842,863,883,902,922,943,962,982,1004,1022,1043,1064,1082,1102,1122,1143,1163,1182,1202,1222,1243,1262,1283,1302,1322,1343,1362,1383,1402,1422,1442,1462],"xSR":741.5,"ySR":469.95,"xT1":424.9,"yT1":0,"xT2":1058.1,"yT2":0,"toosoon":0,"cond_shown":"equaldotanddens","ratio_trial":250,"smaller_num":"3","larger_num":"12","correct_side":2,"subjID":"Federico Millan Alvarez 22","gender":"0","age":"9","school":"4"},{"start_time":1552310174346,"click_time":1552310175274,"finger_time":1552310174733,"fix_duration":1211.7614627435664,"trial":55,"RT":387,"MT":541,"sideResp":2,"stimulus":"img/500/randomdotsizeEA/R/2_Ratio_500_L_3_R_6.png","xmouse":[788,788,788,788,788,788,788,788,788,788,788,788,788,788,788,789,801,817,833,851,873,918,936,954,962,969,985,990,996,1001,1006,1015,1018,1022,1024,1026,1034,1036,1038,1040,1041,1048,1054,1066,1075,1083,1102],"ymouse":[507,507,507,507,507,507,507,507,507,507,507,507,507,507,507,507,501,495,488,478,470,456,448,433,423,408,374,356,336,318,301,278,270,260,252,243,227,224,221,218,217,200,186,158,138,118,73],"timestamp_mouse":[12,43,47,68,87,107,127,147,167,187,208,229,248,267,287,308,328,347,367,387,408,427,447,467,487,509,528,547,567,587,608,627,648,668,687,708,728,748,767,787,807,827,847,868,888,908,927],"xSR":741.5,"ySR":469.95,"xT1":424.9,"yT1":0,"xT2":1058.1,"yT2":0,"toosoon":0,"cond_shown":"randomdotsizeEA","ratio_trial":500,"smaller_num":"3","larger_num":"6","correct_side":2,"subjID":"Federico Millan Alvarez 22","gender":"0","age":"9","school":"4"},{"start_time":1552310179266,"click_time":1552310180534,"finger_time":1552310180193,"fix_duration":250,"trial":56,"RT":927,"MT":341,"sideResp":1,"stimulus":"img/500/equaldotsize/L/8_Ratio_500_L_8_R_4.png","xmouse":[749,745,745,745,745,745,745,745,745,745,745,745,745,745,745,746,747,748,749,751,752,759,771,783,788,788,788,788,788,788,788,788,788,788,788,786,786,786,786,786,786,786,786,780,761,732,720,715,713,713,712,712,708,703,684,638,614,587,559,535,499,487,474],"ymouse":[532,523,523,523,523,523,523,523,523,523,523,523,523,523,523,523,523,523,525,525,526,533,548,560,564,564,564,564,564,564,564,564,564,563,562,557,557,557,557,557,557,556,554,533,489,432,417,412,411,411,411,411,406,399,373,309,273,235,198,169,122,107,91],"timestamp_mouse":[33,47,67,87,108,127,147,168,187,207,227,249,268,287,307,328,347,368,387,408,427,447,467,489,508,528,548,567,589,607,627,648,669,687,708,728,747,767,787,808,827,848,867,888,908,927,948,968,988,1008,1027,1047,1067,1088,1108,1127,1147,1168,1188,1207,1227,1248,1268],"xSR":741.5,"ySR":469.95,"xT1":424.9,"yT1":0,"xT2":1058.1,"yT2":0,"toosoon":0,"cond_shown":"equaldotsize","ratio_trial":500,"smaller_num":"4","larger_num":"8","correct_side":1,"subjID":"Federico Millan Alvarez 22","gender":"0","age":"9","school":"4"},{"start_time":1552310182565,"click_time":1552310183433,"finger_time":1552310183013,"fix_duration":470.1652326275159,"trial":57,"RT":448,"MT":420,"sideResp":2,"stimulus":"img/750/equaldotanddens/L/10_Ratio_750_L_4_R_3.png","xmouse":[793,793,793,793,793,793,793,793,793,793,793,793,793,793,793,792,790,788,787,787,787,795,799,805,810,823,871,906,959,989,1017,1051,1061,1068,1072,1072,1072,1072,1072,1072,1073,1080,1083,1087],"ymouse":[519,519,519,519,519,519,519,519,519,519,519,519,519,519,519,518,513,509,504,501,498,477,467,455,442,424,373,341,280,243,206,157,144,136,131,130,130,130,130,129,127,110,103,95],"timestamp_mouse":[12,43,48,68,88,108,129,148,168,189,208,228,248,268,288,308,329,348,370,388,409,428,448,468,488,509,529,548,568,588,609,629,648,668,690,709,728,749,768,789,809,829,848,868],"xSR":741.5,"ySR":469.95,"xT1":424.9,"yT1":0,"xT2":1058.1,"yT2":0,"toosoon":0,"cond_shown":"equaldotanddens","ratio_trial":750,"smaller_num":"3","larger_num":"4","correct_side":1,"subjID":"Federico Millan Alvarez 22","gender":"0","age":"9","school":"4"},{"start_time":1552310192383,"click_time":1552310193254,"finger_time":1552310192853,"fix_duration":1008.0375548923424,"trial":58,"RT":470,"MT":401,"sideResp":2,"stimulus":"img/900/equaldotanddens/L/2_Ratio_900_L_20_R_18.png","xmouse":[782,782,782,782,782,782,782,782,782,782,782,782,782,782,782,782,782,787,790,795,803,816,827,834,841,851,873,886,898,908,920,932,953,968,979,991,1016,1029,1041,1050,1061,1074,1102,1118],"ymouse":[544,544,544,544,544,544,544,544,544,544,544,544,544,544,544,544,542,539,536,531,524,505,485,468,447,424,381,363,348,336,324,315,299,285,276,267,244,228,212,194,176,156,118,89],"timestamp_mouse":[11,30,50,70,90,110,131,151,172,192,211,230,251,271,290,311,330,350,371,391,410,430,450,470,490,510,530,550,570,590,611,631,650,670,690,710,731,750,771,791,811,831,850,871],"xSR":741.5,"ySR":469.95,"xT1":424.9,"yT1":0,"xT2":1058.1,"yT2":0,"toosoon":0,"cond_shown":"equaldotanddens","ratio_trial":900,"smaller_num":"18","larger_num":"20","correct_side":1,"subjID":"Federico Millan Alvarez 22","gender":"0","age":"9","school":"4"},{"start_time":1552310195195,"click_time":1552310196114,"finger_time":1552310195333,"fix_duration":760.7542784811722,"trial":59,"RT":138,"MT":781,"sideResp":1,"stimulus":"img/900/equaldotanddens/L/1_Ratio_900_L_10_R_9.png","xmouse":[795,795,795,795,794,791,789,788,786,785,785,785,785,785,785,785,785,785,785,784,781,752,737,727,713,700,665,646,620,597,582,551,543,539,536,534,533,530,529,525,516,510,503,495,484,475],"ymouse":[481,481,481,479,477,471,468,467,467,466,466,466,466,466,466,466,466,466,466,465,459,427,413,397,382,367,337,323,303,282,262,214,204,199,194,192,190,186,184,177,161,151,137,125,109,97],"timestamp_mouse":[19,38,60,79,98,119,138,158,178,198,219,238,259,279,299,319,338,359,379,399,419,439,458,479,498,518,538,559,579,599,618,638,659,678,698,718,738,758,778,798,820,838,858,879,899,919],"xSR":741.5,"ySR":469.95,"xT1":424.9,"yT1":0,"xT2":1058.1,"yT2":0,"toosoon":0,"cond_shown":"equaldotanddens","ratio_trial":900,"smaller_num":"9","larger_num":"10","correct_side":1,"subjID":"Federico Millan Alvarez 22","gender":"0","age":"9","school":"4"},{"start_time":1552310199711,"click_time":1552310200653,"finger_time":1552310200053,"fix_duration":1095.7247702335462,"trial":60,"RT":342,"MT":600,"sideResp":2,"stimulus":"img/750/equaldotsize/R/5_Ratio_750_L_15_R_20.png","xmouse":[805,805,805,805,805,805,805,805,805,805,805,805,805,806,811,816,841,860,877,902,930,1000,1037,1071,1102,1118,1141,1149,1155,1158,1163,1175,1177,1177,1176,1176,1171,1163,1151,1139,1125,1107,1051,1033,1025,1024,1050,1079],"ymouse":[527,527,527,527,527,527,527,527,527,527,527,527,527,527,523,516,488,469,450,421,393,340,318,299,277,265,245,232,217,202,183,144,131,115,114,114,114,115,115,115,115,110,91,83,78,76,70,68],"timestamp_mouse":[9,22,42,63,82,102,123,143,162,182,203,223,243,262,282,302,322,342,362,382,402,422,443,462,482,502,523,542,562,582,602,622,642,662,683,702,722,742,763,782,802,822,841,862,883,902,922,942],"xSR":741.5,"ySR":469.95,"xT1":424.9,"yT1":0,"xT2":1058.1,"yT2":0,"toosoon":0,"cond_shown":"equaldotsize","ratio_trial":750,"smaller_num":"15","larger_num":"20","correct_side":2,"subjID":"Federico Millan Alvarez 22","gender":"0","age":"9","school":"4"},{"start_time":1552310203799,"click_time":1552310205053,"finger_time":1552310204214,"fix_duration":943.4460872766826,"trial":61,"RT":415,"MT":839,"sideResp":2,"stimulus":"img/900/randomdotsizeEA/R/13_Ratio_900_L_18_R_20.png","xmouse":[785,785,785,785,785,785,785,785,785,785,785,785,785,786,787,789,794,805,814,827,842,862,917,940,957,981,995,1000,1003,1008,1017,1038,1047,1054,1059,1062,1065,1068,1068,1069,1069,1070,1071,1072,1072,1072,1072,1072,1072,1072,1072,1073,1073,1074,1074,1074,1074,1075,1076,1078,1080,1087,1094],"ymouse":[533,533,533,533,533,533,533,533,533,533,533,533,533,531,531,527,521,508,494,477,451,419,344,313,291,266,254,250,247,243,237,221,214,205,198,193,189,185,185,184,183,181,181,180,180,180,180,180,180,180,180,178,176,175,175,175,175,169,161,150,134,118,89],"timestamp_mouse":[15,40,55,75,95,115,134,153,175,195,214,235,254,274,294,315,334,355,374,394,415,435,454,474,495,514,536,553,574,593,613,635,654,674,695,715,734,754,773,794,815,835,853,874,893,914,935,953,974,994,1014,1034,1054,1074,1094,1114,1134,1153,1175,1195,1215,1234,1253],"xSR":741.5,"ySR":469.95,"xT1":424.9,"yT1":0,"xT2":1058.1,"yT2":0,"toosoon":0,"cond_shown":"randomdotsizeEA","ratio_trial":900,"smaller_num":"18","larger_num":"20","correct_side":2,"subjID":"Federico Millan Alvarez 22","gender":"0","age":"9","school":"4"},{"start_time":1552310207837,"click_time":1552310209014,"finger_time":1552310208613,"fix_duration":983.3448438098078,"trial":62,"RT":776,"MT":401,"sideResp":2,"stimulus":"img/750/randomdotsizeEA/L/8_Ratio_750_L_4_R_3.png","xmouse":[799,799,799,799,800,800,800,800,800,800,800,800,800,800,800,800,800,800,800,800,800,800,800,800,800,803,806,807,808,809,809,809,809,811,812,818,826,832,846,864,908,934,969,1032,1077,1149,1164,1172,1173,1175,1178,1178,1178,1178,1177,1163,1154,1145,1136],"ymouse":[471,471,471,471,473,476,476,476,476,476,476,476,476,476,476,476,476,476,476,476,476,476,476,476,477,479,480,481,481,481,481,481,481,481,481,480,476,471,463,451,416,393,365,323,298,254,242,236,231,227,222,220,219,212,203,165,143,118,86],"timestamp_mouse":[16,36,55,76,97,116,135,156,177,196,217,237,256,276,296,316,336,356,377,395,417,437,456,477,496,516,536,555,576,597,616,637,656,677,696,716,736,755,776,796,816,836,856,876,896,916,936,956,977,996,1017,1035,1057,1077,1097,1115,1136,1156,1177],"xSR":741.5,"ySR":469.95,"xT1":424.9,"yT1":0,"xT2":1058.1,"yT2":0,"toosoon":0,"cond_shown":"randomdotsizeEA","ratio_trial":750,"smaller_num":"3","larger_num":"4","correct_side":1,"subjID":"Federico Millan Alvarez 22","gender":"0","age":"9","school":"4"},{"start_time":1552310210505,"click_time":1552310212673,"finger_time":1552310211874,"fix_duration":250,"trial":63,"RT":1369,"MT":799,"sideResp":2,"stimulus":"img/500/equaldotanddens/L/11_Ratio_500_L_12_R_6.png","xmouse":[784,784,784,784,784,784,784,784,784,784,784,784,784,784,784,784,784,784,784,784,784,784,784,784,784,784,784,784,784,784,784,784,784,784,784,784,784,784,784,784,784,784,784,784,784,784,784,784,784,784,784,784,784,784,784,784,784,784,784,784,784,784,784,784,784,782,777,756,686,653,626,610,607,607,607,607,607,607,607,607,607,607,607,635,653,674,696,724,781,799,815,829,840,868,879,890,900,915,930,933,936,939,948,955,964,980,1002,1034,1102],"ymouse":[512,512,512,512,512,512,512,512,512,512,512,512,512,512,512,512,512,512,512,512,512,512,512,512,512,512,512,512,512,512,512,512,512,512,512,512,512,512,512,512,512,512,512,512,512,512,512,512,512,512,512,512,512,512,512,512,512,512,512,512,512,512,512,512,512,513,514,518,527,532,533,533,533,533,533,533,533,533,533,533,533,533,533,496,475,454,434,414,375,362,350,339,332,318,314,306,301,293,282,275,270,263,244,229,213,196,177,151,93],"timestamp_mouse":[12,35,48,68,89,109,127,149,168,188,209,228,248,269,288,308,329,348,369,388,409,428,448,469,488,509,529,549,569,589,608,628,648,669,688,709,728,749,767,788,809,829,848,867,888,908,928,949,969,989,1009,1028,1049,1069,1089,1107,1128,1149,1169,1188,1207,1227,1249,1269,1288,1308,1329,1349,1369,1388,1408,1428,1449,1468,1489,1508,1528,1549,1568,1588,1608,1629,1648,1668,1688,1708,1729,1749,1769,1788,1809,1828,1848,1868,1888,1908,1928,1949,1969,1988,2008,2029,2050,2068,2089,2108,2128,2149,2167],"xSR":741.5,"ySR":469.95,"xT1":424.9,"yT1":0,"xT2":1058.1,"yT2":0,"toosoon":0,"cond_shown":"equaldotanddens","ratio_trial":500,"smaller_num":"6","larger_num":"12","correct_side":1,"subjID":"Federico Millan Alvarez 22","gender":"0","age":"9","school":"4"},{"start_time":1552310214826,"click_time":1552310215553,"finger_time":1552310215053,"fix_duration":472.2163072900023,"trial":64,"RT":227,"MT":500,"sideResp":1,"stimulus":"img/500/randomdotsizeEA/L/8_Ratio_500_L_8_R_4.png","xmouse":[789,789,789,789,789,789,789,789,785,780,765,731,691,674,660,646,636,620,613,606,598,592,589,588,587,586,583,577,574,566,563,556,547,542,542,537,523