[{"start_time":1552073574592,"click_time":1552073576414,"finger_time":1552073575872,"fix_duration":733.7691208866015,"trial":0,"RT":1280,"MT":542,"sideResp":1,"stimulus":[],"xmouse":[756,756,756,756,756,756,756,756,756,756,756,756,756,756,756,756,756,756,756,756,756,756,756,756,756,756,756,756,756,756,756,756,756,756,756,756,756,756,756,756,756,756,756,756,756,756,756,756,756,756,756,756,756,756,756,756,756,756,756,756,756,756,755,743,724,680,635,455,384,384,384,384,384,384,384,384,384,384,384,384,384,384,384,384,384,384,384,384,384,384,384,441],"ymouse":[555,555,555,555,555,555,555,555,555,555,555,555,555,555,555,555,555,555,555,555,555,555,555,555,555,555,555,555,555,555,555,555,555,555,555,555,555,555,555,555,555,555,555,555,555,555,555,555,555,555,555,555,555,555,555,555,555,555,555,555,555,555,553,539,514,458,395,150,37,37,37,37,37,37,37,37,37,37,37,37,37,37,37,37,37,37,37,37,37,37,37,9],"timestamp_mouse":[9,21,52,60,80,100,122,141,162,180,201,222,241,260,282,300,321,340,360,382,400,420,441,460,482,502,520,542,562,581,600,622,640,661,681,700,722,742,760,781,801,822,840,861,880,902,921,940,961,981,1002,1021,1042,1062,1081,1100,1122,1142,1160,1181,1202,1222,1241,1261,1280,1300,1321,1342,1360,1381,1402,1421,1441,1461,1482,1501,1522,1542,1561,1581,1601,1621,1642,1661,1680,1702,1722,1741,1761,1780,1801,1821],"xSR":741.5,"ySR":501.8,"xT1":424.9,"yT1":0,"xT2":1058.1,"yT2":0,"toosoon":0,"cond_shown":"Incongruent","ratio_trial":200,"L_num":4,"L_den":5,"R_num":6,"R_den":10,"correct_side":1,"subjID":"Gabriela Barrios Hernandez 19","gender":"1","age":"9","school":"4","test":{"fix_dur":[250,1500],"timestim":1000,"targets_dim":[100,100],"targets_relative_coord":[0.3,0.7],"size_stim":[880,420],"start_dim":[100,100],"size_start":[300,300],"size_fix":60,"samplingrate":20,"img_types":["Congruent","Incongruent"],"ratios":[100,200,300],"rep_conds":19,"nTrials":120,"trials_to_rest":500,"Trials_order":[15,64,12,85,108,16,77,101,3,1,21,32,61,110,29,81,35,105,111,28,6,75,70,57,10,56,9,82,97,86,87,62,41,24,22,71,17,79,7,42,84,96,46,107,118,89,30,50,55,20,90,11,36,115,49,25,14,5,104,53,68,31,27,116,52,112,88,114,76,103,58,66,94,26,39,78,99,38,95,83,59,8,72,23,4,33,74,40,80,67,93,45,69,0,34,44,47,92,117,19,13,91,73,106,113,51,102,98,43,18,100,54,119,60,37,48,2,109,63,65],"cond_shown":["Incongruent","Congruent","Congruent","Incongruent","Congruent","Congruent","Incongruent","Incongruent","Incongruent","Incongruent","Incongruent","Congruent","Incongruent","Congruent","Incongruent","Incongruent","Incongruent","Incongruent","Incongruent","Congruent","Congruent","Incongruent","Congruent","Incongruent","Congruent","Congruent","Incongruent","Congruent","Incongruent","Congruent","Incongruent","Congruent","Incongruent","Congruent","Congruent","Incongruent","Incongruent","Incongruent","Incongruent","Congruent","Congruent","Congruent","Congruent","Incongruent","Congruent","Incongruent","Congruent","Congruent","Incongruent","Congruent","Congruent","Incongruent","Congruent","Incongruent","Incongruent","Incongruent","Congruent","Incongruent","Congruent","Incongruent","Congruent","Incongruent","Incongruent","Congruent","Congruent","Congruent","Congruent","Congruent","Congruent","Incongruent","Congruent","Congruent","Congruent","Congruent","Incongruent","Congruent","Incongruent","Congruent","Incongruent","Incongruent","Incongruent","Congruent","Congruent","Incongruent","Congruent","Incongruent","Congruent","Congruent","Congruent","Incongruent","Incongruent","Incongruent","Incongruent","Congruent","Congruent","Congruent","Incongruent","Congruent","Incongruent","Incongruent","Incongruent","Incongruent","Incongruent","Congruent","Incongruent","Incongruent","Congruent","Congruent","Incongruent","Congruent","Congruent","Congruent","Incongruent","Congruent","Incongruent","Congruent","Congruent","Incongruent","Incongruent","Incongruent"],"ratio_trial":[200,300,100,100,100,300,300,300,200,100,200,200,100,200,300,200,300,200,200,300,100,200,300,200,300,200,200,300,100,200,200,200,300,100,300,300,300,100,100,100,100,100,300,300,300,300,100,200,100,200,100,300,100,100,100,100,200,300,200,300,200,100,200,200,300,300,300,100,300,100,300,100,300,200,200,100,200,200,300,300,300,200,100,300,300,200,200,300,200,100,200,200,200,100,300,200,300,200,200,100,100,100,100,300,300,200,100,200,100,100,300,100,300,100,100,100,200,100,200,300],"left_num":[4,2,10,3,6,1,1,13,11,4,7,3,6,3,13,14,7,7,14,1,6,9,3,14,9,3,7,1,12,8,3,3,4,3,1,3,13,9,12,8,11,6,11,1,11,13,15,13,6,12,1,8,10,9,6,6,16,8,12,8,3,10,4,12,8,1,3,3,5,6,4,12,5,6,4,2,7,14,4,3,4,21,7,1,20,4,8,20,6,9,7,1,14,9,7,8,13,8,4,6,6,9,12,12,4,7,10,12,6,10,8,7,4,4,9,9,11,9,4,4],"right_num":[6,10,3,4,5,11,2,12,3,8,8,7,3,7,12,12,8,12,6,19,5,8,4,6,3,11,6,19,2,7,11,7,6,2,19,4,12,6,9,2,4,5,4,3,1,12,13,14,11,6,3,9,3,6,7,3,12,14,6,9,7,9,1,6,10,6,4,4,6,7,2,13,6,7,14,6,4,6,2,4,6,2,9,2,14,6,2,5,7,13,14,2,6,8,20,2,12,7,14,7,7,6,9,2,2,4,3,6,11,3,10,15,2,15,14,8,3,13,14,6],"left_den":[5,20,25,6,20,5,2,26,20,8,10,10,12,10,26,30,10,10,30,3,20,15,6,30,10,10,15,3,30,15,4,10,5,6,3,6,26,18,24,16,22,20,22,2,22,26,25,26,10,15,2,10,25,18,10,12,20,10,15,10,10,25,30,15,15,5,6,20,25,10,5,30,25,12,6,5,15,28,20,6,5,30,14,2,25,5,15,25,12,15,10,3,30,15,14,15,26,15,6,10,10,18,24,24,20,15,25,15,10,25,15,14,20,10,15,15,22,15,6,5],"right_den":[10,25,10,10,25,22,10,15,4,20,16,14,5,14,15,18,20,24,9,30,25,10,5,9,5,22,9,30,4,21,20,14,12,5,30,20,15,10,15,5,10,25,20,15,5,15,26,20,22,10,5,18,10,10,14,5,20,28,10,18,14,18,3,10,12,12,5,16,12,14,4,26,12,10,30,12,6,20,4,20,12,4,15,10,28,10,6,10,10,26,28,15,9,16,25,6,15,21,30,14,14,10,15,10,4,6,10,10,22,10,12,25,4,30,28,16,10,26,30,12],"correct_side":[1,2,1,1,1,2,1,2,2,1,1,2,2,2,2,2,1,1,2,2,1,2,2,2,1,2,2,2,2,1,1,2,1,1,2,1,2,2,2,1,1,1,1,1,1,2,1,2,1,1,2,1,1,2,1,2,1,1,1,1,2,2,2,1,2,2,2,2,2,1,1,2,2,2,1,2,2,1,2,1,1,1,2,1,1,1,1,1,2,1,1,1,2,1,2,1,2,1,1,1,1,2,2,1,2,2,1,1,1,1,2,2,2,2,1,1,1,1,1,1],"img_shown":["img2/200/Incongruent/L/I_Dist_200_LN_4_LD_5_RN_6_RD_10_0.png","img2/300/Congruent/R/C_Dist_300_LN_2_LD_20_RN_10_RD_25_1.png","img2/100/Congruent/L/C_Dist_100_LN_10_LD_25_RN_3_RD_10_0.png","img2/100/Incongruent/L/I_Dist_100_LN_3_LD_6_RN_4_RD_10_0.png","img2/100/Congruent/L/C_Dist_100_LN_6_LD_20_RN_5_RD_25_0.png","img2/300/Congruent/R/C_Dist_300_LN_1_LD_5_RN_11_RD_22_1.png","img2/300/Incongruent/L/I_Dist_300_LN_1_LD_2_RN_2_RD_10_0.png","img2/300/Incongruent/R/I_Dist_300_LN_13_LD_26_RN_12_RD_15_1.png","img2/200/Incongruent/R/I_Dist_200_LN_11_LD_20_RN_3_RD_4_1.png","img2/100/Incongruent/L/I_Dist_100_LN_4_LD_8_RN_8_RD_20_0.png","img2/200/Incongruent/L/I_Dist_200_LN_7_LD_10_RN_8_RD_16_0.png","img2/200/Congruent/R/C_Dist_200_LN_3_LD_10_RN_7_RD_14_1.png","img2/100/Incongruent/R/I_Dist_100_LN_6_LD_12_RN_3_RD_5_1.png","img2/200/Congruent/R/C_Dist_200_LN_3_LD_10_RN_7_RD_14_1.png","img2/300/Incongruent/R/I_Dist_300_LN_13_LD_26_RN_12_RD_15_1.png","img2/200/Incongruent/R/I_Dist_200_LN_14_LD_30_RN_12_RD_18_1.png","img2/300/Incongruent/L/I_Dist_300_LN_7_LD_10_RN_8_RD_20_0.png","img2/200/Incongruent/L/I_Dist_200_LN_7_LD_10_RN_12_RD_24_0.png","img2/200/Incongruent/R/I_Dist_200_LN_14_LD_30_RN_6_RD_9_1.png","img2/300/Congruent/R/C_Dist_300_LN_1_LD_3_RN_19_RD_30_1.png","img2/100/Congruent/L/C_Dist_100_LN_6_LD_20_RN_5_RD_25_0.png","img2/200/Incongruent/R/I_Dist_200_LN_9_LD_15_RN_8_RD_10_1.png","img2/300/Congruent/R/C_Dist_300_LN_3_LD_6_RN_4_RD_5_1.png","img2/200/Incongruent/R/I_Dist_200_LN_14_LD_30_RN_6_RD_9_1.png","img2/300/Congruent/L/C_Dist_300_LN_9_LD_10_RN_3_RD_5_0.png","img2/200/Congruent/R/C_Dist_200_LN_3_LD_10_RN_11_RD_22_1.png","img2/200/Incongruent/R/I_Dist_200_LN_7_LD_15_RN_6_RD_9_1.png","img2/300/Congruent/R/C_Dist_300_LN_1_LD_3_RN_19_RD_30_1.png","img2/100/Incongruent/R/I_Dist_100_LN_12_LD_30_RN_2_RD_4_1.png","img2/200/Congruent/L/C_Dist_200_LN_8_LD_15_RN_7_RD_21_0.png","img2/200/Incongruent/L/I_Dist_200_LN_3_LD_4_RN_11_RD_20_0.png","img2/200/Congruent/R/C_Dist_200_LN_3_LD_10_RN_7_RD_14_1.png","img2/300/Incongruent/L/I_Dist_300_LN_4_LD_5_RN_6_RD_12_0.png","img2/100/Congruent/L/C_Dist_100_LN_3_LD_6_RN_2_RD_5_0.png","img2/300/Congruent/R/C_Dist_300_LN_1_LD_3_RN_19_RD_30_1.png","img2/300/Incongruent/L/I_Dist_300_LN_3_LD_6_RN_4_RD_20_0.png","img2/300/Incongruent/R/I_Dist_300_LN_13_LD_26_RN_12_RD_15_1.png","img2/100/Incongruent/R/I_Dist_100_LN_9_LD_18_RN_6_RD_10_1.png","img2/100/Incongruent/R/I_Dist_100_LN_12_LD_24_RN_9_RD_15_1.png","img2/100/Congruent/L/C_Dist_100_LN_8_LD_16_RN_2_RD_5_0.png","img2/100/Congruent/L/C_Dist_100_LN_11_LD_22_RN_4_RD_10_0.png","img2/100/Congruent/L/C_Dist_100_LN_6_LD_20_RN_5_RD_25_0.png","img2/300/Congruent/L/C_Dist_300_LN_11_LD_22_RN_4_RD_20_0.png","img2/300/Incongruent/L/I_Dist_300_LN_1_LD_2_RN_3_RD_15_0.png","img2/300/Congruent/L/C_Dist_300_LN_11_LD_22_RN_1_RD_5_0.png","img2/300/Incongruent/R/I_Dist_300_LN_13_LD_26_RN_12_RD_15_1.png","img2/100/Congruent/L/C_Dist_100_LN_15_LD_25_RN_13_RD_26_0.png","img2/200/Congruent/R/C_Dist_200_LN_13_LD_26_RN_14_RD_20_1.png","img2/100/Incongruent/L/I_Dist_100_LN_6_LD_10_RN_11_RD_22_0.png","img2/200/Congruent/L/C_Dist_200_LN_12_LD_15_RN_6_RD_10_0.png","img2/100/Congruent/R/C_Dist_100_LN_1_LD_2_RN_3_RD_5_1.png","img2/300/Incongruent/L/I_Dist_300_LN_8_LD_10_RN_9_RD_18_0.png","img2/100/Congruent/L/C_Dist_100_LN_10_LD_25_RN_3_RD_10_0.png","img2/100/Incongruent/R/I_Dist_100_LN_9_LD_18_RN_6_RD_10_1.png","img2/100/Incongruent/L/I_Dist_100_LN_6_LD_10_RN_7_RD_14_0.png","img2/100/Incongruent/R/I_Dist_100_LN_6_LD_12_RN_3_RD_5_1.png","img2/200/Congruent/L/C_Dist_200_LN_16_LD_20_RN_12_RD_20_0.png","img2/300/Incongruent/L/I_Dist_300_LN_8_LD_10_RN_14_RD_28_0.png","img2/200/Congruent/L/C_Dist_200_LN_12_LD_15_RN_6_RD_10_0.png","img2/300/Incongruent/L/I_Dist_300_LN_8_LD_10_RN_9_RD_18_0.png","img2/200/Congruent/R/C_Dist_200_LN_3_LD_10_RN_7_RD_14_1.png","img2/100/Incongruent/R/I_Dist_100_LN_10_LD_25_RN_9_RD_18_1.png","img2/200/Incongruent/R/I_Dist_200_LN_4_LD_30_RN_1_RD_3_1.png","img2/200/Congruent/L/C_Dist_200_LN_12_LD_15_RN_6_RD_10_0.png","img2/300/Congruent/R/C_Dist_300_LN_8_LD_15_RN_10_RD_12_1.png","img2/300/Congruent/R/C_Dist_300_LN_1_LD_5_RN_6_RD_12_1.png","img2/300/Congruent/R/C_Dist_300_LN_3_LD_6_RN_4_RD_5_1.png","img2/100/Congruent/R/C_Dist_100_LN_3_LD_20_RN_4_RD_16_1.png","img2/300/Congruent/R/C_Dist_300_LN_5_LD_25_RN_6_RD_12_1.png","img2/100/Incongruent/L/I_Dist_100_LN_6_LD_10_RN_7_RD_14_0.png","img2/300/Congruent/L/C_Dist_300_LN_4_LD_5_RN_2_RD_4_0.png","img2/100/Congruent/R/C_Dist_100_LN_12_LD_30_RN_13_RD_26_1.png","img2/300/Congruent/R/C_Dist_300_LN_5_LD_25_RN_6_RD_12_1.png","img2/200/Congruent/R/C_Dist_200_LN_6_LD_12_RN_7_RD_10_1.png","img2/200/Incongruent/L/I_Dist_200_LN_4_LD_6_RN_14_RD_30_0.png","img2/100/Congruent/R/C_Dist_100_LN_2_LD_5_RN_6_RD_12_1.png","img2/200/Incongruent/R/I_Dist_200_LN_7_LD_15_RN_4_RD_6_1.png","img2/200/Congruent/L/C_Dist_200_LN_14_LD_28_RN_6_RD_20_0.png","img2/300/Incongruent/R/I_Dist_300_LN_4_LD_20_RN_2_RD_4_1.png","img2/300/Incongruent/L/I_Dist_300_LN_3_LD_6_RN_4_RD_20_0.png","img2/300/Incongruent/L/I_Dist_300_LN_4_LD_5_RN_6_RD_12_0.png","img2/200/Congruent/L/C_Dist_200_LN_21_LD_30_RN_2_RD_4_0.png","img2/100/Congruent/R/C_Dist_100_LN_7_LD_14_RN_9_RD_15_1.png","img2/300/Incongruent/L/I_Dist_300_LN_1_LD_2_RN_2_RD_10_0.png","img2/300/Congruent/L/C_Dist_300_LN_20_LD_25_RN_14_RD_28_0.png","img2/200/Incongruent/L/I_Dist_200_LN_4_LD_5_RN_6_RD_10_0.png","img2/200/Congruent/L/C_Dist_200_LN_8_LD_15_RN_2_RD_6_0.png","img2/300/Congruent/L/C_Dist_300_LN_20_LD_25_RN_5_RD_10_0.png","img2/200/Congruent/R/C_Dist_200_LN_6_LD_12_RN_7_RD_10_1.png","img2/100/Incongruent/L/I_Dist_100_LN_9_LD_15_RN_13_RD_26_0.png","img2/200/Incongruent/L/I_Dist_200_LN_7_LD_10_RN_14_RD_28_0.png","img2/200/Incongruent/L/I_Dist_200_LN_1_LD_3_RN_2_RD_15_0.png","img2/200/Incongruent/R/I_Dist_200_LN_14_LD_30_RN_6_RD_9_1.png","img2/100/Congruent/L/C_Dist_100_LN_9_LD_15_RN_8_RD_16_0.png","img2/300/Congruent/R/C_Dist_300_LN_7_LD_14_RN_20_RD_25_1.png","img2/200/Congruent/L/C_Dist_200_LN_8_LD_15_RN_2_RD_6_0.png","img2/300/Incongruent/R/I_Dist_300_LN_13_LD_26_RN_12_RD_15_1.png","img2/200/Congruent/L/C_Dist_200_LN_8_LD_15_RN_7_RD_21_0.png","img2/200/Incongruent/L/I_Dist_200_LN_4_LD_6_RN_14_RD_30_0.png","img2/100/Incongruent/L/I_Dist_100_LN_6_LD_10_RN_7_RD_14_0.png","img2/100/Incongruent/L/I_Dist_100_LN_6_LD_10_RN_7_RD_14_0.png","img2/100/Incongruent/R/I_Dist_100_LN_9_LD_18_RN_6_RD_10_1.png","img2/100/Incongruent/R/I_Dist_100_LN_12_LD_24_RN_9_RD_15_1.png","img2/300/Congruent/L/C_Dist_300_LN_12_LD_24_RN_2_RD_10_0.png","img2/300/Incongruent/R/I_Dist_300_LN_4_LD_20_RN_2_RD_4_1.png","img2/200/Incongruent/R/I_Dist_200_LN_7_LD_15_RN_4_RD_6_1.png","img2/100/Congruent/L/C_Dist_100_LN_10_LD_25_RN_3_RD_10_0.png","img2/200/Congruent/L/C_Dist_200_LN_12_LD_15_RN_6_RD_10_0.png","img2/100/Incongruent/L/I_Dist_100_LN_6_LD_10_RN_11_RD_22_0.png","img2/100/Congruent/L/C_Dist_100_LN_10_LD_25_RN_3_RD_10_0.png","img2/300/Congruent/R/C_Dist_300_LN_8_LD_15_RN_10_RD_12_1.png","img2/100/Congruent/R/C_Dist_100_LN_7_LD_14_RN_15_RD_25_1.png","img2/300/Incongruent/R/I_Dist_300_LN_4_LD_20_RN_2_RD_4_1.png","img2/100/Congruent/R/C_Dist_100_LN_4_LD_10_RN_15_RD_30_1.png","img2/100/Incongruent/L/I_Dist_100_LN_9_LD_15_RN_14_RD_28_0.png","img2/100/Congruent/L/C_Dist_100_LN_9_LD_15_RN_8_RD_16_0.png","img2/200/Congruent/L/C_Dist_200_LN_11_LD_22_RN_3_RD_10_0.png","img2/100/Incongruent/L/I_Dist_100_LN_9_LD_15_RN_13_RD_26_0.png","img2/200/Incongruent/L/I_Dist_200_LN_4_LD_6_RN_14_RD_30_0.png","img2/300/Incongruent/L/I_Dist_300_LN_4_LD_5_RN_6_RD_12_0.png"],"dist100_C":[["C_Dist_100_LN_10_LD_25_RN_3_RD_10_0.png","C_Dist_100_LN_11_LD_22_RN_4_RD_10_0.png","C_Dist_100_LN_11_LD_22_RN_6_RD_15_0.png","C_Dist_100_LN_15_LD_25_RN_13_RD_26_0.png","C_Dist_100_LN_3_LD_6_RN_2_RD_5_0.png","C_Dist_100_LN_6_LD_20_RN_5_RD_25_0.png","C_Dist_100_LN_8_LD_16_RN_2_RD_5_0.png","C_Dist_100_LN_9_LD_15_RN_8_RD_16_0.png"],["C_Dist_100_LN_1_LD_2_RN_18_RD_30_1.png","C_Dist_100_LN_1_LD_2_RN_3_RD_5_1.png","C_Dist_100_LN_12_LD_30_RN_13_RD_26_1.png","C_Dist_100_LN_2_LD_5_RN_11_RD_22_1.png","C_Dist_100_LN_2_LD_5_RN_6_RD_12_1.png","C_Dist_100_LN_3_LD_20_RN_4_RD_16_1.png","C_Dist_100_LN_4_LD_10_RN_15_RD_30_1.png","C_Dist_100_LN_4_LD_8_RN_6_RD_10_1.png","C_Dist_100_LN_6_LD_12_RN_15_RD_25_1.png","C_Dist_100_LN_7_LD_14_RN_15_RD_25_1.png","C_Dist_100_LN_7_LD_14_RN_9_RD_15_1.png"]],"dist100_I":[["I_Dist_100_LN_1_LD_2_RN_8_RD_20_0.png","I_Dist_100_LN_2_LD_4_RN_6_RD_15_0.png","I_Dist_100_LN_2_LD_4_RN_8_RD_20_0.png","I_Dist_100_LN_3_LD_5_RN_11_RD_22_0.png","I_Dist_100_LN_3_LD_5_RN_8_RD_16_0.png","I_Dist_100_LN_3_LD_6_RN_4_RD_10_0.png","I_Dist_100_LN_3_LD_9_RN_7_RD_30_0.png","I_Dist_100_LN_4_LD_8_RN_8_RD_20_0.png","I_Dist_100_LN_6_LD_10_RN_11_RD_22_0.png","I_Dist_100_LN_6_LD_10_RN_13_RD_26_0.png","I_Dist_100_LN_6_LD_10_RN_7_RD_14_0.png","I_Dist_100_LN_9_LD_10_RN_20_RD_25_0.png","I_Dist_100_LN_9_LD_15_RN_13_RD_26_0.png","I_Dist_100_LN_9_LD_15_RN_14_RD_28_0.png"],["I_Dist_100_LN_10_LD_25_RN_8_RD_16_1.png","I_Dist_100_LN_10_LD_25_RN_9_RD_18_1.png","I_Dist_100_LN_11_LD_22_RN_9_RD_15_1.png","I_Dist_100_LN_12_LD_24_RN_9_RD_15_1.png","I_Dist_100_LN_12_LD_30_RN_2_RD_4_1.png","I_Dist_100_LN_13_LD_26_RN_12_RD_20_1.png","I_Dist_100_LN_13_LD_26_RN_6_RD_10_1.png","I_Dist_100_LN_17_LD_30_RN_10_RD_15_1.png","I_Dist_100_LN_6_LD_12_RN_3_RD_5_1.png","I_Dist_100_LN_8_LD_16_RN_6_RD_10_1.png","I_Dist_100_LN_8_LD_20_RN_1_RD_2_1.png","I_Dist_100_LN_9_LD_18_RN_6_RD_10_1.png"]],"dist100_S":[["E_Dist_100_LN_2_LD_12_RN_2_RD_30_0.png","E_Dist_100_LN_6_LD_10_RN_6_RD_12_0.png"],["E_Dist_100_LN_6_LD_12_RN_6_RD_10_1.png"]],"dist200_C":[["C_Dist_200_LN_11_LD_22_RN_3_RD_10_0.png","C_Dist_200_LN_12_LD_15_RN_6_RD_10_0.png","C_Dist_200_LN_12_LD_20_RN_6_RD_15_0.png","C_Dist_200_LN_14_LD_28_RN_6_RD_20_0.png","C_Dist_200_LN_15_LD_25_RN_4_RD_10_0.png","C_Dist_200_LN_16_LD_20_RN_12_RD_20_0.png","C_Dist_200_LN_16_LD_30_RN_9_RD_27_0.png","C_Dist_200_LN_20_LD_25_RN_9_RD_15_0.png","C_Dist_200_LN_21_LD_30_RN_2_RD_4_0.png","C_Dist_200_LN_4_LD_10_RN_3_RD_15_0.png","C_Dist_200_LN_4_LD_8_RN_3_RD_10_0.png","C_Dist_200_LN_6_LD_15_RN_3_RD_15_0.png","C_Dist_200_LN_7_LD_21_RN_2_RD_15_0.png","C_Dist_200_LN_8_LD_15_RN_2_RD_6_0.png","C_Dist_200_LN_8_LD_15_RN_3_RD_9_0.png","C_Dist_200_LN_8_LD_15_RN_7_RD_21_0.png","C_Dist_200_LN_9_LD_20_RN_4_RD_16_0.png"],["C_Dist_200_LN_1_LD_2_RN_21_RD_30_1.png","C_Dist_200_LN_13_LD_26_RN_14_RD_20_1.png","C_Dist_200_LN_3_LD_10_RN_11_RD_22_1.png","C_Dist_200_LN_3_LD_10_RN_14_RD_28_1.png","C_Dist_200_LN_3_LD_10_RN_7_RD_14_1.png","C_Dist_200_LN_3_LD_12_RN_9_RD_20_1.png","C_Dist_200_LN_3_LD_6_RN_14_RD_20_1.png","C_Dist_200_LN_5_LD_10_RN_14_RD_20_1.png","C_Dist_200_LN_6_LD_12_RN_7_RD_10_1.png","C_Dist_200_LN_6_LD_20_RN_11_RD_22_1.png","C_Dist_200_LN_7_LD_15_RN_18_RD_27_1.png","C_Dist_200_LN_9_LD_30_RN_13_RD_26_1.png"]],"dist200_I":[["I_Dist_200_LN_1_LD_2_RN_3_RD_10_0.png","I_Dist_200_LN_1_LD_3_RN_2_RD_15_0.png","I_Dist_200_LN_3_LD_4_RN_11_RD_20_0.png","I_Dist_200_LN_4_LD_5_RN_6_RD_10_0.png","I_Dist_200_LN_4_LD_6_RN_14_RD_30_0.png","I_Dist_200_LN_7_LD_10_RN_12_RD_24_0.png","I_Dist_200_LN_7_LD_10_RN_14_RD_28_0.png","I_Dist_200_LN_7_LD_10_RN_8_RD_16_0.png"],["I_Dist_200_LN_11_LD_20_RN_3_RD_4_1.png","I_Dist_200_LN_14_LD_30_RN_12_RD_18_1.png","I_Dist_200_LN_14_LD_30_RN_6_RD_9_1.png","I_Dist_200_LN_3_LD_10_RN_1_RD_2_1.png","I_Dist_200_LN_4_LD_30_RN_1_RD_3_1.png","I_Dist_200_LN_6_LD_20_RN_3_RD_6_1.png","I_Dist_200_LN_7_LD_15_RN_4_RD_6_1.png","I_Dist_200_LN_7_LD_15_RN_6_RD_9_1.png","I_Dist_200_LN_9_LD_15_RN_8_RD_10_1.png"]],"dist200_S":[["E_Dist_200_LN_3_LD_6_RN_3_RD_10_0.png"],["E_Dist_200_LN_3_LD_10_RN_3_RD_6_1.png"]],"dist300_C":[["C_Dist_300_LN_11_LD_22_RN_1_RD_5_0.png","C_Dist_300_LN_11_LD_22_RN_2_RD_10_0.png","C_Dist_300_LN_11_LD_22_RN_4_RD_20_0.png","C_Dist_300_LN_12_LD_24_RN_2_RD_10_0.png","C_Dist_300_LN_18_LD_20_RN_9_RD_15_0.png","C_Dist_300_LN_20_LD_25_RN_13_RD_26_0.png","C_Dist_300_LN_20_LD_25_RN_14_RD_28_0.png","C_Dist_300_LN_20_LD_25_RN_5_RD_10_0.png","C_Dist_300_LN_20_LD_25_RN_8_RD_16_0.png","C_Dist_300_LN_20_LD_25_RN_9_RD_18_0.png","C_Dist_300_LN_24_LD_30_RN_2_RD_4_0.png","C_Dist_300_LN_24_LD_30_RN_8_RD_16_0.png","C_Dist_300_LN_3_LD_6_RN_2_RD_10_0.png","C_Dist_300_LN_4_LD_10_RN_1_RD_10_0.png","C_Dist_300_LN_4_LD_5_RN_2_RD_4_0.png","C_Dist_300_LN_8_LD_16_RN_1_RD_5_0.png","C_Dist_300_LN_9_LD_10_RN_3_RD_5_0.png"],["C_Dist_300_LN_1_LD_20_RN_7_RD_20_1.png","C_Dist_300_LN_1_LD_3_RN_19_RD_30_1.png","C_Dist_300_LN_1_LD_30_RN_8_RD_24_1.png","C_Dist_300_LN_1_LD_5_RN_11_RD_22_1.png","C_Dist_300_LN_1_LD_5_RN_3_RD_6_1.png","C_Dist_300_LN_1_LD_5_RN_6_RD_12_1.png","C_Dist_300_LN_2_LD_10_RN_12_RD_24_1.png","C_Dist_300_LN_2_LD_20_RN_10_RD_25_1.png","C_Dist_300_LN_3_LD_12_RN_11_RD_20_1.png","C_Dist_300_LN_3_LD_6_RN_4_RD_5_1.png","C_Dist_300_LN_4_LD_20_RN_13_RD_26_1.png","C_Dist_300_LN_5_LD_25_RN_6_RD_12_1.png","C_Dist_300_LN_5_LD_25_RN_7_RD_14_1.png","C_Dist_300_LN_7_LD_14_RN_20_RD_25_1.png","C_Dist_300_LN_8_LD_15_RN_10_RD_12_1.png"]],"dist300_I":[["I_Dist_300_LN_1_LD_2_RN_2_RD_10_0.png","I_Dist_300_LN_1_LD_2_RN_3_RD_15_0.png","I_Dist_300_LN_2_LD_4_RN_6_RD_30_0.png","I_Dist_300_LN_3_LD_6_RN_4_RD_20_0.png","I_Dist_300_LN_4_LD_5_RN_6_RD_12_0.png","I_Dist_300_LN_4_LD_5_RN_8_RD_16_0.png","I_Dist_300_LN_7_LD_10_RN_8_RD_20_0.png","I_Dist_300_LN_8_LD_10_RN_14_RD_28_0.png","I_Dist_300_LN_8_LD_10_RN_9_RD_18_0.png"],["I_Dist_300_LN_13_LD_26_RN_12_RD_15_1.png","I_Dist_300_LN_4_LD_20_RN_2_RD_4_1.png"]],"dist300_S":[["E_Dist_300_LN_9_LD_12_RN_9_RD_20_0.png"],["E_Dist_300_LN_18_LD_30_RN_18_RD_20_1.png","E_Dist_300_LN_3_LD_10_RN_3_RD_5_1.png","E_Dist_300_LN_9_LD_20_RN_9_RD_12_1.png"]],"dist500_C":[["C_Dist_500_LN_10_LD_13_RN_7_RD_26_0.png","C_Dist_500_LN_10_LD_15_RN_4_RD_24_0.png","C_Dist_500_LN_12_LD_16_RN_3_RD_12_0.png","C_Dist_500_LN_12_LD_18_RN_4_RD_24_0.png","C_Dist_500_LN_15_LD_18_RN_5_RD_15_0.png","C_Dist_500_LN_15_LD_20_RN_1_RD_4_0.png","C_Dist_500_LN_18_LD_27_RN_1_RD_6_0.png","C_Dist_500_LN_20_LD_24_RN_1_RD_3_0.png","C_Dist_500_LN_20_LD_24_RN_3_RD_9_0.png","C_Dist_500_LN_20_LD_24_RN_7_RD_21_0.png","C_Dist_500_LN_20_LD_28_RN_3_RD_14_0.png","C_Dist_500_LN_21_LD_28_RN_6_RD_24_0.png","C_Dist_500_LN_22_LD_28_RN_2_RD_7_0.png","C_Dist_500_LN_25_LD_30_RN_9_RD_27_0.png","C_Dist_500_LN_4_LD_6_RN_1_RD_6_0.png","C_Dist_500_LN_5_LD_6_RN_2_RD_6_0.png","C_Dist_500_LN_6_LD_9_RN_1_RD_6_0.png","C_Dist_500_LN_7_LD_10_RN_1_RD_5_0.png","C_Dist_500_LN_8_LD_12_RN_1_RD_6_0.png","C_Dist_500_LN_8_LD_12_RN_4_RD_24_0.png"],["C_Dist_500_LN_1_LD_4_RN_12_RD_16_1.png","C_Dist_500_LN_1_LD_4_RN_9_RD_12_1.png","C_Dist_500_LN_1_LD_9_RN_11_RD_18_1.png","C_Dist_500_LN_10_LD_24_RN_22_RD_24_1.png","C_Dist_500_LN_2_LD_12_RN_10_RD_15_1.png","C_Dist_500_LN_2_LD_12_RN_12_RD_18_1.png","C_Dist_500_LN_2_LD_12_RN_4_RD_6_1.png","C_Dist_500_LN_2_LD_24_RN_7_RD_12_1.png","C_Dist_500_LN_2_LD_5_RN_18_RD_20_1.png","C_Dist_500_LN_2_LD_5_RN_9_RD_10_1.png","C_Dist_500_LN_2_LD_8_RN_12_RD_16_1.png","C_Dist_500_LN_2_LD_8_RN_21_RD_28_1.png","C_Dist_500_LN_3_LD_10_RN_4_RD_5_1.png","C_Dist_500_LN_3_LD_12_RN_15_RD_20_1.png","C_Dist_500_LN_3_LD_30_RN_6_RD_10_1.png","C_Dist_500_LN_3_LD_8_RN_14_RD_16_1.png","C_Dist_500_LN_4_LD_16_RN_15_RD_20_1.png","C_Dist_500_LN_4_LD_24_RN_12_RD_18_1.png","C_Dist_500_LN_5_LD_14_RN_6_RD_7_1.png","C_Dist_500_LN_7_LD_21_RN_20_RD_24_1.png","C_Dist_500_LN_7_LD_28_RN_12_RD_16_1.png","C_Dist_500_LN_7_LD_28_RN_9_RD_12_1.png","C_Dist_500_LN_9_LD_27_RN_20_RD_24_1.png"]],"dist500_I":[["I_Dist_500_LN_2_LD_3_RN_4_RD_24_0.png","I_Dist_500_LN_5_LD_6_RN_6_RD_18_0.png","I_Dist_500_LN_7_LD_8_RN_9_RD_24_0.png"],["I_Dist_500_LN_7_LD_21_RN_5_RD_6_1.png"]],"dist500_S":[["E_Dist_500_LN_6_LD_8_RN_6_RD_24_0.png"],["E_Dist_500_LN_2_LD_12_RN_2_RD_3_1.png","E_Dist_500_LN_6_LD_24_RN_6_RD_8_1.png"]]}},{"start_time":1552073584795,"click_time":1552073586554,"finger_time":1552073585113,"fix_duration":261.76628735629447,"trial":1,"RT":318,"MT":1441,"sideResp":2,"stimulus":[],"xmouse":[802,802,802,802,802,802,802,802,802,802,802,802,802,797,786,764,721,659,638,623,615,612,611,610,610,610,610,610,610,610,610,610,610,610,603,591,580,573,570,570,570,570,612,797,902,964,979,979,948,910,846,825,821,821,822,843,880,916,940,933,907,887,878,877,877,877,877,877,877,877,877,887,911,985,1016,1039,1045,1045,1045,1045,1045,1045,1045,1045,1045,1045,1052,1069],"ymouse":[554,554,554,554,554,554,554,554,554,554,554,554,553,534,511,473,408,290,241,201,181,176,172,169,169,169,169,169,169,169,169,169,169,166,151,137,128,122,121,121,121,129,175,303,352,380,388,388,410,427,458,469,473,473,474,461,434,399,320,236,169,123,99,82,80,80,80,80,79,79,79,72,67,65,65,65,65,64,64,64,64,64,64,64,64,64,63,61],"timestamp_mouse":[29,37,58,78,97,118,139,158,178,197,218,237,258,277,298,318,337,360,378,398,418,437,457,477,499,518,539,558,579,599,618,638,658,678,697,719,739,758,778,798,817,837,857,877,898,918,938,958,977,997,1017,1038,1058,1078,1099,1118,1137,1159,1177,1199,1218,1237,1257,1277,1298,1317,1338,1358,1379,1398,1418,1437,1457,1477,1497,1518,1538,1557,1579,1598,1618,1638,1659,1677,1698,1718,1739,1758],"xSR":741.5,"ySR":501.8,"xT1":424.9,"yT1":0,"xT2":1058.1,"yT2":0,"toosoon":0,"cond_shown":"Congruent","ratio_trial":300,"L_num":2,"L_den":20,"R_num":10,"R_den":25,"correct_side":2,"subjID":"Gabriela Barrios Hernandez 19","gender":"1","school":"4","age":"9"},{"start_time":1552073588537,"click_time":1552073590273,"finger_time":1552073589893,"fix_duration":1062.8964881416764,"trial":2,"RT":1356,"MT":380,"sideResp":2,"stimulus":[],"xmouse":[786,786,786,786,786,786,786,786,786,786,786,786,786,786,786,786,786,786,786,786,786,786,786,786,786,787,787,787,787,787,787,787,787,787,787,787,787,787,787,787,787,787,787,787,787,787,787,787,787,787,787,787,787,787,787,787,787,787,787,787,787,787,787,787,787,788,802,875,933,973,989,999,1003,1007,1012,1017,1032,1042,1049,1054,1055,1057,1060,1062,1068,1078,1099],"ymouse":[569,569,569,569,569,569,569,569,569,569,569,569,569,569,569,569,569,569,569,569,568,568,568,568,568,568,568,568,568,568,568,568,568,568,568,568,568,568,568,568,568,568,568,568,568,568,568,568,568,568,568,568,568,568,568,568,568,568,568,568,568,568,568,568,568,568,542,464,420,386,371,353,331,314,299,287,253,232,214,199,186,151,142,137,126,113,94],"timestamp_mouse":[16,38,56,75,97,116,135,156,175,196,215,236,256,277,295,315,335,357,377,397,417,435,456,477,496,516,535,556,576,596,617,637,657,676,696,716,736,756,776,796,816,836,855,875,895,917,936,955,976,996,1016,1036,1055,1076,1096,1115,1135,1156,1176,1197,1216,1235,1255,1276,1296,1316,1336,1356,1377,1396,1415,1436,1455,1475,1497,1515,1536,1555,1575,1595,1616,1636,1655,1675,1695,1715,1736],"xSR":741.5,"ySR":501.8,"xT1":424.9,"yT1":0,"xT2":1058.1,"yT2":0,"toosoon":0,"cond_shown":"Congruent","ratio_trial":100,"L_num":10,"L_den":25,"R_num":3,"R_den":10,"correct_side":1,"subjID":"Gabriela Barrios Hernandez 19","gender":"1","school":"4","age":"9"},{"start_time":1552073597205,"click_time":1552073598493,"finger_time":1552073598092,"fix_duration":250,"trial":3,"RT":887,"MT":401,"sideResp":1,"stimulus":[],"xmouse":[764,764,764,764,764,764,764,764,764,764,764,764,764,764,764,764,764,764,764,764,764,764,764,764,764,764,764,764,764,764,764,764,764,764,764,764,764,764,764,764,764,764,758,754,723,686,651,616,589,564,560,558,558,555,546,539,533,527,525,525,525,525,525,525,523],"ymouse":[541,541,541,541,541,541,541,541,541,541,541,541,541,541,541,541,541,541,541,541,541,541,541,541,541,541,541,541,541,541,541,541,541,541,541,541,541,541,541,541,541,541,528,522,476,426,371,310,263,199,183,169,156,139,102,75,55,40,32,30,30,30,30,30,29],"timestamp_mouse":[13,35,48,67,88,107,128,147,167,187,209,227,247,269,287,308,327,348,367,387,407,427,447,469,487,508,527,548,568,587,609,627,647,668,687,707,729,748,768,788,807,829,848,868,887,908,928,949,967,988,1007,1029,1048,1069,1088,1108,1127,1147,1167,1188,1208,1227,1248,1269,1288],"xSR":741.5,"ySR":501.8,"xT1":424.9,"yT1":0,"xT2":1058.1,"yT2":0,"toosoon":0,"cond_shown":"Incongruent","ratio_trial":100,"L_num":3,"L_den":6,"R_num":4,"R_den":10,"correct_side":1,"subjID":"Gabriela Barrios Hernandez 19","gender":"1","school":"4","age":"9"},{"start_time":1552073599726,"click_time":1552073601773,"finger_time":1552073601194,"fix_duration":371.3533355075003,"trial":4,"RT":1468,"MT":579,"sideResp":2,"stimulus":[],"xmouse":[823,823,823,823,823,823,823,823,823,823,823,823,823,823,823,823,823,823,823,823,823,823,823,823,823,823,823,823,823,823,823,823,823,823,823,823,823,823,824,826,826,826,826,826,826,826,826,826,826,826,826,826,826,826,826,826,826,826,826,826,826,826,826,826,826,826,826,818,783,781,781,780,780,777,778,792,827,836,868,877,891,903,911,923,927,932,935,939,940,942,943,944,949,955,976,990,1003,1021,1041,1046,1051,1055,1059],"ymouse":[554,554,554,554,554,554,554,554,554,554,554,554,554,554,554,554,554,554,554,554,554,554,554,554,554,554,554,554,554,554,554,554,554,554,554,554,554,554,551,548,546,545,545,545,544,544,544,544,543,543,542,541,541,541,541,541,541,541,541,541,541,541,541,541,541,541,539,536,522,520,518,518,517,490,473,450,398,386,334,308,276,247,229,199,189,178,167,150,142,137,134,132,130,128,125,123,121,118,112,110,107,103,99],"timestamp_mouse":[13,38,46,67,88,106,127,146,166,186,206,226,247,266,287,306,328,347,367,386,408,426,446,467,486,506,527,546,567,588,606,626,648,667,687,706,727,747,767,787,806,828,847,866,887,906,928,946,967,987,1007,1028,1046,1068,1088,1106,1128,1148,1167,1187,1207,1228,1248,1268,1287,1306,1327,1348,1367,1387,1406,1427,1446,1467,1487,1507,1526,1548,1567,1586,1606,1627,1646,1668,1686,1706,1727,1747,1768,1786,1806,1826,1846,1867,1886,1907,1926,1946,1968,1986,2006,2028,2047],"xSR":741.5,"ySR":501.8,"xT1":424.9,"yT1":0,"xT2":1058.1,"yT2":0,"toosoon":0,"cond_shown":"Congruent","ratio_trial":100,"L_num":6,"L_den":20,"R_num":5,"R_den":25,"correct_side":1,"subjID":"Gabriela Barrios Hernandez 19","gender":"1","school":"4","age":"9"},{"start_time":1552073605095,"click_time":1552073606613,"finger_time":1552073606272,"fix_duration":859.2157396137596,"trial":5,"RT":1177,"MT":341,"sideResp":1,"stimulus":[],"xmouse":[828,828,828,828,828,828,828,828,828,828,828,828,828,828,828,828,828,828,828,828,828,828,828,828,828,828,828,828,828,828,828,828,828,828,828,828,828,828,828,828,828,828,828,828,828,828,828,827,827,827,827,827,827,827,827,827,826,808,794,784,769,754,738,716,692,656,583,567,555,549,541,540,538,534,529,506],"ymouse":[543,543,543,543,543,543,543,543,543,543,543,543,543,543,543,543,543,543,543,543,543,543,543,543,543,543,543,543,543,543,543,543,543,543,543,543,543,543,543,543,543,543,543,543,543,543,543,543,543,543,543,543,543,543,543,543,543,512,479,458,421,390,360,318,275,228,131,104,81,63,40,35,31,26,21,17],"timestamp_mouse":[17,37,57,79,99,117,139,159,179,198,217,239,258,278,298,319,338,359,379,398,417,437,458,479,498,519,538,557,579,597,619,638,659,678,699,718,739,759,777,798,817,839,859,877,897,918,937,957,977,998,1018,1037,1057,1078,1099,1117,1138,1158,1177,1197,1217,1237,1259,1278,1298,1317,1337,1357,1378,1397,1417,1437,1458,1479,1498,1517],"xSR":741.5,"ySR":501.8,"xT1":424.9,"yT1":0,"xT2":1058.1,"yT2":0,"toosoon":0,"cond_shown":"Congruent","ratio_trial":300,"L_num":1,"L_den":5,"R_num":11,"R_den":22,"correct_side":2,"subjID":"Gabriela Barrios Hernandez 19","gender":"1","school":"4","age":"9"},{"start_time":1552073609235,"click_time":1552073612533,"finger_time":1552073610516,"fix_duration":1359.9359881076543,"trial":6,"RT":1281,"MT":2017,"sideResp":2,"stimulus":[],"xmouse":[791,791,791,791,791,791,791,791,791,791,791,791,791,791,791,791,791,791,791,791,791,791,791,791,791,791,791,791,791,791,791,791,791,791,791,791,791,791,791,791,791,791,791,791,791,791,791,791,791,791,791,791,791,791,791,791,791,791,791,791,791,792,783,739,660,628,601,597,587,572,564,558,554,551,551,551,551,550,541,522,515,507,503,502,502,502,502,502,502,502,502,502,502,502,502,502,502,502,502,502,502,502,502,502,502,502,502,502,502,502,502,502,502,502,502,502,502,502,502,502,502,502,502,502,502,502,502,502,502,574,650,734,813,881,955,974,989,991,997,1006,1011,1016,1019,1019,1019,1019,1019,1019,1019,1019,1019,1019,1019,1019,1019,1019,1020,1020,1027,1051,1057,1058,1058,1058,1059],"ymouse":[539,539,539,539,539,539,539,539,539,539,539,539,539,539,539,539,539,539,539,539,539,539,539,539,539,539,539,539,539,539,539,539,539,539,539,539,539,539,539,539,539,539,539,539,539,539,539,539,539,539,539,539,539,539,539,539,539,539,539,539,539,535,515,457,370,334,298,291,265,228,210,197,187,180,179,179,179,179,166,143,134,126,121,119,119,119,119,119,119,119,119,119,119,119,119,119,119,119,119,119,119,119,119,119,119,119,119,119,119,119,119,119,119,119,119,119,119,119,119,119,119,119,119,119,119,119,119,119,118,106,106,106,107,107,107,106,100,97,88,78,73,69,68,67,67,67,67,67,67,67,67,67,67,67,67,67,67,67,67,67,69,69,69,69,69],"timestamp_mouse":[18,43,59,78,98,118,139,158,178,198,217,238,259,278,298,319,338,358,379,399,419,438,459,478,497,519,537,558,579,599,619,637,659,678,697,718,739,758,777,797,817,837,858,878,897,917,938,958,979,999,1018,1038,1058,1079,1098,1118,1137,1157,1179,1198,1218,1238,1257,1281,1297,1318,1337,1358,1377,1397,1417,1437,1458,1479,1497,1519,1537,1559,1578,1597,1618,1638,1659,1677,1697,1718,1737,1758,1779,1797,1817,1837,1858,1879,1898,1918,1938,1958,1979,1998,2019,2038,2058,2079,2098,2118,2138,2157,2178,2197,2218,2238,2259,2279,2297,2317,2338,2358,2378,2397,2418,2439,2459,2478,2498,2518,2538,2558,2579,2598,2619,2639,2658,2677,2697,2717,2737,2757,2779,2798,2818,2837,2858,2878,2899,2918,2939,2958,2977,2999,3018,3039,3057,3078,3098,3118,3137,3158,3177,3197,3219,3238,3258,3277,3298],"xSR":741.5,"ySR":501.8,"xT1":424.9,"yT1":0,"xT2":1058.1,"yT2":0,"toosoon":0,"cond_shown":"Incongruent","ratio_trial":300,"L_num":1,"L_den":2,"R_num":2,"R_den":10,"correct_side":1,"subjID":"Gabriela Barrios Hernandez 19","gender":"1","school":"4","age":"9"},{"start_time":1552073623944,"click_time":1552073625573,"finger_time":1552073625314,"fix_duration":250,"trial":7,"RT":1370,"MT":259,"sideResp":2,"stimulus":[],"xmouse":[771,771,771,771,771,771,771,771,771,771,771,771,771,771,771,771,771,771,771,771,771,771,771,771,771,771,771,771,771,771,771,771,771,771,771,771,771,771,771,771,771,771,771,771,771,771,771,771,771,771,771,771,771,771,771,771,771,771,771,771,771,771,771,771,771,771,771,787,809,857,984,1041,1070,1088,1116,1142,1142,1145,1148,1150,1152,1153],"ymouse":[544,544,544,544,544,544,544,544,544,544,544,544,544,544,544,544,544,544,544,544,544,544,544,544,544,544,544,544,544,544,544,544,544,544,544,544,544,544,544,544,544,544,544,544,544,544,544,544,544,544,544,544,544,544,544,544,544,544,544,544,544,544,544,544,544,544,544,526,500,448,326,270,240,220,182,138,127,117,111,107,100,93],"timestamp_mouse":[13,35,49,68,89,109,128,148,170,188,208,229,249,270,289,310,328,350,369,389,409,428,449,468,489,508,530,548,568,589,609,628,648,669,689,709,730,750,769,789,809,829,849,870,890,909,929,949,970,990,1009,1028,1049,1070,1089,1108,1129,1149,1169,1190,1209,1229,1249,1270,1289,1309,1329,1348,1370,1389,1409,1428,1449,1469,1490,1509,1530,1548,1569,1589,1609,1628],"xSR":741.5,"ySR":501.8,"xT1":424.9,"yT1":0,"xT2":1058.1,"yT2":0,"toosoon":0,"cond_shown":"Incongruent","ratio_trial":300,"L_num":13,"L_den":26,"R_num":12,"R_den":15,"correct_side":2,"subjID":"Gabriela Barrios Hernandez 19","gender":"1","school":"4","age":"9"},{"start_time":1552073627417,"click_time":1552073628934,"finger_time":1552073628393,"fix_duration":843.4221383001744,"trial":8,"RT":976,"MT":541,"sideResp":2,"stimulus":[],"xmouse":[787,787,787,787,787,787,787,787,787,787,787,787,787,787,787,787,787,787,787,787,787,787,787,787,787,787,787,787,787,787,787,787,787,787,795,798,799,799,799,799,799,799,799,799,799,799,799,811,826,848,893,917,967,986,1004,1032,1095,1115,1127,1139,1149,1157,1162,1164,1165,1165,1165,1165,1165,1165,1164,1164,1164,1163,1159,1149],"ymouse":[542,542,542,542,542,542,542,542,542,542,542,542,542,542,542,542,542,542,542,542,542,542,542,542,542,542,542,542,542,542,542,542,542,542,536,534,533,533,533,533,533,533,533,533,533,533,533,513,498,481,450,432,389,370,347,306,218,189,170,149,130,110,95,89,81,70,45,37,32,29,28,28,28,28,28,33],"timestamp_mouse":[21,42,56,76,97,116,137,155,175,195,217,236,256,277,296,317,335,355,376,397,415,436,456,477,496,517,535,556,576,595,616,636,656,677,696,716,737,755,776,796,815,836,857,877,896,915,937,956,976,995,1016,1035,1055,1076,1095,1116,1138,1156,1176,1195,1216,1235,1256,1275,1296,1317,1338,1355,1376,1395,1416,1436,1456,1477,1496,1517],"xSR":741.5,"ySR":501.8,"xT1":424.9,"yT1":0,"xT2":1058.1,"yT2":0,"toosoon":0,"cond_shown":"Incongruent","ratio_trial":200,"L_num":11,"L_den":20,"R_num":3,"R_den":4,"correct_side":2,"subjID":"Gabriela Barrios Hernandez 19","gender":"1","school":"4","age":"9"},{"start_time":1552073630660,"click_time":1552073631974,"finger_time":1552073631752,"fix_duration":824.0663703257085,"trial":9,"RT":1092,"MT":222,"sideResp":1,"stimulus":[],"xmouse":[808,808,808,808,808,808,808,808,808,808,808,808,808,808,808,808,808,808,808,808,808,808,808,808,808,808,808,808,808,808,808,808,808,808,808,808,808,808,808,808,808,808,808,808,808,807,805,794,784,774,755,749,746,742,735,711,677,658,635,612,568,555,542,528,511,471],"ymouse":[560,560,560,560,560,560,560,560,560,560,560,560,560,560,560,560,560,560,560,560,560,560,560,560,560,560,560,560,560,560,560,560,560,560,560,560,560,560,560,560,560,560,560,560,560,560,560,559,557,554,549,546,544,541,535,507,464,436,398,354,266,238,206,173,142,86],"timestamp_mouse":[23,39,53,73,93,113,133,153,174,193,214,234,254,274,293,313,333,354,373,393,412,433,453,472,493,513,534,552,574,593,613,634,653,674,693,713,733,754,773,793,814,833,854,874,892,913,934,953,974,993,1013,1033,1053,1073,1092,1113,1134,1153,1173,1193,1213,1233,1253,1274,1293,1313],"xSR":741.5,"ySR":501.8,"xT1":424.9,"yT1":0,"xT2":1058.1,"yT2":0,"toosoon":0,"cond_shown":"Incongruent","ratio_trial":100,"L_num":4,"L_den":8,"R_num":8,"R_den":20,"correct_side":1,"subjID":"Gabriela Barrios Hernandez 19","gender":"1","school":"4","age":"9"},{"start_time":1552073634001,"click_time":1552073635613,"finger_time":1552073635354,"fix_duration":1127.970772676399,"trial":10,"RT":1353,"MT":259,"sideResp":1,"stimulus":[],"xmouse":[779,779,779,779,779,779,779,779,779,779,779,779,779,779,779,779,779,779,779,779,779,779,779,779,779,779,779,779,779,779,779,779,779,779,779,779,779,779,779,779,779,779,779,779,779,779,779,779,779,779,779,779,779,779,779,779,779,779,779,779,779,779,779,779,779,779,779,772,699,662,629,612,603,602,602,602,602,602,601,550,502],"ymouse":[563,563,563,563,563,563,563,563,563,563,563,563,563,563,563,563,563,563,563,563,563,563,563,563,563,563,563,563,563,563,563,563,563,563,563,563,563,563,563,563,563,563,563,563,563,563,563,563,563,563,563,563,563,563,563,563,563,563,563,563,563,563,563,563,563,563,518,468,262,200,158,135,125,124,124,124,124,123,123,104,86],"timestamp_mouse":[14,41,51,72,93,112,133,151,172,192,213,231,252,272,292,312,333,353,372,393,413,433,453,472,492,512,532,553,572,593,613,633,653,672,693,712,732,753,773,792,813,833,851,872,893,913,933,952,972,993,1012,1033,1052,1072,1092,1113,1133,1152,1172,1191,1213,1233,1253,1272,1293,1313,1332,1353,1373,1392,1413,1432,1452,1473,1492,1513,1532,1558,1572,1593,1612],"xSR":741.5,"ySR":501.8,"xT1":424.9,"yT1":0,"xT2":1058.1,"yT2":0,"toosoon":0,"cond_shown":"Incongruent","ratio_trial":200,"L_num":7,"L_den":10,"R_num":8,"R_den":16,"correct_side":1,"subjID":"Gabriela Barrios Hernandez 19","gender":"1","school":"4","age":"9"},{"start_time":1552073638446,"click_time":1552073640553,"finger_time":1552073639833,"fix_duration":451.7852070552291,"trial":11,"RT":1387,"MT":720,"sideResp":2,"stimulus":[],"xmouse":[794,794,794,794,794,794,794,794,794,794,794,794,794,794,794,794,794,794,794,794,794,794,794,794,794,794,794,794,794,794,794,794,794,794,794,794,794,794,794,794,794,794,794,794,794,794,794,794,794,794,794,794,794,794,794,794,794,794,794,794,794,794,794,794,794,794,794,794,817,857,895,927,962,977,1007,1020,1032,1045,1051,1056,1061,1064,1072,1072,1072,1068,1064,1056,1053,1049,1049,1049,1049,1049,1049,1049,1049,1049,1049,1049,1049,1049,1049,1049,1057,1077],"ymouse":[592,592,592,592,592,592,592,592,592,592,592,592,592,592,592,592,592,592,592,592,592,592,592,592,592,592,592,592,592,592,592,592,592,592,592,592,592,592,592,592,592,592,592,592,592,592,592,592,592,592,592,592,592,592,592,592,592,592,592,592,592,592,592,592,592,592,592,592,579,555,532,506,470,450,410,389,373,351,341,329,317,309,286,262,243,228,210,168,143,115,91,75,62,60,59,59,59,59,59,59,59,59,59,59,59,66],"timestamp_mouse":[10,35,48,68,86,108,128,147,167,187,208,227,247,268,288,307,328,347,368,388,408,427,448,466,487,508,527,548,567,588,607,627,647,667,687,706,727,747,768,787,808,826,848,867,887,908,927,947,967,988,1006,1028,1049,1067,1088,1108,1127,1148,1168,1187,1207,1228,1248,1268,1288,1308,1328,1348,1367,1387,1407,1428,1447,1468,1487,1507,1527,1547,1566,1588,1608,1628,1647,1668,1686,1708,1727,1747,1767,1788,1807,1827,1847,1867,1887,1908,1927,1947,1968,1988,2007,2027,2047,2068,2087,2106],"xSR":741.5,"ySR":501.8,"xT1":424.9,"yT1":0,"xT2":1058.1,"yT2":0,"toosoon":0,"cond_shown":"Congruent","ratio_trial":200,"L_num":3,"L_den":10,"R_num":7,"R_den":14,"correct_side":2,"subjID":"Gabriela Barrios Hernandez 19","gender":"1","school":"4","age":"9"},{"start_time":1552073642071,"click_time":1552073644194,"finger_time":1552073643873,"fix_duration":636.9979393716459,"trial":12,"RT":1802,"MT":321,"sideResp":2,"stimulus":[],"xmouse":[743,743,743,743,743,743,743,743,743,743,743,743,743,743,743,743,743,743,743,743,743,743,743,743,743,743,743,743,743,743,743,743,743,743,743,743,743,743,743,743,743,743,743,743,743,743,743,743,743,743,743,743,743,743,743,743,743,743,743,743,743,743,743,743,743,743,743,743,743,743,743,743,743,743,743,743,743,743,743,743,743,743,743,743,743,743,743,743,758,829,861,1013,1050,1058,1070,1082,1094,1102,1109,1118,1128,1141,1148,1149,1149,1144,1126],"ymouse":[538,538,538,538,538,538,538,538,538,538,538,538,538,538,538,538,538,538,538,538,538,538,538,538,538,538,538,538,538,538,538,538,538,538,538,538,538,538,538,538,538,538,538,538,538,538,538,538,538,538,538,538,538,538,538,538,538,538,538,538,538,538,538,538,538,538,538,538,538,538,538,538,538,538,538,538,538,538,538,538,538,538,538,538,538,538,538,539,534,512,504,481,476,470,453,407,322,295,269,247,228,204,176,160,133,105,58],"timestamp_mouse":[14,39,41,63,81,103,122,143,163,182,203,222,242,262,282,303,322,342,363,382,402,422,442,462,483,503,522,543,563,582,602,622,642,662,682,702,723,742,763,783,803,822,842,861,883,903,922,942,961,981,1002,1022,1042,1062,1082,1103,1122,1143,1162,1183,1202,1222,1242,1262,1283,1303,1322,1342,1363,1383,1402,1423,1443,1463,1483,1503,1522,1541,1563,1582,1603,1623,1643,1663,1683,1703,1722,1742,1762,1782,1802,1823,1842,1862,1882,1902,1923,1942,1962,1982,2003,2022,2042,2062,2083,2102,2123],"xSR":741.5,"ySR":501.8,"xT1":424.9,"yT1":0,"xT2":1058.1,"yT2":0,"toosoon":0,"cond_shown":"Incongruent","ratio_trial":100,"L_num":6,"L_den":12,"R_num":3,"R_den":5,"correct_side":2,"subjID":"Gabriela Barrios Hernandez 19","gender":"1","school":"4","age":"9"},{"start_time":1552073648083,"click_time":1552073649713,"finger_time":1552073649412,"fix_duration":1468.9005139822932,"trial":13,"RT":1329,"MT":301,"sideResp":2,"stimulus":[],"xmouse":[810,810,810,810,810,810,810,810,810,810,810,810,810,810,810,810,810,810,810,810,810,810,810,810,810,810,810,810,810,810,810,810,810,810,810,810,810,810,810,810,810,810,810,810,810,810,810,810,810,810,810,810,810,810,810,810,810,810,810,810,810,810,810,810,809,819,851,975,1051,1066,1067,1067,1067,1067,1067,1067,1069,1076,1079,1081,1083,1086],"ymouse":[559,559,559,559,559,559,559,559,559,559,559,559,559,559,559,559,559,559,559,559,559,559,559,559,559,559,559,559,559,559,559,559,559,559,559,559,559,559,559,559,559,559,559,559,559,559,559,559,559,559,559,559,559,559,559,559,559,559,559,559,559,559,559,559,559,544,512,381,267,238,235,235,235,235,235,235,221,162,142,124,109,85],"timestamp_mouse":[13,34,51,71,90,111,131,150,170,190,211,231,251,270,291,311,330,350,369,389,411,431,450,471,491,510,531,550,571,590,610,630,651,670,691,711,730,751,770,789,810,831,850,871,891,910,930,950,971,990,1010,1030,1051,1071,1091,1110,1130,1150,1170,1191,1211,1230,1251,1271,1290,1310,1329,1350,1370,1391,1411,1430,1450,1470,1491,1510,1530,1550,1570,1591,1610,1630],"xSR":741.5,"ySR":501.8,"xT1":424.9,"yT1":0,"xT2":1058.1,"yT2":0,"toosoon":0,"cond_shown":"Congruent","ratio_trial":200,"L_num":3,"L_den":10,"R_num":7,"R_den":14,"correct_side":2,"subjID":"Gabriela Barrios Hernandez 19","gender":"1","school":"4","age":"9"},{"start_time":1552073650880,"click_time":1552073652153,"finger_time":1552073651893,"fix_duration":305.99038932977163,"trial":14,"RT":1013,"MT":260,"sideResp":2,"stimulus":[],"xmouse":[766,766,766,766,766,766,766,766,766,766,766,766,766,766,766,766,766,766,766,766,766,766,766,766,766,766,766,766,766,766,766,766,766,766,766,766,766,766,766,766,766,766,766,766,766,766,766,766,793,826,858,894,909,920,939,965,1000,1019,1032,1044,1052,1057,1061,1066],"ymouse":[578,578,578,578,578,578,578,578,578,578,578,578,578,578,578,578,578,578,578,578,578,578,578,578,578,578,578,578,578,578,578,578,578,578,578,578,578,578,578,578,578,578,578,578,578,578,578,579,560,528,497,447,415,390,346,276,202,170,148,131,120,111,105,97],"timestamp_mouse":[12,35,53,73,94,113,132,153,174,194,213,232,253,274,294,313,333,354,373,394,414,433,454,474,494,514,533,554,573,593,612,633,653,674,693,713,733,753,773,794,813,833,853,874,893,913,933,954,973,994,1013,1034,1053,1073,1093,1114,1134,1154,1174,1193,1213,1234,1253,1273],"xSR":741.5,"ySR":501.8,"xT1":424.9,"yT1":0,"xT2":1058.1,"yT2":0,"toosoon":0,"cond_shown":"Incongruent","ratio_trial":300,"L_num":13,"L_den":26,"R_num":12,"R_den":15,"correct_side":2,"subjID":"Gabriela Barrios Hernandez 19","gender":"1","school":"4","age":"9"},{"start_time":1552073654143,"click_time":1552073655315,"finger_time":1552073655013,"fix_duration":928.4787643293295,"trial":15,"RT":870,"MT":302,"sideResp":2,"stimulus":[],"xmouse":[785,785,785,785,785,785,785,785,785,785,785,785,785,785,785,785,785,785,785,785,785,785,785,785,785,785,785,785,785,785,785,785,785,785,785,785,785,785,786,786,786,789,807,859,979,1027,1059,1081,1088,1098,1104,1116,1124,1132,1143,1144,1144,1143,1132],"ymouse":[536,536,536,536,536,536,536,536,536,536,536,536,536,536,536,536,536,536,536,536,536,536,536,536,536,536,536,536,536,536,536,536,536,536,536,536,536,536,536,536,536,536,534,511,449,411,379,347,327,301,288,255,233,205,161,143,126,111,76],"timestamp_mouse":[13,36,50,71,90,111,131,151,171,190,211,231,251,271,291,311,331,350,370,391,410,430,451,470,491,511,530,551,571,591,610,631,650,671,690,710,731,749,769,791,810,830,850,870,890,910,930,950,970,990,1011,1030,1050,1070,1090,1110,1130,1151,1172],"xSR":741.5,"ySR":501.8,"xT1":424.9,"yT1":0,"xT2":1058.1,"yT2":0,"toosoon":0,"cond_shown":"Incongruent","ratio_trial":200,"L_num":14,"L_den":30,"R_num":12,"R_den":18,"correct_side":2,"subjID":"Gabriela Barrios Hernandez 19","gender":"1","school":"4","age":"9"},{"start_time":1552073657998,"click_time":1552073659153,"finger_time":1552073658532,"fix_duration":283.7227594589519,"trial":16,"RT":534,"MT":621,"sideResp":1,"stimulus":[],"xmouse":[790,790,790,790,790,790,790,790,790,790,790,790,790,790,790,790,790,790,790,790,790,790,790,790,790,787,760,744,733,729,728,725,721,714,704,693,677,671,665,658,647,612,590,562,532,506,447,420,415,415,415,415,415,415,415,417,426,439],"ymouse":[588,588,588,588,588,588,588,588,588,588,588,588,588,588,588,588,588,588,588,588,587,587,587,587,578,564,498,473,459,453,449,440,425,407,384,365,334,318,308,299,285,251,232,210,189,171,132,116,114,113,113,112,109,109,107,104,100,94],"timestamp_mouse":[16,36,55,75,95,115,135,156,175,196,216,235,256,276,295,316,335,355,376,395,415,435,456,475,495,516,534,555,575,596,615,635,655,675,695,715,735,755,775,796,815,835,855,876,895,915,935,956,975,995,1015,1036,1055,1075,1094,1116,1135,1155],"xSR":741.5,"ySR":501.8,"xT1":424.9,"yT1":0,"xT2":1058.1,"yT2":0,"toosoon":0,"cond_shown":"Incongruent","ratio_trial":300,"L_num":7,"L_den":10,"R_num":8,"R_den":20,"correct_side":1,"subjID":"Gabriela Barrios Hernandez 19","gender":"1","school":"4","age":"9"},{"start_time":1552073661265,"click_time":1552073663094,"finger_time":1552073662194,"fix_duration":910.420536006796,"trial":17,"RT":929,"MT":900,"sideResp":1,"stimulus":[],"xmouse":[801,801,801,801,801,801,801,801,801,801,801,801,801,801,801,801,801,801,801,801,801,801,801,801,801,801,801,801,801,801,801,801,801,801,801,801,801,801,801,801,801,798,795,790,789,787,786,784,781,767,753,735,701,678,672,665,659,652,640,575,561,561,561,561,561,561,561,561,561,561,561,561,561,561,561,561,561,561,561,561,561,561,561,561,561,561,561,561,561,561,473,473],"ymouse":[535,535,535,535,535,535,535,535,535,535,535,535,535,535,535,535,535,535,535,535,535,535,535,535,535,535,535,535,535,535,535,535,535,535,535,535,535,535,535,535,535,531,522,512,508,503,497,491,481,452,431,405,344,283,259,234,209,183,144,27,6,6,6,6,6,6,6,6,6,6,6,6,6,6,6,6,6,6,6,6,6,6,6,6,6,6,6,6,6,6,0,7],"timestamp_mouse":[13,32,49,67,89,108,128,149,168,189,209,228,249,268,289,309,328,349,369,389,408,427,449,469,488,509,528,549,568,589,608,629,648,668,688,708,727,749,769,789,808,828,848,869,888,908,929,948,969,988,1008,1028,1048,1068,1087,1109,1129,1148,1168,1188,1208,1229,1249,1268,1289,1308,1329,1348,1367,1388,1407,1429,1449,1468,1488,1508,1529,1548,1568,1589,1608,1627,1648,1667,1688,1709,1729,1748,1768,1789,1808,1829],"xSR":741.5,"ySR":501.8,"xT1":424.9,"yT1":0,"xT2":1058.1,"yT2":0,"toosoon":0,"cond_shown":"Incongruent","ratio_trial":200,"L_num":7,"L_den":10,"R_num":12,"R_den":24,"correct_side":1,"subjID":"Gabriela Barrios Hernandez 19","gender":"1","school":"4","age":"9"},{"start_time":1552073664907,"click_time":1552073665954,"finger_time":1552073665433,"fix_duration":752.2121375116765,"trial":18,"RT":526,"MT":521,"sideResp":2,"stimulus":[],"xmouse":[786,786,786,786,786,786,786,786,786,786,786,786,786,786,786,786,786,786,786,786,786,784,783,783,801,816,851,933,955,971,992,1016,1070,1083,1083,1080,1073,1066,1052,1037,1032,1030,1030,1030,1030,1030,1030,1030,1030,1030,1030,1044,1102],"ymouse":[530,530,530,530,530,530,530,530,530,530,530,530,530,530,530,530,530,530,530,530,530,529,526,526,526,526,530,537,537,529,513,484,386,339,306,275,248,200,154,119,105,99,99,99,99,99,99,99,99,99,98,98,98],"timestamp_mouse":[14,26,45,66,86,107,126,147,166,187,205,226,246,266,287,307,327,347,366,387,406,426,446,466,487,506,526,546,566,586,607,626,646,666,686,705,727,746,766,785,805,826,846,867,886,906,926,946,966,987,1007,1027,1047],"xSR":741.5,"ySR":501.8,"xT1":424.9,"yT1":0,"xT2":1058.1,"yT2":0,"toosoon":0,"cond_shown":"Incongruent","ratio_trial":200,"L_num":14,"L_den":30,"R_num":6,"R_den":9,"correct_side":2,"subjID":"Gabriela Barrios Hernandez 19","gender":"1","school":"4","age":"9"},{"start_time":1552073667185,"click_time":1552073669133,"finger_time":1552073668693,"fix_duration":250,"trial":19,"RT":1508,"MT":440,"sideResp":2,"stimulus":[],"xmouse":[801,801,801,800,800,800,800,799,799,799,799,799,799,799,799,799,799,799,799,799,799,799,799,799,799,799,799,799,799,799,799,799,799,798,798,798,798,797,796,796,796,795,795,795,795,795,795,795,795,795,795,795,795,795,795,795,795,795,795,795,795,795,795,795,795,795,795,795,795,795,795,795,795,795,811,838,864,884,925,950,972,988,998,1022,1025,1027,1028,1028,1028,1028,1029,1030,1031,1041,1046,1051,1057,1059],"ymouse":[567,567,567,567,567,567,567,567,567,567,567,567,567,567,567,567,567,567,567,567,567,567,567,567,567,567,567,567,567,567,567,567,567,567,566,566,566,566,566,566,566,566,566,566,566,566,566,566,566,566,566,566,566,566,566,566,566,566,566,566,566,566,566,566,566,566,566,566,566,566,566,566,566,566,538,497,464,439,361,304,258,222,197,147,141,137,132,126,116,113,109,107,106,101,98,96,94,92],"timestamp_mouse":[21,45,49,68,88,108,128,149,168,188,209,229,248,268,289,307,329,349,369,387,409,429,449,468,489,509,527,549,568,589,608,629,649,668,689,709,729,747,768,789,808,829,849,868,889,909,928,948,968,988,1008,1028,1048,1067,1089,1108,1128,1148,1168,1189,1208,1228,1249,1268,1288,1309,1327,1349,1368,1388,1409,1429,1448,1468,1488,1508,1528,1547,1568,1588,1608,1628,1648,1669,1687,1709,1728,1749,1768,1788,1808,1828,1849,1869,1887,1908,1929,1948],"xSR":741.5,"ySR":501.8,"xT1":424.9,"yT1":0,"xT2":1058.1,"yT2":0,"toosoon":0,"cond_shown":"Congruent","ratio_trial":300,"L_num":1,"L_den":3,"R_num":19,"R_den":30,"correct_side":2,"subjID":"Gabriela Barrios Hernandez 19","gender":"1","school":"4","age":"9"},{"start_time":1552073671722,"click_time":1552073673474,"finger_time":1552073673173,"fix_duration":1488.5305972925323,"trial":20,"RT":1451,"MT":301,"sideResp":1,"stimulus":[],"xmouse":[787,787,787,787,787,787,787,787,787,787,787,787,787,787,787,787,787,787,787,787,787,787,787,787,787,787,787,787,787,787,787,787,787,787,787,787,787,787,787,787,787,787,787,787,787,787,787,787,787,787,787,787,787,787,787,787,787,787,787,787,787,787,787,787,787,787,787,787,787,787,787,787,744,697,624,624,624,624,624,624,624,624,624,624,624,624,624,517],"ymouse":[556,556,556,556,556,556,556,556,556,556,556,556,556,556,556,556,556,556,556,556,556,556,556,556,556,556,556,556,556,556,556,556,556,556,556,556,556,556,556,556,556,556,556,556,556,556,556,556,556,556,556,556,556,556,556,556,556,556,556,556,556,556,556,556,556,556,556,556,556,556,554,533,340,212,28,28,28,28,28,28,28,28,28,28,28,28,28,54],"timestamp_mouse":[14,41,52,71,92,112,131,151,172,192,212,232,251,272,291,311,331,352,371,392,410,431,452,471,491,512,532,552,572,592,611,632,652,670,692,712,732,750,772,791,811,832,852,871,892,910,931,952,972,992,1011,1031,1052,1071,1091,1112,1132,1151,1172,1191,1212,1231,1252,1272,1292,1312,1331,1351,1370,1391,1411,1431,1451,1471,1491,1511,1531,1552,1571,1592,1611,1631,1651,1671,1691,1711,1730,1752],"xSR":741.5,"ySR":501.8,"xT1":424.9,"yT1":0,"xT2":1058.1,"yT2":0,"toosoon":0,"cond_shown":"Congruent","ratio_trial":100,"L_num":6,"L_den":20,"R_num":5,"R_den":25,"correct_side":1,"subjID":"Gabriela Barrios Hernandez 19","gender":"1","school":"4","age":"9"},{"start_time":1552073675445,"click_time":1552073676474,"finger_time":1552073676314,"fix_duration":250,"trial":21,"RT":869,"MT":160,"sideResp":2,"stimulus":[],"xmouse":[796,796,796,796,796,796,796,796,796,796,795,795,795,795,795,795,795,795,795,795,795,795,795,795,795,795,795,795,795,795,795,795,795,795,795,795,795,795,795,795,795,795,813,842,892,939,1003,1033,1045,1056,1063,1075],"ymouse":[547,547,547,547,547,547,547,547,547,547,547,547,547,547,547,547,547,547,547,547,547,547,547,547,547,547,547,547,547,547,547,547,547,547,547,547,547,547,547,547,547,545,518,467,384,311,209,160,139,121,108,91],"timestamp_mouse":[14,40,48,69,89,108,128,147,168,189,209,228,249,268,288,309,328,348,368,388,409,428,448,469,495,508,529,548,569,589,607,628,649,669,689,709,728,748,768,789,809,828,848,869,888,908,929,947,968,988,1008,1029],"xSR":741.5,"ySR":501.8,"xT1":424.9,"yT1":0,"xT2":1058.1,"yT2":0,"toosoon":0,"cond_shown":"Incongruent","ratio_trial":200,"L_num":9,"L_den":15,"R_num":8,"R_den":10,"correct_side":2,"subjID":"Gabriela Barrios Hernandez 19","gender":"1","school":"4","age":"9"},{"start_time":1552073678737,"click_time":1552073679754,"finger_time":1552073679133,"fix_duration":1101.114818934396,"trial":22,"RT":396,"MT":621,"sideResp":2,"stimulus":[],"xmouse":[769,769,769,769,769,769,769,769,769,769,769,769,769,769,769,770,777,786,792,798,798,798,798,793,792,792,792,797,807,820,830,853,883,901,922,945,966,992,1000,1007,1015,1019,1023,1024,1025,1025,1025,1027,1030,1043,1071],"ymouse":[569,569,569,569,569,569,569,569,569,569,569,569,569,569,569,568,561,538,513,477,447,387,356,326,295,270,250,212,195,177,166,150,137,131,124,115,106,82,68,53,42,38,34,34,33,33,33,34,34,38,48],"timestamp_mouse":[16,38,57,76,97,116,136,157,176,196,216,237,257,276,297,317,336,355,376,396,416,437,456,476,496,515,536,556,576,596,616,637,656,675,696,716,737,756,776,796,816,836,855,875,896,917,937,956,977,996,1017],"xSR":741.5,"ySR":501.8,"xT1":424.9,"yT1":0,"xT2":1058.1,"yT2":0,"toosoon":0,"cond_shown":"Congruent","ratio_trial":300,"L_num":3,"L_den":6,"R_num":4,"R_den":5,"correct_side":2,"subjID":"Gabriela Barrios Hernandez 19","gender":"1","school":"4","age":"9"},{"start_time":1552073680965,"click_time":1552073682014,"finger_time":1552073681513,"fix_duration":250,"trial":23,"RT":548,"MT":501,"sideResp":2,"stimulus":[],"xmouse":[794,794,794,794,794,794,794,794,794,794,794,794,794,794,794,794,794,794,794,794,794,794,794,794,794,794,811,848,915,957,991,1020,1027,1034,1036,1039,1041,1042,1042,1043,1044,1044,1044,1044,1044,1045,1048,1049,1053,1057,1061,1079,1093],"ymouse":[547,547,547,547,547,547,547,547,547,547,547,547,547,547,547,547,547,547,547,547,547,547,547,547,547,547,535,503,445,401,361,322,308,293,278,263,246,241,234,224,216,194,182,173,164,156,142,136,128,122,117,100,90],"timestamp_mouse":[12,41,48,69,89,109,128,149,168,188,208,229,248,269,287,309,328,349,369,389,409,428,448,469,489,508,528,548,568,588,608,628,648,668,688,709,728,748,769,789,808,828,848,869,888,909,928,948,968,988,1009,1028,1049],"xSR":741.5,"ySR":501.8,"xT1":424.9,"yT1":0,"xT2":1058.1,"yT2":0,"toosoon":0,"cond_shown":"Incongruent","ratio_trial":200,"L_num":14,"L_den":30,"R_num":6,"R_den":9,"correct_side":2,"subjID":"Gabriela Barrios Hernandez 19","gender":"1","school":"4","age":"9"},{"start_time":1552073683644,"click_time":1552073684213,"finger_time":1552073684113,"fix_duration":829.7617882189878,"trial":24,"RT":469,"MT":100,"sideResp":2,"stimulus":[],"xmouse":[810,810,810,810,810,810,810,810,810,810,810,810,810,810,810,810,810,810,818,822,827,830,837,844,875,918,974,1093,1129],"ymouse":[561,561,561,561,561,561,561,561,561,561,561,561,561,561,561,561,561,561,551,547,542,538,529,521,482,419,338,159,96],"timestamp_mouse":[12,37,49,70,89,109,128,148,169,189,210,229,249,269,289,309,328,349,368,390,409,429,448,469,489,510,529,549,568],"xSR":741.5,"ySR":501.8,"xT1":424.9,"yT1":0,"xT2":1058.1,"yT2":0,"toosoon":0,"cond_shown":"Congruent","ratio_trial":300,"L_num":9,"L_den":10,"R_num":3,"R_den":5,"correct_side":1,"subjID":"Gabriela Barrios Hernandez 19","gender":"1","school":"4","age":"9"},{"start_time":1552073688401,"click_time":1552073689013,"finger_time":1552073688873,"fix_duration":685.5315596462149,"trial":25,"RT":472,"MT":140,"sideResp":1,"stimulus":[],"xmouse":[752,752,752,752,752,752,752,752,752,752,752,752,752,752,752,752,752,752,752,752,752,752,752,752,749,724,703,671,629,580,518],"ymouse":[538,538,538,538,538,538,538,538,538,538,538,538,538,538,538,538,538,538,538,538,538,538,527,491,414,292,239,185,123,69,2],"timestamp_mouse":[13,45,52,72,93,112,131,153,172,192,212,232,252,273,292,313,332,353,372,393,413,433,452,472,494,512,532,552,572,594,612],"xSR":741.5,"ySR":501.8,"xT1":424.9,"yT1":0,"xT2":1058.1,"yT2":0,"toosoon":0,"cond_shown":"Congruent","ratio_trial":200,"L_num":3,"L_den":10,"R_num":11,"R_den":22,"correct_side":2,"subjID":"Gabriela Barrios Hernandez 19","gender":"1","school":"4","age":"9"},{"start_time":1552073692525,"click_time":1552073693473,"finger_time":1552073692893,"fix_duration":1030.9287417167402,"trial":26,"RT":368,"MT":580,"sideResp":2,"stimulus":[],"xmouse":[806,806,806,806,806,806,806,806,806,806,806,806,806,806,806,806,806,834,856,880,888,896,904,914,933,945,955,965,973,984,1001,1005,1008,1010,1014,1015,1016,1018,1020,1026,1029,1031,1034,1039,1053,1066,1077,1087],"ymouse":[562,562,562,562,562,562,562,562,562,562,562,562,562,562,562,562,561,514,475,436,421,409,395,379,347,325,307,291,276,257,222,212,205,200,189,186,182,178,174,167,162,159,156,150,136,120,108,97],"timestamp_mouse":[13,33,47,67,88,109,129,149,169,189,208,228,249,267,288,308,327,349,368,388,408,428,448,469,488,507,527,547,567,587,608,627,647,667,687,708,728,749,767,788,808,828,849,868,888,908,929,948],"xSR":741.5,"ySR":501.8,"xT1":424.9,"yT1":0,"xT2":1058.1,"yT2":0,"toosoon":0,"cond_shown":"Incongruent","ratio_trial":200,"L_num":7,"L_den":15,"R_num":6,"R_den":9,"correct_side":2,"subjID":"Gabriela Barrios Hernandez 19","gender":"1","school":"4","age":"9"},{"start_time":1552073694826,"click_time":1552073696413,"finger_time":1552073695773,"fix_duration":250,"trial":27,"RT":947,"MT":640,"sideResp":2,"stimulus":[],"xmouse":[764,764,764,764,764,764,764,764,764,764,764,764,764,764,764,764,764,764,764,764,764,764,764,764,764,764,764,764,764,764,764,764,764,764,766,767,767,767,767,767,767,767,767,767,767,770,773,787,793,818,830,847,866,884,918,937,958,975,995,1022,1035,1046,1055,1062,1068,1069,1069,1070,1070,1072,1074,1077,1080,1085,1091,1094,1095,1096,1097,1098],"ymouse":[527,527,527,527,527,527,527,527,527,527,527,527,527,527,527,527,527,527,527,527,527,527,527,527,527,527,527,527,527,527,527,527,525,523,518,516,516,515,515,515,515,515,515,515,515,514,510,493,487,461,447,427,405,385,343,321,297,274,244,211,196,182,170,161,152,150,150,149,149,146,144,139,133,125,111,108,104,103,101,99],"timestamp_mouse":[11,29,48,68,86,107,127,148,167,186,208,227,246,267,287,307,328,346,367,387,408,427,448,466,487,507,527,547,567,587,607,627,647,666,687,707,727,746,767,787,808,827,847,868,887,906,927,947,967,987,1008,1027,1048,1066,1086,1108,1128,1147,1167,1187,1207,1227,1247,1267,1287,1306,1327,1347,1367,1387,1407,1427,1447,1466,1488,1507,1527,1547,1568,1587],"xSR":741.5,"ySR":501.8,"xT1":424.9,"yT1":0,"xT2":1058.1,"yT2":0,"toosoon":0,"cond_shown":"Congruent","ratio_trial":300,"L_num":1,"L_den":3,"R_num":19,"R_den":30,"correct_side":2,"subjID":"Gabriela Barrios Hernandez 19","gender":"1","school":"4","age":"9"},{"start_time":1552073698186,"click_time":1552073700733,"finger_time":1552073699232,"fix_duration":252.5004017139043,"trial":28,"RT":1046,"MT":1501,"sideResp":1,"stimulus":[],"xmouse":[825,825,825,825,825,825,825,825,825,824,823,822,821,821,821,821,821,818,815,813,812,811,811,811,811,811,811,811,811,811,811,811,811,811,811,811,811,811,811,811,811,811,811,811,811,811,811,812,813,813,817,826,855,872,885,895,905,950,976,999,1007,1017,1028,1032,1036,1039,1044,1055,1060,1062,1066,1069,1072,1074,1076,1078,1081,1084,1085,1085,1085,1086,1087,1087,1087,1087,1087,1087,1087,1087,1087,1087,1087,1087,1087,1087,1087,1087,1087,1087,1087,1087,1087,1087,1087,1087,1087,1064,1037,1017,994,961,829,740,655,587,546,512,505,502,499,498,498,497,497,497,497,501],"ymouse":[529,529,529,529,529,529,529,529,529,529,529,529,529,529,529,529,529,529,529,531,531,532,532,532,532,532,532,532,532,532,532,532,532,532,532,532,532,532,532,532,532,532,532,532,532,532,532,531,531,531,528,517,475,452,437,422,409,343,318,298,288,274,256,248,241,233,224,197,179,170,159,154,148,145,141,137,133,127,124,123,122,121,119,119,119,119,119,119,119,119,119,119,119,119,119,119,119,119,119,119,119,119,119,119,118,118,118,124,131,133,137,142,147,147,144,134,128,123,122,122,121,120,120,120,119,112,106,91],"timestamp_mouse":[15,28,47,68,87,106,127,148,168,187,206,228,248,266,288,308,327,346,367,388,406,427,447,468,488,508,527,548,566,586,608,628,647,666,687,707,728,747,766,787,806,828,848,868,887,908,928,948,968,986,1006,1026,1046,1067,1086,1107,1128,1147,1168,1187,1207,1226,1246,1267,1287,1307,1328,1346,1367,1386,1407,1427,1447,1467,1487,1508,1526,1546,1567,1588,1608,1627,1647,1668,1687,1707,1727,1747,1767,1788,1808,1828,1848,1867,1888,1907,1928,1946,1967,1987,2007,2027,2046,2068,2088,2108,2128,2147,2167,2186,2206,2228,2247,2267,2288,2306,2326,2346,2367,2386,2406,2427,2446,2466,2487,2506,2526,2547],"xSR":741.5,"ySR":501.8,"xT1":424.9,"yT1":0,"xT2":1058.1,"yT2":0,"toosoon":0,"cond_shown":"Incongruent","ratio_trial":100,"L_num":12,"L_den":30,"R_num":2,"R_den":4,"correct_side":2,"subjID":"Gabriela Barrios Hernandez 19","gender":"1","school":"4","age":"9"},{"start_time":1552073702711,"click_time":1552073704194,"finger_time":1552073703793,"fix_duration":555.1506401340159,"trial":29,"RT":1082,"MT":401,"sideResp":2,"stimulus":[],"xmouse":[818,818,818,818,818,818,818,818,818,818,818,818,818,818,818,818,818,818,818,818,818,818,818,818,818,818,818,818,818,818,818,818,818,818,818,818,818,818,818,818,818,818,818,818,818,818,818,818,818,818,818,818,818,818,844,876,1006,1057,1098,1120,1135,1176,1189,1196,1201,1209,1217,1220,1221,1219,1210,1180,1172,1165,1157],"ymouse":[594,594,594,594,594,594,594,594,594,594,594,594,594,594,594,594,594,594,594,594,594,594,594,594,594,594,594,594,594,594,594,594,594,594,594,594,594,594,594,594,594,594,594,594,594,594,594,594,594,594,594,594,594,594,577,560,498,470,439,421,399,315,286,269,256,239,200,181,160,133,110,64,55,50,47],"timestamp_mouse":[13,22,43,62,83,103,122,143,162,181,203,222,243,261,283,303,322,343,362,383,401,422,442,462,481,503,522,543,561,583,603,623,642,661,683,701,721,743,762,782,802,821,842,862,883,902,922,943,961,981,1001,1023,1042,1063,1082,1102,1124,1142,1162,1183,1202,1221,1241,1262,1282,1302,1323,1342,1362,1382,1402,1423,1442,1462,1483],"xSR":741.5,"ySR":501.8,"xT1":424.9,"yT1":0,"xT2":1058.1,"yT2":0,"toosoon":0,"cond_shown":"Congruent","ratio_trial":200,"L_num":8,"L_den":15,"R_num":7,"R_den":21,"correct_side":1,"subjID":"Gabriela Barrios Hernandez 19","gender":"1","school":"4","age":"9"},{"start_time":1552073708580,"click_time":1552073709574,"finger_time":1552073709092,"fix_duration":326.1140427426211,"trial":30,"RT":512,"MT":482,"sideResp":1,"stimulus":[],"xmouse":[829,829,829,829,829,829,829,829,829,829,829,829,829,829,829,829,829,829,829,829,829,828,823,804,796,780,774,770,764,759,752,741,728,694,683,672,667,657,638,629,623,621,619,611,602,590,577,560,525,507],"ymouse":[601,601,601,601,601,601,601,601,601,601,601,601,601,601,601,601,601,601,601,601,601,601,591,539,525,496,478,467,449,435,418,397,380,347,337,321,311,295,261,247,238,234,230,214,198,184,166,148,108,85],"timestamp_mouse":[14,39,53,74,94,113,133,153,174,193,213,234,254,272,293,314,333,354,372,392,414,433,453,473,493,512,533,552,574,593,614,633,652,673,693,713,733,752,773,793,814,833,853,872,893,912,934,952,972,993],"xSR":741.5,"ySR":501.8,"xT1":424.9,"yT1":0,"xT2":1058.1,"yT2":0,"toosoon":0,"cond_shown":"Incongruent","ratio_trial":200,"L_num":3,"L_den":4,"R_num":11,"R_den":20,"correct_side":1,"subjID":"Gabriela Barrios Hernandez 19","gender":"1","school":"4","age":"9"},{"start_time":1552073713501,"click_time":1552073714993,"finger_time":1552073714514,"fix_duration":1126.9815264646472,"trial":31,"RT":1013,"MT":479,"sideResp":2,"stimulus":[],"xmouse":[777,777,777,777,777,777,777,777,777,777,777,777,777,777,777,777,777,777,777,777,777,777,777,777,777,777,777,777,777,777,777,777,777,777,777,777,777,777,777,777,777,777,777,777,777,777,777,777,787,826,848,865,878,883,887,889,892,897,918,930,940,951,972,986,1004,1033,1050,1064,1085,1092,1097,1100,1101,1106,1109],"ymouse":[565,565,565,565,565,565,565,565,565,565,565,565,565,565,565,565,565,565,565,565,565,565,565,565,565,565,565,565,565,565,565,565,565,565,565,565,565,565,565,565,565,565,565,565,565,565,565,565,561,506,486,473,464,459,456,453,449,442,408,388,372,356,327,307,282,239,212,189,151,139,130,124,118,102,90],"timestamp_mouse":[21,38,53,72,93,111,132,152,173,192,213,231,253,272,293,313,332,353,373,392,411,433,452,473,492,512,532,553,571,593,613,633,653,673,692,713,732,752,772,793,813,832,853,872,891,912,933,953,971,992,1013,1032,1051,1071,1092,1112,1132,1153,1171,1192,1212,1231,1253,1272,1293,1313,1332,1353,1373,1393,1411,1431,1452,1471,1492],"xSR":741.5,"ySR":501.8,"xT1":424.9,"yT1":0,"xT2":1058.1,"yT2":0,"toosoon":0,"cond_shown":"Congruent","ratio_trial":200,"L_num":3,"L_den":10,"R_num":7,"R_den":14,"correct_side":2,"subjID":"Gabriela Barrios Hernandez 19","gender":"1","school":"4","age":"9"},{"start_time":1552073716906,"click_time":1552073718133,"finger_time":1552073717934,"fix_duration":1111.8684338678343,"trial":32,"RT":1028,"MT":199,"sideResp":1,"stimulus":[],"xmouse":[789,789,789,789,789,789,789,789,789,789,789,789,789,789,789,789,789,789,789,789,789,789,789,789,789,789,789,789,789,789,789,789,789,789,789,789,789,789,789,789,789,789,789,789,789,789,789,789,789,789,786,755,703,579,513,489,475,466,456,451,443,437],"ymouse":[568,568,568,568,568,568,568,568,568,568,568,568,568,568,568,568,568,568,568,568,568,568,568,568,568,568,568,568,568,568,568,568,568,568,568,568,568,568,568,568,568,568,568,568,568,568,568,568,568,569,552,464,381,238,180,156,138,129,117,110,100,91],"timestamp_mouse":[11,36,47,68,86,107,128,147,168,187,206,226,246,268,288,308,327,347,366,386,408,428,448,468,488,507,528,547,568,586,606,627,647,666,687,708,728,747,768,787,806,828,848,868,887,907,927,948,968,987,1007,1028,1046,1067,1088,1106,1127,1148,1166,1187,1207,1227],"xSR":741.5,"ySR":501.8,"xT1":424.9,"yT1":0,"xT2":1058.1,"yT2":0,"toosoon":0,"cond_shown":"Incongruent","ratio_trial":300,"L_num":4,"L_den":5,"R_num":6,"R_den":12,"correct_side":1,"subjID":"Gabriela Barrios Hernandez 19","gender":"1","school":"4","age":"9"},{"start_time":1552073719384,"click_time":1552073721992,"finger_time":1552073720693,"fix_duration":250,"trial":33,"RT":1309,"MT":1299,"sideResp":1,"stimulus":[],"xmouse":[767,767,767,767,767,767,767,767,767,767,767,767,767,767,767,767,767,767,767,767,767,767,767,767,767,767,767,767,767,767,775,782,785,785,785,785,785,785,785,785,785,785,785,785,785,785,785,785,785,785,785,785,785,785,785,785,785,785,785,785,785,785,785,781,771,754,744,737,731,729,729,729,729,729,729,729,729,729,733,757,783,814,858,913,969,1098,1147,1183,1209,1239,1242,1243,1244,1244,1244,1244,1243,1243,1243,1243,1243,1241,1236,1231,1219,1205,1187,1162,1131,1031,985,933,889,842,804,786,766,746,724,689,659,647,639,631,619,612,603,590,568,549,516],"ymouse":[539,539,539,539,539,539,539,539,539,539,539,539,539,539,539,539,539,539,539,539,539,539,539,539,539,539,539,539,539,539,539,537,536,536,536,536,536,536,536,536,536,536,536,536,536,536,536,536,536,536,536,536,536,536,536,536,536,536,536,536,536,536,534,531,518,479,459,440,430,426,426,426,426,426,426,426,426,426,425,422,419,416,409,401,388,334,302,265,231,172,159,147,136,128,119,115,113,113,113,113,112,112,114,116,122,129,137,146,154,183,191,198,204,213,216,216,216,215,211,197,167,143,116,86,45,32,22,16,16,17,32],"timestamp_mouse":[13,36,49,69,90,108,128,149,170,189,208,229,249,269,288,309,329,350,369,390,409,430,448,468,488,509,530,549,570,588,609,628,648,670,689,708,729,750,768,788,810,830,849,868,889,910,930,950,969,989,1009,1029,1048,1069,1089,1110,1129,1149,1170,1189,1209,1230,1249,1269,1289,1309,1328,1348,1369,1390,1410,1429,1449,1469,1490,1510,1529,1550,1568,1588,1608,1629,1649,1669,1688,1708,1729,1748,1768,1788,1809,1829,1849,1869,1890,1909,1929,1949,1970,1989,2010,2028,2048,2068,2090,2108,2129,2150,2169,2189,2208,2229,2248,2269,2289,2309,2328,2348,2369,2389,2410,2428,2448,2468,2489,2509,2529,2549,2568,2589,2608],"xSR":741.5,"ySR":501.8,"xT1":424.9,"yT1":0,"xT2":1058.1,"yT2":0,"toosoon":0,"cond_shown":"Congruent","ratio_trial":100,"L_num":3,"L_den":6,"R_num":2,"R_den":5,"correct_side":1,"subjID":"Gabriela Barrios Hernandez 19","gender":"1","school":"4","age":"9"},{"start_time":1552073726997,"click_time":1552073729033,"finger_time":1552073728652,"fix_duration":1322.1472315257174,"trial":34,"RT":1655,"MT":381,"sideResp":2,"stimulus":[],"xmouse":[787,787,787,787,787,787,787,787,787,787,787,787,787,787,787,787,787,787,787,787,787,787,787,787,787,787,787,787,787,787,787,787,787,787,787,787,787,787,787,787,787,787,787,787,787,787,787,787,787,787,787,787,787,787,787,787,787,787,787,787,787,787,787,787,787,787,787,787,787,787,787,787,787,787,787,787,787,787,787,787,787,827,857,909,1021,1043,1057,1065,1073,1097,1109,1120,1129,1135,1139,1139,1139,1133,1125,1115,1110,1108],"ymouse":[555,555,555,555,555,555,555,555,555,555,555,555,555,555,555,555,555,555,555,555,555,555,555,555,555,555,555,555,555,555,555,555,555,555,555,555,555,555,555,555,555,555,555,555,555,555,555,555,555,555,555,555,555,555,555,555,555,555,555,555,555,555,555,555,555,555,555,555,555,555,555,555,555,555,555,555,555,555,555,555,555,510,474,417,318,299,288,279,271,251,242,235,228,223,218,210,203,190,172,130,109,93],"timestamp_mouse":[15,46,57,77,96,115,137,157,175,197,216,237,256,277,295,317,337,355,376,396,417,437,457,476,496,516,537,557,577,595,617,636,655,675,695,717,737,755,775,796,817,837,857,876,895,916,937,957,977,996,1016,1036,1056,1077,1095,1116,1136,1155,1176,1197,1216,1235,1257,1276,1295,1316,1337,1357,1377,1396,1415,1436,1456,1476,1496,1515,1536,1557,1577,1596,1615,1635,1655,1675,1696,1715,1735,1757,1776,1797,1816,1836,1855,1877,1896,1915,1936,1956,1975,1996,2015,2036],"xSR":741.5,"ySR":501.8,"xT1":424.9,"yT1":0,"xT2":1058.1,"yT2":0,"toosoon":0,"cond_shown":"Congruent","ratio_trial":300,"L_num":1,"L_den":3,"R_num":19,"R_den":30,"correct_side":2,"subjID":"Gabriela Barrios Hernandez 19","gender":"1","school":"4","age":"9"},{"start_time":1552073731811,"click_time":1552073733774,"finger_time":1552073733093,"fix_duration":435.17769641453384,"trial":35,"RT":1282,"MT":681,"sideResp":1,"stimulus":[],"xmouse":[779,779,779,779,779,779,779,779,779,779,779,779,779,779,779,779,779,779,779,779,779,779,779,779,779,779,779,779,779,779,779,779,779,779,779,779,779,779,779,779,779,779,779,779,779,779,779,779,779,779,779,779,779,779,779,779,779,779,779,779,779,788,809,828,846,862,863,864,864,864,864,864,864,864,864,864,864,864,864,859,769,687,657,655,648,647,648,659,668,649,598,587,576,559,551,540,535,525,518],"ymouse":[581,581,581,581,581,581,581,581,581,581,581,581,581,581,581,581,581,581,581,581,581,581,581,581,581,581,581,581,581,581,581,581,581,581,581,581,581,581,581,581,581,581,581,581,581,581,581,581,581,581,581,581,581,581,581,581,581,581,581,581,581,574,564,554,547,537,536,534,534,534,534,534,534,534,534,534,534,534,534,531,505,471,453,451,425,401,377,341,268,222,164,155,146,133,123,107,99,86,78],"timestamp_mouse":[20,29,45,62,83,103,122,143,163,181,201,223,243,262,283,301,322,341,363,383,401,422,443,463,482,503,522,543,562,583,602,622,642,663,683,702,722,742,763,783,803,822,842,861,883,903,922,942,962,982,1001,1021,1043,1063,1082,1103,1122,1143,1162,1182,1203,1222,1241,1262,1282,1301,1323,1342,1361,1383,1403,1423,1442,1463,1483,1501,1522,1543,1563,1582,1601,1621,1642,1662,1684,1701,1722,1742,1761,1782,1801,1822,1842,1861,1881,1902,1921,1942,1963],"xSR":741.5,"ySR":501.8,"xT1":424.9,"yT1":0,"xT2":1058.1,"yT2":0,"toosoon":0,"cond_shown":"Incongruent","ratio_trial":300,"L_num":3,"L_den":6,"R_num":4,"R_den":20,"correct_side":1,"subjID":"Gabriela Barrios Hernandez 19","gender":"1","school":"4","age":"9"},{"start_time":1552073735664,"click_time":1552073737433,"finger_time":1552073736832,"fix_duration":250,"trial":36,"RT":1168,"MT":601,"sideResp":2,"stimulus":[],"xmouse":[795,795,795,795,795,795,795,795,795,795,795,795,795,795,795,795,795,795,795,795,795,795,795,795,795,795,795,795,795,795,795,795,795,795,795,795,795,795,795,795,795,795,795,795,795,795,795,795,795,795,795,795,795,795,795,802,813,837,889,907,920,934,967,982,995,1007,1018,1031,1038,1041,1044,1045,1045,1045,1045,1046,1047,1048,1048,1048,1053,1061,1078,1081,1083,1086,1088,1095,1098],"ymouse":[593,593,593,593,593,593,593,593,593,593,593,593,593,593,593,593,593,593,593,593,593,593,593,593,593,593,593,593,593,593,593,593,593,593,593,593,593,593,593,593,593,593,593,593,593,593,593,593,593,593,593,593,593,593,593,589,583,565,526,508,489,465,409,387,368,351,337,312,291,277,260,240,189,169,156,147,145,143,143,143,138,134,123,120,118,114,111,102,99],"timestamp_mouse":[12,34,49,70,90,109,130,148,169,188,208,228,250,270,290,309,329,349,370,390,409,429,449,469,490,510,529,548,569,590,608,630,649,669,688,710,730,749,769,790,810,829,848,870,890,910,928,949,969,990,1009,1029,1050,1068,1090,1109,1129,1149,1168,1190,1209,1228,1250,1269,1289,1308,1328,1349,1369,1389,1409,1428,1449,1469,1489,1509,1529,1549,1570,1588,1609,1630,1649,1669,1689,1710,1729,1749,1769],"xSR":741.5,"ySR":501.8,"xT1":424.9,"yT1":0,"xT2":1058.1,"yT2":0,"toosoon":0,"cond_shown":"Incongruent","ratio_trial":300,"L_num":13,"L_den":26,"R_num":12,"R_den":15,"correct_side":2,"subjID":"Gabriela Barrios Hernandez 19","gender":"1","school":"4","age":"9"},{"start_time":1552073745986,"click_time":1552073747033,"finger_time":1552073746892,"fix_duration":811.1700786448913,"trial":37,"RT":906,"MT":141,"sideResp":2,"stimulus":[],"xmouse":[774,774,774,774,774,774,774,774,774,774,774,774,774,774,774,774,774,774,774,774,774,774,774,774,774,774,774,774,774,774,774,774,774,774,774,774,774,774,774,774,774,779,798,815,835,854,871,921,953,984,1013,1028,1065],"ymouse":[573,573,573,573,573,573,573,573,573,573,573,573,573,573,573,573,573,573,573,573,573,573,573,573,573,573,573,573,573,573,573,573,573,573,573,573,573,573,573,573,573,568,546,529,513,497,482,404,336,263,194,149,63],"timestamp_mouse":[13,34,47,66,87,108,127,147,167,187,207,228,247,268,288,308,326,347,367,388,406,428,447,468,487,508,527,547,568,588,607,627,646,668,687,708,728,747,768,788,807,827,847,867,887,906,927,947,967,986,1007,1027,1047],"xSR":741.5,"ySR":501.8,"xT1":424.9,"yT1":0,"xT2":1058.1,"yT2":0,"toosoon":0,"cond_shown":"Incongruent","ratio_trial":100,"L_num":9,"L_den":18,"R_num":6,"R_den":10,"correct_side":2,"subjID":"Gabriela Barrios Hernandez 19","gender":"1","school":"4","age":"9"},{"start_time":1552073753621,"click_time":1552073755273,"finger_time":1552073754653,"fix_duration":326.7620147175352,"trial":38,"RT":1032,"MT":620,"sideResp":2,"stimulus":[],"xmouse":[790,790,790,790,790,790,790,790,790,787,787,787,787,787,787,787,787,787,787,787,787,787,787,787,787,787,787,787,787,787,787,787,787,787,787,787,787,787,787,787,787,787,787,787,787,787,787,787,787,787,788,847,868,869,870,870,870,870,870,870,870,870,870,870,870,870,870,874,914,978,1041,1104,1145,1146,1146,1149,1152,1152,1155,1162,1167,1167,1158],"ymouse":[562,562,562,562,562,562,562,562,562,562,562,562,562,562,562,562,562,562,562,562,562,562,562,562,562,562,562,562,562,562,562,562,562,562,562,562,562,562,562,562,562,562,562,562,562,562,562,562,562,562,561,545,540,540,539,539,539,539,539,539,539,539,539,539,539,539,539,535,494,428,358,294,251,250,250,241,198,173,150,130,109,88,74],"timestamp_mouse":[11,39,53,71,91,111,132,152,171,191,213,233,251,273,291,312,331,351,373,393,413,433,451,471,493,513,532,552,571,593,613,631,652,672,692,713,732,753,772,791,813,832,852,873,891,911,931,952,972,992,1012,1032,1051,1071,1092,1113,1132,1153,1171,1193,1212,1232,1252,1273,1292,1312,1331,1351,1371,1392,1413,1432,1452,1473,1493,1513,1532,1552,1572,1593,1613,1632,1652],"xSR":741.5,"ySR":501.8,"xT1":424.9,"yT1":0,"xT2":1058.1,"yT2":0,"toosoon":0,"cond_shown":"Incongruent","ratio_trial":100,"L_num":12,"L_den":24,"R_num":9,"R_den":15,"correct_side":2,"subjID":"Gabriela Barrios Hernandez 19","gender":"1","school":"4","age":"9"},{"start_time":1552073757538,"click_time":1552073759032,"finger_time":1552073758153,"fix_duration":963.2320584375061,"trial":39,"RT":615,"MT":879,"sideResp":1,"stimulus":[],"xmouse":[825,825,825,825,825,825,825,825,825,825,825,825,825,825,825,825,825,825,819,816,806,798,794,785,782,778,778,778,778,778,768,761,759,758,757,754,751,748,744,739,735,732,732,732,732,732,732,732,732,732,730,720,706,667,636,608,574,572,572,572,571,562,543,528,517,510,504,498,493,484,477,462,456,446,440],"ymouse":[554,554,554,554,554,554,554,554,554,554,554,554,554,554,554,554,554,554,551,550,545,540,536,521,515,507,507,507,507,507,491,465,452,436,429,415,408,402,395,389,384,381,381,381,381,381,379,379,378,378,370,356,349,338,332,328,323,323,323,323,323,310,295,287,280,270,256,238,220,199,176,144,129,107,91],"timestamp_mouse":[19,40,55,74,94,114,135,156,175,194,215,234,256,276,295,316,335,354,374,394,416,436,455,476,495,515,536,556,575,596,615,634,656,675,696,717,734,755,774,794,815,835,855,875,894,914,935,954,975,994,1014,1034,1055,1075,1095,1114,1136,1154,1175,1196,1215,1234,1255,1275,1295,1316,1335,1355,1375,1396,1415,1435,1455,1475,1494],"xSR":741.5,"ySR":501.8,"xT1":424.9,"yT1":0,"xT2":1058.1,"yT2":0,"toosoon":0,"cond_shown":"Congruent","ratio_trial":100,"L_num":8,"L_den":16,"R_num":2,"R_den":5,"correct_side":1,"subjID":"Gabriela Barrios Hernandez 19","gender":"1","school":"4","age":"9"},{"start_time":1552073762116,"click_time":1552073763833,"finger_time":1552073763433,"fix_duration":1460.0221066862284,"trial":40,"RT":1317,"MT":400,"sideResp":1,"stimulus":[],"xmouse":[776,776,776,776,776,776,776,776,776,776,776,776,776,776,776,776,776,776,776,776,775,775,774,774,774,774,774,774,774,774,774,774,774,774,774,774,774,774,774,774,774,774,774,774,774,774,774,774,774,774,774,774,774,774,774,774,774,774,774,774,774,774,774,774,760,710,658,604,593,588,585,583,582,582,579,578,575,570,566,564,562,558,541,527,515,508],"ymouse":[587,587,587,587,587,587,587,587,587,587,587,587,587,587,587,587,587,587,583,575,560,554,549,549,549,549,549,549,549,549,549,549,549,549,549,549,549,549,549,549,549,549,549,549,549,549,549,549,549,549,549,549,549,549,549,549,549,549,549,549,549,549,549,549,516,420,349,295,282,271,263,257,247,203,187,175,167,150,145,141,138,134,119,108,101,95],"timestamp_mouse":[16,40,57,77,97,116,137,156,178,197,217,238,256,277,298,318,337,356,377,396,416,438,456,477,497,517,538,556,577,597,618,636,657,676,698,718,738,756,778,796,817,837,857,877,897,916,936,957,977,998,1016,1037,1058,1078,1097,1117,1138,1157,1177,1196,1217,1237,1257,1277,1297,1317,1337,1357,1376,1396,1416,1436,1457,1478,1497,1517,1536,1557,1576,1596,1616,1637,1657,1678,1696,1717],"xSR":741.5,"ySR":501.8,"xT1":424.9,"yT1":0,"xT2":1058.1,"yT2":0,"toosoon":0,"cond_shown":"Congruent","ratio_trial":100,"L_num":11,"L_den":22,"R_num":4,"R_den":10,"correct_side":1,"subjID":"Gabriela Barrios Hernandez 19","gender":"1","school":"4","age":"9"},{"start_time":1552073765863,"click_time":1552073768113,"finger_time":1552073767354,"fix_duration":947.685597199504,"trial":41,"RT":1491,"MT":759,"sideResp":1,"stimulus":[],"xmouse":[792,792,792,792,792,792,792,792,792,792,792,792,792,792,792,792,792,792,792,792,792,792,792,792,792,792,792,792,792,792,792,792,792,792,792,792,792,792,792,792,792,792,792,792,792,792,792,792,792,792,792,792,792,792,792,792,792,792,792,792,792,792,792,792,792,792,792,792,792,792,792,792,792,788,740,671,663,663,663,663,663,663,663,663,663,663,663,663,663,663,663,663,663,661,660,662,670,671,672,672,672,672,670,669,668,666,666,665,665,665,655,522,439],"ymouse":[555,555,555,555,555,555,555,555,555,555,555,555,555,555,555,555,555,555,555,555,555,555,555,555,555,555,555,555,555,555,555,555,555,555,555,555,555,555,555,555,555,555,555,555,555,555,555,555,555,555,555,555,555,555,555,555,555,555,555,555,555,555,555,555,555,555,555,555,555,555,555,555,555,542,456,336,323,323,323,323,323,323,323,323,323,323,323,323,323,323,323,323,323,320,314,312,302,298,289,276,247,238,231,221,218,212,210,210,210,209,203,130,82],"timestamp_mouse":[14,41,49,71,91,109,130,151,170,189,211,230,251,269,289,311,331,351,370,391,410,431,450,470,490,509,530,550,571,591,610,630,651,671,691,709,730,751,770,791,810,829,850,871,891,910,931,950,971,990,1009,1029,1051,1070,1091,1111,1129,1149,1170,1190,1211,1230,1251,1270,1291,1311,1331,1351,1370,1390,1411,1429,1450,1469,1490,1512,1530,1550,1570,1591,1610,1629,1650,1669,1689,1709,1729,1750,1770,1789,1811,1829,1850,1870,1891,1910,1930,1951,1970,1990,2011,2030,2049,2070,2090,2111,2130,2149,2171,2191,2210,2229,2250],"xSR":741.5,"ySR":501.8,"xT1":424.9,"yT1":0,"xT2":1058.1,"yT2":0,"toosoon":0,"cond_shown":"Congruent","ratio_trial":100,"L_num":6,"L_den":20,"R_num":5,"R_den":25,"correct_side":1,"subjID":"Gabriela Barrios Hernandez 19","gender":"1","school":"4","age":"9"},{"start_time":1552073770386,"click_time":1552073773714,"finger_time":1552073770553,"fix_duration":1090.7962713806028,"trial":42,"RT":167,"MT":3161,"sideResp":1,"stimulus":[],"xmouse":[807,807,807,807,807,808,808,831,875,946,1054,1104,1145,1169,1181,1183,1183,1183,1183,1183,1183,1183,1183,1183,1183,1183,1183,1183,1183,1183,1183,1183,1183,1183,1183,1160,1123,1081,1051,1028,1008,1001,992,975,954,902,883,864,848,839,837,837,837,835,831,821,812,806,804,804,804,804,804,804,804,804,804,804,804,804,804,804,804,804,804,804,804,804,804,804,804,804,804,804,804,804,804,804,804,804,804,804,804,804,804,804,804,804,804,804,804,804,804,804,804,804,804,804,804,804,804,804,804,804,804,804,804,804,804,804,804,804,804,804,804,804,804,804,804,804,804,804,804,804,804,804,804,804,804,804,804,804,804,804,804,804,804,804,804,804,804,804,804,804,804,804,804,804,804,804,804,804,804,804,790,675,508],"ymouse":[537,537,537,537,537,537,537,523,489,450,422,414,409,407,405,404,404,404,404,404,404,404,404,404,404,404,404,404,404,404,404,404,404,404,404,413,436,467,494,518,547,555,564,574,579,581,574,565,555,547,545,545,545,545,545,551,554,556,557,557,557,557,557,557,557,557,557,557,557,557,557,557,557,557,557,557,557,557,557,557,557,557,557,557,557,557,557,557,557,557,557,557,557,557,557,557,557,557,557,557,557,557,557,557,557,557,557,557,557,557,557,557,557,557,557,557,557,557,557,557,557,557,557,557,557,557,557,557,557,557,557,557,557,557,557,557,557,557,557,557,557,557,557,557,557,557,557,557,557,557,557,557,557,557,557,557,557,557,557,557,557,557,557,555,500,253,72],"timestamp_mouse":[13,39,47,66,88,107,127,147,167,186,207,226,246,266,287,307,327,347,367,386,407,428,447,467,488,506,526,547,567,588,606,627,647,667,688,706,727,747,767,787,807,826,847,867,887,907,927,946,968,987,1006,1028,1047,1067,1087,1107,1126,1148,1167,1188,1207,1227,1247,1267,1287,1307,1326,1347,1368,1388,1406,1428,1448,1468,1486,1506,1527,1547,1567,1588,1607,1628,1647,1667,1688,1706,1727,1747,1766,1788,1806,1827,1848,1868,1887,1907,1928,1946,1967,1987,2007,2026,2047,2068,2088,2106,2128,2147,2166,2187,2207,2227,2246,2268,2287,2306,2328,2347,2367,2387,2407,2427,2448,2468,2488,2507,2527,2548,2568,2586,2607,2628,2648,2667,2687,2707,2726,2747,2767,2788,2807,2828,2846,2868,2888,2907,2927,2946,2967,2986,3007,3026,3046,3067,3088,3107,3127,3146,3168,3187,3207,3227,3247,3266,3287,3307,3328],"xSR":741.5,"ySR":501.8,"xT1":424.9,"yT1":0,"xT2":1058.1,"yT2":0,"toosoon":0,"cond_shown":"Congruent","ratio_trial":300,"L_num":11,"L_den":22,"R_num":4,"R_den":20,"correct_side":1,"subjID":"Gabriela Barrios Hernandez 19","gender":"1","school":"4","age":"9"},{"start_time":1552073777267,"click_time":1552073787193,"finger_time":1552073786772,"fix_duration":933.85693678391,"trial":43,"RT":9505,"MT":421,"sideResp":1,"stimulus":[],"xmouse":[802,802,802,802,802,802,802,802,802,802,802,802,802,802,802,802,802,802,802,802,802,802,802,802,802,802,802,802,802,802,802,802,802,802,802,802,802,802,802,802,802,802,802,802,802,802,802,802,802,802,802,802,802,802,802,802,802,802,802,802,802,802,802,802,802,802,802,802,802,802,802,802,802,802,802,802,802,802,802,802,802,802,802,802,802,802,802,802,802,802,802,802,802,802,802,802,802,802,802,802,802,802,802,802,802,802,802,802,802,802,802,802,802,802,802,802,802,802,802,802,802,802,802,802,802,802,802,802,802,802,802,802,802,802,802,802,802,802,802,802,802,802,802,802,802,802,802,802,802,802,802,802,802,802,802,802,802,802,802,802,802,802,802,802,802,802,802,802,802,802,802,802,802,802,802,802,802,802,802,802,802,802,802,802,802,802,802,802,802,802,802,802,802,802,802,802,802,802,802,802,802,802,802,802,802,802,802,802,802,802,802,802,802,802,802,802,802,802,802,802,802,802,802,802,802,802,802,802,802,802,802,802,802,802,802,802,802,802,802,802,802,802,802,802,802,802,802,802,802,802,802,802,802,802,802,802,802,802,802,802,802,802,802,802,802,802,802,802,802,802,802,802,802,802,802,802,802,802,802,802,802,802,802,802,802,802,802,802,802,802,802,802,802,802,802,802,802,802,802,802,802,802,802,802,802,802,802,802,802,802,802,802,802,802,802,802,802,802,802,802,802,802,802,802,802,802,802,802,802,802,802,802,802,802,802,802,802,802,802,802,802,802,802,802,802,802,802,802,802,802,802,802,802,802,802,802,802,802,802,802,802,802,802,802,802,802,802,802,802,802,802,802,802,802,802,802,802,802,802,802,802,802,802,802,802,802,802,802,802,802,802,802,802,802,802,802,802,802,802,802,802,802,802,802,802,802,802,802,802,802,802,802,802,802,802,802,802,802,802,802,802,802,802,802,802,802,802,802,802,802,802,802,802,802,802,802,802,802,802,802,802,802,802,802,802,802,802,802,802,802,802,802,802,802,802,798,797,797,797,797,797,797,797,797,797,797,797,797,797,797,797,797,797,797,788,756,709,651,568,568,568,568,568,568,568,568,568,568,568,568,568,568,568,406,414,423,431],"ymouse":[560,560,560,560,560,560,560,560,560,560,560,560,560,560,560,560,560,560,560,560,560,560,560,560,560,560,560,560,560,560,560,560,560,560,560,560,560,560,560,560,560,560,560,560,560,560,560,560,560,560,560,560,560,560,560,560,560,560,560,560,560,560,560,560,560,560,560,560,560,560,560,560,560,560,560,560,560,560,560,560,560,560,560,560,560,560,560,560,560,560,560,560,560,560,560,560,560,560,560,560,560,560,560,560,560,560,560,560,560,560,560,560,560,560,560,560,560,560,560,560,560,560,560,560,560,560,560,560,560,560,560,560,560,560,560,560,560,560,560,560,560,560,560,560,560,560,560,560,560,560,560,560,560,560,560,560,560,560,560,560,560,560,560,560,560,560,560,560,560,560,560,560,560,560,560,560,560,560,560,560,560,560,560,560,560,560,560,560,560,560,560,560,560,560,560,560,560,560,560,560,560,560,560,560,560,560,560,560,560,560,560,560,560,560,560,560,560,560,560,560,560,560,560,560,560,560,560,560,560,560,560,560,560,560,560,560,560,560,560,560,560,560,560,560,560,560,560,560,560,560,560,560,560,560,560,560,560,560,560,560,560,560,560,560,560,560,560,560,560,560,560,560,560,560,560,560,560,560,560,560,560,560,560,560,560,560,560,560,560,560,560,560,560,560,560,560,560,560,560,560,560,560,560,560,560,560,560,560,560,560,560,560,560,560,560,560,560,560,560,560,560,560,560,560,560,560,560,560,560,560,560,560,560,560,560,560,560,560,560,560,560,560,560,560,560,560,560,560,560,560,560,560,560,560,560,560,560,560,560,560,560,560,560,560,560,560,560,560,560,560,560,560,560,560,560,560,560,560,560,560,560,560,560,560,560,560,560,560,560,560,560,560,560,560,560,560,560,560,560,560,560,560,560,560,560,560,560,560,560,560,560,560,560,560,560,560,560,560,560,560,560,560,560,560,560,560,560,560,560,560,560,560,560,560,560,560,560,560,560,560,560,560,560,560,560,560,560,560,560,560,560,560,560,560,560,534,529,529,529,529,529,529,529,529,529,529,529,529,529,529,529,529,529,529,513,436,340,229,64,64,64,64,64,64,64,64,64,64,64,64,64,64,64,8,17,24,32],"timestamp_mouse":[19,27,45,66,86,106,127,146,167,187,206,227,245,267,285,305,326,346,365,387,407,426,447,466,486,506,526,547,567,586,606,626,646,666,687,706,726,747,765,787,806,825,847,865,885,907,927,946,966,987,1006,1027,1046,1067,1085,1107,1126,1146,1166,1185,1207,1225,1247,1266,1287,1307,1326,1347,1367,1386,1406,1426,1446,1466,1486,1507,1526,1547,1566,1585,1607,1627,1647,1666,1686,1707,1725,1747,1767,1787,1807,1826,1846,1866,1886,1905,1925,1947,1965,1986,2007,2026,2047,2066,2086,2107,2126,2145,2167,2186,2206,2225,2245,2265,2286,2307,2327,2347,2367,2386,2406,2426,2446,2466,2487,2506,2526,2547,2567,2586,2606,2626,2645,2665,2686,2707,2727,2746,2766,2786,2805,2825,2846,2867,2885,2906,2927,2945,2966,2987,3007,3027,3047,3066,3087,3107,3127,3147,3167,3186,3206,3227,3245,3267,3286,3307,3327,3346,3366,3386,3406,3426,3446,3465,3486,3505,3527,3546,3567,3587,3607,3627,3645,3667,3687,3707,3725,3745,3766,3786,3807,3826,3846,3867,3885,3907,3926,3946,3965,3986,4007,4026,4046,4066,4087,4107,4127,4146,4167,4186,4206,4227,4246,4267,4287,4305,4326,4345,4367,4387,4406,4427,4446,4465,4487,4507,4527,4546,4566,4587,4607,4625,4646,4666,4685,4706,4727,4746,4766,4787,4806,4827,4846,4866,4887,4906,4927,4946,4967,4987,5006,5025,5045,5065,5087,5107,5127,5146,5167,5185,5206,5227,5245,5266,5287,5307,5326,5346,5365,5387,5406,5426,5446,5466,5487,5505,5527,5546,5566,5585,5607,5627,5646,5667,5685,5705,5726,5746,5765,5787,5806,5827,5846,5866,5887,5907,5926,5946,5966,5986,6005,6026,6046,6065,6087,6105,6125,6147,6165,6185,6207,6227,6246,6266,6285,6307,6326,6346,6366,6385,6406,6426,6446,6467,6485,6506,6527,6546,6567,6585,6606,6625,6647,6666,6686,6706,6725,6745,6767,6786,6807,6827,6846,6865,6886,6906,6927,6947,6966,6985,7006,7026,7047,7067,7087,7107,7125,7147,7166,7185,7206,7227,7247,7265,7285,7307,7327,7347,7366,7387,7407,7426,7447,7466,7487,7506,7526,7546,7566,7586,7605,7625,7647,7667,7687,7706,7725,7745,7767,7787,7807,7826,7846,7866,7886,7906,7926,7946,7966,7986,8006,8026,8046,8066,8086,8107,8127,8145,8167,8186,8206,8226,8245,8265,8286,8306,8326,8345,8366,8387,8407,8426,8446,8466,8486,8507,8527,8547,8566,8586,8606,8626,8647,8666,8687,8706,8726,8745,8767,8786,8806,8826,8845,8867,8885,8907,8927,8945,8966,8987,9006,9025,9045,9067,9086,9106,9127,9146,9166,9186,9206,9226,9245,9267,9287,9306,9325,9346,9367,9386,9406,9426,9446,9467,9487,9505,9526,9546,9566,9587,9606,9626,9646,9666,9686,9706,9726,9746,9766,9786,9807,9827,9847,9866,9886,9906,9926],"xSR":741.5,"ySR":501.8,"xT1":424.9,"yT1":0,"xT2":1058.1,"yT2":0,"toosoon":0,"cond_shown":"Incongruent","ratio_trial":300,"L_num":1,"L_den":2,"R_num":3,"R_den":15,"correct_side":1,"subjID":"Gabriela Barrios Hernandez 19","gender":"1","school":"4","age":"9"},{"start_time":1552073789412,"click_time":1552073790933,"finger_time":1552073790454,"fix_duration":1377.1689217572014,"trial":44,"RT":1042,"MT":479,"sideResp":1,"stimulus":[],"xmouse":[751,751,751,751,751,751,751,751,751,751,751,751,751,751,751,751,751,751,751,751,751,751,751,751,751,751,751,751,751,751,751,751,751,751,751,751,751,751,751,751,751,751,751,751,751,751,751,751,751,751,751,751,723,666,581,480,293,285,281,280,280,281,281,282,283,284,286,286,286,286,286,286,342,361,387,416,455],"ymouse":[573,573,573,573,573,573,573,573,573,573,573,573,573,573,573,573,573,573,573,573,573,573,573,573,573,573,573,573,573,573,573,573,573,573,573,573,573,573,573,573,573,573,573,573,573,573,573,573,573,573,573,573,520,424,320,216,53,45,35,30,28,18,14,10,5,2,0,0,0,0,0,0,2,12,24,40,63],"timestamp_mouse":[11,20,41,60,81,101,120,141,160,182,202,220,242,260,280,302,322,343,362,381,402,421,441,460,480,502,521,542,561,581,601,620,641,661,682,701,721,741,761,780,801,821,840,860,881,901,920,940,962,981,1000,1021,1042,1066,1082,1102,1120,1143,1162,1181,1202,1224,1244,1262,1282,1302,1321,1342,1361,1382,1402,1421,1442,1461,1482,1501,1521],"xSR":741.5,"ySR":501.8,"xT1":424.9,"yT1":0,"xT2":1058.1,"yT2":0,"toosoon":0,"cond_shown":"Congruent","ratio_trial":300,"L_num":11,"L_den":22,"R_num":1,"R_den":5,"correct_side":1,"subjID":"Gabriela Barrios Hernandez 19","gender":"1","school":"4","age":"9"},{"start_time":1552073796044,"click_time":1552073797253,"finger_time":1552073796853,"fix_duration":250,"trial":45,"RT":809,"MT":400,"sideResp":2,"stimulus":[],"xmouse":[788,788,788,788,788,788,788,788,788,788,788,788,788,788,788,788,788,788,788,788,788,788,788,788,788,788,788,788,788,788,788,788,788,788,788,788,788,788,788,793,861,891,906,921,932,982,1000,1013,1020,1024,1036,1038,1039,1039,1039,1040,1040,1040,1047,1058,1098],"ymouse":[570,570,570,570,570,570,570,570,570,570,570,570,570,570,570,570,570,570,570,570,570,570,570,570,570,570,570,570,570,570,570,570,570,570,570,570,570,570,570,546,449,416,396,376,359,277,251,230,216,203,174,167,162,160,160,160,160,155,146,131,78],"timestamp_mouse":[14,29,49,69,89,109,129,149,169,189,209,229,249,269,289,310,329,350,369,390,410,429,449,470,489,510,528,548,570,590,610,629,649,668,690,710,729,750,768,788,809,829,848,869,888,908,930,950,970,989,1009,1028,1049,1070,1089,1109,1128,1148,1168,1188,1209],"xSR":741.5,"ySR":501.8,"xT1":424.9,"yT1":0,"xT2":1058.1,"yT2":0,"toosoon":0,"cond_shown":"Incongruent","ratio_trial":300,"L_num":13,"L_den":26,"R_num":12,"R_den":15,"correct_side":2,"subjID":"Gabriela Barrios Hernandez 19","gender":"1","school":"4","age":"9"},{"start_time":1552073798516,"click_time":1552073801074,"finger_time":1552073800833,"fix_duration":542.1459276592836,"trial":46,"RT":2317,"MT":241,"sideResp":1,"stimulus":[],"xmouse":[760,760,760,760,760,760,760,760,760,760,760,760,760,760,760,760,760,760,760,760,760,760,760,760,760,760,760,760,760,760,760,760,760,760,760,760,760,760,760,760,760,760,760,760,760,760,760,760,760,760,760,760,760,760,760,760,760,760,760,760,760,760,760,760,760,760,760,760,760,760,760,760,760,760,760,760,760,760,760,760,760,760,760,760,760,760,760,760,760,760,760,760,760,760,760,760,760,760,760,760,760,760,760,760,760,760,760,760,760,760,760,760,760,760,760,759,717,639,601,580,565,558,557,554,549,535,528,511],"ymouse":[558,558,558,558,558,558,558,558,558,558,558,558,559,559,559,559,559,559,559,559,559,559,559,559,559,559,559,559,559,559,559,559,559,559,559,559,559,559,559,559,559,559,559,559,559,559,559,559,559,559,559,559,559,559,559,559,559,559,559,559,559,559,559,559,559,559,559,559,559,559,559,559,559,559,559,559,559,559,559,559,559,559,559,559,559,559,559,559,559,559,559,559,559,559,559,559,559,559,559,559,559,559,559,559,559,559,559,559,559,559,559,559,559,559,550,499,377,239,195,173,160,154,152,148,140,115,99,59],"timestamp_mouse":[17,37,57,77,98,116,138,157,177,197,217,237,257,277,297,317,337,358,377,396,416,436,456,476,496,516,536,557,577,597,618,637,657,678,697,717,738,757,778,797,817,837,857,877,897,917,937,957,977,997,1017,1037,1057,1078,1097,1118,1137,1157,1176,1196,1216,1236,1256,1277,1297,1316,1336,1356,1376,1396,1416,1437,1456,1476,1496,1517,1538,1558,1578,1596,1617,1636,1658,1677,1697,1717,1737,1757,1777,1797,1817,1837,1857,1877,1897,1917,1937,1957,1977,1997,2017,2037,2057,2078,2098,2117,2136,2157,2176,2196,2216,2236,2258,2278,2297,2317,2337,2357,2378,2397,2418,2438,2457,2477,2497,2516,2538,2557],"xSR":741.5,"ySR":501.8,"xT1":424.9,"yT1":0,"xT2":1058.1,"yT2":0,"toosoon":0,"cond_shown":"Congruent","ratio_trial":100,"L_num":15,"L_den":25,"R_num":13,"R_den":26,"correct_side":1,"subjID":"Gabriela Barrios Hernandez 19","gender":"1","school":"4","age":"9"},{"start_time":1552073802568,"click_time":1552073804694,"finger_time":1552073803572,"fix_duration":513.7676809070905,"trial":47,"RT":1004,"MT":1122,"sideResp":2,"stimulus":[],"xmouse":[782,782,782,782,782,782,782,782,782,782,782,782,782,782,782,782,782,782,782,782,782,782,782,782,782,782,782,782,782,782,782,782,782,782,782,782,782,782,782,782,782,782,782,782,782,781,781,786,807,839,943,1061,1156,1253,1428,1495,1525,1525,1525,1525,1525,1525,1525,1525,1525,1525,1525,1525,1525,1525,1525,1525,1525,1525,1525,1525,1525,1525,1525,1525,1525,1525,1525,1525,1525,1525,1525,1525,1525,1525,1525,1525,1525,1269,1256,1244,1242,1239,1235,1231,1208,1200,1193,1188,1180,1163,1153],"ymouse":[554,554,554,554,554,554,554,554,554,554,554,554,554,554,554,554,554,554,554,554,554,554,554,554,554,554,554,554,554,554,554,554,554,554,554,554,554,554,554,554,554,554,554,554,554,554,554,544,531,516,474,422,370,308,159,74,31,31,31,31,31,31,31,31,31,31,31,31,31,31,31,31,31,31,31,31,31,31,31,31,31,31,31,31,31,31,31,31,31,31,31,31,31,4,12,26,33,42,54,65,99,104,106,106,106,95,87],"timestamp_mouse":[14,37,46,65,85,104,124,145,165,185,204,225,245,266,286,305,324,346,364,384,404,426,446,465,485,505,526,546,566,585,605,625,646,665,685,705,725,745,765,784,804,824,845,864,886,905,924,945,966,984,1004,1026,1045,1065,1086,1104,1124,1144,1165,1187,1204,1226,1244,1265,1286,1305,1325,1345,1365,1384,1406,1426,1446,1465,1486,1506,1526,1546,1565,1585,1606,1626,1645,1666,1686,1704,1725,1745,1765,1786,1804,1824,1844,1865,1885,1904,1924,1946,1966,1986,2005,2025,2046,2065,2085,2105,2126],"xSR":741.5,"ySR":501.8,"xT1":424.9,"yT1":0,"xT2":1058.1,"yT2":0,"toosoon":0,"cond_shown":"Congruent","ratio_trial":200,"L_num":13,"L_den":26,"R_num":14,"R_den":20,"correct_side":2,"subjID":"Gabriela Barrios Hernandez 19","gender":"1","school":"4","age":"9"},{"start_time":1552073805864,"click_time":1552073806753,"finger_time":1552073806634,"fix_duration":250,"trial":48,"RT":770,"MT":119,"sideResp":1,"stimulus":[],"xmouse":[780,780,780,780,780,780,780,780,780,780,780,780,780,780,780,780,780,780,780,780,780,780,780,780,780,780,780,780,780,780,780,780,780,780,780,780,780,764,721,659,555,524,502,496,496],"ymouse":[540,540,540,540,540,540,540,540,540,540,540,540,540,540,540,540,540,540,540,540,540,540,540,540,540,540,540,540,540,540,540,540,540,540,540,540,540,519,473,420,292,220,134,104,93],"timestamp_mouse":[14,36,50,69,90,110,129,150,170,189,208,229,248,270,289,309,329,349,368,390,409,429,450,468,488,509,529,550,569,590,610,629,648,668,689,710,728,749,770,790,809,829,850,870,889],"xSR":741.5,"ySR":501.8,"xT1":424.9,"yT1":0,"xT2":1058.1,"yT2":0,"toosoon":0,"cond_shown":"Incongruent","ratio_trial":100,"L_num":6,"L_den":10,"R_num":11,"R_den":22,"correct_side":1,"subjID":"Gabriela Barrios Hernandez 19","gender":"1","school":"4","age":"9"},{"start_time":1552073812708,"click_time":1552073813472,"finger_time":1552073813392,"fix_duration":1133.5328754084853,"trial":49,"RT":684,"MT":80,"sideResp":1,"stimulus":[],"xmouse":[800,800,800,800,800,800,800,800,800,800,800,800,800,800,800,800,800,800,800,800,800,800,800,800,800,800,800,800,800,800,800,800,800,798,717,651,578,528,517],"ymouse":[540,540,540,540,540,540,540,540,540,540,540,540,540,540,540,540,540,540,540,540,540,540,540,540,540,540,540,540,540,540,540,540,540,528,353,248,153,94,79],"timestamp_mouse":[13,35,46,64,86,106,125,145,165,184,206,224,245,265,286,305,324,345,365,386,405,424,445,465,484,504,524,545,566,586,605,624,645,666,684,704,724,744,764],"xSR":741.5,"ySR":501.8,"xT1":424.9,"yT1":0,"xT2":1058.1,"yT2":0,"toosoon":0,"cond_shown":"Congruent","ratio_trial":200,"L_num":12,"L_den":15,"R_num":6,"R_den":10,"correct_side":1,"subjID":"Gabriela Barrios Hernandez 19","gender":"1","school":"4","age":"9"},{"start_time":1552073819092,"click_time":1552073820793,"finger_time":1552073819612,"fix_duration":1077.412977556881,"trial":50,"RT":520,"MT":1181,"sideResp":2,"stimulus":[],"xmouse":[778,778,778,780,780,780,780,780,780,780,780,780,780,780,780,780,780,780,780,780,780,780,780,780,779,775,764,754,742,735,708,700,696,696,696,696,679,650,582,534,459,439,425,413,407,403,403,403,403,403,403,403,403,403,403,403,403,403,403,403,403,457,557,692,805,899,964,977,1007,1032,1084,1132,1137,1135,1118,1106,1097,1091,1089,1088,1087,1086,1086,1086,1086,1086],"ymouse":[541,537,537,532,531,531,531,531,531,531,531,531,531,531,531,531,531,531,531,531,531,531,531,531,523,512,477,449,411,389,338,329,324,323,323,323,305,280,225,187,140,126,114,105,100,97,97,97,96,96,96,96,96,96,96,96,96,96,96,96,93,116,158,198,233,252,259