[{"start_time":1552074625984,"click_time":1552074627258,"finger_time":1552074626878,"fix_duration":1282.343677157767,"trial":0,"RT":894,"MT":380,"sideResp":1,"stimulus":"img/250/randomdotsizeEA/R/9_Ratio_250_L_3_R_12.png","xmouse":[801,801,801,801,801,801,801,801,801,801,801,801,801,801,801,801,801,801,801,801,801,801,801,801,801,801,801,801,801,801,801,801,801,801,801,801,801,801,801,801,801,801,800,778,757,744,734,728,721,711,692,667,630,620,616,614,614,614,614,598,572,554,527,522],"ymouse":[535,535,535,535,535,535,535,535,535,535,535,535,535,535,535,535,535,535,535,535,535,535,535,535,535,535,535,535,535,535,535,535,535,535,535,535,535,535,535,535,535,535,532,489,442,408,386,364,343,321,288,250,197,181,171,169,168,168,168,149,119,99,73,68],"timestamp_mouse":[13,40,52,72,94,112,134,154,174,194,213,234,254,273,294,313,333,354,374,394,413,434,453,472,493,514,533,554,573,593,613,634,652,674,694,714,732,754,773,792,813,833,853,872,894,913,934,953,973,992,1013,1033,1053,1072,1093,1113,1132,1154,1173,1193,1214,1232,1252,1273],"xSR":741.5,"ySR":469.95,"xT1":424.9,"yT1":0,"xT2":1058.1,"yT2":0,"toosoon":0,"cond_shown":"randomdotsizeEA","ratio_trial":250,"smaller_num":"3","larger_num":"12","correct_side":2,"subjID":"GabrielaBarrios19","gender":"1","age":"9","school":"4","test":{"fix_dur":[250,1500],"timestim":300,"targets_dim":[100,100],"targets_relative_coord":[0.3,0.7],"size_stim":[880,420],"start_dim":[100,100],"size_start":[300,300],"size_fix":60,"samplingrate":20,"img_types":["equaldotsize","equaldotanddens","randomdotsizeEA"],"ratios":[250,500,750,900],"rep_conds":9,"nTrials":120,"trials_to_rest":500,"Trials_order":[110,70,41,13,43,119,0,62,101,11,71,76,107,100,117,53,51,68,38,37,56,102,113,77,24,58,6,22,5,67,42,73,33,30,63,105,15,79,91,20,97,103,26,92,49,99,109,10,16,88,89,64,50,69,29,114,81,17,28,104,4,60,85,78,95,59,55,94,47,14,82,106,57,52,34,75,90,40,2,18,35,80,23,87,32,9,84,21,93,54,3,36,46,27,25,108,19,8,61,112,1,48,116,12,74,83,111,115,7,86,45,72,39,118,98,65,66,44,31,96],"cond_shown":["randomdotsizeEA","equaldotanddens","randomdotsizeEA","equaldotanddens","equaldotanddens","randomdotsizeEA","equaldotsize","randomdotsizeEA","randomdotsizeEA","randomdotsizeEA","randomdotsizeEA","equaldotanddens","randomdotsizeEA","equaldotanddens","equaldotsize","randomdotsizeEA","equaldotsize","randomdotsizeEA","randomdotsizeEA","equaldotanddens","randomdotsizeEA","equaldotsize","randomdotsizeEA","randomdotsizeEA","equaldotsize","equaldotanddens","equaldotsize","equaldotanddens","randomdotsizeEA","equaldotanddens","equaldotsize","equaldotanddens","equaldotsize","equaldotsize","equaldotsize","equaldotsize","equaldotsize","equaldotanddens","equaldotanddens","randomdotsizeEA","equaldotanddens","equaldotanddens","randomdotsizeEA","randomdotsizeEA","equaldotanddens","equaldotsize","equaldotanddens","equaldotanddens","equaldotanddens","equaldotanddens","randomdotsizeEA","equaldotanddens","randomdotsizeEA","equaldotsize","randomdotsizeEA","equaldotsize","equaldotsize","randomdotsizeEA","equaldotanddens","randomdotsizeEA","equaldotanddens","equaldotsize","equaldotanddens","equaldotsize","randomdotsizeEA","randomdotsizeEA","equaldotanddens","equaldotanddens","randomdotsizeEA","randomdotsizeEA","equaldotanddens","equaldotanddens","equaldotsize","equaldotanddens","equaldotanddens","equaldotsize","equaldotsize","equaldotanddens","randomdotsizeEA","equaldotsize","randomdotsizeEA","randomdotsizeEA","randomdotsizeEA","equaldotsize","randomdotsizeEA","equaldotsize","equaldotsize","equaldotsize","equaldotsize","equaldotsize","equaldotsize","equaldotsize","equaldotanddens","equaldotsize","equaldotanddens","equaldotsize","equaldotanddens","randomdotsizeEA","equaldotanddens","equaldotanddens","equaldotanddens","equaldotsize","randomdotsizeEA","equaldotsize","randomdotsizeEA","randomdotsizeEA","equaldotsize","equaldotanddens","equaldotanddens","randomdotsizeEA","equaldotsize","equaldotsize","equaldotsize","equaldotanddens","randomdotsizeEA","randomdotsizeEA","equaldotsize","randomdotsizeEA","equaldotanddens","equaldotsize"],"ratio_trial":[250,900,500,250,750,900,250,250,500,900,900,500,900,500,900,500,500,750,250,250,750,750,500,500,250,900,750,900,500,750,750,250,900,750,500,900,500,750,750,750,250,750,250,750,250,500,250,900,500,500,500,500,250,900,500,750,900,500,500,750,500,250,250,750,900,900,750,900,900,250,900,900,900,500,900,500,750,500,250,750,900,750,900,500,750,900,250,900,900,750,500,250,900,500,250,250,750,750,250,500,250,250,750,250,250,900,500,750,750,250,900,250,500,900,250,500,750,750,750,250],"smaller_num":["3","18","9","2","3","18","3","4","6","18","18","9","9","5","18","9","9","9","1","3","12","15","2","5","3","18","18","18","5","15","3","2","9","15","9","18","5","3","3","3","3","3","3","15","2","2","6","18","2","1","5","4","2","18","2","3","9","9","5","3","2","2","2","3","18","18","6","18","9","5","9","18","18","2","18","6","6","4","2","15","18","6","18","2","9","18","2","18","18","6","4","4","9","5","4","2","6","3","3","2","5","2","3","3","1","18","1","3","9","1","18","2","1","18","5","5","15","15","3","6"],"larger_num":["12","20","18","8","4","20","12","16","12","20","20","18","10","10","20","18","18","12","4","12","16","20","4","10","12","20","24","20","10","20","4","8","10","20","18","20","10","4","4","4","12","4","12","20","8","4","24","20","4","2","10","8","8","20","4","4","10","18","10","4","4","8","8","4","20","20","8","20","10","20","10","20","20","4","20","12","8","8","8","20","20","8","20","4","12","20","8","20","20","8","8","16","10","10","16","8","8","4","12","4","20","8","4","12","4","20","2","4","12","4","20","8","2","20","20","10","20","20","4","24"],"correct_side":[2,2,2,1,1,2,2,2,1,2,2,2,2,2,2,2,1,2,2,2,2,2,1,1,2,1,1,2,1,1,1,1,2,2,1,1,1,1,1,1,1,1,2,2,1,1,1,1,2,2,1,1,1,1,1,1,2,1,2,2,1,1,2,2,1,1,1,1,1,2,1,2,1,1,1,1,1,1,2,2,1,2,1,1,2,2,1,1,2,2,1,1,2,1,1,1,1,2,1,1,2,1,1,1,2,1,2,1,2,2,1,1,2,2,2,2,1,2,1,2],"img_shown":["img/250/randomdotsizeEA/R/9_Ratio_250_L_3_R_12.png","img/900/equaldotanddens/R/13_Ratio_900_L_18_R_20.png","img/500/randomdotsizeEA/R/6_Ratio_500_L_9_R_18.png","img/250/equaldotanddens/L/1_Ratio_250_L_8_R_2.png","img/750/equaldotanddens/L/9_Ratio_750_L_4_R_3.png","img/900/randomdotsizeEA/R/11_Ratio_900_L_18_R_20.png","img/250/equaldotsize/R/11_Ratio_250_L_3_R_12.png","img/250/randomdotsizeEA/R/10_Ratio_250_L_4_R_16.png","img/500/randomdotsizeEA/L/13_Ratio_500_L_12_R_6.png","img/900/randomdotsizeEA/R/14_Ratio_900_L_18_R_20.png","img/900/randomdotsizeEA/R/14_Ratio_900_L_18_R_20.png","img/500/equaldotanddens/R/6_Ratio_500_L_9_R_18.png","img/900/randomdotsizeEA/R/3_Ratio_900_L_9_R_10.png","img/500/equaldotanddens/R/14_Ratio_500_L_5_R_10.png","img/900/equaldotsize/R/14_Ratio_900_L_18_R_20.png","img/500/randomdotsizeEA/R/6_Ratio_500_L_9_R_18.png","img/500/equaldotsize/L/4_Ratio_500_L_18_R_9.png","img/750/randomdotsizeEA/R/15_Ratio_750_L_9_R_12.png","img/250/randomdotsizeEA/R/8_Ratio_250_L_1_R_4.png","img/250/equaldotanddens/R/11_Ratio_250_L_3_R_12.png","img/750/randomdotsizeEA/R/11_Ratio_750_L_12_R_16.png","img/750/equaldotsize/R/3_Ratio_750_L_15_R_20.png","img/500/randomdotsizeEA/L/5_Ratio_500_L_4_R_2.png","img/500/randomdotsizeEA/L/7_Ratio_500_L_10_R_5.png","img/250/equaldotsize/R/11_Ratio_250_L_3_R_12.png","img/900/equaldotanddens/L/4_Ratio_900_L_20_R_18.png","img/750/equaldotsize/L/6_Ratio_750_L_24_R_18.png","img/900/equaldotanddens/R/13_Ratio_900_L_18_R_20.png","img/500/randomdotsizeEA/L/7_Ratio_500_L_10_R_5.png","img/750/equaldotanddens/L/1_Ratio_750_L_20_R_15.png","img/750/equaldotsize/L/10_Ratio_750_L_4_R_3.png","img/250/equaldotanddens/L/1_Ratio_250_L_8_R_2.png","img/900/equaldotsize/R/15_Ratio_900_L_9_R_10.png","img/750/equaldotsize/R/4_Ratio_750_L_15_R_20.png","img/500/equaldotsize/L/4_Ratio_500_L_18_R_9.png","img/900/equaldotsize/L/4_Ratio_900_L_20_R_18.png","img/500/equaldotsize/L/7_Ratio_500_L_10_R_5.png","img/750/equaldotanddens/L/9_Ratio_750_L_4_R_3.png","img/750/equaldotanddens/L/10_Ratio_750_L_4_R_3.png","img/750/randomdotsizeEA/L/8_Ratio_750_L_4_R_3.png","img/250/equaldotanddens/L/15_Ratio_250_L_12_R_3.png","img/750/equaldotanddens/L/10_Ratio_750_L_4_R_3.png","img/250/randomdotsizeEA/R/9_Ratio_250_L_3_R_12.png","img/750/randomdotsizeEA/R/3_Ratio_750_L_15_R_20.png","img/250/equaldotanddens/L/7_Ratio_250_L_8_R_2.png","img/500/equaldotsize/L/5_Ratio_500_L_4_R_2.png","img/250/equaldotanddens/L/5_Ratio_250_L_24_R_6.png","img/900/equaldotanddens/L/4_Ratio_900_L_20_R_18.png","img/500/equaldotanddens/R/9_Ratio_500_L_2_R_4.png","img/500/equaldotanddens/R/15_Ratio_500_L_1_R_2.png","img/500/randomdotsizeEA/L/7_Ratio_500_L_10_R_5.png","img/500/equaldotanddens/L/8_Ratio_500_L_8_R_4.png","img/250/randomdotsizeEA/L/3_Ratio_250_L_8_R_2.png","img/900/equaldotsize/L/8_Ratio_900_L_20_R_18.png","img/500/randomdotsizeEA/L/5_Ratio_500_L_4_R_2.png","img/750/equaldotsize/L/9_Ratio_750_L_4_R_3.png","img/900/equaldotsize/R/3_Ratio_900_L_9_R_10.png","img/500/randomdotsizeEA/L/4_Ratio_500_L_18_R_9.png","img/500/equaldotanddens/R/14_Ratio_500_L_5_R_10.png","img/750/randomdotsizeEA/R/12_Ratio_750_L_3_R_4.png","img/500/equaldotanddens/L/10_Ratio_500_L_4_R_2.png","img/250/equaldotsize/L/1_Ratio_250_L_8_R_2.png","img/250/equaldotanddens/R/13_Ratio_250_L_2_R_8.png","img/750/equaldotsize/R/7_Ratio_750_L_3_R_4.png","img/900/randomdotsizeEA/L/2_Ratio_900_L_20_R_18.png","img/900/randomdotsizeEA/L/8_Ratio_900_L_20_R_18.png","img/750/equaldotanddens/L/13_Ratio_750_L_8_R_6.png","img/900/equaldotanddens/L/10_Ratio_900_L_20_R_18.png","img/900/randomdotsizeEA/L/1_Ratio_900_L_10_R_9.png","img/250/randomdotsizeEA/R/12_Ratio_250_L_5_R_20.png","img/900/equaldotanddens/L/1_Ratio_900_L_10_R_9.png","img/900/equaldotanddens/R/11_Ratio_900_L_18_R_20.png","img/900/equaldotsize/L/10_Ratio_900_L_20_R_18.png","img/500/equaldotanddens/L/5_Ratio_500_L_4_R_2.png","img/900/equaldotanddens/L/2_Ratio_900_L_20_R_18.png","img/500/equaldotsize/L/11_Ratio_500_L_12_R_6.png","img/750/equaldotsize/L/13_Ratio_750_L_8_R_6.png","img/500/equaldotanddens/L/8_Ratio_500_L_8_R_4.png","img/250/randomdotsizeEA/R/13_Ratio_250_L_2_R_8.png","img/750/equaldotsize/R/3_Ratio_750_L_15_R_20.png","img/900/randomdotsizeEA/L/2_Ratio_900_L_20_R_18.png","img/750/randomdotsizeEA/R/2_Ratio_750_L_6_R_8.png","img/900/randomdotsizeEA/L/10_Ratio_900_L_20_R_18.png","img/500/equaldotsize/L/10_Ratio_500_L_4_R_2.png","img/750/randomdotsizeEA/R/15_Ratio_750_L_9_R_12.png","img/900/equaldotsize/R/11_Ratio_900_L_18_R_20.png","img/250/equaldotsize/L/1_Ratio_250_L_8_R_2.png","img/900/equaldotsize/L/8_Ratio_900_L_20_R_18.png","img/900/equaldotsize/R/11_Ratio_900_L_18_R_20.png","img/750/equaldotsize/R/2_Ratio_750_L_6_R_8.png","img/500/equaldotsize/L/8_Ratio_500_L_8_R_4.png","img/250/equaldotsize/L/2_Ratio_250_L_16_R_4.png","img/900/equaldotanddens/R/5_Ratio_900_L_9_R_10.png","img/500/equaldotsize/L/7_Ratio_500_L_10_R_5.png","img/250/equaldotanddens/L/2_Ratio_250_L_16_R_4.png","img/250/equaldotsize/L/1_Ratio_250_L_8_R_2.png","img/750/equaldotanddens/L/14_Ratio_750_L_8_R_6.png","img/750/randomdotsizeEA/R/7_Ratio_750_L_3_R_4.png","img/250/equaldotanddens/L/14_Ratio_250_L_12_R_3.png","img/500/equaldotanddens/L/10_Ratio_500_L_4_R_2.png","img/250/equaldotanddens/R/12_Ratio_250_L_5_R_20.png","img/250/equaldotsize/L/7_Ratio_250_L_8_R_2.png","img/750/randomdotsizeEA/L/8_Ratio_750_L_4_R_3.png","img/250/equaldotsize/L/15_Ratio_250_L_12_R_3.png","img/250/randomdotsizeEA/R/8_Ratio_250_L_1_R_4.png","img/900/randomdotsizeEA/L/10_Ratio_900_L_20_R_18.png","img/500/equaldotsize/R/15_Ratio_500_L_1_R_2.png","img/750/equaldotanddens/L/9_Ratio_750_L_4_R_3.png","img/750/equaldotanddens/R/15_Ratio_750_L_9_R_12.png","img/250/randomdotsizeEA/R/8_Ratio_250_L_1_R_4.png","img/900/equaldotsize/L/2_Ratio_900_L_20_R_18.png","img/250/equaldotsize/L/7_Ratio_250_L_8_R_2.png","img/500/equaldotsize/R/12_Ratio_500_L_1_R_2.png","img/900/equaldotanddens/R/13_Ratio_900_L_18_R_20.png","img/250/randomdotsizeEA/R/12_Ratio_250_L_5_R_20.png","img/500/randomdotsizeEA/R/14_Ratio_500_L_5_R_10.png","img/750/equaldotsize/L/1_Ratio_750_L_20_R_15.png","img/750/randomdotsizeEA/R/5_Ratio_750_L_15_R_20.png","img/750/equaldotanddens/L/9_Ratio_750_L_4_R_3.png","img/250/equaldotsize/R/6_Ratio_250_L_6_R_24.png"],"Rat0":[["12_Ratio_0_L_9_R_0.png","13_Ratio_0_L_6_R_0.png","5_Ratio_0_L_2_R_0.png","6_Ratio_0_L_4_R_0.png","8_Ratio_0_L_6_R_0.png"],["1_Ratio_0_L_0_R_17.png","10_Ratio_0_L_0_R_22.png","11_Ratio_0_L_0_R_1.png","14_Ratio_0_L_0_R_24.png","15_Ratio_0_L_0_R_4.png","2_Ratio_0_L_0_R_5.png","3_Ratio_0_L_0_R_17.png","4_Ratio_0_L_0_R_7.png","7_Ratio_0_L_0_R_19.png","9_Ratio_0_L_0_R_15.png"]],"Rat250":[["1_Ratio_250_L_8_R_2.png","14_Ratio_250_L_12_R_3.png","15_Ratio_250_L_12_R_3.png","2_Ratio_250_L_16_R_4.png","3_Ratio_250_L_8_R_2.png","5_Ratio_250_L_24_R_6.png","7_Ratio_250_L_8_R_2.png"],["10_Ratio_250_L_4_R_16.png","11_Ratio_250_L_3_R_12.png","12_Ratio_250_L_5_R_20.png","13_Ratio_250_L_2_R_8.png","4_Ratio_250_L_3_R_12.png","6_Ratio_250_L_6_R_24.png","8_Ratio_250_L_1_R_4.png","9_Ratio_250_L_3_R_12.png"]],"Rat500":[["10_Ratio_500_L_4_R_2.png","11_Ratio_500_L_12_R_6.png","13_Ratio_500_L_12_R_6.png","4_Ratio_500_L_18_R_9.png","5_Ratio_500_L_4_R_2.png","7_Ratio_500_L_10_R_5.png","8_Ratio_500_L_8_R_4.png"],["1_Ratio_500_L_9_R_18.png","12_Ratio_500_L_1_R_2.png","14_Ratio_500_L_5_R_10.png","15_Ratio_500_L_1_R_2.png","2_Ratio_500_L_3_R_6.png","3_Ratio_500_L_10_R_20.png","6_Ratio_500_L_9_R_18.png","9_Ratio_500_L_2_R_4.png"]],"Rat750":[["1_Ratio_750_L_20_R_15.png","10_Ratio_750_L_4_R_3.png","13_Ratio_750_L_8_R_6.png","14_Ratio_750_L_8_R_6.png","6_Ratio_750_L_24_R_18.png","8_Ratio_750_L_4_R_3.png","9_Ratio_750_L_4_R_3.png"],["11_Ratio_750_L_12_R_16.png","12_Ratio_750_L_3_R_4.png","15_Ratio_750_L_9_R_12.png","2_Ratio_750_L_6_R_8.png","3_Ratio_750_L_15_R_20.png","4_Ratio_750_L_15_R_20.png","5_Ratio_750_L_15_R_20.png","7_Ratio_750_L_3_R_4.png"]],"Rat900":[["1_Ratio_900_L_10_R_9.png","10_Ratio_900_L_20_R_18.png","2_Ratio_900_L_20_R_18.png","4_Ratio_900_L_20_R_18.png","8_Ratio_900_L_20_R_18.png"],["11_Ratio_900_L_18_R_20.png","12_Ratio_900_L_18_R_20.png","13_Ratio_900_L_18_R_20.png","14_Ratio_900_L_18_R_20.png","15_Ratio_900_L_9_R_10.png","3_Ratio_900_L_9_R_10.png","5_Ratio_900_L_9_R_10.png","6_Ratio_900_L_9_R_10.png","7_Ratio_900_L_9_R_10.png","9_Ratio_900_L_18_R_20.png"]],"Rat1000":[["10_Ratio_1000_L_16_R_16.png","11_Ratio_1000_L_6_R_6.png","12_Ratio_1000_L_14_R_14.png","13_Ratio_1000_L_20_R_20.png","15_Ratio_1000_L_15_R_15.png","2_Ratio_1000_L_17_R_17.png","4_Ratio_1000_L_9_R_9.png","5_Ratio_1000_L_6_R_6.png","6_Ratio_1000_L_19_R_19.png","8_Ratio_1000_L_14_R_14.png","9_Ratio_1000_L_25_R_25.png"],["1_Ratio_1000_L_1_R_1.png","14_Ratio_1000_L_17_R_17.png","3_Ratio_1000_L_17_R_17.png","7_Ratio_1000_L_6_R_6.png"]]}},{"start_time":1552074628977,"click_time":1552074630217,"finger_time":1552074629836,"fix_duration":556.4572044742052,"trial":1,"RT":859,"MT":381,"sideResp":1,"stimulus":"img/900/equaldotanddens/R/13_Ratio_900_L_18_R_20.png","xmouse":[767,767,767,767,767,767,767,767,767,767,767,767,767,767,767,767,767,767,767,767,767,767,767,767,767,767,767,767,767,767,767,767,767,767,767,767,767,767,767,767,767,767,766,719,658,601,550,516,491,480,467,460,458,449,448,448,453,459,474,478,481,482,482],"ymouse":[519,519,519,519,519,519,519,519,519,519,519,519,519,519,519,519,519,519,519,519,519,519,519,519,519,519,519,519,519,519,519,519,519,519,519,519,519,519,519,519,519,519,514,415,327,274,230,206,188,182,173,167,166,155,150,145,137,128,115,111,107,102,95],"timestamp_mouse":[10,20,39,60,80,99,120,140,160,181,201,221,241,259,280,299,320,341,360,380,400,421,440,460,480,501,520,539,560,580,599,619,640,660,681,700,720,741,759,780,801,820,840,859,880,900,920,939,959,980,1000,1021,1041,1060,1081,1101,1121,1139,1160,1179,1200,1221,1239],"xSR":741.5,"ySR":469.95,"xT1":424.9,"yT1":0,"xT2":1058.1,"yT2":0,"toosoon":0,"cond_shown":"equaldotanddens","ratio_trial":900,"smaller_num":"18","larger_num":"20","correct_side":2,"subjID":"GabrielaBarrios19","gender":"1","age":"9","school":"4"},{"start_time":1552074632410,"click_time":1552074633597,"finger_time":1552074633237,"fix_duration":1430.8568426318504,"trial":2,"RT":827,"MT":360,"sideResp":2,"stimulus":"img/500/randomdotsizeEA/R/6_Ratio_500_L_9_R_18.png","xmouse":[794,794,794,794,794,794,794,794,794,794,794,794,794,794,794,794,794,794,794,794,794,794,794,794,794,794,794,794,794,794,794,794,794,794,794,794,794,794,794,794,802,883,919,952,978,1000,1010,1028,1040,1055,1071,1086,1106,1115,1117,1117,1118,1120,1120,1120],"ymouse":[551,551,551,551,551,551,551,551,551,551,551,551,551,551,551,551,551,551,551,551,551,551,551,551,551,551,551,551,551,551,551,551,551,551,551,551,551,551,551,551,548,470,436,393,351,296,274,242,228,215,205,197,179,161,145,130,112,106,101,97],"timestamp_mouse":[20,37,47,68,87,107,127,147,168,188,208,226,247,267,287,307,328,347,366,388,407,428,448,466,487,507,528,548,567,588,607,628,648,668,687,708,727,748,767,788,808,827,847,867,887,908,928,947,967,986,1008,1028,1048,1067,1087,1107,1129,1147,1167,1187],"xSR":741.5,"ySR":469.95,"xT1":424.9,"yT1":0,"xT2":1058.1,"yT2":0,"toosoon":0,"cond_shown":"randomdotsizeEA","ratio_trial":500,"smaller_num":"9","larger_num":"18","correct_side":2,"subjID":"GabrielaBarrios19","gender":"1","age":"9","school":"4"},{"start_time":1552074635496,"click_time":1552074636557,"finger_time":1552074636118,"fix_duration":1078.866733396835,"trial":3,"RT":622,"MT":439,"sideResp":1,"stimulus":"img/250/equaldotanddens/L/1_Ratio_250_L_8_R_2.png","xmouse":[804,804,804,804,804,804,804,804,804,804,804,804,804,804,804,804,804,804,804,804,804,804,804,804,804,804,804,804,804,804,816,859,930,1009,1020,1027,1031,1034,1037,1037,1037,1037,1037,1035,1022,998,958,912,813,748,699,655,609,518],"ymouse":[512,512,512,512,512,512,512,512,512,512,512,512,512,512,512,512,512,512,512,512,512,512,512,512,512,512,512,512,512,512,501,456,375,282,261,244,232,227,221,219,219,219,219,204,186,166,140,119,88,78,70,65,60,58],"timestamp_mouse":[11,21,42,61,82,101,121,140,161,181,202,222,240,262,281,301,322,341,361,382,402,421,442,462,480,500,522,542,562,582,601,622,641,661,681,700,721,742,761,781,801,822,842,861,881,901,922,941,960,982,1001,1021,1042,1061],"xSR":741.5,"ySR":469.95,"xT1":424.9,"yT1":0,"xT2":1058.1,"yT2":0,"toosoon":0,"cond_shown":"equaldotanddens","ratio_trial":250,"smaller_num":"2","larger_num":"8","correct_side":1,"subjID":"GabrielaBarrios19","gender":"1","age":"9","school":"4"},{"start_time":1552074638552,"click_time":1552074639777,"finger_time":1552074639218,"fix_duration":1253.9950493248193,"trial":4,"RT":666,"MT":559,"sideResp":1,"stimulus":"img/750/equaldotanddens/L/9_Ratio_750_L_4_R_3.png","xmouse":[815,815,815,815,815,815,815,815,815,815,815,815,815,815,815,815,815,815,815,815,815,815,815,815,815,815,815,815,815,815,815,815,815,798,781,745,740,738,735,727,690,674,663,658,657,657,647,605,554,554,554,554,554,554,554,554,554,554,554,554,554,437],"ymouse":[524,524,524,524,524,524,524,524,524,524,524,524,524,524,524,524,524,524,524,524,524,524,524,524,524,524,524,524,524,524,524,524,524,467,423,360,351,346,333,311,244,223,209,201,199,199,165,84,17,17,17,17,17,17,17,17,17,17,17,17,17,8],"timestamp_mouse":[12,39,45,66,85,104,126,146,164,184,205,225,244,266,285,305,324,345,366,386,405,426,446,465,484,505,525,546,566,585,604,626,645,666,686,706,724,745,766,786,805,825,845,865,885,905,924,944,964,984,1006,1025,1045,1065,1086,1105,1125,1144,1164,1184,1205,1225],"xSR":741.5,"ySR":469.95,"xT1":424.9,"yT1":0,"xT2":1058.1,"yT2":0,"toosoon":0,"cond_shown":"equaldotanddens","ratio_trial":750,"smaller_num":"3","larger_num":"4","correct_side":1,"subjID":"GabrielaBarrios19","gender":"1","age":"9","school":"4"},{"start_time":1552074641592,"click_time":1552074642898,"finger_time":1552074642577,"fix_duration":1193.953629980905,"trial":5,"RT":985,"MT":321,"sideResp":1,"stimulus":"img/900/randomdotsizeEA/R/11_Ratio_900_L_18_R_20.png","xmouse":[802,802,802,802,802,802,802,802,802,802,802,802,802,802,802,802,802,802,802,802,802,802,802,802,802,802,802,802,802,802,802,802,802,802,802,802,802,802,802,802,802,802,802,802,802,802,802,802,802,794,748,715,691,682,678,674,666,653,638,612,603,592,584,570,526,505],"ymouse":[495,495,495,495,495,495,495,495,495,495,495,495,495,495,495,495,495,495,495,495,495,495,495,495,495,495,495,495,495,495,495,495,495,495,495,495,495,495,495,495,495,495,495,495,495,495,495,495,495,465,370,316,283,266,247,233,216,196,178,152,145,138,133,123,90,79],"timestamp_mouse":[12,35,45,66,86,106,125,146,166,185,206,226,245,265,286,305,326,347,366,385,406,425,446,467,486,506,526,545,567,586,606,626,646,666,687,706,726,745,765,786,806,825,845,865,885,906,925,946,967,985,1006,1026,1046,1065,1087,1105,1126,1147,1165,1185,1205,1225,1245,1267,1285,1306],"xSR":741.5,"ySR":469.95,"xT1":424.9,"yT1":0,"xT2":1058.1,"yT2":0,"toosoon":0,"cond_shown":"randomdotsizeEA","ratio_trial":900,"smaller_num":"18","larger_num":"20","correct_side":2,"subjID":"GabrielaBarrios19","gender":"1","age":"9","school":"4"},{"start_time":1552074645034,"click_time":1552074646099,"finger_time":1552074645637,"fix_duration":1295.0441395571895,"trial":6,"RT":603,"MT":462,"sideResp":2,"stimulus":"img/250/equaldotsize/R/11_Ratio_250_L_3_R_12.png","xmouse":[793,793,793,793,793,793,793,793,793,793,793,793,793,793,793,793,793,793,793,793,793,793,793,793,793,793,793,793,793,793,771,730,644,628,623,621,620,617,617,617,617,617,617,617,617,633,696,872,914,950,972,996,1017,1059],"ymouse":[502,502,502,502,502,502,502,502,502,502,502,502,502,502,502,502,502,502,502,502,502,502,502,502,502,502,502,502,502,487,435,368,271,250,242,238,235,227,226,226,226,226,226,225,225,218,208,184,170,144,128,114,107,96],"timestamp_mouse":[13,23,44,63,84,103,123,143,163,184,203,223,244,264,283,303,324,343,363,383,403,424,443,463,484,505,524,544,563,583,603,623,644,663,685,703,724,743,765,784,803,824,844,863,885,905,924,944,965,983,1004,1024,1043,1065],"xSR":741.5,"ySR":469.95,"xT1":424.9,"yT1":0,"xT2":1058.1,"yT2":0,"toosoon":0,"cond_shown":"equaldotsize","ratio_trial":250,"smaller_num":"3","larger_num":"12","correct_side":2,"subjID":"GabrielaBarrios19","gender":"1","age":"9","school":"4"},{"start_time":1552074647076,"click_time":1552074648738,"finger_time":1552074647998,"fix_duration":317.58984244414825,"trial":7,"RT":922,"MT":740,"sideResp":1,"stimulus":"img/250/randomdotsizeEA/R/10_Ratio_250_L_4_R_16.png","xmouse":[787,787,787,787,787,787,787,787,787,787,787,787,787,787,787,787,787,787,787,787,787,787,787,787,787,787,787,787,787,787,787,787,787,787,787,787,787,787,787,787,787,787,787,787,787,789,854,885,907,918,938,953,970,998,1006,1018,1027,1026,1023,1023,1025,1027,1028,1029,1029,1029,1029,1029,1029,1029,991,960,924,880,785,722,630,605,592,583,569,557,533,499],"ymouse":[517,517,517,517,517,517,517,517,517,517,517,517,517,517,517,517,517,517,517,517,517,517,517,517,517,517,517,517,517,517,517,517,517,517,517,517,517,517,517,517,517,517,517,517,517,514,448,423,410,400,378,363,348,322,312,291,229,207,188,173,157,151,147,144,144,144,143,143,143,143,143,143,143,143,143,139,136,136,136,136,130,123,110,91],"timestamp_mouse":[16,36,41,63,81,102,121,141,162,181,201,221,241,262,281,301,322,341,362,382,401,422,442,461,483,501,522,542,562,582,601,621,641,661,681,701,721,742,762,781,801,821,842,861,882,901,922,942,962,981,1001,1021,1041,1062,1082,1102,1121,1141,1161,1182,1202,1221,1241,1262,1282,1301,1322,1342,1362,1382,1402,1421,1442,1462,1482,1502,1522,1541,1561,1583,1602,1621,1641,1662],"xSR":741.5,"ySR":469.95,"xT1":424.9,"yT1":0,"xT2":1058.1,"yT2":0,"toosoon":0,"cond_shown":"randomdotsizeEA","ratio_trial":250,"smaller_num":"4","larger_num":"16","correct_side":2,"subjID":"GabrielaBarrios19","gender":"1","age":"9","school":"4"},{"start_time":1552074649709,"click_time":1552074650737,"finger_time":1552074650439,"fix_duration":250,"trial":8,"RT":730,"MT":298,"sideResp":1,"stimulus":"img/500/randomdotsizeEA/L/13_Ratio_500_L_12_R_6.png","xmouse":[821,821,821,821,821,821,821,821,821,821,821,821,821,821,821,821,821,821,821,821,821,821,821,821,821,821,821,821,821,821,821,821,821,821,821,818,781,730,676,612,594,572,555,529,527,527,527,527,522,513,495,469],"ymouse":[505,505,505,505,505,505,505,505,505,505,505,505,505,505,505,505,505,505,505,505,505,505,505,505,505,505,505,505,505,505,505,505,505,505,505,482,418,357,305,260,250,237,226,204,200,200,200,200,184,162,125,75],"timestamp_mouse":[10,37,48,68,88,108,129,149,169,189,208,229,249,268,290,308,328,348,369,390,408,428,448,469,489,508,528,548,568,588,608,628,649,669,688,708,730,748,769,788,808,828,848,870,888,908,928,948,970,988,1009,1028],"xSR":741.5,"ySR":469.95,"xT1":424.9,"yT1":0,"xT2":1058.1,"yT2":0,"toosoon":0,"cond_shown":"randomdotsizeEA","ratio_trial":500,"smaller_num":"6","larger_num":"12","correct_side":1,"subjID":"GabrielaBarrios19","gender":"1","age":"9","school":"4"},{"start_time":1552074652146,"click_time":1552074653138,"finger_time":1552074652879,"fix_duration":866.0260454325053,"trial":9,"RT":733,"MT":259,"sideResp":1,"stimulus":"img/900/randomdotsizeEA/R/14_Ratio_900_L_18_R_20.png","xmouse":[799,799,799,799,799,799,799,799,799,799,799,799,799,799,799,799,799,799,799,799,799,799,799,799,799,799,799,799,799,799,799,799,799,799,800,784,746,676,653,644,635,627,605,596,587,580,567,538,524,512],"ymouse":[544,544,544,544,544,544,544,544,544,544,544,544,544,544,544,544,544,544,544,544,544,544,544,544,544,544,544,544,544,544,544,544,544,544,526,492,428,317,285,273,260,247,222,212,201,191,179,143,122,99],"timestamp_mouse":[13,35,52,72,91,113,132,152,171,192,212,231,252,272,293,313,331,352,371,391,412,432,452,471,491,512,532,552,571,592,611,633,652,672,692,711,733,751,773,791,811,831,852,872,891,911,931,951,971,992],"xSR":741.5,"ySR":469.95,"xT1":424.9,"yT1":0,"xT2":1058.1,"yT2":0,"toosoon":0,"cond_shown":"randomdotsizeEA","ratio_trial":900,"smaller_num":"18","larger_num":"20","correct_side":2,"subjID":"GabrielaBarrios19","gender":"1","age":"9","school":"4"},{"start_time":1552074655246,"click_time":1552074656698,"finger_time":1552074656377,"fix_duration":1387.8492346429616,"trial":10,"RT":1131,"MT":321,"sideResp":1,"stimulus":"img/900/randomdotsizeEA/R/14_Ratio_900_L_18_R_20.png","xmouse":[808,808,808,808,808,808,808,808,808,808,808,808,808,808,808,808,808,808,808,808,808,808,808,808,808,808,808,808,808,808,808,808,808,808,808,808,808,808,808,808,808,808,808,808,808,808,808,808,808,808,808,808,808,808,798,755,688,593,567,558,551,543,510,489,477,471,470,470,471,473,475,476,479],"ymouse":[505,505,505,505,505,505,505,505,505,505,505,505,505,505,505,505,505,505,505,505,505,505,505,505,505,505,505,505,505,505,505,505,505,505,505,505,505,505,505,505,505,505,505,505,505,505,505,505,505,505,505,505,505,505,501,476,438,362,338,325,312,296,240,210,191,177,169,152,142,128,115,105,91],"timestamp_mouse":[11,32,52,71,93,112,132,151,173,192,211,232,251,271,292,312,332,351,372,391,411,431,451,471,492,511,531,552,572,592,613,633,653,672,692,712,732,751,772,792,811,831,851,872,891,912,932,951,973,992,1011,1032,1051,1071,1092,1111,1131,1152,1171,1191,1211,1231,1252,1273,1291,1313,1331,1352,1371,1392,1413,1432,1451],"xSR":741.5,"ySR":469.95,"xT1":424.9,"yT1":0,"xT2":1058.1,"yT2":0,"toosoon":0,"cond_shown":"randomdotsizeEA","ratio_trial":900,"smaller_num":"18","larger_num":"20","correct_side":2,"subjID":"GabrielaBarrios19","gender":"1","age":"9","school":"4"},{"start_time":1552074660338,"click_time":1552074661939,"finger_time":1552074661117,"fix_duration":478.13127160965973,"trial":11,"RT":779,"MT":822,"sideResp":2,"stimulus":"img/500/equaldotanddens/R/6_Ratio_500_L_9_R_18.png","xmouse":[789,789,789,789,789,789,789,789,789,789,789,789,789,789,789,789,789,789,789,789,789,789,789,789,789,789,789,789,789,789,789,789,789,789,789,789,789,797,806,867,901,923,937,954,979,994,1004,1015,1023,1036,1037,1037,1037,1037,1037,1037,1039,1042,1045,1048,1048,1048,1048,1048,1052,1053,1055,1055,1055,1056,1056,1056,1057,1057,1057,1057,1057,1057,1057,1057,1063],"ymouse":[542,542,542,542,542,542,542,542,542,542,542,542,542,542,542,542,542,542,542,542,542,542,542,542,542,542,542,542,542,542,542,542,542,542,542,542,542,536,524,468,434,410,387,359,297,265,247,229,208,164,142,119,100,87,78,78,75,73,70,67,67,67,67,67,65,64,64,63,63,63,63,63,63,63,63,63,63,63,63,63,63],"timestamp_mouse":[1,21,45,60,80,99,120,139,160,180,199,220,239,259,279,299,320,340,359,381,400,419,440,461,480,500,519,540,559,580,600,621,640,659,680,700,720,739,760,779,799,819,841,861,879,900,919,946,960,979,1000,1019,1039,1060,1080,1100,1120,1140,1159,1179,1200,1219,1240,1259,1280,1299,1319,1340,1360,1379,1400,1419,1439,1461,1479,1500,1520,1540,1560,1580,1600],"xSR":741.5,"ySR":469.95,"xT1":424.9,"yT1":0,"xT2":1058.1,"yT2":0,"toosoon":0,"cond_shown":"equaldotanddens","ratio_trial":500,"smaller_num":"9","larger_num":"18","correct_side":2,"subjID":"GabrielaBarrios19","gender":"1","age":"9","school":"4"},{"start_time":1552074663180,"click_time":1552074664718,"finger_time":1552074664418,"fix_duration":441.55999465415,"trial":12,"RT":1238,"MT":300,"sideResp":2,"stimulus":"img/900/randomdotsizeEA/R/3_Ratio_900_L_9_R_10.png","xmouse":[763,763,763,763,763,763,763,763,763,763,763,763,763,763,763,763,763,763,763,763,763,763,763,763,763,763,763,763,763,763,763,763,763,763,763,763,763,763,763,763,763,763,763,763,763,763,763,760,758,757,755,755,755,755,755,755,755,755,756,763,796,909,983,1055,1110,1153,1214,1229,1240,1247,1251,1249,1240,1233,1222,1208,1157],"ymouse":[524,524,524,524,524,524,524,524,524,524,524,524,524,524,524,524,524,524,524,524,524,524,524,524,524,524,524,524,524,524,524,524,524,524,524,524,524,524,524,524,524,524,524,524,524,524,524,514,509,506,503,502,502,502,502,502,502,502,501,500,491,470,456,433,403,364,298,279,266,255,244,205,186,168,149,131,99],"timestamp_mouse":[18,39,58,79,98,118,137,157,177,197,217,237,257,279,298,318,337,357,379,397,417,438,458,477,498,517,537,558,577,597,617,639,658,678,698,718,737,757,777,797,817,837,858,878,897,918,939,957,977,998,1018,1037,1057,1077,1098,1117,1137,1158,1177,1197,1219,1238,1258,1277,1298,1318,1337,1357,1377,1397,1417,1437,1457,1478,1498,1518,1538],"xSR":741.5,"ySR":469.95,"xT1":424.9,"yT1":0,"xT2":1058.1,"yT2":0,"toosoon":0,"cond_shown":"randomdotsizeEA","ratio_trial":900,"smaller_num":"9","larger_num":"10","correct_side":2,"subjID":"GabrielaBarrios19","gender":"1","age":"9","school":"4"},{"start_time":1552074666143,"click_time":1552074667298,"finger_time":1552074666957,"fix_duration":681.9660244391082,"trial":13,"RT":814,"MT":341,"sideResp":2,"stimulus":"img/500/equaldotanddens/R/14_Ratio_500_L_5_R_10.png","xmouse":[792,792,792,792,792,792,792,792,792,792,792,792,792,792,792,792,792,792,792,792,792,792,792,792,792,792,792,792,792,792,792,792,792,792,792,792,792,793,800,820,844,867,894,972,1015,1058,1089,1112,1131,1154,1161,1169,1170,1170,1170,1171,1165,1155],"ymouse":[537,537,537,537,537,537,537,537,537,537,537,537,537,537,537,537,537,537,537,537,537,537,537,537,537,537,537,537,537,537,537,537,537,537,537,537,537,537,536,524,507,491,471,419,383,346,315,284,252,209,192,160,140,125,95,80,69,51],"timestamp_mouse":[15,41,55,74,95,114,135,154,174,194,215,235,254,274,295,314,334,355,374,396,416,435,455,474,494,515,535,554,574,594,614,634,656,675,694,715,735,754,775,794,814,834,854,875,894,914,936,955,974,994,1015,1034,1054,1075,1096,1115,1134,1155],"xSR":741.5,"ySR":469.95,"xT1":424.9,"yT1":0,"xT2":1058.1,"yT2":0,"toosoon":0,"cond_shown":"equaldotanddens","ratio_trial":500,"smaller_num":"5","larger_num":"10","correct_side":2,"subjID":"GabrielaBarrios19","gender":"1","age":"9","school":"4"},{"start_time":1552074669425,"click_time":1552074671558,"finger_time":1552074670937,"fix_duration":1125.2353185859965,"trial":14,"RT":1512,"MT":621,"sideResp":1,"stimulus":"img/900/equaldotsize/R/14_Ratio_900_L_18_R_20.png","xmouse":[790,790,790,790,790,790,790,790,790,790,790,790,790,790,790,790,790,790,790,790,790,790,790,790,790,790,790,790,790,790,790,790,790,790,790,790,790,790,790,790,790,790,790,790,790,790,790,790,790,790,790,790,790,790,790,790,790,790,790,790,790,790,790,790,790,790,790,790,790,790,790,790,790,791,791,745,691,658,639,627,606,594,584,573,563,552,552,552,552,552,552,552,552,552,552,552,552,552,552,552,552,552,551,549,543,522,511],"ymouse":[563,563,563,563,563,563,563,563,563,563,563,563,563,563,563,563,563,563,563,563,563,563,563,563,563,563,563,563,563,563,563,563,563,563,563,563,563,563,563,563,563,563,563,563,563,563,563,563,563,563,563,563,563,563,563,563,563,563,563,563,563,563,563,563,563,563,563,563,563,563,563,563,563,562,540,422,348,312,290,275,248,234,222,208,196,181,180,180,180,180,180,180,180,180,180,180,180,180,180,180,180,174,160,150,132,108,99],"timestamp_mouse":[14,41,53,72,93,113,133,152,173,193,213,233,252,272,293,312,334,352,373,392,413,432,452,472,492,513,533,552,572,593,613,632,653,673,693,712,732,753,772,793,812,832,852,874,892,913,933,952,972,992,1012,1033,1052,1073,1093,1112,1134,1152,1173,1193,1213,1232,1252,1273,1292,1312,1333,1352,1372,1392,1413,1433,1452,1472,1492,1512,1533,1553,1573,1593,1612,1632,1652,1672,1692,1713,1733,1752,1773,1792,1812,1832,1853,1873,1892,1913,1932,1953,1972,1993,2013,2032,2053,2072,2092,2112,2133],"xSR":741.5,"ySR":469.95,"xT1":424.9,"yT1":0,"xT2":1058.1,"yT2":0,"toosoon":0,"cond_shown":"equaldotsize","ratio_trial":900,"smaller_num":"18","larger_num":"20","correct_side":2,"subjID":"GabrielaBarrios19","gender":"1","age":"9","school":"4"},{"start_time":1552074674035,"click_time":1552074675443,"finger_time":1552074675079,"fix_duration":1476.9081979062657,"trial":15,"RT":1044,"MT":364,"sideResp":2,"stimulus":"img/500/randomdotsizeEA/R/6_Ratio_500_L_9_R_18.png","xmouse":[773,773,773,773,773,773,773,773,773,773,773,773,773,773,773,773,773,773,773,773,773,773,773,773,773,773,773,773,773,773,773,773,773,773,773,773,773,773,773,773,773,773,773,773,773,773,773,773,773,773,773,779,848,920,1011,1105,1136,1158,1173,1182,1187,1187,1187,1187,1187,1177,1170,1163,1162,1162,1149],"ymouse":[526,526,526,526,526,526,526,526,526,526,526,526,526,526,526,526,526,526,526,526,526,526,526,526,526,526,526,526,526,526,526,526,526,526,526,526,526,526,526,526,526,526,526,526,526,526,526,526,526,526,526,526,502,471,415,340,296,257,219,189,146,131,118,104,76,44,33,25,25,24,27],"timestamp_mouse":[12,38,44,63,83,102,122,142,164,184,202,222,242,263,284,302,323,342,364,382,403,423,442,462,483,503,522,542,563,583,604,623,643,662,683,702,722,743,764,782,802,822,843,862,883,902,922,943,962,982,1002,1023,1044,1064,1083,1103,1122,1144,1164,1184,1203,1222,1242,1264,1284,1304,1322,1343,1363,1382,1408],"xSR":741.5,"ySR":469.95,"xT1":424.9,"yT1":0,"xT2":1058.1,"yT2":0,"toosoon":0,"cond_shown":"randomdotsizeEA","ratio_trial":500,"smaller_num":"9","larger_num":"18","correct_side":2,"subjID":"GabrielaBarrios19","gender":"1","age":"9","school":"4"},{"start_time":1552074677367,"click_time":1552074678597,"finger_time":1552074678139,"fix_duration":1027.8774933519135,"trial":16,"RT":772,"MT":458,"sideResp":1,"stimulus":"img/500/equaldotsize/L/4_Ratio_500_L_18_R_9.png","xmouse":[803,803,803,803,803,803,803,803,803,803,803,803,803,803,803,803,803,803,803,803,803,803,803,803,803,803,803,803,803,803,803,803,803,803,803,803,803,803,783,770,755,736,724,711,700,695,675,654,589,556,534,527,527,527,527,527,524,505,496,487,487,487],"ymouse":[538,538,538,538,538,538,538,538,538,538,538,538,538,538,538,538,538,538,538,538,538,538,538,538,538,538,538,538,538,538,538,538,538,538,538,538,538,537,443,406,371,344,327,312,304,300,289,277,240,218,201,194,193,193,193,193,187,146,127,104,102,97],"timestamp_mouse":[13,41,50,70,90,111,132,151,170,191,211,230,251,271,290,311,332,351,371,391,410,431,451,470,492,511,530,551,571,590,611,631,651,670,691,712,731,751,772,790,810,831,851,872,891,910,930,950,972,990,1011,1030,1051,1071,1091,1110,1130,1151,1172,1190,1210,1230],"xSR":741.5,"ySR":469.95,"xT1":424.9,"yT1":0,"xT2":1058.1,"yT2":0,"toosoon":0,"cond_shown":"equaldotsize","ratio_trial":500,"smaller_num":"9","larger_num":"18","correct_side":1,"subjID":"GabrielaBarrios19","gender":"1","age":"9","school":"4"},{"start_time":1552074679712,"click_time":1552074681058,"finger_time":1552074680858,"fix_duration":513.0361353006392,"trial":17,"RT":1146,"MT":200,"sideResp":1,"stimulus":"img/750/randomdotsizeEA/R/15_Ratio_750_L_9_R_12.png","xmouse":[825,825,825,825,825,825,825,825,825,825,825,825,825,825,825,825,825,825,825,825,825,825,825,825,825,825,825,825,825,825,825,825,825,825,825,825,825,825,825,825,825,825,825,825,825,825,825,825,825,825,825,825,825,825,825,825,825,770,711,644,575,529,498,494,493,491,483,448],"ymouse":[550,550,550,550,550,550,550,550,550,550,550,550,550,550,550,550,550,550,550,550,550,550,550,550,550,550,550,550,550,550,550,550,550,550,550,550,550,550,550,550,550,550,550,550,550,550,550,550,550,550,550,550,550,550,550,550,550,414,329,259,202,163,132,128,127,123,109,64],"timestamp_mouse":[14,25,46,65,86,105,127,146,167,186,206,226,246,266,285,305,327,345,365,385,405,425,446,465,485,506,526,546,565,586,607,625,646,666,685,705,726,746,767,786,806,826,845,865,886,907,926,945,965,986,1007,1026,1045,1065,1087,1105,1126,1146,1165,1185,1205,1226,1245,1266,1285,1307,1327,1345],"xSR":741.5,"ySR":469.95,"xT1":424.9,"yT1":0,"xT2":1058.1,"yT2":0,"toosoon":0,"cond_shown":"randomdotsizeEA","ratio_trial":750,"smaller_num":"9","larger_num":"12","correct_side":2,"subjID":"GabrielaBarrios19","gender":"1","age":"9","school":"4"},{"start_time":1552074684231,"click_time":1552074685679,"finger_time":1552074685219,"fix_duration":830.6518020834662,"trial":18,"RT":988,"MT":460,"sideResp":2,"stimulus":"img/250/randomdotsizeEA/R/8_Ratio_250_L_1_R_4.png","xmouse":[767,767,767,767,767,767,767,767,767,767,767,767,767,767,767,767,767,767,767,767,767,767,767,767,767,767,767,767,767,767,767,767,767,767,767,767,767,767,767,767,767,767,767,767,767,767,767,767,814,896,959,1017,1136,1178,1219,1252,1270,1271,1272,1272,1272,1265,1237,1237,1237,1237,1237,1237,1237,1237,1237,1237,1118],"ymouse":[546,546,546,546,546,546,546,546,546,546,546,546,546,546,546,546,546,546,546,546,546,546,546,546,546,546,546,546,546,546,546,546,546,546,546,546,546,546,546,546,546,546,546,546,546,546,546,546,534,519,509,498,458,427,381,320,245,226,212,192,134,79,5,5,5,5,5,5,5,5,5,5,3],"timestamp_mouse":[12,26,46,67,88,106,127,147,167,187,207,227,247,267,287,306,327,346,367,387,406,426,447,466,486,507,526,547,568,588,606,627,648,668,686,706,727,746,767,787,807,827,847,868,887,906,927,946,966,988,1007,1026,1046,1067,1086,1106,1128,1147,1167,1186,1207,1226,1246,1266,1286,1306,1326,1346,1366,1386,1407,1427,1448],"xSR":741.5,"ySR":469.95,"xT1":424.9,"yT1":0,"xT2":1058.1,"yT2":0,"toosoon":0,"cond_shown":"randomdotsizeEA","ratio_trial":250,"smaller_num":"1","larger_num":"4","correct_side":2,"subjID":"GabrielaBarrios19","gender":"1","age":"9","school":"4"},{"start_time":1552074686850,"click_time":1552074687918,"finger_time":1552074687677,"fix_duration":372.71993897533173,"trial":19,"RT":827,"MT":241,"sideResp":2,"stimulus":"img/250/equaldotanddens/R/11_Ratio_250_L_3_R_12.png","xmouse":[769,769,769,769,769,769,769,769,769,769,769,769,769,769,769,769,769,769,769,769,769,769,769,769,769,769,769,769,769,769,769,769,769,769,769,769,769,769,769,770,841,1049,1125,1162,1177,1187,1195,1196,1196,1196,1196,1175,1161,1151],"ymouse":[530,530,530,530,530,530,530,530,530,530,530,530,530,530,530,530,530,530,530,530,530,530,530,530,530,530,530,530,530,530,530,530,530,530,530,530,530,530,530,530,494,373,322,286,255,227,188,173,157,141,122,76,55,41],"timestamp_mouse":[13,42,48,69,88,107,128,148,168,188,208,228,248,267,287,307,327,348,367,388,407,427,447,468,488,509,528,548,567,588,608,629,647,667,688,709,728,748,768,787,807,827,847,867,887,909,927,948,967,988,1007,1027,1047,1068],"xSR":741.5,"ySR":469.95,"xT1":424.9,"yT1":0,"xT2":1058.1,"yT2":0,"toosoon":0,"cond_shown":"equaldotanddens","ratio_trial":250,"smaller_num":"3","larger_num":"12","correct_side":2,"subjID":"GabrielaBarrios19","gender":"1","age":"9","school":"4"},{"start_time":1552074689309,"click_time":1552074690878,"finger_time":1552074690439,"fix_duration":250,"trial":20,"RT":1130,"MT":439,"sideResp":1,"stimulus":"img/750/randomdotsizeEA/R/11_Ratio_750_L_12_R_16.png","xmouse":[795,795,795,795,795,795,795,795,795,795,795,795,795,795,795,795,795,795,795,795,795,795,795,795,795,795,795,795,795,795,795,795,795,795,795,795,795,795,795,795,795,795,795,795,795,795,795,795,795,795,795,795,795,795,795,807,809,810,810,797,785,775,756,727,707,681,639,601,541,527,520,516,513,508,494,488,484,484,484],"ymouse":[514,514,514,514,514,514,514,514,514,514,514,514,514,514,514,514,514,514,514,514,514,514,514,514,514,514,514,514,514,514,514,514,514,514,514,514,514,514,514,514,514,514,514,514,514,514,514,514,514,514,514,514,514,514,514,471,453,437,425,407,402,397,389,375,364,346,317,292,245,229,213,199,188,174,136,121,110,101,94],"timestamp_mouse":[19,41,48,68,89,108,129,149,168,188,209,229,249,269,288,308,328,349,368,389,409,430,449,468,489,508,529,549,568,588,608,628,648,668,688,710,728,748,768,790,809,828,849,870,889,908,929,949,969,990,1008,1028,1048,1068,1088,1108,1130,1148,1168,1190,1210,1228,1249,1269,1288,1308,1329,1349,1368,1388,1408,1429,1449,1468,1488,1508,1529,1549,1569],"xSR":741.5,"ySR":469.95,"xT1":424.9,"yT1":0,"xT2":1058.1,"yT2":0,"toosoon":0,"cond_shown":"randomdotsizeEA","ratio_trial":750,"smaller_num":"12","larger_num":"16","correct_side":2,"subjID":"GabrielaBarrios19","gender":"1","age":"9","school":"4"},{"start_time":1552074692078,"click_time":1552074693337,"finger_time":1552074692937,"fix_duration":460.4780467130799,"trial":21,"RT":859,"MT":400,"sideResp":1,"stimulus":"img/750/equaldotsize/R/3_Ratio_750_L_15_R_20.png","xmouse":[818,818,818,818,818,818,818,818,818,818,818,818,818,818,818,818,818,818,818,818,818,818,818,818,818,818,818,818,818,818,818,818,818,818,818,818,818,818,818,818,818,815,800,777,753,748,747,746,746,746,746,744,737,715,690,617,587,565,551,542,537,526,504],"ymouse":[511,511,511,511,511,511,511,511,511,511,511,511,511,511,511,511,511,511,511,511,511,511,511,511,511,511,511,511,511,511,511,511,511,511,511,511,511,511,511,511,511,487,440,363,302,289,285,284,284,284,278,257,238,204,180,140,126,116,109,98,89,71,40],"timestamp_mouse":[19,39,59,79,99,120,139,160,179,199,220,239,260,279,300,319,339,360,381,400,420,440,460,479,499,519,539,560,580,600,620,639,661,680,700,719,740,759,780,800,819,840,859,880,900,919,939,960,979,1000,1019,1039,1059,1079,1100,1119,1141,1159,1180,1200,1219,1239,1259],"xSR":741.5,"ySR":469.95,"xT1":424.9,"yT1":0,"xT2":1058.1,"yT2":0,"toosoon":0,"cond_shown":"equaldotsize","ratio_trial":750,"smaller_num":"15","larger_num":"20","correct_side":2,"subjID":"GabrielaBarrios19","gender":"1","age":"9","school":"4"},{"start_time":1552074697209,"click_time":1552074698217,"finger_time":1552074698077,"fix_duration":710.3890558654937,"trial":22,"RT":868,"MT":140,"sideResp":1,"stimulus":"img/500/randomdotsizeEA/L/5_Ratio_500_L_4_R_2.png","xmouse":[785,785,785,785,785,785,785,785,785,785,785,785,785,785,785,785,785,785,785,785,785,785,785,785,785,785,785,785,785,785,785,785,785,785,785,785,785,785,785,785,785,785,781,761,600,541,513,506,505,508,508],"ymouse":[520,520,520,520,520,520,520,520,520,520,520,520,520,520,520,520,520,520,520,520,520,520,520,520,520,520,520,520,520,520,520,520,520,520,520,520,520,520,520,520,520,520,515,461,232,172,137,123,117,101,94],"timestamp_mouse":[19,35,49,68,88,108,128,148,168,189,208,229,248,268,289,308,328,348,369,388,409,429,450,469,489,509,530,549,569,589,608,630,649,669,689,708,729,748,768,789,809,829,848,868,888,909,928,949,968,988,1008],"xSR":741.5,"ySR":469.95,"xT1":424.9,"yT1":0,"xT2":1058.1,"yT2":0,"toosoon":0,"cond_shown":"randomdotsizeEA","ratio_trial":500,"smaller_num":"2","larger_num":"4","correct_side":1,"subjID":"GabrielaBarrios19","gender":"1","age":"9","school":"4"},{"start_time":1552074700607,"click_time":1552074702617,"finger_time":1552074702358,"fix_duration":1347.5606069650269,"trial":23,"RT":1751,"MT":259,"sideResp":1,"stimulus":"img/500/randomdotsizeEA/L/7_Ratio_500_L_10_R_5.png","xmouse":[810,810,812,813,813,813,813,813,813,813,813,813,813,813,813,813,813,813,813,813,813,813,813,813,813,813,813,813,813,813,813,813,813,813,813,813,813,813,813,813,813,813,813,813,813,813,813,813,813,813,813,813,813,813,813,813,813,813,813,813,813,813,813,813,813,813,813,813,813,813,813,813,813,813,813,813,813,813,813,813,813,813,813,813,813,813,810,782,746,701,691,687,685,681,676,652,624,588,552,530,511],"ymouse":[512,512,510,509,509,509,509,509,509,509,509,509,509,509,509,509,509,509,509,509,509,509,509,509,509,509,509,509,509,509,509,509,509,509,509,509,509,509,509,509,509,509,509,509,509,509,509,509,509,509,509,509,509,509,509,509,509,509,509,509,509,509,509,509,509,509,509,509,509,509,509,509,509,509,509,509,509,509,509,509,509,509,509,509,509,509,498,460,417,360,345,334,329,314,299,253,216,176,141,119,92],"timestamp_mouse":[14,35,51,70,91,112,131,151,171,190,210,231,250,271,291,311,330,350,370,390,410,431,450,470,490,510,531,551,572,591,611,630,651,671,690,711,730,752,771,791,811,830,850,870,891,911,931,950,971,991,1010,1031,1050,1070,1091,1111,1131,1150,1171,1191,1211,1231,1251,1271,1290,1311,1330,1351,1371,1390,1410,1431,1451,1470,1490,1511,1531,1551,1570,1591,1610,1631,1650,1671,1691,1711,1730,1751,1770,1792,1810,1830,1850,1871,1890,1910,1930,1950,1971,1990,2010],"xSR":741.5,"ySR":469.95,"xT1":424.9,"yT1":0,"xT2":1058.1,"yT2":0,"toosoon":0,"cond_shown":"randomdotsizeEA","ratio_trial":500,"smaller_num":"5","larger_num":"10","correct_side":1,"subjID":"GabrielaBarrios19","gender":"1","age":"9","school":"4"},{"start_time":1552074704519,"click_time":1552074705498,"finger_time":1552074705098,"fix_duration":879.9222784000068,"trial":24,"RT":579,"MT":400,"sideResp":2,"stimulus":"img/250/equaldotsize/R/11_Ratio_250_L_3_R_12.png","xmouse":[799,799,799,799,799,799,799,799,799,799,799,799,799,799,799,799,799,799,799,799,799,799,799,799,799,799,799,799,802,868,925,980,1027,1053,1073,1099,1116,1123,1130,1135,1145,1145,1142,1139,1133,1116,1106,1092,1077,1068],"ymouse":[525,525,525,525,525,525,525,525,525,525,525,525,525,525,525,525,525,525,525,525,525,525,525,525,525,525,525,525,525,503,486,470,455,440,423,382,336,313,291,272,226,206,182,174,163,140,129,115,103,95],"timestamp_mouse":[1,18,39,58,79,98,118,139,159,178,199,218,238,258,278,299,319,338,359,379,399,419,439,458,478,499,518,539,559,579,598,618,638,658,679,698,719,738,759,779,798,818,838,858,880,898,918,939,959,979],"xSR":741.5,"ySR":469.95,"xT1":424.9,"yT1":0,"xT2":1058.1,"yT2":0,"toosoon":0,"cond_shown":"equaldotsize","ratio_trial":250,"smaller_num":"3","larger_num":"12","correct_side":2,"subjID":"GabrielaBarrios19","gender":"1","age":"9","school":"4"},{"start_time":1552074708268,"click_time":1552074709257,"finger_time":1552074709017,"fix_duration":529.5257906653793,"trial":25,"RT":749,"MT":240,"sideResp":1,"stimulus":"img/900/equaldotanddens/L/4_Ratio_900_L_20_R_18.png","xmouse":[780,780,780,780,780,780,780,780,780,780,780,780,780,780,780,780,780,780,780,780,780,780,780,780,780,780,780,780,780,780,780,780,780,780,780,778,768,749,606,555,519,506,503,503,502,500,492,474,467,465],"ymouse":[507,507,507,507,507,507,507,507,507,507,507,507,507,507,507,507,507,507,507,507,507,507,507,507,507,507,507,507,507,507,507,507,507,507,507,499,475,436,289,247,214,197,183,182,179,172,155,124,111,96],"timestamp_mouse":[12,38,49,70,89,109,130,149,170,189,209,230,249,270,289,310,329,349,370,389,410,429,449,470,489,510,529,549,569,590,609,629,649,669,689,709,729,749,769,790,809,829,850,869,889,909,929,950,969,989],"xSR":741.5,"ySR":469.95,"xT1":424.9,"yT1":0,"xT2":1058.1,"yT2":0,"toosoon":0,"cond_shown":"equaldotanddens","ratio_trial":900,"smaller_num":"18","larger_num":"20","correct_side":1,"subjID":"GabrielaBarrios19","gender":"1","age":"9","school":"4"},{"start_time":1552074711772,"click_time":1552074712819,"finger_time":1552074712537,"fix_duration":250,"trial":26,"RT":765,"MT":282,"sideResp":1,"stimulus":"img/750/equaldotsize/L/6_Ratio_750_L_24_R_18.png","xmouse":[766,766,769,772,772,773,773,773,773,773,773,773,773,773,773,773,773,773,773,773,773,773,773,773,773,773,773,773,773,773,773,773,773,773,773,773,773,756,678,636,618,610,606,605,602,597,590,579,558,543,536,528,505],"ymouse":[548,548,545,542,541,540,540,540,540,540,540,540,540,540,540,540,540,540,540,540,540,540,540,540,540,540,540,540,540,540,540,540,540,540,540,540,522,481,373,319,292,275,256,248,239,225,212,197,165,144,134,122,94],"timestamp_mouse":[20,30,47,65,85,105,125,146,166,186,206,226,246,265,286,305,325,346,365,385,405,426,445,465,485,506,526,546,566,585,605,625,646,665,686,705,725,746,765,786,805,825,847,865,886,905,925,945,965,985,1005,1026,1047],"xSR":741.5,"ySR":469.95,"xT1":424.9,"yT1":0,"xT2":1058.1,"yT2":0,"toosoon":0,"cond_shown":"equaldotsize","ratio_trial":750,"smaller_num":"18","larger_num":"24","correct_side":1,"subjID":"GabrielaBarrios19","gender":"1","age":"9","school":"4"},{"start_time":1552074714123,"click_time":1552074715318,"finger_time":1552074714877,"fix_duration":723.515799652823,"trial":27,"RT":754,"MT":441,"sideResp":2,"stimulus":"img/900/equaldotanddens/R/13_Ratio_900_L_18_R_20.png","xmouse":[795,795,795,795,795,795,795,795,795,795,795,795,795,795,795,795,795,795,795,795,795,795,795,795,795,795,795,795,795,795,795,795,795,795,795,802,837,887,933,969,1006,1023,1035,1041,1047,1055,1060,1069,1078,1085,1092,1096,1097,1099,1100,1104,1107,1109,1110,1112],"ymouse":[527,527,527,527,527,527,527,527,527,527,527,527,527,527,527,527,527,527,527,527,527,527,527,527,527,527,527,527,527,527,527,527,527,527,527,524,514,507,495,483,457,423,394,371,343,290,261,233,212,194,170,157,152,146,142,128,120,113,104,97],"timestamp_mouse":[14,37,54,75,93,114,134,154,174,195,214,234,255,274,294,314,334,354,374,395,415,435,455,475,494,515,535,554,574,595,615,634,654,675,694,715,734,754,774,794,814,834,854,875,894,914,934,954,975,994,1014,1033,1054,1074,1094,1114,1135,1155,1175,1195],"xSR":741.5,"ySR":469.95,"xT1":424.9,"yT1":0,"xT2":1058.1,"yT2":0,"toosoon":0,"cond_shown":"equaldotanddens","ratio_trial":900,"smaller_num":"18","larger_num":"20","correct_side":2,"subjID":"GabrielaBarrios19","gender":"1","age":"9","school":"4"},{"start_time":1552074719146,"click_time":1552074720178,"finger_time":1552074719957,"fix_duration":1426.2277396221868,"trial":28,"RT":811,"MT":221,"sideResp":1,"stimulus":"img/500/randomdotsizeEA/L/7_Ratio_500_L_10_R_5.png","xmouse":[771,771,771,771,771,771,771,771,770,770,770,770,770,770,770,770,770,770,770,770,770,770,770,770,770,770,770,770,770,770,770,770,770,770,770,760,755,751,750,747,734,722,711,696,651,630,608,591,572,558,525,505],"ymouse":[519,519,519,519,519,519,519,519,519,519,519,519,519,519,519,519,519,519,519,519,519,519,519,519,519,519,519,519,519,519,519,519,519,518,514,495,490,485,484,482,468,452,425,381,266,220,180,155,129,114,84,70],"timestamp_mouse":[20,43,52,72,91,113,132,152,171,192,212,231,252,272,292,312,331,353,372,391,412,432,452,471,491,511,532,552,572,591,611,632,652,672,691,711,731,752,771,791,811,831,851,872,892,911,931,951,972,992,1011,1031],"xSR":741.5,"ySR":469.95,"xT1":424.9,"yT1":0,"xT2":1058.1,"yT2":0,"toosoon":0,"cond_shown":"randomdotsizeEA","ratio_trial":500,"smaller_num":"5","larger_num":"10","correct_side":1,"subjID":"GabrielaBarrios19","gender":"1","age":"9","school":"4"},{"start_time":1552074722248,"click_time":1552074723437,"finger_time":1552074723057,"fix_duration":1409.750476927681,"trial":29,"RT":809,"MT":380,"sideResp":1,"stimulus":"img/750/equaldotanddens/L/1_Ratio_750_L_20_R_15.png","xmouse":[773,773,772,772,772,772,772,772,772,772,772,772,772,772,772,772,772,772,772,772,772,772,772,772,772,772,772,772,772,772,772,772,772,772,772,772,772,772,765,735,722,715,704,692,670,659,647,637,634,630,619,601,579,542,473,464,463,463,463],"ymouse":[522,522,529,529,529,529,529,529,529,529,529,529,529,529,529,529,529,529,529,529,529,529,529,529,529,529,529,529,529,529,529,529,529,529,529,529,529,529,494,404,358,336,317,303,285,275,265,258,255,255,252,245,232,205,138,123,112,102,94],"timestamp_mouse":[38,49,70,89,110,129,150,170,189,209,229,249,269,290,310,330,349,369,389,409,429,450,470,489,509,529,549,569,590,610,629,650,669,690,710,729,750,770,789,809,830,849,869,890,910,929,949,969,990,1010,1030,1049,1070,1089,1109,1129,1149,1170,1189],"xSR":741.5,"ySR":469.95,"xT1":424.9,"yT1":0,"xT2":1058.1,"yT2":0,"toosoon":0,"cond_shown":"equaldotanddens","ratio_trial":750,"smaller_num":"15","larger_num":"20","correct_side":1,"subjID":"GabrielaBarrios19","gender":"1","age":"9","school":"4"},{"start_time":1552074725026,"click_time":1552074726417,"finger_time":1552074726178,"fix_duration":788.8379432142526,"trial":30,"RT":1152,"MT":239,"sideResp":1,"stimulus":"img/750/equaldotsize/L/10_Ratio_750_L_4_R_3.png","xmouse":[807,807,807,807,807,807,807,807,807,807,807,807,807,807,807,807,807,807,807,807,807,807,807,807,807,807,807,807,807,807,807,807,807,807,807,807,807,807,807,807,807,807,807,807,807,807,807,807,807,807,807,807,807,807,807,807,805,815,813,801,778,676,638,609,589,579,567,554,540,522],"ymouse":[530,530,530,530,530,530,530,530,530,530,530,530,530,530,530,530,530,530,530,530,530,530,530,530,530,530,530,530,530,530,530,530,530,530,530,530,530,530,530,530,530,530,530,530,530,530,530,530,530,530,530,530,530,530,530,530,527,453,408,369,327,221,194,178,167,161,148,134,117,98],"timestamp_mouse":[13,32,52,72,92,111,132,152,171,192,211,231,252,271,291,311,331,351,372,392,411,431,452,472,491,511,531,552,571,593,611,631,652,671,692,711,731,751,772,792,812,831,851,872,891,912,931,952,971,992,1011,1031,1052,1071,1091,1112,1131,1152,1172,1191,1211,1231,1252,1271,1291,1311,1332,1351,1372,1391],"xSR":741.5,"ySR":469.95,"xT1":424.9,"yT1":0,"xT2":1058.1,"yT2":0,"toosoon":0,"cond_shown":"equaldotsize","ratio_trial":750,"smaller_num":"3","larger_num":"4","correct_side":1,"subjID":"GabrielaBarrios19","gender":"1","age":"9","school":"4"},{"start_time":1552074729620,"click_time":1552074730777,"finger_time":1552074730378,"fix_duration":1099.780093132323,"trial":31,"RT":758,"MT":399,"sideResp":1,"stimulus":"img/250/equaldotanddens/L/1_Ratio_250_L_8_R_2.png","xmouse":[787,787,787,787,787,787,787,787,787,787,787,787,787,787,787,787,787,787,787,787,787,787,787,787,787,787,787,787,787,787,787,787,787,787,787,787,787,746,679,626,582,555,516,504,492,478,445,429,420,420,420,420,435,447,456,461,465,471],"ymouse":[543,543,543,543,543,543,543,543,543,543,543,543,543,543,543,543,543,543,543,543,543,543,543,543,543,543,543,543,543,543,543,543,543,543,543,543,535,451,381,338,306,289,263,254,246,235,209,193,180,179,179,179,156,141,126,118,109,99],"timestamp_mouse":[17,40,57,78,98,117,138,157,178,197,217,237,258,278,298,318,337,358,378,397,417,438,457,478,498,517,537,558,578,598,617,638,658,678,698,718,737,758,777,797,818,837,858,878,897,918,939,957,978,997,1017,1037,1057,1077,1098,1118,1139,1157],"xSR":741.5,"ySR":469.95,"xT1":424.9,"yT1":0,"xT2":1058.1,"yT2":0,"toosoon":0,"cond_shown":"equaldotanddens","ratio_trial":250,"smaller_num":"2","larger_num":"8","correct_side":1,"subjID":"GabrielaBarrios19","gender":"1","age":"9","school":"4"},{"start_time":1552074732784,"click_time":1552074733877,"finger_time":1552074733477,"fix_duration":1324.0831040575033,"trial":32,"RT":693,"MT":400,"sideResp":2,"stimulus":"img/900/equaldotsize/R/15_Ratio_900_L_9_R_10.png","xmouse":[786,786,786,786,786,786,786,786,786,786,786,786,786,786,786,786,786,786,786,786,786,786,786,786,786,803,819,826,826,826,826,826,826,829,870,911,950,981,1005,1034,1040,1047,1052,1057,1064,1066,1069,1073,1074,1075,1078,1080,1084,1087,1093],"ymouse":[539,539,539,539,539,539,539,539,539,539,539,539,539,539,539,539,539,539,539,539,539,539,539,539,539,547,552,553,553,553,553,553,553,553,527,497,467,438,405,320,268,227,202,183,167,162,156,151,146,135,127,121,114,110,98],"timestamp_mouse":[13,41,54,74,94,113,134,154,174,193,214,234,254,274,293,313,334,353,373,393,413,433,453,474,493,513,533,553,573,593,614,634,654,673,693,713,733,754,773,793,814,833,854,873,893,914,934,954,973,993,1013,1034,1054,1074,1093],"xSR":741.5,"ySR":469.95,"xT1":424.9,"yT1":0,"xT2":1058.1,"yT2":0,"toosoon":0,"cond_shown":"equaldotsize","ratio_trial":900,"smaller_num":"9","larger_num":"10","correct_side":2,"subjID":"GabrielaBarrios19","gender":"1","age":"9","school":"4"},{"start_time":1552074735568,"click_time":1552074736597,"finger_time":1552074736237,"fix_duration":748.9183807719143,"trial":33,"RT":669,"MT":360,"sideResp":1,"stimulus":"img/750/equaldotsize/R/4_Ratio_750_L_15_R_20.png","xmouse":[788,788,788,788,788,788,788,788,788,788,788,788,788,788,788,788,788,788,788,788,788,788,788,788,788,788,788,787,787,787,787,787,780,770,751,674,656,650,648,640,627,617,601,578,545,545,545,545,545,545,545,482],"ymouse":[541,541,541,541,541,541,541,541,541,541,541,541,541,541,541,541,541,541,541,541,541,541,541,541,540,540,540,539,539,539,539,539,493,463,398,217,172,147,129,103,76,63,48,32,7,7,7,7,7,7,7,5],"timestamp_mouse":[13,42,50,70,90,109,129,149,169,189,209,230,250,269,290,310,330,350,370,390,410,430,450,470,489,509,530,550,569,589,609,630,649,669,689,710,729,749,769,790,809,829,850,870,889,911,929,949,970,989,1010,1029],"xSR":741.5,"ySR":469.95,"xT1":424.9,"yT1":0,"xT2":1058.1,"yT2":0,"toosoon":0,"cond_shown":"equaldotsize","ratio_trial":750,"smaller_num":"15","larger_num":"20","correct_side":2,"subjID":"GabrielaBarrios19","gender":"1","age":"9","school":"4"},{"start_time":1552074737689,"click_time":1552074738738,"finger_time":1552074738497,"fix_duration":250,"trial":34,"RT":808,"MT":241,"sideResp":1,"stimulus":"img/500/equaldotsize/L/4_Ratio_500_L_18_R_9.png","xmouse":[779,780,780,789,793,797,798,798,798,798,798,798,798,798,798,798,798,798,799,799,799,799,799,799,799,799,799,799,801,804,805,805,805,805,805,805,806,806,806,796,753,721,666,646,628,625,622,618,609,581,548,539,522],"ymouse":[541,542,542,544,545,547,547,547,547,547,547,547,547,547,547,547,547,548,548,548,548,548,548,548,548,548,548,548,548,548,548,548,548,548,548,548,548,548,525,481,379,323,246,217,194,191,186,181,169,127,91,81,65],"timestamp_mouse":[15,42,48,69,88,108,128,148,168,188,208,228,249,268,289,308,328,349,368,388,409,428,449,468,488,508,528,548,568,590,608,628,648,669,689,709,728,748,769,788,808,828,848,868,889,908,928,949,969,990,1009,1029,1049],"xSR":741.5,"ySR":469.95,"xT1":424.9,"yT1":0,"xT2":1058.1,"yT2":0,"toosoon":0,"cond_shown":"equaldotsize","ratio_trial":500,"smaller_num":"9","larger_num":"18","correct_side":1,"subjID":"GabrielaBarrios19","gender":"1","age":"9","school":"4"},{"start_time":1552074739904,"click_time":1552074740858,"finger_time":1552074740577,"fix_duration":303.57872991592814,"trial":35,"RT":673,"MT":281,"sideResp":1,"stimulus":"img/900/equaldotsize/L/4_Ratio_900_L_20_R_18.png","xmouse":[791,791,791,791,791,791,791,791,791,791,791,791,791,791,791,791,791,791,791,791,791,791,791,791,791,791,791,791,791,791,791,789,786,771,727,709,695,689,684,672,654,638,618,595,551,538,526,517],"ymouse":[519,519,519,519,519,519,519,519,519,519,519,519,519,519,519,519,519,519,519,519,519,519,519,519,519,519,519,519,519,519,519,512,499,462,396,374,361,352,343,322,291,263,231,200,142,122,106,92],"timestamp_mouse":[20,40,53,73,93,113,133,154,174,194,214,233,253,273,293,313,333,353,374,394,413,433,454,474,493,514,534,554,573,593,614,633,653,673,693,714,733,754,774,793,812,833,854,874,893,914,933,954],"xSR":741.5,"ySR":469.95,"xT1":424.9,"yT1":0,"xT2":1058.1,"yT2":0,"toosoon":0,"cond_shown":"equaldotsize","ratio_trial":900,"smaller_num":"18","larger_num":"20","correct_side":1,"subjID":"GabrielaBarrios19","gender":"1","age":"9","school":"4"},{"start_time":1552074741649,"click_time":1552074743057,"finger_time":1552074742538,"fix_duration":250,"trial":36,"RT":889,"MT":519,"sideResp":1,"stimulus":"img/500/equaldotsize/L/7_Ratio_500_L_10_R_5.png","xmouse":[811,811,811,811,811,811,811,811,811,811,811,811,811,811,811,811,811,811,811,811,811,811,811,811,811,811,811,811,811,811,811,811,811,811,811,811,811,811,811,811,811,811,796,748,680,596,542,514,514,514,514,512,487,479,474,472,471,471,471,471,471,471,472,472,472,472,472,472,472,472,474],"ymouse":[560,560,560,560,560,560,560,560,560,560,560,560,560,560,560,560,560,560,560,560,560,560,560,560,560,560,560,560,560,560,560,560,560,560,560,560,560,560,560,560,560,560,536,473,404,330,284,248,248,248,248,242,189,172,157,146,138,120,111,106,103,103,103,103,103,103,103,103,103,100,97],"timestamp_mouse":[9,30,48,69,88,108,129,149,169,189,208,228,248,269,288,309,328,349,369,389,410,429,448,468,488,508,528,548,568,589,608,628,649,668,689,709,729,748,768,788,809,829,848,868,889,908,928,948,969,988,1008,1029,1048,1069,1088,1109,1129,1148,1168,1188,1209,1228,1248,1268,1288,1308,1329,1349,1368,1389,1408],"xSR":741.5,"ySR":469.95,"xT1":424.9,"yT1":0,"xT2":1058.1,"yT2":0,"toosoon":0,"cond_shown":"equaldotsize","ratio_trial":500,"smaller_num":"5","larger_num":"10","correct_side":1,"subjID":"GabrielaBarrios19","gender":"1","age":"9","school":"4"},{"start_time":1552074744741,"click_time":1552074746417,"finger_time":1552074744997,"fix_duration":1042.8059589886157,"trial":37,"RT":256,"MT":1420,"sideResp":2,"stimulus":"img/750/equaldotanddens/L/9_Ratio_750_L_4_R_3.png","xmouse":[814,814,814,814,814,814,814,814,814,814,825,834,857,861,863,864,864,864,864,864,864,864,864,864,864,864,864,864,864,864,864,864,864,864,864,864,864,864,864,864,864,864,864,864,864,864,864,864,864,864,864,864,864,864,864,864,864,864,864,864,864,864,864,900,933,978,1000,1031,1044,1052,1058,1061,1063,1064,1064,1064,1064,1064,1064,1064,1065,1067,1071,1075],"ymouse":[522,522,522,522,522,522,522,522,522,522,521,521,521,521,521,521,521,521,521,521,521,521,521,521,521,521,521,521,521,521,521,521,521,521,521,521,521,521,521,521,521,521,521,521,521,521,521,521,521,521,521,521,521,521,521,521,521,521,521,521,521,521,521,493,470,435,419,384,364,348,333,319,303,299,291,267,247,191,166,146,131,123,108,99],"timestamp_mouse":[17,41,56,76,96,116,137,156,176,197,217,237,256,276,296,318,336,357,377,397,417,436,457,476,497,516,536,557,576,597,616,636,657,676,697,717,736,757,777,796,817,836,856,876,896,916,937,957,977,996,1017,1037,1057,1077,1096,1117,1136,1157,1176,1196,1216,1236,1257,1276,1296,1317,1336,1358,1376,1397,1416,1436,1458,1476,1496,1516,1537,1557,1576,1597,1616,1637,1657,1676],"xSR":741.5,"ySR":469.95,"xT1":424.9,"yT1":0,"xT2":1058.1,"yT2":0,"toosoon":0,"cond_shown":"equaldotanddens","ratio_trial":750,"smaller_num":"3","larger_num":"4","correct_side":1,"subjID":"GabrielaBarrios19","gender":"1","age":"9","school":"4"},{"start_time":1552074751147,"click_time":1552074752597,"finger_time":1552074752238,"fix_duration":508.95374203164744,"trial":38,"RT":1091,"MT":359,"sideResp":1,"stimulus":"img/750/equaldotanddens/L/10_Ratio_750_L_4_R_3.png","xmouse":[779,779,779,779,779,779,779,779,779,779,779,779,779,779,779,779,779,779,779,779,779,779,779,779,779,779,779,779,779,779,779,779,779,779,779,779,779,779,779,779,779,779,779,779,779,773,770,770,770,770,770,770,770,768,734,721,710,700,688,680,670,657,643,632,630,630,630,630,630,628,593,528,481],"ymouse":[538,538,538,538,538,538,538,538,538,538,538,538,538,538,538,538,538,538,538,538,538,538,538,538,538,538,538,538,538,538,538,538,538,538,538,538,538,538,538,538,538,538,538,538,536,509,502,502,502,502,502,502,502,499,441,413,392,369,328,296,256,210,163,125,118,117,117,117,117,115,102,85,69],"timestamp_mouse":[12,33,50,70,92,110,130,151,170,191,210,230,250,270,290,310,330,351,370,391,410,431,450,470,491,511,531,550,570,590,611,630,651,670,691,710,731,750,770,790,812,831,851,870,891,911,931,950,970,990,1010,1030,1050,1070,1091,1110,1131,1151,1171,1192,1210,1230,1250,1271,1290,1312,1330,1350,1371,1390,1410,1430,1450],"xSR":741.5,"ySR":469.95,"xT1":424.9,"yT1":0,"xT2":1058.1,"yT2":0,"toosoon":0,"cond_shown":"equaldotanddens","ratio_trial":750,"smaller_num":"3","larger_num":"4","correct_side":1,"subjID":"GabrielaBarrios19","gender":"1","age":"9","school":"4"},{"start_time":1552074756873,"click_time":1552074757917,"finger_time":1552074757817,"fix_duration":735.0754489264967,"trial":39,"RT":944,"MT":100,"sideResp":1,"stimulus":"img/750/randomdotsizeEA/L/8_Ratio_750_L_4_R_3.png","xmouse":[789,789,789,789,789,789,789,789,789,789,789,789,789,789,789,789,789,789,789,789,789,789,789,789,789,789,789,789,789,789,789,789,789,789,789,789,789,789,789,789,789,789,789,789,789,789,789,774,707,644,565,507,479],"ymouse":[531,531,531,531,531,531,531,531,531,531,531,531,531,531,531,531,531,531,531,531,531,531,531,531,531,531,531,531,531,531,531,531,531,531,531,531,531,531,531,531,531,531,531,531,531,531,531,450,322,240,165,109,70],"timestamp_mouse":[13,25,43,65,85,104,124,144,165,184,205,224,244,265,284,304,324,345,364,384,404,425,445,465,484,505,526,544,565,585,604,625,644,664,685,705,726,744,765,786,805,824,845,864,884,904,925,944,964,984,1005,1024,1044],"xSR":741.5,"ySR":469.95,"xT1":424.9,"yT1":0,"xT2":1058.1,"yT2":0,"toosoon":0,"cond_shown":"randomdotsizeEA","ratio_trial":750,"smaller_num":"3","larger_num":"4","correct_side":1,"subjID":"GabrielaBarrios19","gender":"1","age":"9","school":"4"},{"start_time":1552074761402,"click_time":1552074762318,"finger_time":1552074762057,"fix_duration":1123.1717512004634,"trial":40,"RT":655,"MT":261,"sideResp":1,"stimulus":"img/250/equaldotanddens/L/15_Ratio_250_L_12_R_3.png","xmouse":[783,783,783,783,783,783,783,783,783,783,783,783,783,783,783,783,783,783,783,783,783,783,783,783,783,783,783,783,783,783,779,760,649,603,582,578,578,578,578,578,573,545,517,493,482,452],"ymouse":[528,528,528,528,528,528,528,528,528,528,528,528,528,528,528,528,528,528,528,528,528,528,528,528,528,528,528,528,528,528,516,486,388,349,331,327,327,327,327,327,320,269,216,167,126,20],"timestamp_mouse":[16,37,55,75,95,116,135,156,176,195,216,235,255,276,296,316,335,356,375,396,416,434,456,475,496,515,535,555,576,596,616,635,655,675,695,715,735,756,775,796,815,835,855,875,895,915],"xSR":741.5,"ySR":469.95,"xT1":424.9,"yT1":0,"xT2":1058.1,"yT2":0,"toosoon":0,"cond_shown":"equaldotanddens","ratio_trial":250,"smaller_num":"3","larger_num":"12","correct_side":1,"subjID":"GabrielaBarrios19","gender":"1","age":"9","school":"4"},{"start_time":1552074764554,"click_time":1552074765677,"finger_time":1552074765497,"fix_duration":1214.9968766007419,"trial":41,"RT":943,"MT":180,"sideResp":1,"stimulus":"img/750/equaldotanddens/L/10_Ratio_750_L_4_R_3.png","xmouse":[768,768,768,768,768,768,768,768,768,768,768,768,768,768,768,768,768,768,768,768,768,768,768,768,768,768,768,768,768,768,768,768,768,768,768,768,768,768,768,768,768,768,768,768,768,768,748,684,616,537,480,477,477,477,477,477,477],"ymouse":[509,509,509,509,509,509,509,509,509,509,509,509,509,509,509,509,509,509,509,509,509,509,509,509,509,509,509,509,509,509,509,509,509,509,509,509,509,509,509,509,509,509,509,509,509,509,473,393,326,237,153,141,137,136,136,118,94],"timestamp_mouse":[12,37,44,62,83,103,124,144,162,183,202,224,244,263,283,303,323,343,364,384,404,422,443,463,483,504,524,543,564,583,603,623,643,664,684,704,724,743,764,783,803,824,843,864,884,904,924,943,963,983,1003,1024,1043,1063,1083,1103,1123],"xSR":741.5,"ySR":469.95,"xT1":424.9,"yT1":0,"xT2":1058.1,"yT2":0,"toosoon":0,"cond_shown":"equaldotanddens","ratio_trial":750,"smaller_num":"3","larger_num":"4","correct_side":1,"subjID":"GabrielaBarrios19","gender":"1","age":"9","school":"4"},{"start_time":1552074767896,"click_time":1552074768997,"finger_time":1552074768597,"fix_duration":1156.7202882299655,"trial":42,"RT":701,"MT":400,"sideResp":2,"stimulus":"img/250/randomdotsizeEA/R/9_Ratio_250_L_3_R_12.png","xmouse":[774,774,774,774,774,774,774,774,774,774,774,774,774,774,774,774,774,774,774,774,774,774,774,774,774,774,774,774,774,774,774,774,774,785,832,880,922,944,960,963,965,975,986,1033,1060,1079,1092,1100,1112,1114,1117,1120,1122,1122,1121,1121],"ymouse":[500,500,500,500,500,500,500,500,500,500,500,500,500,500,500,500,500,500,500,500,500,500,500,500,500,500,500,500,500,500,500,500,500,492,473,453,440,428,394,373,354,334,317,287,271,254,239,222,180,162,148,134,121,105,101,99],"timestamp_mouse":[10,22,41,61,81,101,122,141,162,182,202,222,241,260,282,300,321,342,361,381,400,421,442,461,480,502,521,542,561,582,602,622,642,661,682,701,720,742,761,782,801,821,842,861,881,901,922,942,961,981,1001,1021,1042,1061,1081,1101],"xSR":741.5,"ySR":469.95,"xT1":424.9,"yT1":0,"xT2":1058.1,"yT2":0,"toosoon":0,"cond_shown":"randomdotsizeEA","ratio_trial":250,"smaller_num":"3","larger_num":"12","correct_side":2,"subjID":"GabrielaBarrios19","gender":"1","age":"9","school":"4"},{"start_time":1552074770399,"click_time":1552074772017,"finger_time":1552074771177,"fix_duration":779.4362710809538,"trial":43,"RT":778,"MT":840,"sideResp":2,"stimulus":"img/750/randomdotsizeEA/R/3_Ratio_750_L_15_R_20.png","xmouse":[778,778,778,778,778,778,778,778,778,778,778,778,778,778,778,778,778,778,778,778,778,778,778,778,778,778,778,778,778,778,778,778,778,778,778,778,778,778,757,742,726,705,682,666,663,660,655,644,613,599,584,582,582,582,582,582,582,582,585,605,676,710,821,973,1015,1040,1059,1073,1102,1115,1130,1145,1148,1149,1149,1147,1143,1139,1134,1132,1130,1129],"ymouse":[547,547,547,547,547,547,547,547,547,547,547,547,547,547,547,547,547,547,547,547,547,547,547,547,547,547,547,547,547,547,547,547,547,547,547,547,546,545,473,444,420,390,355,321,304,289,269,249,207,192,180,178,178,178,178,178,178,178,179,201,249,265,297,306,298,286,266,240,205,198,191,182,175,156,145,133,124,116,106,103,101,97],"timestamp_mouse":[6,20,43,57,78,97,118,138,159,177,199,218,239,257,277,299,319,338,359,378,397,419,439,458,478,499,519,538,558,579,598,618,638,659,679,699,717,738,758,778,798,819,838,858,877,898,918,938,958,978,998,1019,1039,1059,1078,1098,1117,1139,1158,1179,1198,1218,1237,1259,1278,1298,1319,1339,1358,1378,1399,1419,1438,1460,1477,1498,1518,1539,1559,1578,1598,1618],"xSR":741.5,"ySR":469.95,"xT1":424.9,"yT1":0,"xT2":1058.1,"yT2":0,"toosoon":0,"cond_shown":"randomdotsizeEA","ratio_trial":750,"smaller_num":"15","larger_num":"20","correct_side":2,"subjID":"GabrielaBarrios19","gender":"1","age":"9","school":"4"},{"start_time":1552074774255,"click_time":1552074775357,"finger_time":1552074775078,"fix_duration":1415.8738901342538,"trial":44,"RT":823,"MT":279,"sideResp":1,"stimulus":"img/250/equaldotanddens/L/7_Ratio_250_L_8_R_2.png","xmouse":[801,801,801,801,801,801,801,801,801,801,801,801,801,801,801,801,801,801,801,801,801,801,801,801,801,801,801,801,801,801,801,801,801,801,801,801,801,801,801,799,792,745,714,678,649,628,608,596,588,579,569,550,542,536,530,524],"ymouse":[505,505,505,505,505,505,505,505,505,505,505,505,505,505,505,505,505,505,505,505,505,505,505,505,505,505,505,505,505,505,505,505,505,505,505,505,505,505,505,486,470,401,348,291,246,215,191,177,168,157,145,123,113,106,100,94],"timestamp_mouse":[13,36,42,63,82,102,122,143,161,181,202,222,241,262,282,302,323,343,361,382,403,422,443,463,483,502,522,542,563,582,602,623,642,662,683,702,723,743,762,783,802,823,842,863,883,903,922,942,962,982,1001,1022,1043,1063,1083,1102],"xSR":741.5,"ySR":469.95,"xT1":424.9,"yT1":0,"xT2":1058.1,"yT2":0,"toosoon":0,"cond_shown":"equaldotanddens","ratio_trial":250,"smaller_num":"2","larger_num":"8","correct_side":1,"subjID":"GabrielaBarrios19","gender":"1","age":"9","school":"4"},{"start_time":1552074777302,"click_time":1552074778377,"finger_time":1552074778238,"fix_duration":1223.2022241536954,"trial":45,"RT":936,"MT":139,"sideResp":1,"stimulus":"img/500/equaldotsize/L/5_Ratio_500_L_4_R_2.png","xmouse":[777,777,777,777,777,777,777,777,777,777,777,777,777,777,777,777,777,777,777,777,777,777,777,777,777,777,777,777,777,777,777,777,777,777,777,777,777,777,777,777,777,777,777,777,777,774,762,734,641,592,556,528,507,468],"ymouse":[487,487,487,487,487,487,487,487,487,487,487,487,487,487,487,487,487,487,487,487,487,487,487,487,487,487,487,487,487,487,487,487,487,487,487,487,487,487,487,487,487,487,487,487,487,478,448,383,250,198,162,133,115,67],"timestamp_mouse":[15,42,55,75,95,116,135,156,175,196,215,235,255,275,295,315,335,354,374,395,415,436,456,475,495,516,536,556,575,596,615,635,654,675,695,716,736,755,775,795,816,836,855,875,895,915,935,956,977,995,1015,1035,1055,1074],"xSR":741.5,"ySR":469.95,"xT1":424.9,"yT1":0,"xT2":1058.1,"yT2":0,"toosoon":0,"cond_shown":"equaldotsize","ratio_trial":500,"smaller_num":"2","larger_num":"4","correct_side":1,"subjID":"GabrielaBarrios19","gender":"1","age":"9","school":"4"},{"start_time":1552074781557,"click_time":1552074782679,"finger_time":1552074782378,"fix_duration":877.8463813108376,"trial":46,"RT":821,"MT":301,"sideResp":1,"stimulus":"img/250/equaldotanddens/L/5_Ratio_250_L_24_R_6.png","xmouse":[782,782,782,782,782,782,782,782,782,782,782,782,782,782,782,782,782,782,782,782,782,782,782,782,782,782,782,782,782,782,782,782,782,782,782,782,782,782,773,766,760,737,723,712,702,686,663,609,580,550,539,532,516,508,499,488,483],"ymouse":[527,527,527,527,527,527,527,527,527,527,527,527,527,527,527,527,527,527,527,527,527,527,527,527,527,527,527,527,527,527,527,527,527,527,527,527,527,527,514,492,472,432,414,400,388,374,355,313,289,261,243,223,185,162,136,110,91],"timestamp_mouse":[11,19,41,61,81,100,121,140,161,180,201,221,241,261,280,300,321,339,361,380,401,419,440,460,481,499,519,541,560,581,601,621,641,661,681,701,721,740,760,781,800,821,840,860,880,901,919,940,960,980,1000,1020,1041,1060,1079,1101,1121],"xSR":741.5,"ySR":469.95,"xT1":424.9,"yT1":0,"xT2":1058.1,"yT2":0,"toosoon":0,"cond_shown":"equaldotanddens","ratio_trial":250,"smaller_num":"6","larger_num":"24","correct_side":1,"subjID":"GabrielaBarrios19","gender":"1","age":"9","school":"4"},{"start_time":1552074784302,"click_time":1552074786218,"finger_time":1552074785317,"fix_duration":883.247415501954,"trial":47,"RT":1015,"MT":901,"sideResp":2,"stimulus":"img/900/equaldotanddens/L/4_Ratio_900_L_20_R_18.png","xmouse":[783,783,783,783,783,783,783,783,783,783,783,783,783,783,783,783,783,783,783,783,783,783,783,783,783,783,783,783,783,783,783,783,783,783,783,783,783,783,783,783,783,783,783,783,783,783,783,783,777,742,712,683,656,641,626,618,609,604,598,597,597,597,600,624,782,902,1085,1136,1204,1257,1261,1262,1264,1267,1270,1270,1270,1269,1265,1251,1233,1206,1169,1137,1110,1109,1109,1109,1109,1109,1109,1109,1109,1109,1109,1110],"ymouse":[518,518,518,518,518,518,518,518,518,518,518,518,518,518,518,518,518,518,518,518,518,518,518,518,518,518,518,518,518,518,518,518,518,518,518,518,518,518,518,518,518,518,518,518,518,518,518,518,512,471,443,418,396,381,363,350,334,324,315,311,311,311,310,310,322,330,338,338,338,301,275,250,231,213,180,157,138,126,116,107,106,106,102,101,101,101,101,102,102,102,102,102,102,102,100,95],"timestamp_mouse":[15,45,55,74,96,116,136,155,176,196,215,235,255,275,294,315,336,355,375,396,415,435,455,476,496,515,536,556,575,595,615,635,655,675,695,715,736,756,774,795,815,834,856,876,896,916,935,956,976,995,1015,1035,1055,1076,1095,1115,1135,1156,1175,1195,1216,1235,1256,1276,1295,1329,1335,1355,1375,1395,1416,1436,1456,1476,1495,1516,1536,1555,1576,1595,1615,1635,1656,1675,1694,1715,1735,1756,1775,1795,1816,1835,1855,1875,1895,1916],"xSR":741.5,"ySR":469.95,"xT1":424.9,"yT1":0,"xT2":1058.1,"yT2":0,"toosoon":0,"cond_shown":"equaldotanddens","ratio_trial":900,"smaller_num":"18","larger_num":"20","correct_side":1,"subjID":"GabrielaBarrios19","gender":"1","age":"9","school":"4"},{"start_time":1552074788119,"click_time":1552074789017,"finger_time":1552074788798,"fix_duration":1099.7634033196675,"trial":48,"RT":679,"MT":219,"sideResp":2,"stimulus":"img/500/equaldotanddens/R/9_Ratio_500_L_2_R_4.png","xmouse":[814,814,814,814,814,814,814,814,814,814,814,814,814,814,814,814,814,814,814,814,814,814,814,814,814,814,814,814,814,814,814,814,815,848,925,971,1049,1088,1126,1132,1132,1132,1131,1126,1126],"ymouse":[542,542,542,542,542,542,542,542,542,542,542,542,542,542,542,542,542,542,542,542,542,542,542,542,542,542,542,542,542,542,542,542,542,523,479,449,391,354,263,219,190,167,146,107,92],"timestamp_mouse":[18,42,59,79,99,118,138,159,177,199,219,239,258,278,299,318,338,359,379,399,419,438,459,478,499,518,538,559,577,599,618,639,658,679,698,717,738,758,779,798,819,838,859,878,898],"xSR":741.5,"ySR":469.95,"xT1":424.9,"yT1":0,"xT2":1058.1,"yT2":0,"toosoon":0,"cond_shown":"equaldotanddens","ratio_trial":500,"smaller_num":"2","larger_num":"4","correct_side":2,"subjID":"GabrielaBarrios19","gender":"1","age":"9","school":"4"},{"start_time":1552074791824,"click_time":1552074792857,"finger_time":1552074792678,"fix_duration":665.3794496534389,"trial":49,"RT":854,"MT":179,"sideResp":2,"stimulus":"img/500/equaldotanddens/R/15_Ratio_500_L_1_R_2.png","xmouse":[819,819,819,819,819,819,819,818,814,792,771,768,768,768,768,768,768,768,768,768,768,768,767,768,774,776,776,776,776,776,776,776,776,776,776,776,776,776,776,776,776,833,919,1004,1085,1095,1099,1104,1109,1118,1121,1123],"ymouse":[510,510,510,510,510,510,510,508,506,498,492,492,492,492,492,492,492,492,492,492,492,492,494,501,518,520,520,520,520,520,520,520,520,520,520,520,520,520,520,520,520,488,448,402,326,288,260,229,201,130,109,91],"timestamp_mouse":[13,41,54,73,93,114,134,154,173,193,212,234,254,274,294,314,333,353,373,394,414,433,454,474,494,513,533,554,573,593,613,632,653,673,694,714,734,753,773,794,813,834,854,873,893,912,932,954,973,993,1014,1033],"xSR":741.5,"ySR":469.95,"xT1":424.9,"yT1":0,"xT2":1058.1,"yT2":0,"toosoon":0,"cond_shown":"equaldotanddens","ratio_trial":500,"smaller_num":"1","larger_num":"2","correct_side":2,"subjID":"GabrielaBarrios19","gender":"1","age":"9","school":"4"},{"start_time":1552074793689,"click_time":1552074795477,"finger_time":1552074794817,"fix_duration":250,"trial":50,"RT":1128,"MT":660,"sideResp":1,"stimulus":"img/500/randomdotsizeEA/L/7_Ratio_500_L_10_R_5.png","xmouse":[836,836,836,830,826,814,794,792,791,789,788,788,787,786,786,785,785,785,785,785,785,785,785,785,785,785,785,785,785,785,785,785,785,785,785,785,785,785,785,785,785,785,785,785,785,785,785,785,785,785,785,785,785,785,774,754,711,703,700,699,699,699,699,699,699,699,699,699,699,699,702,733,750,764,774,787,835,876,921,955,974,985,980,954,903,799,624,569,539,510],"ymouse":[481,481,481,481,481,482,484,485,486,487,488,488,490,491,494,497,498,498,498,498,499,499,501,502,502,502,502,502,502,502,502,502,502,502,502,502,502,502,502,502,502,502,502,502,502,502,502,502,502,502,502,502,502,502,498,478,437,426,419,413,410,407,407,407,407,407,407,407,407,405,405,401,400,399,397,392,376,365,356,345,334,304,282,246,205,141,64,43,35,30],"timestamp_mouse":[10,30,48,68,88,108,128,148,169,188,208,228,249,268,289,309,328,348,367,388,408,428,448,469,487,509,528,548,569,588,608,627,649,669,687,709,727,747,769,789,808,828,847,868,889,909,929,948,968,989,1009,1028,1049,1068,1087,1109,1128,1149,1169,1189,1208,1228,1248,1267,1288,1309,1329,1349,1368,1388,1409,1429,1448,1468,1489,1507,1528,1548,1568,1588,1609,1628,1648,1668,1688,1708,1727,1748,1769,1788],"xSR":741.5,"ySR":469.95,"xT1":424.9,"yT1":0,"xT2":1058.1,"yT2":0,"toosoon":0,"cond_shown":"randomdotsizeEA","ratio_trial":500,"smaller_num":"5","larger_num":"10","correct_side":1,"subjID":"GabrielaBarrios19","gender":"1","age":"9","school":"4"},{"start_time":1552074796489,"click_time":1552074797437,"finger_time":1552074797157,"fix_duration":250,"trial":51,"RT":668,"MT":280,"sideResp":1,"stimulus":"img/500/equaldotanddens/L/8_Ratio_500_L_8_R_4.png","xmouse":[791,791,791,791,791,791,791,791,791,791,791,791,791,791,791,791,791,791,791,791,791,791,791,791,791,791,791,791,791,791,791,788,761,690,550,469,434,419,419,419,419,418,418,424,428,433,438,441],"ymouse":[543,543,543,543,543,543,543,543,543,543,543,543,543,543,543,543,543,543,543,543,543,543,543,543,543,543,543,543,543,543,543,543,527,472,365,309,274,246,238,229,221,186,169,150,135,122,105,97],"timestamp_mouse":[9,33,48,69,88,108,127,149,169,189,209,227,249,267,288,308,329,349,369,389,409,428,448,469,488,507,529,549,569,589,608,628,648,668,688,708,729,748,768,789,808,829,848,868,888,909,929,947],"xSR":741.5,"ySR":469.95,"xT1":424.9,"yT1":0,"xT2":1058.1,"yT2":0,"toosoon":0,"cond_shown":"equaldotanddens","ratio_trial":500,"smaller_num":"4","larger_num":"8","correct_side":1,"subjID":"GabrielaBarrios19","gender":"1","age":"9","school":"4"},{"start_time":1552074799190,"click_time":1552074800137,"finger_time":1552074799678,"fix_duration":952.2545911532193,"trial":52,"RT":488,"MT":459,"sideResp":1,"stimulus":"img/250/randomdotsizeEA/L/3_Ratio_250_L_8_R_2.png","xmouse":[830,830,830,831,831,831,831,829,827,825,823,822,821,819,815,813,812,811,811,811,810,803,792,772,741,722,709,702,702,702,702,698,665,632,591,566,550,536,534,534,540,541,542,542,539,535,529,512],"ymouse":[546,546,546,546,547,548,551,552,553,553,553,554,554,554,554,554,554,554,554,554,554,541,521,488,450,431,420,412,412,412,412,405,368,338,298,271,248,207,176,160,149,142,128,121,115,109,100,84],"timestamp_mouse":[7,27,47,67,87,108,128,147,167,187,208,228,248,267,287,306,327,347,367,388,408,428,447,468,488,508,527,547,567,587,607,627,647,667,688,707,727,747,767,787,808,827,847,868,887,908,927,947],"xSR":741.5,"ySR":469.95,"xT1":424.9,"yT1":0,"xT2":1058.1,"yT2":0,"toosoon":0,"cond_shown":"randomdotsizeEA","ratio_trial":250,"smaller_num":"2","larger_num":"8","correct_side":1,"subjID":"GabrielaBarrios19","gender":"1","age":"9","school":"4"},{"start_time":1552074802783,"click_time":1552074803917,"finger_time":1552074803617,"fix_duration":605.9108565944597,"trial":53,"RT":834,"MT":300,"sideResp":2,"stimulus":"img/900/equaldotsize/L/8_Ratio_900_L_20_R_18.png","xmouse":[782,782,782,782,782,782,782,782,782,782,782,782,782,782,782,782,782,782,782,782,782,782,782,782,782,782,782,782,782,782,782,782,782,782,782,782,782,782,782,788,807,845,939,974,989,1000,1009,1031,1042,1053,1065,1080,1106,1115,1123,1129,1130],"ymouse":[538,538,538,538,538,538,538,538,538,538,538,538,538,538,538,538,538,538,538,538,538,538,538,538,538,538,538,538,538,538,538,538,538,538,538,538,538,538,538,536,521,496,428,397,376,354,335,294,278,260,239,211,157,135,117,100,95],"timestamp_mouse":[14,34,55,75,94,113,134,155,174,195,215,234,254,275,295,315,334,354,375,394,415,434,454,475,495,515,534,554,575,595,615,633,653,675,694,714,735,753,775,794,815,834,855,874,894,915,934,954,975,994,1014,1035,1054,1074,1094,1115,1134],"xSR":741.5,"ySR":469.95,"xT1":424.9,"yT1":0,"xT2":1058.1,"yT2":0,"toosoon":0,"cond_shown":"equaldotsize","ratio_trial":900,"smaller_num":"18","larger_num":"20","correct_side":1,"subjID":"GabrielaBarrios19","gender":"1","age":"9","school":"4"},{"start_time":1552074805086,"click_time":1552074806277,"finger_time":1552074805938,"fix_duration":446.50518173809405,"trial":54,"RT":852,"MT":339,"sideResp":1,"stimulus":"img/500/randomdotsizeEA/L/5_Ratio_500_L_4_R_2.png","xmouse":[779,779,779,779,779,779,779,779,779,779,779,779,779,779,779,779,779,779,779,779,779,779,779,779,779,779,779,779,779,779,779,779,779,779,779,779,779,779,779,779,779,779,774,755,719,682,658,626,620,614,606,598,575,532,513,503,500,500,499,496],"ymouse":[542,542,542,542,542,542,542,542,542,542,542,542,542,542,542,542,542,542,542,542,542,542,542,542,542,542,542,542,542,542,542,542,542,542,542,542,542,542,542,542,542,537,460,410,349,294,259,215,205,198,187,183,168,140,126,118,115,115,103,80],"timestamp_mouse":[19,37,51,71,91,112,131,150,171,192,211,231,251,272,290,312,331,351,372,392,412,432,451,471,492,510,532,551,571,592,612,630,652,671,692,711,732,752,771,792,811,832,852,870,891,911,931,952,971,991,1011,1031,1051,1070,1090,1111,1132,1151,1172,1191],"xSR":741.5,"ySR":469.95,"xT1":424.9,"yT1":0,"xT2":1058.1,"yT2":0,"toosoon":0,"cond_shown":"randomdotsizeEA","ratio_trial":500,"smaller_num":"2","larger_num":"4","correct_side":1,"subjID":"GabrielaBarrios19","gender":"1","age":"9","school":"4"},{"start_time":1552074807895,"click_time":1552074810617,"finger_time":1552074810297,"fix_duration":914.7356836522359,"trial":55,"RT":2402,"MT":320,"sideResp":1,"stimulus":"img/750/equaldotsize/L/9_Ratio_750_L_4_R_3.png","xmouse":[804,804,804,804,804,804,804,804,804,804,804,804,804,804,804,804,804,804,804,804,804,804,804,804,804,804,804,804,804,804,804,804,804,804,804,804,804,804,804,804,804,804,804,804,804,804,804,804,804,804,804,804,804,804,804,804,804,804,804,804,804,804,804,804,804,804,804,804,804,804,804,804,804,804,804,804,804,804,804,804,804,804,804,804,804,804,804,804,804,804,804,804,804,804,804,804,804,804,804,804,804,804,804,804,804,804,804,804,804,804,804,804,804,804,804,804,804,804,804,799,773,733,679,609,592,585,584,582,562,534,534,534,534,534,534,534,459],"ymouse":[541,541,541,541,541,541,541,541,541,541,541,541,541,541,541,541,541,541,541,541,541,541,541,541,541,541,541,541,541,541,541,541,541,541,541,541,541,541,541,541,541,541,541,541,541,541,541,541,541,541,541,541,541,541,541,541,541,541,541,541,541,541,541,541,541,541,541,541,541,541,541,541,541,541,541,541,541,541,541,541,541,541,541,541,541,541,541,541,541,541,541,541,541,541,541,541,541,541,541,541,541,541,541,541,541,541,541,541,541,541,541,541,541,541,541,541,541,541,541,477,364,260,171,79,58,48,45,42,23,3,3,3,3,3,3,3,4],"timestamp_mouse":[12,22,44,62,82,102,123,143,162,183,202,222,242,261,283,302,322,341,363,383,402,423,443,463,483,501,523,543,562,582,603,623,643,663,683,703,721,742,762,782,802,823,841,863,883,902,921,942,961,982,1003,1021,1043,1063,1081,1103,1122,1141,1163,1183,1203,1222,1241,1263,1283,1302,1323,1343,1363,1383,1403,1423,1443,1461,1483,1501,1523,1543,1563,1582,1601,1623,1642,1662,1682,1702,1722,1741,1763,1783,1803,1823,1842,1863,1883,1903,1923,1943,1963,1983,2003,2022,2042,2063,2082,2103,2123,2142,2163,2183,2203,2222,2242,2263,2283,2303,2322,2343,2361,2382,2402,2422,2443,2462,2483,2501,2522,2543,2563,2582,2602,2622,2643,2663,2682,2702,2722],"xSR":741.5,"ySR":469.95,"xT1":424.9,"yT1":0,"xT2":1058.1,"yT2":0,"toosoon":0,"cond_shown":"equaldotsize","ratio_trial":750,"smaller_num":"3","larger_num":"4","correct_side":1,"subjID":"GabrielaBarrios19","gender":"1","age":"9","school":"4"},{"start_time":1552074812275,"click_time":1552074813377,"finger_time":1552074813157,"fix_duration":1054.4324022714638,"trial":56,"RT":882,"MT":220,"sideResp":1,"stimulus":"img/900/equaldotsize/R/3_Ratio_900_L_9_R_10.png","xmouse":[784,784,784,784,784,784,784,784,784,784,784,784,784,784,784,784,784,784,784,784,784,784,784,784,784,784,784,784,784,784,784,784,784,784,784,784,784,784,784,784,784,784,784,784,767,740,711,678,619,587,574,564,557,547,511,491],"ymouse":[521,521,521,521,521,521,521,521,521,521,521,521,521,521,521,521,521,521,521,521,521,521,521,521,521,521,521,521,521,521,521,521,521,521,521,521,521,521,521,521,521,521,521,516,454,402,354,305,237,209,199,189,180,165,121,99],"timestamp_mouse":[12,34,42,62,82,101,122,142,162,182,202,223,242,263,282,301,323,341,363,382,401,423,442,463,481,502,523,543,561,582,603,623,643,662,682,703,723,742,761,781,803,823,842,863,882,902,921,942,963,982,1002,1023,1043,1062,1083,1102],"xSR":741.5,"ySR":469.95,"xT1":424.9,"yT1":0,"xT2":1058.1,"yT2":0,"toosoon":0,"cond_shown":"equaldotsize","ratio_trial":900,"smaller_num":"9","larger_num":"10","correct_side":2,"subjID":"GabrielaBarrios19","gender":"1","age":"9","school":"4"},{"start_time":1552074814349,"click_time":1552074816617,"finger_time":1552074815638,"fix_duration":250,"trial":57,"RT":1289,"MT":979,"sideResp":1,"stimulus":"img/500/randomdotsizeEA/L/4_Ratio_500_L_18_R_9.png","xmouse":[805,804,804,802,802,801,801,801,801,801,801,801,801,801,801,801,801,801,801,801,801,801,801,801,801,801,801,801,801,801,801,801,801,801,801,801,801,801,801,801,801,801,801,801,801,801,801,802,802,806,807,808,809,809,809,809,809,809,809,805,788,772,747,737,731,732,737,745,755,769,807,845,863,877,888,901,903,906,911,925,939,948,958,964,968,970,970,970,970,970,970,970,971,973,976,983,983,983,983,984,941,871,746,659,600,546,528,514,505,500,499,498,498],"ymouse":[553,553,552,551,551,549,549,549,549,549,549,549,549,549,549,548,548,548,548,548,548,548,548,548,548,548,548,548,548,548,548,548,548,548,548,548,548,548,548,548,548,548,548,548,548,548,548,548,547,545,544,543,543,543,543,543,543,543,542,538,526,514,493,475,436,416,397,376,359,343,310,279,263,250,239,213,203,195,186,171,164,160,157,155,154,153,153,153,153,153,153,153,153,152,152,152,152,152,152,152,152,152,152,152,144,133,127,121,117,112,109,103,98],"timestamp_mouse":[28,48,68,88,108,129,149,169,188,208,229,248,269,289,309,329,347,369,389,408,428,447,469,489,508,529,549,569,589,608,627,649,669,687,709,729,748,769,789,808,829,848,869,887,909,929,947,969,989,1008,1029,1048,1067,1088,1109,1129,1148,1168,1189,1208,1228,1249,1267,1289,1309,1328,1349,1368,1389,1408,1428,1448,1468,1489,1508,1529,1548,1568,1588,1609,1627,1648,1669,1689,1709,1729,1749,1768,1787,1809,1829,1849,1869,1889,1908,1929,1948,1968,1987,2008,2028,2048,2069,2088,2108,2128,2148,2169,2188,2210,2228,2249,2268],"xSR":741.5,"ySR":469.95,"xT1":424.9,"yT1":0,"xT2":1058.1,"yT2":0,"toosoon":0,"cond_shown":"randomdotsizeEA","ratio_trial":500,"smaller_num":"9","larger_num":"18","correct_side":1,"subjID":"GabrielaBarrios19","gender":"1","age":"9","school":"4"},{"start_time":1552074817866,"click_time":1552074819397,"finger_time":1552074818577,"fix_duration":647.3833293587103,"trial":58,"RT":711,"MT":820,"sideResp":2,"stimulus":"img/500/equaldotanddens/R/14_Ratio_500_L_5_R_10.png","xmouse":[764,764,764,764,764,764,764,764,764,764,764,764,764,764,764,764,764,764,764,764,764,764,764,764,764,764,764,764,764,764,764,764,764,764,768,834,882,936,988,1028,1081,1098,1117,1141,1159,1182,1186,1187,1188,1188,1182,1176,1169,1165,1158,1140,1138,1137,1137,1137,1134,1130,1129,1129,1129,1129,1129,1129,1129,1129,1129,1129,1128,1127,1126,1126,1126],"ymouse":[509,509,509,509,509,509,509,509,509,509,509,509,509,509,509,509,509,509,509,509,509,509,509,509,509,509,509,509,509,509,509,509,509,509,508,467,447,433,417,403,372,353,326,289,257,210,197,192,188,186,178,174,168,163,160,157,157,156,156,156,153,147,144,143,143,143,143,143,143,141,139,134,129,123,117,103,94],"timestamp_mouse":[13,40,52,71,92,112,131,151,171,190,212,231,251,272,291,311,331,352,372,392,412,431,452,471,491,512,531,552,570,591,611,631,652,670,692,711,731,751,772,792,811,832,851,872,892,911,931,951,971,992,1012,1032,1051,1072,1091,1111,1132,1152,1171,1191,1210,1232,1252,1270,1292,1312,1332,1352,1371,1390,1412,1432,1451,1472,1492,1511,1530],"xSR":741.5,"ySR":469.95,"xT1":424.9,"yT1":0,"xT2":1058.1,"yT2":0,"toosoon":0,"cond_shown":"equaldotanddens","ratio_trial":500,"smaller_num":"5","larger_num":"10","correct_side":2,"subjID":"GabrielaBarrios19","gender":"1","age":"9","school":"4"},{"start_time":1552074823715,"click_time":1552074824896,"finger_time":1552074824577,"fix_duration":1476.86403239222,"trial":59,"RT":862,"MT":319,"sideResp":2,"stimulus":"img/750/randomdotsizeEA/R/12_Ratio_750_L_3_R_4.png","xmouse":[798,798,798,798,798,798,798,798,798,798,798,798,798,798,798,798,798,798,798,798,798,798,798,798,798,798,798,798,798,798,798,798,798,798,798,798,798,798,798,798,798,798,802,901,948,995,1042,1083,1124,1135,1142,1144,1144,1144,1142,1138,1133,1123,1110,1098],"ymouse":[531,531,531,531,531,531,531,531,531,531,531,531,531,531,531,531,531,531,531,531,531,531,531,531,531,531,531,531,531,531,531,531,531,531,531,531,531,531,531,531,531,531,528,491,469,444,408,372,306,279,245,213,202,196,177,167,149,127,105,79],"timestamp_mouse":[10,22,46,62,82,102,123,143,162,183,201,221,242,263,283,301,322,343,361,383,403,423,443,462,482,501,523,542,563,583,602,621,643,663,682,701,722,743,761,782,802,823,843,862,881,903,922,941,963,981,1002,1023,1043,1063,1082,1101,1122,1142,1161,1181],"xSR":741.5,"ySR":469.95,"xT1":424.9,"yT1":0,"xT2":1058.1,"yT2":0,"toosoon":0,"cond_shown":"randomdotsizeEA","ratio_trial":750,"smaller_num":"3","larger_num":"4","correct_side":2,"subjID":"GabrielaBarrios19","gender":"1","age":"9","school":"4"},{"start_time":1552074826045,"click_time":1552074826897,"finger_time":1552074826758,"fix_duration":326.157881356279,"trial":60,"RT":713,"MT":139,"sideResp":1,"stimulus":"img/500/equaldotanddens/L/10_Ratio_500_L_4_R_2.png","xmouse":[742,742,742,742,742,742,742,742,742,742,742,742,742,742,742,742,742,742,742,742,742,742,742,744,749,752,753,753,753,753,753,753,754,754,754,750,730,661,619,581,557,540,520],"ymouse":[536,536,536,536,536,536,536,536,536,536,536,536,536,536,536,536,536,536,536,536,536,536,536,536,534,532,532,532,532,532,532,532,531,515,482,437,374,220,160,114,87,66,41],"timestamp_mouse":[12,35,52,73,93,111,132,152,173,192,212,231,252,273,292,313,332,352,373,392,413,433,452,473,492,511,532,552,572,593,612,633,652,672,693,713,733,751,771,791,812,832,852],"xSR":741.5,"ySR":469.95,"xT1":424.9,"yT1":0,"xT2":1058.1,"yT2":0,"toosoon":0,"cond_shown":"equaldotanddens","ratio_trial":500,"smaller_num":"2","larger_num":"4","correct_side":1,"subjID":"GabrielaBarrios19","gender":"1","age":"9","school":"4"},{"start_time":1552074829782,"click_time":1552074831097,"finger_time":1552074830496,"fix_duration":764.7442642944242,"trial":61,"RT":714,"MT":601,"sideResp":1,"stimulus":"img/250/equaldotsize/L/1_Ratio_250_L_8_R_2.png","xmouse":[788,788,788,788,788,788,788,788,788,788,788,788,788,788,788,788,788,788,788,788,788,788,788,788,788,788,788,788,788,788,788,788,788,788,788,742,662,567,475,407,334,334,334,334,334,334,334,334,334,334,334,334,334,334,334,334,334,334,334,334,334,532,531,529,526,523],"ymouse":[519,519,519,519,519,519,519,519,519,519,519,519,519,519,519,519,519,519,519,519,519,519,519,519,519,519,519,519,519,519,519,519,519,519,519,466,381,286,188,108,14,14,14,14,14,14,14,14,14,14,14,14,14,14,14,14,14,14,14,14,14,3,7,13,19,28],"timestamp_mouse":[15,37,55,76,95,114,136,155,175,195,214,236,256,275,296,315,335,354,376,395,415,435,454,475,496,514,535,554,574,595,615,635,654,675,695,714,736,754,775,795,814,835,855,875,895,915,934,954,975,994,1015,1036,1055,1075,1094,1115,1134,1154,1175,1194,1215,1234,1255,1276,1294,1315],"xSR":741.5,"ySR":469.95,"xT1":424.9,"yT1":0,"xT2":1058.1,"yT2":0,"toosoon":0,"cond_shown":"equaldotsize","ratio_trial":250,"smaller_num":"2","larger_num":"8","correct_side":1,"subjID":"GabrielaBarrios19","gender":"1","age":"9","school":"4"},{"start_time":1552074835149,"click_time":1552074836118,"finger_time":1552074835837,"fix_duration":1069.391347422139,"trial":62,"RT":688,"MT":281,"sideResp":2,"stimulus":"img/250/equaldotanddens/R/13_Ratio_250_L_2_R_8.png","xmouse":[791,791,791,791,791,791,791,791,791,791,791,791,791,791,791,791,791,791,791,791,791,791,791,791,791,791,791,791,791,791,791,791,793,821,890,930,966,995,1036,1048,1060,1068,1077,1102,1113,1115,1117,1123,1137],"ymouse":[498,498,498,498,498,498,498,498,498,498,498,498,498,498,498,498,498,498,498,498,498,498,498,498,498,498,498,498,498,498,498,498,497,492,485,482,476,465,431,410,384,353,320,227,184,174,158,135,99],"timestamp_mouse":[12,31,47,69,88,107,128,148,168,188,209,227,249,276,288,308,329,349,368,387,407,428,448,469,488,507,529,548,569,587,608,628,648,668,688,707,727,748,768,789,809,828,848,867,894,908,927,947,968],"xSR":741.5,"ySR":469.95,"xT1":424.9,"yT1":0,"xT2":1058.1,"yT2":0,"toosoon":0,"cond_shown":"equaldotanddens","ratio_trial":250,"smaller_num":"2","larger_num":"8","correct_side":2,"subjID":"GabrielaBarrios19","gender":"1","age":"9","school":"4"},{"start_time":1552074837514,"click_time":1552074839417,"finger_time":1552074838978,"fix_duration":534.9569363671023,"trial":63,"RT":1464,"MT":439,"sideResp":2,"stimulus":"img/750/equaldotsize/R/7_Ratio_750_L_3_R_4.png","xmouse":[806,806,806,806,806,806,806,806,806,806,806,806,806,806,806,806,806,806,806,806,806,806,806,806,806,806,806,806,806,806,806,806,806,806,806,806,806,806,806,806,806,806,806,806,806,806,806,806,806,806,806,806,806,806,806,806,806,806,806,806,806,806,806,806,806,806,806,806,806,806,806,806,809,902,1104,1424,1488,1510,1536,1571,1571,1571,1571,1571,1571,1571,1571,1571,1571,1571,1571,1571,1571,1571,1571,1122],"ymouse":[505,505,505,505,505,505,505,505,505,505,505,505,505,505,505,505,505,505,505,505,505,505,505,505,505,505,505,505,505,505,505,505,505,505,505,505,505,505,505,505,505,505,505,505,505,505,505,505,505,505,505,505,505,505,505,505,505,505,505,505,505,505,505,505,505,505,505,505,505,505,505,505,505,493,468,443,428,403,336,245,245,245,245,245,245,245,245,245,245,245,245,245,245,245,245,9],"timestamp_mouse":[12,37,43,62,83,103,123,142,164,182,202,224,243,262,284,304,324,342,362,383,404,423,443,462,483,502,522,542,564,584,603,624,643,664,683,704,723,743,762,784,803,823,843,863,884,903,923,943,963,983,1002,1023,1043,1064,1084,1102,1123,1144,1164,1183,1203,1222,1242,1262,1283,1302,1323,1344,1363,1384,1402,1422,1444,1464,1483,1503,1523,1543,1563,1583,1603,1623,1643,1664,1684,1703,1723,1743,1763,1782,1803,1823,1843,1863,1884,1903],"xSR":741.5,"ySR":469.95,"xT1":424.9,"yT1":0,"xT2":1058.1,"yT2":0,"toosoon":0,"cond_shown":"equaldotsize","ratio_trial":750,"smaller_num":"3","larger_num":"4","correct_side":2,"subjID":"GabrielaBarrios19","gender":"1","age":"9","school":"4"},{"start_time":1552074844762,"click_time":1552074845558,"finger_time":1552074845516,"fix_duration":1344.5130647525757,"trial":64,"RT":754,"MT":42,"sideResp":1,"stimulus":"img/900/randomdotsizeEA/L/2_Ratio_900_L_20_R_18.png","xmouse":[792,792,792,792,792,792,792,792,792,792,792,792,792,792,792,792,792,792,792,792,792,792,792,792,792,792,792,792,792,792,792,792,792,792,792,788,771,675,536,490],"ymouse":[519,519,519,519,519,519,519,519,519,519,519,519,519,519,519,519,519,519,519,519,519,519,519,519,519,519,519,519,519,519,519,519,519,519,519,510,481,325,152,96],"timestamp_mouse":[14,38,55,76,94,114,136,155,176,194,215,236,255,276,295,315,335,355,376,396,416,435,456,476,494,514,534,554,576,594,616,634,655,674,695,715,735,754,774,795],"xSR":741.5,"ySR":469.95,"xT1":424.9,"yT1":0,"xT2":1058.1,"yT2":0,"toosoon":0,"cond_shown":"randomdotsizeEA","ratio_trial":900,"smaller_num":"18","larger_num":"20","correct_side":1,"subjID":"GabrielaBarrios19","gender":"1","age":"9","school":"4"},{"start_time":1552074849257,"click_time":1552074850456,"finger_time":1552074849377,"fix_duration":1238.2777292001872,"trial":65,"RT":120,"MT":1079,"sideResp":2,"stimulus":"img/900/randomdotsizeEA/L/8_Ratio_900_L_20_R_18.png","xmouse":[789,789,789,789,789,793,795,796,796,798,798,798,798,798,798,798,798,798,798,798,798,798,798,798,798,798,798,798,798,798,798,798,798,798,798,798,798,798,798,798,798,798,798,778,721,698,677,666,664,664,664,664,664,664,664,756,831,921,1002,1063,1137],"ymouse":[501,501,501,501,501,479,465,461,453,447,447,447,447,447,447,447,447,447,447,447,447,447,447,447,447,447,447,447,447,447,447,447,447,447,447,447,447,447,447,447,447,447,445,386,301,274,255,245,243,243,243,243,243,243,243,215,195,170,148,123,80],"timestamp_mouse":[2,19,40,59,80,100,120,140,161,181,199,221,240,260,281,300,321,340,359,381,401,420,441,461,480,501,521,540,561,580,600,619,640,659,680,701,721,739,760,781,801,821,841,861,881,899,919,940,960,981,1000,1019,1041,1061,1080,1101,1120,1140,1159,1179,1199],"xSR":741.5,"ySR":469.95,"xT1":424.9,"yT1":0,"xT2":1058.1,"yT2":0,"toosoon":0,"cond_shown":"randomdotsizeEA","ratio_trial":900,"smaller_num":"18","larger_num":"20","correct_side":1,"subjID":"GabrielaBarrios19","gender":"1","age":"9","school":"4"},{"start_time":1552074851730,"click_time":1552074852838,"finger_time":1552074852498,"fix_duration":250,"trial":66,"RT":768,"MT":340,"sideResp":1,"stimulus":"img/750/equaldotanddens/L/13_Ratio_750_L_8_R_6.png","xmouse":[783,783,783,783,783,783,783,784,785,785,785,786,786,786,786,787,788,789,789,789,789,790,790,790,790,790,790,790,790,790,790,790,790,790,790,790,790,790,785,764,741,691,669,647,631,619,602,600,600,600,600,599,585,563,534,500],"ymouse":[508,508,508,508,508,508,507,505,503,501,500,498,497,496,495,489,482,476,475,475,475,474,474,474,474,474,474,474,474,474,474,474,474,474,474,474,474,474,447,389,347,279,246,214,187,165,134,132,132,132,132,124,109,92,72,51],"timestamp_mouse":[12,39,47,68,87,106,127,148,167,187,207,227,246,267,288,309,326,347,368,388,406,427,446,468,488,506,526,548,567,588,608,627,648,667,687,708,727,747,768,788,808,826,847,867,887,906,927,946,967,987,1008,1027,1047,1067,1086,1108],"xSR":741.5,"ySR":469.95,"xT1":424.9,"yT1":0,"xT2":1