[{"start_time":1552309781871,"click_time":1552309782845,"finger_time":1552309782684,"fix_duration":1423.4095217277113,"trial":0,"RT":813,"MT":161,"sideResp":2,"stimulus":[],"xmouse":[767,767,767,767,767,767,767,767,767,767,767,767,768,771,774,775,775,775,775,775,770,766,763,763,763,763,763,763,763,763,763,763,763,763,763,768,774,781,792,810,861,896,941,993,1042,1106,1116,1121,1128],"ymouse":[542,542,542,542,542,542,542,542,542,542,542,539,530,522,517,515,515,515,515,515,514,514,513,513,513,513,513,513,513,513,513,513,513,513,513,513,513,512,501,478,366,296,237,191,156,114,106,101,94],"timestamp_mouse":[14,47,53,73,94,112,133,154,173,193,213,234,253,272,294,312,334,354,374,393,412,433,452,474,494,512,534,553,573,593,613,633,652,672,694,712,733,754,774,794,813,833,852,873,894,913,933,954,973],"xSR":741.5,"ySR":469.95,"xT1":424.9,"yT1":0,"xT2":1058.1,"yT2":0,"toosoon":0,"cond_shown":"Incongruent","ratio_trial":300,"L_num":13,"L_den":26,"R_num":12,"R_den":15,"correct_side":2,"subjID":"GABRIELABALLESTEROS3","gender":"1","age":"10","school":"4","test":{"fix_dur":[250,1500],"timestim":1000,"targets_dim":[100,100],"targets_relative_coord":[0.3,0.7],"size_stim":[880,420],"start_dim":[100,100],"size_start":[300,300],"size_fix":60,"samplingrate":20,"img_types":["Congruent","Incongruent"],"ratios":[100,200,300],"rep_conds":19,"nTrials":120,"trials_to_rest":500,"Trials_order":[83,104,86,77,98,95,25,45,105,33,67,114,21,43,64,116,52,20,17,96,63,5,73,19,110,16,118,112,93,62,50,46,87,101,22,69,82,108,100,72,109,49,11,10,36,84,74,40,70,111,58,51,47,8,32,41,53,26,39,35,34,7,9,79,117,90,4,31,30,99,103,24,106,61,60,68,28,66,92,89,2,115,57,55,29,12,78,76,0,88,59,80,81,1,44,97,113,56,18,15,37,23,119,107,38,13,14,42,6,71,94,3,65,75,48,91,102,85,54,27],"cond_shown":["Incongruent","Congruent","Congruent","Incongruent","Congruent","Incongruent","Incongruent","Incongruent","Incongruent","Incongruent","Incongruent","Congruent","Incongruent","Incongruent","Congruent","Congruent","Congruent","Congruent","Incongruent","Congruent","Incongruent","Incongruent","Incongruent","Incongruent","Congruent","Congruent","Congruent","Congruent","Incongruent","Congruent","Congruent","Congruent","Incongruent","Incongruent","Congruent","Incongruent","Congruent","Congruent","Congruent","Congruent","Incongruent","Incongruent","Incongruent","Congruent","Congruent","Congruent","Congruent","Congruent","Congruent","Incongruent","Congruent","Incongruent","Incongruent","Congruent","Congruent","Incongruent","Incongruent","Congruent","Incongruent","Incongruent","Congruent","Incongruent","Incongruent","Incongruent","Incongruent","Congruent","Congruent","Incongruent","Congruent","Incongruent","Incongruent","Congruent","Congruent","Incongruent","Congruent","Congruent","Congruent","Congruent","Congruent","Incongruent","Congruent","Incongruent","Incongruent","Incongruent","Incongruent","Congruent","Congruent","Congruent","Congruent","Congruent","Incongruent","Congruent","Incongruent","Incongruent","Congruent","Incongruent","Incongruent","Congruent","Congruent","Incongruent","Incongruent","Incongruent","Incongruent","Incongruent","Congruent","Incongruent","Congruent","Congruent","Congruent","Incongruent","Congruent","Incongruent","Incongruent","Incongruent","Congruent","Incongruent","Congruent","Incongruent","Congruent","Incongruent"],"ratio_trial":[300,200,200,300,200,300,100,200,200,200,100,100,200,100,300,200,300,200,300,100,200,300,100,100,200,300,300,300,200,200,200,300,200,300,300,200,300,100,300,100,100,100,300,300,100,100,200,300,300,200,300,200,300,200,200,300,300,200,200,300,300,100,200,100,200,100,300,100,100,200,100,100,300,100,100,200,300,100,200,300,200,100,200,100,300,100,100,300,100,300,300,200,200,100,200,100,300,200,100,200,100,300,300,300,200,100,200,100,100,300,300,200,300,200,100,100,100,100,100,200],"left_num":[13,16,9,2,6,4,13,7,1,1,6,2,4,3,4,7,20,8,1,3,7,3,6,10,16,18,12,11,4,16,8,12,7,13,4,7,20,11,2,4,3,6,7,7,7,3,8,9,20,3,2,9,4,15,11,7,13,3,7,4,1,9,1,1,6,6,3,11,6,1,2,3,4,6,11,3,8,11,6,4,7,17,3,17,8,4,15,1,6,8,7,14,11,4,20,9,4,16,4,7,6,13,4,1,5,3,16,7,8,7,1,14,13,4,10,1,7,6,1,1],"right_num":[12,9,13,6,7,8,12,6,2,2,11,6,1,11,13,18,8,3,2,4,12,4,13,9,9,9,2,1,14,12,7,2,4,12,1,6,14,4,10,15,11,3,8,20,15,2,2,3,5,11,10,8,8,4,3,8,12,11,4,6,11,6,2,8,3,15,4,9,15,3,8,2,2,13,6,14,1,6,3,2,18,10,11,10,9,6,13,3,15,1,8,6,3,8,9,14,8,12,6,14,11,12,6,3,14,8,9,15,2,8,3,12,12,6,3,8,15,3,3,2],"left_den":[26,30,30,4,12,5,26,15,3,3,10,5,30,5,20,15,25,15,2,20,10,6,10,25,30,20,24,22,6,20,15,24,15,26,10,15,25,22,20,10,5,12,10,14,14,6,15,10,25,4,20,15,5,25,22,10,26,10,15,5,5,18,3,2,20,12,6,22,12,2,4,6,5,10,22,6,16,22,15,20,15,30,4,30,10,8,25,5,12,16,10,28,20,8,25,15,5,20,8,10,10,26,5,2,10,5,30,14,16,10,5,30,26,5,25,2,14,12,2,3],"right_den":[15,27,26,30,10,16,20,9,15,15,22,12,3,22,26,27,16,9,10,16,24,20,26,18,27,15,10,5,30,20,21,10,6,15,10,9,28,10,25,30,22,5,20,25,25,5,6,5,10,20,25,10,16,10,10,20,15,22,6,12,22,10,15,20,6,25,5,15,25,10,20,5,4,26,15,20,5,15,15,4,27,15,20,15,18,10,26,6,25,5,20,20,4,20,15,28,16,20,10,28,22,15,12,15,20,16,27,25,5,20,6,18,15,10,10,20,25,5,5,15],"correct_side":[2,1,2,1,2,1,2,2,1,1,1,2,2,1,2,2,1,1,1,2,1,1,1,2,1,1,1,1,1,1,1,1,2,2,1,2,1,1,2,2,1,2,1,2,2,1,1,1,1,1,2,2,1,1,1,1,2,2,2,1,2,2,1,1,2,2,2,2,2,1,1,1,1,1,1,2,1,1,1,2,2,2,1,2,1,2,1,2,2,1,1,1,2,1,1,1,1,1,2,1,1,2,1,1,2,1,1,2,1,1,2,2,2,1,1,1,2,2,2,1],"img_shown":["img2/300/Incongruent/R/I_Dist_300_LN_13_LD_26_RN_12_RD_15_1.png","img2/200/Congruent/L/C_Dist_200_LN_16_LD_30_RN_9_RD_27_0.png","img2/200/Congruent/R/C_Dist_200_LN_9_LD_30_RN_13_RD_26_1.png","img2/300/Incongruent/L/I_Dist_300_LN_2_LD_4_RN_6_RD_30_0.png","img2/200/Congruent/R/C_Dist_200_LN_6_LD_12_RN_7_RD_10_1.png","img2/300/Incongruent/L/I_Dist_300_LN_4_LD_5_RN_8_RD_16_0.png","img2/100/Incongruent/R/I_Dist_100_LN_13_LD_26_RN_12_RD_20_1.png","img2/200/Incongruent/R/I_Dist_200_LN_7_LD_15_RN_6_RD_9_1.png","img2/200/Incongruent/L/I_Dist_200_LN_1_LD_3_RN_2_RD_15_0.png","img2/200/Incongruent/L/I_Dist_200_LN_1_LD_3_RN_2_RD_15_0.png","img2/100/Incongruent/L/I_Dist_100_LN_6_LD_10_RN_11_RD_22_0.png","img2/100/Congruent/R/C_Dist_100_LN_2_LD_5_RN_6_RD_12_1.png","img2/200/Incongruent/R/I_Dist_200_LN_4_LD_30_RN_1_RD_3_1.png","img2/100/Incongruent/L/I_Dist_100_LN_3_LD_5_RN_11_RD_22_0.png","img2/300/Congruent/R/C_Dist_300_LN_4_LD_20_RN_13_RD_26_1.png","img2/200/Congruent/R/C_Dist_200_LN_7_LD_15_RN_18_RD_27_1.png","img2/300/Congruent/L/C_Dist_300_LN_20_LD_25_RN_8_RD_16_0.png","img2/200/Congruent/L/C_Dist_200_LN_8_LD_15_RN_3_RD_9_0.png","img2/300/Incongruent/L/I_Dist_300_LN_1_LD_2_RN_2_RD_10_0.png","img2/100/Congruent/R/C_Dist_100_LN_3_LD_20_RN_4_RD_16_1.png","img2/200/Incongruent/L/I_Dist_200_LN_7_LD_10_RN_12_RD_24_0.png","img2/300/Incongruent/L/I_Dist_300_LN_3_LD_6_RN_4_RD_20_0.png","img2/100/Incongruent/L/I_Dist_100_LN_6_LD_10_RN_13_RD_26_0.png","img2/100/Incongruent/R/I_Dist_100_LN_10_LD_25_RN_9_RD_18_1.png","img2/200/Congruent/L/C_Dist_200_LN_16_LD_30_RN_9_RD_27_0.png","img2/300/Congruent/L/C_Dist_300_LN_18_LD_20_RN_9_RD_15_0.png","img2/300/Congruent/L/C_Dist_300_LN_12_LD_24_RN_2_RD_10_0.png","img2/300/Congruent/L/C_Dist_300_LN_11_LD_22_RN_1_RD_5_0.png","img2/200/Incongruent/L/I_Dist_200_LN_4_LD_6_RN_14_RD_30_0.png","img2/200/Congruent/L/C_Dist_200_LN_16_LD_20_RN_12_RD_20_0.png","img2/200/Congruent/L/C_Dist_200_LN_8_LD_15_RN_7_RD_21_0.png","img2/300/Congruent/L/C_Dist_300_LN_12_LD_24_RN_2_RD_10_0.png","img2/200/Incongruent/R/I_Dist_200_LN_7_LD_15_RN_4_RD_6_1.png","img2/300/Incongruent/R/I_Dist_300_LN_13_LD_26_RN_12_RD_15_1.png","img2/300/Congruent/L/C_Dist_300_LN_4_LD_10_RN_1_RD_10_0.png","img2/200/Incongruent/R/I_Dist_200_LN_7_LD_15_RN_6_RD_9_1.png","img2/300/Congruent/L/C_Dist_300_LN_20_LD_25_RN_14_RD_28_0.png","img2/100/Congruent/L/C_Dist_100_LN_11_LD_22_RN_4_RD_10_0.png","img2/300/Congruent/R/C_Dist_300_LN_2_LD_20_RN_10_RD_25_1.png","img2/100/Congruent/R/C_Dist_100_LN_4_LD_10_RN_15_RD_30_1.png","img2/100/Incongruent/L/I_Dist_100_LN_3_LD_5_RN_11_RD_22_0.png","img2/100/Incongruent/R/I_Dist_100_LN_6_LD_12_RN_3_RD_5_1.png","img2/300/Incongruent/L/I_Dist_300_LN_7_LD_10_RN_8_RD_20_0.png","img2/300/Congruent/R/C_Dist_300_LN_7_LD_14_RN_20_RD_25_1.png","img2/100/Congruent/R/C_Dist_100_LN_7_LD_14_RN_15_RD_25_1.png","img2/100/Congruent/L/C_Dist_100_LN_3_LD_6_RN_2_RD_5_0.png","img2/200/Congruent/L/C_Dist_200_LN_8_LD_15_RN_2_RD_6_0.png","img2/300/Congruent/L/C_Dist_300_LN_9_LD_10_RN_3_RD_5_0.png","img2/300/Congruent/L/C_Dist_300_LN_20_LD_25_RN_5_RD_10_0.png","img2/200/Incongruent/L/I_Dist_200_LN_3_LD_4_RN_11_RD_20_0.png","img2/300/Congruent/R/C_Dist_300_LN_2_LD_20_RN_10_RD_25_1.png","img2/200/Incongruent/R/I_Dist_200_LN_9_LD_15_RN_8_RD_10_1.png","img2/300/Incongruent/L/I_Dist_300_LN_4_LD_5_RN_8_RD_16_0.png","img2/200/Congruent/L/C_Dist_200_LN_15_LD_25_RN_4_RD_10_0.png","img2/200/Congruent/L/C_Dist_200_LN_11_LD_22_RN_3_RD_10_0.png","img2/300/Incongruent/L/I_Dist_300_LN_7_LD_10_RN_8_RD_20_0.png","img2/300/Incongruent/R/I_Dist_300_LN_13_LD_26_RN_12_RD_15_1.png","img2/200/Congruent/R/C_Dist_200_LN_3_LD_10_RN_11_RD_22_1.png","img2/200/Incongruent/R/I_Dist_200_LN_7_LD_15_RN_4_RD_6_1.png","img2/300/Incongruent/L/I_Dist_300_LN_4_LD_5_RN_6_RD_12_0.png","img2/300/Congruent/R/C_Dist_300_LN_1_LD_5_RN_11_RD_22_1.png","img2/100/Incongruent/R/I_Dist_100_LN_9_LD_18_RN_6_RD_10_1.png","img2/200/Incongruent/L/I_Dist_200_LN_1_LD_3_RN_2_RD_15_0.png","img2/100/Incongruent/L/I_Dist_100_LN_1_LD_2_RN_8_RD_20_0.png","img2/200/Incongruent/R/I_Dist_200_LN_6_LD_20_RN_3_RD_6_1.png","img2/100/Congruent/R/C_Dist_100_LN_6_LD_12_RN_15_RD_25_1.png","img2/300/Congruent/R/C_Dist_300_LN_3_LD_6_RN_4_RD_5_1.png","img2/100/Incongruent/R/I_Dist_100_LN_11_LD_22_RN_9_RD_15_1.png","img2/100/Congruent/R/C_Dist_100_LN_6_LD_12_RN_15_RD_25_1.png","img2/200/Incongruent/L/I_Dist_200_LN_1_LD_2_RN_3_RD_10_0.png","img2/100/Incongruent/L/I_Dist_100_LN_2_LD_4_RN_8_RD_20_0.png","img2/100/Congruent/L/C_Dist_100_LN_3_LD_6_RN_2_RD_5_0.png","img2/300/Congruent/L/C_Dist_300_LN_4_LD_5_RN_2_RD_4_0.png","img2/100/Incongruent/L/I_Dist_100_LN_6_LD_10_RN_13_RD_26_0.png","img2/100/Congruent/L/C_Dist_100_LN_11_LD_22_RN_6_RD_15_0.png","img2/200/Congruent/R/C_Dist_200_LN_3_LD_6_RN_14_RD_20_1.png","img2/300/Congruent/L/C_Dist_300_LN_8_LD_16_RN_1_RD_5_0.png","img2/100/Congruent/L/C_Dist_100_LN_11_LD_22_RN_6_RD_15_0.png","img2/200/Congruent/L/C_Dist_200_LN_6_LD_15_RN_3_RD_15_0.png","img2/300/Incongruent/R/I_Dist_300_LN_4_LD_20_RN_2_RD_4_1.png","img2/200/Congruent/R/C_Dist_200_LN_7_LD_15_RN_18_RD_27_1.png","img2/100/Incongruent/R/I_Dist_100_LN_17_LD_30_RN_10_RD_15_1.png","img2/200/Incongruent/L/I_Dist_200_LN_3_LD_4_RN_11_RD_20_0.png","img2/100/Incongruent/R/I_Dist_100_LN_17_LD_30_RN_10_RD_15_1.png","img2/300/Incongruent/L/I_Dist_300_LN_8_LD_10_RN_9_RD_18_0.png","img2/100/Congruent/R/C_Dist_100_LN_4_LD_8_RN_6_RD_10_1.png","img2/100/Congruent/L/C_Dist_100_LN_15_LD_25_RN_13_RD_26_0.png","img2/300/Congruent/R/C_Dist_300_LN_1_LD_5_RN_3_RD_6_1.png","img2/100/Congruent/R/C_Dist_100_LN_6_LD_12_RN_15_RD_25_1.png","img2/300/Congruent/L/C_Dist_300_LN_8_LD_16_RN_1_RD_5_0.png","img2/300/Incongruent/L/I_Dist_300_LN_7_LD_10_RN_8_RD_20_0.png","img2/200/Congruent/L/C_Dist_200_LN_14_LD_28_RN_6_RD_20_0.png","img2/200/Incongruent/R/I_Dist_200_LN_11_LD_20_RN_3_RD_4_1.png","img2/100/Incongruent/L/I_Dist_100_LN_4_LD_8_RN_8_RD_20_0.png","img2/200/Congruent/L/C_Dist_200_LN_20_LD_25_RN_9_RD_15_0.png","img2/100/Incongruent/L/I_Dist_100_LN_9_LD_15_RN_14_RD_28_0.png","img2/300/Incongruent/L/I_Dist_300_LN_4_LD_5_RN_8_RD_16_0.png","img2/200/Congruent/L/C_Dist_200_LN_16_LD_20_RN_12_RD_20_0.png","img2/100/Congruent/R/C_Dist_100_LN_4_LD_8_RN_6_RD_10_1.png","img2/200/Incongruent/L/I_Dist_200_LN_7_LD_10_RN_14_RD_28_0.png","img2/100/Incongruent/L/I_Dist_100_LN_6_LD_10_RN_11_RD_22_0.png","img2/300/Incongruent/R/I_Dist_300_LN_13_LD_26_RN_12_RD_15_1.png","img2/300/Incongruent/L/I_Dist_300_LN_4_LD_5_RN_6_RD_12_0.png","img2/300/Incongruent/L/I_Dist_300_LN_1_LD_2_RN_3_RD_15_0.png","img2/200/Congruent/R/C_Dist_200_LN_5_LD_10_RN_14_RD_20_1.png","img2/100/Incongruent/L/I_Dist_100_LN_3_LD_5_RN_8_RD_16_0.png","img2/200/Congruent/L/C_Dist_200_LN_16_LD_30_RN_9_RD_27_0.png","img2/100/Congruent/R/C_Dist_100_LN_7_LD_14_RN_15_RD_25_1.png","img2/100/Congruent/L/C_Dist_100_LN_8_LD_16_RN_2_RD_5_0.png","img2/300/Incongruent/L/I_Dist_300_LN_7_LD_10_RN_8_RD_20_0.png","img2/300/Congruent/R/C_Dist_300_LN_1_LD_5_RN_3_RD_6_1.png","img2/200/Incongruent/R/I_Dist_200_LN_14_LD_30_RN_12_RD_18_1.png","img2/300/Incongruent/R/I_Dist_300_LN_13_LD_26_RN_12_RD_15_1.png","img2/200/Incongruent/L/I_Dist_200_LN_4_LD_5_RN_6_RD_10_0.png","img2/100/Congruent/L/C_Dist_100_LN_10_LD_25_RN_3_RD_10_0.png","img2/100/Incongruent/L/I_Dist_100_LN_1_LD_2_RN_8_RD_20_0.png","img2/100/Congruent/R/C_Dist_100_LN_7_LD_14_RN_15_RD_25_1.png","img2/100/Incongruent/R/I_Dist_100_LN_6_LD_12_RN_3_RD_5_1.png","img2/100/Congruent/R/C_Dist_100_LN_1_LD_2_RN_3_RD_5_1.png","img2/200/Incongruent/L/I_Dist_200_LN_1_LD_3_RN_2_RD_15_0.png"],"dist100_C":[["C_Dist_100_LN_10_LD_25_RN_3_RD_10_0.png","C_Dist_100_LN_11_LD_22_RN_4_RD_10_0.png","C_Dist_100_LN_11_LD_22_RN_6_RD_15_0.png","C_Dist_100_LN_15_LD_25_RN_13_RD_26_0.png","C_Dist_100_LN_3_LD_6_RN_2_RD_5_0.png","C_Dist_100_LN_6_LD_20_RN_5_RD_25_0.png","C_Dist_100_LN_8_LD_16_RN_2_RD_5_0.png","C_Dist_100_LN_9_LD_15_RN_8_RD_16_0.png"],["C_Dist_100_LN_1_LD_2_RN_18_RD_30_1.png","C_Dist_100_LN_1_LD_2_RN_3_RD_5_1.png","C_Dist_100_LN_12_LD_30_RN_13_RD_26_1.png","C_Dist_100_LN_2_LD_5_RN_11_RD_22_1.png","C_Dist_100_LN_2_LD_5_RN_6_RD_12_1.png","C_Dist_100_LN_3_LD_20_RN_4_RD_16_1.png","C_Dist_100_LN_4_LD_10_RN_15_RD_30_1.png","C_Dist_100_LN_4_LD_8_RN_6_RD_10_1.png","C_Dist_100_LN_6_LD_12_RN_15_RD_25_1.png","C_Dist_100_LN_7_LD_14_RN_15_RD_25_1.png","C_Dist_100_LN_7_LD_14_RN_9_RD_15_1.png"]],"dist100_I":[["I_Dist_100_LN_1_LD_2_RN_8_RD_20_0.png","I_Dist_100_LN_2_LD_4_RN_6_RD_15_0.png","I_Dist_100_LN_2_LD_4_RN_8_RD_20_0.png","I_Dist_100_LN_3_LD_5_RN_11_RD_22_0.png","I_Dist_100_LN_3_LD_5_RN_8_RD_16_0.png","I_Dist_100_LN_3_LD_6_RN_4_RD_10_0.png","I_Dist_100_LN_3_LD_9_RN_7_RD_30_0.png","I_Dist_100_LN_4_LD_8_RN_8_RD_20_0.png","I_Dist_100_LN_6_LD_10_RN_11_RD_22_0.png","I_Dist_100_LN_6_LD_10_RN_13_RD_26_0.png","I_Dist_100_LN_6_LD_10_RN_7_RD_14_0.png","I_Dist_100_LN_9_LD_10_RN_20_RD_25_0.png","I_Dist_100_LN_9_LD_15_RN_13_RD_26_0.png","I_Dist_100_LN_9_LD_15_RN_14_RD_28_0.png"],["I_Dist_100_LN_10_LD_25_RN_8_RD_16_1.png","I_Dist_100_LN_10_LD_25_RN_9_RD_18_1.png","I_Dist_100_LN_11_LD_22_RN_9_RD_15_1.png","I_Dist_100_LN_12_LD_24_RN_9_RD_15_1.png","I_Dist_100_LN_12_LD_30_RN_2_RD_4_1.png","I_Dist_100_LN_13_LD_26_RN_12_RD_20_1.png","I_Dist_100_LN_13_LD_26_RN_6_RD_10_1.png","I_Dist_100_LN_17_LD_30_RN_10_RD_15_1.png","I_Dist_100_LN_6_LD_12_RN_3_RD_5_1.png","I_Dist_100_LN_8_LD_16_RN_6_RD_10_1.png","I_Dist_100_LN_8_LD_20_RN_1_RD_2_1.png","I_Dist_100_LN_9_LD_18_RN_6_RD_10_1.png"]],"dist100_S":[["E_Dist_100_LN_2_LD_12_RN_2_RD_30_0.png","E_Dist_100_LN_6_LD_10_RN_6_RD_12_0.png"],["E_Dist_100_LN_6_LD_12_RN_6_RD_10_1.png"]],"dist200_C":[["C_Dist_200_LN_11_LD_22_RN_3_RD_10_0.png","C_Dist_200_LN_12_LD_15_RN_6_RD_10_0.png","C_Dist_200_LN_12_LD_20_RN_6_RD_15_0.png","C_Dist_200_LN_14_LD_28_RN_6_RD_20_0.png","C_Dist_200_LN_15_LD_25_RN_4_RD_10_0.png","C_Dist_200_LN_16_LD_20_RN_12_RD_20_0.png","C_Dist_200_LN_16_LD_30_RN_9_RD_27_0.png","C_Dist_200_LN_20_LD_25_RN_9_RD_15_0.png","C_Dist_200_LN_21_LD_30_RN_2_RD_4_0.png","C_Dist_200_LN_4_LD_10_RN_3_RD_15_0.png","C_Dist_200_LN_4_LD_8_RN_3_RD_10_0.png","C_Dist_200_LN_6_LD_15_RN_3_RD_15_0.png","C_Dist_200_LN_7_LD_21_RN_2_RD_15_0.png","C_Dist_200_LN_8_LD_15_RN_2_RD_6_0.png","C_Dist_200_LN_8_LD_15_RN_3_RD_9_0.png","C_Dist_200_LN_8_LD_15_RN_7_RD_21_0.png","C_Dist_200_LN_9_LD_20_RN_4_RD_16_0.png"],["C_Dist_200_LN_1_LD_2_RN_21_RD_30_1.png","C_Dist_200_LN_13_LD_26_RN_14_RD_20_1.png","C_Dist_200_LN_3_LD_10_RN_11_RD_22_1.png","C_Dist_200_LN_3_LD_10_RN_14_RD_28_1.png","C_Dist_200_LN_3_LD_10_RN_7_RD_14_1.png","C_Dist_200_LN_3_LD_12_RN_9_RD_20_1.png","C_Dist_200_LN_3_LD_6_RN_14_RD_20_1.png","C_Dist_200_LN_5_LD_10_RN_14_RD_20_1.png","C_Dist_200_LN_6_LD_12_RN_7_RD_10_1.png","C_Dist_200_LN_6_LD_20_RN_11_RD_22_1.png","C_Dist_200_LN_7_LD_15_RN_18_RD_27_1.png","C_Dist_200_LN_9_LD_30_RN_13_RD_26_1.png"]],"dist200_I":[["I_Dist_200_LN_1_LD_2_RN_3_RD_10_0.png","I_Dist_200_LN_1_LD_3_RN_2_RD_15_0.png","I_Dist_200_LN_3_LD_4_RN_11_RD_20_0.png","I_Dist_200_LN_4_LD_5_RN_6_RD_10_0.png","I_Dist_200_LN_4_LD_6_RN_14_RD_30_0.png","I_Dist_200_LN_7_LD_10_RN_12_RD_24_0.png","I_Dist_200_LN_7_LD_10_RN_14_RD_28_0.png","I_Dist_200_LN_7_LD_10_RN_8_RD_16_0.png"],["I_Dist_200_LN_11_LD_20_RN_3_RD_4_1.png","I_Dist_200_LN_14_LD_30_RN_12_RD_18_1.png","I_Dist_200_LN_14_LD_30_RN_6_RD_9_1.png","I_Dist_200_LN_3_LD_10_RN_1_RD_2_1.png","I_Dist_200_LN_4_LD_30_RN_1_RD_3_1.png","I_Dist_200_LN_6_LD_20_RN_3_RD_6_1.png","I_Dist_200_LN_7_LD_15_RN_4_RD_6_1.png","I_Dist_200_LN_7_LD_15_RN_6_RD_9_1.png","I_Dist_200_LN_9_LD_15_RN_8_RD_10_1.png"]],"dist200_S":[["E_Dist_200_LN_3_LD_6_RN_3_RD_10_0.png"],["E_Dist_200_LN_3_LD_10_RN_3_RD_6_1.png"]],"dist300_C":[["C_Dist_300_LN_11_LD_22_RN_1_RD_5_0.png","C_Dist_300_LN_11_LD_22_RN_2_RD_10_0.png","C_Dist_300_LN_11_LD_22_RN_4_RD_20_0.png","C_Dist_300_LN_12_LD_24_RN_2_RD_10_0.png","C_Dist_300_LN_18_LD_20_RN_9_RD_15_0.png","C_Dist_300_LN_20_LD_25_RN_13_RD_26_0.png","C_Dist_300_LN_20_LD_25_RN_14_RD_28_0.png","C_Dist_300_LN_20_LD_25_RN_5_RD_10_0.png","C_Dist_300_LN_20_LD_25_RN_8_RD_16_0.png","C_Dist_300_LN_20_LD_25_RN_9_RD_18_0.png","C_Dist_300_LN_24_LD_30_RN_2_RD_4_0.png","C_Dist_300_LN_24_LD_30_RN_8_RD_16_0.png","C_Dist_300_LN_3_LD_6_RN_2_RD_10_0.png","C_Dist_300_LN_4_LD_10_RN_1_RD_10_0.png","C_Dist_300_LN_4_LD_5_RN_2_RD_4_0.png","C_Dist_300_LN_8_LD_16_RN_1_RD_5_0.png","C_Dist_300_LN_9_LD_10_RN_3_RD_5_0.png"],["C_Dist_300_LN_1_LD_20_RN_7_RD_20_1.png","C_Dist_300_LN_1_LD_3_RN_19_RD_30_1.png","C_Dist_300_LN_1_LD_30_RN_8_RD_24_1.png","C_Dist_300_LN_1_LD_5_RN_11_RD_22_1.png","C_Dist_300_LN_1_LD_5_RN_3_RD_6_1.png","C_Dist_300_LN_1_LD_5_RN_6_RD_12_1.png","C_Dist_300_LN_2_LD_10_RN_12_RD_24_1.png","C_Dist_300_LN_2_LD_20_RN_10_RD_25_1.png","C_Dist_300_LN_3_LD_12_RN_11_RD_20_1.png","C_Dist_300_LN_3_LD_6_RN_4_RD_5_1.png","C_Dist_300_LN_4_LD_20_RN_13_RD_26_1.png","C_Dist_300_LN_5_LD_25_RN_6_RD_12_1.png","C_Dist_300_LN_5_LD_25_RN_7_RD_14_1.png","C_Dist_300_LN_7_LD_14_RN_20_RD_25_1.png","C_Dist_300_LN_8_LD_15_RN_10_RD_12_1.png"]],"dist300_I":[["I_Dist_300_LN_1_LD_2_RN_2_RD_10_0.png","I_Dist_300_LN_1_LD_2_RN_3_RD_15_0.png","I_Dist_300_LN_2_LD_4_RN_6_RD_30_0.png","I_Dist_300_LN_3_LD_6_RN_4_RD_20_0.png","I_Dist_300_LN_4_LD_5_RN_6_RD_12_0.png","I_Dist_300_LN_4_LD_5_RN_8_RD_16_0.png","I_Dist_300_LN_7_LD_10_RN_8_RD_20_0.png","I_Dist_300_LN_8_LD_10_RN_14_RD_28_0.png","I_Dist_300_LN_8_LD_10_RN_9_RD_18_0.png"],["I_Dist_300_LN_13_LD_26_RN_12_RD_15_1.png","I_Dist_300_LN_4_LD_20_RN_2_RD_4_1.png"]],"dist300_S":[["E_Dist_300_LN_9_LD_12_RN_9_RD_20_0.png"],["E_Dist_300_LN_18_LD_30_RN_18_RD_20_1.png","E_Dist_300_LN_3_LD_10_RN_3_RD_5_1.png","E_Dist_300_LN_9_LD_20_RN_9_RD_12_1.png"]],"dist500_C":[["C_Dist_500_LN_10_LD_13_RN_7_RD_26_0.png","C_Dist_500_LN_10_LD_15_RN_4_RD_24_0.png","C_Dist_500_LN_12_LD_16_RN_3_RD_12_0.png","C_Dist_500_LN_12_LD_18_RN_4_RD_24_0.png","C_Dist_500_LN_15_LD_18_RN_5_RD_15_0.png","C_Dist_500_LN_15_LD_20_RN_1_RD_4_0.png","C_Dist_500_LN_18_LD_27_RN_1_RD_6_0.png","C_Dist_500_LN_20_LD_24_RN_1_RD_3_0.png","C_Dist_500_LN_20_LD_24_RN_3_RD_9_0.png","C_Dist_500_LN_20_LD_24_RN_7_RD_21_0.png","C_Dist_500_LN_20_LD_28_RN_3_RD_14_0.png","C_Dist_500_LN_21_LD_28_RN_6_RD_24_0.png","C_Dist_500_LN_22_LD_28_RN_2_RD_7_0.png","C_Dist_500_LN_25_LD_30_RN_9_RD_27_0.png","C_Dist_500_LN_4_LD_6_RN_1_RD_6_0.png","C_Dist_500_LN_5_LD_6_RN_2_RD_6_0.png","C_Dist_500_LN_6_LD_9_RN_1_RD_6_0.png","C_Dist_500_LN_7_LD_10_RN_1_RD_5_0.png","C_Dist_500_LN_8_LD_12_RN_1_RD_6_0.png","C_Dist_500_LN_8_LD_12_RN_4_RD_24_0.png"],["C_Dist_500_LN_1_LD_4_RN_12_RD_16_1.png","C_Dist_500_LN_1_LD_4_RN_9_RD_12_1.png","C_Dist_500_LN_1_LD_9_RN_11_RD_18_1.png","C_Dist_500_LN_10_LD_24_RN_22_RD_24_1.png","C_Dist_500_LN_2_LD_12_RN_10_RD_15_1.png","C_Dist_500_LN_2_LD_12_RN_12_RD_18_1.png","C_Dist_500_LN_2_LD_12_RN_4_RD_6_1.png","C_Dist_500_LN_2_LD_24_RN_7_RD_12_1.png","C_Dist_500_LN_2_LD_5_RN_18_RD_20_1.png","C_Dist_500_LN_2_LD_5_RN_9_RD_10_1.png","C_Dist_500_LN_2_LD_8_RN_12_RD_16_1.png","C_Dist_500_LN_2_LD_8_RN_21_RD_28_1.png","C_Dist_500_LN_3_LD_10_RN_4_RD_5_1.png","C_Dist_500_LN_3_LD_12_RN_15_RD_20_1.png","C_Dist_500_LN_3_LD_30_RN_6_RD_10_1.png","C_Dist_500_LN_3_LD_8_RN_14_RD_16_1.png","C_Dist_500_LN_4_LD_16_RN_15_RD_20_1.png","C_Dist_500_LN_4_LD_24_RN_12_RD_18_1.png","C_Dist_500_LN_5_LD_14_RN_6_RD_7_1.png","C_Dist_500_LN_7_LD_21_RN_20_RD_24_1.png","C_Dist_500_LN_7_LD_28_RN_12_RD_16_1.png","C_Dist_500_LN_7_LD_28_RN_9_RD_12_1.png","C_Dist_500_LN_9_LD_27_RN_20_RD_24_1.png"]],"dist500_I":[["I_Dist_500_LN_2_LD_3_RN_4_RD_24_0.png","I_Dist_500_LN_5_LD_6_RN_6_RD_18_0.png","I_Dist_500_LN_7_LD_8_RN_9_RD_24_0.png"],["I_Dist_500_LN_7_LD_21_RN_5_RD_6_1.png"]],"dist500_S":[["E_Dist_500_LN_6_LD_8_RN_6_RD_24_0.png"],["E_Dist_500_LN_2_LD_12_RN_2_RD_3_1.png","E_Dist_500_LN_6_LD_24_RN_6_RD_8_1.png"]]}},{"start_time":1552309785326,"click_time":1552309786945,"finger_time":1552309786525,"fix_duration":498.68951147120487,"trial":1,"RT":1199,"MT":420,"sideResp":1,"stimulus":[],"xmouse":[817,817,817,817,817,817,818,818,818,818,818,818,818,818,818,818,818,818,818,818,818,818,818,818,818,818,818,818,818,818,818,818,818,818,818,818,818,818,818,818,818,818,818,818,818,818,818,818,818,818,818,818,818,818,818,818,818,818,817,817,813,802,749,731,719,708,699,672,665,660,659,657,656,654,648,641,632,609,586,555,506],"ymouse":[500,500,500,500,500,500,500,499,498,498,498,498,498,498,498,498,498,498,498,498,498,498,498,498,498,498,498,498,498,498,498,498,498,498,498,498,498,498,498,498,498,498,498,498,498,498,498,498,498,498,498,498,498,498,498,498,498,498,485,467,401,337,217,187,166,145,124,70,51,41,37,33,31,31,29,27,25,22,19,15,8],"timestamp_mouse":[19,49,58,77,98,119,138,159,179,199,219,239,259,277,299,318,338,358,378,399,419,438,458,479,498,519,539,559,578,598,619,638,658,679,699,718,739,758,778,799,818,839,858,878,898,918,939,959,978,999,1018,1039,1058,1078,1099,1118,1138,1158,1179,1199,1218,1238,1258,1280,1298,1319,1339,1357,1378,1398,1419,1441,1458,1479,1498,1519,1539,1558,1579,1598,1619],"xSR":741.5,"ySR":469.95,"xT1":424.9,"yT1":0,"xT2":1058.1,"yT2":0,"toosoon":0,"cond_shown":"Congruent","ratio_trial":200,"L_num":16,"L_den":30,"R_num":9,"R_den":27,"correct_side":1,"subjID":"GABRIELABALLESTEROS3","gender":"1","school":"4","age":"10"},{"start_time":1552309789968,"click_time":1552309791825,"finger_time":1552309791444,"fix_duration":1281.3038509546873,"trial":2,"RT":1476,"MT":381,"sideResp":2,"stimulus":[],"xmouse":[787,787,787,787,787,787,787,787,787,787,787,787,787,787,787,787,787,787,787,787,787,787,787,787,787,787,787,787,787,787,787,787,787,787,787,787,787,787,787,787,787,787,787,787,787,787,787,787,787,787,787,787,787,787,787,787,787,787,787,787,787,787,787,787,789,800,808,821,831,833,834,834,835,847,890,1018,1072,1125,1172,1226,1253,1255,1255,1255,1255,1255,1255,1255,1248,1241,1214,1214,1152],"ymouse":[514,514,514,514,514,514,514,514,514,514,514,514,514,514,514,514,514,514,514,514,514,514,514,514,514,514,514,514,514,514,514,514,514,514,514,514,514,514,514,514,514,514,514,514,514,514,514,514,514,514,514,514,514,514,514,514,514,514,514,514,514,514,514,514,519,528,528,530,531,531,531,531,531,520,480,380,320,258,193,102,25,13,10,9,9,9,9,7,5,3,0,0,2],"timestamp_mouse":[16,42,56,77,97,116,136,157,177,197,217,237,256,277,296,316,337,356,377,397,417,436,457,476,496,516,536,556,576,597,617,636,656,676,697,716,736,756,776,796,816,836,857,877,896,916,936,957,977,996,1016,1037,1056,1076,1096,1116,1136,1156,1176,1197,1216,1236,1256,1276,1297,1316,1336,1357,1377,1397,1416,1437,1456,1476,1496,1516,1537,1556,1577,1596,1616,1637,1656,1677,1696,1717,1737,1756,1776,1796,1817,1836,1857],"xSR":741.5,"ySR":469.95,"xT1":424.9,"yT1":0,"xT2":1058.1,"yT2":0,"toosoon":0,"cond_shown":"Congruent","ratio_trial":200,"L_num":9,"L_den":30,"R_num":13,"R_den":26,"correct_side":2,"subjID":"GABRIELABALLESTEROS3","gender":"1","school":"4","age":"10"},{"start_time":1552309794039,"click_time":1552309795705,"finger_time":1552309795284,"fix_duration":250,"trial":3,"RT":1245,"MT":421,"sideResp":1,"stimulus":[],"xmouse":[752,752,752,752,752,752,752,752,752,752,752,752,752,752,752,752,752,752,752,752,752,752,752,752,752,752,755,797,813,822,824,825,825,825,825,825,825,825,825,825,825,825,825,825,825,825,825,825,825,825,825,825,825,825,825,825,825,825,825,825,830,839,851,849,836,822,803,740,718,701,692,681,666,655,642,626,609,563,544,528,516,508,504,504],"ymouse":[480,480,480,480,480,480,480,480,480,480,480,480,480,480,480,480,480,480,480,480,480,480,480,480,480,481,481,481,481,481,481,481,481,481,481,481,481,481,481,481,481,481,481,481,481,481,481,481,481,481,481,481,481,481,481,481,481,481,481,481,481,481,478,463,434,407,377,313,298,289,282,275,265,258,251,241,232,196,180,163,149,135,108,95],"timestamp_mouse":[9,25,46,65,86,106,125,145,165,186,206,226,246,266,285,305,326,346,365,386,405,425,445,465,485,506,526,545,565,585,605,625,646,665,685,706,726,745,765,784,806,825,845,865,885,906,925,946,966,985,1005,1025,1045,1065,1086,1105,1125,1145,1165,1185,1205,1226,1245,1267,1285,1305,1325,1346,1366,1385,1405,1426,1445,1465,1485,1505,1527,1545,1566,1585,1606,1625,1646,1666],"xSR":741.5,"ySR":469.95,"xT1":424.9,"yT1":0,"xT2":1058.1,"yT2":0,"toosoon":0,"cond_shown":"Incongruent","ratio_trial":300,"L_num":2,"L_den":4,"R_num":6,"R_den":30,"correct_side":1,"subjID":"GABRIELABALLESTEROS3","gender":"1","school":"4","age":"10"},{"start_time":1552309798071,"click_time":1552309799764,"finger_time":1552309799085,"fix_duration":1065.7556004221908,"trial":4,"RT":1014,"MT":679,"sideResp":2,"stimulus":[],"xmouse":[797,797,797,797,797,797,797,797,797,797,797,797,797,797,797,797,797,797,797,797,797,797,797,797,797,797,797,797,797,797,797,797,797,797,797,797,797,797,797,797,797,797,797,797,797,797,797,805,817,839,873,896,916,934,947,962,964,966,968,968,971,973,974,974,976,979,981,985,988,990,997,1009,1023,1032,1034,1034,1034,1034,1035,1038,1046,1049,1053,1060,1070],"ymouse":[499,499,499,499,499,499,499,499,499,499,499,499,499,499,499,499,499,499,499,499,499,499,499,499,499,499,499,499,499,499,499,499,499,499,499,499,499,499,499,499,499,499,499,499,499,499,499,499,499,498,459,413,367,326,298,255,241,227,215,208,197,192,189,187,182,176,172,169,164,162,155,147,139,133,131,131,131,131,130,126,118,114,110,100,86],"timestamp_mouse":[13,36,53,73,93,114,134,153,173,194,213,233,254,274,294,313,334,354,373,393,414,435,453,474,494,514,534,554,574,594,614,634,653,673,693,714,734,753,773,794,813,834,853,874,894,913,933,953,974,993,1014,1033,1053,1073,1093,1113,1134,1153,1173,1193,1213,1233,1252,1274,1294,1313,1333,1353,1373,1394,1413,1433,1453,1474,1493,1514,1533,1553,1574,1594,1613,1633,1653,1673,1693],"xSR":741.5,"ySR":469.95,"xT1":424.9,"yT1":0,"xT2":1058.1,"yT2":0,"toosoon":0,"cond_shown":"Congruent","ratio_trial":200,"L_num":6,"L_den":12,"R_num":7,"R_den":10,"correct_side":2,"subjID":"GABRIELABALLESTEROS3","gender":"1","school":"4","age":"10"},{"start_time":1552309839428,"click_time":1552309841184,"finger_time":1552309840565,"fix_duration":1462.210255837233,"trial":5,"RT":1137,"MT":619,"sideResp":1,"stimulus":[],"xmouse":[760,760,760,760,760,760,760,760,760,760,760,760,760,760,760,760,760,760,760,760,760,760,760,760,760,760,760,760,760,760,760,760,760,760,760,760,760,760,760,760,760,760,760,760,760,760,760,760,760,760,760,760,760,760,759,742,703,611,595,581,566,550,525,519,515,513,513,513,513,513,513,513,513,513,513,512,511,511,511,508,505,499,489,487,487,487,487,487],"ymouse":[548,548,548,548,548,548,548,548,548,548,548,548,548,548,548,548,548,548,548,548,548,548,548,548,548,548,548,548,548,548,548,548,548,548,548,548,548,548,548,548,548,548,548,548,548,548,548,548,548,548,548,548,548,546,542,521,486,423,409,393,378,366,344,337,332,327,325,324,323,323,323,319,292,272,255,243,236,235,232,226,214,201,172,161,151,139,125,89],"timestamp_mouse":[16,36,56,76,97,115,136,157,176,197,217,237,256,276,296,316,336,357,376,396,417,436,456,476,497,517,536,557,577,597,617,636,656,676,696,717,736,756,776,796,817,836,856,876,896,916,937,956,976,996,1016,1036,1056,1077,1096,1117,1137,1157,1177,1196,1216,1236,1257,1278,1296,1317,1337,1356,1377,1396,1416,1437,1457,1477,1497,1517,1536,1556,1576,1596,1617,1637,1656,1676,1697,1716,1737,1756],"xSR":741.5,"ySR":469.95,"xT1":424.9,"yT1":0,"xT2":1058.1,"yT2":0,"toosoon":0,"cond_shown":"Incongruent","ratio_trial":300,"L_num":4,"L_den":5,"R_num":8,"R_den":16,"correct_side":1,"subjID":"GABRIELABALLESTEROS3","gender":"1","school":"4","age":"10"},{"start_time":1552309850412,"click_time":1552309851667,"finger_time":1552309850826,"fix_duration":403.53102099235736,"trial":6,"RT":414,"MT":841,"sideResp":2,"stimulus":[],"xmouse":[808,808,808,808,808,808,808,808,808,808,808,808,808,808,808,808,808,809,812,815,819,824,828,832,832,832,832,832,832,832,832,832,832,832,832,832,832,832,842,854,874,896,915,940,951,959,968,977,987,991,995,996,997,999,1000,1001,1005,1008,1023,1032,1046,1057,1064],"ymouse":[500,500,500,500,500,500,500,500,500,500,500,500,500,500,500,500,500,499,489,479,466,449,430,395,380,374,373,373,373,373,373,373,373,373,373,373,373,373,352,330,293,253,219,172,151,131,112,92,75,69,64,62,60,58,58,57,55,54,54,53,52,50,49],"timestamp_mouse":[13,43,53,74,93,114,134,153,174,194,213,234,253,274,293,314,334,354,375,394,414,433,453,472,494,513,534,555,574,594,613,634,654,673,693,713,734,753,774,793,813,833,853,874,893,914,933,953,973,994,1013,1033,1053,1074,1094,1113,1133,1153,1173,1194,1214,1233,1254],"xSR":741.5,"ySR":469.95,"xT1":424.9,"yT1":0,"xT2":1058.1,"yT2":0,"toosoon":0,"cond_shown":"Incongruent","ratio_trial":100,"L_num":13,"L_den":26,"R_num":12,"R_den":20,"correct_side":2,"subjID":"GABRIELABALLESTEROS3","gender":"1","school":"4","age":"10"},{"start_time":1552309861553,"click_time":1552309863226,"finger_time":1552309862506,"fix_duration":1365.5337933318933,"trial":7,"RT":953,"MT":720,"sideResp":2,"stimulus":[],"xmouse":[786,786,786,786,786,786,786,786,786,786,786,786,786,786,786,786,786,786,786,786,786,786,786,786,786,786,786,786,786,786,786,786,786,786,786,786,786,786,786,786,786,786,786,786,790,793,813,828,844,861,877,903,917,929,940,954,981,989,994,995,995,995,995,995,995,995,995,995,995,995,995,995,995,1001,1004,1011,1022,1028,1033,1038,1043,1049,1054,1060],"ymouse":[547,547,547,547,547,547,547,547,547,547,547,547,547,547,547,547,547,547,547,547,547,547,547,547,547,547,547,547,547,547,547,547,547,547,547,547,547,547,547,547,547,547,547,547,542,536,498,463,418,361,306,194,155,127,106,83,30,13,4,0,0,0,0,0,0,0,0,0,0,0,0,0,0,1,2,4,7,10,12,14,19,24,26,29],"timestamp_mouse":[13,32,52,73,93,112,132,153,173,192,213,233,252,273,292,312,332,352,373,393,412,432,452,473,493,513,533,553,572,593,611,632,652,673,693,713,732,753,773,792,812,832,852,873,892,912,933,953,973,992,1012,1033,1053,1072,1093,1112,1132,1152,1173,1192,1212,1232,1253,1273,1293,1312,1333,1352,1373,1393,1413,1432,1453,1472,1493,1512,1533,1552,1572,1593,1614,1632,1652,1673],"xSR":741.5,"ySR":469.95,"xT1":424.9,"yT1":0,"xT2":1058.1,"yT2":0,"toosoon":0,"cond_shown":"Incongruent","ratio_trial":200,"L_num":7,"L_den":15,"R_num":6,"R_den":9,"correct_side":2,"subjID":"GABRIELABALLESTEROS3","gender":"1","school":"4","age":"10"},{"start_time":1552309881949,"click_time":1552309883785,"finger_time":1552309883206,"fix_duration":641.9506734238196,"trial":8,"RT":1257,"MT":579,"sideResp":2,"stimulus":[],"xmouse":[820,820,820,820,820,820,820,820,820,820,820,820,820,820,820,820,820,820,820,820,820,820,820,820,820,820,820,820,820,820,820,820,820,820,820,820,820,820,820,820,820,820,820,820,820,820,820,820,820,820,820,820,820,820,820,820,826,832,836,838,839,840,843,849,859,869,887,893,901,909,917,941,952,965,977,987,1004,1006,1010,1011,1011,1011,1011,1014,1019,1022,1028,1031,1039,1047,1063,1078],"ymouse":[548,548,548,548,548,548,548,548,548,548,548,548,548,548,548,548,548,548,548,548,548,548,548,548,548,548,548,548,548,548,548,548,548,548,548,548,548,548,548,548,548,548,548,548,548,548,548,548,548,548,548,548,548,548,548,543,534,523,514,508,505,499,493,482,469,457,431,417,400,382,361,312,294,271,250,228,183,168,156,153,152,152,152,149,147,144,139,136,130,123,109,97],"timestamp_mouse":[16,36,57,76,96,116,136,157,176,197,216,237,256,277,296,316,337,356,376,397,416,436,457,476,497,516,536,556,576,597,617,636,656,676,697,716,736,756,777,796,816,837,857,877,896,916,936,957,976,996,1017,1036,1057,1076,1096,1116,1137,1156,1177,1196,1216,1236,1257,1276,1297,1316,1337,1356,1377,1397,1417,1436,1456,1476,1496,1516,1536,1556,1577,1596,1617,1636,1657,1676,1697,1716,1737,1756,1777,1796,1817,1836],"xSR":741.5,"ySR":469.95,"xT1":424.9,"yT1":0,"xT2":1058.1,"yT2":0,"toosoon":0,"cond_shown":"Incongruent","ratio_trial":200,"L_num":1,"L_den":3,"R_num":2,"R_den":15,"correct_side":1,"subjID":"GABRIELABALLESTEROS3","gender":"1","school":"4","age":"10"},{"start_time":1552309886257,"click_time":1552309886985,"finger_time":1552309886906,"fix_duration":1070.8666198796777,"trial":9,"RT":649,"MT":79,"sideResp":1,"stimulus":[],"xmouse":[787,787,787,787,787,787,787,787,787,787,787,786,786,786,786,786,786,786,786,785,785,785,785,785,784,784,781,779,778,776,772,752,728,686,627,564,439],"ymouse":[505,505,505,505,505,505,505,505,505,505,505,505,505,505,505,505,505,505,505,505,505,505,505,505,505,505,503,502,502,501,498,480,459,419,354,255,38],"timestamp_mouse":[8,29,49,69,89,109,128,149,168,189,209,228,248,269,288,308,329,349,369,388,408,429,449,469,488,509,528,549,569,588,608,628,649,668,689,708,727],"xSR":741.5,"ySR":469.95,"xT1":424.9,"yT1":0,"xT2":1058.1,"yT2":0,"toosoon":0,"cond_shown":"Incongruent","ratio_trial":200,"L_num":1,"L_den":3,"R_num":2,"R_den":15,"correct_side":1,"subjID":"GABRIELABALLESTEROS3","gender":"1","school":"4","age":"10"},{"start_time":1552309903885,"click_time":1552309905367,"finger_time":1552309904967,"fix_duration":798.4491570633871,"trial":10,"RT":1082,"MT":400,"sideResp":1,"stimulus":[],"xmouse":[822,822,822,822,822,822,822,822,822,822,822,822,822,822,822,822,822,822,822,822,822,822,822,822,822,822,822,822,822,822,822,822,822,822,822,822,822,822,822,822,822,822,822,822,822,822,822,822,822,822,824,817,811,802,766,737,719,698,671,646,600,587,583,580,578,571,568,565,559,553,549,549,548,546,520],"ymouse":[513,513,513,513,513,513,513,513,513,513,513,513,513,513,513,513,513,513,513,513,513,513,513,513,513,513,513,513,513,513,513,513,513,513,513,513,513,513,513,513,513,513,513,513,513,513,513,513,513,513,511,502,494,480,425,370,336,299,261,218,167,152,147,140,135,123,116,108,100,91,86,86,86,85,65],"timestamp_mouse":[11,20,44,60,81,100,121,140,161,180,200,220,241,260,279,301,321,340,361,381,400,420,440,460,480,500,520,540,560,580,600,620,640,661,680,700,720,740,761,780,800,821,841,861,880,900,920,940,960,980,999,1020,1040,1061,1082,1100,1120,1140,1161,1180,1201,1221,1241,1261,1281,1300,1321,1341,1361,1380,1400,1420,1441,1460,1482],"xSR":741.5,"ySR":469.95,"xT1":424.9,"yT1":0,"xT2":1058.1,"yT2":0,"toosoon":0,"cond_shown":"Incongruent","ratio_trial":100,"L_num":6,"L_den":10,"R_num":11,"R_den":22,"correct_side":1,"subjID":"GABRIELABALLESTEROS3","gender":"1","school":"4","age":"10"},{"start_time":1552309906409,"click_time":1552309907645,"finger_time":1552309907185,"fix_duration":342.9154185579683,"trial":11,"RT":776,"MT":460,"sideResp":1,"stimulus":[],"xmouse":[817,817,817,817,817,817,817,817,817,817,817,817,817,817,817,817,817,817,817,817,817,817,817,817,817,817,817,817,817,817,817,817,817,817,817,814,807,786,739,704,672,631,603,573,566,561,558,555,549,544,542,540,540,540,540,540,540,540,529,524,517,510],"ymouse":[528,528,528,528,528,528,528,528,528,528,528,528,528,528,528,528,528,528,528,528,528,528,528,528,528,528,528,528,528,528,528,528,528,528,528,522,513,491,453,421,389,351,319,281,268,258,248,237,207,198,193,189,186,182,175,166,157,150,127,117,107,97],"timestamp_mouse":[16,41,56,76,96,116,136,157,177,196,217,236,256,276,297,316,336,356,376,397,416,436,456,477,497,517,538,556,576,596,616,636,656,676,697,716,737,756,776,796,816,837,856,877,897,916,937,956,976,996,1017,1036,1058,1077,1095,1117,1136,1157,1176,1196,1216,1236],"xSR":741.5,"ySR":469.95,"xT1":424.9,"yT1":0,"xT2":1058.1,"yT2":0,"toosoon":0,"cond_shown":"Congruent","ratio_trial":100,"L_num":2,"L_den":5,"R_num":6,"R_den":12,"correct_side":2,"subjID":"GABRIELABALLESTEROS3","gender":"1","school":"4","age":"10"},{"start_time":1552309908937,"click_time":1552309909886,"finger_time":1552309909325,"fix_duration":250,"trial":12,"RT":388,"MT":561,"sideResp":2,"stimulus":[],"xmouse":[815,815,815,815,815,815,815,815,815,815,815,815,815,815,815,815,819,827,834,844,854,868,919,931,936,942,946,955,962,971,977,983,992,995,999,1005,1009,1018,1022,1025,1029,1033,1042,1045,1047,1050,1051,1060],"ymouse":[512,512,512,512,512,512,512,512,512,512,512,512,512,512,512,512,508,496,483,464,446,424,337,308,286,269,254,222,206,192,183,174,157,151,144,136,130,117,111,107,102,98,92,89,88,86,85,81],"timestamp_mouse":[9,44,48,68,89,108,128,148,168,188,208,228,249,268,288,308,328,349,369,388,408,429,448,468,489,509,528,548,568,588,608,629,648,669,688,708,729,748,768,789,808,829,848,868,889,908,930,949],"xSR":741.5,"ySR":469.95,"xT1":424.9,"yT1":0,"xT2":1058.1,"yT2":0,"toosoon":0,"cond_shown":"Incongruent","ratio_trial":200,"L_num":4,"L_den":30,"R_num":1,"R_den":3,"correct_side":2,"subjID":"GABRIELABALLESTEROS3","gender":"1","school":"4","age":"10"},{"start_time":1552309911593,"click_time":1552309912607,"finger_time":1552309912147,"fix_duration":643.0807719488861,"trial":13,"RT":554,"MT":460,"sideResp":1,"stimulus":[],"xmouse":[803,803,803,803,803,803,803,803,803,803,803,803,803,803,803,803,803,803,803,803,803,803,803,803,803,797,782,749,681,518,425,358,324,315,314,323,333,339,341,343,344,346,348,352,366,377,382,388,400,419,430],"ymouse":[535,535,535,535,535,535,535,535,535,535,535,535,535,535,535,535,535,535,535,535,535,535,535,535,535,517,487,445,377,271,219,178,153,137,117,102,91,84,81,76,74,72,70,67,61,58,57,55,53,47,42],"timestamp_mouse":[15,37,53,74,94,115,134,154,174,195,215,234,255,273,295,314,335,354,374,395,414,434,455,474,494,515,534,554,573,594,614,635,655,675,695,715,735,754,774,793,814,834,855,874,894,914,934,954,976,994,1014],"xSR":741.5,"ySR":469.95,"xT1":424.9,"yT1":0,"xT2":1058.1,"yT2":0,"toosoon":0,"cond_shown":"Incongruent","ratio_trial":100,"L_num":3,"L_den":5,"R_num":11,"R_den":22,"correct_side":1,"subjID":"GABRIELABALLESTEROS3","gender":"1","school":"4","age":"10"},{"start_time":1552309913965,"click_time":1552309915209,"finger_time":1552309914807,"fix_duration":415.2667822045856,"trial":14,"RT":842,"MT":402,"sideResp":2,"stimulus":[],"xmouse":[781,781,781,781,781,781,781,781,781,781,781,781,781,781,781,781,781,781,781,781,781,781,781,781,781,781,781,781,781,781,781,781,781,781,781,781,781,781,781,781,781,787,809,857,923,987,1079,1107,1134,1160,1175,1192,1192,1192,1192,1192,1192,1192,1190,1184,1169,1163,1158],"ymouse":[495,495,495,495,495,495,495,495,495,495,495,495,495,495,495,495,495,495,495,495,495,495,495,495,495,495,495,495,495,495,495,495,495,495,495,495,495,495,495,495,495,490,468,429,377,326,238,202,161,120,98,66,63,63,63,63,63,63,62,61,59,59,59],"timestamp_mouse":[11,34,41,62,83,101,122,142,163,182,203,223,243,262,283,303,323,341,362,382,403,423,441,462,483,503,521,543,563,583,601,622,642,663,683,702,722,742,762,783,801,822,842,862,883,902,921,943,963,983,1003,1022,1042,1063,1082,1102,1121,1142,1163,1183,1204,1222,1243],"xSR":741.5,"ySR":469.95,"xT1":424.9,"yT1":0,"xT2":1058.1,"yT2":0,"toosoon":0,"cond_shown":"Congruent","ratio_trial":300,"L_num":4,"L_den":20,"R_num":13,"R_den":26,"correct_side":2,"subjID":"GABRIELABALLESTEROS3","gender":"1","school":"4","age":"10"},{"start_time":1552309918453,"click_time":1552309919947,"finger_time":1552309919067,"fix_duration":284.4280793210243,"trial":15,"RT":614,"MT":880,"sideResp":2,"stimulus":[],"xmouse":[766,766,766,766,766,766,766,766,766,766,766,766,766,766,766,766,766,766,766,766,766,766,766,766,766,766,766,766,766,766,779,843,872,890,914,947,981,989,993,993,995,993,983,973,966,960,960,960,963,968,977,989,991,998,1017,1045,1144,1170,1177,1177,1177,1177,1177,1177,1177,1177,1177,1176,1173,1171,1168,1163,1161,1159,1158],"ymouse":[480,482,482,482,482,482,482,482,482,482,483,483,483,483,483,483,483,483,483,483,483,483,483,483,483,483,483,483,483,483,468,424,402,385,363,324,276,262,253,246,236,208,188,169,153,131,120,118,117,115,115,115,115,114,114,114,114,114,113,113,113,113,113,113,113,112,107,105,101,98,94,87,85,82,78],"timestamp_mouse":[14,39,54,74,95,115,134,155,174,195,214,234,254,274,295,314,333,354,375,395,414,433,453,474,495,515,535,554,575,595,614,635,654,675,694,714,734,754,774,795,815,834,854,874,895,916,934,954,975,994,1013,1034,1053,1075,1095,1114,1134,1155,1174,1195,1214,1235,1255,1275,1293,1315,1334,1354,1375,1395,1415,1434,1454,1475,1494],"xSR":741.5,"ySR":469.95,"xT1":424.9,"yT1":0,"xT2":1058.1,"yT2":0,"toosoon":0,"cond_shown":"Congruent","ratio_trial":200,"L_num":7,"L_den":15,"R_num":18,"R_den":27,"correct_side":2,"subjID":"GABRIELABALLESTEROS3","gender":"1","school":"4","age":"10"},{"start_time":1552309922002,"click_time":1552309922947,"finger_time":1552309922608,"fix_duration":851.1773769746242,"trial":16,"RT":606,"MT":339,"sideResp":1,"stimulus":[],"xmouse":[785,785,785,785,785,785,785,785,785,785,785,785,785,785,785,785,785,785,785,785,785,785,785,785,785,785,785,782,777,744,729,717,711,705,687,673,653,625,598,564,561,560,560,560,553,544,529,515],"ymouse":[525,525,525,525,525,525,525,525,525,525,525,525,525,525,525,525,525,525,525,525,525,525,525,525,525,525,525,524,518,487,477,468,463,456,415,386,350,297,250,188,179,174,171,162,130,113,94,78],"timestamp_mouse":[12,34,45,66,86,106,126,145,165,185,205,225,245,266,286,305,326,345,366,386,406,426,446,466,484,506,526,544,565,585,606,626,645,665,685,706,724,745,766,785,805,825,846,864,884,905,926,945],"xSR":741.5,"ySR":469.95,"xT1":424.9,"yT1":0,"xT2":1058.1,"yT2":0,"toosoon":0,"cond_shown":"Congruent","ratio_trial":300,"L_num":20,"L_den":25,"R_num":8,"R_den":16,"correct_side":1,"subjID":"GABRIELABALLESTEROS3","gender":"1","school":"4","age":"10"},{"start_time":1552309934421,"click_time":1552309935507,"finger_time":1552309935146,"fix_duration":450.8856580301153,"trial":17,"RT":725,"MT":361,"sideResp":2,"stimulus":[],"xmouse":[787,787,787,787,787,787,789,798,803,803,803,803,803,803,803,803,803,803,803,803,803,803,803,803,803,803,803,803,803,803,803,803,798,792,786,779,767,754,719,704,704,704,704,704,704,704,704,704,704,704,704,704,704,1024,1073],"ymouse":[535,535,535,535,535,534,532,527,524,524,524,524,524,524,524,524,524,524,524,524,524,524,524,524,524,524,524,524,524,524,524,524,522,517,512,492,443,363,102,15,15,15,15,15,15,15,15,15,15,15,15,15,15,6,14],"timestamp_mouse":[12,35,47,66,85,107,126,147,165,187,206,225,247,267,286,307,326,346,366,386,407,426,447,465,485,507,526,546,566,587,607,626,645,666,686,706,725,746,766,786,806,826,847,866,885,906,925,945,966,986,1006,1027,1046,1067,1086],"xSR":741.5,"ySR":469.95,"xT1":424.9,"yT1":0,"xT2":1058.1,"yT2":0,"toosoon":0,"cond_shown":"Congruent","ratio_trial":200,"L_num":8,"L_den":15,"R_num":3,"R_den":9,"correct_side":1,"subjID":"GABRIELABALLESTEROS3","gender":"1","school":"4","age":"10"},{"start_time":1552309938881,"click_time":1552309940787,"finger_time":1552309940307,"fix_duration":553.6899337036868,"trial":18,"RT":1426,"MT":480,"sideResp":1,"stimulus":[],"xmouse":[788,788,788,788,788,788,788,788,788,788,788,788,788,788,788,788,788,788,788,788,788,788,788,788,788,788,788,788,788,788,788,788,788,788,788,788,788,788,788,788,788,788,788,788,788,788,788,788,788,788,788,788,788,788,788,788,788,788,788,788,788,788,788,788,788,788,788,788,788,788,778,764,741,715,688,660,644,632,621,602,595,587,582,578,573,570,569,566,564,560,553,549,545,541,536,523],"ymouse":[497,497,497,497,497,497,497,497,497,497,497,497,497,497,497,497,497,497,497,497,497,497,497,497,497,497,497,497,497,497,497,497,497,497,497,497,497,497,497,497,497,497,497,497,497,497,497,497,497,497,497,497,497,497,497,497,497,497,497,497,497,497,497,497,497,497,497,497,497,494,474,448,411,368,327,292,274,259,240,203,184,169,156,147,139,133,130,126,120,113,99,93,88,82,77,63],"timestamp_mouse":[15,26,46,66,87,107,126,147,167,185,205,226,246,266,287,307,327,345,367,386,405,426,447,466,486,506,526,546,566,585,607,627,646,667,685,707,727,747,766,785,806,827,847,866,886,907,925,947,967,986,1006,1026,1046,1066,1087,1106,1125,1145,1166,1187,1207,1225,1247,1267,1286,1307,1326,1347,1366,1386,1407,1426,1447,1467,1487,1506,1527,1546,1567,1588,1606,1625,1647,1667,1688,1706,1727,1746,1766,1785,1807,1827,1847,1866,1886,1906],"xSR":741.5,"ySR":469.95,"xT1":424.9,"yT1":0,"xT2":1058.1,"yT2":0,"toosoon":0,"cond_shown":"Incongruent","ratio_trial":300,"L_num":1,"L_den":2,"R_num":2,"R_den":10,"correct_side":1,"subjID":"GABRIELABALLESTEROS3","gender":"1","school":"4","age":"10"},{"start_time":1552309942096,"click_time":1552309943768,"finger_time":1552309943668,"fix_duration":286.20144610963547,"trial":19,"RT":1572,"MT":100,"sideResp":1,"stimulus":[],"xmouse":[793,793,793,790,788,788,788,788,788,789,790,790,790,790,790,790,788,787,787,787,787,787,787,787,787,787,787,787,787,787,787,787,787,787,787,787,787,787,787,787,787,787,787,787,787,787,787,787,787,787,787,787,787,787,787,787,787,787,787,787,787,787,787,787,787,787,787,787,787,787,787,787,787,787,787,786,783,776,741,709,662,608,558,522],"ymouse":[508,508,508,501,492,492,492,492,493,498,499,499,499,499,499,499,499,499,497,497,497,497,497,497,497,497,497,497,497,497,496,496,496,496,496,496,496,496,496,496,496,496,496,496,496,496,496,496,496,496,496,496,496,496,496,496,496,496,496,496,496,496,496,496,496,496,496,496,496,496,496,496,496,496,496,496,493,480,404,338,263,182,104,33],"timestamp_mouse":[11,30,51,71,92,111,131,152,172,191,211,230,250,271,292,312,332,352,371,392,411,432,450,471,492,511,532,552,570,592,612,630,652,672,692,711,731,752,771,791,812,831,851,872,891,911,930,951,972,992,1012,1032,1052,1071,1090,1111,1132,1151,1170,1191,1211,1232,1250,1270,1292,1311,1331,1352,1372,1391,1412,1431,1451,1472,1491,1512,1532,1552,1572,1590,1611,1631,1652,1672],"xSR":741.5,"ySR":469.95,"xT1":424.9,"yT1":0,"xT2":1058.1,"yT2":0,"toosoon":0,"cond_shown":"Congruent","ratio_trial":100,"L_num":3,"L_den":20,"R_num":4,"R_den":16,"correct_side":2,"subjID":"GABRIELABALLESTEROS3","gender":"1","school":"4","age":"10"},{"start_time":1552309947774,"click_time":1552309949448,"finger_time":1552309948587,"fix_duration":1286.798458401404,"trial":20,"RT":813,"MT":861,"sideResp":2,"stimulus":[],"xmouse":[787,788,788,788,788,788,788,788,788,788,788,788,789,789,791,791,791,791,791,791,791,791,791,791,791,791,791,791,791,791,791,791,791,791,791,791,791,791,791,790,786,783,781,778,772,762,758,752,748,743,728,724,722,718,716,715,714,714,714,714,714,714,714,714,714,714,715,717,719,721,726,726,727,734,751,803,817,831,840,850,912,958,1021,1089],"ymouse":[488,492,492,493,494,494,494,494,494,494,494,494,495,496,498,498,498,498,498,498,498,498,498,498,498,498,498,498,498,498,498,498,498,498,498,498,498,498,497,495,468,452,431,411,389,351,334,316,296,277,218,197,182,169,159,148,143,141,137,134,124,119,114,109,105,98,96,93,89,85,79,79,78,78,78,77,77,76,75,72,59,45,27,6],"timestamp_mouse":[14,44,53,73,94,114,133,152,173,194,213,233,252,273,294,314,332,354,373,394,413,433,453,474,493,513,533,552,573,594,614,633,653,673,693,712,734,753,774,794,813,833,853,873,893,913,934,954,973,992,1014,1033,1053,1073,1094,1113,1133,1152,1172,1194,1212,1233,1253,1274,1293,1313,1332,1354,1372,1393,1413,1433,1454,1473,1494,1512,1534,1553,1574,1594,1613,1634,1653,1674],"xSR":741.5,"ySR":469.95,"xT1":424.9,"yT1":0,"xT2":1058.1,"yT2":0,"toosoon":0,"cond_shown":"Incongruent","ratio_trial":200,"L_num":7,"L_den":10,"R_num":12,"R_den":24,"correct_side":1,"subjID":"GABRIELABALLESTEROS3","gender":"1","school":"4","age":"10"},{"start_time":1552309951651,"click_time":1552309953746,"finger_time":1552309952727,"fix_duration":841.6707856008275,"trial":21,"RT":1076,"MT":1019,"sideResp":1,"stimulus":[],"xmouse":[812,812,812,812,812,812,812,809,804,797,792,787,785,784,784,784,784,784,784,784,784,784,784,784,784,784,784,784,784,784,784,784,784,784,784,784,784,784,784,784,784,784,784,784,784,784,784,784,784,784,784,784,782,780,777,774,772,772,772,772,772,772,772,772,772,772,772,772,772,772,772,772,772,772,770,764,734,722,709,698,689,678,674,671,670,668,664,663,653,644,636,613,600,588,574,550,532,532,532,532,532,532,532,532,466],"ymouse":[515,515,515,515,515,515,515,515,517,519,522,525,528,530,531,531,531,528,515,498,484,476,476,476,476,476,476,476,476,476,476,476,476,476,476,476,476,476,476,476,476,476,476,476,476,476,476,476,479,479,479,479,478,467,456,447,442,441,441,441,441,441,441,441,441,441,441,441,441,441,441,441,441,438,435,422,359,327,302,280,258,232,226,222,221,218,213,212,200,189,177,145,126,105,81,38,5,5,5,5,5,5,5,5,3],"timestamp_mouse":[17,42,57,76,97,116,137,157,176,197,216,236,257,277,297,315,335,357,376,396,416,435,457,477,497,516,537,556,577,596,615,637,656,676,696,715,736,757,776,797,816,835,857,876,896,917,937,957,975,997,1016,1037,1057,1076,1097,1117,1136,1157,1176,1197,1217,1236,1257,1275,1297,1317,1335,1355,1376,1397,1417,1436,1457,1476,1497,1516,1537,1556,1576,1596,1615,1635,1656,1677,1696,1718,1736,1756,1777,1797,1816,1836,1856,1877,1896,1918,1935,1956,1976,1996,2016,2035,2055,2076,2095],"xSR":741.5,"ySR":469.95,"xT1":424.9,"yT1":0,"xT2":1058.1,"yT2":0,"toosoon":0,"cond_shown":"Incongruent","ratio_trial":300,"L_num":3,"L_den":6,"R_num":4,"R_den":20,"correct_side":1,"subjID":"GABRIELABALLESTEROS3","gender":"1","school":"4","age":"10"},{"start_time":1552309957499,"click_time":1552309959347,"finger_time":1552309958687,"fix_duration":1368.5341625055446,"trial":22,"RT":1188,"MT":660,"sideResp":1,"stimulus":[],"xmouse":[806,806,806,806,806,806,806,806,806,806,804,804,804,804,804,804,804,804,804,804,804,804,804,804,804,804,804,804,804,804,804,804,804,804,804,804,804,804,804,804,804,804,804,804,804,804,804,804,804,804,804,804,804,804,804,804,803,803,796,791,785,777,770,757,747,740,731,720,705,674,658,642,630,605,595,591,588,587,586,578,574,572,572,572,572,572,572,572,572,537,533,525,514],"ymouse":[515,515,515,515,516,516,518,518,518,518,518,518,518,518,518,518,518,518,518,518,518,518,518,518,518,518,518,518,518,518,518,518,518,518,518,518,518,518,518,518,518,518,518,518,518,518,518,518,518,518,518,518,518,518,518,518,517,513,485,466,447,425,402,355,321,301,280,255,228,168,142,115,94,52,33,26,21,19,17,7,3,0,0,0,0,0,0,0,0,3,10,22,38],"timestamp_mouse":[13,35,47,69,88,107,128,148,169,187,208,228,248,267,289,309,329,348,369,389,408,428,447,469,487,509,529,548,568,587,609,628,649,667,688,708,729,748,767,787,809,829,848,867,888,908,929,948,969,989,1008,1029,1047,1068,1089,1109,1128,1149,1169,1187,1209,1229,1248,1270,1287,1307,1327,1348,1369,1388,1409,1429,1448,1470,1487,1508,1529,1549,1568,1589,1608,1628,1648,1669,1689,1708,1729,1748,1768,1787,1809,1829,1848],"xSR":741.5,"ySR":469.95,"xT1":424.9,"yT1":0,"xT2":1058.1,"yT2":0,"toosoon":0,"cond_shown":"Incongruent","ratio_trial":100,"L_num":6,"L_den":10,"R_num":13,"R_den":26,"correct_side":1,"subjID":"GABRIELABALLESTEROS3","gender":"1","school":"4","age":"10"},{"start_time":1552309961095,"click_time":1552309963087,"finger_time":1552309962488,"fix_duration":605.7866227582815,"trial":23,"RT":1393,"MT":599,"sideResp":1,"stimulus":[],"xmouse":[789,789,789,789,789,789,789,789,789,789,789,789,789,790,790,790,790,790,790,790,790,790,790,790,790,790,790,790,790,790,790,790,790,790,790,790,790,790,790,790,790,790,790,790,790,790,790,790,790,790,790,790,790,790,790,790,790,790,790,789,789,789,789,789,789,788,788,788,788,788,791,797,807,809,809,805,802,798,792,785,781,770,761,737,714,695,676,659,645,636,634,632,631,629,606,588,573,552,531,494],"ymouse":[518,518,518,518,518,518,518,518,516,515,515,515,515,515,515,515,515,515,515,515,515,515,515,515,515,515,515,515,515,515,515,515,515,515,515,515,515,515,515,515,515,515,515,515,515,515,515,515,515,515,515,515,515,514,512,511,510,509,508,507,506,506,505,505,504,502,501,496,490,460,433,389,311,241,224,213,208,205,201,198,194,186,178,158,141,128,116,105,96,89,87,86,86,85,83,81,79,76,73,72],"timestamp_mouse":[12,43,52,72,93,112,131,151,171,191,212,233,252,272,293,312,333,353,373,392,411,431,453,472,493,511,531,551,573,593,612,631,653,673,693,712,732,752,772,792,812,833,852,873,891,913,932,953,972,993,1012,1032,1052,1072,1093,1112,1131,1153,1172,1192,1211,1233,1253,1273,1291,1312,1333,1353,1373,1393,1412,1432,1453,1473,1492,1512,1532,1552,1573,1591,1611,1633,1652,1674,1692,1713,1732,1753,1773,1792,1812,1832,1852,1872,1892,1911,1932,1953,1973,1992],"xSR":741.5,"ySR":469.95,"xT1":424.9,"yT1":0,"xT2":1058.1,"yT2":0,"toosoon":0,"cond_shown":"Incongruent","ratio_trial":100,"L_num":10,"L_den":25,"R_num":9,"R_den":18,"correct_side":2,"subjID":"GABRIELABALLESTEROS3","gender":"1","school":"4","age":"10"},{"start_time":1552309965131,"click_time":1552309966787,"finger_time":1552309965847,"fix_duration":842.4965151782333,"trial":24,"RT":716,"MT":940,"sideResp":1,"stimulus":[],"xmouse":[772,772,775,777,780,786,790,793,793,793,793,793,793,793,793,793,793,791,791,791,791,791,791,791,791,791,791,791,791,791,791,791,791,791,791,792,794,794,794,794,793,788,769,757,747,737,717,717,717,717,717,717,717,717,717,717,717,717,717,717,717,717,717,717,717,614,613,610,610,610,609,609,609,609,609,609,609,599,589,580,565,542,468],"ymouse":[528,528,528,528,530,534,537,542,542,542,542,542,542,541,536,529,523,515,514,514,514,514,514,514,514,514,514,514,514,514,514,514,510,501,487,467,444,372,325,279,232,191,112,86,64,42,5,5,5,5,5,5,5,5,5,5,5,5,5,5,5,5,5,5,5,8,17,28,31,35,36,37,38,38,38,38,38,39,42,45,49,50,50],"timestamp_mouse":[17,40,56,76,95,115,136,157,176,195,216,235,257,275,295,317,336,357,377,397,416,436,457,476,497,516,535,556,576,596,616,636,657,677,697,716,736,757,777,796,816,836,855,876,897,917,936,957,976,996,1016,1037,1057,1076,1096,1116,1136,1156,1175,1196,1216,1235,1256,1275,1295,1316,1335,1356,1375,1395,1416,1435,1456,1476,1496,1516,1536,1556,1575,1596,1616,1636,1656],"xSR":741.5,"ySR":469.95,"xT1":424.9,"yT1":0,"xT2":1058.1,"yT2":0,"toosoon":0,"cond_shown":"Congruent","ratio_trial":200,"L_num":16,"L_den":30,"R_num":9,"R_den":27,"correct_side":1,"subjID":"GABRIELABALLESTEROS3","gender":"1","school":"4","age":"10"},{"start_time":1552309968302,"click_time":1552309970587,"finger_time":1552309969368,"fix_duration":253.23857616517398,"trial":25,"RT":1066,"MT":1219,"sideResp":1,"stimulus":[],"xmouse":[814,816,816,817,817,817,817,817,817,815,813,811,811,811,811,811,811,811,811,811,810,809,809,809,809,809,809,809,809,809,809,809,809,809,809,809,809,809,809,809,809,809,809,809,807,807,804,802,797,791,785,784,781,779,779,779,779,779,778,770,764,761,760,758,755,753,753,753,750,750,746,742,733,725,708,705,703,703,703,699,695,691,686,682,668,661,653,643,636,618,609,599,588,571,553,548,545,545,545,545,545,545,545,542,540,538,537,536,536,533,531,530,528,527,519],"ymouse":[522,525,525,530,530,530,530,530,529,520,509,504,504,504,504,504,504,504,504,504,502,502,502,502,502,502,502,504,507,514,514,514,514,514,514,514,514,514,514,514,514,514,514,514,513,512,511,508,504,489,481,477,471,468,468,468,468,468,467,455,446,437,428,418,399,387,375,360,342,342,326,303,282,261,229,225,224,224,224,220,217,213,209,204,187,177,166,155,145,120,106,89,71,44,14,5,1,1,1,1,1,1,1,0,6,12,18,24,28,38,44,48,53,58,74],"timestamp_mouse":[5,43,45,66,86,106,125,145,166,185,205,226,245,264,284,306,326,346,366,386,405,426,445,465,485,505,525,544,566,586,604,624,646,665,684,705,724,746,766,784,805,826,844,864,884,906,925,945,965,985,1005,1025,1045,1066,1085,1105,1124,1145,1165,1185,1204,1225,1245,1265,1285,1306,1325,1346,1366,1385,1405,1426,1445,1465,1485,1504,1525,1546,1566,1585,1606,1626,1645,1664,1684,1705,1726,1746,1765,1785,1805,1825,1845,1864,1885,1906,1925,1946,1965,1986,2004,2025,2045,2065,2085,2105,2125,2145,2165,2185,2205,2225,2245,2266,2285],"xSR":741.5,"ySR":469.95,"xT1":424.9,"yT1":0,"xT2":1058.1,"yT2":0,"toosoon":0,"cond_shown":"Congruent","ratio_trial":300,"L_num":18,"L_den":20,"R_num":9,"R_den":15,"correct_side":1,"subjID":"GABRIELABALLESTEROS3","gender":"1","school":"4","age":"10"},{"start_time":1552309972835,"click_time":1552309975168,"finger_time":1552309974368,"fix_duration":1263.7723894102749,"trial":26,"RT":1533,"MT":800,"sideResp":1,"stimulus":[],"xmouse":[785,785,785,785,785,785,785,785,785,785,785,785,785,785,785,785,785,785,785,785,785,785,785,785,785,785,785,785,785,785,785,785,785,785,785,785,785,785,785,785,785,785,785,785,785,785,785,785,785,785,785,785,785,785,785,785,785,785,785,785,785,785,785,785,785,785,785,783,783,782,782,781,781,779,779,777,774,769,766,763,763,760,754,750,745,741,736,728,724,722,719,716,708,704,700,696,689,679,672,667,660,655,641,636,628,621,612,591,583,576,569,561,553,549,544,537,523],"ymouse":[505,505,505,505,505,505,505,505,505,505,505,505,505,505,505,505,505,505,505,505,505,505,505,505,505,505,505,505,505,505,505,505,505,505,505,505,505,505,505,505,505,505,505,505,505,505,505,505,505,505,505,505,505,505,505,505,505,505,505,505,505,505,505,505,505,505,505,503,503,502,501,499,495,490,486,475,453,425,403,384,380,371,345,333,322,312,302,283,276,271,265,262,251,246,241,235,223,204,192,181,169,159,142,136,130,124,119,109,105,103,100,99,98,97,97,95,93],"timestamp_mouse":[19,57,57,72,94,113,134,154,173,192,213,234,252,273,293,314,333,354,373,392,414,434,453,473,494,514,534,552,573,594,613,632,653,673,694,713,733,753,773,794,813,833,854,873,894,913,934,954,973,992,1013,1033,1052,1073,1094,1113,1133,1154,1172,1194,1213,1234,1254,1273,1294,1313,1333,1354,1374,1394,1413,1433,1453,1474,1494,1514,1533,1553,1573,1593,1614,1634,1653,1674,1694,1713,1733,1753,1773,1792,1814,1833,1853,1873,1893,1912,1933,1953,1973,1993,2013,2033,2054,2073,2094,2113,2133,2152,2173,2193,2214,2233,2253,2273,2294,2314,2332],"xSR":741.5,"ySR":469.95,"xT1":424.9,"yT1":0,"xT2":1058.1,"yT2":0,"toosoon":0,"cond_shown":"Congruent","ratio_trial":300,"L_num":12,"L_den":24,"R_num":2,"R_den":10,"correct_side":1,"subjID":"GABRIELABALLESTEROS3","gender":"1","school":"4","age":"10"},{"start_time":1552309984177,"click_time":1552309986929,"finger_time":1552309985189,"fix_duration":447.44483034927885,"trial":27,"RT":1012,"MT":1740,"sideResp":1,"stimulus":[],"xmouse":[785,785,785,785,785,785,785,785,785,785,785,785,785,785,785,785,785,785,785,785,785,785,785,785,785,784,782,780,778,775,772,772,772,772,772,772,772,772,772,772,772,772,772,772,772,772,772,772,771,771,771,770,768,767,765,764,764,764,764,764,771,779,785,794,813,820,827,834,840,851,865,872,880,884,887,888,888,888,888,888,888,888,888,888,888,876,861,848,834,823,803,800,797,797,797,797,797,797,797,797,797,797,797,797,797,797,797,797,698,696,689,686,682,679,674,668,666,666,666,666,666,666,665,663,659,655,652,649,644,636,611,603,596,588,580,560,542,523],"ymouse":[522,522,522,522,522,522,522,522,522,522,522,522,522,522,522,522,522,522,522,522,522,522,522,522,522,522,518,513,508,503,496,494,494,494,494,494,494,494,494,494,494,494,494,494,494,494,494,490,486,476,448,434,421,411,401,392,388,384,376,344,308,284,264,239,196,177,163,149,135,116,88,76,66,58,54,53,53,53,53,53,53,53,53,52,52,42,34,25,17,12,5,2,1,1,1,1,1,1,1,1,1,1,1,1,1,1,1,1,0,4,13,18,23,28,32,37,39,39,39,39,39,39,39,39,39,39,39,39,40,41,45,46,46,47,47,45,39,31],"timestamp_mouse":[10,43,51,70,91,112,132,152,171,191,210,232,252,272,290,310,330,352,372,391,412,432,450,472,492,512,531,551,572,592,612,632,651,672,690,711,732,752,772,792,811,831,852,871,891,911,932,951,971,991,1012,1032,1050,1072,1091,1112,1131,1151,1171,1193,1211,1231,1252,1272,1293,1311,1331,1351,1372,1391,1411,1431,1451,1471,1491,1511,1531,1552,1571,1591,1611,1632,1652,1670,1691,1710,1731,1752,1772,1792,1811,1831,1851,1872,1893,1912,1931,1951,1972,1992,2011,2031,2052,2072,2090,2110,2131,2152,2171,2191,2211,2231,2250,2272,2291,2311,2332,2351,2371,2391,2412,2431,2452,2471,2491,2511,2532,2551,2572,2591,2611,2631,2651,2671,2692,2711,2730,2751],"xSR":741.5,"ySR":469.95,"xT1":424.9,"yT1":0,"xT2":1058.1,"yT2":0,"toosoon":0,"cond_shown":"Congruent","ratio_trial":300,"L_num":11,"L_den":22,"R_num":1,"R_den":5,"correct_side":1,"subjID":"GABRIELABALLESTEROS3","gender":"1","school":"4","age":"10"},{"start_time":1552309991093,"click_time":1552309993708,"finger_time":1552309992570,"fix_duration":963.4282115409578,"trial":28,"RT":1477,"MT":1138,"sideResp":2,"stimulus":[],"xmouse":[786,786,786,786,786,786,786,786,786,786,786,786,786,786,786,786,786,786,786,786,786,786,786,786,786,786,786,786,786,786,786,786,786,786,786,786,786,786,786,786,786,786,786,786,786,786,786,786,786,786,786,784,783,781,779,778,778,778,778,778,778,778,778,778,778,778,778,778,778,778,778,778,776,776,773,770,766,766,766,766,766,766,767,770,774,774,775,778,779,779,779,780,781,785,786,787,788,789,790,794,798,807,818,830,855,859,862,865,874,900,911,923,931,941,970,980,987,991,993,993,993,993,994,995,999,1001,1005,1013,1023,1048,1062],"ymouse":[511,511,511,511,511,511,511,511,511,511,511,511,511,511,511,511,511,511,511,511,511,511,511,511,511,511,511,511,511,511,511,511,511,511,511,511,511,511,511,511,511,511,511,511,511,511,511,511,511,511,508,505,499,491,486,483,483,483,483,483,483,483,483,483,483,483,483,483,483,483,483,483,474,463,441,423,408,392,374,346,329,310,295,262,240,239,231,224,220,218,214,209,200,182,169,163,158,154,150,134,119,97,72,48,7,3,3,3,4,8,10,12,15,18,26,30,32,32,32,32,32,32,32,32,31,31,31,31,33,38,40],"timestamp_mouse":[21,45,55,75,96,114,134,156,176,194,215,236,255,275,296,315,336,356,376,395,415,435,455,476,496,515,535,556,575,596,615,636,655,675,695,715,735,756,776,795,816,835,855,875,896,915,936,955,976,996,1015,1035,1055,1075,1096,1115,1136,1155,1175,1196,1215,1236,1255,1276,1296,1315,1335,1356,1374,1395,1415,1436,1456,1477,1494,1515,1535,1555,1574,1595,1615,1636,1656,1677,1695,1715,1735,1755,1777,1795,1815,1836,1855,1877,1895,1916,1935,1955,1974,1995,2014,2035,2055,2074,2095,2115,2135,2156,2175,2195,2215,2234,2255,2276,2295,2316,2335,2355,2376,2395,2415,2435,2456,2475,2495,2515,2534,2556,2575,2595,2615],"xSR":741.5,"ySR":469.95,"xT1":424.9,"yT1":0,"xT2":1058.1,"yT2":0,"toosoon":0,"cond_shown":"Incongruent","ratio_trial":200,"L_num":4,"L_den":6,"R_num":14,"R_den":30,"correct_side":1,"subjID":"GABRIELABALLESTEROS3","gender":"1","school":"4","age":"10"},{"start_time":1552310003883,"click_time":1552310014668,"finger_time":1552310006008,"fix_duration":534.5583606539712,"trial":29,"RT":2125,"MT":8660,"sideResp":1,"stimulus":[],"xmouse":[769,769,769,769,769,768,768,768,768,768,768,768,768,768,768,768,768,768,768,768,768,768,768,768,768,768,768,768,768,768,768,768,768,768,768,768,768,768,768,768,768,768,768,768,768,768,768,768,768,768,768,768,768,768,768,768,768,768,768,768,768,768,768,768,768,768,768,768,768,768,768,768,768,768,768,768,768,768,768,768,768,768,768,768,768,768,768,768,768,768,768,768,768,768,768,768,768,768,768,768,768,768,768,768,768,836,866,877,879,879,879,879,879,880,880,879,879,879,879,879,878,878,878,876,876,833,810,790,780,778,778,778,778,778,778,778,778,778,778,778,777,777,777,778,778,779,780,780,780,780,780,780,780,780,780,780,780,780,780,780,780,781,782,783,783,785,785,785,785,785,785,785,785,785,786,786,786,786,786,786,786,786,786,786,786,786,786,786,786,786,786,787,788,788,790,791,791,791,791,791,791,791,791,791,791,793,794,794,795,798,798,798,798,798,798,799,801,805,808,811,813,813,813,813,813,813,813,813,813,813,813,813,813,813,813,813,813,813,813,813,813,813,813,813,814,814,812,810,810,810,810,810,810,810,809,805,799,795,789,784,782,782,782,782,782,782,782,781,781,781,781,781,784,785,786,787,787,789,791,795,795,795,795,795,795,795,795,795,795,795,795,795,795,795,795,795,793,787,783,781,781,781,781,781,781,781,781,781,781,781,781,781,781,781,781,780,780,780,780,780,780,780,780,780,780,780,780,780,780,780,780,780,780,780,780,780,780,780,780,781,786,786,786,786,786,786,786,786,786,783,783,783,783,783,783,783,783,783,783,783,783,783,783,783,783,783,783,783,783,783,783,783,783,783,784,786,787,788,788,788,788,788,789,789,789,789,789,789,789,789,789,789,789,789,789,789,789,789,789,789,789,789,789,789,789,793,797,799,801,801,801,801,801,801,801,801,801,801,801,801,801,800,800,800,800,800,800,800,800,800,800,798,794,781,762,704,700,699,699,699,699,699,702,712,726,745,754,761,766,771,773,773,774,774,774,775,779,794,814,848,852,852,852,852,852,852,852,850,841,830,802,791,785,783,783,783,783,783,783,787,796,797,797,797,797,798,795,789,783,781,781,781,781,785,788,815,821,826,826,821,810,792,766,741,726,718,718,718,718,718,718,718,718,718,718,718,718,718,718,718,718,629,629,629,629,629,629,629,629,627,618,615,612,612,612,600,584,565,546,517],"ymouse":[511,511,511,511,511,511,511,511,511,511,511,511,511,511,511,511,511,511,511,511,511,511,511,511,511,511,511,511,511,511,511,511,511,511,511,511,511,511,511,511,511,511,511,511,511,511,511,511,511,511,511,511,511,511,511,511,511,511,511,511,511,511,511,511,511,511,511,511,511,511,511,511,511,511,511,511,511,511,511,511,511,511,511,511,511,511,511,511,511,511,511,511,511,511,511,511,511,511,511,511,511,511,511,511,511,505,499,495,495,495,495,495,495,495,497,502,503,503,503,503,504,504,504,504,504,510,515,518,519,520,520,520,520,520,520,520,520,520,520,520,520,518,517,516,514,512,510,510,510,510,510,510,510,510,510,510,510,510,510,510,510,510,510,511,512,514,514,514,514,514,514,515,515,515,516,516,516,516,516,517,529,542,553,558,559,559,559,559,559,557,552,546,541,535,526,516,516,516,516,515,515,515,515,515,515,520,525,531,540,555,558,558,558,558,558,553,540,524,512,504,497,497,497,497,497,497,497,497,497,498,502,505,506,506,506,506,506,506,506,506,506,506,506,506,507,507,507,507,507,507,507,507,507,507,507,510,513,516,522,527,534,535,535,535,535,535,535,535,535,535,533,531,527,524,522,521,521,521,520,519,519,519,519,519,519,519,519,519,519,519,519,519,519,519,519,519,519,522,524,525,525,525,525,523,518,516,516,516,516,516,516,516,516,516,517,520,520,520,520,520,520,521,521,521,521,521,521,521,521,521,521,521,521,521,521,521,521,521,513,510,499,499,499,499,499,501,506,513,518,527,528,528,528,528,528,528,528,528,528,527,524,522,522,522,522,523,531,535,536,536,536,536,536,535,533,523,520,517,517,517,517,517,516,517,524,527,527,527,527,527,527,527,527,527,527,527,527,527,527,527,527,527,527,526,524,507,497,488,486,484,484,484,484,484,484,487,488,490,491,491,492,493,493,493,493,493,493,493,493,493,493,493,493,493,493,498,500,501,501,501,501,501,501,501,501,501,501,501,501,501,501,501,501,501,501,501,503,509,516,521,521,521,521,521,521,521,521,522,523,523,527,528,529,529,529,529,528,524,521,515,507,506,506,506,506,509,520,536,547,556,556,556,556,538,526,424,381,342,318,293,272,244,201,149,85,25,25,25,25,25,25,25,25,25,25,25,25,25,25,25,25,0,0,0,0,0,0,0,1,6,20,23,24,24,24,24,21,18,16,16],"timestamp_mouse":[12,39,46,66,85,106,124,146,166,184,205,226,245,266,286,305,325,346,365,386,406,425,445,465,484,506,526,545,565,585,606,626,644,665,686,705,726,746,765,785,805,824,846,866,885,905,925,946,965,985,1006,1025,1045,1065,1085,1105,1126,1146,1165,1184,1205,1226,1246,1264,1286,1306,1326,1344,1365,1384,1404,1425,1445,1466,1486,1506,1524,1544,1566,1584,1606,1626,1645,1664,1684,1705,1726,1746,1765,1784,1806,1825,1844,1866,1885,1906,1925,1946,1965,1986,2006,2026,2045,2066,2086,2104,2125,2144,2165,2186,2205,2225,2246,2266,2285,2304,2325,2345,2365,2384,2405,2425,2445,2464,2485,2505,2525,2545,2566,2584,2604,2625,2645,2665,2685,2706,2725,2746,2766,2784,2805,2826,2845,2866,2884,2905,2926,2944,2966,2986,3005,3025,3045,3065,3085,3105,3125,3146,3165,3185,3206,3224,3245,3265,3285,3305,3326,3346,3364,3386,3406,3426,3446,3465,3485,3506,3525,3545,3566,3585,3606,3625,3646,3665,3685,3705,3726,3745,3764,3786,3805,3825,3845,3865,3886,3906,3925,3945,3965,3986,4005,4026,4045,4065,4085,4105,4126,4145,4165,4186,4204,4226,4246,4265,4285,4306,4325,4345,4366,4386,4406,4425,4444,4464,4485,4505,4526,4546,4566,4585,4606,4625,4645,4666,4684,4705,4726,4744,4764,4786,4806,4824,4845,4865,4886,4904,4925,4945,4965,4986,5004,5025,5045,5064,5084,5106,5126,5145,5165,5184,5205,5226,5245,5265,5286,5306,5326,5344,5366,5386,5406,5424,5445,5466,5484,5506,5526,5545,5566,5585,5606,5625,5644,5665,5685,5704,5725,5746,5765,5784,5806,5825,5844,5866,5886,5906,5925,5945,5965,5986,6005,6025,6045,6066,6086,6106,6125,6144,6165,6184,6204,6225,6246,6266,6284,6305,6326,6346,6365,6385,6405,6426,6445,6466,6484,6505,6525,6544,6566,6584,6605,6626,6645,6665,6686,6706,6726,6745,6766,6784,6806,6826,6846,6866,6886,6904,6925,6946,6965,6986,7006,7025,7046,7066,7085,7106,7125,7144,7166,7186,7205,7224,7245,7266,7285,7304,7326,7345,7365,7385,7406,7424,7446,7465,7486,7505,7525,7544,7566,7585,7605,7626,7646,7665,7686,7706,7726,7744,7766,7785,7804,7825,7846,7866,7886,7906,7925,7945,7966,7984,8004,8024,8045,8066,8086,8105,8124,8145,8164,8185,8206,8226,8246,8265,8284,8305,8326,8346,8366,8386,8405,8426,8446,8466,8484,8506,8525,8545,8565,8585,8606,8624,8645,8666,8685,8705,8725,8746,8765,8786,8806,8825,8845,8866,8886,8905,8926,8944,8965,8986,9006,9026,9046,9066,9085,9106,9126,9144,9166,9186,9205,9225,9244,9265,9285,9305,9326,9345,9366,9386,9406,9426,9446,9465,9486,9505,9525,9545,9566,9586,9606,9626,9644,9666,9686,9706,9725,9746,9765,9786,9805,9826,9846,9866,9886,9905,9925,9944,9966,9986,10004,10025,10046,10065,10085,10106,10125,10145,10165,10186,10205,10224,10245,10264,10286,10305,10325,10345,10364,10384,10405,10426,10445,10465,10485,10505,10524,10545,10564,10586,10605,10625,10644,10665,10686,10705,10725,10745,10765,10785],"xSR":741.5,"ySR":469.95,"xT1":424.9,"yT1":0,"xT2":1058.1,"yT2":0,"toosoon":0,"cond_shown":"Congruent","ratio_trial":200,"L_num":16,"L_den":20,"R_num":12,"R_den":20,"correct_side":1,"subjID":"GABRIELABALLESTEROS3","gender":"1","school":"4","age":"10"},{"start_time":1552310022476,"click_time":1552310024608,"finger_time":1552310023969,"fix_duration":1388.764726645241,"trial":30,"RT":1493,"MT":639,"sideResp":2,"stimulus":[],"xmouse":[780,780,780,780,780,780,780,780,780,780,784,786,788,788,788,788,788,788,788,788,788,788,788,788,788,788,788,788,788,788,788,788,788,788,788,788,788,788,787,787,787,787,787,787,787,787,787,787,787,787,787,787,787,787,787,787,787,787,787,787,787,787,787,787,787,787,787,787,787,787,787,787,787,787,787,787,787,788,791,799,803,807,811,814,817,823,825,828,832,833,836,837,837,838,840,841,842,842,842,842,842,847,858,883,929,973,1065],"ymouse":[516,516,516,516,516,516,516,516,516,516,515,515,515,515,515,515,515,515,515,515,515,515,515,515,515,515,515,515,515,515,515,515,515,515,515,515,514,513,513,513,513,513,513,513,513,513,513,513,513,513,513,513,513,513,513,513,513,513,513,513,513,513,513,513,513,513,513,513,513,513,512,505,497,484,442,409,394,370,342,293,277,263,249,237,225,208,199,189,176,162,142,137,133,131,125,123,121,121,121,121,120,119,115,108,93,82,59],"timestamp_mouse":[17,46,53,72,92,112,131,152,172,192,212,233,251,273,292,312,333,352,373,393,413,432,453,473,493,512,533,553,572,593,613,633,652,673,692,713,732,753,772,793,813,831,852,873,891,912,932,953,971,993,1012,1031,1051,1073,1093,1113,1132,1152,1173,1191,1213,1233,1252,1271,1292,1312,1333,1351,1373,1393,1412,1432,1452,1473,1493,1511,1532,1552,1572,1594,1612,1632,1653,1673,1692,1712,1732,1752,1771,1792,1812,1832,1852,1872,1894,1912,1931,1953,1973,1992,2012,2032,2052,2072,2094,2111,2132],"xSR":741.5,"ySR":469.95,"xT1":424.9,"yT1":0,"xT2":1058.1,"yT2":0,"toosoon":0,"cond_shown":"Congruent","ratio_trial":200,"L_num":8,"L_den":15,"R_num":7,"R_den":21,"correct_side":1,"subjID":"GABRIELABALLESTEROS3","gender":"1","school":"4","age":"10"},{"start_time":1552310031470,"click_time":1552310033429,"finger_time":1552310032408,"fix_duration":380.6471845729179,"trial":31,"RT":938,"MT":1021,"sideResp":1,"stimulus":[],"xmouse":[764,764,764,764,764,764,764,764,764,764,764,764,764,764,764,764,764,764,764,764,764,764,764,766,768,768,768,768,768,768,768,768,768,768,768,768,768,768,768,768,768,768,770,774,782,787,792,798,803,810,814,819,826,832,836,840,840,840,840,840,838,837,833,832,827,793,777,760,741,712,705,700,691,684,660,614,605,602,602,602,596,595,594,592,590,586,585,585,585,585,585,584,583,564,564,528,526,516],"ymouse":[520,520,520,520,520,520,520,520,520,520,520,520,520,520,520,520,520,520,520,520,520,520,520,520,520,520,520,520,520,520,520,520,520,520,520,520,520,520,520,520,520,520,517,509,494,479,469,454,438,410,397,382,362,338,314,258,242,227,216,212,210,209,205,204,196,157,134,116,97,72,62,55,48,43,32,17,14,13,13,13,17,18,20,21,23,28,28,29,29,29,29,29,29,25,25,23,23,30],"timestamp_mouse":[18,38,57,79,99,118,138,159,178,199,219,237,259,279,298,319,339,357,378,397,419,438,458,478,499,519,538,559,579,598,619,638,657,679,697,719,739,759,779,799,818,838,858,879,899,919,938,959,979,1000,1017,1038,1058,1079,1099,1118,1139,1159,1178,1198,1218,1238,1265,1278,1298,1318,1338,1359,1380,1401,1418,1440,1459,1479,1499,1519,1540,1559,1579,1599,1618,1639,1658,1680,1698,1718,1738,1759,1778,1800,1820,1840,1860,1887,1898,1919,1940,1959],"xSR":741.5,"ySR":469.95,"xT1":424.9,"yT1":0,"xT2":1058.1,"yT2":0,"toosoon":0,"cond_shown":"Congruent","ratio_trial":300,"L_num":12,"L_den":24,"R_num":2,"R_den":10,"correct_side":1,"subjID":"GABRIELABALLESTEROS3","gender":"1","school":"4","age":"10"},{"start_time":1552310037158,"click_time":1552310038771,"finger_time":1552310037669,"fix_duration":568.5272456331836,"trial":32,"RT":511,"MT":1102,"sideResp":2,"stimulus":[],"xmouse":[803,803,799,794,791,791,791,790,790,790,790,790,790,790,790,790,790,790,790,790,790,790,790,790,790,786,760,739,704,668,642,617,612,608,601,593,577,567,560,555,553,551,553,556,560,571,609,638,680,748,834,964,964,964,964,964,964,964,964,964,964,964,964,964,964,1269,1266,1258,1249,1246,1246,1246,1243,1237,1225,1208,1180,1173,1168,1165,1153],"ymouse":[527,527,527,527,527,527,527,527,527,525,522,521,521,521,521,521,521,521,521,521,519,513,506,497,485,466,400,351,299,247,219,198,193,190,182,176,156,144,132,122,114,99,95,91,90,88,82,78,72,60,39,1,1,1,1,1,1,1,1,1,1,1,1,1,1,2,36,53,62,64,64,64,64,62,57,53,49,48,48,47,45],"timestamp_mouse":[13,43,51,70,92,112,130,151,170,191,210,231,252,270,292,310,331,352,371,392,410,430,451,471,490,511,530,552,570,591,612,631,651,671,691,712,731,751,771,792,811,831,850,870,891,910,930,951,971,990,1012,1030,1051,1070,1091,1110,1130,1150,1171,1191,1211,1230,1250,1272,1291,1311,1331,1350,1370,1391,1410,1430,1451,1470,1491,1512,1531,1551,1570,1590,1612],"xSR":741.5,"ySR":469.95,"xT1":424.9,"yT1":0,"xT2":1058.1,"yT2":0,"toosoon":0,"cond_shown":"Incongruent","ratio_trial":200,"L_num":7,"L_den":15,"R_num":4,"R_den":6,"correct_side":2,"subjID":"GABRIELABALLESTEROS3","gender":"1","school":"4","age":"10"},{"start_time":1552310039940,"click_time":1552310041509,"finger_time":1552310040409,"fix_duration":250,"trial":33,"RT":469,"MT":1100,"sideResp":2,"stimulus":[],"xmouse":[787,787,787,787,787,787,786,786,785,785,785,785,785,785,785,785,785,785,785,785,785,787,793,797,800,801,801,793,787,781,777,773,783,815,881,960,1165,1240,1275,1293,1302,1308,1308,1311,1312,1312,1312,1312,1312,1312,1312,1312,1312,1312,1312,1312,1309,1307,1303,1301,1299,1297,1295,1294,1294,1293,1292,1292,1291,1290,1289,1281,1275,1269,1266,1260,1252,1185,1079],"ymouse":[501,501,501,501,501,501,502,503,503,503,503,503,503,503,503,503,503,503,503,503,502,494,477,463,449,433,414,375,355,335,314,283,265,250,227,204,144,113,92,76,60,40,35,31,29,29,29,29,29,29,29,29,29,29,29,28,28,27,25,24,22,20,18,16,15,13,10,9,9,9,9,9,9,9,9,12,19,41,57],"timestamp_mouse":[9,35,49,69,89,109,128,149,169,189,208,228,250,270,289,308,329,349,369,390,410,429,449,469,488,509,529,548,568,589,609,630,648,668,689,710,731,748,769,789,809,831,848,869,888,909,929,948,968,989,1008,1029,1050,1070,1088,1109,1131,1148,1168,1188,1210,1230,1249,1269,1288,1308,1331,1349,1369,1389,1409,1430,1449,1469,1489,1508,1528,1548,1569],"xSR":741.5,"ySR":469.95,"xT1":424.9,"yT1":0,"xT2":1058.1,"yT2":0,"toosoon":0,"cond_shown":"Incongruent","ratio_trial":300,"L_num":13,"L_den":26,"R_num":12,"R_den":15,"correct_side":2,"subjID":"GABRIELABALLESTEROS3","gender":"1","school":"4","age":"10"},{"start_time":1552310044928,"click_time":1552310046489,"finger_time":1552310045508,"fix_duration":637.8352247405701,"trial":34,"RT":580,"MT":981,"sideResp":2,"stimulus":[],"xmouse":[771,771,771,771,771,771,771,771,771,771,771,771,771,771,771,771,771,771,771,771,771,771,771,771,771,771,771,769,768,765,764,762,759,753,753,752,751,751,752,752,753,753,753,753,756,762,768,776,792,798,804,815,819,837,847,860,878,895,931,944,956,964,971,983,987,992,994,996,998,998,998,998,1012,1016,1021,1027,1036,1052,1085],"ymouse":[503,503,503,503,503,503,503,503,503,503,503,503,503,503,503,503,503,503,503,503,502,501,498,495,494,493,491,480,473,462,451,441,431,410,404,401,399,397,391,386,381,374,365,344,328,308,290,268,232,218,206,190,187,165,155,144,129,115,86,73,64,58,52,39,35,29,27,25,23,23,23,23,23,24,26,29,31,34,39],"timestamp_mouse":[1,20,44,60,81,102,121,142,162,181,200,221,240,262,282,300,322,342,360,381,401,421,441,460,481,501,521,542,561,580,601,621,640,660,681,700,720,740,760,780,800,821,842,861,881,900,921,940,961,981,1001,1020,1040,1060,1081,1101,1120,1141,1161,1181,1201,1221,1240,1260,1281,1300,1320,1341,1360,1380,1402,1420,1443,1461,1481,1501,1522,1541,1561],"xSR":741.5,"ySR":469.95,"xT1":424.9,"yT1":0,"xT2":1058.1,"yT2":0,"toosoon":0,"cond_shown":"Congruent","ratio_trial":300,"L_num":4,"L_den":10,"R_num":1,"R_den":10,"correct_side":1,"subjID":"GABRIELABALLESTEROS3","gender":"1","school":"4","age":"10"},{"start_time":1552310052991,"click_time":1552310056830,"finger_time":1552310053149,"fix_duration":801.1182359107612,"trial":35,"RT":158,"MT":3681,"sideResp":2,"stimulus":[],"xmouse":[839,839,839,839,839,839,839,924,1007,1023,1023,1023,1023,1023,1023,1023,1023,1023,1023,1023,1023,1023,1029,1082,1120,1148,1165,1167,1161,1150,1150,1150,1147,1141,1123,1118,1116,1115,1109,1101,1095,1092,1090,1088,1079,1078,1073,1065,1049,1009,994,981,967,954,936,928,920,911,900,899,899,899,899,899,895,889,880,871,860,827,807,787,773,754,717,700,687,676,672,685,702,718,731,738,739,741,747,754,760,767,768,768,768,768,768,768,768,768,770,777,777,777,777,777,777,777,777,777,777,777,777,777,777,777,777,777,777,777,777,777,777,777,777,777,777,780,782,788,794,795,795,795,795,793,793,792,792,792,792,792,788,786,786,786,786,786,786,786,786,786,786,785,785,785,785,785,785,785,785,785,785,785,785,785,784,784,784,788,791,791,791,791,791,793,801,808,816,824,844,868,888,901,916,946,963,975,987,998,1012,1063,1079,1097],"ymouse":[501,501,501,501,501,501,501,469,447,445,445,445,445,445,445,445,445,445,445,445,445,445,433,396,361,315,253,203,167,136,136,136,136,133,128,128,128,129,133,139,141,142,142,143,146,147,148,150,158,182,192,202,211,222,244,255,268,283,304,310,310,311,311,311,315,319,325,331,339,350,356,365,376,391,429,449,467,480,491,505,510,512,516,517,517,517,517,517,516,512,512,512,512,512,512,512,512,512,512,512,512,512,512,512,512,512,512,512,512,512,512,512,512,512,512,512,512,512,512,512,512,512,512,512,512,512,512,512,511,510,510,510,510,509,509,509,509,509,509,509,510,513,513,513,513,513,513,513,513,513,513,512,510,507,506,506,506,506,506,506,506,506,506,506,506,506,507,508,508,508,508,508,508,508,492,472,449,423,349,306,278,258,238,204,189,175,162,148,133,106,102,99],"timestamp_mouse":[18,47,58,79,99,118,138,158,178,197,217,239,259,279,297,317,339,358,379,397,418,438,459,481,498,517,537,559,578,598,617,638,657,678,698,718,738,759,779,797,818,838,858,878,898,917,937,958,979,998,1018,1037,1058,1078,1097,1118,1138,1158,1179,1197,1217,1237,1258,1279,1298,1318,1339,1358,1378,1398,1418,1438,1459,1478,1498,1518,1538,1558,1578,1598,1618,1638,1658,1679,1697,1717,1737,1759,1779,1799,1818,1838,1858,1879,1899,1918,1938,1959,1977,1997,2019,2039,2059,2077,2098,2117,2137,2158,2177,2199,2217,2238,2259,2279,2297,2319,2339,2357,2378,2399,2419,2438,2459,2479,2497,2519,2539,2558,2579,2599,2617,2637,2658,2679,2697,2718,2739,2758,2778,2799,2818,2838,2857,2878,2899,2917,2938,2958,2979,2998,3019,3039,3058,3077,3098,3117,3138,3159,3177,3198,3217,3237,3259,3278,3298,3317,3338,3359,3379,3399,3418,3438,3459,3479,3498,3519,3538,3557,3580,3598,3618,3638,3659,3680,3698,3717,3738,3758,3778,3798,3818,3839],"xSR":741.5,"ySR":469.95,"xT1":424.9,"yT1":0,"xT2":1058.1,"yT2":0,"toosoon":0,"cond_shown":"Incongruent","ratio_trial":200,"L_num":7,"L_den":15,"R_num":6,"R_den":9,"correct_side":2,"subjID":"GABRIELABALLESTEROS3","gender":"1","school":"4","age":"10"},{"start_time":1552310058371,"click_time":1552310058889,"finger_time":1552310058648,"fix_duration":581.2096767535454,"trial":36,"RT":277,"MT":241,"sideResp":2,"stimulus":[],"xmouse":[800,800,800,800,800,800,800,800,801,804,808,817,827,842,860,873,893,908,924,962,987,1009,1028,1053,1069,1155],"ymouse":[549,549,549,549,549,549,549,549,546,538,526,518,508,495,477,462,438,412,379,287,207,175,145,117,103,65],"timestamp_mouse":[18,37,58,78,98,119,138,157,177,199,219,238,258,277,300,318,337,358,379,400,417,438,457,478,497,517],"xSR":741.5,"ySR":469.95,"xT1":424.9,"yT1":0,"xT2":1058.1,"yT2":0,"toosoon":0,"cond_shown":"Congruent","ratio_trial":300,"L_num":20,"L_den":25,"R_num":14,"R_den":28,"correct_side":1,"subjID":"GABRIELABALLESTEROS3","gender":"1","school":"4","age":"10"},{"start_time":1552310080160,"click_time":1552310081729,"finger_time":1552310080990,"fix_duration":250,"trial":37,"RT":830,"MT":739,"sideResp":2,"stimulus":[],"xmouse":[768,768,768,768,768,768,768,768,768,768,768,768,768,768,768,768,768,768,768,769,771,776,778,778,778,779,779,779,779,779,779,779,779,779,779,780,782,785,789,798,814,842,854,865,882,913,925,935,942,948,952,958,959,962,965,977,983,991,998,1010,1015,1032,1043,1056,1074,1098,1102,1102,1102,1102,1102,1102,1102,1102,1102,1102,1102,1103,1105],"ymouse":[521,521,521,521,521,521,521,521,521,521,521,521,521,521,521,521,521,521,521,521,521,521,521,520,520,519,519,519,519,519,519,519,519,519,519,519,519,516,510,496,480,444,424,406,383,338,313,297,283,275,267,257,254,251,244,228,220,211,202,188,182,160,149,137,125,107,105,105,105,105,105,105,105,104,104,104,104,102,96],"timestamp_mouse":[13,45,49,68,89,108,128,149,169,190,208,228,249,269,289,310,328,348,368,390,410,430,448,469,489,510,529,548,570,589,609,628,648,669,690,709,729,749,769,788,808,829,850,870,888,911,929,949,970,990,1009,1029,1049,1069,1090,1111,1129,1148,1169,1190,1209,1229,1250,1270,1290,1310,1329,1349,1369,1389,1409,1429,1449,1470,1489,1510,1530,1549,1569],"xSR":741.5,"ySR":469.95,"xT1":424.9,"yT1":0,"xT2":1058.1,"yT2":0,"toosoon":0,"cond_shown":"Congruent","ratio_trial":100,"L_num":11,"L_den":22,"R_num":4,"R_den":10,"correct_side":1,"subjID":"GABRIELABALLESTEROS3","gender":"1","school":"4","age":"10"},{"start_time":1552310087642,"click_time":1552310089530,"finger_time":1552310088388,"fix_duration":510.3545418484218,"trial":38,"RT":746,"MT":1142,"sideResp":2,"stimulus":[],"xmouse":[771,771,771,771,771,771,771,771,771,771,771,771,771,771,771,771,771,771,771,771,771,771,771,771,771,771,771,771,771,771,771,771,771,771,771,771,778,848,987,1076,1100,1100,1100,1100,1100,1100,1100,1100,1104,1106,1109,1110,1110,1111,1113,1145,1185,1222,1232,1242,1251,1264,1292,1306,1313,1317,1318,1318,1318,1318,1318,1318,1318,1318,1318,1318,1318,1318,1318,1318,1318,1318,1318,1318,1318,1318,1318,1318,1318,1318,1318,1318,1318,1145,1144],"ymouse":[518,518,518,518,518,518,518,518,518,518,518,518,518,518,518,518,518,518,518,518,518,518,518,518,518,518,518,518,518,518,518,518,518,518,518,518,515,514,538,551,554,554,554,554,554,554,554,554,555,555,555,555,555,555,555,530,482,399,374,345,312,265,157,108,63,28,0,0,0,0,0,0,0,0,0,0,0,0,0,0,0,0,0,0,0,0,0,0,0,0,0,0,0,0,6],"timestamp_mouse":[10,26,51,67,87,107,128,146,166,187,208,227,248,268,288,307,327,348,367,388,408,427,447,467,487,507,527,548,566,586,607,627,648,667,687,707,728,746,768,788,808,828,847,867,887,907,927,947,967,988,1007,1027,1046,1067,1087,1107,1126,1148,1167,1187,1207,1227,1246,1267,1287,1307,1327,1348,1367,1386,1406,1427,1447,1467,1487,1507,1528,1547,1568,1588,1607,1628,1648,1667,1686,1706,1727,1748,1767,1788,1807,1828,1848,1867,1888],"xSR":741.5,"ySR":469.95,"xT1":424.9,"yT1":0,"xT2":1058.1,"yT2":0,"toosoon":0,"cond_shown":"Congruent","ratio_trial":300,"L_num":2,"L_den":20,"R_num":10,"R_den":25,"correct_side":2,"subjID":"GABRIELABALLESTEROS3","gender":"1","school":"4","age":"10"},{"start_time":1552310092192,"click_time":1552310093550,"finger_time":1552310092689,"fix_duration":1301.6003214913128,"trial":39,"RT":497,"MT":861,"sideResp":2,"stimulus":[],"xmouse":[804,804,804,804,804,804,804,804,804,804,804,804,804,804,804,806,807,809,812,816,818,822,827,832,854,869,887,903,918,954,972,989,1006,1020,1039,1043,1045,1047,1054,1057,1062,1068,1072,1080,1081,1081,1081,1082,1082,1082,1082,1082,1082,1082,1083,1086,1089,1092,1094,1094,1094,1095,1096,1097,1098,1099,1100,1101],"ymouse":[511,511,511,511,511,511,511,511,511,511,511,511,511,511,511,510,509,507,502,498,495,492,488,482,464,450,433,419,403,362,341,322,302,285,263,258,256,253,233,222,209,196,182,156,150,147,147,146,146,146,146,146,146,144,131,126,119,115,111,110,109,108,108,105,104,102,100,97],"timestamp_mouse":[17,47,57,78,97,117,137,158,178,197,217,238,257,278,296,316,337,356,377,397,416,436,457,477,497,517,537,557,578,597,618,637,657,676,697,717,738,758,779,797,818,837,858,878,897,918,937,958,977,998,1017,1037,1057,1078,1097,1117,1138,1157,1177,1198,1217,1237,1258,1277,1297,1318,1337,1358],"xSR":741.5,"ySR":469.95,"xT1":424.9,"yT1":0,"xT2":1058.1,"yT2":0,"toosoon":0,"cond_shown":"Congruent","ratio_trial":100,"L_num":4,"L_den":10,"R_num":15,"R_den":30,"correct_side":2,"subjID":"GABRIELABALLESTEROS3","gender":"1","school":"4","age":"10"},{"start_time":1552310108177,"click_time":1552310110210,"finger_time":1552310109109,"fix_duration":325.31900616408006,"trial":40,"RT":932,"MT":1101,"sideResp":2,"stimulus":[],"xmouse":[752,756,759,764,775,776,776,778,778,778,778,778,778,778,778,778,778,778,778,779,780,780,780,780,780,780,780,780,780,780,780,780,780,780,780,780,780,780,780,780,780,780,780,780,780,778,775,774,774,774,774,774,778,786,786,786,786,786,787,788,789,789,789,790,804,821,837,852,905,956,956,956,956,956,956,956,956,956,956,956,956,1223,1249,1266,1283,1284,1285,1285,1285,1279,1268,1252,1239,1228,1214,1207,1202,1195,1177,1165,1154],"ymouse":[533,528,527,527,522,522,522,521,521,521,521,521,521,521,521,521,521,521,521,519,514,511,510,510,510,510,510,510,510,510,510,510,510,510,510,510,510,510,510,510,510,510,510,509,491,467,437,402,366,293,268,244,220,185,182,181,181,181,180,175,174,174,174,172,164,154,136,111,58,3,3,3,3,3,3,3,3,3,3,3,3,13,33,48,63,65,66,66,66,67,68,68,68,67,64,63,63,62,61,62,68],"timestamp_mouse":[33,53,72,93,113,133,152,172,192,213,232,253,273,292,313,332,353,373,391,412,433,452,472,493,513,533,552,573,591,613,633,653,673,693,713,733,753,773,793,812,832,852,872,893,913,932,952,972,992,1012,1032,1052,1071,1094,1113,1133,1152,1172,1192,1213,1233,1252,1272,1292,1312,1332,1353,1372,1392,1412,1432,1452,1473,1493,1512,1533,1553,1572,1593,1612,1632,1652,1672,1692,1712,1733,1753,1773,1793,1812,1832,1853,1872,1892,1912,1932,1953,1972,1993,2012,2032],"xSR":741.5,"ySR":469.95,"xT1":424.9,"yT1":0,"xT2":1058.1,"yT2":0,"toosoon":0,"cond_shown":"Incongruent","ratio_trial":100,"L_num":3,"L_den":5,"R_num":11,"R_den":22,"correct_side":1,"subjID":"GABRIELABALLESTEROS3","gender":"1","school":"4","age":"10"},{"start_time":1552310111593,"click_time":1552310112429,"finger_time":1552310112010,"fix_duration":402.9004592852894,"trial":41,"RT":417,"MT":419,"sideResp":1,"stimulus":[],"xmouse":[780,780,780,780,778,778,778,777,775,774,774,774,774,774,774,774,774,774,772,755,742,728,707,677,624,610,610,610,610,610,610,610,610,610,610,610,610,610,610,610,610,467],"ymouse":[552,552,552,552,547,547,547,546,548,551,551,551,551,551,551,551,551,551,545,498,454,398,330,250,73,30,30,30,30,30,30,30,30,30,30,30,30,30,30,30,30,7],"timestamp_mouse":[16,43,57,76,96,117,137,157,177,196,215,236,257,277,297,317,337,357,376,396,417,437,457,476,495,516,536,556,577,596,616,637,657,677,697,716,737,755,776,797,816,836],"xSR":741.5,"ySR":469.95,"xT1":424.9,"yT1":0,"xT2":1058.1,"yT2":0,"toosoon":0,"cond_shown":"Incongruent","ratio_trial":100,"L_num":6,"L_den":12,"R_num":3,"R_den":5,"correct_side":2,"subjID":"GABRIELABALLESTEROS3","gender":"1","school":"4","age":"10"},{"start_time":1552310133613,"click_time":1552310135171,"finger_time":1552310134509,"fix_duration":863.8401848944408,"trial":42,"RT":896,"MT":662,"sideResp":1,"stimulus":[],"xmouse":[774,774,774,774,774,774,774,774,774,774,773,773,773,773,773,773,773,773,773,773,773,773,773,773,773,773,771,770,770,769,768,768,768,768,768,768,768,767,766,766,765,764,760,744,734,719,690,661,641,631,620,609,595,590,583,569,550,531,524,521,520,518,507,501,500,500,504,510,519,527,534,536,536,536,536,536,536,522],"ymouse":[541,541,541,541,541,541,541,541,541,541,542,542,542,542,542,542,542,542,542,542,542,542,542,542,542,542,544,544,545,545,545,545,545,545,545,545,545,545,545,545,545,545,544,541,538,530,511,486,470,459,447,437,427,424,418,414,410,398,390,389,387,383,354,343,329,315,304,284,263,251,234,215,172,157,145,135,127,89],"timestamp_mouse":[16,39,57,77,97,117,137,157,176,196,216,237,256,276,296,317,337,357,376,396,417,436,457,476,496,515,536,556,577,596,617,635,657,676,696,717,736,757,777,796,816,836,855,876,896,917,937,958,975,996,1016,1036,1058,1075,1096,1116,1137,1156,1176,1196,1217,1237,1258,1276,1296,1316,1336,1356,1376,1396,1416,1436,1458,1476,1497,1516,1536,1558],"xSR":741.5,"ySR":469.95,"xT1":424.9,"yT1":0,"xT2":1058.1,"yT2":0,"toosoon":0,"cond_shown":"Incongruent","ratio_trial":300,"L_num":7,"L_den":10,"R_num":8,"R_den":20,"correct_side":1,"subjID":"GABRIELABALLESTEROS3","gender":"1","school":"4","age":"10"},{"start_time":1552310136836,"click_time":1552310137789,"finger_time":1552310137650,"fix_duration":724.1905539669455,"trial":43,"RT":814,"MT":139,"sideResp":2,"stimulus":[],"xmouse":[767,767,767,767,767,767,767,767,767,767,767,767,767,768,768,768,768,768,769,769,769,769,769,769,769,769,769,769,769,769,769,769,769,769,769,769,769,769,774,802,836,937,982,1021,1055,1089,1111,1142],"ymouse":[541,541,541,541,540,540,540,540,540,540,544,544,544,545,545,545,545,545,546,546,546,547,547,547,547,547,547,547,547,547,547,547,547,547,547,547,547,547,543,509,469,337,274,221,172,138,121,94],"timestamp_mouse":[14,38,53,73,93,113,133,152,173,193,214,234,253,274,294,314,333,353,373,393,413,433,454,474,493,514,534,553,573,594,614,634,654,673,693,713,733,754,773,793,813,835,853,873,893,914,933,953],"xSR":741.5,"ySR":469.95,"xT1":424.9,"yT1":0,"xT2":1058.1,"yT2":0,"toosoon":0,"cond_shown":"Congruent","ratio_trial":300,"L_num":7,"L_den":14,"R_num":20,"R_den":25,"correct_side":2,"subjID":"GABRIELABALLESTEROS3","gender":"1","school":"4","age":"10"},{"start_time":1552310139915,"click_time":1552310141050,"finger_time":1552310140370,"fix_duration":843.6002259021343,"trial":44,"RT":455,"MT":680,"sideResp":2,"stimulus":[],"xmouse":[790,790,790,790,790,790,790,790,790,790,790,790,790,790,790,792,794,796,803,805,806,808,818,833,856,882,916,944,996,1013,1023,1031,1039,1039,1039,1039,1039,1039,1039,1039,1039,1039,1039,1039,1043,1033,1024,1019,1018,1018,1018,1018,1019,1037,1046,1056,1063],"ymouse":[506,506,506,506,506,506,506,506,506,506,506,506,506,506,506,506,506,504,494,487,483,476,458,444,427,402,339,274,160,113,70,37,11,11,11,11,11,11,11,11,11,11,11,11,8,33,54,72,94,98,99,99,99,92,86,80,75],"timestamp_mouse":[15,34,55,74,95,114,135,154,174,195,215,235,255,275,295,314,334,354,374,395,415,435,455,474,494,514,534,554,574,594,614,635,653,675,694,715,734,755,774,794,815,835,856,874,894,914,934,954,974,994,1014,1034,1054,1074,1095,1113,1134],"xSR":741.5,"ySR":469.95,"xT1":424.9,"yT1":0,"xT2":1058.1,"yT2":0,"toosoon":0,"cond_shown":"Congruent","ratio_trial":100,"L_num":7,"L_den":14,"R_num":15,"R_den":25,"correct_side":2,"subjID":"GABRIELABALLESTEROS3","gender":"1","school":"4","age":"10"},{"start_time":1552310148180,"click_time":1552310149649,"finger_time":1552310148990,"fix_duration":529.3951991199015,"trial":45,"RT":810,"MT":659,"sideResp":1,"stimulus":[],"xmouse":[757,757,757,757,757,757,757,757,757,757,757,757,757,757,757,757,757,757,757,757,757,757,757,757,757,757,757,757,757,757,757,757,757,757,757,757,757,756,753,750,724,712,702,695,680,677,677,676,673,664,656,650,643,637,631,626,623,619,612,591,559,539,518,504,497,496,495,495,494,493,493,493,493,492],"ymouse":[524,524,524,524,524,524,524,524,524,524,524,524,524,524,524,524,524,524,524,524,524,524,524,524,524,524,524,524,524,524,524,524,524,524,524,524,521,518,513,505,471,458,447,439,427,423,420,414,402,375,354,341,328,317,306,291,283,271,255,229,187,159,134,118,112,111,111,110,109,107,105,104,101,99],"timestamp_mouse":[10,43,50,69,90,109,129,149,170,189,209,230,250,270,290,309,329,350,370,389,410,430,449,469,489,510,529,550,569,590,609,629,649,670,690,709,730,749,769,791,810,829,849,870,891,909,929,949,970,990,1010,1029,1049,1070,1089,1109,1129,1150,1169,1189,1210,1229,1249,1269,1289,1310,1329,1350,1369,1390,1409,1430,1449,1469],"xSR":741.5,"ySR":469.95,"xT1":424.9,"yT1":0,"xT2":1058.1,"yT2":0,"toosoon":0,"cond_shown":"Congruent","ratio_trial":100,"L_num":3,"L_den":6,"R_num":2,"R_den":5,"correct_side":1,"subjID":"GABRIELABALLESTEROS3","gender":"1","school":"4","age":"10"},{"start_time":1552310150941,"click_time":1552310157569,"finger_time":1552310153590,"fix_duration":250,"trial":46,"RT":2649,"MT":3979,"sideResp":2,"stimulus":[],"xmouse":[809,809,809,809,809,809,809,809,809,809,809,809,809,807,803,798,797,797,797,797,797,797,797,797,797,797,797,797,797,797,797,797,797,797,797,797,797,797,797,797,797,797,797,797,797,797,797,797,797,797,797,797,797,797,797,797,797,797,797,797,797,797,797,797,797,797,797,797,797,797,797,797,797,797,797,797,797,797,797,797,797,797,797,797,797,797,797,797,797,797,797,797,797,797,797,797,797,797,797,797,797,797,797,797,797,797,797,797,797,797,797,797,797,797,797,797,797,797,797,797,797,797,797,797,797,797,797,797,797,797,797,803,994,1077,1109,1122,1125,1125,1125,1125,1125,1125,1125,1125,1125,1125,1125,1125,1125,1125,1093,891,866,857,857,857,856,856,853,843,812,777,735,734,734,734,734,734,734,735,732,732,738,742,746,749,751,751,751,751,752,752,752,755,761,767,769,769,770,771,784,787,803,803,803,803,803,803,803,803,803,803,803,803,803,803,803,803,803,803,803,803,803,803,803,803,803,803,803,803,803,803,803,803,803,803,803,803,800,799,797,797,794,791,790,787,785,785,785,785,785,785,785,785,785,785,785,785,785,785,785,785,785,785,785,785,785,785,785,785,785,785,785,785,785,785,785,785,784,783,782,778,763,762,762,762,762,762,759,757,753,752,742,737,728,721,712,704,702,702,703,706,717,720,726,731,742,745,747,748,748,748,748,748,748,752,754,768,773,774,774,775,775,775,775,775,775,775,775,775,783,791,832,852,871,892,952,989,1018,1057,1099,1127],"ymouse":[529,529,529,529,529,529,529,529,529,529,529,529,528,527,526,524,524,524,524,524,524,524,524,524,524,524,524,524,524,524,524,524,524,524,524,524,524,524,524,524,524,524,524,524,524,524,524,524,524,524,524,524,524,524,524,524,524,524,524,524,524,524,524,524,524,524,524,524,524,524,524,524,524,524,524,524,524,524,524,524,524,524,524,524,524,524,524,524,524,524,524,524,524,524,524,524,524,524,524,524,524,524,524,524,524,524,524,524,524,524,524,524,524,524,524,524,524,524,524,524,524,524,524,524,524,524,524,524,524,524,524,519,455,427,408,398,393,393,393,393,393,393,393,393,393,393,393,393,393,393,387,361,353,351,351,351,351,351,351,356,374,398,436,438,438,438,438,439,439,440,451,470,479,480,481,481,481,481,481,481,482,484,488,492,497,502,503,503,503,503,508,509,513,513,513,513,513,513,513,513,513,513,513,513,513,513,513,513,513,513,513,513,513,513,513,513,513,513,513,513,513,513,513,513,513,513,513,514,514,515,515,515,517,518,519,520,522,522,522,522,522,522,522,522,522,522,522,522,522,522,522,522,522,522,522,522,522,522,522,522,522,522,522,522,522,522,522,523,526,529,533,540,543,543,543,543,543,543,543,543,542,541,538,536,535,534,532,530,529,529,526,524,517,514,510,506,500,498,497,495,495,495,495,495,495,495,495,496,498,498,498,498,498,498,498,498,498,498,498,498,490,482,428,392,349,318,239,204,175,145,116,95],"timestamp_mouse":[13,43,48,69,88,108,128,148,168,188,209,228,249,268,288,309,328,349,369,389,409,429,449,468,489,509,529,547,568,589,608,629,649,668,689,708,727,748,768,788,809,829,848,867,887,908,928,948,969,988,1008,1029,1049,1068,1089,1109,1128,1149,1169,1188,1209,1228,1249,1269,1289,1308,1329,1349,1369,1389,1409,1428,1449,1468,1488,1509,1529,1548,1569,1588,1608,1628,1648,1668,1689,1708,1728,1749,1769,1788,1808,1829,1849,1869,1889,1908,1929,1950,1970,1990,2009,2028,2048,2069,2090,2109,2130,2149,2169,2188,2209,2229,2250,2270,2290,2308,2329,2349,2368,2389,2409,2430,2450,2468,2489,2509,2530,2548,2570,2588,2608,2629,2649,2668,2688,2708,2729,2749,2770,2788,2808,2829,2849,2868,2888,2908,2930,2948,2968,2989,3008,3030,3048,3069,3088,3108,3129,3149,3168,3189,3209,3229,3250,3268,3288,3308,3328,3348,3369,3388,3409,3429,3448,3468,3489,3508,3529,3550,3568,3588,3610,3629,3649,3669,3688,3708,3728,3749,3769,3788,3809,3829,3850,3869,3889,3909,3929,3949,3969,3988,4009,4028,4048,4069,4090,4109,4128,4149,4168,4190,4208,4228,4249,4268,4289,4309,4328,4349,4370,4388,4409,4430,4449,4469,4489,4508,4530,4548,4570,4589,4609,4629,4649,4669,4689,4708,4730,4749,4768,4789,4809,4829,4849,4869,4888,4908,4929,4948,4970,4990,5010,5030,5049,5068,5088,5108,5128,5149,5168,5190,5209,5229,5249,5268,5288,5310,5329,5348,5370,5389,5409,5428,5448,5470,5488,5509,5528,5549,5568,5589,5608,5628,5650,5669,5688,5708,5728,5749,5768,5789,5809,5828,5849,5869,5888,5908,5930,5948,5970,5989,6008,6028,6048,6068,6088,6108,6128,6148,6168,6188,6208,6229,6249,6268,6288,6310,6329,6349,6369,6388,6409,6428,6450,6468,6489,6509,6530,6548,6568,6590,6609,6628],"xSR":741.5,"ySR":469.95,"xT1":424.9,"yT1":0,"xT2":1058.1,"yT2":0,"toosoon":0,"cond_shown":"Congruent","ratio_trial":200,"L_num":8,"L_den":15,"R_num":2,"R_den":6,"correct_side":1,"subjID":"GABRIELABALLESTEROS3","gender":"1","school":"4","age":"10"},{"start_time":1552310163178,"click_time":1552310164151,"finger_time":1552310163690,"fix_duration":386.04186009208405,"trial":47,"RT":512,"MT":461,"sideResp":1,"stimulus":[],"xmouse":[760,760,760,760,760,760,761,761,761,761,761,761,761,764,777,779,779,779,779,779,779,779,779,779,779,764,750,741,739,739,719,704,694,684,666,650,635,626,613,601,578,568,558,551,538,532,527,523,519],"ymouse":[490,490,490,490,492,495,497,497,497,497,497,497,497,498,498,498,498,498,498,498,498,498,498,498,497,460,436,423,421,421,393,367,349,333,297,272,252,238,220,203,170,157,145,135,119,113,108,104,98],"timestamp_mouse":[22,38,51,71,92,112,132,151,171,192,212,231,252,271,293,312,332,352,371,392,413,431,451,472,491,512,531,551,571,593,612,632,651,672,693,711,731,752,772,792,812,831,852,871,893,911,931,951,972],"xSR":741.5,"ySR":469.95,"xT1":424.9,"yT1":0,"xT2":1058.1,"yT2":0,"toosoon":0,"cond_shown":"Congruent","ratio_trial":300,"L_num":9,"L_den":10,"R_num":3,"R_den":5,"correct_side":1,"subjID":"GABRIELABALLESTEROS3","gender":"1","school":"4","age":"10"},{"start_time":1552310165357,"click_time":1552310166290,"finger_time":1552310165890,"fix_duration":425.3427098804251,"trial":48,"RT":533,"MT":400,"sideResp":1,"stimulus":[],"xmouse":[784,784,784,784,784,784,784,784,784,784,784,784,784,784,784,784,784,784,784,784,784,784,781,777,768,758,713,686,659,636,593,583,573,566,562,558,553,547,542,541,540,540,540,540,540,527,520],"ymouse":[518,518,518,518,518,518,518,518,518,518,518,518,518,518,518,518,518,518,518,518,518,518,514,507,495,481,418,384,352,323,264,249,233,223,217,205,196,186,179,175,173,170,167,160,146,113,96],"timestamp_mouse":[12,32,52,72,93,114,133,152,172,192,212,232,253,272,293,314,333,352,373,392,412,432,453,473,492,512,533,552,573,593,614,633,653,673,693,714,732,753,773,792,812,832,852,874,893,914,933],"xSR":741.