[{"start_time":1552069994437,"click_time":1552070009623,"finger_time":1552069994447,"fix_duration":730.1898933698787,"trial":0,"RT":10,"MT":15176,"sideResp":2,"stimulus":"img/250/equaldotanddens/R/4_Ratio_250_L_3_R_12.png","xmouse":[790,790,790,790,790,790,790,790,790,790,790,790,790,790,790,790,790,790,790,790,790,790,790,790,790,790,790,790,790,790,790,790,787,782,774,770,765,765,765,765,765,767,768,769,770,770,771,771,771,771,771,771,771,771,771,771,771,771,771,771,771,771,771,771,771,771,771,771,771,771,771,771,771,771,771,771,771,771,771,771,771,771,771,771,771,771,771,771,771,771,771,771,771,771,771,771,771,771,771,771,771,771,771,771,771,771,771,771,771,771,775,781,781,781,781,781,792,815,822,846,854,857,857,857,857,859,861,863,864,864,865,865,865,865,865,865,865,865,865,865,865,865,865,865,865,865,865,865,865,865,865,865,865,865,865,865,865,865,865,865,865,865,865,865,865,865,865,865,865,865,865,865,865,862,858,852,839,835,834,834,834,834,834,834,834,834,834,834,834,833,833,833,833,832,830,830,826,822,819,818,817,817,817,816,816,816,814,814,813,812,812,812,812,812,812,811,809,799,794,793,791,789,782,782,782,782,782,782,782,782,782,782,782,782,782,782,782,782,782,782,782,782,782,782,782,782,782,782,782,782,782,782,782,782,782,782,782,782,782,782,782,782,782,782,782,782,782,782,782,782,782,782,782,782,782,782,782,782,782,782,782,782,782,782,782,782,782,782,782,782,782,782,782,782,782,782,782,782,782,782,782,782,782,782,782,782,782,782,782,782,782,782,782,782,782,782,782,782,782,782,782,782,782,782,782,782,782,782,782,782,782,782,782,782,782,782,782,782,782,782,782,782,782,782,782,782,782,782,782,782,782,782,782,782,782,782,782,782,782,782,782,782,782,782,782,782,782,782,782,782,782,782,782,782,782,782,782,782,782,782,782,782,782,782,782,782,782,782,782,782,782,782,782,782,782,782,782,782,782,782,782,782,782,782,782,782,782,782,782,782,782,782,782,782,782,782,782,782,782,782,782,782,782,782,782,782,782,782,782,782,782,782,782,782,782,782,782,782,782,782,782,782,782,782,782,782,782,782,782,782,782,782,782,782,782,782,782,782,782,782,782,782,782,782,782,782,782,782,782,782,782,782,782,782,782,782,782,782,782,782,782,782,782,782,782,782,782,782,782,782,782,782,782,782,782,782,782,782,782,782,782,782,782,782,782,782,782,782,782,782,782,782,782,782,782,782,782,782,782,782,782,782,782,782,782,782,782,782,782,782,782,782,782,782,782,782,782,782,782,782,782,782,782,782,782,782,782,782,782,782,782,782,782,782,782,782,782,782,782,782,782,782,782,782,782,782,782,782,782,782,782,782,782,782,782,782,782,782,782,782,782,782,782,782,782,782,782,782,782,782,781,781,781,781,779,779,778,778,777,777,777,777,777,777,777,777,777,777,777,777,777,777,777,777,777,777,777,777,777,777,777,777,777,777,777,777,777,777,777,777,777,777,777,777,777,777,777,777,777,777,777,777,777,777,777,777,777,777,777,777,777,777,777,777,777,777,777,777,777,777,777,777,777,777,777,777,777,777,777,777,777,777,777,777,777,777,777,777,777,777,777,777,777,777,777,777,777,777,777,777,777,777,777,777,777,777,777,777,777,777,777,777,778,782,783,784,784,785,785,786,787,787,787,787,787,787,787,787,787,787,787,787,787,787,787,789,789,791,801,808,815,824,834,862,881,891,898,904,908,910,911,913,915,926,933,941,948,955,969,975,983,991,998,1014,1023,1031,1039,1045,1057,1061],"ymouse":[537,537,537,537,537,537,537,537,537,537,537,537,537,537,537,537,537,537,537,537,537,537,537,537,537,537,537,537,537,537,537,537,549,567,585,603,628,634,636,636,636,635,631,627,623,619,615,615,615,615,615,615,615,615,615,615,615,615,615,615,615,615,615,615,615,615,615,615,615,615,615,615,615,615,615,615,615,615,615,615,615,615,615,615,615,615,615,615,615,615,615,615,615,615,615,615,615,615,615,615,615,615,615,615,615,615,615,615,615,613,599,578,571,563,556,550,535,525,520,511,508,506,506,506,506,505,503,502,501,501,501,501,501,501,501,501,501,501,501,501,501,501,501,501,501,501,501,501,501,501,501,501,501,501,501,501,501,501,501,501,501,501,501,501,501,501,501,501,501,501,503,508,514,525,542,561,603,615,616,616,616,616,616,616,616,616,616,616,616,617,617,617,617,617,618,619,624,632,636,638,639,639,639,641,641,641,641,641,641,641,641,641,641,641,641,641,641,657,664,671,674,674,674,674,674,674,674,674,674,674,674,674,674,674,674,674,674,674,674,674,674,674,674,674,674,674,674,674,674,674,674,674,674,674,674,674,674,674,674,674,674,674,674,674,674,674,674,674,674,674,674,674,674,674,674,674,674,674,674,674,674,674,674,674,674,674,674,674,674,674,674,674,674,674,674,674,674,674,674,674,674,674,674,674,674,674,674,674,674,674,674,674,674,674,674,674,674,674,674,674,674,674,674,674,674,674,674,674,674,674,674,674,674,674,674,674,674,674,674,674,674,674,674,674,674,674,674,674,674,674,674,674,674,674,674,674,674,674,674,674,674,674,674,674,674,674,674,674,674,674,674,674,674,674,674,674,674,674,674,674,674,674,674,674,674,674,674,674,674,674,674,674,674,674,674,674,674,674,674,674,674,674,674,674,674,674,674,674,674,674,674,674,674,674,674,674,674,674,674,674,674,674,674,674,674,674,674,674,674,674,674,674,674,674,674,674,674,674,674,674,674,674,674,674,674,674,674,674,674,674,674,674,674,674,674,674,674,674,674,674,674,674,674,674,674,674,674,674,674,674,674,674,674,674,674,674,674,674,674,674,674,674,674,674,674,674,674,674,674,674,674,674,674,674,674,674,674,674,674,674,674,674,674,674,674,674,674,674,674,674,674,674,674,674,674,674,674,674,674,674,674,674,674,674,674,674,674,674,674,674,674,674,674,674,674,674,674,674,674,674,674,674,674,674,674,674,674,674,674,674,674,674,674,674,674,674,674,674,674,674,674,674,674,674,674,674,674,674,674,674,674,674,674,674,674,674,674,674,674,674,674,674,674,674,674,674,674,674,674,674,674,668,661,651,640,630,621,617,615,615,615,615,615,615,615,615,615,615,615,615,615,615,615,615,615,615,615,615,615,615,615,615,615,615,615,615,615,615,615,615,615,615,615,615,615,615,615,615,615,615,615,615,615,615,615,615,615,615,615,615,615,615,615,615,615,615,615,615,615,615,615,615,615,615,615,615,615,615,615,615,615,615,615,615,615,615,615,615,615,615,615,615,615,615,615,615,615,615,615,615,615,615,615,615,615,615,615,615,615,615,615,615,614,612,611,611,611,609,609,609,608,608,608,608,608,608,608,608,608,608,608,608,608,608,608,607,604,600,584,568,550,529,504,444,407,387,368,354,337,334,330,325,319,297,284,267,255,242,220,211,199,186,174,147,132,120,109,98,80,72],"timestamp_mouse":[10,26,44,65,86,104,124,144,164,186,205,225,245,266,285,305,325,345,365,384,405,424,444,465,484,506,525,544,565,585,605,625,645,664,685,705,725,745,765,786,806,824,844,865,886,905,924,945,965,986,1006,1026,1045,1065,1085,1105,1124,1145,1166,1185,1205,1225,1245,1265,1284,1306,1326,1344,1365,1386,1405,1424,1446,1466,1485,1505,1524,1544,1566,1584,1605,1624,1646,1665,1686,1704,1724,1746,1764,1784,1805,1824,1846,1866,1885,1906,1924,1945,1966,1986,2005,2024,2045,2066,2085,2105,2124,2145,2166,2185,2205,2225,2246,2266,2285,2306,2325,2344,2365,2384,2405,2424,2445,2465,2484,2506,2525,2544,2564,2584,2605,2624,2645,2665,2685,2705,2725,2745,2764,2784,2804,2826,2846,2865,2885,2906,2926,2946,2966,2985,3005,3025,3046,3066,3085,3105,3126,3146,3165,3185,3205,3225,3245,3264,3285,3306,3325,3346,3366,3384,3405,3425,3445,3465,3485,3505,3527,3545,3565,3586,3606,3624,3645,3665,3685,3705,3724,3745,3766,3786,3805,3826,3846,3866,3885,3905,3926,3946,3964,3985,4006,4024,4044,4065,4084,4105,4125,4145,4165,4185,4205,4224,4246,4266,4286,4305,4325,4344,4365,4385,4404,4424,4445,4466,4486,4505,4524,4545,4565,4584,4604,4624,4645,4665,4684,4704,4725,4744,4765,4785,4805,4826,4845,4865,4886,4905,4926,4945,4965,4984,5004,5026,5044,5064,5086,5106,5124,5144,5165,5185,5204,5226,5244,5266,5286,5305,5326,5344,5365,5385,5404,5424,5445,5465,5485,5506,5525,5545,5565,5585,5604,5624,5645,5665,5684,5704,5724,5745,5766,5785,5805,5825,5844,5866,5885,5905,5926,5946,5965,5985,6004,6025,6045,6065,6085,6105,6125,6144,6165,6185,6205,6224,6246,6265,6285,6306,6324,6344,6365,6385,6406,6426,6444,6464,6485,6505,6525,6544,6565,6585,6605,6626,6644,6664,6685,6705,6725,6744,6765,6784,6804,6826,6845,6866,6885,6904,6925,6944,6965,6986,7005,7025,7045,7066,7085,7105,7126,7145,7164,7185,7204,7225,7244,7265,7285,7304,7326,7346,7366,7386,7404,7426,7445,7465,7485,7506,7525,7545,7565,7586,7605,7624,7644,7664,7684,7705,7726,7744,7764,7785,7805,7824,7845,7864,7885,7906,7925,7944,7965,7984,8005,8024,8045,8064,8085,8106,8126,8144,8164,8184,8204,8226,8245,8266,8286,8305,8325,8345,8365,8385,8405,8425,8445,8465,8485,8505,8524,8545,8566,8585,8605,8624,8645,8666,8686,8705,8725,8744,8764,8785,8805,8826,8844,8865,8886,8906,8924,8944,8964,8984,9004,9025,9045,9066,9086,9105,9126,9144,9164,9185,9205,9225,9245,9264,9284,9304,9324,9344,9364,9385,9406,9425,9445,9464,9484,9505,9525,9545,9564,9586,9606,9626,9645,9664,9684,9705,9725,9744,9765,9785,9805,9826,9845,9865,9885,9904,9924,9945,9965,9985,10005,10024,10044,10065,10085,10105,10126,10144,10165,10185,10205,10225,10245,10265,10285,10305,10325,10345,10365,10385,10404,10425,10445,10465,10485,10506,10524,10545,10564,10584,10604,10624,10645,10666,10685,10705,10725,10745,10764,10785,10806,10825,10844,10866,10885,10906,10926,10945,10965,10985,11005,11026,11045,11066,11084,11106,11126,11145,11166,11185,11205,11225,11245,11265,11286,11306,11325,11345,11366,11385,11405,11425,11445,11465,11485,11506,11526,11546,11566,11584,11606,11625,11645,11665,11684,11705,11724,11746,11766,11785,11805,11825,11845,11865,11885,11905,11925,11944,11964,11986,12006,12025,12045,12064,12084,12106,12125,12145,12165,12186,12205,12225,12246,12264,12285,12306,12325,12345,12366,12385,12406,12426,12445,12465,12484,12505,12526,12545,12564,12584,12605,12626,12645,12666,12684,12705,12725,12745,12766,12785,12806,12825,12846,12865,12884,12905,12924,12946,12966,12985,13005,13025,13045,13066,13085,13104,13124,13146,13166,13184,13204,13224,13246,13266,13285,13305,13324,13344,13366,13385,13406,13426,13445,13465,13485,13506,13525,13546,13564,13585,13606,13626,13646,13666,13684,13705,13726,13746,13766,13786,13805,13825,13845,13866,13886,13905,13924,13945,13966,13985,14004,14025,14044,14066,14086,14104,14125,14145,14165,14185,14206,14224,14246,14264,14285,14306,14324,14345,14366,14386,14404,14424,14445,14464,14486,14506,14525,14545,14566,14584,14606,14625,14644,14664,14684,14705,14724,14746,14765,14785,14805,14824,14844,14864,14885,14905,14926,14945,14966,14985,15005,15025,15045,15065,15085,15104,15125,15144,15164,15185],"xSR":741.5,"ySR":501.8,"xT1":424.9,"yT1":0,"xT2":1058.1,"yT2":0,"toosoon":0,"cond_shown":"equaldotanddens","ratio_trial":250,"smaller_num":"3","larger_num":"12","correct_side":2,"subjID":"GabrielaGonzalezChaparro25","gender":"1","age":"9","school":"4","test":{"fix_dur":[250,1500],"timestim":300,"targets_dim":[100,100],"targets_relative_coord":[0.3,0.7],"size_stim":[880,420],"start_dim":[100,100],"size_start":[300,300],"size_fix":60,"samplingrate":20,"img_types":["equaldotsize","equaldotanddens","randomdotsizeEA"],"ratios":[250,500,750,900],"rep_conds":9,"nTrials":120,"trials_to_rest":500,"Trials_order":[73,65,109,105,71,52,50,100,23,72,114,92,64,44,41,43,54,108,68,55,102,40,83,110,9,5,97,57,89,113,16,106,10,25,69,74,29,60,13,48,17,67,39,77,7,30,96,6,78,79,36,21,59,1,20,81,82,42,94,70,47,119,63,80,51,88,107,111,66,34,2,99,27,91,58,84,26,11,75,15,98,31,112,33,90,85,18,12,4,95,38,46,76,93,56,101,35,86,62,53,14,118,45,104,87,24,61,116,32,37,103,19,28,49,8,0,3,22,117,115],"cond_shown":["equaldotanddens","randomdotsizeEA","equaldotanddens","equaldotsize","randomdotsizeEA","equaldotanddens","randomdotsizeEA","equaldotanddens","randomdotsizeEA","equaldotsize","equaldotsize","randomdotsizeEA","equaldotanddens","randomdotsizeEA","randomdotsizeEA","equaldotanddens","equaldotsize","equaldotsize","randomdotsizeEA","equaldotanddens","equaldotsize","equaldotanddens","randomdotsizeEA","randomdotsizeEA","equaldotsize","randomdotsizeEA","equaldotanddens","equaldotsize","randomdotsizeEA","randomdotsizeEA","equaldotanddens","equaldotanddens","equaldotanddens","equaldotanddens","equaldotsize","randomdotsizeEA","randomdotsizeEA","equaldotsize","equaldotanddens","equaldotsize","randomdotsizeEA","equaldotanddens","equaldotsize","randomdotsizeEA","equaldotanddens","equaldotsize","equaldotsize","equaldotsize","equaldotsize","equaldotanddens","equaldotsize","equaldotsize","randomdotsizeEA","equaldotanddens","randomdotsizeEA","equaldotsize","equaldotanddens","equaldotsize","equaldotanddens","equaldotanddens","randomdotsizeEA","randomdotsizeEA","equaldotsize","randomdotsizeEA","equaldotsize","equaldotanddens","randomdotsizeEA","equaldotsize","equaldotsize","equaldotanddens","randomdotsizeEA","equaldotsize","equaldotsize","equaldotanddens","equaldotanddens","equaldotsize","randomdotsizeEA","randomdotsizeEA","equaldotsize","equaldotsize","randomdotsizeEA","equaldotanddens","equaldotanddens","equaldotsize","equaldotsize","equaldotanddens","equaldotsize","equaldotsize","equaldotanddens","randomdotsizeEA","randomdotsizeEA","equaldotanddens","equaldotanddens","equaldotsize","randomdotsizeEA","randomdotsizeEA","randomdotsizeEA","randomdotsizeEA","randomdotsizeEA","randomdotsizeEA","randomdotsizeEA","equaldotanddens","equaldotsize","randomdotsizeEA","equaldotsize","equaldotsize","equaldotanddens","randomdotsizeEA","randomdotsizeEA","equaldotanddens","equaldotanddens","equaldotanddens","equaldotanddens","equaldotanddens","randomdotsizeEA","equaldotsize","equaldotsize","equaldotanddens","equaldotsize","equaldotanddens"],"ratio_trial":[250,500,250,900,900,500,250,500,900,250,750,750,500,750,500,750,750,250,750,750,750,500,900,250,900,500,250,900,500,500,500,900,900,250,900,250,500,250,250,250,500,750,500,500,750,750,250,750,750,750,250,900,900,250,750,900,900,750,900,900,900,900,500,750,500,500,900,500,750,900,250,500,500,750,900,250,250,900,500,500,250,750,500,900,750,250,750,250,500,900,250,900,500,900,750,500,900,250,250,500,250,900,900,750,500,250,250,750,750,250,750,750,500,250,750,250,500,900,900,750],"smaller_num":["3","9","2","18","9","2","3","3","9","6","9","15","4","3","1","12","3","6","3","3","15","6","9","2","9","2","3","18","9","2","9","18","18","3","18","3","5","3","6","4","2","15","1","6","3","3","2","6","6","6","2","18","18","5","3","18","9","15","18","18","18","9","1","3","3","2","9","3","18","18","6","5","6","3","18","3","6","18","1","5","6","6","5","18","12","2","12","1","9","18","3","9","6","9","3","3","18","2","3","6","5","18","18","9","5","4","3","3","6","2","3","3","9","5","15","5","9","18","9","6"],"larger_num":["12","18","8","20","10","4","12","6","10","24","12","20","8","4","2","16","4","24","4","4","20","12","10","8","10","4","12","20","18","4","18","20","20","12","20","12","10","12","24","16","4","20","2","12","4","4","8","8","8","8","8","20","20","20","4","20","10","20","20","20","20","10","2","4","6","4","10","6","24","20","24","10","12","4","20","12","24","20","2","10","24","8","10","20","16","8","16","4","18","20","12","10","12","10","4","6","20","8","12","12","20","20","20","12","10","16","12","4","8","8","4","4","18","20","20","20","18","20","10","8"],"correct_side":[2,1,1,2,2,1,1,2,1,2,2,2,1,1,2,2,2,1,2,1,2,1,2,1,1,1,1,2,2,2,1,1,1,2,2,2,2,1,2,2,1,2,2,1,2,2,1,2,1,1,2,2,2,2,1,1,2,2,1,1,1,2,2,1,2,1,2,2,1,1,2,1,1,1,2,1,1,1,2,1,2,1,1,2,2,1,2,2,2,1,2,2,1,2,1,2,1,2,1,1,2,1,2,2,2,1,1,2,1,1,2,1,2,2,1,2,2,2,2,2],"img_shown":["img/250/equaldotanddens/R/4_Ratio_250_L_3_R_12.png","img/500/randomdotsizeEA/L/4_Ratio_500_L_18_R_9.png","img/250/equaldotanddens/L/1_Ratio_250_L_8_R_2.png","img/900/equaldotsize/R/14_Ratio_900_L_18_R_20.png","img/900/randomdotsizeEA/R/7_Ratio_900_L_9_R_10.png","img/500/equaldotanddens/L/10_Ratio_500_L_4_R_2.png","img/250/randomdotsizeEA/L/14_Ratio_250_L_12_R_3.png","img/500/equaldotanddens/R/2_Ratio_500_L_3_R_6.png","img/900/randomdotsizeEA/L/1_Ratio_900_L_10_R_9.png","img/250/equaldotsize/R/6_Ratio_250_L_6_R_24.png","img/750/equaldotsize/R/15_Ratio_750_L_9_R_12.png","img/750/randomdotsizeEA/R/4_Ratio_750_L_15_R_20.png","img/500/equaldotanddens/L/8_Ratio_500_L_8_R_4.png","img/750/randomdotsizeEA/L/9_Ratio_750_L_4_R_3.png","img/500/randomdotsizeEA/R/12_Ratio_500_L_1_R_2.png","img/750/equaldotanddens/R/11_Ratio_750_L_12_R_16.png","img/750/equaldotsize/R/7_Ratio_750_L_3_R_4.png","img/250/equaldotsize/L/5_Ratio_250_L_24_R_6.png","img/750/randomdotsizeEA/R/12_Ratio_750_L_3_R_4.png","img/750/equaldotanddens/L/8_Ratio_750_L_4_R_3.png","img/750/equaldotsize/R/5_Ratio_750_L_15_R_20.png","img/500/equaldotanddens/L/11_Ratio_500_L_12_R_6.png","img/900/randomdotsizeEA/R/5_Ratio_900_L_9_R_10.png","img/250/randomdotsizeEA/L/7_Ratio_250_L_8_R_2.png","img/900/equaldotsize/L/1_Ratio_900_L_10_R_9.png","img/500/randomdotsizeEA/L/10_Ratio_500_L_4_R_2.png","img/250/equaldotanddens/L/14_Ratio_250_L_12_R_3.png","img/900/equaldotsize/R/13_Ratio_900_L_18_R_20.png","img/500/randomdotsizeEA/R/1_Ratio_500_L_9_R_18.png","img/500/randomdotsizeEA/R/9_Ratio_500_L_2_R_4.png","img/500/equaldotanddens/L/4_Ratio_500_L_18_R_9.png","img/900/equaldotanddens/L/10_Ratio_900_L_20_R_18.png","img/900/equaldotanddens/L/10_Ratio_900_L_20_R_18.png","img/250/equaldotanddens/R/4_Ratio_250_L_3_R_12.png","img/900/equaldotsize/R/9_Ratio_900_L_18_R_20.png","img/250/randomdotsizeEA/R/4_Ratio_250_L_3_R_12.png","img/500/randomdotsizeEA/R/14_Ratio_500_L_5_R_10.png","img/250/equaldotsize/L/15_Ratio_250_L_12_R_3.png","img/250/equaldotanddens/R/6_Ratio_250_L_6_R_24.png","img/250/equaldotsize/R/10_Ratio_250_L_4_R_16.png","img/500/randomdotsizeEA/L/5_Ratio_500_L_4_R_2.png","img/750/equaldotanddens/R/5_Ratio_750_L_15_R_20.png","img/500/equaldotsize/R/12_Ratio_500_L_1_R_2.png","img/500/randomdotsizeEA/L/13_Ratio_500_L_12_R_6.png","img/750/equaldotanddens/R/7_Ratio_750_L_3_R_4.png","img/750/equaldotsize/R/12_Ratio_750_L_3_R_4.png","img/250/equaldotsize/L/7_Ratio_250_L_8_R_2.png","img/750/equaldotsize/R/2_Ratio_750_L_6_R_8.png","img/750/equaldotsize/L/14_Ratio_750_L_8_R_6.png","img/750/equaldotanddens/L/13_Ratio_750_L_8_R_6.png","img/250/equaldotsize/R/13_Ratio_250_L_2_R_8.png","img/900/equaldotsize/R/9_Ratio_900_L_18_R_20.png","img/900/randomdotsizeEA/R/13_Ratio_900_L_18_R_20.png","img/250/equaldotanddens/R/12_Ratio_250_L_5_R_20.png","img/750/randomdotsizeEA/L/8_Ratio_750_L_4_R_3.png","img/900/equaldotsize/L/2_Ratio_900_L_20_R_18.png","img/900/equaldotanddens/R/6_Ratio_900_L_9_R_10.png","img/750/equaldotsize/R/5_Ratio_750_L_15_R_20.png","img/900/equaldotanddens/L/8_Ratio_900_L_20_R_18.png","img/900/equaldotanddens/L/10_Ratio_900_L_20_R_18.png","img/900/randomdotsizeEA/L/10_Ratio_900_L_20_R_18.png","img/900/randomdotsizeEA/R/7_Ratio_900_L_9_R_10.png","img/500/equaldotsize/R/15_Ratio_500_L_1_R_2.png","img/750/randomdotsizeEA/L/10_Ratio_750_L_4_R_3.png","img/500/equaldotsize/R/2_Ratio_500_L_3_R_6.png","img/500/equaldotanddens/L/5_Ratio_500_L_4_R_2.png","img/900/randomdotsizeEA/R/5_Ratio_900_L_9_R_10.png","img/500/equaldotsize/R/2_Ratio_500_L_3_R_6.png","img/750/equaldotsize/L/6_Ratio_750_L_24_R_18.png","img/900/equaldotanddens/L/2_Ratio_900_L_20_R_18.png","img/250/randomdotsizeEA/R/6_Ratio_250_L_6_R_24.png","img/500/equaldotsize/L/7_Ratio_500_L_10_R_5.png","img/500/equaldotsize/L/11_Ratio_500_L_12_R_6.png","img/750/equaldotanddens/L/10_Ratio_750_L_4_R_3.png","img/900/equaldotanddens/R/14_Ratio_900_L_18_R_20.png","img/250/equaldotsize/L/14_Ratio_250_L_12_R_3.png","img/250/randomdotsizeEA/L/5_Ratio_250_L_24_R_6.png","img/900/randomdotsizeEA/L/8_Ratio_900_L_20_R_18.png","img/500/equaldotsize/R/12_Ratio_500_L_1_R_2.png","img/500/equaldotsize/L/7_Ratio_500_L_10_R_5.png","img/250/randomdotsizeEA/R/6_Ratio_250_L_6_R_24.png","img/750/equaldotanddens/L/14_Ratio_750_L_8_R_6.png","img/500/equaldotanddens/L/7_Ratio_500_L_10_R_5.png","img/900/equaldotsize/R/14_Ratio_900_L_18_R_20.png","img/750/equaldotsize/R/11_Ratio_750_L_12_R_16.png","img/250/equaldotanddens/L/7_Ratio_250_L_8_R_2.png","img/750/equaldotsize/R/11_Ratio_750_L_12_R_16.png","img/250/equaldotsize/R/8_Ratio_250_L_1_R_4.png","img/500/equaldotanddens/R/6_Ratio_500_L_9_R_18.png","img/900/randomdotsizeEA/L/10_Ratio_900_L_20_R_18.png","img/250/randomdotsizeEA/R/9_Ratio_250_L_3_R_12.png","img/900/equaldotanddens/R/15_Ratio_900_L_9_R_10.png","img/500/equaldotanddens/L/11_Ratio_500_L_12_R_6.png","img/900/equaldotsize/R/7_Ratio_900_L_9_R_10.png","img/750/randomdotsizeEA/L/8_Ratio_750_L_4_R_3.png","img/500/randomdotsizeEA/R/2_Ratio_500_L_3_R_6.png","img/900/randomdotsizeEA/L/4_Ratio_900_L_20_R_18.png","img/250/randomdotsizeEA/R/13_Ratio_250_L_2_R_8.png","img/250/randomdotsizeEA/L/15_Ratio_250_L_12_R_3.png","img/500/randomdotsizeEA/L/11_Ratio_500_L_12_R_6.png","img/250/randomdotsizeEA/R/12_Ratio_250_L_5_R_20.png","img/900/equaldotanddens/L/4_Ratio_900_L_20_R_18.png","img/900/equaldotsize/R/11_Ratio_900_L_18_R_20.png","img/750/randomdotsizeEA/R/15_Ratio_750_L_9_R_12.png","img/500/equaldotsize/R/14_Ratio_500_L_5_R_10.png","img/250/equaldotsize/L/2_Ratio_250_L_16_R_4.png","img/250/equaldotanddens/L/15_Ratio_250_L_12_R_3.png","img/750/randomdotsizeEA/R/12_Ratio_750_L_3_R_4.png","img/750/randomdotsizeEA/L/13_Ratio_750_L_8_R_6.png","img/250/equaldotanddens/L/1_Ratio_250_L_8_R_2.png","img/750/equaldotanddens/R/7_Ratio_750_L_3_R_4.png","img/750/equaldotanddens/L/9_Ratio_750_L_4_R_3.png","img/500/equaldotanddens/R/1_Ratio_500_L_9_R_18.png","img/250/equaldotanddens/R/12_Ratio_250_L_5_R_20.png","img/750/randomdotsizeEA/L/1_Ratio_750_L_20_R_15.png","img/250/equaldotsize/R/12_Ratio_250_L_5_R_20.png","img/500/equaldotsize/R/6_Ratio_500_L_9_R_18.png","img/900/equaldotanddens/R/9_Ratio_900_L_18_R_20.png","img/900/equaldotsize/R/5_Ratio_900_L_9_R_10.png","img/750/equaldotanddens/R/2_Ratio_750_L_6_R_8.png"],"Rat0":[["12_Ratio_0_L_9_R_0.png","13_Ratio_0_L_6_R_0.png","5_Ratio_0_L_2_R_0.png","6_Ratio_0_L_4_R_0.png","8_Ratio_0_L_6_R_0.png"],["1_Ratio_0_L_0_R_17.png","10_Ratio_0_L_0_R_22.png","11_Ratio_0_L_0_R_1.png","14_Ratio_0_L_0_R_24.png","15_Ratio_0_L_0_R_4.png","2_Ratio_0_L_0_R_5.png","3_Ratio_0_L_0_R_17.png","4_Ratio_0_L_0_R_7.png","7_Ratio_0_L_0_R_19.png","9_Ratio_0_L_0_R_15.png"]],"Rat250":[["1_Ratio_250_L_8_R_2.png","14_Ratio_250_L_12_R_3.png","15_Ratio_250_L_12_R_3.png","2_Ratio_250_L_16_R_4.png","3_Ratio_250_L_8_R_2.png","5_Ratio_250_L_24_R_6.png","7_Ratio_250_L_8_R_2.png"],["10_Ratio_250_L_4_R_16.png","11_Ratio_250_L_3_R_12.png","12_Ratio_250_L_5_R_20.png","13_Ratio_250_L_2_R_8.png","4_Ratio_250_L_3_R_12.png","6_Ratio_250_L_6_R_24.png","8_Ratio_250_L_1_R_4.png","9_Ratio_250_L_3_R_12.png"]],"Rat500":[["10_Ratio_500_L_4_R_2.png","11_Ratio_500_L_12_R_6.png","13_Ratio_500_L_12_R_6.png","4_Ratio_500_L_18_R_9.png","5_Ratio_500_L_4_R_2.png","7_Ratio_500_L_10_R_5.png","8_Ratio_500_L_8_R_4.png"],["1_Ratio_500_L_9_R_18.png","12_Ratio_500_L_1_R_2.png","14_Ratio_500_L_5_R_10.png","15_Ratio_500_L_1_R_2.png","2_Ratio_500_L_3_R_6.png","3_Ratio_500_L_10_R_20.png","6_Ratio_500_L_9_R_18.png","9_Ratio_500_L_2_R_4.png"]],"Rat750":[["1_Ratio_750_L_20_R_15.png","10_Ratio_750_L_4_R_3.png","13_Ratio_750_L_8_R_6.png","14_Ratio_750_L_8_R_6.png","6_Ratio_750_L_24_R_18.png","8_Ratio_750_L_4_R_3.png","9_Ratio_750_L_4_R_3.png"],["11_Ratio_750_L_12_R_16.png","12_Ratio_750_L_3_R_4.png","15_Ratio_750_L_9_R_12.png","2_Ratio_750_L_6_R_8.png","3_Ratio_750_L_15_R_20.png","4_Ratio_750_L_15_R_20.png","5_Ratio_750_L_15_R_20.png","7_Ratio_750_L_3_R_4.png"]],"Rat900":[["1_Ratio_900_L_10_R_9.png","10_Ratio_900_L_20_R_18.png","2_Ratio_900_L_20_R_18.png","4_Ratio_900_L_20_R_18.png","8_Ratio_900_L_20_R_18.png"],["11_Ratio_900_L_18_R_20.png","12_Ratio_900_L_18_R_20.png","13_Ratio_900_L_18_R_20.png","14_Ratio_900_L_18_R_20.png","15_Ratio_900_L_9_R_10.png","3_Ratio_900_L_9_R_10.png","5_Ratio_900_L_9_R_10.png","6_Ratio_900_L_9_R_10.png","7_Ratio_900_L_9_R_10.png","9_Ratio_900_L_18_R_20.png"]],"Rat1000":[["10_Ratio_1000_L_16_R_16.png","11_Ratio_1000_L_6_R_6.png","12_Ratio_1000_L_14_R_14.png","13_Ratio_1000_L_20_R_20.png","15_Ratio_1000_L_15_R_15.png","2_Ratio_1000_L_17_R_17.png","4_Ratio_1000_L_9_R_9.png","5_Ratio_1000_L_6_R_6.png","6_Ratio_1000_L_19_R_19.png","8_Ratio_1000_L_14_R_14.png","9_Ratio_1000_L_25_R_25.png"],["1_Ratio_1000_L_1_R_1.png","14_Ratio_1000_L_17_R_17.png","3_Ratio_1000_L_17_R_17.png","7_Ratio_1000_L_6_R_6.png"]]}},{"start_time":1552070011305,"click_time":1552070014422,"finger_time":1552070013481,"fix_duration":480.76098597903916,"trial":1,"RT":2176,"MT":941,"sideResp":1,"stimulus":"img/500/randomdotsizeEA/L/4_Ratio_500_L_18_R_9.png","xmouse":[767,767,767,767,767,767,767,767,767,767,767,767,767,767,767,767,767,767,767,767,767,767,767,767,767,767,767,767,767,767,767,767,767,767,767,767,767,767,767,767,767,767,767,767,767,767,767,767,772,781,784,787,788,788,788,788,788,788,788,788,788,788,788,788,788,788,788,788,788,788,788,788,788,788,788,788,788,788,788,788,788,788,788,788,788,788,788,788,788,788,788,788,788,788,788,788,788,788,788,788,787,786,784,782,779,776,774,771,769,766,764,763,762,762,761,759,757,754,745,721,701,682,662,644,607,588,572,560,542,514,505,499,495,494,492,491,490,490,489,486,484,482,480,478,475,475,474,474,474,474,474,474,474,474,474,474],"ymouse":[631,631,631,631,631,631,631,631,631,631,631,631,631,631,631,631,631,631,631,631,631,631,631,631,631,631,631,631,631,631,631,631,631,631,631,631,631,631,631,631,631,631,631,631,631,631,631,629,622,607,600,595,593,593,593,593,593,593,593,593,593,593,593,593,593,593,593,593,593,593,593,593,593,593,593,593,593,593,593,593,593,593,593,593,593,593,593,593,593,593,593,593,593,593,593,593,593,593,593,592,591,591,591,590,587,583,580,575,571,565,563,561,560,559,557,556,553,550,541,526,518,509,500,490,462,446,427,409,380,343,327,312,300,294,285,281,276,266,253,227,212,197,183,173,162,161,160,160,159,153,148,140,129,115,100,69],"timestamp_mouse":[17,42,58,77,98,116,137,158,176,196,216,238,257,276,298,317,337,356,378,398,418,436,457,478,498,517,536,557,576,598,618,636,658,677,698,717,736,757,777,796,818,838,857,878,897,917,937,958,978,996,1017,1037,1057,1076,1098,1118,1137,1158,1176,1196,1218,1238,1256,1278,1296,1316,1338,1358,1377,1396,1418,1438,1456,1477,1497,1518,1537,1558,1577,1598,1617,1636,1657,1678,1697,1716,1738,1757,1778,1798,1816,1837,1856,1876,1897,1916,1936,1956,1977,1997,2016,2037,2057,2077,2097,2117,2138,2158,2176,2196,2218,2237,2257,2278,2296,2317,2337,2356,2377,2397,2416,2438,2458,2477,2496,2517,2536,2556,2576,2596,2617,2637,2658,2677,2696,2716,2736,2757,2777,2796,2817,2837,2857,2876,2898,2918,2936,2956,2977,2996,3016,3037,3057,3077,3097,3117],"xSR":741.5,"ySR":573.95,"xT1":424.9,"yT1":0,"xT2":1058.1,"yT2":0,"toosoon":0,"cond_shown":"randomdotsizeEA","ratio_trial":500,"smaller_num":"9","larger_num":"18","correct_side":1,"subjID":"GabrielaGonzalezChaparro25","gender":"1","age":"9","school":"4"},{"start_time":1552070017382,"click_time":1552070019942,"finger_time":1552070018282,"fix_duration":737.1139395694851,"trial":2,"RT":900,"MT":1660,"sideResp":1,"stimulus":"img/250/equaldotanddens/L/1_Ratio_250_L_8_R_2.png","xmouse":[789,789,789,789,789,789,789,789,789,789,789,789,789,789,789,789,789,789,789,789,789,789,789,789,789,789,789,789,789,789,789,789,789,789,789,789,789,789,789,789,789,789,789,791,804,814,822,830,830,830,830,830,830,830,830,830,830,830,831,831,833,834,839,843,849,854,861,873,876,877,877,877,877,877,877,877,877,877,879,882,886,894,906,911,912,912,912,912,912,912,912,912,912,912,903,886,866,812,785,764,749,736,720,706,687,667,641,562,520,497,484,479,471,466,461,456,452,446,446,446,446,446,446,446,447,447,448,453,460],"ymouse":[615,615,615,615,615,615,615,615,615,615,615,615,615,615,615,615,615,615,615,615,615,615,615,615,615,615,615,615,615,615,615,615,615,615,615,615,615,615,615,615,615,615,615,603,576,550,530,509,508,508,508,508,508,508,508,508,508,508,506,504,501,497,482,473,463,450,438,417,411,410,409,409,409,409,409,409,409,409,408,405,401,394,387,384,383,383,383,383,383,383,383,383,383,383,383,381,378,370,365,362,360,355,351,347,342,336,329,306,293,287,283,280,263,252,239,227,210,177,162,149,139,135,129,127,126,124,120,100,85],"timestamp_mouse":[1,20,39,60,80,101,119,139,161,181,199,219,240,259,279,300,320,339,360,381,400,420,440,460,480,499,519,541,560,580,600,621,641,660,681,699,719,740,761,779,800,821,840,861,880,900,921,940,960,981,1001,1021,1039,1059,1080,1100,1121,1139,1161,1179,1199,1221,1241,1260,1280,1300,1321,1340,1360,1380,1400,1419,1439,1459,1479,1501,1520,1541,1559,1579,1599,1621,1640,1659,1680,1699,1720,1741,1759,1779,1800,1820,1840,1859,1879,1899,1921,1941,1960,1979,1999,2019,2039,2060,2080,2101,2120,2139,2161,2180,2200,2221,2240,2260,2280,2300,2321,2339,2360,2380,2401,2421,2439,2460,2480,2501,2520,2539,2559],"xSR":741.5,"ySR":573.95,"xT1":424.9,"yT1":0,"xT2":1058.1,"yT2":0,"toosoon":0,"cond_shown":"equaldotanddens","ratio_trial":250,"smaller_num":"2","larger_num":"8","correct_side":1,"subjID":"GabrielaGonzalezChaparro25","gender":"1","age":"9","school":"4"},{"start_time":1552070022172,"click_time":1552070023803,"finger_time":1552070023163,"fix_duration":1349.5894696600355,"trial":3,"RT":991,"MT":640,"sideResp":2,"stimulus":"img/900/equaldotsize/R/14_Ratio_900_L_18_R_20.png","xmouse":[797,797,797,797,797,797,797,797,797,797,797,797,797,797,797,797,797,797,797,797,797,797,797,797,797,797,797,797,797,797,797,797,797,797,797,797,797,797,797,797,797,797,797,797,797,797,798,802,809,817,829,835,842,849,854,858,864,880,912,925,936,950,967,980,990,1001,1017,1032,1055,1056,1057,1057,1052,1050,1049,1048,1048,1048,1048,1049,1056,1067],"ymouse":[651,651,651,651,651,651,651,651,651,651,651,651,651,651,651,651,651,651,651,651,651,651,651,651,651,651,651,651,651,651,651,651,651,651,651,651,651,651,651,651,651,651,651,651,651,643,638,603,574,545,506,485,459,407,380,351,322,275,156,112,69,39,4,0,0,0,0,0,0,0,0,0,15,23,28,29,29,29,29,31,34,40],"timestamp_mouse":[16,39,50,70,91,110,130,149,170,189,210,230,251,270,290,310,330,351,369,389,411,431,451,470,489,510,529,550,570,591,610,630,651,671,689,709,729,751,770,791,810,830,849,869,891,910,931,949,970,991,1011,1031,1050,1070,1089,1109,1130,1150,1170,1189,1209,1231,1252,1270,1290,1310,1330,1350,1370,1391,1411,1431,1452,1470,1490,1510,1529,1550,1570,1590,1610,1631],"xSR":741.5,"ySR":573.95,"xT1":424.9,"yT1":0,"xT2":1058.1,"yT2":0,"toosoon":0,"cond_shown":"equaldotsize","ratio_trial":900,"smaller_num":"18","larger_num":"20","correct_side":2,"subjID":"GabrielaGonzalezChaparro25","gender":"1","age":"9","school":"4"},{"start_time":1552070026148,"click_time":1552070028322,"finger_time":1552070027603,"fix_duration":1344.5442609103293,"trial":4,"RT":1455,"MT":719,"sideResp":2,"stimulus":"img/900/randomdotsizeEA/R/7_Ratio_900_L_9_R_10.png","xmouse":[825,825,825,825,825,825,825,825,825,825,825,824,824,824,824,824,824,824,824,824,824,824,824,824,824,824,824,824,824,824,824,824,824,824,824,824,824,824,824,824,824,824,824,824,824,824,824,824,824,824,824,824,824,824,824,824,824,824,824,824,824,824,824,824,824,824,824,824,824,824,830,841,853,864,881,891,902,918,932,953,958,963,967,972,979,984,989,993,1000,1010,1013,1017,1023,1029,1039,1048,1052,1054,1054,1054,1054,1054,1054,1054,1054,1055,1056,1057,1059],"ymouse":[638,638,638,638,638,638,638,638,638,638,638,632,628,624,624,624,624,624,624,624,624,624,624,624,624,624,624,624,624,624,624,624,624,624,624,624,624,624,624,624,624,624,624,624,624,624,624,624,624,624,624,624,624,624,624,624,624,624,624,624,624,624,624,624,624,624,624,624,624,622,616,602,584,569,536,513,486,446,407,342,323,306,292,279,256,241,222,208,195,183,179,172,161,148,112,84,59,32,10,0,0,0,0,0,0,0,2,4,8],"timestamp_mouse":[13,37,53,73,93,115,134,153,174,195,214,235,255,274,293,314,335,354,374,393,415,435,454,475,493,513,535,554,575,594,614,635,653,674,695,714,733,753,775,795,814,833,854,873,894,915,934,955,974,994,1013,1034,1053,1074,1094,1115,1135,1154,1174,1194,1215,1235,1254,1275,1294,1313,1333,1354,1373,1393,1414,1435,1455,1475,1494,1514,1534,1554,1574,1594,1614,1634,1654,1674,1694,1713,1735,1754,1773,1793,1814,1834,1854,1874,1893,1914,1935,1953,1974,1994,2014,2034,2054,2075,2094,2113,2135,2154,2174],"xSR":741.5,"ySR":573.95,"xT1":424.9,"yT1":0,"xT2":1058.1,"yT2":0,"toosoon":0,"cond_shown":"randomdotsizeEA","ratio_trial":900,"smaller_num":"9","larger_num":"10","correct_side":2,"subjID":"GabrielaGonzalezChaparro25","gender":"1","age":"9","school":"4"},{"start_time":1552070030341,"click_time":1552070031883,"finger_time":1552070031483,"fix_duration":1277.8960791448346,"trial":5,"RT":1142,"MT":400,"sideResp":1,"stimulus":"img/500/equaldotanddens/L/10_Ratio_500_L_4_R_2.png","xmouse":[804,804,804,804,804,804,804,804,804,804,804,804,804,804,804,804,804,804,804,804,804,804,804,804,804,804,804,804,804,804,804,804,804,804,804,804,804,804,804,804,804,804,804,804,804,804,804,804,804,804,804,804,804,804,802,786,758,724,660,588,502,499,498,495,488,467,455,441,428,407,395,395,395,395,397,403,422,438],"ymouse":[630,630,630,630,630,630,630,630,630,630,630,630,630,630,630,630,630,630,630,630,630,630,630,630,630,630,630,630,630,630,630,630,630,630,630,630,630,630,630,630,630,630,630,630,630,630,630,630,630,630,630,630,630,630,630,635,637,630,602,543,419,395,369,335,303,239,212,185,164,134,112,107,105,104,101,95,84,69],"timestamp_mouse":[9,30,40,62,81,100,121,141,162,182,201,221,240,261,281,300,321,342,362,382,400,420,442,462,482,501,520,541,562,580,600,621,641,661,682,700,721,740,760,780,802,820,841,861,880,900,922,940,962,982,1002,1021,1042,1061,1082,1101,1122,1142,1161,1181,1201,1221,1241,1262,1283,1302,1321,1342,1362,1382,1402,1421,1442,1461,1481,1501,1522,1542],"xSR":741.5,"ySR":573.95,"xT1":424.9,"yT1":0,"xT2":1058.1,"yT2":0,"toosoon":0,"cond_shown":"equaldotanddens","ratio_trial":500,"smaller_num":"2","larger_num":"4","correct_side":1,"subjID":"GabrielaGonzalezChaparro25","gender":"1","age":"9","school":"4"},{"start_time":1552070033751,"click_time":1552070035044,"finger_time":1552070034563,"fix_duration":746.3452667008597,"trial":6,"RT":812,"MT":481,"sideResp":1,"stimulus":"img/250/randomdotsizeEA/L/14_Ratio_250_L_12_R_3.png","xmouse":[774,774,774,774,774,774,774,774,774,774,774,774,774,774,774,774,774,774,774,774,774,774,774,774,774,774,774,774,774,774,774,774,774,774,774,774,774,774,768,759,716,684,647,611,583,539,526,510,497,470,458,444,432,421,414,397,391,390,390,390,398,405,413,423,441],"ymouse":[617,617,617,617,617,617,617,617,617,617,617,617,617,617,617,617,617,617,617,617,617,617,617,617,617,617,617,617,617,617,617,617,617,617,617,617,617,617,616,615,609,601,591,581,571,534,517,494,472,419,388,355,328,305,278,217,175,153,131,112,81,69,60,55,47],"timestamp_mouse":[28,32,52,72,92,112,133,152,171,191,211,231,252,272,291,311,332,351,372,391,411,433,453,472,492,511,531,553,573,592,612,632,652,671,692,711,732,753,771,791,812,831,852,871,891,912,932,952,971,993,1011,1031,1051,1072,1091,1111,1133,1153,1172,1192,1212,1231,1252,1271,1292],"xSR":741.5,"ySR":573.95,"xT1":424.9,"yT1":0,"xT2":1058.1,"yT2":0,"toosoon":0,"cond_shown":"randomdotsizeEA","ratio_trial":250,"smaller_num":"3","larger_num":"12","correct_side":1,"subjID":"GabrielaGonzalezChaparro25","gender":"1","age":"9","school":"4"},{"start_time":1552070036593,"click_time":1552070037664,"finger_time":1552070037362,"fix_duration":728.4212437182176,"trial":7,"RT":769,"MT":302,"sideResp":2,"stimulus":"img/500/equaldotanddens/R/2_Ratio_500_L_3_R_6.png","xmouse":[802,802,802,802,802,802,802,802,802,802,802,802,802,802,802,802,802,802,802,802,802,802,802,802,802,802,802,802,802,802,802,802,802,802,802,805,813,820,844,856,868,885,894,916,936,965,994,1023,1054,1062,1066,1068,1069,1073],"ymouse":[637,637,637,637,637,637,637,637,637,637,637,637,637,637,637,637,637,637,637,637,637,637,637,637,637,637,637,637,637,637,637,637,637,636,630,619,602,584,538,511,482,443,422,378,348,309,268,226,166,145,128,119,106,92],"timestamp_mouse":[17,40,50,69,91,109,130,149,169,189,210,230,250,270,290,310,330,350,369,390,411,430,450,470,489,509,530,550,570,589,609,631,651,669,689,710,729,750,769,789,810,829,850,870,890,910,929,949,971,990,1010,1031,1051,1071],"xSR":741.5,"ySR":573.95,"xT1":424.9,"yT1":0,"xT2":1058.1,"yT2":0,"toosoon":0,"cond_shown":"equaldotanddens","ratio_trial":500,"smaller_num":"3","larger_num":"6","correct_side":2,"subjID":"GabrielaGonzalezChaparro25","gender":"1","age":"9","school":"4"},{"start_time":1552070039168,"click_time":1552070040742,"finger_time":1552070040423,"fix_duration":803.9099942022392,"trial":8,"RT":1255,"MT":319,"sideResp":1,"stimulus":"img/900/randomdotsizeEA/L/1_Ratio_900_L_10_R_9.png","xmouse":[775,775,775,775,775,775,775,775,775,775,775,775,775,775,775,775,775,775,775,775,775,775,775,775,775,775,775,775,775,775,775,775,775,775,775,775,775,775,775,775,775,775,775,775,775,775,775,775,775,775,775,775,775,775,775,775,775,775,775,775,770,749,726,701,655,627,605,584,564,549,543,531,524,511,495,485,477,472,463],"ymouse":[638,638,638,638,638,638,638,638,638,638,638,638,638,638,638,638,638,638,638,638,638,638,638,638,638,638,638,638,638,638,638,638,638,638,638,638,638,638,638,638,638,638,638,638,638,638,638,638,638,638,638,638,638,638,638,638,638,638,638,638,639,639,639,630,604,582,565,546,510,474,450,408,377,333,247,204,165,129,91],"timestamp_mouse":[14,40,54,75,94,114,135,154,175,194,215,234,255,274,295,314,335,354,375,395,415,436,455,475,494,514,535,555,575,594,615,634,654,674,695,716,736,755,776,795,814,835,855,876,895,915,934,955,974,995,1014,1036,1055,1075,1095,1115,1135,1154,1175,1194,1214,1235,1255,1275,1294,1314,1334,1369,1374,1396,1414,1435,1455,1475,1494,1514,1535,1556,1574],"xSR":741.5,"ySR":573.95,"xT1":424.9,"yT1":0,"xT2":1058.1,"yT2":0,"toosoon":0,"cond_shown":"randomdotsizeEA","ratio_trial":900,"smaller_num":"9","larger_num":"10","correct_side":1,"subjID":"GabrielaGonzalezChaparro25","gender":"1","age":"9","school":"4"},{"start_time":1552070042192,"click_time":1552070043583,"finger_time":1552070043103,"fix_duration":549.8738871382192,"trial":9,"RT":911,"MT":480,"sideResp":2,"stimulus":"img/250/equaldotsize/R/6_Ratio_250_L_6_R_24.png","xmouse":[795,795,795,795,795,794,794,794,794,794,794,794,794,794,794,794,794,794,794,794,794,794,794,794,794,794,794,794,794,794,794,794,794,794,794,794,794,794,794,794,794,794,793,793,822,867,910,958,999,1004,1004,1004,1001,999,997,996,995,994,993,994,998,1002,1007,1011,1026,1037,1053,1068,1083,1104],"ymouse":[605,605,605,605,605,605,605,605,606,606,606,606,606,606,606,606,606,606,606,606,606,606,606,606,606,606,606,606,606,606,606,606,606,606,606,606,606,606,606,606,606,606,606,604,577,541,505,465,405,366,341,321,304,289,265,251,239,228,209,190,186,182,179,177,169,161,147,130,110,54],"timestamp_mouse":[17,35,50,71,91,110,130,150,171,190,210,230,250,270,290,310,330,351,370,390,411,430,451,470,490,510,531,550,570,591,612,630,650,670,690,710,731,750,772,790,810,832,850,870,891,911,931,950,972,990,1011,1031,1050,1072,1091,1110,1130,1151,1170,1190,1210,1230,1251,1272,1291,1310,1331,1350,1370,1391],"xSR":741.5,"ySR":573.95,"xT1":424.9,"yT1":0,"xT2":1058.1,"yT2":0,"toosoon":0,"cond_shown":"equaldotsize","ratio_trial":250,"smaller_num":"6","larger_num":"24","correct_side":2,"subjID":"GabrielaGonzalezChaparro25","gender":"1","age":"9","school":"4"},{"start_time":1552070045938,"click_time":1552070048682,"finger_time":1552070048203,"fix_duration":1353.2206169996384,"trial":10,"RT":2265,"MT":479,"sideResp":2,"stimulus":"img/750/equaldotsize/R/15_Ratio_750_L_9_R_12.png","xmouse":[787,787,785,785,784,784,784,784,784,784,784,784,784,784,784,784,784,784,784,784,784,784,784,784,784,784,784,784,784,784,784,784,784,783,783,783,783,783,783,783,783,783,783,783,783,783,783,783,783,783,783,783,783,783,783,783,783,783,783,783,783,783,783,783,783,783,783,783,783,783,783,783,783,783,783,783,783,783,783,783,783,783,783,783,783,783,783,783,783,783,783,783,783,783,783,783,783,783,783,783,783,783,783,783,783,784,785,794,798,802,803,812,836,857,886,917,949,997,1010,1020,1028,1041,1058,1068,1080,1094,1110,1129,1131,1133,1133,1133,1133,1133,1130,1121,1110,1083],"ymouse":[634,634,634,634,634,634,634,634,634,634,634,634,634,634,634,634,634,634,634,634,634,634,634,634,634,634,634,634,634,634,634,634,634,634,634,634,634,634,634,634,634,634,634,634,634,634,634,634,634,634,634,634,634,634,634,634,634,634,634,634,634,635,635,635,635,635,635,635,635,635,635,635,635,635,635,635,635,635,635,635,635,635,635,635,635,635,635,635,635,635,635,635,635,635,635,635,635,635,635,635,635,635,635,635,635,637,638,642,643,643,643,634,611,585,548,506,462,387,363,339,322,299,274,260,244,224,206,175,169,165,165,165,163,156,145,127,106,54],"timestamp_mouse":[11,24,44,65,85,104,124,144,165,184,204,226,245,265,285,304,325,344,366,384,405,425,445,464,485,504,524,544,565,585,604,625,645,665,685,705,725,745,764,786,805,824,845,865,884,905,924,944,965,984,1005,1024,1046,1064,1085,1105,1126,1145,1164,1185,1205,1226,1245,1265,1284,1305,1324,1344,1364,1384,1406,1426,1445,1464,1485,1504,1525,1544,1565,1585,1604,1626,1645,1665,1685,1705,1725,1745,1765,1785,1804,1825,1845,1864,1886,1905,1924,1944,1965,1985,2004,2025,2044,2065,2085,2104,2125,2144,2165,2184,2205,2225,2244,2265,2284,2304,2324,2345,2364,2385,2406,2426,2445,2464,2484,2505,2524,2545,2565,2585,2606,2624,2644,2665,2684,2704,2724,2744],"xSR":741.5,"ySR":573.95,"xT1":424.9,"yT1":0,"xT2":1058.1,"yT2":0,"toosoon":0,"cond_shown":"equaldotsize","ratio_trial":750,"smaller_num":"9","larger_num":"12","correct_side":2,"subjID":"GabrielaGonzalezChaparro25","gender":"1","age":"9","school":"4"},{"start_time":1552070050288,"click_time":1552070051802,"finger_time":1552070051183,"fix_duration":823.9379914307066,"trial":11,"RT":895,"MT":619,"sideResp":1,"stimulus":"img/750/randomdotsizeEA/R/4_Ratio_750_L_15_R_20.png","xmouse":[813,813,813,813,813,813,813,813,814,814,814,814,814,814,814,814,814,814,814,814,814,814,814,814,814,814,814,814,814,814,814,814,814,814,814,814,814,814,814,814,814,814,804,785,712,654,589,543,517,503,502,502,502,502,502,502,502,502,502,502,502,502,502,502,496,494,493,493,492,492,492,492,492,492,493,494],"ymouse":[626,626,626,626,626,626,626,626,625,625,625,625,625,625,625,625,625,625,625,625,625,625,625,625,625,625,625,625,625,625,625,625,625,625,625,625,625,625,625,625,625,625,624,623,612,596,577,556,539,514,494,479,462,443,423,385,361,337,313,288,226,203,181,163,137,129,124,123,122,119,117,116,115,112,103,99],"timestamp_mouse":[18,37,54,75,94,114,134,154,174,194,215,234,255,276,295,315,334,355,376,395,415,435,454,474,495,514,535,555,575,595,615,635,654,674,695,715,734,755,774,794,815,835,855,874,895,914,934,955,975,995,1014,1034,1054,1074,1094,1114,1134,1155,1174,1195,1214,1235,1254,1275,1295,1314,1335,1354,1376,1395,1414,1435,1455,1474,1495,1514],"xSR":741.5,"ySR":573.95,"xT1":424.9,"yT1":0,"xT2":1058.1,"yT2":0,"toosoon":0,"cond_shown":"randomdotsizeEA","ratio_trial":750,"smaller_num":"15","larger_num":"20","correct_side":2,"subjID":"GabrielaGonzalezChaparro25","gender":"1","age":"9","school":"4"},{"start_time":1552070052775,"click_time":1552070054303,"finger_time":1552070052882,"fix_duration":250,"trial":12,"RT":107,"MT":1421,"sideResp":1,"stimulus":"img/500/equaldotanddens/L/8_Ratio_500_L_8_R_4.png","xmouse":[794,794,794,789,783,776,771,770,770,770,770,767,767,767,767,768,770,772,772,772,772,772,772,772,772,772,772,772,772,772,772,772,772,772,772,772,772,772,772,772,772,772,772,772,772,772,760,743,724,694,659,598,577,562,553,541,527,516,506,494,482,455,441,430,421,410,398,393,392,392,394,397,400,404,410,421,435],"ymouse":[629,629,630,645,666,688,714,715,715,710,699,683,678,674,670,665,647,642,639,639,639,639,639,639,639,639,639,639,639,641,642,642,642,642,642,642,642,642,642,642,642,642,642,642,642,642,645,645,645,643,638,625,617,610,602,583,538,503,467,424,373,270,214,158,113,72,14,0,0,0,0,0,0,4,10,20,32],"timestamp_mouse":[24,28,48,68,89,107,128,147,167,188,207,227,248,267,287,307,328,347,367,387,409,428,448,468,487,508,527,547,568,589,607,628,647,668,689,709,728,748,767,789,807,828,848,868,888,908,927,947,968,988,1008,1028,1047,1068,1087,1107,1128,1148,1167,1187,1208,1228,1247,1268,1287,1308,1329,1347,1367,1388,1408,1427,1447,1467,1487,1508,1528],"xSR":741.5,"ySR":573.95,"xT1":424.9,"yT1":0,"xT2":1058.1,"yT2":0,"toosoon":0,"cond_shown":"equaldotanddens","ratio_trial":500,"smaller_num":"4","larger_num":"8","correct_side":1,"subjID":"GabrielaGonzalezChaparro25","gender":"1","age":"9","school":"4"},{"start_time":1552070056687,"click_time":1552070061043,"finger_time":1552070058623,"fix_duration":1363.0586384852386,"trial":13,"RT":1936,"MT":2420,"sideResp":1,"stimulus":"img/750/randomdotsizeEA/L/9_Ratio_750_L_4_R_3.png","xmouse":[770,770,770,770,770,770,770,770,770,770,770,770,770,770,770,770,770,770,770,770,770,770,770,770,770,770,770,770,770,770,770,770,770,770,770,770,770,770,770,770,770,770,770,772,773,775,776,777,780,782,787,789,791,791,791,791,791,791,791,791,791,791,791,791,791,792,792,792,792,792,792,791,785,778,765,746,743,742,742,742,742,742,742,742,744,749,752,753,756,758,762,766,773,783,798,833,862,871,903,924,969,990,1005,1016,1020,1021,1021,1021,1020,1019,1011,1007,998,991,980,961,943,929,912,890,842,819,806,796,793,792,791,791,791,791,791,791,791,791,791,791,788,785,777,770,754,751,751,751,751,751,751,751,751,751,751,749,747,743,739,736,729,728,724,719,715,702,688,676,666,661,660,660,659,659,659,660,663,665,667,670,671,672,672,672,670,659,652,646,634,619,586,570,566,565,565,565,565,565,566,568,571,571,571,568,560,538,527,515,503,486,478,475,474,474,474,471,468,465,461,458,453,451],"ymouse":[646,646,646,646,646,646,646,646,646,646,646,646,646,646,646,646,646,646,646,646,646,646,646,646,646,646,646,646,646,646,646,646,646,646,646,646,646,646,646,646,646,646,646,646,646,646,645,645,644,644,644,645,647,648,648,648,648,648,648,648,648,648,648,648,648,648,646,645,644,643,643,642,642,642,646,652,652,653,653,653,653,653,653,653,653,653,651,651,650,649,648,645,642,635,626,607,591,585,564,548,515,497,485,477,474,473,473,473,473,473,482,486,493,497,502,513,525,534,547,566,602,616,626,633,636,637,638,638,638,638,638,638,638,638,638,638,638,636,631,625,611,610,609,609,609,609,609,609,609,610,613,615,618,623,627,629,634,635,637,638,639,640,640,638,636,635,634,634,634,634,634,633,632,631,629,627,625,624,622,621,618,614,611,607,598,589,570,559,556,555,555,554,554,553,550,544,525,515,503,488,469,426,409,389,370,331,302,284,265,247,228,193,178,163,150,138,107,94],"timestamp_mouse":[18,40,56,76,95,115,136,155,175,195,217,235,255,276,295,316,335,355,375,395,415,436,456,475,495,517,536,556,575,595,616,635,656,676,697,717,737,757,776,796,815,837,856,876,896,915,936,956,976,995,1015,1036,1056,1076,1095,1116,1136,1156,1175,1195,1216,1236,1255,1276,1296,1316,1336,1355,1376,1396,1416,1435,1457,1476,1495,1515,1536,1555,1577,1597,1616,1635,1656,1676,1696,1715,1736,1755,1776,1796,1815,1836,1855,1876,1896,1915,1936,1956,1976,1995,2015,2035,2056,2076,2095,2116,2135,2155,2176,2196,2216,2235,2256,2276,2295,2315,2335,2356,2375,2396,2416,2436,2456,2475,2496,2515,2536,2556,2575,2595,2616,2635,2656,2676,2697,2717,2735,2756,2776,2796,2816,2836,2856,2876,2896,2917,2936,2955,2975,2996,3016,3036,3055,3076,3095,3115,3135,3156,3175,3196,3217,3235,3256,3276,3295,3316,3336,3356,3375,3396,3417,3436,3455,3476,3495,3516,3535,3555,3575,3596,3615,3636,3656,3676,3696,3716,3735,3755,3776,3796,3815,3836,3856,3877,3896,3916,3935,3955,3976,3995,4017,4035,4057,4076,4096,4116,4135,4155,4175,4195,4215,4235,4256,4276,4295,4315,4335,4355],"xSR":741.5,"ySR":573.95,"xT1":424.9,"yT1":0,"xT2":1058.1,"yT2":0,"toosoon":0,"cond_shown":"randomdotsizeEA","ratio_trial":750,"smaller_num":"3","larger_num":"4","correct_side":1,"subjID":"GabrielaGonzalezChaparro25","gender":"1","age":"9","school":"4"},{"start_time":1552070062610,"click_time":1552070064304,"finger_time":1552070064022,"fix_duration":686.1848158982558,"trial":14,"RT":1412,"MT":282,"sideResp":2,"stimulus":"img/500/randomdotsizeEA/R/12_Ratio_500_L_1_R_2.png","xmouse":[787,787,787,787,787,787,787,787,787,787,787,787,787,787,787,787,787,787,787,787,787,787,787,787,787,787,787,787,787,787,787,787,787,787,785,781,777,775,775,775,775,775,775,775,775,775,775,775,775,775,775,775,775,775,775,775,775,775,775,775,775,775,775,775,776,784,792,802,816,830,866,893,920,944,967,1017,1045,1071,1089,1098,1104,1099,1092,1080,1071],"ymouse":[619,619,619,619,619,619,619,619,619,619,619,619,619,619,619,619,619,619,619,619,619,619,619,619,619,619,619,619,619,619,619,619,619,619,620,623,627,630,631,631,631,631,631,631,631,631,631,631,631,631,631,631,631,631,631,631,631,631,631,631,631,631,631,631,628,622,617,610,601,594,568,546,525,503,482,429,392,349,309,271,186,158,132,105,81],"timestamp_mouse":[12,40,52,72,93,112,133,154,174,193,213,233,252,273,292,313,333,354,373,393,412,432,453,472,492,512,534,553,572,593,613,633,652,673,693,712,734,753,772,792,812,834,853,873,892,914,933,953,972,992,1012,1032,1052,1072,1092,1113,1134,1153,1173,1193,1213,1233,1253,1272,1293,1312,1332,1353,1373,1393,1412,1432,1453,1473,1492,1512,1532,1553,1573,1593,1612,1632,1652,1672,1693],"xSR":741.5,"ySR":573.95,"xT1":424.9,"yT1":0,"xT2":1058.1,"yT2":0,"toosoon":0,"cond_shown":"randomdotsizeEA","ratio_trial":500,"smaller_num":"1","larger_num":"2","correct_side":2,"subjID":"GabrielaGonzalezChaparro25","gender":"1","age":"9","school":"4"},{"start_time":1552070065461,"click_time":1552070066942,"finger_time":1552070066723,"fix_duration":296.4046032943387,"trial":15,"RT":1262,"MT":219,"sideResp":2,"stimulus":"img/750/equaldotanddens/R/11_Ratio_750_L_12_R_16.png","xmouse":[819,819,819,819,819,819,819,820,820,820,820,820,820,820,820,820,820,820,820,820,820,820,820,820,820,820,820,820,820,820,820,820,820,820,820,820,820,820,820,820,820,820,820,820,820,820,820,820,820,820,820,820,820,820,820,820,820,820,823,827,830,834,839,853,863,876,896,920,985,1020,1049,1068,1084,1091,1091],"ymouse":[629,629,629,629,629,629,629,629,629,629,629,629,629,629,629,629,629,629,629,629,629,629,629,629,629,629,629,629,629,629,629,629,629,629,629,629,629,629,629,629,629,629,629,629,629,629,629,629,629,629,629,629,629,629,629,629,629,629,626,619,617,612,606,592,583,569,542,507,419,367,307,254,199,111,73],"timestamp_mouse":[9,22,41,61,83,101,122,141,163,182,202,221,242,263,282,301,321,342,361,382,403,422,442,462,481,503,521,541,562,581,602,622,641,661,682,702,721,742,761,782,801,822,843,863,881,902,923,942,962,982,1001,1023,1042,1061,1082,1102,1121,1141,1162,1182,1202,1222,1242,1262,1281,1301,1322,1342,1361,1382,1402,1422,1442,1461,1481],"xSR":741.5,"ySR":573.95,"xT1":424.9,"yT1":0,"xT2":1058.1,"yT2":0,"toosoon":0,"cond_shown":"equaldotanddens","ratio_trial":750,"smaller_num":"12","larger_num":"16","correct_side":2,"subjID":"GabrielaGonzalezChaparro25","gender":"1","age":"9","school":"4"},{"start_time":1552070068291,"click_time":1552070069963,"finger_time":1552070069083,"fix_duration":345.5521148549321,"trial":16,"RT":792,"MT":880,"sideResp":2,"stimulus":"img/750/equaldotsize/R/7_Ratio_750_L_3_R_4.png","xmouse":[772,772,772,772,772,772,772,772,772,772,772,772,772,772,772,772,772,772,772,772,772,772,772,772,772,772,772,772,772,772,772,772,772,772,772,771,765,754,747,739,728,719,712,710,709,708,707,706,706,706,706,706,706,706,704,703,702,702,702,705,713,757,803,846,898,933,964,1008,1030,1047,1058,1067,1069,1069,1069,1068,1064,1050,1045,1042,1042,1043,1053,1059],"ymouse":[618,618,618,618,618,618,618,618,618,618,618,618,618,618,618,618,618,618,618,618,618,618,618,618,618,618,618,618,618,618,618,618,618,618,620,621,623,628,631,634,636,638,640,641,642,643,644,644,644,644,644,644,644,643,640,638,633,626,621,616,609,581,561,543,529,513,498,464,446,426,403,363,336,315,288,262,235,170,139,112,94,67,44,30],"timestamp_mouse":[11,31,51,71,91,112,132,153,172,192,211,231,252,271,291,312,332,352,371,392,412,432,452,472,491,512,531,553,571,592,612,632,652,672,692,712,732,752,771,792,812,832,851,873,893,913,932,952,972,992,1011,1031,1051,1072,1093,1112,1132,1152,1172,1192,1211,1232,1251,1271,1291,1312,1333,1352,1372,1392,1412,1432,1451,1471,1491,1513,1531,1552,1571,1592,1611,1632,1651,1672],"xSR":741.5,"ySR":573.95,"xT1":424.9,"yT1":0,"xT2":1058.1,"yT2":0,"toosoon":0,"cond_shown":"equaldotsize","ratio_trial":750,"smaller_num":"3","larger_num":"4","correct_side":2,"subjID":"GabrielaGonzalezChaparro25","gender":"1","age":"9","school":"4"},{"start_time":1552070072600,"click_time":1552070073963,"finger_time":1552070073462,"fix_duration":536.5041869478437,"trial":17,"RT":862,"MT":501,"sideResp":1,"stimulus":"img/250/equaldotsize/L/5_Ratio_250_L_24_R_6.png","xmouse":[768,768,768,768,768,768,768,768,768,768,768,768,768,768,768,768,768,768,768,768,768,768,768,768,768,768,768,768,768,768,768,768,768,768,768,768,768,768,768,768,768,765,751,724,694,652,612,565,526,508,497,483,451,431,408,395,386,380,380,382,389,397,411,418,423,429,439,453,459],"ymouse":[641,641,641,641,641,641,641,641,641,641,641,641,641,641,641,641,641,641,641,641,641,641,641,641,641,641,641,641,641,641,641,641,641,641,641,641,641,641,641,641,641,641,641,641,637,630,618,600,574,560,550,533,497,473,430,386,333,256,227,200,181,171,158,155,151,147,134,107,91],"timestamp_mouse":[11,22,43,63,82,103,122,143,162,182,202,223,243,263,283,302,323,343,363,382,403,423,442,462,482,503,523,543,562,583,602,623,643,664,682,703,722,744,762,783,802,822,843,862,883,903,923,942,962,982,1003,1023,1042,1062,1083,1102,1122,1142,1162,1182,1202,1222,1242,1262,1283,1302,1323,1342,1362],"xSR":741.5,"ySR":573.95,"xT1":424.9,"yT1":0,"xT2":1058.1,"yT2":0,"toosoon":0,"cond_shown":"equaldotsize","ratio_trial":250,"smaller_num":"6","larger_num":"24","correct_side":1,"subjID":"GabrielaGonzalezChaparro25","gender":"1","age":"9","school":"4"},{"start_time":1552070077228,"click_time":1552070079663,"finger_time":1552070078043,"fix_duration":1003.3191163228768,"trial":18,"RT":815,"MT":1620,"sideResp":2,"stimulus":"img/750/randomdotsizeEA/R/12_Ratio_750_L_3_R_4.png","xmouse":[808,808,808,808,808,808,808,808,808,808,808,808,808,808,808,808,808,808,808,808,808,808,808,808,808,808,808,808,808,808,808,808,808,808,808,808,808,806,802,782,709,641,601,577,566,563,556,555,552,551,551,551,550,549,549,548,547,547,547,547,547,547,547,547,547,546,546,546,546,546,546,546,546,546,546,546,546,546,546,546,546,546,546,546,546,546,546,546,546,546,546,546,546,546,546,546,547,548,549,549,550,553,553,554,555,559,561,569,586,610,681,779,820,841,860,872,902,920,939,967,997,1063],"ymouse":[613,613,613,613,613,613,613,613,613,613,613,613,613,613,613,613,613,613,613,613,613,613,613,613,613,613,613,613,613,613,613,613,613,613,613,613,613,612,612,613,613,613,606,597,588,580,560,552,546,542,539,531,527,521,518,515,514,514,513,512,512,512,511,511,510,510,509,508,507,506,506,505,505,505,505,505,505,504,504,504,504,504,503,503,503,503,503,503,503,503,503,503,503,503,503,502,502,502,502,502,502,502,502,502,502,503,503,503,503,501,475,420,386,360,332,307,233,197,163,126,89,15],"timestamp_mouse":[15,34,55,74,94,115,134,154,175,194,215,236,255,275,295,315,335,355,374,395,414,434,454,475,495,514,535,554,576,595,615,634,655,675,695,715,735,755,774,796,815,834,855,874,896,915,934,955,975,994,1016,1034,1055,1075,1095,1116,1134,1155,1174,1194,1215,1235,1254,1275,1295,1315,1334,1355,1374,1395,1414,1434,1454,1474,1496,1515,1535,1555,1575,1595,1614,1634,1654,1675,1694,1715,1735,1754,1775,1794,1814,1834,1855,1874,1894,1914,1935,1955,1975,1994,2015,2035,2054,2075,2094,2115,2135,2154,2175,2195,2215,2235,2255,2275,2294,2315,2335,2356,2375,2395,2414,2435],"xSR":741.5,"ySR":573.95,"xT1":424.9,"yT1":0,"xT2":1058.1,"yT2":0,"toosoon":0,"cond_shown":"randomdotsizeEA","ratio_trial":750,"smaller_num":"3","larger_num":"4","correct_side":2,"subjID":"GabrielaGonzalezChaparro25","gender":"1","age":"9","school":"4"},{"start_time":1552070083975,"click_time":1552070085482,"finger_time":1552070084923,"fix_duration":311.1086466090894,"trial":19,"RT":948,"MT":559,"sideResp":1,"stimulus":"img/750/equaldotanddens/L/8_Ratio_750_L_4_R_3.png","xmouse":[830,830,830,830,830,830,830,830,830,830,830,830,830,830,830,830,830,830,830,830,830,830,830,830,830,830,830,830,830,830,830,830,830,830,830,830,830,830,830,830,830,830,830,830,830,816,790,740,683,575,543,521,516,514,510,508,507,505,499,489,464,458,454,449,432,422,408,396,385,376,376,379,386,395,419,435],"ymouse":[634,634,634,634,634,634,634,634,634,634,634,634,634,634,634,634,634,634,634,634,634,634,634,634,634,634,634,634,634,634,634,634,634,634,634,634,634,634,634,634,634,634,634,634,634,635,636,636,636,619,604,588,577,568,536,508,478,453,422,386,296,262,222,180,113,80,50,24,4,0,0,0,9,25,63,84],"timestamp_mouse":[11,34,49,68,87,107,128,148,167,187,207,228,247,267,288,309,329,348,368,387,408,427,448,468,487,507,529,548,568,587,609,627,647,668,688,707,727,748,769,788,807,827,848,869,887,908,927,948,967,987,1007,1027,1048,1068,1089,1108,1127,1148,1167,1187,1207,1228,1248,1268,1287,1307,1328,1348,1367,1388,1407,1429,1448,1468,1487,1507],"xSR":741.5,"ySR":573.95,"xT1":424.9,"yT1":0,"xT2":1058.1,"yT2":0,"toosoon":0,"cond_shown":"equaldotanddens","ratio_trial":750,"smaller_num":"3","larger_num":"4","correct_side":1,"subjID":"GabrielaGonzalezChaparro25","gender":"1","age":"9","school":"4"},{"start_time":1552070086687,"click_time":1552070088264,"finger_time":1552070087603,"fix_duration":323.9301912117593,"trial":20,"RT":916,"MT":661,"sideResp":1,"stimulus":"img/750/equaldotsize/R/5_Ratio_750_L_15_R_20.png","xmouse":[774,774,774,774,774,774,774,774,774,774,774,774,774,774,774,774,774,774,774,774,774,774,774,774,774,774,774,774,774,774,774,774,774,774,774,774,774,774,774,774,774,774,772,770,745,717,666,609,547,483,475,472,474,484,483,470,451,426,403,362,354,353,356,365,373,374,376,377,379,387,395,401,405,411,413,417,419,422,428],"ymouse":[650,650,650,650,650,650,650,650,650,650,650,650,650,650,650,650,650,650,650,650,650,650,650,650,650,650,650,650,650,650,650,650,650,650,650,650,650,650,650,650,650,650,650,651,660,666,672,672,668,632,603,555,505,432,332,274,218,161,107,20,0,0,0,0,0,0,0,0,0,12,23,29,33,39,40,41,41,42,42],"timestamp_mouse":[16,39,56,75,96,115,135,156,177,195,215,236,255,275,296,316,335,356,377,396,415,436,456,476,495,516,536,557,576,595,617,637,655,675,696,717,735,756,776,795,816,837,857,877,895,916,936,955,976,995,1015,1037,1056,1075,1095,1116,1135,1155,1175,1195,1215,1235,1256,1275,1295,1315,1335,1356,1375,1396,1416,1436,1455,1476,1496,1515,1536,1556,1576],"xSR":741.5,"ySR":573.95,"xT1":424.9,"yT1":0,"xT2":1058.1,"yT2":0,"toosoon":0,"cond_shown":"equaldotsize","ratio_trial":750,"smaller_num":"15","larger_num":"20","correct_side":2,"subjID":"GabrielaGonzalezChaparro25","gender":"1","age":"9","school":"4"},{"start_time":1552070091851,"click_time":1552070093044,"finger_time":1552070092544,"fix_duration":1245.0729070191153,"trial":21,"RT":693,"MT":500,"sideResp":1,"stimulus":"img/500/equaldotanddens/L/11_Ratio_500_L_12_R_6.png","xmouse":[773,773,772,772,772,772,772,772,772,772,772,772,772,772,772,772,772,772,772,772,772,772,772,772,772,772,772,772,771,771,769,765,761,746,733,716,655,609,553,498,449,370,333,325,311,309,307,308,311,316,322,331,341,348,355,362,369,396,414,431],"ymouse":[632,632,632,632,632,632,632,632,632,632,632,632,632,632,632,632,632,632,632,632,632,632,632,632,632,632,632,632,630,628,625,619,616,607,600,588,536,477,399,325,251,130,66,48,13,5,0,0,0,0,0,0,0,0,0,0,1,9,14,19],"timestamp_mouse":[12,31,53,72,92,113,133,152,171,193,213,231,252,271,293,312,332,353,372,392,413,433,453,473,492,513,533,552,572,592,613,632,652,671,693,712,731,751,773,792,813,833,852,872,892,913,932,952,971,992,1011,1031,1052,1072,1092,1112,1131,1152,1172,1192],"xSR":741.5,"ySR":573.95,"xT1":424.9,"yT1":0,"xT2":1058.1,"yT2":0,"toosoon":0,"cond_shown":"equaldotanddens","ratio_trial":500,"smaller_num":"6","larger_num":"12","correct_side":1,"subjID":"GabrielaGonzalezChaparro25","gender":"1","age":"9","school":"4"},{"start_time":1552070095238,"click_time":1552070097144,"finger_time":1552070096303,"fix_duration":1293.6876496105037,"trial":22,"RT":1065,"MT":841,"sideResp":1,"stimulus":"img/900/randomdotsizeEA/R/5_Ratio_900_L_9_R_10.png","xmouse":[781,781,781,781,781,781,781,781,781,781,781,781,781,781,781,781,781,781,781,781,781,781,781,781,781,781,781,781,781,781,781,781,781,781,781,781,781,781,781,781,781,781,781,781,781,781,781,781,781,777,773,763,752,734,733,733,733,733,733,733,733,733,733,733,733,732,732,728,720,712,701,688,664,626,609,597,587,580,559,548,538,527,516,511,510,510,510,510,506,503,495,488,474,461,453,446],"ymouse":[624,624,624,624,624,624,624,624,624,624,624,624,624,624,624,624,624,624,624,624,624,624,624,624,624,624,624,624,624,624,624,624,624,624,624,624,624,624,624,624,624,624,624,624,624,624,624,624,624,626,627,627,627,627,627,627,627,627,627,627,627,627,627,627,627,627,627,626,615,607,599,592,583,567,559,551,541,530,491,472,450,431,399,377,365,351,339,323,285,264,239,215,162,124,100,79],"timestamp_mouse":[17,24,46,65,85,106,125,146,166,185,205,225,245,266,285,305,326,345,366,385,406,425,445,466,485,505,525,546,565,586,605,626,646,665,686,704,725,746,766,786,806,825,845,866,885,905,926,945,966,986,1005,1025,1045,1065,1085,1105,1124,1144,1166,1185,1205,1226,1247,1265,1285,1305,1326,1346,1365,1386,1406,1425,1445,1466,1485,1505,1525,1544,1566,1585,1606,1625,1646,1665,1686,1705,1725,1744,1766,1785,1806,1826,1847,1865,1886,1905],"xSR":741.5,"ySR":573.95,"xT1":424.9,"yT1":0,"xT2":1058.1,"yT2":0,"toosoon":0,"cond_shown":"randomdotsizeEA","ratio_trial":900,"smaller_num":"9","larger_num":"10","correct_side":2,"subjID":"GabrielaGonzalezChaparro25","gender":"1","age":"9","school":"4"},{"start_time":1552070100754,"click_time":1552070102044,"finger_time":1552070101564,"fix_duration":1309.3829583988545,"trial":23,"RT":810,"MT":480,"sideResp":1,"stimulus":"img/250/randomdotsizeEA/L/7_Ratio_250_L_8_R_2.png","xmouse":[788,788,788,787,787,787,787,787,787,787,787,787,787,787,787,787,787,787,787,787,787,787,787,787,787,787,787,787,787,787,787,787,787,787,787,787,786,777,768,755,739,724,692,677,675,672,670,658,643,625,603,581,550,532,523,517,513,507,501,491,485,481,477,477,476],"ymouse":[628,628,629,630,630,630,630,630,630,630,630,630,630,630,630,630,630,630,630,630,630,631,632,633,633,633,633,633,633,633,633,633,633,633,633,633,635,637,638,638,633,627,613,606,605,599,590,542,500,452,406,357,284,252,236,223,212,188,174,159,148,136,117,108,94],"timestamp_mouse":[11,30,48,68,89,110,129,150,169,190,209,229,250,268,289,310,329,350,370,389,410,429,449,469,490,509,529,550,570,589,609,629,650,668,690,709,730,750,770,790,810,828,849,869,889,910,930,949,969,990,1009,1029,1049,1069,1090,1110,1129,1150,1170,1189,1210,1229,1249,1269,1290],"xSR":741.5,"ySR":573.95,"xT1":424.9,"yT1":0,"xT2":1058.1,"yT2":0,"toosoon":0,"cond_shown":"randomdotsizeEA","ratio_trial":250,"smaller_num":"2","larger_num":"8","correct_side":1,"subjID":"GabrielaGonzalezChaparro25","gender":"1","age":"9","school":"4"},{"start_time":1552070103364,"click_time":1552070106024,"finger_time":1552070104483,"fix_duration":638.446131728286,"trial":24,"RT":1119,"MT":1541,"sideResp":2,"stimulus":"img/900/equaldotsize/L/1_Ratio_900_L_10_R_9.png","xmouse":[791,790,789,789,789,788,788,787,787,787,787,787,787,786,785,785,785,785,785,785,785,785,785,785,785,785,785,785,785,785,785,785,785,785,785,785,785,785,785,785,785,785,785,785,785,785,785,785,785,785,785,785,785,787,792,799,803,803,803,803,803,803,803,803,803,803,803,800,778,757,732,693,644,549,529,518,514,511,509,506,505,503,502,501,501,501,501,501,501,501,501,501,503,509,511,517,529,547,606,651,687,708,727,727,728,730,733,734,739,744,752,764,795,874,918,956,994,1031,1099,1126,1148,1166,1186,1201,1201,1201,1194,1181,1158,1150,1147,1146,1146,1146],"ymouse":[639,639,640,640,640,641,642,643,643,643,643,643,643,644,644,644,644,644,644,644,644,644,644,644,644,644,644,644,644,644,644,644,644,644,644,644,644,644,644,644,644,644,644,644,644,644,644,644,644,644,644,644,644,654,663,671,675,676,676,676,676,676,676,676,676,676,676,676,675,672,668,658,644,614,602,592,587,570,558,547,534,523,514,511,511,511,511,511,510,509,509,509,508,508,508,511,523,541,600,634,661,676,685,685,685,682,675,667,653,645,638,630,618,607,600,589,572,554,495,454,408,362,289,188,144,100,55,2,0,0,0,0,0,25],"timestamp_mouse":[1,19,39,60,80,99,120,139,158,179,200,219,240,260,279,300,319,340,359,379,398,420,439,460,480,500,519,538,560,580,599,620,640,659,678,698,719,740,759,780,798,818,840,860,879,898,920,938,960,980,999,1019,1040,1058,1079,1099,1119,1139,1160,1179,1200,1220,1240,1259,1279,1299,1320,1338,1359,1379,1400,1420,1439,1458,1479,1499,1519,1541,1558,1579,1599,1620,1639,1660,1680,1699,1718,1739,1758,1779,1799,1819,1840,1859,1879,1899,1919,1940,1960,1980,1999,2019,2040,2059,2079,2099,2119,2149,2159,2179,2198,2218,2238,2258,2279,2300,2318,2339,2360,2380,2400,2420,2439,2460,2479,2499,2520,2539,2560,2579,2599,2618,2639,2659],"xSR":741.5,"ySR":573.95,"xT1":424.9,"yT1":0,"xT2":1058.1,"yT2":0,"toosoon":0,"cond_shown":"equaldotsize","ratio_trial":900,"smaller_num":"9","larger_num":"10","correct_side":1,"subjID":"GabrielaGonzalezChaparro25","gender":"1","age":"9","school":"4"},{"start_time":1552070107443,"click_time":1552070109243,"finger_time":1552070108624,"fix_duration":597.5748606666158,"trial":25,"RT":1181,"MT":619,"sideResp":1,"stimulus":"img/500/randomdotsizeEA/L/10_Ratio_500_L_4_R_2.png","xmouse":[808,808,808,808,809,809,809,809,809,809,809,811,811,811,811,811,811,811,811,811,811,811,811,811,811,811,811,811,811,811,811,811,811,811,811,811,811,811,811,811,811,811,811,811,811,811,811,811,811,811,811,812,812,810,800,791,776,759,749,741,738,738,738,738,738,738,738,738,737,726,710,685,653,619,583,550,542,541,539,523,515,507,496,490,478,478,476,476,476,468,462],"ymouse":[634,634,634,634,634,634,634,634,634,634,634,634,634,634,634,634,634,634,634,634,634,634,634,634,634,634,634,634,634,634,634,634,634,634,634,634,634,634,634,634,634,634,634,634,634,634,634,634,634,634,634,634,634,638,646,654,662,669,672,674,675,675,675,675,675,675,675,675,675,662,647,631,610,591,565,526,491,468,437,348,308,271,235,213,172,162,154,143,132,102,82],"timestamp_mouse":[9,33,40,60,80,100,120,141,161,181,201,220,240,261,279,299,321,340,360,381,400,421,441,460,479,501,520,540,560,581,600,620,640,661,681,701,720,739,761,781,800,821,841,861,881,900,921,941,961,981,1000,1020,1041,1060,1080,1099,1121,1141,1160,1180,1201,1221,1239,1260,1280,1300,1319,1340,1359,1380,1399,1421,1439,1459,1480,1501,1520,1540,1560,1582,1599,1621,1640,1660,1680,1700,1720,1740,1761,1780,1800],"xSR":741.5,"ySR":573.95,"xT1":424.9,"yT1":0,"xT2":1058.1,"yT2":0,"toosoon":0,"cond_shown":"randomdotsizeEA","ratio_trial":500,"smaller_num":"2","larger_num":"4","correct_side":1,"subjID":"GabrielaGonzalezChaparro25","gender":"1","age":"9","school":"4"},{"start_time":1552070110358,"click_time":1552070111603,"finger_time":1552070111044,"fix_duration":332.5190295299935,"trial":26,"RT":686,"MT":559,"sideResp":1,"stimulus":"img/250/equaldotanddens/L/14_Ratio_250_L_12_R_3.png","xmouse":[787,787,787,787,787,787,787,787,787,787,787,787,787,787,787,787,787,787,787,787,787,787,787,787,787,787,787,787,787,787,787,786,783,753,733,708,683,661,651,644,644,643,643,643,643,638,628,617,584,566,541,525,511,500,486,481,480,478,474,472,471,470,470],"ymouse":[609,609,609,609,609,609,609,609,609,609,609,609,609,609,609,609,609,609,609,609,609,609,609,609,609,609,609,609,609,609,609,609,610,620,622,622,622,622,622,620,620,620,620,599,574,542,509,473,397,357,298,265,243,221,193,183,175,165,146,126,114,104,95],"timestamp_mouse":[10,27,46,65,86,106,125,145,165,186,205,225,246,264,286,305,326,346,366,385,406,426,446,465,486,506,526,546,565,585,605,626,646,666,686,705,726,745,765,785,805,825,845,865,884,905,926,945,966,984,1005,1024,1044,1064,1085,1105,1126,1145,1165,1185,1205,1226,1245],"xSR":741.5,"ySR":573.95,"xT1":424.9,"yT1":0,"xT2":1058.1,"yT2":0,"toosoon":0,"cond_shown":"equaldotanddens","ratio_trial":250,"smaller_num":"3","larger_num":"12","correct_side":1,"subjID":"GabrielaGonzalezChaparro25","gender":"1","age":"9","school":"4"},{"start_time":1552070115223,"click_time":1552070116944,"finger_time":1552070116443,"fix_duration":1338.6555089927865,"trial":27,"RT":1220,"MT":501,"sideResp":2,"stimulus":"img/900/equaldotsize/R/13_Ratio_900_L_18_R_20.png","xmouse":[800,800,800,800,800,800,799,799,799,799,799,799,799,799,799,799,799,799,799,798,798,798,798,798,798,798,798,798,798,798,798,798,798,798,798,798,798,797,796,796,796,796,796,796,796,796,796,796,796,796,796,796,796,796,796,796,800,806,814,826,856,876,895,925,942,967,981,995,1004,1011,1017,1017,1017,1008,1004,1004,1004,1004,1007,1020,1059,1077,1091,1111,1118,1145],"ymouse":[618,618,618,618,618,618,619,620,620,620,620,620,620,620,620,620,620,620,620,621,621,621,621,621,621,621,621,621,621,621,621,621,621,621,621,621,621,622,623,623,623,623,623,623,623,623,623,623,623,623,623,623,623,623,623,623,619,615,610,603,582,567,552,524,506,474,453,429,406,383,327,286,236,149,106,44,13,0,0,0,0,0,0,0,0,31],"timestamp_mouse":[6,39,60,80,100,119,139,160,180,200,220,239,260,280,301,320,340,361,380,400,420,441,460,481,501,519,541,560,580,601,619,641,660,681,701,720,739,760,780,801,821,841,860,881,901,920,941,960,981,999,1019,1040,1061,1081,1101,1119,1139,1160,1181,1200,1220,1240,1260,1280,1300,1321,1341,1360,1380,1400,1420,1440,1460,1480,1501,1520,1540,1562,1581,1600,1620,1640,1661,1680,1701,1720],"xSR":741.5,"ySR":573.95,"xT1":424.9,"yT1":0,"xT2":1058.1,"yT2":0,"toosoon":0,"cond_shown":"equaldotsize","ratio_trial":900,"smaller_num":"18","larger_num":"20","correct_side":2,"subjID":"GabrielaGonzalezChaparro25","gender":"1","age":"9","school":"4"},{"start_time":1552070121307,"click_time":1552070122445,"finger_time":1552070122123,"fix_duration":561.0496976339193,"trial":28,"RT":816,"MT":322,"sideResp":1,"stimulus":"img/500/randomdotsizeEA/R/1_Ratio_500_L_9_R_18.png","xmouse":[770,770,772,772,773,773,773,773,773,773,773,773,773,773,773,773,773,773,773,773,773,773,773,773,773,773,773,773,773,773,773,773,773,773,773,773,773,773,768,753,728,683,606,588,582,577,571,542,532,515,502,484,474,466,456,451,448],"ymouse":[645,647,651,652,653,653,653,653,653,653,653,653,653,653,653,653,653,653,653,653,653,653,653,653,653,653,653,653,653,653,653,653,653,653,653,653,653,654,661,670,680,695,714,715,715,713,700,621,585,535,481,364,301,238,175,117,31],"timestamp_mouse":[18,36,56,77,95,116,136,157,177,195,216,237,255,277,296,316,335,357,376,396,417,436,456,476,497,516,537,557,576,595,617,636,655,677,697,716,736,756,776,795,816,835,856,876,896,916,936,956,976,995,1017,1037,1055,1076,1096,1116,1138],"xSR":741.5,"ySR":573.95,"xT1":424.9,"yT1":0,"xT2":1058.1,"yT2":0,"toosoon":0,"cond_shown":"randomdotsizeEA","ratio_trial":500,"smaller_num":"9","larger_num":"18","correct_side":2,"subjID":"GabrielaGonzalezChaparro25","gender":"1","age":"9","school":"4"},{"start_time":1552070123414,"click_time":1552070125083,"finger_time":1552070124563,"fix_duration":250,"trial":29,"RT":1149,"MT":520,"sideResp":2,"stimulus":"img/500/randomdotsizeEA/R/9_Ratio_500_L_2_R_4.png","xmouse":[814,814,814,814,814,814,814,814,814,814,814,814,814,814,814,814,814,814,814,814,814,814,814,814,814,814,814,814,814,814,814,814,814,814,814,814,814,814,814,814,814,814,814,814,813,811,810,809,809,809,809,809,809,809,813,823,838,880,906,934,987,1033,1141,1188,1223,1251,1266,1278,1276,1259,1254,1237,1225,1222,1218,1213,1207,1196,1191,1186,1183,1178,1160,1141],"ymouse":[644,644,644,644,644,644,644,644,644,644,644,644,644,644,644,644,644,644,643,643,643,643,643,643,642,642,642,642,642,642,642,642,642,642,642,642,642,642,642,642,642,642,642,642,642,644,644,645,645,645,645,645,645,643,633,616,594,537,501,457,383,325,198,135,71,4,0,0,0,0,0,0,0,0,2,8,20,43,50,59,63,68,74,77],"timestamp_mouse":[9,29,50,68,88,110,130,149,168,190,210,230,249,269,289,309,329,350,370,390,409,429,450,468,489,509,530,551,569,589,609,629,648,668,689,710,729,749,769,789,810,830,850,870,889,909,928,950,970,989,1009,1030,1050,1069,1089,1109,1129,1149,1169,1190,1210,1230,1250,1269,1289,1309,1329,1350,1370,1389,1408,1429,1450,1469,1489,1509,1530,1551,1569,1589,1609,1629,1649,1669],"xSR":741.5,"ySR":573.95,"xT1":424.9,"yT1":0,"xT2":1058.1,"yT2":0,"toosoon":0,"cond_shown":"randomdotsizeEA","ratio_trial":500,"smaller_num":"2","larger_num":"4","correct_side":2,"subjID":"GabrielaGonzalezChaparro25","gender":"1","age":"9","school":"4"},{"start_time":1552070126830,"click_time":1552070128024,"finger_time":1552070127503,"fix_duration":844.09042615441,"trial":30,"RT":673,"MT":521,"sideResp":1,"stimulus":"img/500/equaldotanddens/L/4_Ratio_500_L_18_R_9.png","xmouse":[759,759,759,759,759,759,759,759,759,759,759,759,759,759,759,759,759,759,759,759,759,759,759,759,759,759,759,759,759,759,759,758,746,730,701,654,516,451,392,375,365,350,343,335,328,322,315,314,318,327,332,337,339,342,345,351,376,400,414,425],"ymouse":[630,630,630,630,630,630,630,630,630,630,630,630,630,630,630,630,630,630,630,630,630,630,630,630,630,630,630,630,630,630,630,630,631,633,637,640,634,615,587,572,554,511,488,459,433,407,359,336,303,283,269,245,232,218,203,185,138,91,55,16],"timestamp_mouse":[13,33,53,72,92,113,134,153,173,193,213,232,254,274,294,313,333,353,374,393,414,434,454,474,493,513,534,554,573,594,614,633,653,673,693,714,735,752,773,793,813,834,854,874,894,913,934,953,974,993,1013,1034,1052,1073,1093,1113,1133,1153,1173,1193],"xSR":741.5,"ySR":573.95,"xT1":424.9,"yT1":0,"xT2":1058.1,"yT2":0,"toosoon":0,"cond_shown":"equaldotanddens","ratio_trial":500,"smaller_num":"9","larger_num":"18","correct_side":1,"subjID":"GabrielaGonzalezChaparro25","gender":"1","age":"9","school":"4"},{"start_time":1552070129562,"click_time":1552070131444,"finger_time":1552070130283,"fix_duration":576.2520324454767,"trial":31,"RT":721,"MT":1161,"sideResp":2,"stimulus":"img/900/equaldotanddens/L/10_Ratio_900_L_20_R_18.png","xmouse":[785,785,785,785,785,785,785,785,785,785,785,785,785,785,785,785,785,785,785,785,785,785,785,785,785,785,785,785,785,785,785,785,785,782,774,746,734,726,723,723,723,723,723,723,723,723,723,723,723,723,723,723,723,723,723,723,723,723,723,727,732,738,740,744,747,751,758,762,763,764,765,768,769,770,772,779,783,793,805,819,852,865,878,890,890,928,960,989,1019,1049,1092,1119,1137,1148,1156],"ymouse":[611,611,611,611,611,611,611,611,611,611,611,611,611,611,611,611,611,611,611,611,611,611,611,611,611,611,611,611,611,611,611,611,611,613,615,620,620,620,620,620,620,620,620,620,620,620,620,620,620,620,620,620,620,620,620,620,620,620,621,621,622,624,624,624,624,623,620,619,618,618,618,617,617,616,616,613,609,602,592,581,546,531,517,502,502,463,429,394,357,320,257,211,163,125,91],"timestamp_mouse":[18,39,41,61,81,101,121,142,162,181,202,221,242,261,281,301,321,341,360,382,402,422,442,461,482,501,520,542,562,582,601,620,642,661,681,701,721,740,761,781,802,821,841,861,881,901,922,941,961,981,1001,1021,1042,1061,1081,1101,1121,1141,1161,1181,1201,1221,1241,1261,1280,1301,1320,1341,1362,1381,1400,1422,1440,1461,1482,1502,1522,1541,1560,1581,1602,1621,1642,1661,1680,1702,1721,1741,1762,1781,1802,1821,1840,1861,1882],"xSR":741.5,"ySR":573.95,"xT1":424.9,"yT1":0,"xT2":1058.1,"yT2":0,"toosoon":0,"cond_shown":"equaldotanddens","ratio_trial":900,"smaller_num":"18","larger_num":"20","correct_side":1,"subjID":"GabrielaGonzalezChaparro25","gender":"1","age":"9","school":"4"},{"start_time":1552070132826,"click_time":1552070135144,"finger_time":1552070133752,"fix_duration":520.9961534042417,"trial":32,"RT":926,"MT":1392,"sideResp":1,"stimulus":"img/900/equaldotanddens/L/10_Ratio_900_L_20_R_18.png","xmouse":[793,793,793,793,793,793,793,793,793,793,793,792,792,792,792,792,792,792,792,792,792,792,792,792,792,792,792,792,792,792,792,792,792,792,792,792,792,792,792,792,792,791,785,774,755,722,700,662,654,647,641,636,626,621,614,611,609,609,609,609,609,609,609,611,612,613,616,621,627,637,653,675,714,849,909,970,998,1017,1018,1018,1018,1018,1018,1015,1010,1006,1003,996,993,989,983,979,975,973,969,950,928,873,848,819,800,782,754,738,724,712,703,676,650,617,583,549,498,475,455,440],"ymouse":[628,628,628,628,628,628,628,628,628,628,628,628,628,628,628,628,628,628,628,628,628,628,628,628,628,628,628,628,628,628,628,628,628,628,628,628,628,628,628,628,628,628,628,629,630,630,630,626,622,618,612,601,566,545,522,502,476,458,454,453,451,451,450,449,449,449,449,455,462,471,481,495,516,554,563,564,564,561,560,558,557,554,545,539,529,519,509,476,459,445,433,426,423,423,426,451,475,539,573,608,630,650,679,691,697,700,700,666,621,553,479,401,248,174,101,4],"timestamp_mouse":[17,37,58,76,97,117,137,157,178,198,217,238,258,277,297,318,337,357,377,397,417,438,457,477,497,517,538,556,577,598,617,637,657,677,698,718,738,757,778,798,818,838,857,878,898,926,937,957,978,997,1017,1038,1056,1078,1097,1117,1138,1157,1178,1197,1217,1236,1258,1277,1297,1317,1338,1357,1377,1397,1417,1436,1457,1477,1497,1517,1536,1557,1578,1597,1617,1637,1658,1677,1697,1717,1737,1757,1778,1797,1818,1837,1857,1877,1897,1918,1938,1957,1978,1998,2017,2036,2058,2078,2098,2118,2137,2157,2177,2197,2217,2238,2257,2278,2297,2318],"xSR":741.5,"ySR":573.95,"xT1":424.9,"yT1":0,"xT2":1058.1,"yT2":0,"toosoon":0,"cond_shown":"equaldotanddens","ratio_trial":900,"smaller_num":"18","larger_num":"20","correct_side":1,"subjID":"GabrielaGonzalezChaparro25","gender":"1","age":"9","school":"4"},{"start_time":1552070136299,"click_time":1552070137123,"finger_time":1552070137023,"fix_duration":294.42340733093073,"trial":33,"RT":724,"MT":100,"sideResp":2,"stimulus":"img/250/equaldotanddens/R/4_Ratio_250_L_3_R_12.png","xmouse":[794,794,794,794,794,794,794,794,794,794,794,794,794,794,794,794,794,794,794,794,794,794,794,794,794,794,794,794,794,794,794,794,794,794,803,823,861,904,945,1024,1048,1062],"ymouse":[666,666,666,666,666,666,666,666,666,666,666,666,666,666,666,666,666,666,666,666,666,666,666,666,666,666,666,666,666,666,668,668,669,669,657,618,552,472,388,212,146,77],"timestamp_mouse":[11,31,44,63,83,104,125,143,163,185,203,224,244,264,284,303,325,344,364,384,404,424,444,464,483,505,525,544,565,585,604,624,645,664,684,704,724,744,764,784,805,824],"xSR":741.5,"ySR":573.95,"xT1":424.9,"yT1":0,"xT2":1058.1,"yT2":0,"toosoon":0,"cond_shown":"equaldotanddens","ratio_trial":250,"smaller_num":"3","larger_num":"12","correct_side":2,"subjID":"GabrielaGonzalezChaparro25","gender":"1","age":"9","school":"4"},{"start_time":1552070139596,"click_time":1552070141604,"finger_time":1552070141123,"fix_duration":250,"trial":34,"RT":1527,"MT":481,"sideResp":1,"stimulus":"img/900/equaldotsize/R/9_Ratio_900_L_18_R_20.png","xmouse":[816,816,816,816,816,816,816,816,816,816,816,816,816,816,816,816,816,816,816,816,816,816,816,816,816,816,816,816,816,816,816,816,816,816,816,816,816,816,816,816,816,816,816,816,816,816,816,816,816,816,816,816,816,815,815,815,815,815,815,815,815,815,815,815,814,809,805,800,792,784,770,766,765,763,762,746,733,717,697,678,636,614,594,565,558,530,528,525,525,525,534,542,549,554,561,566,564,558,545,527,488],"ymouse":[624,624,624,624,624,624,624,624,624,624,624,624,624,624,624,624,624,624,624,624,624,624,624,624,624,624,624,624,624,624,624,624,624,624,624,624,624,624,624,624,624,624,624,624,624,624,624,624,624,624,624,624,624,624,624,624,624,624,624,624,624,624,624,624,625,628,631,635,640,645,650,651,651,651,651,651,651,651,649,644,618,600,582,548,537,479,462,440,418,394,344,317,293,274,247,213,196,174,151,121,70],"timestamp_mouse":[10,36,48,68,87,106,127,148,167,187,207,228,248,266,287,307,327,347,368,388,407,428,448,468,488,507,527,547,568,588,608,628,647,666,688,708,728,747,768,787,808,826,847,867,888,908,928,946,966,987,1007,1027,1046,1068,1087,1108,1128,1147,1167,1188,1208,1227,1246,1268,1287,1307,1327,1347,1367,1386,1406,1426,1447,1467,1487,1508,1527,1547,1567,1588,1607,1626,1647,1667,1688,1708,1728,1748,1767,1787,1807,1827,1847,1868,1887,1908,1928,1948,1968,1987,2008],"xSR":741.5,"ySR":573.95,"xT1":424.9,"yT1":0,"xT2":1058.1,"yT2":0,"toosoon":0,"cond_shown":"equaldotsize","ratio_trial":900,"smaller_num":"18","larger_num":"20","correct_side":2,"subjID":"GabrielaGonzalezChaparro25","gender":"1","age":"9","school":"4"},{"start_time":1552070143819,"click_time":1552070145164,"finger_time":1552070144543,"fix_duration":1254.1161703876178,"trial":35,"RT":724,"MT":621,"sideResp":2,"stimulus":"img/250/randomdotsizeEA/R/4_Ratio_250_L_3_R_12.png","xmouse":[782,782,782,782,782,782,782,782,782,782,782,782,782,782,782,782,782,782,782,782,782,782,782,782,782,782,782,783,783,783,783,784,785,788,799,816,873,951,1041,1129,1132,1128,1112,1098,1073,1064,1057,1052,1046,1042,1042,1042,1042,1044,1049,1050,1052,1053,1053,1054,1054,1054,1054,1054,1054,1054,1056,1061],"ymouse":[640,640,640,640,640,640,640,640,640,640,640,640,640,640,640,640,640,640,640,640,640,640,640,640,640,640,640,640,640,640,640,640,640,638,629,619,594,561,509,405,354,294,242,196,135,115,101,91,83,77,77,77,76,77,79,80,81,82,82,83,83,84,84,84,84,84,84,73],"timestamp_mouse":[11,29,44,64,84,105,125,144,165,184,205,225,244,263,285,304,324,344,364,384,404,424,444,465,483,504,525,545,564,585,605,624,645,664,683,704,724,744,764,785,805,824,845,865,884,905,924,944,964,984,1004,1024,1044,1064,1086,1105,1124,1145,1164,1184,1204,1224,1244,1265,1284,1304,1325,1345],"xSR":741.5,"ySR":573.95,"xT1":424.9,"yT1":0,"xT2":1058.1,"yT2":0,"toosoon":0,"cond_shown":"randomdotsizeEA","ratio_trial":250,"smaller_num":"3","larger_num":"12","correct_side":2,"subjID":"GabrielaGonzalezChaparro25","gender":"1","age":"9","school":"4"},{"start_time":1552070147405,"click_time":1552070149023,"finger_time":1552070148684,"fix_duration":1220.8775340756965,"trial":36,"RT":1279,"MT":339,"sideResp":2,"stimulus":"img/500/randomdotsizeEA/R/14_Ratio_500_L_5_R_10.png","xmouse":[809,809,809,809,809,809,809,809,809,809,809,809,809,809,809,809,809,809,809,809,809,809,809,809,809,809,809,809,809,809,809,809,809,809,809,809,809,809,809,809,809,809,809,809,809,809,809,809,809,809,809,809,810,812,813,815,816,816,819,820,828,834,839,849,858,880,891,901,910,922,950,959,964,972,995,1007,1021,1032,1040,1048,1067],"ymouse":[622,622,622,622,622,622,622,622,622,622,622,622,622,622,622,622,622,622,622,622,622,622,622,622,622,622,622,622,622,622,622,622,622,622,622,622,622,622,622,622,622,622,622,622,622,622,622,622,622,622,624,626,629,630,630,630,630,630,629,628,617,610,602,590,575,542,525,507,484,456,383,360,339,313,263,235,209,180,152,121,42],"timestamp_mouse":[29,38,59,79,98,119,139,159,178,199,218,238,259,278,299,318,339,359,379,398,418,439,459,478,499,518,538,559,579,598,619,639,658,678,698,718,739,758,779,798,819,839,857,879,899,919,939,958,978,999,1019,1038,1058,1078,1098,1118,1139,1159,1179,1199,1218,1238,1258,1279,1298,1318,1339,1359,1379,1398,1418,1438,1458,1479,1499,1519,1537,1558,1579,1598,1618],"xSR":741.5,"ySR":573.95,"xT1":424.9,"yT1":0,"xT2":1058.1,"yT2":0,"toosoon":0,"cond_shown":"randomdotsizeEA","ratio_trial":500,"smaller_num":"5","larger_num":"10","correct_side":2,"subjID":"GabrielaGonzalezChaparro25","gender":"1","age":"9","school":"4"},{"start_time":1552070149900,"click_time":1552070151324,"finger_time":1552070150782,"fix_duration":255.47060589210048,"trial":37,"RT":882,"MT":542,"sideResp":1,"stimulus":"img/250/equaldotsize/L/15_Ratio_250_L_12_R_3.png","xmouse":[797,797,797,797,797,797,797,797,797,797,797,797,797,797,797,797,797,797,797,797,797,797,797,797,797,797,797,797,797,797,797,797,797,797,797,797,797,794,793,791,786,775,766,750,718,703,700,699,699,699,699,690,679,663,634,624,584,572,562,553,545,525,517,508,501,499,496,494,492,490,485,472],"ymouse":[625,625,625,625,625,625,625,625,625,625,625,625,625,625,625,625,625,625,625,625,625,625,625,625,625,625,625,625,625,625,625,625,625,625,625,625,628,632,634,637,640,645,646,646,645,643,642,638,629,615,597,546,519,487,441,425,347,320,294,272,252,222,211,200,193,190,184,178,164,149,129,90],"timestamp_mouse":[8,34,43,63,83,103,123,143,162,182,204,224,243,264,284,302,323,344,362,384,403,423,443,463,484,503,523,544,564,584,603,623,643,664,683,704,723,743,763,783,803,823,842,863,882,904,923,943,963,984,1004,1023,1044,1063,1084,1103,1123,1143,1164,1184,1202,1223,1243,1263,1284,1302,1323,1343,1363,1383,1404,1423],"xSR":741.5,"ySR":573.95,"xT1":424.9,"yT1":0,"xT2":1058.1,"yT2":0,"toosoon":0,"cond_shown":"equaldotsize","ratio_trial":250,"smaller_num":"3","larger_num":"12","correct_side":1,"subjID":"GabrielaGonzalezChaparro25","gender":"1","age":"9","school":"4"},{"start_time":1552070152256,"click_time":1552070153324,"finger_time":1552070152983,"fix_duration":250,"trial":38,"RT":727,"MT":341,"sideResp":2,"stimulus":"img/250/equaldotanddens/R/6_Ratio_250_L_6_R_24.png","xmouse":[818,818,817,816,815,814,813,812,812,812,812,812,812,812,812,812,812,812,812,812,812,811,811,811,810,810,810,809,808,808,808,808,808,808,811,828,840,850,874,889,907,926,939,955,960,972,980,991,1012,1025,1037,1046,1054,1066],"ymouse":[597,597,597,597,597,599,599,600,602,602,602,602,602,602,602,602,602,602,602,602,602,603,603,604,605,606,606,606,607,607,608,610,610,611,610,587,563,535,445,401,348,298,264,215,199,178,165,151,125,111,96,84,72,49],"timestamp_mouse":[9,31,47,68,87,109,128,147,167,187,207,228,249,268,287,307,328,348,368,387,409,428,448,467,488,507,527,547,567,587,608,628,648,667,687,708,727,748,767,788,809,828,847,868,887,907,927,948,967,988,1007,1028,1048,1067],"xSR":741.5,"ySR":573.95,"xT1":424.9,"yT1":0,"xT2":1058.1,"yT2":0,"toosoon":0,"cond_shown":"equaldotanddens","ratio_trial":250,"smaller_num":"6","larger_num":"24","correct_side":2,"subjID":"GabrielaGonzalezChaparro25","gender":"1","age":"9","school":"4"},{"start_time":1552070156971,"click_time":1552070158025,"finger_time":1552070157764,"fix_duration":1387.6322162011747,"trial":39,"RT":793,"MT":261,"sideResp":2,"stimulus":"img/250/equaldotsize/R/10_Ratio_250_L_4_R_16.png","xmouse":[779,779,779,779,779,779,779,779,779,779,779,779,779,779,779,779,779,779,779,779,779,779,779,778,778,777,776,776,775,774,774,774,774,774,774,777,781,785,803,820,848,867,887,929,943,951,956,960,966,973,990,1013,1064],"ymouse":[634,634,634,634,634,634,634,634,634,634,634,634,634,634,634,634,634,634,634,634,634,634,634,634,634,634,635,636,637,637,637,637,637,637,637,634,629,622,593,567,524,475,441,380,354,332,312,288,256,224,179,123,4],"timestamp_mouse":[13,33,52,73,93,114,133,152,172,193,212,232,253,274,292,312,332,353,374,393,413,432,452,473,493,513,532,552,572,593,613,632,653,672,692,713,732,753,774,793,812,834,852,872,893,913,932,953,972,993,1013,1033,1053],"xSR":741.5,"ySR":573.95,"xT1":424.9,"yT1":0,"xT2":1058.1,"yT2":0,"toosoon":0,"cond_shown":"equaldotsize","ratio_trial":250,"smaller_num":"4","larger_num":"16","correct_side":2,"subjID":"GabrielaGonzalezChaparro25","gender":"1","age":"9","school":"4"},{"start_time":1552070159981,"click_time":1552070161584,"finger_time":1552070161003,"fix_duration":937.7709722499293,"trial":40,"RT":1022,"MT":581,"sideResp":1,"stimulus":"img/500/randomdotsizeEA/L/5_Ratio_500_L_4_R_2.png","xmouse":[791,791,791,791,791,791,791,791,791,791,791,791,791,791,791,791,791,791,791,791,791,791,791,791,791,791,791,791,791,791,791,791,791,791,791,791,791,791,791,791,791,791,791,791,791,791,791,791,784,775,759,738,715,664,647,637,630,628,620,611,597,576,554,519,502,485,463,452,435,427,421,416,412,403,403,403,406,409,417,422,428],"ymouse":[656,656,656,656,656,656,656,656,656,656,656,656,656,656,656,656,656,656,656,656,656,656,656,656,656,656,656,656,656,656,656,656,656,656,656,656,656,656,656,656,656,656,656,656,656,656,656,657,657,658,658,658,658,658,658,658,658,658,653,638,618,583,544,487,456,422,375,346,299,274,250,223,200,161,147,135,121,112,94,84,76],"timestamp_mouse":[18,25,43,63,82,102,123,143,162,183,203,223,244,263,283,302,322,342,362,383,402,422,443,462,482,503,523,543,563,583,602,624,643,662,683,703,723,743,763,782,803,823,843,863,882,903,922,943,962,982,1002,1022,1043,1062,1082,1102,1123,1142,1162,1183,1203,1223,1243,1264,1282,1303,1322,1343,1363,1383,1403,1422,1442,1462,1482,1502,1522,1543,1563,1583,1602],"xSR":741.5,"ySR":573.95,"xT1":424.9,"yT1":0,"xT2":1058.1,"yT2":0,"toosoon":0,"cond_shown":"randomdotsizeEA","ratio_trial":500,"smaller_num":"2","larger_num":"4","correct_side":1,"subjID":"GabrielaGonzalezChaparro25","gender":"1","age":"9","school":"4"},{"start_time":1552070164217,"click_time":1552070165646,"finger_time":1552070165064,"fix_duration":250,"trial":41,"RT":847,"MT":582,"sideResp":2,"stimulus":"img/750/equaldotanddens/R/5_Ratio_750_L_15_R_20.png","xmouse":[817,817,817,817,817,817,817,817,817,817,817,817,817,817,817,817,817,817,817,817,817,817,817,817,817,817,817,817,817,817,817,817,817,817,817,817,817,817,816,817,818,828,837,843,851,858,864,877,887,900,916,968,997,1007,1013,1021,1026,1033,1036,1036,1036,1036,1030,1027,1027,1028,1033,1035,1041,1047,1053,1061],"ymouse":[611,611,611,611,611,611,611,611,611,611,611,611,611,611,611,611,611,611,611,611,611,611,611,611,611,611,611,611,611,611,611,611,611,611,611,611,611,611,611,606,603,581,561,545,528,513,498,468,453,433,410,347,304,274,248,221,194,140,114,87,59,34,0,0,0,0,0,0,0,0,0,6],"timestamp_mouse":[11,39,47,66,87,106,127,147,167,187,207,226,247,267,288,307,327,347,366,387,407,427,447,467,488,507,527,547,567,587,606,626,647,666,686,706,728,747,766,787,806,827,847,867,887,906,926,947,966,987,1006,1027,1046,1067,1086,1106,1128,1147,1166,1186,1206,1226,1247,1267,1286,1306,1328,1347,1366,1387,1408,1428],"xSR":741.5,"ySR":573.95,"xT1":424.9,"yT1":0,"xT2":1058.1,"yT2":0,"toosoon":0,"cond_shown":"equaldotanddens","ratio_trial":750,"smaller_num":"15","larger_num":"20","correct_side":2,"subjID":"GabrielaGonzalezChaparro25","gender":"1","age":"9","school":"4"},{"start_time":1552070167600,"click_time":1552070168965,"finger_time":1552070168563,"fix_duration":794.8683732289356,"trial":42,"RT":963,"MT":402,"sideResp":2,"stimulus":"img/500/equaldotsize/R/12_Ratio_500_L_1_R_2.png","xmouse":[810,810,810,810,810,810,810,810,810,810,810,810,810,810,810,810,810,810,810,810,810,810,810,810,810,810,810,810,810,810,810,810,810,810,810,810,810,810,810,810,810,808,807,793,783,768,754,744,740,740,745,750,778,844,887,945,986,1017,1058,1070,1078,1086,1092,1103,1105,1106,1106,1106,1092],"ymouse":[633,633,633,633,633,633,633,633,633,633,633,633,633,633,633,633,633,633,633,633,633,633,633,633,633,633,633,633,633,633,633,633,633,633,633,633,633,633,633,633,633,633,633,633,628,621,613,605,598,593,588,585,569,530,506,474,440,408,348,320,297,266,246,204,180,154,128,102,53],"timestamp_mouse":[11,33,44,63,84,104,124,144,163,183,204,224,243,263,284,303,323,344,364,384,404,423,443,463,483,503,524,543,564,585,604,624,643,663,684,703,724,744,764,784,803,824,843,863,884,903,925,943,963,983,1004,1024,1044,1064,1083,1103,1123,1145,1164,1184,1204,1224,1245,1263,1284,1303,1324,1344,1365],"xSR":741.5,"ySR":573.95,"xT1":424.9,"yT1":0,"xT2":1058.1,"yT2":0,"toosoon":0,"cond_shown":"equaldotsize","ratio_trial":500,"smaller_num":"1","larger_num":"2","correct_side":2,"subjID":"GabrielaGonzalezChaparro25","gender":"1","age":"9","school":"4"},{"start_time":1552070170306,"click_time":1552070171723,"finger_time":1552070171204,"fix_duration":721.9631999333398,"trial":43,"RT":898,"MT":519,"sideResp":1,"stimulus":"img/500/randomdotsizeEA/L/13_Ratio_500_L_12_R_6.png","xmouse":[810,810,810,810,810,810,810,810,810,810,810,810,810,810,810,810,810,810,810,810,810,810,810,810,810,810,810,810,810,810,810,810,810,810,810,810,810,810,810,810,810,809,791,767,701,660,613,578,528,513,502,492,480,477,475,475,478,501,515,527,540,553,562,565,560,557,556,550,540,527,512],"ymouse":[616,616,616,616,616,616,616,616,616,616,616,616,616,616,616,616,616,616,616,616,616,616,616,616,616,616,616,616,616,616,616,616,616,616,616,616,616,616,616,616,616,619,626,632,642,642,636,623,595,581,564,542,497,472,446,404,374,293,244,198,145,96,53,0,0,0,0,2,9,16,24],"timestamp_mouse":[17,37,57,78,99,118,138,158,177,198,218,237,258,277,298,317,337,358,378,398,417,437,458,479,498,517,537,557,577,597,618,638,658,677,698,717,737,757,778,798,817,838,857,878,898,918,938,957,977,998,1019,1037,1057,1078,1097,1117,1139,1158,1177,1197,1218,1238,1257,1278,1297,1317,1338,1360,1377,1397,1417],"xSR":741.5,"ySR":573.95,"xT1":424.9,"yT1":0,"xT2":1058.1,"yT2":0,"toosoon":0,"cond_shown":"randomdotsizeEA","ratio_trial":500,"smaller_num":"6","larger_num":"12","correct_side":1,"subjID":"GabrielaGonzalezChaparro25","gender":"1","age":"9","school":"4"},{"start_time":1552070174124,"click_time":1552070176424,"finger_time":1552070175124,"fix_duration":1459.8932902242332,"trial":44,"RT":1000,"MT":1300,"sideResp":1,"stimulus":"img/750/equaldotanddens/R/7_Ratio_750_L_3_R_4.png","xmouse":[804,804,804,804,804,804,804,804,804,804,804,804,804,804,804,804,804,804,804,804,804,804,804,804,804,804,804,804,804,804,804,804,804,804,804,804,804,804,804,804,804,807,809,810,810,810,803,798,769,754,734,717,698,658,645,632,623,611,608,608,608,610,616,630,636,638,640,640,641,641,641,641,641,641,641,641,641,641,641,641,641,641,641,644,648,654,660,668,690,699,705,707,708,708,708,708,708,706,696,693,690,690,690,690,690,690,689,687,670,655,632,589,569,495,476,459],"ymouse":[633,633,633,633,633,633,633,633,633,633,633,633,633,633,633,633,633,633,633,633,633,633,633,633,633,633,633,633,633,633,633,633,633,633,633,633,633,633,633,633,633,630,628,627,627,627,628,629,631,628,618,607,592,537,510,481,459,422,409,398,388,379,369,344,336,330,327,325,325,325,325,325,325,325,325,325,325,325,325,326,326,328,331,337,339,341,343,344,345,344,342,341,341,341,341,341,342,344,349,351,351,351,351,351,351,351,351,351,347,338,322,287,270,171,131,90],"timestamp_mouse":[1,19,39,59,80,99,119,139,160,179,199,219,239,259,279,300,319,340,359,379,400,420,439,460,479,501,520,540,559,579,600,621,640,659,680,700,720,740,761,780,800,819,840,859,880,900,919,939,960,980,1000,1019,1040,1060,1079,1100,1120,1140,1160,1181,1199,1219,1239,1260,1279,1300,1319,1341,1360,1380,1400,1419,1440,1459,1479,1499,1519,1540,1559,1579,1600,1619,1640,1659,1679,1700,1719,1739,1761,1780,1799,1820,1840,1861,1879,1899,1919,1939,1959,1979,2000,2019,2039,2060,2079,2100,2120,2139,2161,2180,2200,2219,2239,2259,2279,2299],"xSR":741.5,"ySR":573.95,"xT1":424.9,"yT1":0,"xT2":1058.1,"yT2":0,"toosoon":0,"cond_shown":"equaldotanddens","ratio_trial":750,"smaller_num":"3","larger_num":"4","correct_side":2,"subjID":"GabrielaGonzalezChaparro25","gender":"1","age":"9","school":"4"},{"start_time":1552070179820,"click_time":1552070181463,"finger_time":1552070181123,"fix_duration":1116.3146021957384,"trial":45,"RT":1303,"MT":340,"sideResp":2,"stimulus":"img/750/equaldotsize/R/12_Ratio_750_L_3_R_4.png","xmouse":[785,785,785,785,785,785,785,785,785,785,785,785,785,785,785,785,785,785,785,785,785,785,785,785,785,785,785,785,785,785,785,785,785,785,785,785,785,785,785,785,785,785,785,785,785,785,785,785,785,785,785,785,785,785,785,785,785,785,785,785,785,785,785,789,812,837,860,893,959,989,1012,1024,1033,1046,1053,1068,1082,1091,1099,1101,1101,1101,1101],"ymouse":[623,623,623,623,623,623,623,623,623,623,623,623,623,623,623,623,623,623,623,623,623,623,623,623,623,623,623,623,623,623,623,623,623,623,623,623,623,623,623,623,623,623,623,623,623,623,623,623,623,623,623,623,623,622,622,622,622,622,622,622,622,620,618,612,587,558,531,489,380,322,268,207,147,41,0,0,0,0,0,0,0,0,6],"timestamp_mouse":[18,25,43,63,83,103,123,143,165,183,203,224,244,264,283,303,324,343,363,383,404,425,444,463,483,504,524,544,564,584,604,624,643,663,684,704,724,744,763,784,803,824,843,863,884,904,923,943,963,984,1004,1023,1044,1064,1084,1103,1124,1144,1164,1184,1203,1223,1243,1264,1284,1303,1323,1343,1364,1384,1403,1424,1444,1466,1485,1503,1523,1544,1565,1583,1604,1623,1643],"xSR":741.5,"ySR":573.95,"xT1":424.9,"yT1":0,"xT2":1058.1,"yT2":0,"toosoon":0,"cond_shown":"equaldotsize","ratio_trial":750,"smaller_num":"3","larger_num":"4","correct_side":2,"subjID":"GabrielaGonzalezChaparro25","gender":"1","age":"9","school":"4"},{"start_time":1552070182803,"click_time":1552070184844,"finger_time":1552070184384,"fix_duration":778.605894603714,"trial":46,"RT":1581,"MT":460,"sideResp":1,"stimulus":"img/250/equaldotsize/L/7_Ratio_250_L_8_R_2.png","xmouse":[800,800,800,800,800,800,800,800,800,800,800,800,800,800,800,800,800,800,800,800,800,800,800,800,800,800,800,800,800,800,800,800,800,800,800,800,800,800,800,800,800,800,800,800,800,800,800,800,800,800,800,800,800,800,800,800,800,800,800,800,800,800,800,800,800,800,800,800,800,800,799,796,795,790,789,779,773,768,757,730,717,698,679,649,634,605,597,590,583,575,567,565,565,565,565,565,562,557,549,538,511,503,497],"ymouse":[629,629,629,629,629,629,629,629,629,629,629,629,629,629,629,629,629,629,629,629,629,629,629,629,629,629,629,629,629,629,629,629,629,629,629,629,629,629,629,629,629,629,629,629,629,629,629,629,629,629,629,629,629,629,629,629,629,629,629,629,629,629,629,629,629,629,629,629,629,629,630,630,630,630,630,627,623,620,615,604,598,588,577,558,547,519,507,493,477,457,414,395,371,345,309,264,240,219,196,173,124,107,91],"timestamp_mouse":[8,31,40,61,81,100,121,140,162,180,200,220,241,260,280,300,320,340,362,381,401,420,440,461,481,500,520,541,561,581,600,621,641,661,681,700,721,741,760,781,801,820,840,861,880,900,922,941,961,981,1002,1021,1041,1061,1081,1100,1121,1140,1160,1180,1201,1220,1241,1260,1280,1301,1321,1341,1361,1381,1400,1420,1441,1461,1481,1501,1521,1540,1561,1581,1600,1620,1640,1660,1680,1700,1721,1740,1760,1780,1801,1820,1840,1861,1881,1901,1920,1940,1960,1980,2000,2021,2041],"xSR":741.5,"ySR":573.95,"xT1":424.9,"yT1":0,"xT2":1058.1,"yT2":0,"toosoon":0,"cond_shown":"equaldotsize","ratio_trial":250,"smaller_num":"2","larger_num":"8","correct_side":1,"subjID":"GabrielaGonzalezChaparro25","gender":"1","age":"9","school":"4"},{"start_time":1552070185935,"click_time":1552070188005,"finger_time":1552070187523,"fix_duration":250,"trial":47,"RT":1588,"MT":482,"sideResp":2,"stimulus":"img/750/equaldotsize/R/2_Ratio_750_L_6_R_8.png","xmouse":[804,804,804,804,804,804,804,804,804,804,804,804,804,804,804,804,804,804,804,804,804,804,804,804,804,804,804,804,804,804,804,804,804,804,804,804,804,804,804,804,804,804,804,804,804,804,804,804,804,806,807,809,810,811,811,811,811,812,813,814,817,818,822,829,832,836,839,840,840,840,840,840,840,840,840,840,840,840,840,842,843,844,846,855,863,876,894,905,932,945,953,961,971,995,1005,1016,1029,1037,1047,1049,1050,1052,1055,1077],"ymouse":[638,638,638,638,638,638,638,638,638,638,638,638,638,638,638,638,638,638,638,638,638,638,638,638,638,638,638,638,638,638,638,638,638,638,638,638,638,638,638,638,638,638,638,638,638,638,638,638,638,638,639,641,642,643,643,643,643,643,643,643,643,642,640,635,633,630,628,627,627,627,627,627,627,627,627,627,627,627,627,625,623,620,617,602,589,572,546,529,481,441,396,339,274,111,35,0,0,0,0,0,0,0,2,32],"timestamp_mouse":[18,31,49,70,88,109,130,149,168,189,209,228,248,268,288,309,328,348,368,389,409,429,448,468,488,509,529,548,568,588,609,629,649,669,689,709,729,750,768,789,809,829,849,869,888,908,929,948,968,988,1009,1029,1049,1068,1089,1109,1130,1149,1168,1188,1209,1228,1249,1268,1289,1308,1329,1348,1368,1388,1409,1428,1448,1469,1488,1508,1529,1549,1568,1588,1608,1629,1649,1668,1689,1708,1728,1748,1769,1788,1808,1828,1848,1868,1888,1910,1928,1948,1969,1988,2008,2028,2049,2070],"xSR":741.5,"ySR":573.95,"xT1":424.9,"yT1":0,"xT2":1058.1,"yT2":0,"toosoon":0,"cond_shown":"equaldotsize","ratio_trial":750,"smaller_num":"6","larger_num":"8","correct_side":2,"subjID":"GabrielaGonzalezChaparro25","gender":"1","age":"9","school":"4"},{"start_time":1552070189478,"click_time":1552070190983,"finger_time":1552070190624,"fix_duration":472.57943862935616,"trial":48,"RT":1146,"MT":359,"sideResp":2,"stimulus":"img/750/equaldotsize/L/14_Ratio_750_L_8_R_6.png","xmouse":[765,765,765,765,765,765,765,765,765,765,765,765,765,765,765,765,765,765,765,765,765,765,765,765,765,765,765,765,765,765,765,765,765,765,765,765,765,765,765,765,765,766,767,767,767,768,768,768,768,768,769,769,770,774,778,787,836,893,927,950,958,979,989,1001,1012,1020,1031,1033,1032,1028,1027,1030,1035,1041,1052,1065],"ymouse":[600,600,600,600,600,600,600,600,600,600,600,600,601,601,602,602,602,602,602,602,602,602,602,602,602,602,602,602,602,602,602,602,602,602,604,604,604,604,604,604,604,605,606,606,606,606,606,606,606,606,606,606,606,608,608,608,582,535,486,422,360,218,145,73,0,0,0,0,0,0,0,1,16,36,55,72],"timestamp_mouse":[10,39,45,65,86,105,126,146,165,186,206,225,245,265,285,305,326,345,366,387,406,426,446,466,485,505,526,545,565,586,606,626,646,665,686,705,726,745,766,787,805,826,846,865,885,905,926,946,965,986,