[{"start_time":1552068973366,"click_time":1552069052093,"finger_time":1552068973375,"fix_duration":250,"trial":0,"RT":9,"MT":78718,"sideResp":2,"stimulus":[],"xmouse":[796,802,806,809,809,809,810,810,818,826,833,838,843,849,856,870,896,950,1008,1025,1038,1045,1047,1043,1036,1024,1013,994,962,949,939,933,932,931,931,930,930,928,926,926,926,926,926,926,926,926,926,926,925,925,927,927,930,935,938,941,942,943,943,943,943,943,943,943,943,943,943,943,941,939,939,939,939,939,939,939,939,939,939,939,939,939,939,939,939,939,939,939,939,939,939,939,939,939,939,939,939,939,939,939,939,939,939,938,938,937,937,937,937,937,937,937,937,937,937,937,937,937,937,937,937,937,937,937,937,937,937,937,937,937,937,936,935,934,931,931,928,927,925,922,920,919,919,919,919,919,919,919,919,919,919,919,919,919,919,919,919,919,919,919,919,919,919,919,919,919,919,919,919,916,915,915,915,915,914,914,914,914,914,914,914,914,914,914,914,914,914,914,915,915,915,915,915,916,916,916,916,916,916,916,916,916,916,916,916,916,916,916,916,916,916,916,916,916,916,916,915,915,915,915,915,915,915,915,915,915,915,915,915,915,915,914,911,906,898,896,896,896,896,896,896,896,896,896,896,890,881,869,857,851,851,851,851,851,851,851,851,851,851,851,852,858,864,868,870,870,870,871,871,872,872,872,872,872,865,857,849,842,839,837,837,836,833,831,821,817,809,803,798,794,794,794,794,794,794,796,798,798,799,802,804,810,829,857,1046,1128,1206,1266,1300,1332,1334,1334,1334,1334,1334,1330,1327,1322,1320,1313,1308,1302,1292,1270,1222,1193,1164,1138,1117,1095,1093,1093,1093,1095,1100,1100,1100,1100,1100,1099,1098,1097,1097,1096,1096,1093,1091,1087,1084,1079,1079,1079,1078,1078,1075,1072,1068,1063,1061,1055,1051,1049,1047,1047,1051,1056,1061,1066,1069,1071,1073,1074,1074,1074,1074,1063,1056,1049,1044,1036,1031,1024,1009,985,883,842,816,802,800,800,800,800,800,800,816,828,841,854,860,863,863,863,863,854,822,807,797,792,790,788,784,782,782,782,793,827,838,842,844,844,843,829,748,517,360,205,209,273,390,707,839,932,974,982,976,932,898,862,821,764,752,743,742,740,740,740,741,741,742,743,747,751,758,770,789,797,799,800,800,800,800,800,800,800,803,804,804,804,804,807,814,819,826,838,853,857,858,858,858,843,839,834,831,828,826,824,812,809,793,772,734,728,720,720,719,718,718,718,718,718,717,717,716,715,714,714,714,714,714,714,719,727,734,740,742,742,746,754,763,784,791,797,803,803,803,803,803,803,803,803,803,803,803,803,805,806,812,815,818,819,806,799,780,764,746,704,680,660,644,637,637,643,651,654,654,654,654,654,654,654,654,654,654,654,654,654,654,654,654,645,626,611,609,609,609,609,609,609,609,609,609,609,609,609,609,609,609,609,609,609,609,609,609,609,609,609,609,609,609,609,609,609,609,609,606,590,584,583,583,583,583,583,583,583,583,583,583,583,583,583,583,583,583,583,583,583,583,583,583,583,583,583,583,583,583,583,583,583,583,583,583,583,583,583,583,583,583,583,583,583,583,583,583,583,583,583,583,583,583,583,583,583,583,583,583,583,583,583,583,583,583,583,583,583,583,583,583,583,583,583,583,583,583,583,583,583,583,583,583,583,583,583,583,583,583,583,583,583,583,583,583,583,583,583,583,583,583,583,583,583,583,583,583,583,583,583,583,583,583,583,583,583,583,583,583,583,583,583,583,583,583,583,583,583,583,583,583,583,583,583,583,583,583,583,583,583,583,583,583,583,583,583,583,583,583,583,583,583,583,583,583,583,583,583,583,583,583,583,583,583,583,583,583,583,583,583,583,583,583,583,583,583,583,583,583,583,583,583,583,583,583,583,583,583,583,583,583,583,583,583,583,583,583,583,583,583,583,583,583,583,583,583,583,583,583,583,583,583,583,583,583,583,583,583,583,583,583,583,583,583,583,583,583,583,583,583,583,583,583,583,583,583,583,583,583,583,583,583,583,583,583,583,583,583,583,583,583,583,583,583,583,583,583,583,583,583,583,583,583,583,583,583,583,583,583,583,583,583,583,583,583,583,583,583,583,583,583,583,583,583,583,583,583,583,583,583,583,583,583,583,583,583,583,583,583,583,583,583,583,583,583,583,583,583,583,583,583,583,583,583,583,583,583,583,583,583,583,583,583,583,583,583,583,583,583,583,583,583,583,583,583,583,583,583,583,583,583,583,583,583,583,583,583,583,583,583,583,583,583,583,583,583,583,583,583,583,583,583,583,583,583,583,583,583,583,583,583,583,583,583,583,583,583,583,583,583,583,583,583,583,583,583,583,583,583,583,583,583,583,583,583,583,583,583,583,583,583,583,583,583,583,583,583,583,583,583,583,583,583,583,583,583,583,583,583,583,583,583,583,583,583,583,583,583,583,583,583,583,583,583,583,583,583,583,583,583,583,583,583,583,583,583,583,583,583,583,583,583,583,583,583,583,583,583,583,583,583,583,583,583,583,583,583,583,583,583,583,583,583,583,583,583,583,583,583,583,583,583,583,583,583,583,583,583,583,583,583,583,583,583,583,583,583,583,583,583,583,583,583,583,583,583,583,583,583,583,583,583,583,583,583,583,583,583,583,583,583,583,583,583,583,583,583,583,583,583,583,583,583,583,583,583,583,583,583,583,583,583,583,583,583,583,583,583,583,583,583,583,583,583,583,583,583,583,583,583,583,583,583,583,583,583,583,583,583,583,583,583,583,583,583,583,583,583,583,583,583,583,583,583,583,583,583,583,583,583,583,583,583,583,583,583,583,583,583,583,583,583,583,583,583,583,583,583,583,583,583,583,583,583,583,583,583,583,583,583,583,583,583,583,583,583,583,583,583,583,583,583,583,583,583,583,583,583,583,583,583,583,583,583,583,583,583,583,583,583,583,583,583,583,583,583,583,583,583,583,583,583,583,583,583,583,583,583,583,583,583,583,583,583,583,583,583,583,583,583,583,583,583,583,583,583,583,583,583,583,583,583,583,583,583,583,583,583,583,583,583,583,583,583,583,583,583,583,583,583,583,583,583,583,583,583,583,583,583,583,583,583,583,583,583,583,583,583,583,583,583,583,583,583,583,583,583,583,583,583,583,583,583,583,583,583,583,583,583,583,583,583,583,583,583,583,583,583,583,583,583,583,583,583,583,583,583,583,583,583,583,583,583,583,583,583,583,583,583,583,583,583,583,583,583,583,583,583,583,583,583,583,583,583,583,583,583,583,583,583,583,583,583,583,583,583,583,583,583,583,583,583,583,583,583,583,583,583,583,583,583,583,583,583,583,583,583,583,583,583,583,583,583,583,583,583,583,583,583,583,583,583,583,583,583,583,583,583,583,583,583,583,583,583,583,583,583,583,583,583,583,583,583,583,583,583,583,583,583,583,583,583,583,583,583,583,583,583,583,583,583,583,583,583,583,583,583,583,583,583,583,583,583,583,583,583,583,583,583,583,583,583,583,583,583,583,583,583,583,583,583,583,583,583,583,583,583,583,583,583,583,583,583,583,583,583,583,583,583,583,583,583,583,583,583,583,583,583,583,583,583,583,583,583,583,583,583,583,583,583,583,583,583,583,583,583,583,583,583,583,583,583,583,583,583,583,583,583,583,583,583,583,583,583,583,583,583,583,583,583,583,583,583,583,583,583,583,583,583,583,583,583,583,583,583,583,583,583,583,583,583,583,583,583,583,583,583,583,583,583,583,583,583,583,583,583,583,583,583,583,583,583,583,583,583,583,583,583,583,583,583,583,583,583,583,583,583,583,583,583,583,583,583,583,583,583,583,583,583,583,583,583,583,583,583,583,583,583,583,583,583,583,583,599,644,774,909,950,985,1007,1020,1023,1025,1026,1026,1028,1026,1019,1010,1000,987,956,943,931,923,918,910,899,892,884,869,813,764,712,655,643,626,624,624,624,624,632,641,652,665,675,689,705,708,714,717,721,723,727,730,738,757,764,768,769,769,769,771,772,772,773,773,773,773,773,773,775,787,834,856,948,1013,1145,1203,1264,1334,1529,1529,1529,1529,1529,1529,1529,1529,1529,1529,1529,1529,1529,1529,1529,1529,1529,1529,1529,1529,1529,1529,1529,1529,1529,1529,1529,1529,1529,1529,1529,1529,1529,1529,1529,1529,1529,1529,1529,1395,1348,1203,1129,1022,947,853,832,821,818,817,817,817,817,817,817,817,823,834,847,861,876,897,901,901,901,902,903,904,906,908,912,913,915,918,918,919,920,921,921,921,921,921,924,926,928,934,936,936,936,936,936,931,927,925,919,911,878,878,878,878,878,878,878,878,878,878,878,878,878,878,878,878,878,878,878,878,878,878,878,878,878,878,878,878,878,878,878,878,878,878,878,878,878,878,878,878,878,878,878,878,878,878,878,878,878,878,878,878,878,878,878,878,878,878,878,878,878,878,878,878,878,878,878,878,878,878,878,878,878,878,878,878,878,878,878,878,878,878,878,878,878,878,878,878,878,878,878,878,878,878,878,878,878,878,878,878,878,878,878,878,878,878,878,878,878,878,878,878,878,878,878,878,878,878,878,878,878,878,878,878,878,878,878,878,878,878,878,878,878,878,878,878,878,878,878,878,878,878,878,878,878,878,878,878,878,878,878,878,878,878,878,878,878,878,878,878,878,878,878,878,878,878,878,878,878,878,878,878,878,878,878,878,878,878,878,878,878,878,878,878,878,878,878,878,878,878,878,878,878,878,878,878,878,878,878,878,878,878,878,878,878,878,878,878,878,878,878,878,878,878,878,878,878,878,878,878,878,878,878,878,878,878,878,878,878,878,878,878,878,878,878,878,878,878,878,878,878,878,878,878,878,878,878,878,878,878,878,878,878,878,878,878,878,878,878,878,878,878,878,878,878,878,878,878,878,878,878,878,878,878,878,878,878,878,878,878,878,878,878,878,878,878,878,878,878,878,878,878,878,878,878,878,878,878,878,878,878,878,878,878,878,878,878,878,878,878,878,878,878,878,878,878,878,878,878,878,878,878,878,878,878,878,878,878,878,878,878,878,878,878,878,878,878,878,878,878,878,878,878,878,878,878,878,878,878,878,878,878,878,878,878,878,878,878,878,878,878,878,878,878,878,878,878,878,878,878,878,878,878,878,878,878,878,878,878,878,878,878,878,878,878,878,878,878,878,878,878,878,878,878,878,878,878,878,878,878,878,878,878,878,878,878,878,878,878,878,878,878,878,878,878,878,878,878,878,878,878,878,878,878,878,878,878,878,878,878,878,878,878,878,878,878,878,878,878,878,878,878,878,878,878,878,878,878,878,878,744,744,744,744,744,744,744,744,743,742,738,731,728,727,726,725,725,725,725,725,725,725,725,724,723,721,721,721,720,719,715,705,705,705,705,705,705,705,705,705,705,705,705,705,705,705,705,705,705,705,705,705,705,525,542,577,675,733,782,817,847,874,876,876,876,876,864,858,853,849,848,841,834,831,821,801,761,750,750,750,750,750,750,750,750,750,750,750,750,750,750,750,750,750,750,750,750,750,750,750,750,750,750,750,750,750,750,750,750,750,750,750,750,750,750,750,750,750,750,750,750,750,750,750,750,750,750,750,750,750,750,750,750,750,750,750,750,750,750,750,750,750,750,750,750,750,750,750,750,750,750,750,750,750,750,750,750,750,750,750,750,750,750,750,750,750,750,750,750,750,750,750,750,750,750,750,750,750,750,750,750,750,750,750,750,750,750,750,750,750,750,750,750,750,750,750,750,750,750,750,750,750,750,750,750,750,750,750,750,750,750,750,750,750,750,750,750,750,750,750,750,750,750,750,750,750,750,750,750,750,750,750,750,750,750,750,750,750,750,750,750,750,750,750,750,750,750,750,750,750,750,750,750,750,750,750,750,750,750,750,750,750,750,750,750,750,750,750,750,750,750,750,750,750,750,750,750,750,750,750,750,750,750,750,750,750,750,750,750,750,750,750,750,750,750,750,750,750,750,750,750,750,750,750,750,750,750,750,750,750,750,750,750,750,750,750,750,750,750,750,750,750,750,750,750,750,750,750,750,750,750,750,750,750,750,750,750,750,750,750,750,750,750,750,750,750,750,750,750,750,750,750,750,750,750,750,750,750,750,750,750,750,750,750,750,750,750,750,750,750,750,750,750,750,750,750,750,750,750,750,750,750,750,750,750,750,750,750,750,750,750,750,750,750,750,750,750,750,750,750,750,750,750,750,750,750,750,750,750,750,750,750,750,750,750,750,750,750,750,750,750,750,750,750,750,750,750,750,750,750,750,750,750,750,750,750,750,750,750,750,750,750,750,750,750,750,750,750,750,750,750,750,750,750,750,750,750,750,750,750,750,750,750,750,750,750,750,750,750,750,750,750,750,750,750,750,750,750,750,750,750,750,750,750,750,750,750,750,750,750,750,750,750,750,750,750,750,750,750,750,750,750,750,750,750,750,750,750,750,750,750,750,750,750,750,750,750,750,750,750,750,750,750,750,750,750,750,750,750,750,750,750,750,750,750,750,750,750,750,750,750,750,750,750,750,750,750,750,750,750,750,750,750,750,750,750,750,750,750,750,750,750,750,750,750,750,750,750,750,750,750,750,750,750,750,750,750,750,750,750,750,750,750,750,750,750,750,750,750,750,750,750,750,750,750,750,750,750,750,750,750,750,750,750,750,750,750,750,750,750,750,750,750,750,750,750,750,750,750,750,750,750,750,750,750,750,750,750,750,750,750,750,750,750,750,750,750,750,750,750,750,750,750,750,750,750,750,750,750,750,750,750,750,750,750,750,750,750,750,750,750,750,750,750,750,750,750,750,750,750,750,750,750,750,750,750,750,750,750,750,750,750,750,750,750,750,750,750,750,750,750,750,750,750,750,750,750,750,750,750,750,750,750,750,750,750,750,750,750,750,750,750,750,750,750,750,750,750,750,750,750,750,750,750,750,750,750,750,750,750,750,750,750,750,750,750,750,750,750,750,750,750,750,750,750,750,750,750,750,750,750,750,750,750,750,750,750,750,750,750,750,750,750,750,750,750,750,750,750,750,750,750,750,750,750,750,750,750,750,750,750,750,750,750,750,750,750,750,750,750,750,750,750,750,750,750,750,750,750,750,750,750,750,750,750,750,750,750,750,750,750,750,750,750,750,750,750,750,750,750,750,750,750,750,750,750,750,750,750,750,750,750,750,750,750,750,750,750,750,750,750,750,750,750,750,750,750,750,750,750,750,750,750,750,750,750,750,750,750,750,750,750,750,750,750,750,750,750,750,750,750,750,750,750,750,750,750,750,750,750,750,750,750,750,750,750,750,750,750,750,750,750,750,750,750,750,750,750,750,750,750,750,750,750,750,750,750,750,750,750,750,750,750,750,750,750,750,750,750,750,750,750,750,750,750,750,750,750,750,750,750,750,750,750,750,750,750,750,750,750,750,750,750,750,750,750,750,750,750,750,750,750,750,750,750,750,750,750,750,750,750,750,750,750,750,750,750,750,750,750,750,750,750,750,750,750,750,750,750,750,750,750,750,750,750,750,750,750,750,750,750,750,750,750,750,750,750,750,750,750,750,750,750,750,750,750,750,750,750,750,750,750,750,750,750,750,750,750,750,750,750,750,750,750,750,750,750,750,750,750,750,750,750,750,750,750,750,750,750,750,750,750,750,750,750,750,750,750,750,750,750,750,750,750,750,750,750,750,750,750,750,750,750,750,750,750,750,750,750,750,750,750,750,750,750,750,750,750,750,750,750,750,750,750,750,750,750,750,750,750,750,750,750,750,750,750,750,750,750,750,750,750,750,750,750,750,750,750,750,750,750,750,750,750,750,750,750,750,750,750,750,750,750,750,750,750,750,750,750,750,750,750,750,750,750,750,750,750,750,750,750,750,750,750,750,750,750,750,750,750,750,750,750,750,750,750,750,750,750,750,750,750,750,750,750,750,750,750,750,750,750,750,750,750,750,750,750,750,750,750,750,750,750,750,750,750,750,750,750,750,750,750,750,750,750,750,750,750,750,750,750,750,750,750,750,750,750,750,750,750,750,750,750,750,750,750,750,750,750,750,750,750,750,750,750,750,750,750,750,750,750,750,750,750,750,750,750,750,750,750,750,750,750,750,750,750,750,750,750,750,750,750,750,750,750,750,750,750,750,750,750,750,750,750,750,750,750,750,750,750,750,750,750,750,750,750,750,750,750,750,750,750,750,750,750,750,750,750,750,750,750,750,750,750,750,750,750,750,750,750,750,750,750,750,750,750,750,750,750,750,750,750,750,750,750,750,750,750,750,750,750,750,750,750,750,750,750,750,750,750,750,750,750,750,750,750,750,750,750,750,750,750,750,750,750,750,750,750,750,750,750,750,750,750,750,750,750,750,750,750,750,750,750,750,750,750,750,750,750,750,750,750,750,750,750,750,750,750,750,750,750,750,750,750,750,750,750,750,750,750,750,750,750,750,750,750,750,750,750,750,750,750,750,750,750,750,750,750,750,750,750,750,750,750,750,750,750,750,750,750,750,750,750,750,750,750,750,750,750,750,750,750,750,750,750,750,750,750,750,750,750,750,750,750,750,750,750,750,750,750,750,750,750,750,750,750,750,750,750,750,750,750,750,750,750,750,750,750,750,750,750,750,750,750,750,750,750,750,750,750,750,750,750,750,750,750,750,750,750,750,750,750,750,750,750,750,750,750,750,750,750,750,750,750,750,750,750,750,750,750,750,750,750,750,750,750,750,750,750,750,750,750,750,750,750,750,750,750,750,750,750,750,750,750,750,750,750,750,750,750,750,750,750,750,750,750,750,750,750,750,750,750,750,750,750,750,750,750,750,750,750,750,750,750,750,750,750,750,750,801,802,800,782,745,642,632,632,631,630,630,630,645,682,728,765,775,788,806,841,893,915,927,928,928,928,924,917,912,904,894,870,857,843,832,819,816,814,813,811,810,805,803,799,789,781,776,772,772,772,772,772,772,772,772,772,772,772,772,772,774,780,784,786,794,828,848,870,894,948,1030,1068,1100,1124,1139],"ymouse":[568,559,554,552,552,552,552,552,555,560,563,567,571,576,584,595,610,630,641,641,633,620,602,580,573,571,570,578,591,596,600,603,604,604,604,605,605,607,609,610,610,610,610,610,610,610,610,610,611,611,611,611,610,605,603,601,599,599,598,598,598,598,598,598,598,598,598,598,598,599,599,599,599,599,599,599,599,599,599,599,599,599,599,599,599,599,599,599,599,599,600,600,600,600,600,600,600,600,600,600,600,600,600,600,600,601,601,601,601,601,601,601,601,601,601,601,601,601,601,601,601,601,601,601,601,601,601,601,601,601,601,601,601,601,603,603,606,607,608,610,611,611,611,611,611,611,611,611,611,611,611,611,611,611,611,611,611,611,611,611,611,611,611,611,611,611,611,611,611,612,612,612,612,612,612,612,612,612,613,613,613,613,613,613,613,613,613,613,614,615,615,615,615,616,617,617,617,617,617,617,617,618,619,620,621,621,622,622,622,622,622,622,623,623,623,624,624,624,624,624,624,624,624,624,624,624,624,624,624,624,624,625,629,632,638,639,639,639,639,639,639,639,639,639,639,639,640,642,644,644,644,644,644,644,644,644,644,644,644,644,644,642,641,639,637,637,637,637,637,637,637,637,637,637,641,642,644,647,648,649,649,649,649,649,651,651,651,651,651,650,649,647,646,645,643,643,643,642,642,640,639,638,632,629,623,621,627,637,642,646,647,647,647,647,647,647,646,646,644,628,613,596,580,560,541,536,529,522,518,506,501,495,487,479,466,465,465,465,465,466,467,469,469,469,469,472,475,478,480,484,484,484,485,485,487,490,492,495,498,505,510,512,516,517,521,521,523,523,524,524,524,524,524,524,524,529,530,532,533,535,536,540,544,548,553,553,553,553,555,555,555,555,558,558,598,619,638,654,660,663,663,663,663,660,651,648,647,646,645,644,642,641,641,641,638,633,632,631,631,631,631,631,631,599,556,460,428,395,373,366,366,382,396,403,406,396,377,349,325,282,271,265,259,250,243,241,239,237,236,234,227,220,208,179,124,99,80,73,72,72,72,72,72,72,67,66,65,65,65,62,34,15,0,0,0,0,0,0,0,20,30,39,47,51,57,64,105,119,165,231,384,441,509,535,553,556,556,556,556,556,558,561,568,572,581,585,588,591,596,606,634,665,683,694,697,697,694,683,672,643,632,623,613,612,612,612,612,612,612,612,612,612,612,612,610,604,589,570,546,522,496,494,493,493,492,484,477,468,458,444,437,427,415,412,411,411,411,411,411,411,411,411,411,411,411,411,411,411,411,413,420,422,422,422,422,422,422,422,422,422,422,422,422,422,422,422,422,422,422,422,422,422,422,422,422,422,422,422,422,422,422,422,421,418,413,404,401,401,401,401,401,401,401,401,401,401,401,401,401,401,401,401,401,401,401,401,401,401,401,401,401,401,401,401,401,401,401,401,401,401,401,401,401,401,401,401,401,401,401,401,401,401,401,401,401,401,401,401,401,401,401,401,401,401,401,401,401,401,401,401,401,401,401,401,401,401,401,401,401,401,401,401,401,401,401,401,401,401,401,401,401,401,401,401,401,401,401,401,401,401,401,401,401,401,401,401,401,401,401,401,401,401,401,401,401,401,401,401,401,401,401,401,401,401,401,401,401,401,401,401,401,401,401,401,401,401,401,401,401,401,401,401,401,401,401,401,401,401,401,401,401,401,401,401,401,401,401,401,401,401,401,401,401,401,401,401,401,401,401,401,401,401,401,401,401,401,401,401,401,401,401,401,401,401,401,401,401,401,401,401,401,401,401,401,401,401,401,401,401,401,401,401,401,401,401,401,401,401,401,401,401,401,401,401,401,401,401,401,401,401,401,401,401,401,401,401,401,401,401,401,401,401,401,401,401,401,401,401,401,401,401,401,401,401,401,401,401,401,401,401,401,401,401,401,401,401,401,401,401,401,401,401,401,401,401,401,401,401,401,401,401,401,401,401,401,401,401,401,401,401,401,401,401,401,401,401,401,401,401,401,401,401,401,401,401,401,401,401,401,401,401,401,401,401,401,401,401,401,401,401,401,401,401,401,401,401,401,401,401,401,401,401,401,401,401,401,401,401,401,401,401,401,401,401,401,401,401,401,401,401,401,401,401,401,401,401,401,401,401,401,401,401,401,401,401,401,401,401,401,401,401,401,401,401,401,401,401,401,401,401,401,401,401,401,401,401,401,401,401,401,401,401,401,401,401,401,401,401,401,401,401,401,401,401,401,401,401,401,401,401,401,401,401,401,401,401,401,401,401,401,401,401,401,401,401,401,401,401,401,401,401,401,401,401,401,401,401,401,401,401,401,401,401,401,401,401,401,401,401,401,401,401,401,401,401,401,401,401,401,401,401,401,401,401,401,401,401,401,401,401,401,401,401,401,401,401,401,401,401,401,401,401,401,401,401,401,401,401,401,401,401,401,401,401,401,401,401,401,401,401,401,401,401,401,401,401,401,401,401,401,401,401,401,401,401,401,401,401,401,401,401,401,401,401,401,401,401,401,401,401,401,401,401,401,401,401,401,401,401,401,401,401,401,401,401,401,401,401,401,401,401,401,401,401,401,401,401,401,401,401,401,401,401,401,401,401,401,401,401,401,401,401,401,401,401,401,401,401,401,401,401,401,401,401,401,401,401,401,401,401,401,401,401,401,401,401,401,401,401,401,401,401,401,401,401,401,401,401,401,401,401,401,401,401,401,401,401,401,401,401,401,401,401,401,401,401,401,401,401,401,401,401,401,401,401,401,401,401,401,401,401,401,401,401,401,401,401,401,401,401,401,401,401,401,401,401,401,401,401,401,401,401,401,401,401,401,401,401,401,401,401,401,401,401,401,401,401,401,401,401,401,401,401,401,401,401,401,401,401,401,401,401,401,401,401,401,401,401,401,401,401,401,401,401,401,401,401,401,401,401,401,401,401,401,401,401,401,401,401,401,401,401,401,401,401,401,401,401,401,401,401,401,401,401,401,401,401,401,401,401,401,401,401,401,401,401,401,401,401,401,401,401,401,401,401,401,401,401,401,401,401,401,401,401,401,401,401,401,401,401,401,401,401,401,401,401,401,401,401,401,401,401,401,401,401,401,401,401,401,401,401,401,401,401,401,401,401,401,401,401,401,401,401,401,401,401,401,401,401,401,401,401,401,401,401,401,401,401,401,401,401,401,401,401,401,401,401,401,401,401,401,401,401,401,401,401,401,401,401,401,401,401,401,401,401,401,401,401,401,401,401,401,401,401,401,401,401,401,401,401,401,401,401,401,401,401,401,401,401,401,401,401,401,401,401,401,401,401,401,401,401,401,401,401,401,401,401,401,401,401,401,401,401,401,401,401,401,401,401,401,401,401,401,401,401,401,401,401,401,401,401,401,401,401,401,401,401,401,401,401,401,401,401,401,401,401,401,401,401,401,401,401,401,401,401,401,401,401,401,401,401,401,401,401,401,401,401,401,401,401,401,401,401,401,401,401,401,401,401,401,401,401,401,401,401,401,401,401,401,401,401,401,401,401,401,401,401,401,401,401,401,401,401,401,401,401,401,401,401,401,401,401,401,401,401,401,401,401,401,401,401,401,401,401,401,401,401,401,401,401,401,401,401,401,401,401,401,401,401,401,401,401,401,401,401,401,401,401,401,401,401,401,401,401,401,401,401,401,401,401,401,401,401,401,401,401,401,401,401,401,401,401,401,401,401,401,401,401,401,401,401,401,401,401,401,401,401,401,401,401,401,401,401,401,401,401,401,401,401,444,536,663,721,740,759,769,773,773,773,773,773,773,771,765,756,738,717,683,672,664,661,659,659,656,653,649,643,618,598,574,552,546,536,535,535,535,536,545,552,561,572,581,596,624,636,645,653,658,658,658,658,653,643,641,640,639,639,639,639,638,638,638,638,638,638,638,638,636,623,590,576,540,523,496,488,485,485,509,509,509,509,509,509,509,509,509,509,509,509,509,509,509,509,509,509,509,509,509,509,509,509,509,509,509,509,509,509,509,509,509,509,509,509,509,509,509,874,842,794,783,766,751,738,738,739,741,741,741,741,741,741,741,741,744,749,752,756,759,766,766,766,766,767,768,769,771,773,777,779,782,785,786,787,791,792,794,796,801,809,817,820,821,823,824,825,827,829,831,840,844,847,851,855,874,874,874,874,874,874,874,874,874,874,874,874,874,874,874,874,874,874,874,874,874,874,874,874,874,874,874,874,874,874,874,874,874,874,874,874,874,874,874,874,874,874,874,874,874,874,874,874,874,874,874,874,874,874,874,874,874,874,874,874,874,874,874,874,874,874,874,874,874,874,874,874,874,874,874,874,874,874,874,874,874,874,874,874,874,874,874,874,874,874,874,874,874,874,874,874,874,874,874,874,874,874,874,874,874,874,874,874,874,874,874,874,874,874,874,874,874,874,874,874,874,874,874,874,874,874,874,874,874,874,874,874,874,874,874,874,874,874,874,874,874,874,874,874,874,874,874,874,874,874,874,874,874,874,874,874,874,874,874,874,874,874,874,874,874,874,874,874,874,874,874,874,874,874,874,874,874,874,874,874,874,874,874,874,874,874,874,874,874,874,874,874,874,874,874,874,874,874,874,874,874,874,874,874,874,874,874,874,874,874,874,874,874,874,874,874,874,874,874,874,874,874,874,874,874,874,874,874,874,874,874,874,874,874,874,874,874,874,874,874,874,874,874,874,874,874,874,874,874,874,874,874,874,874,874,874,874,874,874,874,874,874,874,874,874,874,874,874,874,874,874,874,874,874,874,874,874,874,874,874,874,874,874,874,874,874,874,874,874,874,874,874,874,874,874,874,874,874,874,874,874,874,874,874,874,874,874,874,874,874,874,874,874,874,874,874,874,874,874,874,874,874,874,874,874,874,874,874,874,874,874,874,874,874,874,874,874,874,874,874,874,874,874,874,874,874,874,874,874,874,874,874,874,874,874,874,874,874,874,874,874,874,874,874,874,874,874,874,874,874,874,874,874,874,874,874,874,874,874,874,874,874,874,874,874,874,874,874,874,874,874,874,874,874,874,874,874,874,874,874,874,874,874,874,874,874,874,874,874,874,874,874,874,874,874,874,874,874,874,874,874,874,874,874,874,874,874,874,874,874,874,874,874,874,874,874,874,874,874,874,874,874,874,874,874,874,874,874,874,874,880,874,870,867,867,867,867,867,867,867,867,870,872,872,872,873,873,873,873,873,873,873,873,872,867,864,864,864,864,864,868,881,881,881,881,881,881,881,881,881,881,881,881,881,881,881,881,881,881,881,881,881,881,871,849,811,709,651,599,561,535,512,511,511,511,514,536,548,557,562,562,561,556,556,559,566,582,590,590,590,590,590,590,590,590,590,590,590,590,590,590,590,590,590,590,590,590,590,590,590,590,590,590,590,590,590,590,590,590,590,590,590,590,590,590,590,590,590,590,590,590,590,590,590,590,590,590,590,590,590,590,590,590,590,590,590,590,590,590,590,590,590,590,590,590,590,590,590,590,590,590,590,590,590,590,590,590,590,590,590,590,590,590,590,590,590,590,590,590,590,590,590,590,590,590,590,590,590,590,590,590,590,590,590,590,590,590,590,590,590,590,590,590,590,590,590,590,590,590,590,590,590,590,590,590,590,590,590,590,590,590,590,590,590,590,590,590,590,590,590,590,590,590,590,590,590,590,590,590,590,590,590,590,590,590,590,590,590,590,590,590,590,590,590,590,590,590,590,590,590,590,590,590,590,590,590,590,590,590,590,590,590,590,590,590,590,590,590,590,590,590,590,590,590,590,590,590,590,590,590,590,590,590,590,590,590,590,590,590,590,590,590,590,590,590,590,590,590,590,590,590,590,590,590,590,590,590,590,590,590,590,590,590,590,590,590,590,590,590,590,590,590,590,590,590,590,590,590,590,590,590,590,590,590,590,590,590,590,590,590,590,590,590,590,590,590,590,590,590,590,590,590,590,590,590,590,590,590,590,590,590,590,590,590,590,590,590,590,590,590,590,590,590,590,590,590,590,590,590,590,590,590,590,590,590,590,590,590,590,590,590,590,590,590,590,590,590,590,590,590,590,590,590,590,590,590,590,590,590,590,590,590,590,590,590,590,590,590,590,590,590,590,590,590,590,590,590,590,590,590,590,590,590,590,590,590,590,590,590,590,590,590,590,590,590,590,590,590,590,590,590,590,590,590,590,590,590,590,590,590,590,590,590,590,590,590,590,590,590,590,590,590,590,590,590,590,590,590,590,590,590,590,590,590,590,590,590,590,590,590,590,590,590,590,590,590,590,590,590,590,590,590,590,590,590,590,590,590,590,590,590,590,590,590,590,590,590,590,590,590,590,590,590,590,590,590,590,590,590,590,590,590,590,590,590,590,590,590,590,590,590,590,590,590,590,590,590,590,590,590,590,590,590,590,590,590,590,590,590,590,590,590,590,590,590,590,590,590,590,590,590,590,590,590,590,590,590,590,590,590,590,590,590,590,590,590,590,590,590,590,590,590,590,590,590,590,590,590,590,590,590,590,590,590,590,590,590,590,590,590,590,590,590,590,590,590,590,590,590,590,590,590,590,590,590,590,590,590,590,590,590,590,590,590,590,590,590,590,590,590,590,590,590,590,590,590,590,590,590,590,590,590,590,590,590,590,590,590,590,590,590,590,590,590,590,590,590,590,590,590,590,590,590,590,590,590,590,590,590,590,590,590,590,590,590,590,590,590,590,590,590,590,590,590,590,590,590,590,590,590,590,590,590,590,590,590,590,590,590,590,590,590,590,590,590,590,590,590,590,590,590,590,590,590,590,590,590,590,590,590,590,590,590,590,590,590,590,590,590,590,590,590,590,590,590,590,590,590,590,590,590,590,590,590,590,590,590,590,590,590,590,590,590,590,590,590,590,590,590,590,590,590,590,590,590,590,590,590,590,590,590,590,590,590,590,590,590,590,590,590,590,590,590,590,590,590,590,590,590,590,590,590,590,590,590,590,590,590,590,590,590,590,590,590,590,590,590,590,590,590,590,590,590,590,590,590,590,590,590,590,590,590,590,590,590,590,590,590,590,590,590,590,590,590,590,590,590,590,590,590,590,590,590,590,590,590,590,590,590,590,590,590,590,590,590,590,590,590,590,590,590,590,590,590,590,590,590,590,590,590,590,590,590,590,590,590,590,590,590,590,590,590,590,590,590,590,590,590,590,590,590,590,590,590,590,590,590,590,590,590,590,590,590,590,590,590,590,590,590,590,590,590,590,590,590,590,590,590,590,590,590,590,590,590,590,590,590,590,590,590,590,590,590,590,590,590,590,590,590,590,590,590,590,590,590,590,590,590,590,590,590,590,590,590,590,590,590,590,590,590,590,590,590,590,590,590,590,590,590,590,590,590,590,590,590,590,590,590,590,590,590,590,590,590,590,590,590,590,590,590,590,590,590,590,590,590,590,590,590,590,590,590,590,590,590,590,590,590,590,590,590,590,590,590,590,590,590,590,590,590,590,590,590,590,590,590,590,590,590,590,590,590,590,590,590,590,590,590,590,590,590,590,590,590,590,590,590,590,590,590,590,590,590,590,590,590,590,590,590,590,590,590,590,590,590,590,590,590,590,590,590,590,590,590,590,590,590,590,590,590,590,590,590,590,590,590,590,590,590,590,590,590,590,590,590,590,590,590,590,590,590,590,590,590,590,590,590,590,590,590,590,590,590,590,590,590,590,590,590,590,590,590,590,590,590,590,590,590,590,590,590,590,590,590,590,590,590,590,590,590,590,590,590,590,590,590,590,590,590,590,590,590,590,590,590,590,590,590,590,590,590,590,590,590,590,590,590,590,590,590,590,590,590,590,590,590,590,590,590,590,590,590,590,590,590,590,590,590,590,590,590,590,590,590,590,590,590,590,590,590,590,590,590,590,590,590,590,590,590,590,590,590,590,590,590,590,590,590,590,590,590,590,590,590,590,590,590,590,590,590,590,590,590,590,590,590,590,590,590,590,590,590,590,590,590,590,590,590,590,590,590,590,590,590,590,590,590,590,590,590,590,590,590,590,590,590,590,590,590,590,590,590,590,590,590,590,590,590,590,590,590,590,590,590,590,590,590,590,590,590,590,590,590,590,590,590,590,590,590,590,590,590,590,590,590,590,590,590,590,590,590,590,590,590,590,590,590,590,590,590,590,590,590,590,590,590,590,590,590,590,590,590,590,590,590,590,590,590,590,590,590,590,590,590,590,590,590,590,590,590,590,590,590,590,590,590,590,590,590,590,590,590,590,590,590,590,590,590,590,590,590,590,590,590,590,590,590,590,590,590,590,590,590,590,590,590,590,590,590,590,590,590,590,590,590,590,590,590,590,590,590,590,590,590,590,590,590,590,590,590,590,590,590,590,590,590,590,590,590,590,590,590,590,590,590,590,590,590,590,590,590,590,590,590,590,590,590,590,590,590,590,590,590,590,590,590,590,590,590,590,590,590,590,590,590,590,590,590,590,590,590,590,590,590,590,590,590,590,590,590,590,590,590,590,590,590,590,590,590,590,590,590,590,590,590,590,590,590,590,590,590,590,590,590,590,590,590,590,590,590,590,590,590,590,590,590,590,590,590,590,590,590,590,590,590,590,590,590,590,590,590,590,590,590,590,590,590,590,590,590,590,590,590,590,590,590,590,590,590,590,590,590,590,590,590,590,590,590,590,590,590,590,590,590,590,590,590,590,588,484,478,478,495,531,624,636,643,646,650,650,650,648,631,614,595,586,583,577,571,563,559,558,557,557,557,557,557,557,557,559,562,562,562,562,563,564,565,566,571,576,591,601,613,626,656,670,679,681,681,681,681,680,675,667,661,645,637,627,613,605,594,592,590,589,582,578,567,553,500,373,294,211,122,32],"timestamp_mouse":[9,24,45,66,85,106,126,145,165,185,204,225,244,266,284,306,325,345,367,384,405,425,446,465,484,506,525,544,565,584,604,626,645,665,685,705,725,745,766,785,805,826,846,866,885,905,925,945,965,985,1005,1025,1046,1067,1085,1106,1125,1144,1164,1185,1204,1226,1245,1265,1284,1305,1325,1344,1366,1384,1404,1425,1445,1466,1486,1505,1526,1545,1566,1585,1605,1625,1645,1665,1685,1706,1725,1745,1765,1784,1806,1825,1846,1865,1885,1905,1926,1946,1965,1985,2005,2025,2046,2065,2084,2106,2126,2145,2165,2185,2206,2225,2246,2265,2286,2306,2325,2346,2366,2385,2406,2425,2445,2465,2485,2505,2526,2546,2565,2585,2604,2625,2644,2665,2686,2705,2725,2745,2766,2785,2805,2825,2846,2865,2885,2905,2925,2945,2964,2985,3006,3026,3046,3066,3084,3105,3126,3145,3166,3184,3205,3225,3246,3266,3285,3305,3326,3346,3366,3385,3405,3425,3444,3464,3485,3506,3525,3546,3565,3585,3606,3625,3645,3665,3684,3706,3726,3746,3766,3785,3805,3824,3845,3865,3885,3905,3926,3945,3965,3985,4006,4026,4046,4064,4085,4104,4126,4146,4165,4185,4205,4226,4246,4266,4285,4305,4326,4345,4365,4385,4406,4425,4446,4465,4485,4506,4526,4546,4566,4585,4605,4625,4646,4666,4685,4705,4725,4746,4766,4785,4805,4824,4846,4864,4885,4906,4925,4945,4966,4985,5004,5025,5046,5066,5086,5106,5124,5145,5166,5185,5206,5225,5246,5266,5285,5306,5326,5345,5365,5385,5405,5425,5446,5466,5486,5504,5524,5544,5565,5585,5606,5625,5646,5665,5685,5704,5726,5745,5766,5784,5805,5826,5846,5865,5885,5905,5925,5945,5966,5984,6004,6025,6046,6065,6085,6105,6125,6146,6165,6184,6205,6226,6244,6265,6285,6306,6324,6344,6366,6385,6406,6425,6445,6466,6485,6505,6526,6546,6566,6585,6605,6625,6646,6666,6685,6704,6725,6745,6765,6786,6806,6825,6845,6865,6885,6905,6924,6945,6965,6984,7005,7025,7046,7065,7086,7106,7124,7145,7165,7185,7205,7225,7244,7266,7286,7305,7325,7345,7365,7385,7404,7426,7445,7466,7485,7506,7524,7545,7565,7584,7604,7624,7644,7666,7685,7705,7725,7745,7766,7786,7804,7826,7846,7865,7885,7906,7925,7944,7966,7984,8006,8025,8045,8066,8086,8104,8126,8145,8164,8185,8204,8225,8245,8265,8284,8305,8326,8346,8364,8386,8405,8425,8446,8464,8486,8505,8525,8546,8566,8585,8604,8624,8646,8665,8686,8706,8725,8745,8765,8785,8804,8826,8844,8865,8887,8904,8924,8946,8965,8985,9005,9024,9045,9065,9085,9104,9125,9145,9165,9185,9205,9224,9246,9265,9287,9305,9326,9344,9365,9386,9404,9425,9446,9464,9487,9504,9525,9545,9566,9589,9605,9625,9646,9666,9685,9706,9725,9746,9766,9786,9805,9825,9845,9866,9888,9904,9925,9946,9965,9986,10005,10026,10045,10065,10087,10105,10126,10145,10166,10186,10205,10225,10245,10266,10285,10306,10326,10345,10366,10386,10406,10425,10445,10466,10485,10506,10526,10546,10566,10584,10604,10626,10645,10666,10684,10705,10726,10745,10766,10785,10804,10825,10845,10865,10887,10905,10925,10945,10965,10987,11004,11026,11045,11065,11086,11106,11126,11145,11164,11185,11205,11225,11246,11266,11285,11305,11325,11345,11366,11386,11405,11425,11446,11466,11486,11505,11525,11545,11566,11585,11605,11625,11646,11666,11686,11706,11725,11746,11766,11785,11805,11826,11846,11865,11885,11905,11926,11945,11965,11986,12005,12025,12046,12066,12086,12105,12124,12145,12166,12185,12206,12225,12245,12265,12285,12305,12325,12344,12364,12385,12405,12424,12444,12464,12484,12505,12524,12544,12565,12587,12605,12624,12646,12665,12685,12706,12726,12746,12765,12785,12805,12826,12845,12865,12885,12906,12925,12946,12966,12985,13006,13026,13045,13065,13086,13106,13126,13146,13166,13185,13205,13226,13246,13266,13286,13305,13324,13346,13366,13386,13406,13425,13445,13465,13486,13505,13526,13546,13566,13584,13605,13625,13646,13665,13685,13705,13724,13746,13765,13786,13805,13826,13846,13865,13886,13905,13925,13945,13966,13986,14005,14025,14044,14065,14086,14105,14126,14145,14166,14186,14205,14225,14245,14265,14286,14305,14325,14345,14366,14385,14406,14426,14446,14466,14486,14505,14525,14546,14566,14585,14605,14625,14646,14665,14685,14705,14725,14745,14765,14786,14805,14825,14845,14865,14886,14905,14925,14945,14965,14986,15005,15025,15045,15066,15085,15105,15125,15145,15166,15186,15206,15225,15246,15266,15286,15305,15325,15345,15365,15386,15405,15426,15446,15465,15485,15506,15526,15546,15566,15586,15605,15625,15645,15666,15686,15705,15726,15746,15766,15786,15806,15826,15846,15865,15885,15907,15926,15946,15966,15985,16005,16025,16045,16066,16086,16106,16124,16146,16165,16185,16205,16225,16245,16265,16285,16307,16325,16344,16366,16385,16405,16426,16445,16465,16485,16505,16526,16546,16565,16586,16604,16625,16646,16666,16686,16705,16726,16745,16766,16786,16806,16826,16845,16865,16886,16906,16926,16946,16966,16986,17005,17025,17046,17066,17086,17106,17126,17146,17166,17186,17205,17226,17246,17266,17286,17306,17325,17345,17366,17384,17406,17426,17445,17466,17486,17505,17525,17546,17566,17586,17605,17626,17646,17666,17684,17706,17726,17745,17766,17785,17806,17826,17846,17865,17886,17906,17925,17945,17965,17985,18005,18025,18046,18066,18086,18106,18125,18145,18166,18186,18206,18225,18245,18265,18286,18305,18326,18345,18365,18385,18406,18425,18445,18466,18485,18506,18526,18546,18566,18585,18605,18624,18645,18666,18685,18705,18725,18746,18766,18785,18807,18825,18845,18865,18885,18906,18926,18945,18965,18986,19004,19026,19045,19065,19086,19105,19125,19145,19166,19185,19205,19226,19246,19266,19286,19306,19324,19346,19365,19386,19406,19426,19445,19466,19486,19506,19525,19545,19565,19586,19606,19625,19645,19666,19685,19704,19725,19746,19766,19785,19806,19825,19845,19865,19885,19906,19925,19946,19965,19984,20005,20026,20045,20066,20086,20105,20126,20146,20165,20185,20205,20225,20244,20265,20286,20305,20325,20346,20365,20385,20404,20425,20446,20466,20486,20505,20526,20546,20566,20586,20605,20625,20645,20666,20685,20705,20725,20746,20766,20786,20806,20825,20845,20865,20886,20906,20925,20945,20966,20986,21006,21025,21046,21066,21085,21105,21125,21146,21166,21185,21205,21226,21245,21265,21284,21305,21325,21345,21365,21386,21406,21425,21445,21466,21486,21505,21526,21546,21566,21585,21605,21625,21646,21666,21686,21706,21726,21745,21765,21785,21806,21824,21845,21865,21886,21906,21925,21946,21966,21985,22006,22026,22045,22065,22086,22105,22125,22146,22166,22185,22206,22225,22246,22266,22286,22306,22325,22345,22365,22385,22405,22425,22445,22465,22486,22506,22525,22546,22565,22585,22606,22625,22645,22665,22686,22706,22725,22746,22765,22785,22806,22825,22845,22864,22885,22906,22926,22946,22966,22986,23007,23025,23045,23065,23086,23106,23125,23145,23165,23186,23206,23225,23244,23265,23285,23306,23326,23346,23366,23386,23405,23425,23445,23465,23485,23506,23526,23546,23565,23586,23605,23626,23646,23666,23686,23706,23725,23745,23766,23785,23805,23826,23845,23865,23886,23906,23925,23945,23966,23985,24006,24025,24045,24065,24085,24106,24126,24146,24166,24186,24204,24224,24245,24265,24285,24305,24325,24345,24365,24386,24406,24425,24445,24466,24486,24506,24525,24545,24565,24585,24606,24626,24645,24665,24684,24706,24725,24746,24766,24786,24806,24825,24845,24865,24886,24905,24925,24946,24965,24985,25005,25025,25045,25066,25086,25105,25125,25146,25165,25186,25206,25226,25246,25266,25286,25306,25325,25345,25365,25384,25404,25425,25446,25465,25486,25505,25526,25545,25566,25585,25606,25625,25646,25665,25686,25704,25726,25745,25765,25786,25806,25826,25845,25866,25885,25905,25926,25946,25965,25985,26005,26025,26045,26066,26084,26106,26126,26145,26165,26185,26206,26226,26245,26265,26285,26306,26325,26345,26365,26386,26405,26425,26446,26465,26485,26506,26526,26545,26566,26585,26604,26626,26645,26666,26686,26705,26726,26745,26765,26785,26806,26825,26846,26866,26885,26906,26925,26945,26966,26986,27006,27025,27046,27064,27085,27106,27126,27145,27166,27186,27205,27227,27245,27266,27285,27306,27325,27345,27366,27386,27406,27425,27444,27466,27486,27505,27526,27545,27566,27586,27605,27626,27646,27666,27686,27705,27725,27744,27766,27786,27806,27827,27845,27865,27886,27906,27926,27946,27965,27984,28004,28026,28045,28065,28086,28105,28125,28146,28166,28186,28206,28225,28244,28265,28285,28305,28326,28346,28365,28384,28405,28424,28446,28466,28486,28506,28525,28546,28566,28586,28606,28627,28645,28666,28686,28706,28725,28746,28766,28786,28805,28825,28846,28865,28886,28905,28925,28945,28965,28986,29006,29025,29045,29065,29085,29106,29125,29146,29166,29185,29205,29226,29246,29266,29285,29305,29326,29345,29366,29386,29406,29426,29445,29466,29486,29504,29525,29545,29565,29586,29606,29625,29646,29665,29686,29705,29725,29745,29765,29786,29806,29826,29846,29865,29885,29906,29926,29946,29966,29985,30006,30026,30044,30064,30086,30105,30126,30145,30166,30184,30206,30226,30245,30266,30286,30306,30326,30346,30365,30386,30405,30425,30445,30464,30486,30506,30526,30546,30566,30585,30606,30626,30646,30666,30685,30706,30726,30745,30766,30786,30806,30825,30845,30866,30886,30905,30926,30945,30965,30986,31005,31026,31046,31066,31085,31105,31126,31145,31166,31185,31205,31226,31245,31265,31285,31310,31325,31346,31365,31385,31405,31426,31445,31466,31485,31505,31526,31545,31564,31585,31605,31626,31646,31665,31685,31706,31724,31745,31765,31785,31806,31826,31845,31866,31884,31904,31926,31946,31966,31986,32006,32026,32046,32065,32084,32105,32126,32145,32166,32186,32206,32225,32245,32265,32285,32306,32324,32346,32365,32385,32405,32424,32446,32465,32485,32506,32525,32545,32566,32585,32605,32626,32645,32666,32685,32705,32726,32745,32765,32785,32806,32825,32845,32865,32886,32905,32925,32945,32966,32986,33006,33026,33045,33065,33085,33106,33125,33145,33166,33185,33206,33226,33246,33265,33285,33306,33325,33345,33365,33385,33405,33425,33445,33466,33485,33506,33525,33546,33565,33586,33605,33625,33646,33666,33687,33706,33726,33745,33765,33785,33806,33824,33844,33865,33885,33905,33926,33946,33965,33986,34004,34026,34045,34066,34086,34105,34125,34146,34165,34185,34204,34225,34245,34265,34285,34306,34325,34346,34365,34386,34406,34425,34447,34465,34486,34505,34526,34545,34565,34586,34606,34625,34646,34666,34686,34705,34726,34746,34766,34785,34806,34825,34844,34866,34885,34905,34925,34945,34965,34985,35005,35025,35046,35066,35085,35106,35126,35147,35165,35185,35205,35225,35245,35265,35286,35305,35325,35345,35365,35386,35406,35425,35445,35465,35485,35505,35525,35545,35565,35585,35605,35625,35645,35665,35685,35705,35725,35745,35765,35786,35805,35825,35845,35865,35886,35906,35926,35946,35966,35984,36006,36026,36046,36065,36086,36106,36125,36145,36165,36185,36205,36226,36245,36265,36285,36306,36325,36347,36365,36386,36405,36425,36445,36465,36486,36505,36526,36545,36565,36585,36605,36625,36647,36665,36687,36705,36726,36745,36766,36785,36805,36826,36845,36865,36885,36906,36925,36946,36965,36985,37005,37025,37046,37065,37085,37105,37126,37145,37165,37185,37206,37225,37244,37266,37284,37306,37326,37346,37366,37386,37406,37425,37445,37466,37484,37505,37525,37545,37566,37586,37606,37626,37645,37665,37685,37704,37725,37746,37766,37786,37806,37824,37845,37865,37886,37905,37926,37946,37965,37984,38005,38025,38046,38066,38085,38106,38125,38146,38166,38185,38205,38225,38245,38265,38285,38305,38325,38346,38366,38386,38406,38424,38446,38465,38486,38505,38526,38545,38566,38585,38606,38626,38644,38664,38684,38706,38726,38745,38765,38786,38806,38824,38846,38864,38885,38906,38925,38945,38965,38986,39006,39025,39044,39065,39086,39106,39126,39146,39165,39185,39205,39225,39246,39265,39286,39306,39326,39346,39365,39385,39405,39425,39445,39465,39486,39506,39526,39545,39565,39586,39605,39625,39646,39665,39686,39704,39724,39744,39765,39785,39805,39825,39846,39865,39885,39905,39925,39944,39965,39985,40005,40026,40046,40065,40084,40105,40126,40144,40165,40185,40204,40224,40246,40265,40286,40305,40326,40346,40366,40386,40405,40425,40446,40466,40485,40504,40526,40546,40566,40585,40605,40626,40645,40665,40685,40704,40726,40745,40765,40785,40806,40825,40845,40865,40886,40905,40925,40945,40966,40984,41006,41025,41046,41065,41086,41106,41125,41146,41165,41185,41206,41225,41244,41266,41286,41305,41325,41345,41365,41386,41405,41424,41445,41465,41486,41506,41526,41546,41564,41586,41606,41626,41646,41666,41685,41705,41726,41745,41765,41785,41805,41826,41844,41865,41885,41906,41925,41944,41966,41985,42006,42025,42045,42065,42084,42104,42126,42146,42165,42185,42204,42225,42246,42266,42285,42305,42326,42346,42366,42385,42404,42424,42444,42465,42486,42505,42525,42545,42565,42586,42606,42626,42644,42665,42685,42705,42726,42746,42765,42786,42806,42826,42846,42866,42885,42904,42925,42944,42966,42985,43005,43025,43046,43067,43086,43105,43125,43146,43165,43186,43205,43225,43245,43265,43284,43305,43325,43346,43366,43385,43406,43425,43445,43466,43486,43506,43526,43545,43565,43586,43605,43626,43646,43666,43685,43706,43726,43746,43765,43786,43806,43825,43846,43865,43885,43906,43925,43945,43966,43985,44005,44025,44045,44065,44086,44106,44125,44145,44166,44185,44205,44225,44245,44265,44285,44305,44326,44345,44365,44384,44405,44426,44446,44466,44485,44506,44525,44545,44566,44585,44605,44626,44646,44666,44685,44705,44724,44746,44765,44785,44806,44826,44846,44866,44885,44905,44924,44945,44966,44984,45005,45025,45045,45065,45084,45105,45126,45146,45165,45185,45206,45224,45246,45265,45285,45305,45326,45345,45365,45385,45405,45426,45446,45465,45485,45506,45526,45545,45565,45585,45606,45625,45645,45666,45684,45706,45726,45746,45765,45785,45805,45825,45846,45870,45885,45907,45926,45945,45965,45985,46006,46026,46046,46065,46085,46105,46125,46146,46165,46185,46205,46226,46245,46265,46285,46305,46325,46346,46365,46386,46405,46424,46446,46465,46486,46506,46525,46544,46566,46585,46605,46626,46645,46665,46686,46705,46725,46745,46766,46785,46806,46826,46846,46865,46885,46905,46925,46946,46966,46986,47005,47026,47045,47065,47085,47105,47126,47146,47165,47185,47205,47225,47246,47265,47285,47305,47324,47346,47365,47385,47405,47425,47444,47465,47486,47506,47525,47546,47564,47585,47606,47625,47645,47666,47685,47706,47725,47746,47766,47786,47805,47826,47846,47866,47886,47906,47926,47946,47966,47985,48006,48026,48045,48066,48085,48105,48126,48147,48165,48185,48205,48226,48246,48266,48285,48306,48326,48346,48365,48386,48406,48426,48445,48466,48485,48505,48525,48545,48566,48585,48605,48626,48646,48666,48686,48705,48725,48745,48766,48785,48806,48826,48846,48865,48885,48906,48925,48946,48964,48986,49006,49026,49046,49066,49086,49106,49126,49146,49166,49186,49206,49225,49245,49266,49286,49305,49324,49346,49365,49386,49404,49426,49445,49466,49486,49505,49525,49546,49565,49586,49606,49626,49645,49666,49686,49706,49725,49746,49766,49786,49805,49826,49846,49864,49886,49905,49926,49946,49966,49986,50006,50025,50046,50065,50085,50106,50125,50145,50166,50185,50206,50225,50246,50266,50286,50306,50324,50346,50365,50386,50405,50426,50445,50464,50486,50504,50526,50546,50565,50586,50605,50624,50645,50665,50685,50706,50726,50745,50766,50785,50805,50826,50845,50866,50886,50906,50925,50946,50966,50985,51006,51026,51045,51065,51086,51106,51126,51145,51166,51185,51205,51225,51245,51266,51286,51306,51326,51346,51365,51386,51405,51426,51445,51466,51486,51506,51526,51546,51566,51585,51606,51625,51646,51665,51686,51706,51726,51746,51766,51785,51806,51826,51845,51866,51885,51906,51926,51945,51966,51985,52006,52025,52045,52065,52086,52105,52125,52146,52164,52184,52206,52225,52245,52266,52285,52306,52326,52345,52366,52385,52405,52425,52445,52466,52486,52505,52524,52546,52566,52586,52605,52626,52646,52665,52685,52706,52724,52745,52766,52786,52805,52824,52846,52865,52886,52905,52926,52944,52964,52986,53006,53026,53046,53065,53086,53106,53126,53145,53166,53185,53206,53226,53246,53264,53286,53306,53326,53346,53365,53386,53405,53426,53446,53466,53486,53505,53526,53545,53565,53585,53605,53625,53646,53666,53686,53705,53726,53746,53765,53785,53806,53826,53845,53866,53886,53905,53926,53945,53966,53986,54006,54025,54045,54065,54086,54106,54125,54146,54165,54186,54206,54226,54245,54265,54284,54305,54326,54346,54365,54384,54404,54426,54445,54466,54486,54506,54526,54546,54566,54585,54605,54625,54645,54665,54686,54704,54725,54746,54766,54785,54806,54826,54846,54866,54885,54905,54926,54946,54965,54986,55006,55024,55046,55065,55085,55106,55126,55146,55166,55185,55205,55226,55246,55266,55286,55305,55324,55345,55366,55386,55405,55425,55446,55465,55485,55505,55525,55546,55566,55585,55605,55626,55646,55666,55685,55705,55726,55745,55766,55785,55805,55825,55846,55866,55886,55906,55924,55945,55966,55986,56004,56024,56046,56066,56086,56105,56125,56145,56166,56185,56205,56226,56246,56266,56286,56305,56325,56346,56366,56385,56406,56425,56446,56466,56485,56504,56525,56546,56565,56586,56605,56624,56644,56666,56686,56706,56725,56745,56766,56785,56806,56825,56846,56866,56886,56905,56925,56946,56965,56985,57006,57025,57045,57066,57085,57105,57125,57146,57166,57186,57205,57226,57246,57266,57285,57306,57326,57345,57365,57386,57405,57425,57445,57466,57486,57505,57525,57545,57565,57586,57606,57625,57646,57664,57686,57706,57725,57746,57765,57786,57806,57825,57845,57865,57885,57906,57926,57946,57965,57986,58005,58025,58045,58066,58085,58106,58125,58146,58166,58184,58206,58225,58246,58264,58286,58306,58325,58345,58364,58386,58405,58425,58445,58465,58485,58504,58525,58545,58564,58586,58606,58625,58645,58666,58685,58704,58726,58745,58766,58785,58806,58826,58845,58866,58886,58905,58925,58946,58964,58986,59006,59025,59046,59066,59086,59106,59125,59146,59166,59185,59205,59225,59246,59266,59286,59306,59325,59345,59365,59386,59406,59426,59446,59466,59486,59506,59525,59546,59566,59585,59606,59626,59645,59665,59685,59706,59726,59745,59766,59785,59805,59825,59846,59866,59886,59906,59924,59945,59966,59986,60006,60025,60045,60066,60086,60106,60126,60146,60166,60186,60206,60226,60245,60266,60285,60305,60326,60346,60366,60386,60405,60426,60445,60466,60486,60506,60526,60546,60566,60585,60606,60625,60645,60665,60685,60706,60725,60746,60766,60785,60804,60826,60846,60866,60886,60905,60926,60946,60966,60986,61005,61025,61045,61066,61085,61106,61126,61146,61166,61184,61206,61226,61245,61264,61285,61306,61326,61346,61366,61386,61406,61426,61445,61466,61486,61504,61526,61546,61566,61585,61606,61626,61646,61665,61684,61706,61726,61746,61766,61786,61806,61826,61844,61865,61886,61906,61925,61944,61966,61985,62006,62025,62046,62065,62086,62106,62126,62146,62165,62185,62205,62225,62246,62266,62285,62305,62325,62346,62365,62386,62405,62426,62445,62464,62485,62506,62526,62545,62565,62586,62606,62626,62645,62666,62686,62706,62726,62745,62765,62786,62805,62825,62845,62865,62886,62906,62925,62946,62965,62985,63005,63025,63046,63066,63085,63106,63125,63145,63166,63185,63206,63224,63245,63266,63285,63306,63325,63346,63365,63386,63406,63425,63446,63465,63486,63504,63525,63546,63566,63586,63606,63624,63646,63666,63685,63706,63725,63746,63766,63785,63806,63825,63845,63866,63886,63906,63925,63945,63965,63986,64006,64026,64044,64066,64085,64106,64125,64145,64165,64185,64204,64226,64246,64266,64286,64306,64325,64345,64366,64386,64406,64425,64445,64466,64486,64505,64525,64546,64566,64585,64606,64625,64646,64666,64685,64704,64725,64746,64766,64786,64806,64825,64846,64866,64886,64906,64925,64946,64966,64986,65006,65026,65046,65066,65086,65106,65125,65145,65166,65185,65205,65226,65245,65265,65285,65305,65326,65345,65365,65385,65406,65425,65445,65466,65485,65506,65525,65545,65565,65586,65606,65626,65646,65665,65686,65705,65726,65745,65766,65784,65804,65826,65846,65866,65885,65906,65926,65946,65966,65985,66005,66025,66044,66066,66086,66106,66125,66145,66166,66186,66205,66225,66246,66265,66286,66305,66325,66345,66365,66386,66404,66425,66446,66466,66486,66504,66526,66546,66566,66585,66605,66625,66646,66666,66684,66706,66726,66746,66766,66785,66805,66825,66846,66865,66886,66905,66926,66946,66965,66985,67005,67025,67046,67066,67085,67106,67126,67145,67165,67186,67206,67226,67245,67265,67286,67306,67325,67346,67365,67386,67406,67426,67445,67466,67485,67506,67526,67546,67565,67585,67605,67626,67646,67664,67684,67706,67726,67746,67766,67785,67805,67826,67846,67866,67886,67905,67926,67946,67966,67985,68005,68026,68046,68066,68085,68105,68126,68145,68166,68185,68205,68225,68245,68266,68285,68306,68325,68346,68366,68386,68405,68426,68444,68466,68486,68505,68525,68545,68566,68585,68606,68625,68645,68666,68685,68706,68725,68745,68766,68786,68805,68825,68845,68864,68886,68906,68925,68946,68965,68984,69006,69025,69044,69065,69086,69106,69126,69145,69166,69186,69206,69226,69245,69265,69286,69306,69327,69346,69366,69387,69407,69427,69448,69466,69487,69507,69526,69547,69567,69586,69606,69626,69647,69666,69686,69707,69727,69746,69766,69787,69806,69827,69847,69867,69887,69907,69926,69946,69966,69986,70007,70026,70047,70067,70087,70107,70127,70147,70166,70187,70206,70227,70246,70267,70287,70307,70327,70347,70366,70387,70406,70427,70447,70467,70487,70507,70526,70547,70567,70587,70607,70627,70648,70666,70686,70707,70728,70746,70767,70787,70807,70827,70847,70867,70886,70907,70927,70947,70966,70987,71007,71027,71047,71068,71087,71106,71127,71147,71166,71186,71206,71226,71247,71266,71288,71307,71327,71347,71366,71387,71407,71427,71447,71467,71486,71507,71526,71546,71566,71587,71606,71626,71647,71667,71687,71707,71726,71746,71767,71787,71807,71827,71847,71867,71886,71906,71927,71946,71968,71987,72007,72027,72046,72067,72086,72107,72127,72148,72167,72186,72206,72227,72246,72267,72288,72307,72327,72346,72366,72387,72406,72427,72447,72467,72487,72507,72527,72546,72567,72587,72606,72627,72647,72667,72686,72707,72727,72746,72767,72787,72808,72827,72846,72866,72888,72907,72927,72946,72966,72986,73007,73026,73047,73068,73086,73107,73127,73146,73168,73187,73206,73226,73246,73266,73286,73307,73326,73347,73368,73386,73406,73426,73447,73466,73487,73506,73527,73547,73567,73586,73607,73627,73646,73667,73686,73707,73727,73746,73767,73787,73806,73826,73847,73866,73888,73906,73927,73946,73967,73986,74008,74028,74046,74067,74088,74107,74127,74147,74167,74186,74207,74226,74246,74267,74287,74307,74328,74346,74366,74387,74408,74426,74448,74466,74486,74506,74526,74547,74566,74587,74608,74626,74646,74667,74688,74707,74727,74747,74766,74786,74807,74827,74847,74866,74886,74907,74927,74946,74967,74987,75006,75027,75047,75066,75088,75107,75127,75147,75168,75187,75207,75227,75246,75267,75286,75306,75327,75346,75367,75387,75407,75427,75446,75466,75487,75507,75526,75547,75568,75587,75607,75626,75647,75667,75687,75706,75727,75746,75767,75787,75806,75826,75847,75867,75887,75906,75927,75948,75967,75988,76007,76026,76047,76066,76087,76107,76127,76146,76167,76186,76206,76227,76246,76266,76287,76306,76327,76347,76367,76387,76406,76427,76446,76467,76486,76506,76527,76546,76566,76586,76607,76627,76646,76666,76687,76707,76726,76747,76767,76787,76808,76827,76847,76867,76887,76907,76926,76946,76966,76987,77006,77027,77047,77067,77087,77106,77127,77146,77166,77186,77207,77227,77246,77266,77286,77306,77326,77347,77366,77386,77406,77426,77447,77466,77487,77506,77527,77546,77567,77587,77607,77626,77647,77666,77688,77707,77726,77746,77766,77786,77807,77826,77846,77867,77886,77906,77927,77946,77966,77986,78006,78027,78046,78066,78087,78106,78126,78146,78167,78187,78207,78227,78247,78266,78287,78307,78326,78347,78366,78386,78407,78426,78446,78467,78486,78507,78527,78546,78567,78588,78606,78626,78648,78666,78687,78707,78726],"xSR":741.5,"ySR":501.8,"xT1":424.9,"yT1":0,"xT2":1058.1,"yT2":0,"toosoon":0,"cond_shown":"Congruent","ratio_trial":300,"L_num":24,"L_den":30,"R_num":8,"R_den":16,"correct_side":1,"subjID":"gabrielagonzalezcahaparro25","gender":"1","age":"9","school":"4","test":{"fix_dur":[250,1500],"timestim":1000,"targets_dim":[100,100],"targets_relative_coord":[0.3,0.7],"size_stim":[880,420],"start_dim":[100,100],"size_start":[300,300],"size_fix":60,"samplingrate":20,"img_types":["Congruent","Incongruent"],"ratios":[100,200,300],"rep_conds":19,"nTrials":120,"trials_to_rest":500,"Trials_order":[100,54,7,93,112,88,57,96,59,28,115,36,69,97,75,106,67,76,109,73,16,117,21,18,119,72,103,46,60,44,65,38,31,3,22,63,13,104,64,116,52,40,56,102,77,92,98,24,35,79,32,34,29,26,91,43,12,110,9,25,19,90,58,23,55,20,105,0,11,66,89,15,49,101,50,70,84,82,78,111,95,10,68,62,17,42,114,33,45,5,61,47,2,83,30,48,51,74,6,94,86,53,87,4,81,41,118,107,39,1,27,71,99,37,80,85,8,14,108,113],"cond_shown":["Congruent","Congruent","Incongruent","Incongruent","Congruent","Congruent","Incongruent","Congruent","Incongruent","Congruent","Incongruent","Congruent","Incongruent","Incongruent","Incongruent","Congruent","Incongruent","Congruent","Incongruent","Incongruent","Congruent","Incongruent","Incongruent","Congruent","Incongruent","Congruent","Incongruent","Congruent","Congruent","Congruent","Incongruent","Congruent","Incongruent","Incongruent","Congruent","Incongruent","Incongruent","Congruent","Congruent","Congruent","Congruent","Congruent","Congruent","Congruent","Incongruent","Congruent","Congruent","Congruent","Incongruent","Incongruent","Congruent","Congruent","Incongruent","Congruent","Incongruent","Incongruent","Congruent","Congruent","Incongruent","Incongruent","Incongruent","Congruent","Congruent","Incongruent","Incongruent","Congruent","Incongruent","Congruent","Incongruent","Congruent","Incongruent","Incongruent","Incongruent","Incongruent","Congruent","Congruent","Congruent","Congruent","Congruent","Incongruent","Incongruent","Congruent","Congruent","Congruent","Incongruent","Congruent","Congruent","Incongruent","Incongruent","Incongruent","Incongruent","Incongruent","Congruent","Incongruent","Congruent","Congruent","Incongruent","Congruent","Congruent","Congruent","Congruent","Incongruent","Incongruent","Congruent","Incongruent","Incongruent","Congruent","Incongruent","Incongruent","Incongruent","Incongruent","Incongruent","Incongruent","Incongruent","Congruent","Incongruent","Congruent","Congruent","Congruent","Incongruent"],"ratio_trial":[300,100,100,200,300,300,200,100,300,300,100,100,200,100,200,300,100,300,100,100,300,200,200,100,300,100,100,300,100,200,300,200,100,200,300,200,100,200,300,200,300,300,200,100,300,200,200,100,300,100,200,300,300,200,100,100,100,200,200,100,100,100,300,300,100,200,200,100,300,100,300,200,100,300,200,300,100,300,100,200,300,300,200,200,300,100,100,200,200,300,100,300,200,300,100,100,200,200,100,300,200,300,200,300,200,300,300,300,200,100,200,300,200,100,200,100,200,200,100,300],"left_num":[24,8,8,1,11,1,14,10,4,1,9,10,14,1,11,1,6,4,3,9,11,7,14,6,13,7,12,4,2,12,13,3,2,1,2,14,6,7,20,8,5,20,11,12,2,9,14,7,4,10,21,1,4,3,10,1,11,6,7,6,2,2,20,4,6,15,6,6,13,6,13,7,3,4,3,18,11,12,7,3,13,12,12,7,7,3,4,7,7,1,10,4,8,4,12,8,1,14,2,8,12,4,7,1,1,13,1,8,7,8,7,13,7,9,16,9,16,8,7,13],"right_num":[8,2,6,2,4,6,6,3,2,7,20,3,12,8,3,8,3,1,8,6,1,6,12,15,12,15,9,2,6,6,12,11,6,2,10,12,3,2,8,2,6,13,3,13,6,13,6,9,2,9,2,6,6,9,9,8,4,7,8,11,8,6,13,2,7,4,3,5,12,15,12,14,7,8,14,9,4,2,9,11,12,2,6,18,8,4,15,8,4,3,9,6,3,6,13,2,2,6,11,1,6,6,6,3,3,12,19,14,14,1,8,12,4,14,9,14,9,2,9,12],"left_den":[30,16,16,3,22,5,30,25,20,20,10,25,30,2,20,30,12,10,5,18,22,15,30,12,26,14,24,5,5,20,26,10,4,3,20,30,12,21,25,15,25,25,22,30,4,30,28,14,20,25,30,5,5,12,25,2,22,12,10,10,4,5,25,20,10,25,20,20,26,12,26,10,9,5,6,20,22,24,14,4,26,24,15,15,10,20,10,10,15,2,25,5,15,5,30,16,3,28,5,16,20,5,15,5,2,26,3,10,10,20,10,26,15,15,30,15,30,15,14,26],"right_den":[16,5,10,15,20,12,9,10,4,20,25,10,18,20,4,24,5,10,16,10,5,9,18,25,15,25,15,4,12,15,15,22,15,15,25,18,5,15,16,6,12,26,10,26,30,26,20,15,4,18,4,12,12,20,18,20,10,10,16,22,20,12,26,4,14,10,6,25,15,25,15,28,30,16,20,15,10,10,15,20,15,10,10,27,20,16,30,16,6,15,18,12,9,12,26,5,15,20,22,5,15,12,9,6,10,15,30,28,28,2,16,15,6,28,27,28,27,6,15,15],"correct_side":[1,1,2,1,1,2,2,1,2,2,1,1,2,1,2,2,2,1,1,2,1,2,2,2,2,2,2,1,2,1,2,2,1,1,2,2,2,1,1,1,2,1,1,2,1,2,1,2,2,2,1,2,1,2,2,1,1,2,1,1,1,2,1,2,1,1,2,1,2,2,2,1,1,1,2,1,1,1,2,1,2,1,1,2,1,2,2,1,2,1,2,1,1,1,2,1,1,1,2,1,1,1,2,2,1,2,2,1,1,2,1,2,2,1,1,1,1,1,2,2],"img_shown":["img2/300/Congruent/L/C_Dist_300_LN_24_LD_30_RN_8_RD_16_0.png","img2/100/Congruent/L/C_Dist_100_LN_8_LD_16_RN_2_RD_5_0.png","img2/100/Incongruent/R/I_Dist_100_LN_8_LD_16_RN_6_RD_10_1.png","img2/200/Incongruent/L/I_Dist_200_LN_1_LD_3_RN_2_RD_15_0.png","img2/300/Congruent/L/C_Dist_300_LN_11_LD_22_RN_4_RD_20_0.png","img2/300/Congruent/R/C_Dist_300_LN_1_LD_5_RN_6_RD_12_1.png","img2/200/Incongruent/R/I_Dist_200_LN_14_LD_30_RN_6_RD_9_1.png","img2/100/Congruent/L/C_Dist_100_LN_10_LD_25_RN_3_RD_10_0.png","img2/300/Incongruent/R/I_Dist_300_LN_4_LD_20_RN_2_RD_4_1.png","img2/300/Congruent/R/C_Dist_300_LN_1_LD_20_RN_7_RD_20_1.png","img2/100/Incongruent/L/I_Dist_100_LN_9_LD_10_RN_20_RD_25_0.png","img2/100/Congruent/L/C_Dist_100_LN_10_LD_25_RN_3_RD_10_0.png","img2/200/Incongruent/R/I_Dist_200_LN_14_LD_30_RN_12_RD_18_1.png","img2/100/Incongruent/L/I_Dist_100_LN_1_LD_2_RN_8_RD_20_0.png","img2/200/Incongruent/R/I_Dist_200_LN_11_LD_20_RN_3_RD_4_1.png","img2/300/Congruent/R/C_Dist_300_LN_1_LD_30_RN_8_RD_24_1.png","img2/100/Incongruent/R/I_Dist_100_LN_6_LD_12_RN_3_RD_5_1.png","img2/300/Congruent/L/C_Dist_300_LN_4_LD_10_RN_1_RD_10_0.png","img2/100/Incongruent/L/I_Dist_100_LN_3_LD_5_RN_8_RD_16_0.png","img2/100/Incongruent/R/I_Dist_100_LN_9_LD_18_RN_6_RD_10_1.png","img2/300/Congruent/L/C_Dist_300_LN_11_LD_22_RN_1_RD_5_0.png","img2/200/Incongruent/R/I_Dist_200_LN_7_LD_15_RN_6_RD_9_1.png","img2/200/Incongruent/R/I_Dist_200_LN_14_LD_30_RN_12_RD_18_1.png","img2/100/Congruent/R/C_Dist_100_LN_6_LD_12_RN_15_RD_25_1.png","img2/300/Incongruent/R/I_Dist_300_LN_13_LD_26_RN_12_RD_15_1.png","img2/100/Congruent/R/C_Dist_100_LN_7_LD_14_RN_15_RD_25_1.png","img2/100/Incongruent/R/I_Dist_100_LN_12_LD_24_RN_9_RD_15_1.png","img2/300/Congruent/L/C_Dist_300_LN_4_LD_5_RN_2_RD_4_0.png","img2/100/Congruent/R/C_Dist_100_LN_2_LD_5_RN_6_RD_12_1.png","img2/200/Congruent/L/C_Dist_200_LN_12_LD_20_RN_6_RD_15_0.png","img2/300/Incongruent/R/I_Dist_300_LN_13_LD_26_RN_12_RD_15_1.png","img2/200/Congruent/R/C_Dist_200_LN_3_LD_10_RN_11_RD_22_1.png","img2/100/Incongruent/L/I_Dist_100_LN_2_LD_4_RN_6_RD_15_0.png","img2/200/Incongruent/L/I_Dist_200_LN_1_LD_3_RN_2_RD_15_0.png","img2/300/Congruent/R/C_Dist_300_LN_2_LD_20_RN_10_RD_25_1.png","img2/200/Incongruent/R/I_Dist_200_LN_14_LD_30_RN_12_RD_18_1.png","img2/100/Incongruent/R/I_Dist_100_LN_6_LD_12_RN_3_RD_5_1.png","img2/200/Congruent/L/C_Dist_200_LN_7_LD_21_RN_2_RD_15_0.png","img2/300/Congruent/L/C_Dist_300_LN_20_LD_25_RN_8_RD_16_0.png","img2/200/Congruent/L/C_Dist_200_LN_8_LD_15_RN_2_RD_6_0.png","img2/300/Congruent/R/C_Dist_300_LN_5_LD_25_RN_6_RD_12_1.png","img2/300/Congruent/L/C_Dist_300_LN_20_LD_25_RN_13_RD_26_0.png","img2/200/Congruent/L/C_Dist_200_LN_11_LD_22_RN_3_RD_10_0.png","img2/100/Congruent/R/C_Dist_100_LN_12_LD_30_RN_13_RD_26_1.png","img2/300/Incongruent/L/I_Dist_300_LN_2_LD_4_RN_6_RD_30_0.png","img2/200/Congruent/R/C_Dist_200_LN_9_LD_30_RN_13_RD_26_1.png","img2/200/Congruent/L/C_Dist_200_LN_14_LD_28_RN_6_RD_20_0.png","img2/100/Congruent/R/C_Dist_100_LN_7_LD_14_RN_9_RD_15_1.png","img2/300/Incongruent/R/I_Dist_300_LN_4_LD_20_RN_2_RD_4_1.png","img2/100/Incongruent/R/I_Dist_100_LN_10_LD_25_RN_9_RD_18_1.png","img2/200/Congruent/L/C_Dist_200_LN_21_LD_30_RN_2_RD_4_0.png","img2/300/Congruent/R/C_Dist_300_LN_1_LD_5_RN_6_RD_12_1.png","img2/300/Incongruent/L/I_Dist_300_LN_4_LD_5_RN_6_RD_12_0.png","img2/200/Congruent/R/C_Dist_200_LN_3_LD_12_RN_9_RD_20_1.png","img2/100/Incongruent/R/I_Dist_100_LN_10_LD_25_RN_9_RD_18_1.png","img2/100/Incongruent/L/I_Dist_100_LN_1_LD_2_RN_8_RD_20_0.png","img2/100/Congruent/L/C_Dist_100_LN_11_LD_22_RN_4_RD_10_0.png","img2/200/Congruent/R/C_Dist_200_LN_6_LD_12_RN_7_RD_10_1.png","img2/200/Incongruent/L/I_Dist_200_LN_7_LD_10_RN_8_RD_16_0.png","img2/100/Incongruent/L/I_Dist_100_LN_6_LD_10_RN_11_RD_22_0.png","img2/100/Incongruent/L/I_Dist_100_LN_2_LD_4_RN_8_RD_20_0.png","img2/100/Congruent/R/C_Dist_100_LN_2_LD_5_RN_6_RD_12_1.png","img2/300/Congruent/L/C_Dist_300_LN_20_LD_25_RN_13_RD_26_0.png","img2/300/Incongruent/R/I_Dist_300_LN_4_LD_20_RN_2_RD_4_1.png","img2/100/Incongruent/L/I_Dist_100_LN_6_LD_10_RN_7_RD_14_0.png","img2/200/Congruent/L/C_Dist_200_LN_15_LD_25_RN_4_RD_10_0.png","img2/200/Incongruent/R/I_Dist_200_LN_6_LD_20_RN_3_RD_6_1.png","img2/100/Congruent/L/C_Dist_100_LN_6_LD_20_RN_5_RD_25_0.png","img2/300/Incongruent/R/I_Dist_300_LN_13_LD_26_RN_12_RD_15_1.png","img2/100/Congruent/R/C_Dist_100_LN_6_LD_12_RN_15_RD_25_1.png","img2/300/Incongruent/R/I_Dist_300_LN_13_LD_26_RN_12_RD_15_1.png","img2/200/Incongruent/L/I_Dist_200_LN_7_LD_10_RN_14_RD_28_0.png","img2/100/Incongruent/L/I_Dist_100_LN_3_LD_9_RN_7_RD_30_0.png","img2/300/Incongruent/L/I_Dist_300_LN_4_LD_5_RN_8_RD_16_0.png","img2/200/Congruent/R/C_Dist_200_LN_3_LD_6_RN_14_RD_20_1.png","img2/300/Congruent/L/C_Dist_300_LN_18_LD_20_RN_9_RD_15_0.png","img2/100/Congruent/L/C_Dist_100_LN_11_LD_22_RN_4_RD_10_0.png","img2/300/Congruent/L/C_Dist_300_LN_12_LD_24_RN_2_RD_10_0.png","img2/100/Congruent/R/C_Dist_100_LN_7_LD_14_RN_9_RD_15_1.png","img2/200/Incongruent/L/I_Dist_200_LN_3_LD_4_RN_11_RD_20_0.png","img2/300/Incongruent/R/I_Dist_300_LN_13_LD_26_RN_12_RD_15_1.png","img2/300/Congruent/L/C_Dist_300_LN_12_LD_24_RN_2_RD_10_0.png","img2/200/Congruent/L/C_Dist_200_LN_12_LD_15_RN_6_RD_10_0.png","img2/200/Congruent/R/C_Dist_200_LN_7_LD_15_RN_18_RD_27_1.png","img2/300/Incongruent/L/I_Dist_300_LN_7_LD_10_RN_8_RD_20_0.png","img2/100/Congruent/R/C_Dist_100_LN_3_LD_20_RN_4_RD_16_1.png","img2/100/Congruent/R/C_Dist_100_LN_4_LD_10_RN_15_RD_30_1.png","img2/200/Incongruent/L/I_Dist_200_LN_7_LD_10_RN_8_RD_16_0.png","img2/200/Incongruent/R/I_Dist_200_LN_7_LD_15_RN_4_RD_6_1.png","img2/300/Incongruent/L/I_Dist_300_LN_1_LD_2_RN_3_RD_15_0.png","img2/100/Incongruent/R/I_Dist_100_LN_10_LD_25_RN_9_RD_18_1.png","img2/300/Incongruent/L/I_Dist_300_LN_4_LD_5_RN_6_RD_12_0.png","img2/200/Congruent/L/C_Dist_200_LN_8_LD_15_RN_3_RD_9_0.png","img2/300/Incongruent/L/I_Dist_300_LN_4_LD_5_RN_6_RD_12_0.png","img2/100/Congruent/R/C_Dist_100_LN_12_LD_30_RN_13_RD_26_1.png","img2/100/Congruent/L/C_Dist_100_LN_8_LD_16_RN_2_RD_5_0.png","img2/200/Incongruent/L/I_Dist_200_LN_1_LD_3_RN_2_RD_15_0.png","img2/200/Congruent/L/C_Dist_200_LN_14_LD_28_RN_6_RD_20_0.png","img2/100/Congruent/R/C_Dist_100_LN_2_LD_5_RN_11_RD_22_1.png","img2/300/Congruent/L/C_Dist_300_LN_8_LD_16_RN_1_RD_5_0.png","img2/200/Congruent/L/C_Dist_200_LN_12_LD_20_RN_6_RD_15_0.png","img2/300/Incongruent/L/I_Dist_300_LN_4_LD_5_RN_6_RD_12_0.png","img2/200/Incongruent/R/I_Dist_200_LN_7_LD_15_RN_6_RD_9_1.png","img2/300/Congruent/R/C_Dist_300_LN_1_LD_5_RN_3_RD_6_1.png","img2/200/Incongruent/L/I_Dist_200_LN_1_LD_2_RN_3_RD_10_0.png","img2/300/Incongruent/R/I_Dist_300_LN_13_LD_26_RN_12_RD_15_1.png","img2/300/Congruent/R/C_Dist_300_LN_1_LD_3_RN_19_RD_30_1.png","img2/300/Incongruent/L/I_Dist_300_LN_8_LD_10_RN_14_RD_28_0.png","img2/200/Incongruent/L/I_Dist_200_LN_7_LD_10_RN_14_RD_28_0.png","img2/100/Incongruent/R/I_Dist_100_LN_8_LD_20_RN_1_RD_2_1.png","img2/200/Incongruent/L/I_Dist_200_LN_7_LD_10_RN_8_RD_16_0.png","img2/300/Incongruent/R/I_Dist_300_LN_13_LD_26_RN_12_RD_15_1.png","img2/200/Incongruent/R/I_Dist_200_LN_7_LD_15_RN_4_RD_6_1.png","img2/100/Incongruent/L/I_Dist_100_LN_9_LD_15_RN_14_RD_28_0.png","img2/200/Congruent/L/C_Dist_200_LN_16_LD_30_RN_9_RD_27_0.png","img2/100/Incongruent/L/I_Dist_100_LN_9_LD_15_RN_14_RD_28_0.png","img2/200/Congruent/L/C_Dist_200_LN_16_LD_30_RN_9_RD_27_0.png","img2/200/Congruent/L/C_Dist_200_LN_8_LD_15_RN_2_RD_6_0.png","img2/100/Congruent/R/C_Dist_100_LN_7_LD_14_RN_9_RD_15_1.png","img2/300/Incongruent/R/I_Dist_300_LN_13_LD_26_RN_12_RD_15_1.png"],"dist100_C":[["C_Dist_100_LN_10_LD_25_RN_3_RD_10_0.png","C_Dist_100_LN_11_LD_22_RN_4_RD_10_0.png","C_Dist_100_LN_11_LD_22_RN_6_RD_15_0.png","C_Dist_100_LN_15_LD_25_RN_13_RD_26_0.png","C_Dist_100_LN_3_LD_6_RN_2_RD_5_0.png","C_Dist_100_LN_6_LD_20_RN_5_RD_25_0.png","C_Dist_100_LN_8_LD_16_RN_2_RD_5_0.png","C_Dist_100_LN_9_LD_15_RN_8_RD_16_0.png"],["C_Dist_100_LN_1_LD_2_RN_18_RD_30_1.png","C_Dist_100_LN_1_LD_2_RN_3_RD_5_1.png","C_Dist_100_LN_12_LD_30_RN_13_RD_26_1.png","C_Dist_100_LN_2_LD_5_RN_11_RD_22_1.png","C_Dist_100_LN_2_LD_5_RN_6_RD_12_1.png","C_Dist_100_LN_3_LD_20_RN_4_RD_16_1.png","C_Dist_100_LN_4_LD_10_RN_15_RD_30_1.png","C_Dist_100_LN_4_LD_8_RN_6_RD_10_1.png","C_Dist_100_LN_6_LD_12_RN_15_RD_25_1.png","C_Dist_100_LN_7_LD_14_RN_15_RD_25_1.png","C_Dist_100_LN_7_LD_14_RN_9_RD_15_1.png"]],"dist100_I":[["I_Dist_100_LN_1_LD_2_RN_8_RD_20_0.png","I_Dist_100_LN_2_LD_4_RN_6_RD_15_0.png","I_Dist_100_LN_2_LD_4_RN_8_RD_20_0.png","I_Dist_100_LN_3_LD_5_RN_11_RD_22_0.png","I_Dist_100_LN_3_LD_5_RN_8_RD_16_0.png","I_Dist_100_LN_3_LD_6_RN_4_RD_10_0.png","I_Dist_100_LN_3_LD_9_RN_7_RD_30_0.png","I_Dist_100_LN_4_LD_8_RN_8_RD_20_0.png","I_Dist_100_LN_6_LD_10_RN_11_RD_22_0.png","I_Dist_100_LN_6_LD_10_RN_13_RD_26_0.png","I_Dist_100_LN_6_LD_10_RN_7_RD_14_0.png","I_Dist_100_LN_9_LD_10_RN_20_RD_25_0.png","I_Dist_100_LN_9_LD_15_RN_13_RD_26_0.png","I_Dist_100_LN_9_LD_15_RN_14_RD_28_0.png"],["I_Dist_100_LN_10_LD_25_RN_8_RD_16_1.png","I_Dist_100_LN_10_LD_25_RN_9_RD_18_1.png","I_Dist_100_LN_11_LD_22_RN_9_RD_15_1.png","I_Dist_100_LN_12_LD_24_RN_9_RD_15_1.png","I_Dist_100_LN_12_LD_30_RN_2_RD_4_1.png","I_Dist_100_LN_13_LD_26_RN_12_RD_20_1.png","I_Dist_100_LN_13_LD_26_RN_6_RD_10_1.png","I_Dist_100_LN_17_LD_30_RN_10_RD_15_1.png","I_Dist_100_LN_6_LD_12_RN_3_RD_5_1.png","I_Dist_100_LN_8_LD_16_RN_6_RD_10_1.png","I_Dist_100_LN_8_LD_20_RN_1_RD_2_1.png","I_Dist_100_LN_9_LD_18_RN_6_RD_10_1.png"]],"dist100_S":[["E_Dist_100_LN_2_LD_12_RN_2_RD_30_0.png","E_Dist_100_LN_6_LD_10_RN_6_RD_12_0.png"],["E_Dist_100_LN_6_LD_12_RN_6_RD_10_1.png"]],"dist200_C":[["C_Dist_200_LN_11_LD_22_RN_3_RD_10_0.png","C_Dist_200_LN_12_LD_15_RN_6_RD_10_0.png","C_Dist_200_LN_12_LD_20_RN_6_RD_15_0.png","C_Dist_200_LN_14_LD_28_RN_6_RD_20_0.png","C_Dist_200_LN_15_LD_25_RN_4_RD_10_0.png","C_Dist_200_LN_16_LD_20_RN_12_RD_20_0.png","C_Dist_200_LN_16_LD_30_RN_9_RD_27_0.png","C_Dist_200_LN_20_LD_25_RN_9_RD_15_0.png","C_Dist_200_LN_21_LD_30_RN_2_RD_4_0.png","C_Dist_200_LN_4_LD_10_RN_3_RD_15_0.png","C_Dist_200_LN_4_LD_8_RN_3_RD_10_0.png","C_Dist_200_LN_6_LD_15_RN_3_RD_15_0.png","C_Dist_200_LN_7_LD_21_RN_2_RD_15_0.png","C_Dist_200_LN_8_LD_15_RN_2_RD_6_0.png","C_Dist_200_LN_8_LD_15_RN_3_RD_9_0.png","C_Dist_200_LN_8_LD_15_RN_7_RD_21_0.png","C_Dist_200_LN_9_LD_20_RN_4_RD_16_0.png"],["C_Dist_200_LN_1_LD_2_RN_21_RD_30_1.png","C_Dist_200_LN_13_LD_26_RN_14_RD_20_1.png","C_Dist_200_LN_3_LD_10_RN_11_RD_22_1.png","C_Dist_200_LN_3_LD_10_RN_14_RD_28_1.png","C_Dist_200_LN_3_LD_10_RN_7_RD_14_1.png","C_Dist_200_LN_3_LD_12_RN_9_RD_20_1.png","C_Dist_200_LN_3_LD_6_RN_14_RD_20_1.png","C_Dist_200_LN_5_LD_10_RN_14_RD_20_1.png","C_Dist_200_LN_6_LD_12_RN_7_RD_10_1.png","C_Dist_200_LN_6_LD_20_RN_11_RD_22_1.png","C_Dist_200_LN_7_LD_15_RN_18_RD_27_1.png","C_Dist_200_LN_9_LD_30_RN_13_RD_26_1.png"]],"dist200_I":[["I_Dist_200_LN_1_LD_2_RN_3_RD_10_0.png","I_Dist_200_LN_1_LD_3_RN_2_RD_15_0.png","I_Dist_200_LN_3_LD_4_RN_11_RD_20_0.png","I_Dist_200_LN_4_LD_5_RN_6_RD_10_0.png","I_Dist_200_LN_4_LD_6_RN_14_RD_30_0.png","I_Dist_200_LN_7_LD_10_RN_12_RD_24_0.png","I_Dist_200_LN_7_LD_10_RN_14_RD_28_0.png","I_Dist_200_LN_7_LD_10_RN_8_RD_16_0.png"],["I_Dist_200_LN_11_LD_20_RN_3_RD_4_1.png","I_Dist_200_LN_14_LD_30_RN_12_RD_18_1.png","I_Dist_200_LN_14_LD_30_RN_6_RD_9_1.png","I_Dist_200_LN_3_LD_10_RN_1_RD_2_1.png","I_Dist_200_LN_4_LD_30_RN_1_RD_3_1.png","I_Dist_200_LN_6_LD_20_RN_3_RD_6_1.png","I_Dist_200_LN_7_LD_15_RN_4_RD_6_1.png","I_Dist_200_LN_7_LD_15_RN_6_RD_9_1.png","I_Dist_200_LN_9_LD_15_RN_8_RD_10_1.png"]],"dist200_S":[["E_Dist_200_LN_3_LD_6_RN_3_RD_10_0.png"],["E_Dist_200_LN_3_LD_10_RN_3_RD_6_1.png"]],"dist300_C":[["C_Dist_300_LN_11_LD_22_RN_1_RD_5_0.png","C_Dist_300_LN_11_LD_22_RN_2_RD_10_0.png","C_Dist_300_LN_11_LD_22_RN_4_RD_20_0.png","C_Dist_300_LN_12_LD_24_RN_2_RD_10_0.png","C_Dist_300_LN_18_LD_20_RN_9_RD_15_0.png","C_Dist_300_LN_20_LD_25_RN_13_RD_26_0.png","C_Dist_300_LN_20_LD_25_RN_14_RD_28_0.png","C_Dist_300_LN_20_LD_25_RN_5_RD_10_0.png","C_Dist_300_LN_20_LD_25_RN_8_RD_16_0.png","C_Dist_300_LN_20_LD_25_RN_9_RD_18_0.png","C_Dist_300_LN_24_LD_30_RN_2_RD_4_0.png","C_Dist_300_LN_24_LD_30_RN_8_RD_16_0.png","C_Dist_300_LN_3_LD_6_RN_2_RD_10_0.png","C_Dist_300_LN_4_LD_10_RN_1_RD_10_0.png","C_Dist_300_LN_4_LD_5_RN_2_RD_4_0.png","C_Dist_300_LN_8_LD_16_RN_1_RD_5_0.png","C_Dist_300_LN_9_LD_10_RN_3_RD_5_0.png"],["C_Dist_300_LN_1_LD_20_RN_7_RD_20_1.png","C_Dist_300_LN_1_LD_3_RN_19_RD_30_1.png","C_Dist_300_LN_1_LD_30_RN_8_RD_24_1.png","C_Dist_300_LN_1_LD_5_RN_11_RD_22_1.png","C_Dist_300_LN_1_LD_5_RN_3_RD_6_1.png","C_Dist_300_LN_1_LD_5_RN_6_RD_12_1.png","C_Dist_300_LN_2_LD_10_RN_12_RD_24_1.png","C_Dist_300_LN_2_LD_20_RN_10_RD_25_1.png","C_Dist_300_LN_3_LD_12_RN_11_RD_20_1.png","C_Dist_300_LN_3_LD_6_RN_4_RD_5_1.png","C_Dist_300_LN_4_LD_20_RN_13_RD_26_1.png","C_Dist_300_LN_5_LD_25_RN_6_RD_12_1.png","C_Dist_300_LN_5_LD_25_RN_7_RD_14_1.png","C_Dist_300_LN_7_LD_14_RN_20_RD_25_1.png","C_Dist_300_LN_8_LD_15_RN_10_RD_12_1.png"]],"dist300_I":[["I_Dist_300_LN_1_LD_2_RN_2_RD_10_0.png","I_Dist_300_LN_1_LD_2_RN_3_RD_15_0.png","I_Dist_300_LN_2_LD_4_RN_6_RD_30_0.png","I_Dist_300_LN_3_LD_6_RN_4_RD_20_0.png","I_Dist_300_LN_4_LD_5_RN_6_RD_12_0.png","I_Dist_300_LN_4_LD_5_RN_8_RD_16_0.png","I_Dist_300_LN_7_LD_10_RN_8_RD_20_0.png","I_Dist_300_LN_8_LD_10_RN_14_RD_28_0.png","I_Dist_300_LN_8_LD_10_RN_9_RD_18_0.png"],["I_Dist_300_LN_13_LD_26_RN_12_RD_15_1.png","I_Dist_300_LN_4_LD_20_RN_2_RD_4_1.png"]],"dist300_S":[["E_Dist_300_LN_9_LD_12_RN_9_RD_20_0.png"],["E_Dist_300_LN_18_LD_30_RN_18_RD_20_1.png","E_Dist_300_LN_3_LD_10_RN_3_RD_5_1.png","E_Dist_300_LN_9_LD_20_RN_9_RD_12_1.png"]],"dist500_C":[["C_Dist_500_LN_10_LD_13_RN_7_RD_26_0.png","C_Dist_500_LN_10_LD_15_RN_4_RD_24_0.png","C_Dist_500_LN_12_LD_16_RN_3_RD_12_0.png","C_Dist_500_LN_12_LD_18_RN_4_RD_24_0.png","C_Dist_500_LN_15_LD_18_RN_5_RD_15_0.png","C_Dist_500_LN_15_LD_20_RN_1_RD_4_0.png","C_Dist_500_LN_18_LD_27_RN_1_RD_6_0.png","C_Dist_500_LN_20_LD_24_RN_1_RD_3_0.png","C_Dist_500_LN_20_LD_24_RN_3_RD_9_0.png","C_Dist_500_LN_20_LD_24_RN_7_RD_21_0.png","C_Dist_500_LN_20_LD_28_RN_3_RD_14_0.png","C_Dist_500_LN_21_LD_28_RN_6_RD_24_0.png","C_Dist_500_LN_22_LD_28_RN_2_RD_7_0.png","C_Dist_500_LN_25_LD_30_RN_9_RD_27_0.png","C_Dist_500_LN_4_LD_6_RN_1_RD_6_0.png","C_Dist_500_LN_5_LD_6_RN_2_RD_6_0.png","C_Dist_500_LN_6_LD_9_RN_1_RD_6_0.png","C_Dist_500_LN_7_LD_10_RN_1_RD_5_0.png","C_Dist_500_LN_8_LD_12_RN_1_RD_6_0.png","C_Dist_500_LN_8_LD_12_RN_4_RD_24_0.png"],["C_Dist_500_LN_1_LD_4_RN_12_RD_16_1.png","C_Dist_500_LN_1_LD_4_RN_9_RD_12_1.png","C_Dist_500_LN_1_LD_9_RN_11_RD_18_1.png","C_Dist_500_LN_10_LD_24_RN_22_RD_24_1.png","C_Dist_500_LN_2_LD_12_RN_10_RD_15_1.png","C_Dist_500_LN_2_LD_12_RN_12_RD_18_1.png","C_Dist_500_LN_2_LD_12_RN_4_RD_6_1.png","C_Dist_500_LN_2_LD_24_RN_7_RD_12_1.png","C_Dist_500_LN_2_LD_5_RN_18_RD_20_1.png","C_Dist_500_LN_2_LD_5_RN_9_RD_10_1.png","C_Dist_500_LN_2_LD_8_RN_12_RD_16_1.png","C_Dist_500_LN_2_LD_8_RN_21_RD_28_1.png","C_Dist_500_LN_3_LD_10_RN_4_RD_5_1.png","C_Dist_500_LN_3_LD_12_RN_15_RD_20_1.png","C_Dist_500_LN_3_LD_30_RN_6_RD_10_1.png","C_Dist_500_LN_3_LD_8_RN_14_RD_16_1.png","C_Dist_500_LN_4_LD_16_RN_15_RD_20_1.png","C_Dist_500_LN_4_LD_24_RN_12_RD_18_1.png","C_Dist_500_LN_5_LD_14_RN_6_RD_7_1.png","C_Dist_500_LN_7_LD_21_RN_20_RD_24_1.png","C_Dist_500_LN_7_LD_28_RN_12_RD_16_1.png","C_Dist_500_LN_7_LD_28_RN_9_RD_12_1.png","C_Dist_500_LN_9_LD_27_RN_20_RD_24_1.png"]],"dist500_I":[["I_Dist_500_LN_2_LD_3_RN_4_RD_24_0.png","I_Dist_500_LN_5_LD_6_RN_6_RD_18_0.png","I_Dist_500_LN_7_LD_8_RN_9_RD_24_0.png"],["I_Dist_500_LN_7_LD_21_RN_5_RD_6_1.png"]],"dist500_S":[["E_Dist_500_LN_6_LD_8_RN_6_RD_24_0.png"],["E_Dist_500_LN_2_LD_12_RN_2_RD_3_1.png","E_Dist_500_LN_6_LD_24_RN_6_RD_8_1.png"]]}},{"start_time":1552069190466,"click_time":1552069192273,"finger_time":1552069190478,"fix_duration":250,"trial":1,"RT":12,"MT":1795,"sideResp":2,"stimulus":[],"xmouse":[687,612,612,529,558,619,694,780,957,1039,1050,1066,1066,1048,1030,1010,981,950,895,864,857,840,836,833,833,833,833,833,832,830,829,826,825,824,824,824,824,824,824,824,824,823,821,821,821,821,821,831,856,877,901,922,947,957,958,960,962,963,974,977,978,978,979,989,993,996,998,1000,1001,1001,1001,1001,1002,1002,1002,1002,1002,1002,1003,1022,1023,1024,1030,1074,1099,1113,1124,1129,1130,1117,1106],"ymouse":[708,725,725,697,659,613,570,533,472,464,464,474,485,518,532,545,566,581,605,609,609,601,593,572,566,565,564,564,565,569,572,575,577,579,579,579,579,579,579,580,581,586,591,592,593,593,593,588,573,555,534,512,484,458,451,441,430,422,384,365,332,310,290,259,244,233,225,219,215,215,215,215,215,211,208,207,207,207,207,209,210,210,212,219,221,221,221,220,219,209,78],"timestamp_mouse":[12,37,48,68,87,107,127,148,167,187,207,227,247,268,288,307,327,348,366,387,407,427,447,467,487,507,527,548,568,588,608,628,647,668,688,707,728,748,767,788,808,827,847,868,888,908,928,948,967,987,1008,1027,1047,1068,1086,1107,1127,1147,1167,1186,1208,1228,1248,1268,1286,1308,1327,1348,1368,1388,1407,1428,1447,1469,1486,1507,1527,1548,1566,1587,1608,1627,1647,1667,1686,1708,1727,1746,1769,1788,1806],"xSR":741.5,"ySR":573.95,"xT1":424.9,"yT1":0,"xT2":1058.1,"yT2":0,"toosoon":0,"cond_shown":"Congruent","ratio_trial":100,"L_num":8,"L_den":16,"R_num":2,"R_den":5,"correct_side":1,"subjID":"gabrielagonzalezcahaparro25","gender":"1","school":"4","age":"9"},{"start_time":1552069194232,"click_time":1552069203556,"finger_time":1552069203014,"fix_duration":537.8164943989398,"trial":2,"RT":8782,"MT":542,"sideResp":1,"stimulus":[],"xmouse":[787,787,787,787,787,787,787,787,787,787,787,787,787,787,787,787,787,787,787,787,787,787,787,787,787,787,787,787,787,787,787,787,787,787,787,787,787,787,787,787,787,787,787,787,787,787,787,787,787,787,787,787,787,787,787,787,787,787,787,787,787,787,787,787,787,787,787,787,787,787,787,787,787,787,787,787,787,787,787,787,787,787,787,787,787,787,787,787,787,787,787,787,787,787,787,787,787,787,787,787,787,787,787,787,787,787,787,787,787,787,787,787,787,787,787,787,787,787,787,787,787,787,787,787,787,787,787,787,787,787,787,787,787,787,787,787,787,787,787,787,787,787,787,787,787,787,787,787,787,787,787,787,787,787,787,787,787,787,787,787,787,787,787,787,787,787,787,787,787,787,787,787,787,787,787,787,787,787,787,787,787,787,787,787,787,787,787,787,787,787,787,787,787,787,787,787,787,787,787,787,787,787,787,787,787,787,787,787,787,787,787,787,787,787,787,787,787,787,787,787,787,787,787,787,787,787,787,787,787,787,787,787,787,787,787,787,787,787,787,787,787,787,787,787,787,787,787,787,787,787,787,787,787,787,787,787,787,787,787,787,787,787,787,787,787,787,787,787,787,787,787,787,787,787,787,787,787,787,787,787,787,787,787,787,787,787,787,787,787,787,787,787,787,787,787,787,787,787,787,787,787,787,787,787,787,787,787,787,787,787,787,787,787,787,787,787,787,787,787,787,787,787,787,787,787,787,787,787,787,787,787,787,787,787,787,787,787,787,787,787,787,787,787,787,787,787,787,787,787,787,787,787,787,787,787,787,787,787,787,787,787,787,787,787,787,787,787,787,787,787,787,787,787,787,787,787,787,787,787,787,787,787,787,787,787,787,787,787,787,787,787,787,787,787,787,787,787,787,787,787,787,787,787,787,787,787,787,787,787,783,773,766,766,766,766,766,766,766,766,766,766,766,766,766,766,766,766,766,765,764,761,760,760,761,762,764,766,768,768,769,770,774,776,778,782,785,787,785,782,781,780,780,784,785,785,784,777,768,759,742,709,665,570,541,524,512,497],"ymouse":[612,612,612,612,612,612,612,612,612,612,612,612,612,612,612,612,612,612,612,612,612,612,612,612,612,612,612,612,612,612,612,612,612,612,612,612,612,612,612,612,612,612,612,612,612,612,612,612,612,612,612,612,612,612,612,612,612,612,612,612,612,612,612,612,612,612,612,612,612,612,612,612,612,612,612,612,612,612,612,612,612,612,612,612,612,612,612,612,612,612,612,612,612,612,612,612,612,612,612,612,612,612,612,612,612,612,612,612,612,612,612,612,612,612,612,612,612,612,612,612,612,612,612,612,612,612,612,612,612,612,612,612,612,612,612,612,612,612,612,612,612,612,612,612,612,612,612,612,612,612,612,612,612,612,612,612,612,612,612,612,612,612,612,612,612,612,612,612,612,612,612,612,612,612,612,612,612,612,612,612,612,612,612,612,612,612,612,612,612,612,612,612,612,612,612,612,612,612,612,612,612,612,612,612,612,612,612,612,612,612,612,612,612,612,612,612,612,612,612,612,612,612,612,612,612,612,612,612,612,612,612,612,612,612,612,612,612,612,612,612,612,612,612,612,612,612,612,612,612,612,612,612,612,612,612,612,612,612,612,612,612,612,612,612,612,612,612,612,612,612,612,612,612,612,612,612,612,612,612,612,612,612,612,612,612,612,612,612,612,612,612,612,612,612,612,612,612,612,612,612,612,612,612,612,612,612,612,612,612,612,612,612,612,612,612,612,612,612,612,612,612,612,612,612,612,612,612,612,612,612,612,612,612,612,612,612,612,612,612,612,612,612,612,612,612,612,612,612,612,612,612,612,612,612,612,612,612,612,612,612,612,612,612,612,612,612,612,612,612,612,612,612,612,612,612,612,612,612,612,612,612,612,612,612,612,612,612,612,612,612,612,612,612,612,612,612,612,612,612,612,612,612,612,612,612,612,612,612,612,613,613,613,613,613,613,613,613,613,613,613,613,613,613,613,613,613,613,613,609,604,600,600,599,597,595,593,586,580,576,571,566,556,552,546,536,524,497,479,466,455,442,424,374,332,296,268,219,188,180,177,177,177,173,162,149,134,93],"timestamp_mouse":[11,33,41,61,82,102,122,142,161,182,201,222,241,261,281,302,321,342,361,382,401,421,441,461,481,501,521,542,561,581,601,622,641,662,681,702,721,742,762,782,802,822,842,862,882,902,921,942,960,982,1001,1021,1042,1061,1082,1101,1121,1140,1160,1182,1202,1221,1242,1262,1282,1302,1321,1342,1362,1382,1401,1422,1441,1462,1481,1501,1521,1541,1562,1582,1601,1621,1641,1661,1682,1702,1722,1742,1762,1782,1802,1820,1841,1862,1881,1902,1922,1941,1962,1980,2001,2022,2041,2062,2082,2102,2121,2142,2162,2182,2202,2222,2242,2262,2282,2300,2321,2342,2362,2381,2402,2422,2441,2462,2481,2501,2521,2541,2561,2582,2602,2621,2641,2660,2682,2702,2722,2740,2761,2781,2802,2821,2842,2862,2882,2901,2922,2942,2962,2982,3001,3021,3042,3062,3082,3102,3121,3142,3161,3182,3201,3220,3241,3262,3281,3302,3320,3342,3362,3381,3401,3421,3441,3461,3482,3501,3522,3542,3561,3582,3602,3620,3641,3661,3682,3702,3721,3741,3762,3782,3801,3821,3842,3862,3881,3902,3922,3941,3962,3980,4002,4021,4042,4062,4082,4101,4122,4142,4161,4182,4201,4222,4241,4262,4281,4302,4321,4341,4361,4381,4402,4421,4442,4462,4481,4502,4521,4542,4561,4582,4602,4622,4640,4662,4682,4702,4722,4741,4762,4782,4802,4821,4842,4862,4881,4902,4921,4940,4961,4982,5002,5020,5042,5061,5082,5102,5122,5142,5162,5181,5202,5221,5241,5261,5281,5302,5322,5342,5361,5381,5402,5422,5440,5462,5482,5501,5522,5542,5561,5582,5602,5622,5641,5661,5683,5702,5721,5741,5761,5782,5801,5821,5842,5861,5881,5902,5921,5942,5962,5982,6000,6021,6042,6061,6082,6102,6122,6142,6161,6181,6202,6221,6240,6261,6281,6302,6320,6342,6361,6381,6400,6422,6442,6461,6481,6501,6522,6542,6561,6582,6601,6622,6642,6662,6681,6701,6722,6742,6762,6782,6802,6822,6842,6861,6881,6902,6921,6941,6961,6981,7001,7022,7042,7061,7082,7101,7122,7142,7162,7182,7203,7222,7242,7262,7281,7302,7321,7342,7362,7381,7402,7421,7442,7462,7481,7502,7522,7542,7562,7581,7601,7622,7642,7662,7680,7701,7721,7742,7762,7781,7800,7820,7840,7862,7881,7902,7920,7942,7962,7980,8000,8022,8042,8062,8082,8102,8121,8142,8161,8182,8202,8221,8242,8262,8282,8301,8322,8342,8361,8382,8402,8420,8442,8462,8481,8502,8522,8542,8561,8581,8602,8622,8642,8661,8682,8701,8722,8742,8762,8782,8801,8822,8841,8861,8882,8901,8922,8941,8963,8982,9001,9022,9042,9062,9082,9101,9122,9141,9161,9181,9202,9221,9242,9261,9282,9301,9323],"xSR":741.5,"ySR":573.95,"xT1":424.9,"yT1":0,"xT2":1058.1,"yT2":0,"toosoon":0,"cond_shown":"Incongruent","ratio_trial":100,"L_num":8,"L_den":16,"R_num":6,"R_den":10,"correct_side":2,"subjID":"gabrielagonzalezcahaparro25","gender":"1","school":"4","age":"9"},{"start_time":1552069209885,"click_time":1552069213595,"finger_time":1552069212814,"fix_duration":1370.5150791966926,"trial":3,"RT":2929,"MT":781,"sideResp":2,"stimulus":[],"xmouse":[788,788,788,788,788,788,788,788,788,788,788,788,788,788,788,788,788,788,788,788,788,788,788,788,788,788,788,788,788,788,788,788,788,788,788,788,788,788,788,788,788,788,788,788,788,788,788,788,788,788,788,788,788,788,788,788,788,788,788,788,788,788,788,788,788,788,788,788,788,788,788,788,788,788,788,788,788,788,788,788,788,788,788,788,788,788,788,788,788,788,788,788,788,788,788,788,788,788,788,788,788,788,788,788,788,788,788,788,788,788,788,788,788,788,788,788,788,788,788,788,788,788,788,788,788,788,788,788,788,788,788,788,788,788,788,788,788,788,788,788,788,788,792,798,803,826,837,849,873,916,997,1024,1043,1060,1073,1082,1084,1084,1084,1084,1092,1097,1102,1104,1106,1113,1121,1127,1129,1129,1129,1129,1129,1129,1129,1129,1129,1129,1129,1128,1123,1123,1123,1122,1123,1127],"ymouse":[606,606,606,606,606,606,606,606,606,606,606,606,606,606,606,606,606,606,606,606,606,606,606,606,606,606,606,606,606,606,606,606,606,606,606,606,606,606,606,606,606,606,606,606,606,606,606,606,606,606,606,606,606,606,606,606,606,606,606,606,606,606,606,606,606,606,606,606,606,606,606,606,606,606,606,606,606,606,606,606,606,606,606,606,606,606,606,606,606,606,606,606,606,606,606,606,606,606,606,606,606,606,606,606,606,606,606,606,606,606,606,606,606,606,606,606,606,606,606,606,606,606,606,606,606,606,606,606,606,606,606,606,606,606,606,606,606,606,606,606,606,606,607,603,597,574,564,553,536,509,447,402,361,318,282,237,225,223,223,223,218,214,210,207,204,192,178,164,154,149,149,149,149,148,146,135,124,114,109,106,106,106,106,106,101,90],"timestamp_mouse":[18,42,48,68,88,109,128,149,169,189,207,229,249,269,287,309,328,349,368,388,408,429,447,468,489,509,528,548,568,589,609,627,647,669,688,708,728,749,768,789,808,829,849,868,889,909,927,948,968,989,1009,1028,1047,1068,1089,1109,1129,1148,1168,1188,1209,1229,1248,1269,1289,1309,1328,1349,1368,1388,1408,1429,1449,1468,1489,1508,1529,1549,1568,1588,1608,1629,1649,1669,1688,1708,1729,1747,1769,1788,1808,1829,1849,1868,1887,1909,1929,1949,1968,1988,2009,2028,2048,2067,2088,2108,2129,2149,2168,2189,2208,2228,2249,2269,2289,2309,2328,2349,2367,2389,2408,2429,2448,2468,2489,2508,2529,2549,2568,2589,2609,2629,2649,2669,2687,2708,2729,2748,2769,2789,2809,2829,2849,2869,2888,2909,2929,2947,2969,2988,3008,3029,3048,3068,3087,3109,3129,3149,3168,3189,3209,3229,3249,3269,3288,3308,3329,3348,3369,3389,3408,3429,3448,3469,3488,3509,3529,3548,3568,3588,3608,3629,3649,3669,3689,3709],"xSR":741.5,"ySR":573.95,"xT1":424.9,"yT1":0,"xT2":1058.1,"yT2":0,"toosoon":0,"cond_shown":"Incongruent","ratio_trial":200,"L_num":1,"L_den":3,"R_num":2,"R_den":15,"correct_side":1,"subjID":"gabrielagonzalezcahaparro25","gender":"1","school":"4","age":"9"},{"start_time":1552069218083,"click_time":1552069220893,"finger_time":1552069220594,"fix_duration":1069.350642028678,"trial":4,"RT":2511,"MT":299,"sideResp":1,"stimulus":[],"xmouse":[787,787,787,787,787,787,787,787,787,787,787,787,787,787,787,787,787,787,787,787,787,787,787,787,787,787,787,787,787,787,787,787,787,787,787,787,787,787,787,787,787,787,787,787,787,787,787,787,787,787,787,787,787,787,787,787,787,787,787,787,787,787,787,787,787,787,787,787,787,787,787,787,787,787,787,787,787,787,787,787,787,787,787,787,787,787,787,787,787,787,787,787,787,787,787,787,787,787,787,787,787,787,787,787,787,787,787,787,787,787,787,787,787,787,787,787,787,787,787,787,787,787,787,796,796,796,755,711,695,651,625,560,520,496,479,467,461,461,461,460,460],"ymouse":[635,635,635,635,635,635,635,635,635,635,635,635,635,635,635,635,635,635,635,635,635,635,635,635,635,635,635,635,635,635,635,635,635,635,635,635,635,635,635,635,635,635,635,635,635,635,635,635,635,635,635,635,635,635,635,635,635,635,635,635,635,635,635,635,635,635,635,635,635,635,635,635,635,635,635,635,635,635,635,635,635,635,635,635,635,635,635,635,635,635,635,635,635,635,635,635,635,635,635,635,635,635,635,635,635,635,635,635,635,635,635,635,635,635,635,635,635,635,635,635,635,635,635,613,575,480,264,105,51,0,0,0,0,0,0,0,0,0,0,0,1],"timestamp_mouse":[12,41,51,70,90,109,131,150,171,191,210,231,251,270,290,310,330,351,371,391,410,429,451,471,490,509,531,550,569,590,611,630,650,671,689,711,730,751,769,790,810,830,851,869,889,911,931,951,971,990,1010,1029,1051,1071,1091,1111,1131,1149,1170,1191,1210,1230,1250,1271,1291,1310,1331,1350,1371,1389,1411,1431,1451,1471,1490,1510,1530,1551,1571,1591,1610,1631,1651,1669,1691,1710,1731,1750,1771,1789,1810,1831,1849,1871,1891,1909,1931,1950,1970,1989,2011,2029,2051,2071,2091,2111,2131,2150,2170,2191,2210,2230,2250,2271,2291,2310,2330,2350,2371,2390,2411,2430,2451,2471,2491,2511,2531,2550,2570,2590,2611,2631,2650,2670,2690,2710,2731,2751,2770,2790,2810],"xSR":741.5,"ySR":573.95,"xT1":424.9,"yT1":0,"xT2":1058.1,"yT2":0,"toosoon":0,"cond_shown":"Congruent","ratio_trial":300,"L_num":11,"L_den":22,"R_num":4,"R_den":20,"correct_side":1,"subjID":"gabrielagonzalezcahaparro25","gender":"1","school":"4","age":"9"},{"start_time":1552069227174,"click_time":1552069228613,"finger_time":1552069228534,"fix_duration":1100.2506815702743,"trial":5,"RT":1360,"MT":79,"sideResp":2,"stimulus":[],"xmouse":[834,834,834,834,834,834,834,834,834,834,834,834,834,834,834,834,834,834,834,834,834,834,834,834,834,834,834,834,834,834,834,834,834,834,834,834,834,834,834,834,834,834,834,834,834,834,834,834,834,834,834,834,834,834,834,834,834,834,834,834,834,834,834,834,834,836,837,860,904,962,1021,1078],"ymouse":[630,630,630,630,630,630,630,630,630,630,630,630,630,630,630,630,630,630,630,630,630,630,630,630,630,630,630,630,630,630,630,630,630,630,630,630,630,630,630,630,630,630,630,630,630,630,630,630,630,630,630,630,630,630,630,630,630,630,630,630,630,630,630,630,630,629,621,460,350,256,172,90],"timestamp_mouse":[19,38,60,79,99,119,139,160,179,199,220,240,259,279,300,318,339,360,378,399,420,438,459,480,499,520,540,560,579,599,619,640,659,678,700,720,740,760,779,799,820,839,860,878,899,920,940,959,979,999,1019,1039,1060,1079,1100,1120,1140,1160,1180,1200,1220,1240,1260,1280,1299,1320,1340,1360,1379,1399,1419,1439],"xSR":741.5,"ySR":573.95,"xT1":424.9,"yT1":0,"xT2":1058.1,"yT2":0,"toosoon":0,"cond_shown":"Congruent","ratio_trial":300,"L_num":1,"L_den":5,"R_num":6,"R_den":12,"correct_side":2,"subjID":"gabrielagonzalezcahaparro25","gender":"1","school":"4","age":"9"},{"start_time":1552069230468,"click_time":1552069232354,"finger_time":1552069231333,"fix_duration":432.1346679901883,"trial":6,"RT":865,"MT":1021,"sideResp":1,"stimulus":[],"xmouse":[804,804,804,804,804,804,804,804,804,804,804,804,804,804,804,804,804,804,804,804,804,804,804,804,804,804,804,804,804,804,804,804,804,804,804,804,804,804,805,807,807,807,781,586,453,333,226,151,90,87,89,95,97,101,101,101,101,101,101,101,102,107,118,132,139,144,150,156,167,173,184,199,221,261,291,326,357,376,391,392,392,392,392,392,392,392,392,392,393,396,403,406,413,423,428],"ymouse":[639,639,639,639,639,639,639,639,639,639,639,639,639,639,639,639,639,639,639,639,639,639,639,639,639,639,639,639,639,639,639,639,639,639,639,639,639,639,639,638,638,638,605,458,387,318,236,160,40,0,0,0,0,0,0,0,0,0,0,2,8,18,38,57,65,71,76,81,90,95,99,101,98,81,71,62,52,45,33,32,31,31,31,31,31,31,31,31,31,32,32,32,32,30,30],"timestamp_mouse":[10,29,45,65,86,105,127,146,165,186,205,226,246,266,285,305,325,346,367,387,406,425,445,466,486,505,526,545,565,586,605,626,645,665,686,705,726,745,766,787,805,826,845,865,887,905,925,945,965,985,1006,1026,1046,1066,1085,1105,1126,1148,1167,1185,1206,1226,1245,1267,1285,1306,1325,1346,1365,1385,1405,1426,1445,1466,1486,1505,1525,1545,1565,1586,1607,1625,1646,1665,1685,1706,1725,1746,1766,1786,1806,1825,1845,1866,1885],"xSR":741.5,"ySR":573.95,"xT1":424.9,"yT1":0,"xT2":1058.1,"yT2":0,"toosoon":0,"cond_shown":"Incongruent","ratio_trial":200,"L_num":14,"L_den":30,"R_num":6,"R_den":9,"correct_side":2,"subjID":"gabrielagonzalezcahaparro25","gender":"1","school":"4","age":"9"},{"start_time":1552069233905,"click_time":1552069235253,"finger_time":1552069234874,"fix_duration":250,"trial":7,"RT":969,"MT":379,"sideResp":2,"stimulus":[],"xmouse":[809,809,809,809,809,809,809,809,809,809,809,809,809,809,809,809,809,809,809,809,809,809,809,809,809,809,809,809,809,809,809,809,809,809,809,809,809,809,809,809,809,809,809,809,809,809,809,812,815,815,816,816,816,816,812,809,806,805,805,805,805,827,846,864,885,915,951,1060],"ymouse":[631,631,631,631,631,631,631,631,631,631,631,631,631,631,631,631,631,631,631,631,631,631,631,631,631,631,631,631,631,631,631,631,631,631,631,631,631,631,631,631,631,631,631,631,631,631,631,618,548,475,388,220,152,91,50,24,9,0,0,0,0,0,0,0,0,5,10,25],"timestamp_mouse":[11,33,49,68,88,108,129,148,169,189,208,228,248,269,288,308,329,348,368,388,408,429,448,470,488,509,529,548,570,588,609,629,649,668,690,709,728,748,768,788,809,830,849,870,889,909,929,949,969,989,1009,1030,1048,1068,1088,1108,1128,1148,1169,1189,1208,1228,1249,1269,1288,1308,1328,1348],"xSR":741.5,"ySR":573.95,"xT1":424.9,"yT1":0,"xT2":1058.1,"yT2":0,"toosoon":0,"cond_shown":"Congruent","ratio_trial":100,"L_num":10,"L_den":25,"R_num":3,"R_den":10,"correct_side":1,"subjID":"gabrielagonzalezcahaparro25","gender":"1","school":"4","age":"9"},{"start_time":1552069239524,"click_time":1552069242373,"finger_time":1552069241474,"fix_duration":1447.4964942574911,"trial":8,"RT":1950,"MT":899,"sideResp":1,"stimulus":[],"xmouse":[784,784,784,784,784,784,784,784,784,784,784,784,784,784,784,784,784,784,784,784,784,784,784,784,784,784,784,784,784,784,784,784,784,784,784,784,784,784,784,784,784,784,784,784,784,784,784,784,784,784,784,784,784,784,784,784,784,784,784,784,784,784,784,784,784,784,784,784,784,784,784,784,784,784,784,784,784,784,784,784,784,784,784,784,784,784,784,784,790,792,793,793,793,793,793,794,800,802,803,803,798,783,773,764,757,748,742,740,738,736,733,726,722,717,715,714,714,714,713,711,707,691,681,661,651,637,617,614,614,613,610,599,591,582,572,560,531,524,522,521,521,521,519],"ymouse":[604,604,604,604,604,604,604,604,604,604,604,604,604,604,604,604,604,604,604,604,604,604,604,604,604,604,604,604,604,604,604,604,604,604,604,604,604,604,604,604,604,604,604,604,604,604,604,604,604,604,604,604,604,604,604,604,604,604,604,604,604,604,604,604,604,604,604,604,604,604,604,604,604,604,604,604,604,604,604,604,604,604,604,604,604,604,604,604,607,609,609,609,609,609,609,609,585,564,540,515,484,431,410,393,375,355,339,335,330,325,318,304,297,292,292,291,291,290,288,286,282,270,262,250,243,236,224,220,218,213,205,186,175,160,148,136,113,106,103,102,102,102,92],"timestamp_mouse":[10,31,50,70,91,110,130,149,171,190,210,229,249,270,290,311,330,350,369,389,409,430,450,470,490,510,529,550,571,590,609,630,649,670,690,710,730,750,770,789,809,829,849,869,889,909,929,949,970,990,1010,1030,1049,1070,1091,1110,1130,1149,1170,1190,1209,1230,1250,1269,1290,1311,1330,1349,1369,1389,1410,1430,1449,1470,1490,1509,1530,1549,1569,1590,1609,1629,1649,1669,1690,1710,1729,1749,1770,1789,1810,1830,1849,1871,1891,1909,1929,1950,1970,1990,2009,2031,2050,2069,2089,2109,2129,2149,2169,2190,2209,2230,2250,2269,2289,2309,2330,2349,2370,2390,2409,2429,2449,2469,2489,2510,2529,2550,2569,2589,2609,2629,2649,2669,2689,2709,2730,2749,2769,2790,2809,2830,2849],"xSR":741.5,"ySR":573.95,"xT1":424.9,"yT1":0,"xT2":1058.1,"yT2":0,"toosoon":0,"cond_shown":"Incongruent","ratio_trial":300,"L_num":4,"L_den":20,"R_num":2,"R_den":4,"correct_side":2,"subjID":"gabrielagonzalezcahaparro25","gender":"1","school":"4","age":"9"},{"start_time":1552069245989,"click_time":1552069247694,"finger_time":1552069247154,"fix_duration":1254.0395863537,"trial":9,"RT":1165,"MT":540,"sideResp":1,"stimulus":[],"xmouse":[794,794,794,794,794,794,794,794,794,794,794,794,794,794,794,794,794,794,794,794,794,794,794,794,794,794,794,794,794,794,794,794,794,794,794,794,794,794,794,794,794,794,794,794,794,794,794,794,794,794,794,794,794,794,794,795,795,795,795,768,761,755,749,742,729,721,713,707,699,668,653,643,628,593,572,561,559,559,558,558,558,557,557,554,535,521],"ymouse":[655,655,655,655,655,655,655,655,655,655,655,655,655,655,655,655,655,655,655,655,655,655,655,655,655,655,655,655,655,655,655,655,655,655,655,655,655,655,655,655,655,655,655,660,660,660,660,660,660,660,660,660,660,660,660,647,637,610,567,429,403,382,362,337,284,258,235,211,192,141,121,107,91,63,53,49,49,49,49,49,49,49,49,49,53,56],"timestamp_mouse":[11,33,44,64,85,104,125,145,165,184,205,225,244,264,286,304,325,345,366,384,404,425,444,465,485,505,524,544,564,585,605,625,645,665,686,704,725,744,766,784,804,825,845,865,884,904,926,945,965,985,1004,1024,1044,1064,1085,1105,1124,1145,1165,1185,1205,1225,1245,1265,1284,1304,1325,1346,1365,1384,1405,1424,1445,1465,1485,1504,1525,1544,1565,1584,1605,1624,1645,1664,1685,1705],"xSR":741.5,"ySR":573.95,"xT1":424.9,"yT1":0,"xT2":1058.1,"yT2":0,"toosoon":0,"cond_shown":"Congruent","ratio_trial":300,"L_num":1,"L_den":20,"R_num":7,"R_den":20,"correct_side":2,"subjID":"gabrielagonzalezcahaparro25","gender":"1","school":"4","age":"9"},{"start_time":1552069249186,"click_time":1552069284614,"finger_time":1552069283433,"fix_duration":511.94394444410284,"trial":10,"RT":34247,"MT":1181,"sideResp":2,"stimulus":[],"xmouse":[807,807,807,807,807,807,807,807,807,807,807,807,807,807,807,807,807,807,807,807,807,807,807,807,807,807,807,807,807,807,807,807,807,807,807,807,807,807,807,807,807,807,807,807,807,807,807,807,807,807,807,807,807,807,807,807,807,807,807,807,807,807,807,807,807,807,807,807,807,807,807,807,807,807,807,807,807,807,807,807,807,807,807,807,807,807,807,807,807,807,807,807,807,807,807,807,807,807,807,807,807,807,807,807,807,807,807,807,807,807,807,807,807,807,807,807,807,807,807,807,807,807,807,807,807,807,807,807,807,807,807,807,807,807,807,807,807,807,807,807,807,807,807,807,807,807,807,807,807,807,807,807,807,807,807,807,807,807,807,807,807,807,807,807,807,807,807,807,807,807,807,807,807,807,807,807,807,807,807,807,807,807,807,807,807,807,807,807,807,807,807,807,807,807,807,807,807,807,807,807,807,807,807,807,807,807,807,807,807,807,807,807,807,807,807,807,807,807,807,807,807,807,807,807,807,807,807,807,807,807,807,807,807,807,807,807,807,807,807,807,807,807,807,807,807,807,807,807,807,807,807,807,807,807,807,807,807,807,807,807,807,807,807,807,807,807,807,807,807,807,807,807,807,807,807,807,807,807,807,807,807,807,807,807,807,807,807,807,807,807,807,807,807,807,807,807,807,807,807,807,807,807,807,807,807,807,807,807,807,807,807,807,807,807,807,807,807,807,807,807,807,807,807,807,807,807,807,807,807,807,807,807,807,807,807,807,807,807,807,807,807,807,807,807,807,807,807,807,807,807,807,807,807,807,807,807,807,807,807,807,807,807,807,807,807,807,807,807,807,807,807,807,807,807,807,807,807,807,807,807,807,807,807,807,807,807,807,807,807,807,807,807,807,807,807,807,807,807,807,807,807,807,807,807,807,807,807,807,807,807,807,807,807,807,807,807,807,807,807,807,807,807,807,807,807,807,807,807,807,807,807,807,807,807,807,807,807,807,807,807,807,807,807,807,807,807,807,807,807,807,807,807,807,807,807,807,807,807,807,807,807,807,807,807,807,807,807,807,807,807,807,807,807,807,807,807,807,807,807,807,807,807,807,807,807,807,807,807,807,807,807,807,807,807,807,807,807,807,807,807,807,807,807,807,807,807,807,807,807,807,807,807,807,807,807,807,807,807,807,807,807,807,807,807,807,807,807,807,807,807,807,807,807,807,807,807,807,807,807,807,807,807,807,807,807,807,807,807,807,807,807,807,807,807,807,807,807,807,807,807,807,807,807,807,807,807,807,807,807,807,807,807,807,807,807,807,807,807,807,807,807,807,807,807,807,807,807,807,807,807,807,807,807,807,807,807,807,807,807,807,807,807,807,807,807,807,807,807,807,807,807,807,807,807,807,807,807,807,807,807,807,807,807,807,807,807,807,807,807,807,807,807,807,807,807,807,807,807,807,807,807,807,807,807,807,807,807,807,807,807,807,807,807,807,807,807,807,807,807,807,807,807,807,807,807,807,807,807,807,807,807,807,807,807,807,807,807,807,807,807,807,807,807,807,807,807,807,807,807,807,807,807,807,807,807,807,807,807,807,807,807,807,807,807,807,807,807,807,807,807,807,807,807,807,807,807,807,807,807,807,807,807,807,807,807,807,807,807,807,807,807,807,807,807,807,807,807,807,807,807,807,807,807,807,807,807,807,807,807,807,807,807,807,807,807,807,807,807,807,807,807,807,807,807,807,807,807,807,807,807,807,807,807,807,807,807,807,807,807,807,807,807,807,807,807,807,807,807,807,807,807,807,807,807,807,807,807,807,807,807,807,807,807,807,807,807,807,807,807,807,807,807,807,807,807,807,807,807,807,807,807,807,807,807,807,807,807,807,807,807,807,807,807,807,807,807,807,807,807,807,807,807,807,807,807,807,807,807,807,807,807,807,807,807,807,807,807,807,807,