[{"start_time":1552328179310,"click_time":1552328185754,"finger_time":1552328179320,"fix_duration":1151.6398324828256,"trial":0,"RT":10,"MT":6434,"sideResp":1,"stimulus":"img/250/randomdotsizeEA/L/5_Ratio_250_L_24_R_6.png","xmouse":[831,829,828,824,824,823,823,823,821,820,819,818,818,818,818,818,818,817,817,816,816,816,816,816,816,816,816,816,816,816,816,816,816,816,820,823,825,825,823,821,821,819,817,814,813,813,813,813,811,811,811,810,809,809,809,809,809,809,809,809,808,808,805,804,803,802,801,800,800,799,799,799,799,799,799,799,799,799,799,799,799,799,799,799,799,799,799,799,798,798,798,798,798,798,798,798,798,798,798,798,798,798,798,798,798,798,798,798,798,798,798,798,798,798,798,798,798,798,798,798,798,798,798,798,798,798,798,798,798,798,798,798,798,798,798,798,798,798,798,798,798,798,798,798,798,798,798,798,798,798,798,798,798,798,798,798,797,797,797,797,797,797,797,797,797,797,797,797,797,797,797,797,796,796,796,796,796,796,796,796,796,796,796,796,796,796,796,796,796,796,796,796,796,796,796,796,796,796,796,796,796,796,796,796,796,796,796,796,796,796,796,796,796,796,796,796,796,796,796,796,796,796,796,796,796,796,796,796,796,796,796,796,796,796,796,795,795,794,794,794,794,794,794,794,793,793,793,790,789,785,782,776,765,750,746,744,742,742,742,742,742,741,739,734,731,727,726,723,719,714,709,698,685,649,630,605,569,523,418,369,312,283,266,251,239,237,236,236,236,236,242,247,248,250,251,251,252,252,254,258,262,274,286,306,311,317,325,337,368,385,388,390,390,390,390,393,394,397,414,419,419,419,425],"ymouse":[504,504,503,502,502,502,502,502,502,502,502,502,502,502,502,502,502,502,502,502,502,502,502,502,502,502,502,502,502,502,502,502,502,502,504,506,509,511,516,520,521,523,530,562,602,633,662,684,697,697,697,697,697,693,692,691,691,691,690,687,683,681,673,670,668,666,663,657,653,651,648,645,643,643,643,643,643,643,643,643,643,643,643,643,643,643,641,640,637,637,637,637,637,637,637,637,637,637,637,637,637,637,637,637,637,637,637,637,637,637,637,637,637,637,637,637,637,637,637,637,637,637,637,637,637,637,637,637,637,637,637,637,637,637,637,637,637,637,637,637,637,637,637,637,637,637,637,637,637,637,637,637,637,637,637,637,635,635,635,635,635,635,635,635,635,635,635,635,635,635,635,634,634,631,631,630,630,630,630,630,630,630,630,630,630,630,630,630,630,630,630,630,630,630,630,630,630,630,630,630,630,630,630,630,630,630,630,630,630,630,630,630,630,630,630,630,630,630,630,630,630,630,630,630,630,630,630,630,630,630,630,630,630,629,629,629,629,629,629,629,629,629,629,629,629,629,629,629,628,625,620,613,597,579,574,571,570,570,570,570,570,568,567,562,560,557,556,554,549,545,540,526,512,481,466,447,422,392,325,291,246,223,201,177,125,96,66,38,0,0,0,0,0,0,0,0,1,1,5,13,17,24,27,30,30,30,30,31,31,31,31,31,31,31,31,31,31,31,31,32,32,32,32],"timestamp_mouse":[10,25,45,64,86,104,125,146,164,184,204,224,245,264,285,304,323,345,365,385,405,424,446,465,484,504,525,544,565,585,605,624,645,665,684,704,725,744,765,784,804,824,845,864,884,905,925,945,964,985,1004,1025,1045,1065,1085,1104,1125,1145,1165,1184,1205,1224,1245,1265,1284,1305,1325,1345,1365,1384,1404,1425,1445,1464,1485,1504,1525,1545,1564,1584,1605,1624,1645,1664,1684,1705,1725,1744,1765,1785,1805,1825,1844,1864,1885,1905,1924,1944,1965,1984,2005,2024,2043,2064,2085,2105,2124,2144,2164,2183,2204,2225,2243,2265,2285,2305,2325,2345,2364,2384,2404,2424,2445,2464,2485,2505,2524,2544,2565,2584,2604,2625,2645,2665,2685,2705,2725,2745,2765,2785,2805,2825,2844,2866,2885,2905,2925,2943,2965,2985,3005,3025,3045,3065,3084,3105,3125,3145,3165,3184,3204,3225,3244,3265,3284,3305,3325,3344,3364,3385,3405,3425,3445,3464,3485,3504,3525,3545,3564,3584,3605,3624,3645,3665,3685,3704,3725,3745,3764,3784,3805,3825,3845,3864,3884,3905,3925,3944,3965,3984,4005,4024,4044,4065,4084,4105,4125,4145,4163,4184,4204,4225,4245,4265,4285,4304,4324,4344,4364,4384,4404,4425,4444,4464,4484,4504,4524,4544,4564,4585,4605,4625,4645,4664,4684,4705,4724,4744,4764,4784,4805,4824,4845,4865,4884,4904,4925,4943,4964,4985,5004,5024,5045,5064,5085,5105,5123,5145,5165,5184,5205,5225,5245,5266,5285,5304,5324,5345,5365,5383,5404,5424,5445,5464,5485,5504,5525,5544,5563,5584,5605,5624,5645,5664,5685,5704,5724,5744,5765,5784,5805,5824,5845,5865,5883,5905,5925,5945,5966,5984,6005,6025,6044,6065,6084,6104,6124,6144,6164,6184,6204,6225,6244,6265,6285,6304,6325,6344,6364,6384,6404,6425,6444],"xSR":741.5,"ySR":469.95,"xT1":424.9,"yT1":0,"xT2":1058.1,"yT2":0,"toosoon":0,"cond_shown":"randomdotsizeEA","ratio_trial":250,"smaller_num":"6","larger_num":"24","correct_side":1,"subjID":"GabrielaMontealegre25","gender":"1","age":"8","school":"4","test":{"fix_dur":[250,1500],"timestim":300,"targets_dim":[100,100],"targets_relative_coord":[0.3,0.7],"size_stim":[880,420],"start_dim":[100,100],"size_start":[300,300],"size_fix":60,"samplingrate":20,"img_types":["equaldotsize","equaldotanddens","randomdotsizeEA"],"ratios":[250,500,750,900],"rep_conds":9,"nTrials":120,"trials_to_rest":500,"Trials_order":[110,65,46,86,8,57,119,50,42,32,114,44,1,84,97,60,105,115,47,74,64,18,75,40,69,104,49,92,5,16,79,45,116,93,72,48,7,26,99,94,28,66,68,51,12,67,80,59,109,0,4,85,39,11,19,61,54,83,102,90,33,34,29,96,95,101,6,30,62,17,56,41,13,70,20,111,117,71,27,2,88,87,9,24,113,25,77,112,3,43,58,78,73,98,76,15,22,10,82,89,103,106,100,81,36,31,107,38,108,21,63,55,53,118,14,52,23,91,37,35],"cond_shown":["randomdotsizeEA","randomdotsizeEA","equaldotanddens","randomdotsizeEA","randomdotsizeEA","equaldotsize","randomdotsizeEA","randomdotsizeEA","equaldotsize","randomdotsizeEA","equaldotsize","randomdotsizeEA","equaldotanddens","equaldotsize","equaldotanddens","equaldotsize","equaldotsize","equaldotanddens","randomdotsizeEA","randomdotsizeEA","equaldotanddens","equaldotsize","equaldotsize","equaldotanddens","equaldotsize","randomdotsizeEA","equaldotanddens","randomdotsizeEA","randomdotsizeEA","equaldotanddens","equaldotanddens","equaldotsize","randomdotsizeEA","equaldotsize","equaldotsize","equaldotsize","equaldotanddens","randomdotsizeEA","equaldotsize","equaldotanddens","equaldotanddens","equaldotsize","randomdotsizeEA","equaldotsize","equaldotsize","equaldotanddens","randomdotsizeEA","randomdotsizeEA","equaldotanddens","equaldotsize","equaldotanddens","equaldotanddens","equaldotsize","randomdotsizeEA","equaldotanddens","equaldotanddens","equaldotsize","randomdotsizeEA","equaldotsize","equaldotsize","equaldotsize","equaldotanddens","randomdotsizeEA","equaldotsize","randomdotsizeEA","randomdotsizeEA","equaldotsize","equaldotsize","randomdotsizeEA","randomdotsizeEA","randomdotsizeEA","randomdotsizeEA","equaldotanddens","equaldotanddens","randomdotsizeEA","equaldotsize","equaldotsize","randomdotsizeEA","equaldotsize","randomdotsizeEA","equaldotanddens","equaldotsize","equaldotsize","equaldotsize","randomdotsizeEA","equaldotanddens","randomdotsizeEA","equaldotanddens","equaldotsize","equaldotanddens","equaldotanddens","equaldotsize","equaldotanddens","randomdotsizeEA","equaldotanddens","equaldotsize","equaldotanddens","equaldotanddens","equaldotanddens","randomdotsizeEA","equaldotanddens","equaldotanddens","equaldotanddens","equaldotsize","equaldotsize","equaldotanddens","randomdotsizeEA","randomdotsizeEA","equaldotsize","equaldotsize","equaldotsize","equaldotanddens","randomdotsizeEA","equaldotanddens","randomdotsizeEA","equaldotanddens","randomdotsizeEA","equaldotanddens","equaldotanddens","randomdotsizeEA"],"ratio_trial":[250,500,900,250,750,900,900,250,750,750,750,750,250,250,250,250,900,750,900,250,500,750,500,500,900,750,250,750,500,500,750,900,750,900,250,250,750,250,500,900,500,750,750,500,250,750,750,900,250,250,500,250,500,900,750,250,750,900,750,750,900,900,500,250,900,500,750,750,250,500,750,500,250,900,750,500,900,900,500,250,500,500,900,250,500,250,500,500,500,750,900,750,250,250,500,500,900,900,900,500,750,900,500,900,250,750,900,250,250,900,500,750,500,900,250,500,900,750,250,900],"smaller_num":["6","5","18","2","15","18","18","2","15","18","15","6","3","3","2","2","18","15","9","6","5","12","4","5","18","3","3","15","2","2","3","18","18","18","1","4","3","2","2","18","1","3","6","6","3","18","15","18","5","2","10","2","2","18","15","4","3","18","15","6","18","18","6","4","18","2","6","9","4","2","6","4","2","9","12","2","18","18","2","2","10","2","9","6","1","6","2","4","2","6","9","15","6","3","6","1","18","18","18","1","3","18","9","18","2","15","9","3","3","18","10","15","3","18","1","9","18","3","6","9"],"larger_num":["24","10","20","8","20","20","20","8","20","24","20","8","12","12","8","8","20","20","10","24","10","16","8","10","20","4","12","20","4","4","4","20","24","20","4","16","4","8","4","20","2","4","8","12","12","24","20","20","20","8","20","8","4","20","20","16","4","20","20","8","20","20","12","16","20","4","8","12","16","4","8","8","8","10","16","4","20","20","4","8","20","4","10","24","2","24","4","8","4","8","10","20","24","12","12","2","20","20","20","2","4","20","18","20","8","20","10","12","12","20","20","20","6","20","4","18","20","4","24","10"],"correct_side":[1,2,1,1,2,1,2,1,2,1,1,2,2,1,2,1,1,1,2,1,2,2,1,2,2,1,2,2,2,1,2,1,1,1,2,1,1,1,2,1,2,2,2,1,1,1,1,1,2,1,2,1,1,1,1,1,1,1,2,2,2,1,1,2,2,1,1,2,2,2,2,1,1,2,2,2,1,1,1,1,2,1,2,2,2,2,1,1,1,2,2,2,1,2,1,2,2,1,1,2,1,2,1,1,2,2,2,1,2,1,2,2,2,1,2,1,1,1,1,1],"img_shown":["img/250/randomdotsizeEA/L/5_Ratio_250_L_24_R_6.png","img/500/randomdotsizeEA/R/14_Ratio_500_L_5_R_10.png","img/900/equaldotanddens/L/8_Ratio_900_L_20_R_18.png","img/250/randomdotsizeEA/L/7_Ratio_250_L_8_R_2.png","img/750/randomdotsizeEA/R/4_Ratio_750_L_15_R_20.png","img/900/equaldotsize/L/8_Ratio_900_L_20_R_18.png","img/900/randomdotsizeEA/R/12_Ratio_900_L_18_R_20.png","img/250/randomdotsizeEA/L/3_Ratio_250_L_8_R_2.png","img/750/equaldotsize/R/3_Ratio_750_L_15_R_20.png","img/750/randomdotsizeEA/L/6_Ratio_750_L_24_R_18.png","img/750/equaldotsize/L/1_Ratio_750_L_20_R_15.png","img/750/randomdotsizeEA/R/2_Ratio_750_L_6_R_8.png","img/250/equaldotanddens/R/4_Ratio_250_L_3_R_12.png","img/250/equaldotsize/L/15_Ratio_250_L_12_R_3.png","img/250/equaldotanddens/R/13_Ratio_250_L_2_R_8.png","img/250/equaldotsize/L/1_Ratio_250_L_8_R_2.png","img/900/equaldotsize/L/8_Ratio_900_L_20_R_18.png","img/750/equaldotanddens/L/1_Ratio_750_L_20_R_15.png","img/900/randomdotsizeEA/R/15_Ratio_900_L_9_R_10.png","img/250/randomdotsizeEA/L/5_Ratio_250_L_24_R_6.png","img/500/equaldotanddens/R/14_Ratio_500_L_5_R_10.png","img/750/equaldotsize/R/11_Ratio_750_L_12_R_16.png","img/500/equaldotsize/L/8_Ratio_500_L_8_R_4.png","img/500/equaldotanddens/R/14_Ratio_500_L_5_R_10.png","img/900/equaldotsize/R/13_Ratio_900_L_18_R_20.png","img/750/randomdotsizeEA/L/8_Ratio_750_L_4_R_3.png","img/250/equaldotanddens/R/11_Ratio_250_L_3_R_12.png","img/750/randomdotsizeEA/R/5_Ratio_750_L_15_R_20.png","img/500/randomdotsizeEA/R/9_Ratio_500_L_2_R_4.png","img/500/equaldotanddens/L/5_Ratio_500_L_4_R_2.png","img/750/equaldotanddens/R/12_Ratio_750_L_3_R_4.png","img/900/equaldotsize/L/8_Ratio_900_L_20_R_18.png","img/750/randomdotsizeEA/L/6_Ratio_750_L_24_R_18.png","img/900/equaldotsize/L/8_Ratio_900_L_20_R_18.png","img/250/equaldotsize/R/8_Ratio_250_L_1_R_4.png","img/250/equaldotsize/L/2_Ratio_250_L_16_R_4.png","img/750/equaldotanddens/L/9_Ratio_750_L_4_R_3.png","img/250/randomdotsizeEA/L/7_Ratio_250_L_8_R_2.png","img/500/equaldotsize/R/9_Ratio_500_L_2_R_4.png","img/900/equaldotanddens/L/10_Ratio_900_L_20_R_18.png","img/500/equaldotanddens/R/15_Ratio_500_L_1_R_2.png","img/750/equaldotsize/R/12_Ratio_750_L_3_R_4.png","img/750/randomdotsizeEA/R/2_Ratio_750_L_6_R_8.png","img/500/equaldotsize/L/11_Ratio_500_L_12_R_6.png","img/250/equaldotsize/L/14_Ratio_250_L_12_R_3.png","img/750/equaldotanddens/L/6_Ratio_750_L_24_R_18.png","img/750/randomdotsizeEA/L/1_Ratio_750_L_20_R_15.png","img/900/randomdotsizeEA/L/10_Ratio_900_L_20_R_18.png","img/250/equaldotanddens/R/12_Ratio_250_L_5_R_20.png","img/250/equaldotsize/L/3_Ratio_250_L_8_R_2.png","img/500/equaldotanddens/R/3_Ratio_500_L_10_R_20.png","img/250/equaldotanddens/L/1_Ratio_250_L_8_R_2.png","img/500/equaldotsize/L/10_Ratio_500_L_4_R_2.png","img/900/randomdotsizeEA/L/4_Ratio_900_L_20_R_18.png","img/750/equaldotanddens/L/1_Ratio_750_L_20_R_15.png","img/250/equaldotanddens/L/2_Ratio_250_L_16_R_4.png","img/750/equaldotsize/L/10_Ratio_750_L_4_R_3.png","img/900/randomdotsizeEA/L/4_Ratio_900_L_20_R_18.png","img/750/equaldotsize/R/3_Ratio_750_L_15_R_20.png","img/750/equaldotsize/R/2_Ratio_750_L_6_R_8.png","img/900/equaldotsize/R/14_Ratio_900_L_18_R_20.png","img/900/equaldotanddens/L/2_Ratio_900_L_20_R_18.png","img/500/randomdotsizeEA/L/11_Ratio_500_L_12_R_6.png","img/250/equaldotsize/R/10_Ratio_250_L_4_R_16.png","img/900/randomdotsizeEA/R/14_Ratio_900_L_18_R_20.png","img/500/randomdotsizeEA/L/10_Ratio_500_L_4_R_2.png","img/750/equaldotsize/L/13_Ratio_750_L_8_R_6.png","img/750/equaldotsize/R/15_Ratio_750_L_9_R_12.png","img/250/randomdotsizeEA/R/10_Ratio_250_L_4_R_16.png","img/500/randomdotsizeEA/R/9_Ratio_500_L_2_R_4.png","img/750/randomdotsizeEA/R/2_Ratio_750_L_6_R_8.png","img/500/randomdotsizeEA/L/8_Ratio_500_L_8_R_4.png","img/250/equaldotanddens/L/1_Ratio_250_L_8_R_2.png","img/900/equaldotanddens/R/5_Ratio_900_L_9_R_10.png","img/750/randomdotsizeEA/R/11_Ratio_750_L_12_R_16.png","img/500/equaldotsize/R/9_Ratio_500_L_2_R_4.png","img/900/equaldotsize/L/2_Ratio_900_L_20_R_18.png","img/900/randomdotsizeEA/L/8_Ratio_900_L_20_R_18.png","img/500/equaldotsize/L/10_Ratio_500_L_4_R_2.png","img/250/randomdotsizeEA/L/3_Ratio_250_L_8_R_2.png","img/500/equaldotanddens/R/3_Ratio_500_L_10_R_20.png","img/500/equaldotsize/L/10_Ratio_500_L_4_R_2.png","img/900/equaldotsize/R/6_Ratio_900_L_9_R_10.png","img/250/equaldotsize/R/6_Ratio_250_L_6_R_24.png","img/500/randomdotsizeEA/R/12_Ratio_500_L_1_R_2.png","img/250/equaldotanddens/R/6_Ratio_250_L_6_R_24.png","img/500/randomdotsizeEA/L/10_Ratio_500_L_4_R_2.png","img/500/equaldotanddens/L/8_Ratio_500_L_8_R_4.png","img/500/equaldotsize/L/5_Ratio_500_L_4_R_2.png","img/750/equaldotanddens/R/2_Ratio_750_L_6_R_8.png","img/900/equaldotanddens/R/3_Ratio_900_L_9_R_10.png","img/750/equaldotsize/R/4_Ratio_750_L_15_R_20.png","img/250/equaldotanddens/L/5_Ratio_250_L_24_R_6.png","img/250/randomdotsizeEA/R/11_Ratio_250_L_3_R_12.png","img/500/equaldotanddens/L/11_Ratio_500_L_12_R_6.png","img/500/equaldotsize/R/12_Ratio_500_L_1_R_2.png","img/900/equaldotanddens/R/14_Ratio_900_L_18_R_20.png","img/900/equaldotanddens/L/4_Ratio_900_L_20_R_18.png","img/900/equaldotanddens/L/8_Ratio_900_L_20_R_18.png","img/500/randomdotsizeEA/R/15_Ratio_500_L_1_R_2.png","img/750/equaldotanddens/L/8_Ratio_750_L_4_R_3.png","img/900/equaldotanddens/R/12_Ratio_900_L_18_R_20.png","img/500/equaldotanddens/L/4_Ratio_500_L_18_R_9.png","img/900/equaldotsize/L/10_Ratio_900_L_20_R_18.png","img/250/equaldotsize/R/13_Ratio_250_L_2_R_8.png","img/750/equaldotanddens/R/4_Ratio_750_L_15_R_20.png","img/900/randomdotsizeEA/R/5_Ratio_900_L_9_R_10.png","img/250/randomdotsizeEA/L/15_Ratio_250_L_12_R_3.png","img/250/equaldotsize/R/9_Ratio_250_L_3_R_12.png","img/900/equaldotsize/L/2_Ratio_900_L_20_R_18.png","img/500/equaldotsize/R/3_Ratio_500_L_10_R_20.png","img/750/equaldotanddens/R/4_Ratio_750_L_15_R_20.png","img/500/randomdotsizeEA/R/2_Ratio_500_L_3_R_6.png","img/900/equaldotanddens/L/8_Ratio_900_L_20_R_18.png","img/250/randomdotsizeEA/R/8_Ratio_250_L_1_R_4.png","img/500/equaldotanddens/L/4_Ratio_500_L_18_R_9.png","img/900/randomdotsizeEA/L/2_Ratio_900_L_20_R_18.png","img/750/equaldotanddens/L/10_Ratio_750_L_4_R_3.png","img/250/equaldotanddens/L/5_Ratio_250_L_24_R_6.png","img/900/randomdotsizeEA/L/1_Ratio_900_L_10_R_9.png"],"Rat0":[["12_Ratio_0_L_9_R_0.png","13_Ratio_0_L_6_R_0.png","5_Ratio_0_L_2_R_0.png","6_Ratio_0_L_4_R_0.png","8_Ratio_0_L_6_R_0.png"],["1_Ratio_0_L_0_R_17.png","10_Ratio_0_L_0_R_22.png","11_Ratio_0_L_0_R_1.png","14_Ratio_0_L_0_R_24.png","15_Ratio_0_L_0_R_4.png","2_Ratio_0_L_0_R_5.png","3_Ratio_0_L_0_R_17.png","4_Ratio_0_L_0_R_7.png","7_Ratio_0_L_0_R_19.png","9_Ratio_0_L_0_R_15.png"]],"Rat250":[["1_Ratio_250_L_8_R_2.png","14_Ratio_250_L_12_R_3.png","15_Ratio_250_L_12_R_3.png","2_Ratio_250_L_16_R_4.png","3_Ratio_250_L_8_R_2.png","5_Ratio_250_L_24_R_6.png","7_Ratio_250_L_8_R_2.png"],["10_Ratio_250_L_4_R_16.png","11_Ratio_250_L_3_R_12.png","12_Ratio_250_L_5_R_20.png","13_Ratio_250_L_2_R_8.png","4_Ratio_250_L_3_R_12.png","6_Ratio_250_L_6_R_24.png","8_Ratio_250_L_1_R_4.png","9_Ratio_250_L_3_R_12.png"]],"Rat500":[["10_Ratio_500_L_4_R_2.png","11_Ratio_500_L_12_R_6.png","13_Ratio_500_L_12_R_6.png","4_Ratio_500_L_18_R_9.png","5_Ratio_500_L_4_R_2.png","7_Ratio_500_L_10_R_5.png","8_Ratio_500_L_8_R_4.png"],["1_Ratio_500_L_9_R_18.png","12_Ratio_500_L_1_R_2.png","14_Ratio_500_L_5_R_10.png","15_Ratio_500_L_1_R_2.png","2_Ratio_500_L_3_R_6.png","3_Ratio_500_L_10_R_20.png","6_Ratio_500_L_9_R_18.png","9_Ratio_500_L_2_R_4.png"]],"Rat750":[["1_Ratio_750_L_20_R_15.png","10_Ratio_750_L_4_R_3.png","13_Ratio_750_L_8_R_6.png","14_Ratio_750_L_8_R_6.png","6_Ratio_750_L_24_R_18.png","8_Ratio_750_L_4_R_3.png","9_Ratio_750_L_4_R_3.png"],["11_Ratio_750_L_12_R_16.png","12_Ratio_750_L_3_R_4.png","15_Ratio_750_L_9_R_12.png","2_Ratio_750_L_6_R_8.png","3_Ratio_750_L_15_R_20.png","4_Ratio_750_L_15_R_20.png","5_Ratio_750_L_15_R_20.png","7_Ratio_750_L_3_R_4.png"]],"Rat900":[["1_Ratio_900_L_10_R_9.png","10_Ratio_900_L_20_R_18.png","2_Ratio_900_L_20_R_18.png","4_Ratio_900_L_20_R_18.png","8_Ratio_900_L_20_R_18.png"],["11_Ratio_900_L_18_R_20.png","12_Ratio_900_L_18_R_20.png","13_Ratio_900_L_18_R_20.png","14_Ratio_900_L_18_R_20.png","15_Ratio_900_L_9_R_10.png","3_Ratio_900_L_9_R_10.png","5_Ratio_900_L_9_R_10.png","6_Ratio_900_L_9_R_10.png","7_Ratio_900_L_9_R_10.png","9_Ratio_900_L_18_R_20.png"]],"Rat1000":[["10_Ratio_1000_L_16_R_16.png","11_Ratio_1000_L_6_R_6.png","12_Ratio_1000_L_14_R_14.png","13_Ratio_1000_L_20_R_20.png","15_Ratio_1000_L_15_R_15.png","2_Ratio_1000_L_17_R_17.png","4_Ratio_1000_L_9_R_9.png","5_Ratio_1000_L_6_R_6.png","6_Ratio_1000_L_19_R_19.png","8_Ratio_1000_L_14_R_14.png","9_Ratio_1000_L_25_R_25.png"],["1_Ratio_1000_L_1_R_1.png","14_Ratio_1000_L_17_R_17.png","3_Ratio_1000_L_17_R_17.png","7_Ratio_1000_L_6_R_6.png"]]}},{"start_time":1552328188102,"click_time":1552328190655,"finger_time":1552328190294,"fix_duration":1004.3178334826579,"trial":1,"RT":2192,"MT":361,"sideResp":2,"stimulus":"img/500/randomdotsizeEA/R/14_Ratio_500_L_5_R_10.png","xmouse":[790,790,790,790,790,790,790,790,790,790,790,790,790,790,790,790,790,790,790,790,790,790,790,790,790,790,790,790,790,790,790,790,790,790,790,790,790,790,790,790,790,790,790,789,788,788,788,788,788,788,788,788,788,788,788,788,788,788,788,788,788,788,788,788,788,788,788,788,788,788,788,788,787,786,786,786,786,786,786,786,786,786,786,786,786,786,786,786,785,781,779,778,778,778,777,777,777,777,776,775,775,775,774,774,774,774,773,773,772,778,780,782,786,794,832,851,869,886,900,918,930,940,953,972,1017,1039,1054,1065],"ymouse":[610,610,610,610,610,610,610,610,610,610,610,610,610,610,610,610,610,610,610,610,610,610,610,610,610,610,610,610,610,610,610,610,610,610,610,610,610,610,610,610,610,610,610,610,610,610,610,610,610,610,610,610,610,610,610,610,610,610,610,610,610,610,610,610,610,610,610,610,610,610,610,610,610,609,609,609,608,608,608,608,608,608,608,608,608,608,608,607,606,602,601,600,600,598,598,598,598,597,596,595,595,594,594,594,593,593,591,589,581,556,535,508,478,448,357,315,275,237,200,167,153,141,127,108,69,51,39,30],"timestamp_mouse":[12,39,53,73,93,112,133,152,173,191,213,232,253,273,292,313,333,353,372,393,413,432,452,473,491,513,533,553,573,592,613,633,652,673,692,714,733,753,773,793,813,832,853,872,892,913,933,952,973,992,1013,1032,1053,1073,1092,1112,1132,1153,1173,1193,1213,1233,1252,1272,1292,1313,1332,1353,1372,1392,1413,1433,1452,1473,1492,1511,1533,1552,1573,1593,1613,1633,1653,1672,1692,1712,1732,1752,1773,1792,1813,1832,1853,1873,1893,1912,1932,1952,1973,1993,2012,2033,2053,2073,2092,2113,2133,2153,2172,2191,2212,2233,2252,2272,2292,2313,2332,2353,2373,2393,2412,2433,2453,2472,2492,2513,2532,2553],"xSR":741.5,"ySR":573.95,"xT1":424.9,"yT1":0,"xT2":1058.1,"yT2":0,"toosoon":0,"cond_shown":"randomdotsizeEA","ratio_trial":500,"smaller_num":"5","larger_num":"10","correct_side":2,"subjID":"GabrielaMontealegre25","gender":"1","age":"8","school":"4"},{"start_time":1552328193480,"click_time":1552328195336,"finger_time":1552328194915,"fix_duration":1384.5147217984543,"trial":2,"RT":1435,"MT":421,"sideResp":1,"stimulus":"img/900/equaldotanddens/L/8_Ratio_900_L_20_R_18.png","xmouse":[827,827,827,827,827,827,827,827,827,827,827,827,827,827,827,827,827,827,827,827,829,829,829,829,829,829,829,829,829,829,829,829,829,829,829,829,829,829,829,829,829,829,829,829,829,829,829,829,829,829,829,829,829,829,829,829,829,829,829,829,827,826,826,825,825,825,825,825,825,825,823,821,818,813,806,781,763,732,713,696,672,664,657,652,649,628,612,593,572,558,538,529,522],"ymouse":[611,611,611,611,611,611,611,611,611,611,611,611,611,611,611,611,611,611,611,611,611,611,611,611,611,611,611,611,611,611,611,611,611,611,611,611,611,611,611,611,611,611,611,611,611,611,611,611,611,611,611,611,611,611,610,608,605,600,598,593,587,585,584,583,583,583,583,583,583,583,576,568,557,543,529,494,480,460,450,442,429,422,411,399,380,294,251,224,189,163,118,93,81],"timestamp_mouse":[14,35,55,75,95,114,134,154,175,195,215,235,254,274,295,315,336,354,375,394,414,433,454,475,495,514,535,555,575,595,614,634,654,674,694,714,734,754,774,794,814,834,855,875,894,915,935,954,974,995,1015,1035,1055,1075,1095,1114,1134,1154,1174,1194,1214,1235,1255,1275,1295,1314,1335,1355,1374,1394,1414,1435,1454,1475,1494,1514,1534,1554,1574,1594,1614,1634,1655,1675,1694,1714,1734,1754,1774,1795,1814,1834,1855],"xSR":741.5,"ySR":573.95,"xT1":424.9,"yT1":0,"xT2":1058.1,"yT2":0,"toosoon":0,"cond_shown":"equaldotanddens","ratio_trial":900,"smaller_num":"18","larger_num":"20","correct_side":1,"subjID":"GabrielaMontealegre25","gender":"1","age":"8","school":"4"},{"start_time":1552328197868,"click_time":1552328200036,"finger_time":1552328199233,"fix_duration":1092.52703004338,"trial":3,"RT":1365,"MT":803,"sideResp":1,"stimulus":"img/250/randomdotsizeEA/L/7_Ratio_250_L_8_R_2.png","xmouse":[760,760,760,760,760,760,760,760,760,760,760,760,760,760,760,760,760,760,760,760,760,760,760,760,760,760,760,760,760,760,760,760,760,760,760,760,760,760,760,760,760,760,760,760,760,760,760,760,760,760,760,760,760,760,760,760,760,760,760,760,760,760,760,760,759,759,757,747,739,725,697,645,528,485,455,437,416,415,415,415,415,415,417,423,430,437,443,485,498,504,504,501,491,488,485,484,483,483,483,483,483,483,483,483,483,483,483,483,483],"ymouse":[628,628,628,628,628,628,628,628,628,628,628,628,628,628,628,628,628,628,628,628,628,628,628,628,628,628,628,628,628,628,628,628,628,628,628,628,628,628,628,628,628,628,628,628,628,628,628,628,628,628,628,628,628,628,628,628,628,628,628,628,628,628,628,628,625,623,620,601,590,573,549,512,430,395,374,358,331,326,325,324,324,324,319,315,309,303,295,226,196,175,165,146,122,116,112,108,106,106,106,106,106,106,106,106,106,106,106,101,92],"timestamp_mouse":[11,26,47,66,86,106,127,146,166,187,206,226,247,267,287,307,327,347,367,387,406,427,446,466,486,506,525,547,566,587,607,626,647,666,687,706,726,747,767,786,807,826,846,867,885,905,926,946,966,986,1006,1027,1046,1066,1086,1106,1125,1147,1167,1187,1206,1227,1246,1267,1287,1306,1327,1346,1365,1387,1406,1426,1446,1466,1486,1506,1534,1547,1566,1587,1607,1626,1648,1666,1686,1707,1726,1746,1767,1787,1806,1826,1846,1866,1887,1906,1926,1946,1966,1986,2006,2027,2046,2066,2087,2107,2126,2146,2167],"xSR":741.5,"ySR":573.95,"xT1":424.9,"yT1":0,"xT2":1058.1,"yT2":0,"toosoon":0,"cond_shown":"randomdotsizeEA","ratio_trial":250,"smaller_num":"2","larger_num":"8","correct_side":1,"subjID":"GabrielaMontealegre25","gender":"1","age":"8","school":"4"},{"start_time":1552328203561,"click_time":1552328205594,"finger_time":1552328204394,"fix_duration":564.3103494619379,"trial":4,"RT":833,"MT":1200,"sideResp":2,"stimulus":"img/750/randomdotsizeEA/R/4_Ratio_750_L_15_R_20.png","xmouse":[771,771,771,771,771,771,771,771,771,771,771,771,771,771,771,771,771,771,771,771,771,771,771,771,771,771,771,771,771,771,771,771,771,771,771,771,771,771,771,771,771,771,771,774,777,779,780,783,785,791,794,799,810,820,828,841,858,874,905,915,919,923,928,943,949,955,962,971,985,991,997,1004,1012,1024,1032,1041,1052,1055,1055,1055,1055,1056,1057,1057,1057,1057,1057,1057,1057,1057,1057,1057,1058,1058,1058,1058,1058,1058,1058,1058,1058,1059],"ymouse":[579,579,579,579,579,579,579,579,579,579,579,579,579,579,579,579,579,579,579,579,579,579,579,579,579,579,579,579,579,579,579,579,579,579,579,579,579,579,579,577,575,572,560,550,542,533,528,519,512,500,491,479,453,435,412,389,360,331,277,255,242,230,217,185,171,157,149,138,117,109,103,98,91,82,75,69,62,59,59,59,59,59,59,59,59,59,59,59,59,59,59,59,59,59,59,59,59,59,59,59,59,59],"timestamp_mouse":[13,33,53,73,93,114,133,154,174,193,213,233,254,273,293,314,333,352,374,393,414,433,454,474,493,513,534,554,573,593,614,633,653,674,693,714,733,753,774,793,813,833,854,873,894,913,933,955,973,995,1013,1033,1054,1073,1092,1113,1133,1153,1173,1194,1213,1233,1255,1274,1293,1313,1333,1353,1373,1394,1413,1433,1453,1474,1493,1514,1533,1554,1573,1593,1613,1634,1654,1673,1694,1713,1734,1754,1773,1793,1814,1834,1854,1874,1893,1912,1933,1954,1973,1993,2013,2033],"xSR":741.5,"ySR":573.95,"xT1":424.9,"yT1":0,"xT2":1058.1,"yT2":0,"toosoon":0,"cond_shown":"randomdotsizeEA","ratio_trial":750,"smaller_num":"15","larger_num":"20","correct_side":2,"subjID":"GabrielaMontealegre25","gender":"1","age":"8","school":"4"},{"start_time":1552328207654,"click_time":1552328210114,"finger_time":1552328208934,"fix_duration":817.8761635453142,"trial":5,"RT":1280,"MT":1180,"sideResp":2,"stimulus":"img/900/equaldotsize/L/8_Ratio_900_L_20_R_18.png","xmouse":[819,819,819,819,819,819,819,819,819,819,819,819,819,819,819,819,819,819,818,816,815,814,814,813,811,811,811,810,810,810,810,810,810,810,810,810,810,810,810,810,810,810,810,810,810,810,810,810,810,810,810,810,810,810,810,810,810,810,812,816,820,823,828,833,842,845,849,852,858,911,959,1007,1052,1099,1218,1312,1361,1398,1423,1439,1460,1460,1460,1460,1453,1448,1442,1436,1431,1423,1418,1409,1382,1357,1281,1228,1192,1176,1170,1169,1169,1169,1169,1169,1169,1169,1169,1169,1169,1169,1169,1169,1169,1168,1166,1164,1163,1162,1162,1162,1162,1161,1160,1155],"ymouse":[598,598,598,596,596,596,596,596,596,596,596,596,596,595,595,595,595,595,595,595,597,599,601,604,607,608,608,609,609,609,610,610,610,611,611,612,613,614,614,614,614,614,614,614,614,614,614,614,614,614,614,614,614,614,614,614,614,614,615,615,612,610,606,600,586,579,570,555,525,409,341,273,210,142,4,0,0,0,0,0,0,0,0,0,4,11,17,23,30,38,42,45,47,49,38,27,22,21,21,21,21,21,21,21,21,21,21,21,21,21,21,21,21,21,24,26,28,30,30,31,31,31,32,34],"timestamp_mouse":[8,33,41,60,81,101,121,141,161,180,199,219,241,260,281,300,321,340,361,380,401,421,440,460,480,500,521,541,560,581,600,620,641,660,681,700,721,741,760,781,801,821,840,859,881,900,921,941,960,981,1000,1020,1041,1061,1080,1100,1121,1141,1160,1180,1201,1220,1241,1260,1280,1301,1321,1340,1361,1382,1401,1420,1441,1461,1483,1499,1521,1541,1560,1582,1600,1621,1640,1661,1680,1701,1721,1740,1761,1780,1800,1820,1840,1860,1880,1900,1920,1940,1961,1980,2001,2020,2041,2061,2081,2100,2120,2141,2162,2181,2201,2221,2241,2260,2280,2302,2322,2341,2361,2381,2401,2422,2440,2460],"xSR":741.5,"ySR":573.95,"xT1":424.9,"yT1":0,"xT2":1058.1,"yT2":0,"toosoon":0,"cond_shown":"equaldotsize","ratio_trial":900,"smaller_num":"18","larger_num":"20","correct_side":1,"subjID":"GabrielaMontealegre25","gender":"1","age":"8","school":"4"},{"start_time":1552328215537,"click_time":1552328217215,"finger_time":1552328216456,"fix_duration":994.7133199650873,"trial":6,"RT":919,"MT":759,"sideResp":1,"stimulus":"img/900/randomdotsizeEA/R/12_Ratio_900_L_18_R_20.png","xmouse":[767,767,767,767,767,767,767,767,767,767,767,767,767,767,767,767,767,767,767,767,767,767,767,767,767,767,767,767,767,767,767,767,767,767,767,767,767,767,767,767,767,767,765,764,761,739,728,716,703,691,674,671,667,665,663,646,638,629,621,615,604,599,596,592,587,571,566,563,560,557,548,540,533,522,518,512,511,511,511,509,506,505,504,503],"ymouse":[604,604,604,604,604,604,604,604,604,604,604,604,604,604,604,604,604,604,604,604,604,604,604,604,604,604,604,604,604,604,604,604,604,604,604,604,604,604,604,604,604,604,603,603,602,594,588,580,571,562,549,546,543,541,537,515,495,472,450,428,385,366,345,326,308,271,260,251,245,240,230,220,212,199,190,172,161,151,140,130,113,105,100,98],"timestamp_mouse":[30,39,57,78,97,118,137,159,177,197,217,238,259,277,298,318,338,358,379,398,417,439,458,478,497,518,537,558,578,599,618,637,658,678,697,718,739,758,777,797,817,838,859,879,898,919,939,958,979,998,1018,1038,1058,1078,1098,1118,1139,1157,1179,1198,1217,1238,1257,1278,1298,1317,1338,1358,1378,1397,1417,1438,1458,1478,1499,1519,1539,1557,1578,1597,1618,1638,1659,1678],"xSR":741.5,"ySR":573.95,"xT1":424.9,"yT1":0,"xT2":1058.1,"yT2":0,"toosoon":0,"cond_shown":"randomdotsizeEA","ratio_trial":900,"smaller_num":"18","larger_num":"20","correct_side":2,"subjID":"GabrielaMontealegre25","gender":"1","age":"8","school":"4"},{"start_time":1552328222463,"click_time":1552328224056,"finger_time":1552328223595,"fix_duration":1366.2811937560632,"trial":7,"RT":1132,"MT":461,"sideResp":1,"stimulus":"img/250/randomdotsizeEA/L/3_Ratio_250_L_8_R_2.png","xmouse":[795,795,795,795,795,795,795,795,795,795,795,795,795,795,795,795,795,795,795,795,795,795,795,795,795,795,795,795,795,795,795,795,795,795,795,795,795,795,795,795,795,795,795,795,795,795,795,795,795,795,795,795,795,793,790,745,721,702,682,659,628,624,624,624,624,624,624,624,624,624,612,598,583,566,530,512,500,490,482,471],"ymouse":[654,654,654,654,654,654,654,654,654,654,654,654,654,654,654,654,654,654,654,654,654,654,654,654,654,654,654,654,654,654,654,654,654,654,654,654,654,654,654,654,654,654,654,654,654,654,654,654,654,654,654,654,654,646,640,583,560,534,510,483,442,428,420,415,411,408,407,405,400,391,356,337,311,284,224,179,150,126,104,67],"timestamp_mouse":[17,37,52,72,91,112,132,152,172,192,213,232,252,271,291,313,332,351,371,393,412,432,451,472,493,513,532,552,572,592,612,632,652,671,692,713,732,752,772,792,813,832,851,873,893,912,932,951,973,993,1011,1032,1053,1071,1092,1111,1132,1153,1171,1192,1213,1232,1253,1272,1291,1311,1332,1351,1372,1392,1412,1432,1453,1473,1493,1511,1531,1552,1571,1593],"xSR":741.5,"ySR":573.95,"xT1":424.9,"yT1":0,"xT2":1058.1,"yT2":0,"toosoon":0,"cond_shown":"randomdotsizeEA","ratio_trial":250,"smaller_num":"2","larger_num":"8","correct_side":1,"subjID":"GabrielaMontealegre25","gender":"1","age":"8","school":"4"},{"start_time":1552328226908,"click_time":1552328228494,"finger_time":1552328227775,"fix_duration":1011.4281577546052,"trial":8,"RT":867,"MT":719,"sideResp":2,"stimulus":"img/750/equaldotsize/R/3_Ratio_750_L_15_R_20.png","xmouse":[790,790,790,790,790,790,790,790,790,790,790,790,790,790,790,790,790,790,790,790,789,789,789,789,789,789,789,789,789,789,789,789,789,789,789,789,789,789,789,789,789,789,791,799,805,815,827,839,860,867,877,885,895,915,927,942,956,967,984,991,997,1005,1015,1030,1034,1037,1038,1039,1039,1039,1039,1039,1039,1039,1042,1045,1048,1049,1054,1060],"ymouse":[617,617,617,617,617,617,617,617,617,617,617,617,617,617,617,617,617,617,617,617,617,616,615,611,610,609,609,609,608,607,607,606,606,606,606,606,606,606,605,603,602,594,587,559,541,518,491,458,409,387,350,325,308,282,266,249,232,218,192,179,169,153,133,109,104,99,98,97,97,97,97,97,97,97,96,95,94,93,87,81],"timestamp_mouse":[10,29,46,68,87,107,127,148,166,186,208,226,247,266,287,306,326,346,366,388,407,428,446,466,487,508,528,548,566,587,607,628,646,666,686,707,727,747,766,786,807,827,848,867,886,907,928,947,968,986,1006,1027,1047,1066,1086,1106,1127,1147,1166,1186,1207,1228,1247,1267,1286,1307,1326,1346,1367,1388,1408,1427,1446,1466,1486,1506,1526,1546,1566,1586],"xSR":741.5,"ySR":573.95,"xT1":424.9,"yT1":0,"xT2":1058.1,"yT2":0,"toosoon":0,"cond_shown":"equaldotsize","ratio_trial":750,"smaller_num":"15","larger_num":"20","correct_side":2,"subjID":"GabrielaMontealegre25","gender":"1","age":"8","school":"4"},{"start_time":1552328230736,"click_time":1552328231895,"finger_time":1552328231555,"fix_duration":798.3870156669899,"trial":9,"RT":819,"MT":340,"sideResp":1,"stimulus":"img/750/randomdotsizeEA/L/6_Ratio_750_L_24_R_18.png","xmouse":[794,794,794,794,794,794,794,794,794,794,794,794,794,794,794,794,794,794,794,794,795,795,795,796,796,796,796,796,796,797,797,797,797,797,797,797,798,798,799,801,803,805,808,811,811,811,810,773,728,714,706,701,696,683,671,653,623,579,472],"ymouse":[603,603,603,603,603,603,603,603,603,603,603,603,603,603,603,603,603,603,603,602,602,602,601,600,600,600,600,600,600,599,599,599,599,597,597,597,596,596,591,587,582,573,563,542,534,524,513,455,394,369,354,335,317,276,252,219,182,140,63],"timestamp_mouse":[1,18,38,59,79,99,119,140,159,178,200,220,238,259,280,299,319,339,359,380,399,418,440,460,480,500,518,540,558,579,599,619,639,659,680,700,719,738,760,780,800,819,840,860,879,900,918,939,959,979,999,1020,1039,1059,1079,1100,1120,1141,1159],"xSR":741.5,"ySR":573.95,"xT1":424.9,"yT1":0,"xT2":1058.1,"yT2":0,"toosoon":0,"cond_shown":"randomdotsizeEA","ratio_trial":750,"smaller_num":"18","larger_num":"24","correct_side":1,"subjID":"GabrielaMontealegre25","gender":"1","age":"8","school":"4"},{"start_time":1552328234407,"click_time":1552328235876,"finger_time":1552328235194,"fix_duration":971.6764397749027,"trial":10,"RT":787,"MT":682,"sideResp":1,"stimulus":"img/750/equaldotsize/L/1_Ratio_750_L_20_R_15.png","xmouse":[758,758,758,758,758,758,758,758,758,758,758,758,758,758,758,758,758,758,758,758,758,758,758,758,758,758,758,758,758,758,758,758,758,757,756,754,751,748,742,735,727,719,710,695,673,656,642,623,606,566,550,538,530,525,523,523,523,522,522,522,520,519,515,510,509,512,512,512,512,512,512,512,508,502],"ymouse":[633,633,633,633,633,633,633,633,633,633,633,633,633,633,633,633,633,633,633,633,633,633,633,633,633,633,633,633,633,633,633,633,633,633,627,621,611,601,584,540,512,483,453,408,353,322,298,273,254,223,206,194,182,171,164,163,161,160,160,159,154,148,140,126,119,115,115,112,111,110,108,105,100,93],"timestamp_mouse":[10,32,48,67,87,109,128,147,168,189,207,227,248,267,287,308,327,349,369,388,409,428,449,467,488,507,529,548,568,587,607,629,649,668,687,709,728,749,767,787,809,828,848,869,888,909,927,948,968,988,1007,1028,1049,1068,1088,1109,1127,1147,1167,1188,1207,1229,1249,1268,1287,1309,1329,1349,1368,1387,1408,1428,1448,1469],"xSR":741.5,"ySR":573.95,"xT1":424.9,"yT1":0,"xT2":1058.1,"yT2":0,"toosoon":0,"cond_shown":"equaldotsize","ratio_trial":750,"smaller_num":"15","larger_num":"20","correct_side":1,"subjID":"GabrielaMontealegre25","gender":"1","age":"8","school":"4"},{"start_time":1552328237727,"click_time":1552328239736,"finger_time":1552328238616,"fix_duration":751.9609949736696,"trial":11,"RT":889,"MT":1120,"sideResp":1,"stimulus":"img/750/randomdotsizeEA/R/2_Ratio_750_L_6_R_8.png","xmouse":[777,777,777,777,777,777,777,777,777,777,777,777,777,777,777,777,777,777,777,777,777,777,777,777,777,777,777,777,777,777,777,777,777,777,777,777,777,776,773,770,766,762,758,748,740,734,717,706,681,669,655,641,628,579,543,453,384,318,306,274,272,272,272,272,274,275,275,277,280,287,291,297,302,307,318,321,324,328,340,344,349,353,361,380,389,392,392,392,392,392,392,393,393,395,397,397,397,400,418,424,425],"ymouse":[626,626,626,626,626,626,626,626,626,626,626,626,626,626,626,626,626,626,626,626,626,626,626,626,626,626,626,626,626,626,626,626,626,626,626,626,625,624,620,616,612,608,605,594,584,576,561,550,524,509,493,477,454,371,305,182,101,37,20,0,0,0,0,0,0,0,0,0,0,0,0,1,4,8,15,18,20,23,30,32,33,34,35,37,37,37,37,37,37,37,37,37,37,38,40,40,40,41,46,47,47],"timestamp_mouse":[17,40,49,67,89,109,127,147,167,189,209,227,247,269,287,307,329,347,367,388,408,428,449,467,488,508,528,549,569,589,609,628,648,668,689,708,728,748,769,789,809,828,847,868,889,909,927,947,968,987,1008,1029,1048,1068,1087,1108,1128,1148,1168,1188,1208,1228,1248,1268,1287,1307,1327,1347,1367,1388,1408,1427,1448,1467,1487,1508,1527,1548,1568,1587,1608,1627,1647,1669,1687,1709,1729,1748,1767,1788,1808,1828,1847,1868,1888,1909,1928,1947,1968,1988,2008],"xSR":741.5,"ySR":573.95,"xT1":424.9,"yT1":0,"xT2":1058.1,"yT2":0,"toosoon":0,"cond_shown":"randomdotsizeEA","ratio_trial":750,"smaller_num":"6","larger_num":"8","correct_side":2,"subjID":"GabrielaMontealegre25","gender":"1","age":"8","school":"4"},{"start_time":1552328244787,"click_time":1552328246415,"finger_time":1552328245795,"fix_duration":1170.3811998481624,"trial":12,"RT":1008,"MT":620,"sideResp":2,"stimulus":"img/250/equaldotanddens/R/4_Ratio_250_L_3_R_12.png","xmouse":[794,794,794,794,794,794,794,794,794,794,794,794,794,794,794,794,793,791,791,791,791,791,791,791,791,791,791,791,791,791,791,791,791,791,791,791,791,791,790,790,790,789,789,789,789,789,789,789,789,791,795,809,819,830,840,850,867,877,885,901,913,935,946,960,972,979,992,999,1005,1011,1015,1016,1017,1017,1021,1025,1033,1035,1037,1038,1043,1061],"ymouse":[597,597,597,597,597,597,597,597,597,597,597,597,597,597,597,597,597,597,596,596,596,596,596,596,596,596,596,596,596,596,596,596,596,596,596,596,596,596,596,594,594,593,593,593,593,592,590,587,584,577,563,534,518,501,483,463,420,398,382,352,331,283,258,228,201,175,135,120,107,92,86,82,82,82,81,80,77,77,77,75,72,61],"timestamp_mouse":[10,39,48,67,88,108,127,147,168,188,207,227,256,268,288,309,327,347,368,388,409,427,447,469,487,508,528,547,569,589,607,628,649,668,687,707,729,749,768,789,808,828,848,867,887,907,928,949,967,988,1008,1029,1048,1068,1088,1109,1129,1148,1168,1189,1209,1230,1247,1268,1287,1307,1328,1349,1368,1387,1407,1427,1447,1468,1489,1509,1529,1548,1567,1587,1608,1628],"xSR":741.5,"ySR":573.95,"xT1":424.9,"yT1":0,"xT2":1058.1,"yT2":0,"toosoon":0,"cond_shown":"equaldotanddens","ratio_trial":250,"smaller_num":"3","larger_num":"12","correct_side":2,"subjID":"GabrielaMontealegre25","gender":"1","age":"8","school":"4"},{"start_time":1552328252002,"click_time":1552328252796,"finger_time":1552328252396,"fix_duration":605.4355510444226,"trial":13,"RT":394,"MT":400,"sideResp":1,"stimulus":"img/250/equaldotsize/L/15_Ratio_250_L_12_R_3.png","xmouse":[800,800,800,800,800,800,800,800,800,800,800,800,800,800,800,800,800,797,796,793,790,784,782,778,774,766,756,751,749,746,743,735,732,725,714,683,611,560,502,459],"ymouse":[582,582,582,582,582,582,582,582,582,582,582,582,582,582,582,582,582,582,577,565,549,512,494,480,469,452,433,426,420,416,411,394,383,369,348,298,199,151,109,70],"timestamp_mouse":[14,32,53,73,94,112,133,153,172,193,213,232,254,274,294,313,332,353,373,394,414,433,453,472,492,512,532,553,573,592,613,633,652,673,694,712,733,754,773,794],"xSR":741.5,"ySR":573.95,"xT1":424.9,"yT1":0,"xT2":1058.1,"yT2":0,"toosoon":0,"cond_shown":"equaldotsize","ratio_trial":250,"smaller_num":"3","larger_num":"12","correct_side":1,"subjID":"GabrielaMontealegre25","gender":"1","age":"8","school":"4"},{"start_time":1552328254932,"click_time":1552328256895,"finger_time":1552328255575,"fix_duration":735.2091790888084,"trial":14,"RT":643,"MT":1320,"sideResp":2,"stimulus":"img/250/equaldotanddens/R/13_Ratio_250_L_2_R_8.png","xmouse":[783,783,783,783,783,783,783,783,783,783,783,783,783,783,783,783,783,783,783,783,783,783,783,783,783,783,783,783,783,783,783,783,783,785,789,813,832,850,883,899,917,921,923,925,928,932,935,940,945,951,964,973,987,1004,1022,1047,1056,1056,1057,1058,1058,1058,1058,1058,1058,1058,1058,1058,1058,1058,1058,1058,1058,1058,1058,1052,1046,1029,1024,1022,1021,1021,1020,1020,1020,1020,1020,1021,1022,1025,1027,1028,1029,1030,1032,1038,1045,1056,1063],"ymouse":[583,583,583,583,583,583,583,583,583,583,583,583,583,583,583,583,583,583,583,583,583,583,583,582,582,582,582,582,581,581,578,575,572,565,553,501,469,430,368,328,275,256,242,232,225,217,211,202,193,183,164,156,150,146,140,127,116,114,112,109,106,104,104,104,104,104,104,103,102,99,95,90,88,85,81,71,66,58,57,57,57,57,57,57,57,57,57,57,57,57,57,57,57,57,57,55,51,45,39],"timestamp_mouse":[12,22,44,64,83,102,124,142,164,182,204,223,243,263,283,303,323,342,363,384,402,423,442,463,482,502,523,543,563,583,603,623,643,662,683,703,722,743,763,783,804,823,844,864,882,903,922,942,964,984,1003,1022,1044,1063,1084,1103,1122,1143,1162,1182,1203,1222,1243,1262,1283,1304,1324,1344,1363,1383,1403,1422,1443,1464,1483,1504,1522,1544,1563,1582,1604,1624,1644,1664,1683,1703,1722,1742,1763,1783,1804,1823,1844,1862,1883,1903,1922,1944,1963],"xSR":741.5,"ySR":573.95,"xT1":424.9,"yT1":0,"xT2":1058.1,"yT2":0,"toosoon":0,"cond_shown":"equaldotanddens","ratio_trial":250,"smaller_num":"2","larger_num":"8","correct_side":2,"subjID":"GabrielaMontealegre25","gender":"1","age":"8","school":"4"},{"start_time":1552328259728,"click_time":1552328261275,"finger_time":1552328260754,"fix_duration":250,"trial":15,"RT":1026,"MT":521,"sideResp":1,"stimulus":"img/250/equaldotsize/L/1_Ratio_250_L_8_R_2.png","xmouse":[791,791,791,791,791,791,791,791,791,791,791,791,791,791,791,791,791,792,793,793,793,794,795,795,795,795,795,795,795,795,795,795,795,795,795,795,795,795,795,795,795,795,792,786,781,778,771,766,763,757,749,723,710,693,676,672,657,650,646,641,636,626,621,617,616,616,596,582,568,553,549,546,545,545,545,539,533,523],"ymouse":[657,657,656,656,656,655,655,655,655,655,655,655,655,654,654,653,653,652,651,649,648,647,646,646,646,646,646,646,646,646,646,646,646,646,646,646,646,646,646,646,646,646,649,653,656,658,658,657,652,641,628,598,583,565,538,531,483,452,409,373,329,260,226,200,159,139,0,0,0,0,0,0,0,0,0,6,22,68],"timestamp_mouse":[10,39,48,67,88,107,126,146,167,187,207,227,246,267,288,308,326,346,367,387,407,428,448,466,487,508,526,548,566,587,607,626,646,667,688,707,728,747,768,788,806,826,848,868,888,906,926,948,967,987,1006,1026,1047,1067,1087,1106,1126,1147,1167,1187,1208,1227,1247,1268,1286,1306,1327,1346,1368,1387,1406,1427,1448,1467,1487,1507,1526,1547],"xSR":741.5,"ySR":573.95,"xT1":424.9,"yT1":0,"xT2":1058.1,"yT2":0,"toosoon":0,"cond_shown":"equaldotsize","ratio_trial":250,"smaller_num":"2","larger_num":"8","correct_side":1,"subjID":"GabrielaMontealegre25","gender":"1","age":"8","school":"4"},{"start_time":1552328269569,"click_time":1552328271956,"finger_time":1552328270435,"fix_duration":952.629441758406,"trial":16,"RT":866,"MT":1521,"sideResp":2,"stimulus":"img/900/equaldotsize/L/8_Ratio_900_L_20_R_18.png","xmouse":[768,768,768,768,768,768,768,768,768,768,768,768,768,768,768,768,768,768,768,768,768,768,768,768,768,768,768,768,768,768,768,768,767,767,766,766,765,765,765,766,775,789,813,872,951,1080,1089,1092,1089,1082,1081,1081,1081,1081,1081,1082,1082,1082,1082,1082,1079,1079,1082,1086,1089,1089,1089,1091,1095,1102,1124,1143,1166,1192,1221,1280,1312,1340,1363,1380,1389,1389,1389,1389,1389,1389,1389,1389,1388,1388,1378,1372,1367,1360,1352,1332,1320,1310,1297,1292,1288,1287,1285,1281,1277,1264,1259,1254,1253,1252,1252,1251,1247,1241,1233,1223,1201,1180,1168,1157],"ymouse":[663,663,663,663,663,663,663,663,663,663,663,663,663,663,663,663,663,663,663,663,663,663,663,663,663,663,663,663,663,663,663,663,663,663,663,663,663,663,663,663,657,646,633,609,583,555,555,553,548,539,536,532,531,531,530,524,523,521,520,519,517,515,508,498,483,467,436,421,399,382,348,326,299,267,226,122,57,0,0,0,0,0,0,0,0,0,0,0,0,0,0,0,1,2,3,11,16,20,22,23,24,24,25,27,29,33,34,35,35,35,35,35,35,34,30,26,20,17,12,9],"timestamp_mouse":[11,33,45,66,86,105,127,145,167,185,205,227,246,266,286,305,325,347,367,387,407,427,447,467,486,505,526,547,567,586,606,626,646,666,685,707,727,745,766,787,806,826,847,866,887,906,925,946,966,986,1006,1026,1046,1066,1087,1106,1127,1145,1165,1187,1206,1226,1246,1267,1285,1306,1327,1345,1365,1386,1406,1427,1446,1467,1486,1505,1525,1545,1566,1585,1606,1625,1646,1666,1685,1706,1726,1746,1765,1787,1806,1826,1846,1866,1885,1906,1926,1947,1967,1986,2006,2026,2046,2067,2086,2107,2127,2146,2166,2186,2206,2226,2247,2267,2286,2305,2327,2347,2367,2387],"xSR":741.5,"ySR":573.95,"xT1":424.9,"yT1":0,"xT2":1058.1,"yT2":0,"toosoon":0,"cond_shown":"equaldotsize","ratio_trial":900,"smaller_num":"18","larger_num":"20","correct_side":1,"subjID":"GabrielaMontealegre25","gender":"1","age":"8","school":"4"},{"start_time":1552328275427,"click_time":1552328276716,"finger_time":1552328276294,"fix_duration":1271.7511997492002,"trial":17,"RT":867,"MT":422,"sideResp":1,"stimulus":"img/750/equaldotanddens/L/1_Ratio_750_L_20_R_15.png","xmouse":[758,758,758,758,758,758,758,758,758,758,758,758,758,758,758,758,758,758,758,758,758,758,758,758,758,758,758,758,758,758,758,758,758,758,758,758,758,758,758,758,758,758,759,760,760,762,762,762,763,764,766,768,770,770,770,767,763,756,728,703,671,644,612,543,502],"ymouse":[593,593,593,593,593,593,593,593,593,593,593,593,593,593,593,593,593,593,593,593,593,593,593,593,593,593,593,593,593,593,593,593,593,593,593,593,593,593,593,593,593,590,582,573,567,563,558,557,548,536,518,496,479,440,428,421,411,400,359,324,280,239,193,89,24],"timestamp_mouse":[23,39,47,68,89,107,129,149,169,188,207,229,248,268,288,308,329,348,369,389,408,429,448,468,488,507,528,548,568,589,608,629,648,667,688,709,729,749,767,788,808,828,849,867,887,908,929,949,969,987,1008,1027,1048,1069,1089,1108,1128,1148,1169,1188,1209,1229,1248,1268,1289],"xSR":741.5,"ySR":573.95,"xT1":424.9,"yT1":0,"xT2":1058.1,"yT2":0,"toosoon":0,"cond_shown":"equaldotanddens","ratio_trial":750,"smaller_num":"15","larger_num":"20","correct_side":1,"subjID":"GabrielaMontealegre25","gender":"1","age":"8","school":"4"},{"start_time":1552328279071,"click_time":1552328280916,"finger_time":1552328279935,"fix_duration":334.05200394291444,"trial":18,"RT":864,"MT":981,"sideResp":2,"stimulus":"img/900/randomdotsizeEA/R/15_Ratio_900_L_9_R_10.png","xmouse":[775,775,775,775,775,775,775,775,775,775,775,775,775,775,775,775,775,775,775,775,775,775,775,775,775,775,775,775,775,775,775,775,775,775,775,775,775,775,775,775,776,780,782,782,785,789,799,803,809,818,845,865,916,936,957,979,1022,1038,1054,1082,1099,1126,1131,1135,1136,1136,1136,1136,1136,1136,1136,1136,1136,1136,1136,1136,1136,1136,1136,1136,1136,1136,1136,1136,1136,1136,1136,1136,1136,1136,1136,1136,1138],"ymouse":[582,582,582,582,582,582,582,582,582,582,582,582,582,582,582,582,582,582,582,582,582,582,582,582,582,582,582,582,582,582,582,582,582,582,582,582,582,582,582,582,582,576,574,571,564,554,520,510,487,455,360,277,101,25,0,0,0,0,0,0,0,0,0,0,0,0,0,0,0,0,0,0,0,0,0,0,0,0,0,0,0,0,0,0,0,0,0,0,0,0,0,0,7],"timestamp_mouse":[11,35,45,65,84,103,124,144,164,185,204,223,243,265,284,304,324,344,365,383,405,425,443,463,485,505,523,544,565,584,605,624,644,663,683,705,723,745,763,784,805,824,845,864,885,904,923,944,965,983,1004,1024,1044,1065,1085,1104,1124,1144,1165,1185,1204,1223,1245,1265,1284,1305,1324,1344,1364,1384,1404,1423,1443,1463,1484,1505,1524,1545,1565,1583,1603,1625,1644,1664,1685,1705,1724,1745,1763,1785,1805,1825,1844],"xSR":741.5,"ySR":573.95,"xT1":424.9,"yT1":0,"xT2":1058.1,"yT2":0,"toosoon":0,"cond_shown":"randomdotsizeEA","ratio_trial":900,"smaller_num":"9","larger_num":"10","correct_side":2,"subjID":"GabrielaMontealegre25","gender":"1","age":"8","school":"4"},{"start_time":1552328282641,"click_time":1552328284215,"finger_time":1552328283496,"fix_duration":304.69962864027514,"trial":19,"RT":855,"MT":719,"sideResp":1,"stimulus":"img/250/randomdotsizeEA/L/5_Ratio_250_L_24_R_6.png","xmouse":[797,797,797,797,797,797,797,797,797,797,797,797,797,797,797,797,797,797,797,797,797,797,797,797,797,797,797,797,797,797,797,797,797,797,797,797,797,797,797,797,795,790,773,759,740,716,686,651,534,503,490,487,484,477,470,457,442,409,393,390,390,390,390,390,390,390,390,390,390,390,390,389,392,398,402,405,408,413,430],"ymouse":[616,616,616,616,616,616,616,616,616,616,616,616,616,616,616,616,616,616,616,616,616,616,616,616,616,616,616,616,616,616,616,616,616,616,616,616,616,616,616,616,614,598,533,482,414,330,225,98,0,0,0,0,0,0,0,0,0,0,0,0,0,0,0,0,0,0,0,0,0,0,0,0,5,11,13,14,16,18,34],"timestamp_mouse":[19,38,55,73,95,115,134,153,175,195,213,233,255,274,293,315,335,354,373,395,414,433,455,475,495,514,535,554,575,595,615,633,655,675,695,713,735,755,774,795,814,834,855,873,895,914,934,954,974,994,1014,1034,1053,1073,1093,1115,1135,1157,1175,1193,1214,1235,1255,1274,1295,1314,1335,1354,1373,1394,1414,1435,1454,1475,1495,1514,1534,1554,1574],"xSR":741.5,"ySR":573.95,"xT1":424.9,"yT1":0,"xT2":1058.1,"yT2":0,"toosoon":0,"cond_shown":"randomdotsizeEA","ratio_trial":250,"smaller_num":"6","larger_num":"24","correct_side":1,"subjID":"GabrielaMontealegre25","gender":"1","age":"8","school":"4"},{"start_time":1552328286593,"click_time":1552328288516,"finger_time":1552328287315,"fix_duration":275.4805921620725,"trial":20,"RT":722,"MT":1201,"sideResp":2,"stimulus":"img/500/equaldotanddens/R/14_Ratio_500_L_5_R_10.png","xmouse":[784,784,784,784,784,784,784,784,784,784,784,784,784,784,784,784,784,784,784,784,784,784,784,784,784,784,784,784,784,785,785,785,785,785,786,789,818,848,894,950,1019,1190,1241,1275,1293,1303,1310,1313,1315,1319,1320,1320,1320,1320,1320,1320,1320,1320,1320,1320,1314,1293,1284,1275,1268,1262,1252,1247,1242,1238,1231,1220,1214,1204,1198,1190,1180,1179,1174,1171,1169,1169,1169,1169,1169,1169,1169,1167,1165,1163,1161,1161,1161,1161,1161,1159,1155],"ymouse":[619,619,619,619,619,619,619,619,619,619,619,619,619,619,619,619,619,619,619,619,619,619,619,619,619,619,619,619,619,619,618,616,615,611,601,583,493,413,290,143,0,0,0,0,0,0,0,0,0,0,0,0,0,0,0,0,0,0,0,0,2,9,10,11,12,13,14,15,16,17,20,24,28,32,35,40,44,44,47,48,49,49,49,49,49,49,49,49,49,50,50,50,50,50,50,50,50],"timestamp_mouse":[8,22,43,62,82,102,121,141,161,182,202,221,242,263,282,302,322,341,363,383,402,422,441,462,482,503,523,543,562,583,603,621,642,662,682,701,722,742,762,783,803,821,842,862,883,902,923,942,961,982,1002,1022,1042,1062,1082,1102,1123,1142,1162,1181,1203,1222,1242,1262,1283,1303,1321,1341,1362,1382,1403,1421,1441,1462,1482,1503,1522,1542,1562,1582,1602,1622,1642,1662,1683,1701,1722,1743,1763,1783,1803,1822,1841,1862,1882,1903,1922],"xSR":741.5,"ySR":573.95,"xT1":424.9,"yT1":0,"xT2":1058.1,"yT2":0,"toosoon":0,"cond_shown":"equaldotanddens","ratio_trial":500,"smaller_num":"5","larger_num":"10","correct_side":2,"subjID":"GabrielaMontealegre25","gender":"1","age":"8","school":"4"},{"start_time":1552328295167,"click_time":1552328296815,"finger_time":1552328296356,"fix_duration":250,"trial":21,"RT":1189,"MT":459,"sideResp":1,"stimulus":"img/750/equaldotsize/R/11_Ratio_750_L_12_R_16.png","xmouse":[809,809,809,809,809,809,809,809,809,809,809,809,809,809,809,809,809,809,809,809,809,809,809,809,809,809,809,809,809,809,809,809,809,809,809,809,809,809,809,809,809,809,809,809,807,807,807,807,807,807,807,807,807,807,806,806,806,808,814,819,822,825,828,834,837,841,849,862,880,883,886,886,879,856,840,806,780,755,682,635,580,531,490],"ymouse":[624,624,624,624,624,624,624,624,624,624,624,624,624,624,624,624,624,624,624,624,624,624,624,624,624,624,624,624,624,624,624,624,624,624,624,624,624,624,624,624,624,624,624,624,624,624,624,624,624,624,624,624,624,624,621,619,612,604,579,562,541,518,496,457,434,409,384,346,278,247,222,197,176,142,125,105,93,85,68,54,45,38,32],"timestamp_mouse":[10,31,48,69,89,107,127,148,167,187,209,229,248,269,289,307,328,348,368,387,408,428,449,468,487,508,529,548,568,589,609,629,649,667,689,709,729,747,769,788,807,827,847,868,888,907,928,949,968,988,1008,1029,1049,1069,1089,1108,1128,1149,1168,1189,1209,1229,1248,1267,1287,1308,1329,1348,1369,1389,1408,1429,1449,1469,1488,1508,1529,1548,1568,1588,1608,1629,1648],"xSR":741.5,"ySR":573.95,"xT1":424.9,"yT1":0,"xT2":1058.1,"yT2":0,"toosoon":0,"cond_shown":"equaldotsize","ratio_trial":750,"smaller_num":"12","larger_num":"16","correct_side":2,"subjID":"GabrielaMontealegre25","gender":"1","age":"8","school":"4"},{"start_time":1552328300015,"click_time":1552328301554,"finger_time":1552328300876,"fix_duration":518.0109300924647,"trial":22,"RT":861,"MT":678,"sideResp":1,"stimulus":"img/500/equaldotsize/L/8_Ratio_500_L_8_R_4.png","xmouse":[783,783,783,783,783,783,784,784,784,784,784,784,784,784,784,784,784,784,784,784,784,784,784,784,784,785,789,789,789,789,789,789,789,789,789,789,789,789,789,789,789,789,776,765,749,731,713,682,664,652,640,630,612,608,605,602,598,586,575,565,553,544,536,533,531,531,530,530,530,530,530,530,530,530,530,530,527,523],"ymouse":[669,669,669,669,668,667,667,667,667,667,667,667,667,667,667,667,667,667,667,667,667,667,667,666,662,656,648,646,645,645,645,645,645,645,645,645,645,645,645,645,643,622,580,548,506,465,429,366,323,274,228,192,144,136,130,126,121,107,99,95,91,88,86,85,85,85,85,85,85,85,85,85,85,85,85,85,84,82],"timestamp_mouse":[8,32,40,60,80,101,121,141,160,180,201,220,239,261,281,300,319,341,361,380,399,420,439,461,481,501,521,539,559,581,600,619,639,660,681,701,719,739,760,781,801,821,840,861,881,901,921,941,960,980,1000,1020,1041,1060,1081,1101,1121,1140,1160,1180,1200,1220,1240,1261,1280,1299,1320,1341,1361,1380,1400,1421,1440,1459,1480,1500,1521,1539],"xSR":741.5,"ySR":573.95,"xT1":424.9,"yT1":0,"xT2":1058.1,"yT2":0,"toosoon":0,"cond_shown":"equaldotsize","ratio_trial":500,"smaller_num":"4","larger_num":"8","correct_side":1,"subjID":"GabrielaMontealegre25","gender":"1","age":"8","school":"4"},{"start_time":1552328304899,"click_time":1552328306456,"finger_time":1552328305555,"fix_duration":1223.8679855450212,"trial":23,"RT":656,"MT":901,"sideResp":2,"stimulus":"img/500/equaldotanddens/R/14_Ratio_500_L_5_R_10.png","xmouse":[827,827,827,827,827,827,827,827,827,827,827,827,827,827,827,827,827,827,827,827,827,827,827,827,827,827,827,827,827,827,824,822,817,817,817,817,824,840,852,871,889,906,944,958,973,977,980,981,981,981,981,982,982,983,983,984,984,985,987,989,990,993,1002,1007,1011,1014,1017,1027,1030,1034,1035,1035,1035,1035,1036,1042,1051,1060],"ymouse":[618,618,618,618,618,618,618,618,618,618,618,618,618,618,618,618,618,618,618,618,618,618,618,618,618,618,618,618,618,618,610,601,552,512,453,387,297,183,132,84,39,0,0,0,0,0,0,0,0,0,0,0,0,0,0,1,1,3,4,5,6,8,15,18,22,26,34,56,64,69,71,71,71,71,71,75,79,82],"timestamp_mouse":[16,35,56,76,96,117,135,155,177,196,215,235,255,276,296,317,335,355,377,396,416,437,456,476,497,516,536,557,576,595,617,636,656,676,695,715,735,757,777,796,817,837,856,876,896,917,936,955,977,996,1016,1035,1056,1076,1096,1116,1136,1156,1175,1195,1215,1235,1256,1275,1295,1316,1336,1356,1376,1396,1416,1437,1455,1476,1495,1517,1537,1556],"xSR":741.5,"ySR":573.95,"xT1":424.9,"yT1":0,"xT2":1058.1,"yT2":0,"toosoon":0,"cond_shown":"equaldotanddens","ratio_trial":500,"smaller_num":"5","larger_num":"10","correct_side":2,"subjID":"GabrielaMontealegre25","gender":"1","age":"8","school":"4"},{"start_time":1552328308973,"click_time":1552328310455,"finger_time":1552328309755,"fix_duration":517.7553563269972,"trial":24,"RT":782,"MT":700,"sideResp":2,"stimulus":"img/900/equaldotsize/R/13_Ratio_900_L_18_R_20.png","xmouse":[819,819,819,819,819,819,819,819,819,819,819,819,819,819,819,819,819,819,819,819,819,819,819,819,819,819,819,819,819,819,819,819,819,819,818,818,817,817,817,817,817,817,830,845,869,905,917,925,931,937,940,940,940,940,940,940,941,945,954,964,970,971,972,972,973,973,973,973,974,978,986,997,1014,1039,1062],"ymouse":[616,616,616,616,616,616,616,616,616,616,616,616,616,616,616,616,616,616,616,616,616,616,616,616,616,616,616,616,616,616,616,616,616,616,616,612,608,600,582,554,327,202,81,0,0,0,0,0,0,0,0,0,0,0,0,0,0,1,9,14,16,16,16,16,16,16,16,16,16,18,23,28,38,50,62],"timestamp_mouse":[9,30,42,61,83,103,123,143,162,183,203,221,242,263,282,303,323,342,361,381,402,422,442,462,482,502,522,542,563,583,601,622,642,663,683,702,722,743,763,782,803,822,842,862,882,903,922,943,962,983,1002,1022,1042,1061,1082,1102,1122,1143,1162,1182,1201,1221,1242,1261,1283,1303,1322,1342,1363,1382,1402,1422,1442,1462,1481],"xSR":741.5,"ySR":573.95,"xT1":424.9,"yT1":0,"xT2":1058.1,"yT2":0,"toosoon":0,"cond_shown":"equaldotsize","ratio_trial":900,"smaller_num":"18","larger_num":"20","correct_side":2,"subjID":"GabrielaMontealegre25","gender":"1","age":"8","school":"4"},{"start_time":1552328315163,"click_time":1552328316555,"finger_time":1552328315975,"fix_duration":445.7236076814306,"trial":25,"RT":812,"MT":580,"sideResp":2,"stimulus":"img/750/randomdotsizeEA/L/8_Ratio_750_L_4_R_3.png","xmouse":[787,787,787,787,787,787,787,787,787,787,787,787,787,787,787,787,787,787,787,787,787,787,787,787,787,787,787,787,787,787,787,787,787,787,787,787,787,787,786,785,778,773,767,765,765,764,764,765,769,773,779,793,803,818,835,896,983,1072,1172,1255,1325,1327,1327,1327,1327,1318,1301,1246,1177,1108],"ymouse":[624,624,624,624,624,624,624,624,624,624,624,624,624,624,624,624,624,624,624,624,624,624,624,624,624,624,624,624,624,624,624,624,624,624,624,624,617,606,594,583,559,548,539,535,534,523,511,496,469,449,429,383,353,317,276,163,28,0,0,0,0,0,0,0,0,2,10,33,62,84],"timestamp_mouse":[18,39,52,73,93,111,133,151,171,192,213,231,252,272,292,312,332,351,373,392,412,431,451,473,492,513,532,553,572,593,612,632,652,673,692,713,732,752,772,793,812,832,852,872,893,912,931,952,972,992,1012,1033,1051,1072,1092,1112,1131,1152,1173,1192,1214,1233,1252,1273,1292,1313,1331,1351,1371,1392],"xSR":741.5,"ySR":573.95,"xT1":424.9,"yT1":0,"xT2":1058.1,"yT2":0,"toosoon":0,"cond_shown":"randomdotsizeEA","ratio_trial":750,"smaller_num":"3","larger_num":"4","correct_side":1,"subjID":"GabrielaMontealegre25","gender":"1","age":"8","school":"4"},{"start_time":1552328318267,"click_time":1552328320756,"finger_time":1552328319176,"fix_duration":250,"trial":26,"RT":909,"MT":1580,"sideResp":2,"stimulus":"img/250/equaldotanddens/R/11_Ratio_250_L_3_R_12.png","xmouse":[770,772,774,776,778,781,797,798,798,798,798,798,798,798,798,798,798,798,798,798,798,798,798,798,798,798,798,798,798,798,798,798,798,798,798,798,798,798,798,799,803,811,818,827,837,872,908,961,1034,1104,1181,1344,1399,1450,1481,1495,1498,1498,1496,1494,1483,1475,1467,1463,1456,1451,1439,1437,1433,1432,1429,1419,1408,1397,1391,1386,1374,1370,1367,1366,1361,1352,1351,1350,1349,1347,1344,1344,1343,1343,1343,1343,1343,1341,1340,1336,1326,1316,1305,1290,1266,1234,1226,1223,1223,1223,1220,1216,1212,1207,1202,1193,1186,1181,1176,1173,1168,1167,1166,1166,1165,1162,1161,1160,1155],"ymouse":[671,671,671,671,671,671,673,673,673,673,673,673,673,673,673,673,673,673,673,673,673,673,673,673,673,673,673,673,673,673,673,673,673,673,673,673,673,673,673,673,672,668,663,654,643,606,568,494,393,270,118,0,0,0,0,0,0,0,1,4,27,39,43,46,48,49,51,51,52,52,52,55,59,65,73,81,96,104,105,105,105,101,101,101,105,112,129,132,133,133,133,133,133,135,135,133,123,112,99,82,62,42,37,36,36,36,37,38,39,41,41,42,43,44,44,45,47,48,49,49,50,53,54,55,57],"timestamp_mouse":[11,38,48,68,88,108,129,147,168,188,209,228,249,268,288,308,327,349,368,388,409,429,449,469,487,508,528,547,568,588,608,628,648,668,687,707,728,749,767,789,809,828,849,868,888,909,927,947,968,988,1007,1028,1049,1068,1089,1108,1129,1148,1167,1187,1210,1229,1247,1268,1288,1308,1328,1348,1368,1388,1409,1428,1449,1469,1489,1508,1529,1547,1568,1587,1608,1628,1648,1668,1689,1709,1729,1749,1769,1788,1808,1827,1847,1869,1889,1908,1928,1949,1968,1989,2009,2027,2048,2068,2089,2109,2129,2148,2169,2188,2207,2227,2248,2268,2289,2309,2328,2348,2368,2388,2409,2428,2448,2468,2489],"xSR":741.5,"ySR":573.95,"xT1":424.9,"yT1":0,"xT2":1058.1,"yT2":0,"toosoon":0,"cond_shown":"equaldotanddens","ratio_trial":250,"smaller_num":"3","larger_num":"12","correct_side":2,"subjID":"GabrielaMontealegre25","gender":"1","age":"8","school":"4"},{"start_time":1552328323089,"click_time":1552328324395,"finger_time":1552328323934,"fix_duration":691.9972500774373,"trial":27,"RT":845,"MT":461,"sideResp":1,"stimulus":"img/750/randomdotsizeEA/R/5_Ratio_750_L_15_R_20.png","xmouse":[794,794,794,794,794,794,794,794,794,795,795,795,795,795,795,795,795,795,795,795,795,795,795,795,795,795,795,795,795,795,795,795,795,795,795,794,794,793,792,790,783,777,769,756,737,691,664,656,634,622,598,587,579,571,562,553,546,545,545,545,545,545,545,542,538,521],"ymouse":[665,665,665,665,665,665,665,665,665,665,665,665,665,665,665,665,665,665,665,665,665,665,665,665,665,665,665,665,665,664,662,662,662,660,660,659,656,650,643,633,601,580,554,525,481,393,334,309,261,234,191,172,159,145,131,120,110,110,110,110,110,110,109,109,109,99],"timestamp_mouse":[11,34,47,65,86,106,126,145,167,186,206,227,247,266,286,307,326,346,366,387,407,426,446,467,485,505,526,546,566,587,605,625,647,666,685,706,726,746,766,785,806,827,845,866,886,906,925,946,966,987,1006,1025,1046,1067,1087,1107,1127,1147,1166,1186,1207,1226,1247,1267,1286,1306],"xSR":741.5,"ySR":573.95,"xT1":424.9,"yT1":0,"xT2":1058.1,"yT2":0,"toosoon":0,"cond_shown":"randomdotsizeEA","ratio_trial":750,"smaller_num":"15","larger_num":"20","correct_side":2,"subjID":"GabrielaMontealegre25","gender":"1","age":"8","school":"4"},{"start_time":1552328326479,"click_time":1552328328196,"finger_time":1552328327254,"fix_duration":821.1498609410668,"trial":28,"RT":775,"MT":942,"sideResp":2,"stimulus":"img/500/randomdotsizeEA/R/9_Ratio_500_L_2_R_4.png","xmouse":[775,775,775,775,775,775,775,775,775,775,775,775,775,775,775,775,775,775,775,775,775,775,775,775,775,775,775,775,775,775,775,775,775,775,775,775,775,775,778,778,780,781,782,783,795,813,877,912,945,971,988,996,996,996,996,996,999,1001,1002,1003,1010,1018,1025,1030,1030,1030,1036,1040,1046,1048,1048,1048,1048,1048,1048,1048,1048,1048,1048,1048,1050,1053,1054,1056,1058,1065],"ymouse":[587,587,587,587,587,587,587,587,587,587,587,587,587,587,587,587,586,585,585,584,584,582,582,582,582,582,582,582,582,582,582,582,582,582,582,582,582,582,573,568,553,495,461,428,387,344,211,147,89,53,31,24,24,24,24,24,25,27,28,30,34,38,39,41,41,41,41,41,41,41,41,41,41,41,41,41,41,41,41,41,41,42,42,42,42,42],"timestamp_mouse":[16,37,56,77,96,115,136,156,177,197,216,235,256,276,297,316,336,357,377,396,415,435,456,476,495,516,537,556,575,595,616,635,655,675,695,715,735,755,775,795,817,836,855,875,895,915,936,955,975,997,1015,1037,1056,1076,1096,1115,1136,1156,1177,1196,1217,1235,1256,1276,1295,1317,1337,1357,1376,1395,1415,1435,1455,1477,1497,1517,1535,1555,1575,1597,1617,1637,1656,1677,1696,1717],"xSR":741.5,"ySR":573.95,"xT1":424.9,"yT1":0,"xT2":1058.1,"yT2":0,"toosoon":0,"cond_shown":"randomdotsizeEA","ratio_trial":500,"smaller_num":"2","larger_num":"4","correct_side":2,"subjID":"GabrielaMontealegre25","gender":"1","age":"8","school":"4"},{"start_time":1552328329625,"click_time":1552328331255,"finger_time":1552328330335,"fix_duration":250,"trial":29,"RT":710,"MT":920,"sideResp":1,"stimulus":"img/500/equaldotanddens/L/5_Ratio_500_L_4_R_2.png","xmouse":[829,829,829,829,829,829,829,829,829,829,829,829,829,829,829,829,829,829,829,829,829,829,829,829,829,829,829,829,829,829,829,829,829,828,826,824,822,817,805,770,745,716,685,667,656,656,656,656,655,643,634,626,622,620,615,606,594,578,559,552,552,552,552,551,547,545,543,542,541,541,541,541,540,540,540,540,539,537,535,532,529,523],"ymouse":[611,610,610,610,610,609,609,608,608,608,608,608,608,608,608,608,608,608,608,608,608,608,608,608,608,608,608,608,608,606,605,604,600,595,581,570,556,538,506,439,394,353,323,301,278,273,272,271,265,251,243,238,235,233,218,199,176,157,135,127,127,127,126,126,121,119,115,110,108,107,107,105,105,104,104,103,102,97,94,91,88,84],"timestamp_mouse":[22,34,50,70,90,111,131,149,170,191,210,230,251,270,290,310,331,350,369,391,410,430,451,470,490,511,529,549,570,590,611,630,650,671,691,710,729,750,770,790,809,831,851,871,890,909,929,949,970,990,1010,1030,1050,1070,1091,1110,1130,1151,1171,1190,1210,1230,1250,1270,1290,1310,1330,1351,1371,1390,1410,1430,1450,1470,1490,1511,1530,1551,1570,1590,1609,1629],"xSR":741.5,"ySR":573.95,"xT1":424.9,"yT1":0,"xT2":1058.1,"yT2":0,"toosoon":0,"cond_shown":"equaldotanddens","ratio_trial":500,"smaller_num":"2","larger_num":"4","correct_side":1,"subjID":"GabrielaMontealegre25","gender":"1","age":"8","school":"4"},{"start_time":1552328333189,"click_time":1552328334636,"finger_time":1552328333855,"fix_duration":713.1571694466801,"trial":30,"RT":666,"MT":781,"sideResp":2,"stimulus":"img/750/equaldotanddens/R/12_Ratio_750_L_3_R_4.png","xmouse":[826,826,826,826,826,825,825,825,825,825,825,825,825,825,825,825,825,825,825,825,825,825,825,825,825,825,825,825,825,825,825,825,828,836,851,874,950,991,1013,1027,1037,1041,1045,1050,1060,1071,1081,1107,1122,1129,1135,1141,1142,1143,1144,1144,1148,1156,1161,1164,1167,1170,1170,1170,1170,1169,1166,1164,1162,1161,1161,1160,1155],"ymouse":[594,594,594,594,594,595,596,597,597,597,597,597,598,598,598,598,598,598,598,598,598,598,598,598,598,598,598,598,598,597,596,595,586,568,545,514,432,385,359,343,330,324,315,310,299,288,277,233,205,184,164,137,131,126,123,122,117,107,95,88,83,74,74,74,74,74,75,76,76,76,76,76,76],"timestamp_mouse":[11,25,45,65,86,107,125,146,166,187,206,225,246,266,286,306,326,346,366,385,406,427,446,466,486,507,527,547,565,586,607,626,647,666,686,706,726,745,767,787,805,827,846,866,885,905,927,945,967,986,1006,1028,1045,1067,1087,1105,1126,1146,1166,1185,1207,1226,1246,1266,1286,1306,1326,1345,1366,1386,1406,1426,1447],"xSR":741.5,"ySR":573.95,"xT1":424.9,"yT1":0,"xT2":1058.1,"yT2":0,"toosoon":0,"cond_shown":"equaldotanddens","ratio_trial":750,"smaller_num":"3","larger_num":"4","correct_side":2,"subjID":"GabrielaMontealegre25","gender":"1","age":"8","school":"4"},{"start_time":1552328336768,"click_time":1552328338615,"finger_time":1552328337635,"fix_duration":552.012053668613,"trial":31,"RT":867,"MT":980,"sideResp":2,"stimulus":"img/900/equaldotsize/L/8_Ratio_900_L_20_R_18.png","xmouse":[802,802,802,802,802,802,802,802,801,801,800,800,800,800,800,800,800,800,800,800,800,800,800,800,800,800,800,799,799,799,799,799,799,799,799,799,800,800,800,800,800,800,803,806,809,813,819,829,858,887,919,950,972,998,1004,1009,1014,1018,1024,1024,1025,1025,1025,1025,1025,1026,1027,1027,1028,1028,1030,1036,1043,1061,1070,1074,1082,1085,1086,1086,1086,1086,1086,1086,1086,1086,1086,1086,1086,1087,1092,1100,1107],"ymouse":[654,654,654,654,654,654,654,654,654,654,654,654,654,654,654,654,654,654,654,654,654,654,654,654,654,654,654,654,654,654,654,654,652,649,644,639,628,621,609,604,599,592,574,551,531,510,486,449,395,364,338,317,298,265,254,241,232,226,216,216,215,214,214,212,212,211,209,209,209,209,208,200,192,167,152,141,130,125,123,123,123,123,123,123,123,123,123,122,122,119,113,101,89],"timestamp_mouse":[18,37,46,67,86,107,126,148,168,186,208,228,247,267,287,307,326,348,370,386,406,428,447,468,487,506,526,547,568,586,606,626,647,667,687,706,726,747,767,787,808,827,847,867,887,907,928,947,967,987,1008,1026,1046,1067,1087,1107,1127,1146,1167,1187,1208,1228,1247,1266,1286,1307,1327,1348,1367,1387,1406,1427,1447,1468,1487,1508,1527,1547,1568,1587,1607,1626,1646,1668,1687,1708,1727,1747,1767,1787,1807,1828,1847],"xSR":741.5,"ySR":573.95,"xT1":424.9,"yT1":0,"xT2":1058.1,"yT2":0,"toosoon":0,"cond_shown":"equaldotsize","ratio_trial":900,"smaller_num":"18","larger_num":"20","correct_side":1,"subjID":"GabrielaMontealegre25","gender":"1","age":"8","school":"4"},{"start_time":1552328342011,"click_time":1552328343056,"finger_time":1552328342796,"fix_duration":833.3177199736373,"trial":32,"RT":785,"MT":260,"sideResp":1,"stimulus":"img/750/randomdotsizeEA/L/6_Ratio_750_L_24_R_18.png","xmouse":[752,752,752,752,752,752,752,752,752,752,752,752,752,752,752,752,752,752,752,752,752,752,752,752,752,752,752,752,752,752,752,752,752,752,752,750,749,746,742,738,730,698,646,607,572,546,522,512,505,495,483,451,434],"ymouse":[654,654,654,654,654,654,654,654,654,654,654,654,654,654,654,654,654,654,654,654,654,654,654,654,653,652,652,652,651,651,651,650,650,649,647,645,636,625,611,594,573,507,419,364,315,279,228,207,186,166,146,100,80],"timestamp_mouse":[11,24,43,64,85,104,123,145,164,184,205,225,244,264,284,303,325,345,365,384,404,423,445,465,485,505,525,544,565,585,604,624,644,664,685,704,724,744,765,785,805,824,844,864,885,905,924,944,965,984,1005,1024,1045],"xSR":741.5,"ySR":573.95,"xT1":424.9,"yT1":0,"xT2":1058.1,"yT2":0,"toosoon":0,"cond_shown":"randomdotsizeEA","ratio_trial":750,"smaller_num":"18","larger_num":"24","correct_side":1,"subjID":"GabrielaMontealegre25","gender":"1","age":"8","school":"4"},{"start_time":1552328344676,"click_time":1552328345795,"finger_time":1552328345596,"fix_duration":458.3434580146427,"trial":33,"RT":920,"MT":199,"sideResp":1,"stimulus":"img/900/equaldotsize/L/8_Ratio_900_L_20_R_18.png","xmouse":[825,825,825,825,825,825,825,825,825,825,825,825,825,825,825,825,825,825,825,825,825,825,825,825,825,825,825,825,825,825,825,825,825,825,825,825,825,825,825,825,824,823,821,813,787,770,751,724,705,672,658,644,627,601,531,503,486],"ymouse":[627,627,627,627,627,627,627,627,627,627,627,627,627,627,627,627,627,627,627,627,627,627,627,627,627,627,627,627,627,627,627,627,627,627,627,627,627,627,627,627,627,626,623,616,590,574,552,520,497,449,427,403,369,323,201,136,72],"timestamp_mouse":[1,18,41,59,80,99,119,140,159,178,199,219,238,260,279,299,320,338,358,378,398,418,438,460,480,500,519,540,560,580,600,620,640,659,679,699,720,739,759,779,799,820,840,859,879,899,920,940,959,979,999,1019,1039,1059,1079,1099,1119],"xSR":741.5,"ySR":573.95,"xT1":424.9,"yT1":0,"xT2":1058.1,"yT2":0,"toosoon":0,"cond_shown":"equaldotsize","ratio_trial":900,"smaller_num":"18","larger_num":"20","correct_side":1,"subjID":"GabrielaMontealegre25","gender":"1","age":"8","school":"4"},{"start_time":1552328348171,"click_time":1552328349455,"finger_time":1552328348975,"fix_duration":1036.287982620104,"trial":34,"RT":804,"MT":480,"sideResp":2,"stimulus":"img/250/equaldotsize/R/8_Ratio_250_L_1_R_4.png","xmouse":[773,775,775,775,775,775,775,775,775,775,775,775,775,775,775,775,775,775,775,775,775,776,776,776,776,776,776,776,777,778,778,778,778,778,778,779,780,782,786,810,847,910,973,1002,1021,1038,1041,1043,1044,1044,1045,1047,1048,1050,1054,1057,1060,1066,1072,1077,1085,1094,1102,1112,1141],"ymouse":[624,624,624,624,624,624,624,624,623,623,623,623,623,623,623,623,623,623,622,622,621,620,619,619,619,619,619,619,618,616,615,615,615,615,615,615,612,608,600,574,550,518,482,462,442,414,406,401,392,387,379,371,358,346,317,295,282,265,247,231,204,179,160,138,77],"timestamp_mouse":[9,24,46,65,83,104,125,143,163,183,205,224,245,263,285,304,325,344,365,384,404,423,444,465,485,504,524,545,565,584,604,623,644,664,685,703,725,745,765,784,804,823,844,864,884,905,924,945,965,983,1004,1024,1044,1064,1084,1103,1123,1144,1165,1184,1203,1224,1243,1264,1284],"xSR":741.5,"ySR":573.95,"xT1":424.9,"yT1":0,"xT2":1058.1,"yT2":0,"toosoon":0,"cond_shown":"equaldotsize","ratio_trial":250,"smaller_num":"1","larger_num":"4","correct_side":2,"subjID":"GabrielaMontealegre25","gender":"1","age":"8","school":"4"},{"start_time":1552328351367,"click_time":1552328352595,"finger_time":1552328352155,"fix_duration":250,"trial":35,"RT":788,"MT":440,"sideResp":1,"stimulus":"img/250/equaldotsize/L/2_Ratio_250_L_16_R_4.png","xmouse":[807,807,807,807,807,807,807,807,807,807,807,807,807,807,807,807,807,807,807,807,807,807,807,807,807,807,807,807,807,807,807,807,807,807,807,807,806,805,804,797,783,768,743,714,661,636,620,606,599,592,584,582,581,580,579,577,575,571,566,558,533,523],"ymouse":[609,609,609,609,609,609,609,609,609,609,609,609,609,609,609,609,609,609,609,609,609,609,609,609,609,609,609,609,609,609,609,609,609,609,609,609,607,602,593,556,514,483,436,387,287,243,207,177,160,145,132,130,129,129,129,129,128,126,124,121,107,98],"timestamp_mouse":[11,35,48,67,88,108,127,147,168,189,209,227,247,269,289,308,329,347,367,387,407,427,448,467,489,509,528,547,569,589,608,628,647,668,688,709,729,748,768,788,807,828,848,867,888,908,929,948,968,988,1009,1028,1048,1068,1088,1109,1128,1147,1167,1188,1208,1228],"xSR":741.5,"ySR":573.95,"xT1":424.9,"yT1":0,"xT2":1058.1,"yT2":0,"toosoon":0,"cond_shown":"equaldotsize","ratio_trial":250,"smaller_num":"4","larger_num":"16","correct_side":1,"subjID":"GabrielaMontealegre25","gender":"1","age":"8","school":"4"},{"start_time":1552328354357,"click_time":1552328355935,"finger_time":1552328355034,"fix_duration":778.9725461687035,"trial":36,"RT":677,"MT":901,"sideResp":1,"stimulus":"img/750/equaldotanddens/L/9_Ratio_750_L_4_R_3.png","xmouse":[811,811,811,811,811,811,811,811,811,811,811,811,811,811,811,811,811,811,811,811,811,811,811,811,811,811,811,811,812,812,813,816,819,821,823,824,831,841,857,896,910,936,936,936,935,932,929,925,919,912,906,862,836,804,773,738,680,648,626,607,592,571,564,559,554,545,517,504,488,470,464,456,454,453,452,451,451,451,451,451],"ymouse":[619,619,619,619,619,619,619,619,619,619,619,619,619,619,619,619,619,619,619,619,619,619,619,619,619,619,619,619,617,616,613,601,591,582,573,566,546,530,500,424,400,333,322,310,305,303,302,302,300,298,297,272,258,244,232,219,201,193,186,181,177,170,168,167,164,162,151,145,141,131,127,120,118,116,115,114,111,108,102,96],"timestamp_mouse":[1,28,38,57,77,98,119,138,157,179,199,218,239,258,277,299,319,338,358,377,398,418,437,459,479,497,517,539,559,578,599,618,639,658,677,698,719,737,758,779,799,817,839,858,879,899,917,938,958,979,999,1017,1038,1058,1079,1099,1117,1137,1158,1178,1199,1218,1237,1258,1279,1299,1319,1338,1359,1379,1399,1418,1437,1458,1479,1499,1517,1538,1559,1578],"xSR":741.5,"ySR":573.95,"xT1":424.9,"yT1":0,"xT2":1058.1,"yT2":0,"toosoon":0,"cond_shown":"equaldotanddens","ratio_trial":750,"smaller_num":"3","larger_num":"4","correct_side":1,"subjID":"GabrielaMontealegre25","gender":"1","age":"8","school":"4"},{"start_time":1552328363874,"click_time":1552328364996,"finger_time":1552328364681,"fix_duration":936.6747902978456,"trial":37,"RT":807,"MT":315,"sideResp":1,"stimulus":"img/250/randomdotsizeEA/L/7_Ratio_250_L_8_R_2.png","xmouse":[804,804,804,804,804,804,804,804,804,804,804,804,804,804,804,804,804,804,804,804,804,804,804,804,804,804,804,804,804,804,804,804,804,804,804,804,804,802,801,799,781,773,747,717,686,656,616,598,582,561,548,522,516,512,511,511,508],"ymouse":[577,577,577,577,577,577,577,577,577,577,577,577,577,577,577,577,577,577,577,577,577,577,577,577,577,577,577,577,577,577,577,577,577,577,577,577,577,577,575,574,557,533,466,386,285,185,0,0,0,0,0,0,0,0,0,0,2],"timestamp_mouse":[9,33,41,61,82,102,121,140,162,182,202,221,240,261,282,302,321,341,362,380,402,421,441,461,481,501,522,542,561,580,602,621,640,661,681,700,720,741,762,780,807,820,841,861,882,902,920,940,962,982,1001,1022,1042,1062,1082,1102,1121],"xSR":741.5,"ySR":573.95,"xT1":424.9,"yT1":0,"xT2":1058.1,"yT2":0,"toosoon":0,"cond_shown":"randomdotsizeEA","ratio_trial":250,"smaller_num":"2","larger_num":"8","correct_side":1,"subjID":"GabrielaMontealegre25","gender":"1","age":"8","school":"4"},{"start_time":1552328366534,"click_time":1552328367695,"finger_time":1552328367095,"fix_duration":277.38998026355154,"trial":38,"RT":561,"MT":600,"sideResp":2,"stimulus":"img/500/equaldotsize/R/9_Ratio_500_L_2_R_4.png","xmouse":[786,786,786,786,786,786,786,786,786,786,786,786,786,786,786,786,786,786,786,786,786,786,786,786,786,787,789,792,803,810,821,831,846,870,880,888,899,905,917,926,933,941,948,965,971,980,990,991,992,992,993,996,1001,1012,1017,1023,1032,1043,1061],"ymouse":[605,605,605,605,605,605,605,605,605,605,605,605,605,605,605,605,605,605,605,605,605,605,605,603,601,599,591,585,560,543,522,501,461,401,377,360,337,325,302,288,275,259,240,188,168,148,129,127,127,127,127,126,125,114,105,97,85,69,46],"timestamp_mouse":[9,22,40,61,81,101,121,141,161,182,202,221,242,261,281,301,321,341,362,382,402,420,440,462,481,500,521,541,561,582,601,622,641,661,681,700,720,741,761,782,801,822,841,862,882,901,921,941,960,980,1001,1022,1041,1061,1080,1102,1122,1142,1161],"xSR":741.5,"ySR":573.95,"xT1":424.9,"yT1":0,"xT2":1058.1,"yT2":0,"toosoon":0,"cond_shown":"equaldotsize","ratio_trial":500,"smaller_num":"2","larger_num":"4","correct_side":2,"subjID":"GabrielaMontealegre25","gender":"1","age":"8","school":"4"},{"start_time":1552328369297,"click_time":1552328371116,"finger_time":1552328369954,"fix_duration":380.49011332035474,"trial":39,"RT":657,"MT":1162,"sideResp":2,"stimulus":"img/900/equaldotanddens/L/10_Ratio_900_L_20_R_18.png","xmouse":[819,819,819,819,819,819,819,819,819,819,819,819,819,819,819,819,819,819,819,819,819,819,819,819,819,819,819,818,818,815,814,811,805,799,778,762,746,724,705,674,589,557,530,521,517,517,520,526,534,548,633,706,788,869,1009,1088,1124,1144,1157,1177,1183,1186,1193,1199,1208,1210,1210,1210,1206,1198,1194,1190,1187,1184,1179,1152,1137,1125,1112,1107,1107,1107,1107,1107,1107,1107,1107,1107,1107,1106,1106],"ymouse":[624,624,624,624,624,624,624,624,624,624,624,624,624,624,624,624,622,620,618,616,612,610,609,607,604,601,599,598,596,590,585,578,567,556,529,504,481,454,430,403,334,306,283,268,259,254,251,250,250,248,242,242,242,242,237,229,219,212,207,196,191,188,181,174,159,140,133,125,116,111,110,110,110,110,110,110,108,106,104,102,102,102,102,102,102,102,102,102,102,102,96],"timestamp_mouse":[18,38,62,78,97,117,139,158,179,198,218,237,259,279,298,319,339,358,379,398,419,439,459,478,499,518,537,557,579,599,619,638,657,678,699,717,739,758,778,798,818,838,859,878,898,917,939,957,979,998,1019,1038,1059,1078,1099,1117,1137,1157,1177,1199,1218,1238,1258,1278,1298,1319,1339,1359,1377,1399,1418,1439,1459,1479,1498,1518,1538,1558,1578,1599,1618,1637,1658,1679,1699,1717,1737,1759,1779,1798,1818],"xSR":741.5,"ySR":573.95,"xT1":424.9,"yT1":0,"xT2":1058.1,"yT2":0,"toosoon":0,"cond_shown":"equaldotanddens","ratio_trial":900,"smaller_num":"18","larger_num":"20","correct_side":1,"subjID":"GabrielaMontealegre25","gender":"1","age":"8","school":"4"},{"start_time":1552328375727,"click_time":1552328377076,"finger_time":1552328376555,"fix_duration":571.1065038826752,"trial":40,"RT":828,"MT":521,"sideResp":2,"stimulus":"img/500/equaldotanddens/R/15_Ratio_500_L_1_R_2.png","xmouse":[797,797,797,797,797,797,797,797,797,797,797,797,797,797,797,797,797,797,797,797,797,796,795,794,793,791,789,789,789,789,789,789,789,789,789,789,791,792,793,805,816,834,849,873,893,944,970,999,1024,1060,1087,1100,1108,1114,1116,1117,1117,1117,1117,1117,1117,1117,1117,1117,1117,1117,1117,1117],"ymouse":[637,637,637,637,637,637,637,637,637,637,637,637,637,637,637,637,637,637,637,637,637,637,638,639,642,644,646,647,647,647,647,647,645,644,640,638,634,631,626,601,584,549,516,473,425,309,247,182,115,0,0,0,0,0,0,0,0,0,0,0,0,0,0,0,0,0,0,1],"timestamp_mouse":[11,33,48,69,89,108,128,149,168,187,207,229,248,269,289,308,328,349,368,389,409,429,448,469,488,508,528,549,569,589,607,629,649,668,688,709,727,748,768,788,809,828,849,869,888,909,929,949,968,990,1008,1028,1048,1068,1089,1108,1128,1147,1167,1189,1208,1228,1248,1268,1288,1308,1328,1349],"xSR":741.5,"ySR":573.95,"xT1":424.9,"yT1":0,"xT2":1058.1,"yT2":0,"toosoon":0,"cond_shown":"equaldotanddens","ratio_trial":500,"smaller_num":"1","larger_num":"2","correct_side":2,"subjID":"GabrielaMontealegre25","gender":"1","age":"8","school":"4"},{"start_time":1552328380124,"click_time":1552328381515,"finger_time":1552328380856,"fix_duration":1306.9177090792077,"trial":41,"RT":732,"MT":659,"sideResp":2,"stimulus":"img/750/equaldotsize/R/12_Ratio_750_L_3_R_4.png","xmouse":[788,788,788,788,788,788,788,788,788,788,788,788,788,788,788,788,788,788,788,788,788,788,788,788,788,788,788,788,788,788,788,788,788,789,789,790,790,789,786,781,769,765,762,760,757,753,750,748,746,741,734,733,733,733,740,761,778,795,818,839,877,886,893,903,914,953,974,998,1032,1090],"ymouse":[585,585,585,585,585,585,585,585,585,585,585,585,585,585,585,585,585,585,585,585,585,585,585,585,585,585,585,585,585,585,585,585,585,584,583,579,572,562,551,539,510,504,497,489,484,470,461,452,442,432,416,413,409,403,396,376,364,353,335,316,280,269,259,248,237,210,193,175,141,95],"timestamp_mouse":[10,40,52,71,91,112,130,150,172,190,210,230,251,272,292,312,330,351,370,391,412,431,450,471,492,512,531,552,572,591,610,632,651,670,692,711,732,751,772,792,811,831,851,871,891,912,931,952,971,990,1010,1031,1051,1072,1091,1112,1131,1152,1172,1191,1212,1231,1252,1271,1291,1312,1332,1352,1371,1391],"xSR":741.5,"ySR":573.95,"xT1":424.9,"yT1":0,"xT2":1058.1,"yT2":0,"toosoon":0,"cond_shown":"equaldotsize","ratio_trial":750,"smaller_num":"3","larger_num":"4","correct_side":2,"subjID":"GabrielaMontealegre25","gender":"1","age":"8","school":"4"},{"start_time":1552328385184,"click_time":1552328386695,"finger_time":1552328385956,"fix_duration":886.3311556098846,"trial":42,"RT":772,"MT":739,"sideResp":1,"stimulus":"img/750/randomdotsizeEA/R/2_Ratio_750_L_6_R_8.png","xmouse":[775,775,775,775,775,775,775,775,775,775,775,775,775,775,775,775,775,775,775,775,775,775,775,775,775,775,775,775,775,775,775,775,775,775,775,775,775,775,768,758,745,732,703,682,670,660,649,627,616,604,594,587,573,566,558,556,554,549,540,530,519,509,497,495,495,495,495,495,495,495,495,495,494,493,491,490],"ymouse":[618,618,618,618,618,618,618,618,618,618,618,618,618,618,618,618,618,618,618,618,618,618,618,618,618,618,618,618,618,617,617,617,616,616,614,612,608,590,573,556,539,520,480,449,429,410,390,353,338,321,309,297,276,265,254,252,249,243,231,215,196,179,151,144,143,143,143,143,143,142,140,139,136,119,108,98],"timestamp_mouse":[17,37,51,72,92,111,130,150,171,192,212,230,251,270,290,311,332,352,371,391,411,431,450,472,492,511,530,552,572,592,611,631,652,672,691,711,731,751,772,790,811,830,852,871,892,911,931,952,970,991,1010,1031,1053,1070,1092,1111,1131,1151,1171,1192,1212,1231,1252,1270,1292,1311,1330,1352,1372,1391,1412,1432,1450,1470,1491,1511],"xSR":741.5,"ySR":573.95,"xT1":424.9,"yT1":0,"xT2":1058.1,"yT2":0,"toosoon":0,"cond_shown":"randomdotsizeEA","ratio_trial":750,"smaller_num":"6","larger_num":"8","correct_side":2,"subjID":"GabrielaMontealegre25","gender":"1","age":"8","school":"4"},{"start_time":1552328389553,"click_time":1552328391196,"finger_time":1552328390535,"fix_duration":1455.65739895115,"trial":43,"RT":982,"MT":661,"sideResp":1,"stimulus":"img/500/equaldotsize/L/11_Ratio_500_L_12_R_6.png","xmouse":[793,793,793,793,793,793,793,793,793,793,793,793,793,793,793,793,793,793,793,793,793,793,793,793,793,794,794,795,796,798,802,803,805,805,805,805,805,805,805,805,806,807,807,807,807,807,807,807,806,804,800,797,794,791,787,771,757,734,677,612,477,419,344,330,306,298,298,299,301,302,303,304,306,311,318,326,330,334,338,342,374,402,443],"ymouse":[642,642,642,642,642,642,642,642,642,642,642,642,642,642,642,642,642,642,642,642,642,642,642,642,641,637,636,634,632,631,625,624,621,620,618,618,618,618,618,618,614,609,606,603,599,590,587,582,576,568,559,552,546,538,529,491,464,413,338,266,145,102,58,46,29,23,22,20,18,17,16,15,14,14,14,14,14,14,14,14,16,23,35],"timestamp_mouse":[10,30,41,62,82,103,122,142,161,183,203,223,241,263,283,302,322,342,363,381,402,422,442,463,482,501,523,542,562,583,601,622,641,662,683,703,721,741,762,782,802,823,842,863,883,902,921,943,963,982,1002,1021,1043,1062,1082,1101,1122,1142,1163,1182,1202,1222,1242,1262,1281,1301,1322,1342,1363,1382,1402,1421,1442,1462,1482,1501,1523,1542,1563,1582,1602,1622,1642],"xSR":741.5,"ySR":573.95,"xT1":424.9,"yT1":0,"xT2":1058.1,"yT2":0,"toosoon":0,"cond_shown":"equaldotsize","ratio_trial":500,"smaller_num":"6","larger_num":"12","correct_side":1,"subjID":"GabrielaMontealegre25","gender":"1","age":"8","school":"4"},{"start_time":1552328394556,"click_time":1552328395435,"finger_time":1552328395276,"fix_duration":559.2379658346811,"trial":44,"RT":720,"MT":159,"sideResp":1,"stimulus":"img/250/equaldotsize/L/14_Ratio_250_L_12_R_3.png","xmouse":[816,816,816,816,816,816,816,816,816,816,816,816,816,816,816,816,816,816,816,816,816,816,816,816,816,816,816,816,816,816,814,812,807,801,789,758,735,708,679,646,564,543,530,521],"ymouse":[634,634,634,634,634,634,634,634,634,634,634,634,634,634,634,634,634,634,634,634,634,634,634,634,634,634,634,634,634,634,628,620,609,598,580,537,503,449,369,278,132,102,83,70],"timestamp_mouse":[29,39,60,80,99,119,139,159,179,200,220,239,259,280,299,319,338,359,379,400,420,439,458,480,500,519,539,558,580,599,620,640,659,679,699,720,739,760,778,798,818,838,859,879],"xSR":741.5,"ySR":573.95,"xT1":424.9,"yT1":0,"xT2":1058.1,"yT2":0,"toosoon":0,"cond_shown":"equaldotsize","ratio_trial":250,"smaller_num":"3","larger_num":"12","correct_side":1,"subjID":"GabrielaMontealegre25","gender":"1","age":"8","school":"4"},{"start_time":1552328398858,"click_time":1552328400316,"finger_time":1552328399616,"fix_duration":381.93033505794017,"trial":45,"RT":758,"MT":700,"sideResp":2,"stimulus":"img/750/equaldotanddens/L/6_Ratio_750_L_24_R_18.png","xmouse":[824,824,824,824,824,824,824,824,824,824,824,824,824,824,824,824,824,824,824,824,824,824,824,824,824,824,824,824,824,824,824,824,824,824,824,822,821,820,819,818,818,818,818,818,818,818,818,823,831,841,864,872,879,885,890,903,915,931,949,967,990,995,995,995,995,995,995,995,995,1000,1024,1050,1080],"ymouse":[637,637,637,637,637,637,637,637,637,637,637,637,637,637,637,637,637,637,637,637,637,637,637,637,637,637,637,637,637,636,634,632,629,626,622,601,590,573,553,531,471,430,384,327,264,210,188,163,144,123,86,74,63,57,54,52,52,52,52,52,52,51,51,51,51,51,51,51,51,53,60,63,68],"timestamp_mouse":[17,40,56,76,98,117,138,157,176,198,217,237,258,277,298,317,336,358,376,396,417,437,457,477,498,518,536,557,578,597,617,637,658,678,697,717,738,758,778,797,817,838,858,878,898,918,937,957,978,997,1017,1037,1058,1077,1097,1117,1137,1157,1177,1197,1218,1237,1256,1277,1296,1316,1337,1357,1378,1398,1417,1437,1458],"xSR":741.5,"ySR":573.95,"xT1":424.9,"yT1":0,"xT2":1058.1,"yT2":0,"toosoon":0,"cond_shown":"equaldotanddens","ratio_trial":750,"smaller_num":"18","larger_num":"24","correct_side":1,"subjID":"GabrielaMontealegre25","gender":"1","age":"8","school":"4"},{"start_time":1552328404243,"click_time":1552328405876,"finger_time":1552328405176,"fix_duration":1285.7396161683887,"trial":46,"RT":933,"MT":700,"sideResp":2,"stimulus":"img/750/randomdotsizeEA/L/1_Ratio_750_L_20_R_15.png","xmouse":[792,792,792,792,792,792,792,792,792,792,792,792,792,792,792,792,792,792,792,792,792,792,792,792,792,792,792,792,792,792,792,792,792,792,792,792,792,792,792,792,792,792,792,793,796,803,815,825,839,856,873,884,901,907,917,931,943,967,985,1005,1024,1038,1055,1055,1055,1055,1055,1055,1055,1055,1055,1055,1055,1055,1055,1055,1055,1056,1057,1058,1058,1059],"ymouse":[640,640,640,640,640,640,640,640,640,640,640,640,640,640,640,640,640,640,640,640,640,640,640,640,640,640,640,640,640,640,640,640,640,640,640,640,640,640,640,640,640,639,635,628,615,596,553,518,469,419,374,333,254,232,214,194,177,144,127,110,97,86,60,59,59,59,59,59,59,59,59,59,59,59,59,59,59,58,58,58,58,58],"timestamp_mouse":[12,37,51,72,93,112,132,151,173,193,213,232,252,272,292,313,333,351,373,393,412,433,452,472,491,512,533,551,571,593,611,632,653,673,693,711,732,752,773,792,813,832,853,873,891,911,933,952,973,993,1013,1033,1052,1072,1092,1113,1132,1152,1172,1192,1211,1232,1253,1272,1292,1313,1333,1352,1372,1393,1411,1432,1452,1473,1492,1512,1532,1552,1573,1592,1612,1633],"xSR":741.5,"ySR":573.95,"xT1":424.9,"yT1":0,"xT2":1058.1,"yT2":0,"toosoon":0,"cond_shown":"randomdotsizeEA","ratio_trial":750,"smaller_num":"15","larger_num":"20","correct_side":1,"subjID":"GabrielaMontealegre25","gender":"1","age":"8","school":"4"},{"start_time":1552328407771,"click_time":1552328409395,"finger_time":1552328407815,"fix_duration":513.7310033088086,"trial":47,"RT":44,"MT":1580,"sideResp":1,"stimulus":"img/900/randomdotsizeEA/L/10_Ratio_900_L_20_R_18.png","xmouse":[797,804,806,807,807,808,808,808,808,808,808,808,808,808,808,807,807,807,807,807,807,807,807,807,807,807,807,807,807,807,807,807,807,807,807,807,819,828,833,839,843,851,855,860,864,869,873,885,889,895,899,903,903,903,899,887,856,838,823,807,793,767,757,744,729,722,705,700,695,691,684,660,646,624,614,604,588,576,563,544,530,519],"ymouse":[582,575,572,570,570,570,570,570,570,570,570,572,577,579,582,583,583,583,583,583,583,583,583,583,583,583,583,583,583,583,583,583,583,583,581,579,553,535,520,506,495,473,463,452,443,431,422,397,385,374,363,345,335,320,310,294,271,259,250,241,231,214,207,201,196,194,192,190,189,188,186,177,172,161,158,151,141,133,122,109,98,91],"timestamp_mouse":[4,37,44,63,83,103,124,144,163,183,204,225,243,265,285,303,323,343,365,384,404,424,445,464,484,504,523,545,565,584,603,625,644,665,684,703,723,745,764,784,805,824,844,864,883,904,924,944,964,984,1004,1025,1044,1064,1084,1104,1124,1145,1164,1185,1204,1224,1243,1263,1283,1305,1324,1345,1364,1384,1404,1425,1444,1465,1485,1505,1524,1545,1564,1584,1605,1624],"xSR":741.5,"ySR":573.95,"xT1":424.9,"yT1":0,"xT2":1058.1,"yT2":0,"toosoon":0,"cond_shown":"randomdotsizeEA","ratio_trial":900,"smaller_num":"18","larger_num":"20","correct_side":1,"subjID":"GabrielaMontealegre25","gender":"1","age":"8","school":"4"},{"start_time":1552328410928,"click_time":1552328412195,"finger_time":1552328411716,"fix_duration":250,"trial":48,"RT":788,"MT":479,"sideResp":2,"stimulus":"img/250/equaldotanddens/R/12_Ratio_250_L_5_R_20.png","xmouse":[769,769,769,769,769,769,769,769,769,769,769,769,769,769,769,769,769,769,769,769,770,770,770,770,771,771,771,771,771,771,771,771,771,773,773,774,775,776,782,790,806,830,859,916,934,950,959,968,977,994,998,1001,1003,1005,1006,1009,1009,1013,1021,1026,1035,1043,1053,1071],"ymouse":[592,592,592,592,592,592,592,592,592,592,592,592,592,592,592,592,592,592,593,593,593,593,593,593,592,592,592,592,592,592,592,592,592,591,591,590,589,586,576,562,540,511,482,432,413,387,369,347,325,281,265,249,236,222,216,208,201,192,174,161,143,122,97,56],"timestamp_mouse":[11,30,48,67,87,106,127,148,168,186,207,228,247,267,287,307,326,348,367,386,408,427,448,467,488,506,527,548,566,587,607,628,648,667,688,707,727,748,767,788,807,828,847,867,886,907,927,947,967,988,1007,1027,1047,1069,1087,1107,1126,1148,1168,1186,1208,1228,1248,1267],"xSR":741.5,"ySR":573.95,"xT1":424.9,"yT1":0,"xT2":1058.1,"yT2":0,"toosoon":0,"cond_shown":"equaldotanddens","ratio_trial":250,"smaller_num":"5","larger_num":"20","correct_side":2,"subjID":"GabrielaMontealegre25","gender":"1","age":"8","school":"4"},{"start_time":1552328414422,"click_time":1552328415596,"finger_time":1552328415156,"fix_duration":685.4229623411669,"trial":49,"RT":734,"MT":440,"sideResp":1,"stimulus":"img/250/equaldotsize/L/3_Ratio_250_L_8_R_2.png","xmouse":[825,826,826,826,826,826,826,826,826,826,826,826,826,826,826,826,826,826,826,826,826,826,826,826,826,826,826,825,825,824,823,822,820,819,813,808,799,788,772,725,708,697,689,682,671,669,665,660,655,646,642,638,633,625,600,575,549,520,497],"ymouse":[609,609,609,609,609,609,609,609,609,609,609,609,609,609,609,609,609,609,609,609,609,609,609,608,607,606,606,605,603,602,601,599,596,595,585,575,559,539,517,449,426,408,395,382,361,349,339,326,317,296,290,281,274,262,226,195,161,124,81],"timestamp_mouse":[14,38,54,74,92,114,133,154,174,194,212,234,253,272,293,313,333,353,373,393,414,434,454,473,493,513,533,554,574,592,614,633,653,674,694,714,734,753,773,793,814,833,853,874,893,912,933,952,974,993,1012,1033,1054,1074,1093,1113,1133,1154,1174],"xSR":741.5,"ySR":573.95,"xT1":424.9,"yT1":0,"xT2":1058.1,"yT2":0,"toosoon":0,"cond_shown":"equaldotsize","ratio_trial":250,"smaller_num":"2","larger_num":"8","correct_side":1,"subjID":"GabrielaMontealegre25","gender":"1","age":"8","school":"4"},{"start_time":1552328417718,"click_time":1552328419215,"finger_time":1552328418215,"fix_duration":520.9157529322468,"trial":50,"RT":497,"MT":1000,"sideResp":2,"stimulus":"img/500/equaldotanddens/R/3_Ratio_500_L_10_R_20.png","xmouse":[803,803,803,803,803,803,803,803,803,803,803,803,803,803,803,803,803,803,803,803,804,805,805,806,807,808,808,809,810,812,815,819,821,825,834,839,845,851,859,872,877,883,888,890,893,893,893,893,893,892,886,884,879,875,865,862,860,860,860,860,860,860,860,860,860,862,877,897,917,954,968,981,1006,1021,1061],"ymouse":[589,589,589,589,589,589,589,589,589,589,589,589,589,589,589,589,588,588,586,586,585,583,582,578,570,565,560,556,548,537,527,514,504,490,460,446,428,414,396,363,346,330,311,300,285,279,273,268,263,259,248,247,243,241,237,236,235,235,235,235,235,235,235,235,234,229,218,203,187,157,147,136,123,116,98],"timestamp_mouse":[29,37,57,77,98,117,137,158,178,196,217,238,257,278,297,318,338,356,377,398,417,438,456,477,497,516,536,557,577,599,618,638,658,678,697,717,737,758,777,796,816,837,857,878,896,917,937,957,978,997,1017,1036,1058,1078,1098,1118,1137,1157,1177,1197,1217,1236,1257,1278,1297,1317,1337,1356,1377,1398,1417,1437,1456,1478,1497],"xSR":741.5,"ySR":573.95,"xT1":424.9,"yT1":0,"xT2":1058.1,"yT2":0,"toosoon":0,"cond_shown":"equaldotanddens","ratio_trial":500,"smaller_num":"10","larger_num":"20","correct_side":2,"subjID":"GabrielaMontealegre25","gender":"1","age":"8","school":"4"},{"start_time":1552328421287,"click_time":1552328422616,"finger_time":1552328421936,"fix_duration":1070.364940929805,"trial":51,"RT":649,"MT":680,"sideResp":1,"stimulus":"img/250/equaldotanddens/L/1_Ratio_250_L_8_R_2.png","xmouse":[789,789,789,789,789,789,789,789,789,789,789,789,789,789,789,789,789,789,789,789,789,789,790,791,791,791,791,791,791,791,791,791,790,789,787,785,782,778,774,770,764,754,726,705,686,655,622,568,544,524,507,485,470,464,459,454,449,442,441,441,441,441,441,441,441,441,441],"ymouse":[655,655,655,655,655,654,654,652,652,652,651,651,651,651,650,650,647,646,644,642,639,630,625,618,613,608,603,595,591,588,585,580,572,568,562,555,543,516,501,485,468,441,396,370,349,320,297,258,244,229,216,196,180,173,165,158,150,140,136,134,133,129,123,117,109,100,93],"timestamp_mouse":[10,33,48,67,89,109,128,148,169,189,209,227,248,268,289,309,329,348,368,389,408,429,449,467,488,509,528,549,569,589,608,627,649,668,689,708,727,748,768,788,808,828,848,869,888,909,929,949,968,989,1007,1029,1048,1068,1088,1108,1128,1148,1168,1189,1209,1229,1247,1269,1289,1309,1329],"xSR":741.5,"ySR":573.95,"xT1":424.9,"yT1":0,"xT2":1058.1,"yT2":0,"toosoon":0,"cond_shown":"equaldotanddens","ratio_trial":250,"smaller_num":"2","larger_num":"8","correct_side":1,"subjID":"GabrielaMontealegre25","gender":"1","age":"8","school":"4"},{"start_time":1552328424427,"click_time":1552328425794,"finger_time":1552328425135,"fix_duration":250,"trial":52,"RT":708,"MT":659,"sideResp":1,"stimulus":"img/500/equaldotsize/L/10_Ratio_500_L_4_R_2.png","xmouse":[762,764,765,766,766,766,766,766,766,766,766,766,766,766,766,766,766,766,766,766,766,766,766,766,766,766,766,766,766,766,765,765,763,762,758,750,746,740,733,726,717,713,709,705,699,685,676,666,649,628,581,567,555,548,529,499,492,486,485,485,485,485,484,484,484,482,481,481,480],"ymouse":[598,598,598,599,599,599,599,599,599,599,599,599,599,599,599,599,599,599,599,599,599,599,599,598,598,598,598,598,597,596,596,595,591,590,581,568,560,553,545,536,526,522,518,512,501,470,449,427,394,348,235,181,140,103,52,0,0,0,0,0,0,0,0,0,0,0,0,0,2],"timestamp_mouse":[8,33,48,69,87,109,129,148,167,188,208,229,249,268,288,309,328,349,369,388,408,428,448,469,489,507,527,549,569,588,608,628,648,668,688,708,728,749,768,787,808,829,849,868,888,907,927,948,968,988,1009,1027,1048,1068,1089,1107,1128,1148,1168,1188,1208,1229,1249,1268,1288,1308,1327,1348,1367],"xSR":741.5,"ySR":573.95,"xT1":424.9,"yT1":0,"xT2":1058.1,"yT2":0,"toosoon":0,"cond_shown":"equaldotsize","ratio_trial":500,"smaller_num":"2","larger_num":"4","correct_side":1,"subjID":"GabrielaMontealegre25","gender":"1","age":"8","school":"4"},{"start_time":1552328428601,"click_time":1552328430115,"finger_time":1552328429216,"fix_duration":1124.43817222405,"trial":53,"RT":615,"MT":899,"sideResp":1,"stimulus":"img/900/randomdotsizeEA/L/4_Ratio_900_L_20_R_18.png","xmouse":[786,786,786,786,786,786,786,786,786,786,786,786,786,786,786,786,786,787,788,788,788,790,791,793,794,795,796,797,797,798,799,801,806,817,823,829,832,833,833,821,810,777,761,744,737,730,717,710,701,685,667,645,598,557,530,501,476,437,423,417,417,417,417,417,417,417,417,417,417,417,417,416,418,420,422,427],"ymouse":[585,585,585,585,585,585,585,585,585,585,585,585,585,585,585,585,585,584,583,583,583,580,580,579,579,578,577,576,575,574,573,568,557,533,513,490,437,404,373,338,315,282,270,260,257,253,242,235,222,202,179,155,109,63,25,0,0,0,0,0,0,0,0,0,0,0,0,0,0,0,0,3,5,8,12,18],"timestamp_mouse":[14,34,53,73,95,114,134,154,175,194,215,234,254,274,295,315,334,353,374,395,415,434,453,475,494,515,534,554,574,595,615,634,654,675,693,714,735,753,774,794,813,835,853,874,894,914,934,953,974,994,1014,1035,1054,1074,1095,1115,1135,1154,1174,1194,1214,1234,1255,1275,1295,1314,1335,1353,1374,1394,1414,1436,1454,1474,1495,1514],"xSR":741.5,"ySR":573.95,"xT1":424.9,"yT1":0,"xT2":1058.1,"yT2":0,"toosoon":0,"cond_shown":"randomdotsizeEA","ratio_trial":900,"smaller_num":"18","larger_num":"20","correct_side":1,"subjID":"GabrielaMontealegre25","gender":"1","age":"8","school":"4"},{"start_time":1552328431799,"click_time":1552328433715,"finger_time":1552328432655,"fix_duration":382.9538225744281,"trial":54,"RT":856,"MT":1060,"sideResp":1,"stimulus":"img/750/equaldotanddens/L/1_Ratio_750_L_20_R_15.png","xmouse":[789,789,789,789,789,789,789,789,789,789,789,789,789,789,789,789,789,790,790,790,791,791,791,792,792,792,792,792,792,792,792,792,792,792,792,792,792,792,793,794,794,794,786,774,759,741,719,667,636,609,583,578,559,554,548,542,538,529,527,524,522,522,521,521,521,520,519,518,518,518,518,518,518,518,518,518,518,518,518,518,517,517,517,516,516,516,514,505,503,502,501,501,499,496,489,482],"ymouse":[655,655,655,655,655,655,655,655,655,655,655,655,655,655,655,655,655,653,652,650,648,646,644,643,643,642,642,642,642,642,642,642,642,642,642,642,642,641,636,630,619,598,557,533,513,490,466,417,388,365,339,332,296,283,270,257,246,225,214,204,190,186,166,150,137,128,120,113,113,113,113,113,113,113,113,113,113,113,113,113,111,109,108,106,106,105,105,105,105,105,105,105,105,103,100,97],"timestamp_mouse":[17,37,56,75,97,117,136,156,176,196,216,236,255,276,295,316,336,356,377,397,416,436,456,476,497,516,536,557,576,595,615,636,656,676,696,717,736,757,777,797,816,835,856,876,896,917,937,956,975,996,1016,1036,1056,1076,1096,1117,1136,1157,1176,1197,1216,1235,1255,1277,1296,1316,1337,1356,1377,1396,1416,1435,1455,1476,1495,1517,1537,1557,1577,1596,1616,1636,1657,1677,1695,1717,1736,1757,1776,1797,1815,1835,1857,1876,1895,1916],"xSR":741.5,"ySR":573.95,"xT1":424.9,"yT1":0,"xT2":1058.1,"yT2":0,"toosoon":0,"cond_shown":"equaldotanddens","ratio_trial":750,"smaller_num":"15","larger_num":"20","correct_side":1,"subjID":"GabrielaMontealegre25","gender":"1","age":"8","school":"4"},{"start_time":1552328435938,"click_time":1552328436655,"finger_time":1552328436476,"fix_duration":1021.7888324063722,"trial":55,"RT":538,"MT":179,"sideResp":1,"stimulus":"img/250/equaldotanddens/L/2_Ratio_250_L_16_R_4.png","xmouse":[776,776,776,776,776,776,776,776,776,776,776,776,776,776,776,776,776,776,776,776,776,776,776,776,776,776,773,770,761,751,717,690,636,598,554,458],"ymouse":[591,591,591,591,591,591,591,591,591,591,591,591,591,591,591,591,591,591,591,591,591,591,591,589,586,576,566,556,538,519,460,410,309,243,173,64],"timestamp_mouse":[31,36,57,78,96,117,136,158,178,198,217,238,257,276,298,317,337,358,377,397,417,437,456,478,497,517,538,557,578,598,618,637,657,677,698,717],"xSR":741.5,"ySR":573.95,"xT1":424.9,"yT1":0,"xT2":1058.1,"yT2":0,"toosoon":0,"cond_shown":"equaldotanddens","ratio_trial":250,"smaller_num":"4","larger_num":"16","correct_side":1,"subjID":"GabrielaMontealegre25","gender":"1","age":"8","school":"4"},{"start_time":1552328438895,"click_time":1552328440375,"finger_time":1552328439735,"fix_duration":337.1001789531638,"trial":56,"RT":840,"MT":640,"sideResp":2,"stimulus":"img/750/equaldotsize/L/10_Ratio_750_L_4_R_3.png","xmouse":[785,785,785,785,785,785,785,785,785,785,785,785,785,785,785,785,785,785,785,785,785,785,785,785,785,785,785,785,785,785,785,785,785,785,785,785,785,785,785,786,788,792,796,818,835,844,851,859,865,879,893,917,942,956,964,964,964,964,964,976,987,1000,1011,1014,1014,1014,1015,1017,1019,1027,1034,1041,1049,1053,1059],"ymouse":[607,607,607,607,607,607,607,607,607,607,607,607,607,607,607,607,607,607,607,607,607,607,607,607,607,607,607,607,607,607,607,607,607,607,607,606,604,602,601,594,588,576,563,515,478,460,442,421,403,3