[{"start_time":1552327441111,"click_time":1552327443976,"finger_time":1552327441334,"fix_duration":250,"trial":0,"RT":223,"MT":2642,"sideResp":1,"stimulus":[],"xmouse":[814,814,815,815,815,815,816,816,816,816,816,816,816,816,816,816,816,816,816,816,816,816,816,815,815,814,813,813,813,813,813,813,813,813,813,813,813,813,813,813,813,813,814,814,814,814,814,814,814,814,814,814,814,814,814,814,814,814,814,814,814,814,814,814,814,814,814,814,814,814,814,814,814,814,814,814,814,814,814,814,814,814,814,814,814,814,814,814,814,814,814,814,814,814,814,813,813,812,811,810,810,810,810,810,810,808,807,806,804,802,800,795,767,732,644,623,588,551,541,536,531,527,516,513,510,507,507,507,505,500,491,480,455,439,428,413,406,404,407,409,412,415,423,425],"ymouse":[587,587,585,584,584,584,583,583,583,580,577,572,568,567,567,567,567,567,567,567,567,567,572,574,582,584,591,592,594,595,596,598,602,604,604,604,604,604,605,605,606,608,609,610,611,612,613,613,613,613,613,613,613,613,613,613,613,613,613,614,614,614,614,614,614,614,614,614,614,614,614,614,614,614,614,614,614,614,614,614,614,614,614,614,614,614,614,614,614,614,614,614,614,614,615,616,617,619,619,620,620,620,620,620,620,621,621,621,621,621,621,619,603,578,527,515,490,459,446,438,432,428,421,415,402,382,342,279,261,246,223,205,162,135,109,72,49,15,10,8,7,7,8,9],"timestamp_mouse":[5,30,44,64,84,104,123,144,163,184,203,223,244,263,284,303,325,343,364,383,403,424,444,464,483,503,524,544,564,584,603,623,643,664,683,704,724,744,763,783,803,824,843,863,883,904,923,943,963,983,1003,1024,1044,1064,1085,1104,1124,1143,1163,1183,1203,1224,1245,1263,1284,1303,1323,1344,1364,1384,1404,1423,1444,1463,1483,1504,1524,1545,1564,1584,1603,1623,1644,1663,1683,1704,1724,1744,1764,1785,1804,1823,1843,1863,1883,1903,1923,1943,1963,1983,2003,2024,2043,2063,2083,2103,2123,2145,2163,2183,2203,2224,2243,2263,2283,2303,2324,2344,2363,2383,2403,2423,2445,2463,2484,2504,2524,2543,2563,2583,2603,2623,2643,2664,2684,2703,2724,2743,2763,2783,2803,2823,2845,2864],"xSR":741.5,"ySR":469.95,"xT1":424.9,"yT1":0,"xT2":1058.1,"yT2":0,"toosoon":0,"cond_shown":"Congruent","ratio_trial":200,"L_num":16,"L_den":20,"R_num":12,"R_den":20,"correct_side":1,"subjID":"GabrielaMontealegre25","gender":"1","age":"8","school":"4","test":{"fix_dur":[250,1500],"timestim":1000,"targets_dim":[100,100],"targets_relative_coord":[0.3,0.7],"size_stim":[880,420],"start_dim":[100,100],"size_start":[300,300],"size_fix":60,"samplingrate":20,"img_types":["Congruent","Incongruent"],"ratios":[100,200,300],"rep_conds":19,"nTrials":120,"trials_to_rest":500,"Trials_order":[20,19,68,57,58,36,50,30,86,72,81,43,29,5,33,79,114,103,1,63,65,94,74,38,73,80,82,115,64,111,15,34,2,55,78,7,76,11,85,77,8,62,28,12,90,51,13,53,45,106,92,31,54,83,9,104,75,56,66,17,67,41,93,27,21,14,87,99,32,42,6,110,25,4,70,100,23,112,89,35,48,52,37,46,96,118,119,49,0,22,98,88,105,97,59,107,116,71,84,26,108,102,109,39,101,18,40,44,3,117,60,61,47,113,24,10,95,91,16,69],"cond_shown":["Congruent","Incongruent","Congruent","Incongruent","Congruent","Congruent","Congruent","Congruent","Congruent","Congruent","Incongruent","Incongruent","Incongruent","Incongruent","Incongruent","Incongruent","Congruent","Incongruent","Incongruent","Incongruent","Incongruent","Congruent","Congruent","Congruent","Incongruent","Congruent","Congruent","Incongruent","Congruent","Incongruent","Incongruent","Congruent","Congruent","Incongruent","Congruent","Incongruent","Congruent","Incongruent","Incongruent","Incongruent","Congruent","Congruent","Congruent","Congruent","Congruent","Incongruent","Incongruent","Incongruent","Incongruent","Congruent","Congruent","Incongruent","Congruent","Incongruent","Incongruent","Congruent","Incongruent","Congruent","Congruent","Incongruent","Incongruent","Incongruent","Incongruent","Incongruent","Incongruent","Congruent","Incongruent","Incongruent","Congruent","Congruent","Congruent","Congruent","Incongruent","Congruent","Congruent","Congruent","Incongruent","Congruent","Incongruent","Incongruent","Congruent","Congruent","Incongruent","Congruent","Congruent","Congruent","Incongruent","Incongruent","Congruent","Congruent","Congruent","Congruent","Incongruent","Incongruent","Incongruent","Incongruent","Congruent","Incongruent","Congruent","Congruent","Congruent","Congruent","Incongruent","Incongruent","Incongruent","Congruent","Congruent","Congruent","Incongruent","Incongruent","Congruent","Incongruent","Incongruent","Incongruent","Congruent","Congruent","Incongruent","Incongruent","Congruent","Incongruent"],"ratio_trial":[200,100,200,200,300,100,200,100,200,100,200,100,300,300,200,100,100,100,100,200,300,300,200,200,100,200,300,100,300,200,200,300,200,100,100,100,300,300,100,300,200,200,300,100,100,200,100,300,200,300,200,100,100,300,200,200,200,200,100,300,100,300,200,200,200,200,200,200,200,100,100,200,100,300,300,300,300,300,300,300,100,300,100,300,100,300,300,100,100,300,200,300,200,100,300,300,200,300,100,200,100,100,100,200,300,100,300,200,200,200,100,100,300,300,100,300,300,100,300,200],"left_num":[16,9,20,4,2,10,16,11,3,9,7,1,4,1,7,6,11,9,11,14,8,20,4,8,2,3,3,8,2,7,4,3,3,13,2,11,3,8,6,4,4,1,1,9,6,7,3,4,14,2,21,13,3,1,7,8,14,3,4,2,10,8,1,11,7,1,4,4,7,6,7,15,13,2,11,1,3,8,4,4,9,3,4,1,10,3,7,9,12,3,6,18,7,3,13,4,16,3,1,6,3,1,9,11,4,3,1,6,9,9,12,8,2,1,7,2,4,9,18,4],"right_num":[12,14,9,14,12,3,9,4,14,8,12,8,2,3,6,11,4,14,9,12,14,13,3,2,8,11,2,1,10,12,1,11,11,6,11,9,11,14,3,2,3,21,3,8,5,14,8,8,12,12,2,12,2,3,14,7,6,7,6,6,8,14,2,3,8,21,1,6,2,15,9,4,6,10,4,7,4,1,6,2,8,11,8,6,3,4,8,20,13,11,7,9,8,7,12,2,12,4,18,11,4,3,13,3,2,2,11,3,8,8,13,1,6,2,9,12,2,14,9,1],"left_den":[20,15,25,6,10,25,30,22,10,15,10,2,20,2,15,10,22,15,22,30,10,25,8,15,4,10,6,20,20,10,30,12,10,26,5,22,12,10,12,20,8,2,5,15,20,10,5,5,30,10,30,26,6,2,10,15,30,10,8,4,25,10,3,20,10,2,30,5,21,12,14,25,26,20,22,20,6,16,5,20,15,12,8,5,25,6,10,10,30,12,12,20,10,9,26,20,20,6,2,20,20,2,15,20,20,6,5,15,15,15,30,20,4,2,14,10,20,15,20,30],"right_den":[20,28,15,30,24,10,27,10,28,16,24,20,4,15,9,22,10,28,15,18,28,26,10,6,20,22,10,2,25,24,3,20,22,10,22,15,20,28,5,4,10,30,6,16,25,28,16,16,18,24,4,20,5,15,28,21,9,14,10,30,16,28,15,4,16,30,3,10,15,25,15,10,10,25,20,20,20,5,12,4,16,20,20,12,10,5,20,25,26,20,10,15,16,30,15,4,20,20,30,22,16,5,26,4,4,5,22,15,10,10,26,2,30,10,15,24,4,28,15,3],"correct_side":[1,1,1,1,2,1,1,1,2,1,1,1,2,1,2,1,1,1,2,2,1,1,1,1,1,2,1,2,2,1,2,2,2,2,2,2,2,1,2,2,1,2,2,1,1,1,1,1,2,2,1,2,1,1,1,1,2,2,2,1,2,1,1,2,1,2,2,1,1,2,2,1,2,2,1,2,1,1,1,2,1,2,1,2,1,2,1,1,2,2,2,1,1,1,2,2,1,1,2,2,2,2,1,2,2,1,2,1,2,2,2,2,1,1,2,2,2,1,1,2],"img_shown":["img2/200/Congruent/L/C_Dist_200_LN_16_LD_20_RN_12_RD_20_0.png","img2/100/Incongruent/L/I_Dist_100_LN_9_LD_15_RN_14_RD_28_0.png","img2/200/Congruent/L/C_Dist_200_LN_20_LD_25_RN_9_RD_15_0.png","img2/200/Incongruent/L/I_Dist_200_LN_4_LD_6_RN_14_RD_30_0.png","img2/300/Congruent/R/C_Dist_300_LN_2_LD_10_RN_12_RD_24_1.png","img2/100/Congruent/L/C_Dist_100_LN_10_LD_25_RN_3_RD_10_0.png","img2/200/Congruent/L/C_Dist_200_LN_16_LD_30_RN_9_RD_27_0.png","img2/100/Congruent/L/C_Dist_100_LN_11_LD_22_RN_4_RD_10_0.png","img2/200/Congruent/R/C_Dist_200_LN_3_LD_10_RN_14_RD_28_1.png","img2/100/Congruent/L/C_Dist_100_LN_9_LD_15_RN_8_RD_16_0.png","img2/200/Incongruent/L/I_Dist_200_LN_7_LD_10_RN_12_RD_24_0.png","img2/100/Incongruent/L/I_Dist_100_LN_1_LD_2_RN_8_RD_20_0.png","img2/300/Incongruent/R/I_Dist_300_LN_4_LD_20_RN_2_RD_4_1.png","img2/300/Incongruent/L/I_Dist_300_LN_1_LD_2_RN_3_RD_15_0.png","img2/200/Incongruent/R/I_Dist_200_LN_7_LD_15_RN_6_RD_9_1.png","img2/100/Incongruent/L/I_Dist_100_LN_6_LD_10_RN_11_RD_22_0.png","img2/100/Congruent/L/C_Dist_100_LN_11_LD_22_RN_4_RD_10_0.png","img2/100/Incongruent/L/I_Dist_100_LN_9_LD_15_RN_14_RD_28_0.png","img2/100/Incongruent/R/I_Dist_100_LN_11_LD_22_RN_9_RD_15_1.png","img2/200/Incongruent/R/I_Dist_200_LN_14_LD_30_RN_12_RD_18_1.png","img2/300/Incongruent/L/I_Dist_300_LN_8_LD_10_RN_14_RD_28_0.png","img2/300/Congruent/L/C_Dist_300_LN_20_LD_25_RN_13_RD_26_0.png","img2/200/Congruent/L/C_Dist_200_LN_4_LD_8_RN_3_RD_10_0.png","img2/200/Congruent/L/C_Dist_200_LN_8_LD_15_RN_2_RD_6_0.png","img2/100/Incongruent/L/I_Dist_100_LN_2_LD_4_RN_8_RD_20_0.png","img2/200/Congruent/R/C_Dist_200_LN_3_LD_10_RN_11_RD_22_1.png","img2/300/Congruent/L/C_Dist_300_LN_3_LD_6_RN_2_RD_10_0.png","img2/100/Incongruent/R/I_Dist_100_LN_8_LD_20_RN_1_RD_2_1.png","img2/300/Congruent/R/C_Dist_300_LN_2_LD_20_RN_10_RD_25_1.png","img2/200/Incongruent/L/I_Dist_200_LN_7_LD_10_RN_12_RD_24_0.png","img2/200/Incongruent/R/I_Dist_200_LN_4_LD_30_RN_1_RD_3_1.png","img2/300/Congruent/R/C_Dist_300_LN_3_LD_12_RN_11_RD_20_1.png","img2/200/Congruent/R/C_Dist_200_LN_3_LD_10_RN_11_RD_22_1.png","img2/100/Incongruent/R/I_Dist_100_LN_13_LD_26_RN_6_RD_10_1.png","img2/100/Congruent/R/C_Dist_100_LN_2_LD_5_RN_11_RD_22_1.png","img2/100/Incongruent/R/I_Dist_100_LN_11_LD_22_RN_9_RD_15_1.png","img2/300/Congruent/R/C_Dist_300_LN_3_LD_12_RN_11_RD_20_1.png","img2/300/Incongruent/L/I_Dist_300_LN_8_LD_10_RN_14_RD_28_0.png","img2/100/Incongruent/R/I_Dist_100_LN_6_LD_12_RN_3_RD_5_1.png","img2/300/Incongruent/R/I_Dist_300_LN_4_LD_20_RN_2_RD_4_1.png","img2/200/Congruent/L/C_Dist_200_LN_4_LD_8_RN_3_RD_10_0.png","img2/200/Congruent/R/C_Dist_200_LN_1_LD_2_RN_21_RD_30_1.png","img2/300/Congruent/R/C_Dist_300_LN_1_LD_5_RN_3_RD_6_1.png","img2/100/Congruent/L/C_Dist_100_LN_9_LD_15_RN_8_RD_16_0.png","img2/100/Congruent/L/C_Dist_100_LN_6_LD_20_RN_5_RD_25_0.png","img2/200/Incongruent/L/I_Dist_200_LN_7_LD_10_RN_14_RD_28_0.png","img2/100/Incongruent/L/I_Dist_100_LN_3_LD_5_RN_8_RD_16_0.png","img2/300/Incongruent/L/I_Dist_300_LN_4_LD_5_RN_8_RD_16_0.png","img2/200/Incongruent/R/I_Dist_200_LN_14_LD_30_RN_12_RD_18_1.png","img2/300/Congruent/R/C_Dist_300_LN_2_LD_10_RN_12_RD_24_1.png","img2/200/Congruent/L/C_Dist_200_LN_21_LD_30_RN_2_RD_4_0.png","img2/100/Incongruent/R/I_Dist_100_LN_13_LD_26_RN_12_RD_20_1.png","img2/100/Congruent/L/C_Dist_100_LN_3_LD_6_RN_2_RD_5_0.png","img2/300/Incongruent/L/I_Dist_300_LN_1_LD_2_RN_3_RD_15_0.png","img2/200/Incongruent/L/I_Dist_200_LN_7_LD_10_RN_14_RD_28_0.png","img2/200/Congruent/L/C_Dist_200_LN_8_LD_15_RN_7_RD_21_0.png","img2/200/Incongruent/R/I_Dist_200_LN_14_LD_30_RN_6_RD_9_1.png","img2/200/Congruent/R/C_Dist_200_LN_3_LD_10_RN_7_RD_14_1.png","img2/100/Congruent/R/C_Dist_100_LN_4_LD_8_RN_6_RD_10_1.png","img2/300/Incongruent/L/I_Dist_300_LN_2_LD_4_RN_6_RD_30_0.png","img2/100/Incongruent/R/I_Dist_100_LN_10_LD_25_RN_8_RD_16_1.png","img2/300/Incongruent/L/I_Dist_300_LN_8_LD_10_RN_14_RD_28_0.png","img2/200/Incongruent/L/I_Dist_200_LN_1_LD_3_RN_2_RD_15_0.png","img2/200/Incongruent/R/I_Dist_200_LN_11_LD_20_RN_3_RD_4_1.png","img2/200/Incongruent/L/I_Dist_200_LN_7_LD_10_RN_8_RD_16_0.png","img2/200/Congruent/R/C_Dist_200_LN_1_LD_2_RN_21_RD_30_1.png","img2/200/Incongruent/R/I_Dist_200_LN_4_LD_30_RN_1_RD_3_1.png","img2/200/Incongruent/L/I_Dist_200_LN_4_LD_5_RN_6_RD_10_0.png","img2/200/Congruent/L/C_Dist_200_LN_7_LD_21_RN_2_RD_15_0.png","img2/100/Congruent/R/C_Dist_100_LN_6_LD_12_RN_15_RD_25_1.png","img2/100/Congruent/R/C_Dist_100_LN_7_LD_14_RN_9_RD_15_1.png","img2/200/Congruent/L/C_Dist_200_LN_15_LD_25_RN_4_RD_10_0.png","img2/100/Incongruent/R/I_Dist_100_LN_13_LD_26_RN_6_RD_10_1.png","img2/300/Congruent/R/C_Dist_300_LN_2_LD_20_RN_10_RD_25_1.png","img2/300/Congruent/L/C_Dist_300_LN_11_LD_22_RN_4_RD_20_0.png","img2/300/Congruent/R/C_Dist_300_LN_1_LD_20_RN_7_RD_20_1.png","img2/300/Incongruent/L/I_Dist_300_LN_3_LD_6_RN_4_RD_20_0.png","img2/300/Congruent/L/C_Dist_300_LN_8_LD_16_RN_1_RD_5_0.png","img2/300/Incongruent/L/I_Dist_300_LN_4_LD_5_RN_6_RD_12_0.png","img2/300/Incongruent/R/I_Dist_300_LN_4_LD_20_RN_2_RD_4_1.png","img2/100/Congruent/L/C_Dist_100_LN_9_LD_15_RN_8_RD_16_0.png","img2/300/Congruent/R/C_Dist_300_LN_3_LD_12_RN_11_RD_20_1.png","img2/100/Incongruent/L/I_Dist_100_LN_4_LD_8_RN_8_RD_20_0.png","img2/300/Congruent/R/C_Dist_300_LN_1_LD_5_RN_6_RD_12_1.png","img2/100/Congruent/L/C_Dist_100_LN_10_LD_25_RN_3_RD_10_0.png","img2/300/Congruent/R/C_Dist_300_LN_3_LD_6_RN_4_RD_5_1.png","img2/300/Incongruent/L/I_Dist_300_LN_7_LD_10_RN_8_RD_20_0.png","img2/100/Incongruent/L/I_Dist_100_LN_9_LD_10_RN_20_RD_25_0.png","img2/100/Congruent/R/C_Dist_100_LN_12_LD_30_RN_13_RD_26_1.png","img2/300/Congruent/R/C_Dist_300_LN_3_LD_12_RN_11_RD_20_1.png","img2/200/Congruent/R/C_Dist_200_LN_6_LD_12_RN_7_RD_10_1.png","img2/300/Congruent/L/C_Dist_300_LN_18_LD_20_RN_9_RD_15_0.png","img2/200/Incongruent/L/I_Dist_200_LN_7_LD_10_RN_8_RD_16_0.png","img2/100/Incongruent/L/I_Dist_100_LN_3_LD_9_RN_7_RD_30_0.png","img2/300/Incongruent/R/I_Dist_300_LN_13_LD_26_RN_12_RD_15_1.png","img2/300/Incongruent/R/I_Dist_300_LN_4_LD_20_RN_2_RD_4_1.png","img2/200/Congruent/L/C_Dist_200_LN_16_LD_20_RN_12_RD_20_0.png","img2/300/Incongruent/L/I_Dist_300_LN_3_LD_6_RN_4_RD_20_0.png","img2/100/Congruent/R/C_Dist_100_LN_1_LD_2_RN_18_RD_30_1.png","img2/200/Congruent/R/C_Dist_200_LN_6_LD_20_RN_11_RD_22_1.png","img2/100/Congruent/R/C_Dist_100_LN_3_LD_20_RN_4_RD_16_1.png","img2/100/Congruent/R/C_Dist_100_LN_1_LD_2_RN_3_RD_5_1.png","img2/100/Incongruent/L/I_Dist_100_LN_9_LD_15_RN_13_RD_26_0.png","img2/200/Incongruent/R/I_Dist_200_LN_11_LD_20_RN_3_RD_4_1.png","img2/300/Incongruent/R/I_Dist_300_LN_4_LD_20_RN_2_RD_4_1.png","img2/100/Congruent/L/C_Dist_100_LN_3_LD_6_RN_2_RD_5_0.png","img2/300/Congruent/R/C_Dist_300_LN_1_LD_5_RN_11_RD_22_1.png","img2/200/Congruent/L/C_Dist_200_LN_6_LD_15_RN_3_RD_15_0.png","img2/200/Incongruent/R/I_Dist_200_LN_9_LD_15_RN_8_RD_10_1.png","img2/200/Incongruent/R/I_Dist_200_LN_9_LD_15_RN_8_RD_10_1.png","img2/100/Congruent/R/C_Dist_100_LN_12_LD_30_RN_13_RD_26_1.png","img2/100/Incongruent/R/I_Dist_100_LN_8_LD_20_RN_1_RD_2_1.png","img2/300/Incongruent/L/I_Dist_300_LN_2_LD_4_RN_6_RD_30_0.png","img2/300/Incongruent/L/I_Dist_300_LN_1_LD_2_RN_2_RD_10_0.png","img2/100/Congruent/R/C_Dist_100_LN_7_LD_14_RN_9_RD_15_1.png","img2/300/Congruent/R/C_Dist_300_LN_2_LD_10_RN_12_RD_24_1.png","img2/300/Incongruent/R/I_Dist_300_LN_4_LD_20_RN_2_RD_4_1.png","img2/100/Incongruent/L/I_Dist_100_LN_9_LD_15_RN_14_RD_28_0.png","img2/300/Congruent/L/C_Dist_300_LN_18_LD_20_RN_9_RD_15_0.png","img2/200/Incongruent/R/I_Dist_200_LN_4_LD_30_RN_1_RD_3_1.png"],"dist100_C":[["C_Dist_100_LN_10_LD_25_RN_3_RD_10_0.png","C_Dist_100_LN_11_LD_22_RN_4_RD_10_0.png","C_Dist_100_LN_11_LD_22_RN_6_RD_15_0.png","C_Dist_100_LN_15_LD_25_RN_13_RD_26_0.png","C_Dist_100_LN_3_LD_6_RN_2_RD_5_0.png","C_Dist_100_LN_6_LD_20_RN_5_RD_25_0.png","C_Dist_100_LN_8_LD_16_RN_2_RD_5_0.png","C_Dist_100_LN_9_LD_15_RN_8_RD_16_0.png"],["C_Dist_100_LN_1_LD_2_RN_18_RD_30_1.png","C_Dist_100_LN_1_LD_2_RN_3_RD_5_1.png","C_Dist_100_LN_12_LD_30_RN_13_RD_26_1.png","C_Dist_100_LN_2_LD_5_RN_11_RD_22_1.png","C_Dist_100_LN_2_LD_5_RN_6_RD_12_1.png","C_Dist_100_LN_3_LD_20_RN_4_RD_16_1.png","C_Dist_100_LN_4_LD_10_RN_15_RD_30_1.png","C_Dist_100_LN_4_LD_8_RN_6_RD_10_1.png","C_Dist_100_LN_6_LD_12_RN_15_RD_25_1.png","C_Dist_100_LN_7_LD_14_RN_15_RD_25_1.png","C_Dist_100_LN_7_LD_14_RN_9_RD_15_1.png"]],"dist100_I":[["I_Dist_100_LN_1_LD_2_RN_8_RD_20_0.png","I_Dist_100_LN_2_LD_4_RN_6_RD_15_0.png","I_Dist_100_LN_2_LD_4_RN_8_RD_20_0.png","I_Dist_100_LN_3_LD_5_RN_11_RD_22_0.png","I_Dist_100_LN_3_LD_5_RN_8_RD_16_0.png","I_Dist_100_LN_3_LD_6_RN_4_RD_10_0.png","I_Dist_100_LN_3_LD_9_RN_7_RD_30_0.png","I_Dist_100_LN_4_LD_8_RN_8_RD_20_0.png","I_Dist_100_LN_6_LD_10_RN_11_RD_22_0.png","I_Dist_100_LN_6_LD_10_RN_13_RD_26_0.png","I_Dist_100_LN_6_LD_10_RN_7_RD_14_0.png","I_Dist_100_LN_9_LD_10_RN_20_RD_25_0.png","I_Dist_100_LN_9_LD_15_RN_13_RD_26_0.png","I_Dist_100_LN_9_LD_15_RN_14_RD_28_0.png"],["I_Dist_100_LN_10_LD_25_RN_8_RD_16_1.png","I_Dist_100_LN_10_LD_25_RN_9_RD_18_1.png","I_Dist_100_LN_11_LD_22_RN_9_RD_15_1.png","I_Dist_100_LN_12_LD_24_RN_9_RD_15_1.png","I_Dist_100_LN_12_LD_30_RN_2_RD_4_1.png","I_Dist_100_LN_13_LD_26_RN_12_RD_20_1.png","I_Dist_100_LN_13_LD_26_RN_6_RD_10_1.png","I_Dist_100_LN_17_LD_30_RN_10_RD_15_1.png","I_Dist_100_LN_6_LD_12_RN_3_RD_5_1.png","I_Dist_100_LN_8_LD_16_RN_6_RD_10_1.png","I_Dist_100_LN_8_LD_20_RN_1_RD_2_1.png","I_Dist_100_LN_9_LD_18_RN_6_RD_10_1.png"]],"dist100_S":[["E_Dist_100_LN_2_LD_12_RN_2_RD_30_0.png","E_Dist_100_LN_6_LD_10_RN_6_RD_12_0.png"],["E_Dist_100_LN_6_LD_12_RN_6_RD_10_1.png"]],"dist200_C":[["C_Dist_200_LN_11_LD_22_RN_3_RD_10_0.png","C_Dist_200_LN_12_LD_15_RN_6_RD_10_0.png","C_Dist_200_LN_12_LD_20_RN_6_RD_15_0.png","C_Dist_200_LN_14_LD_28_RN_6_RD_20_0.png","C_Dist_200_LN_15_LD_25_RN_4_RD_10_0.png","C_Dist_200_LN_16_LD_20_RN_12_RD_20_0.png","C_Dist_200_LN_16_LD_30_RN_9_RD_27_0.png","C_Dist_200_LN_20_LD_25_RN_9_RD_15_0.png","C_Dist_200_LN_21_LD_30_RN_2_RD_4_0.png","C_Dist_200_LN_4_LD_10_RN_3_RD_15_0.png","C_Dist_200_LN_4_LD_8_RN_3_RD_10_0.png","C_Dist_200_LN_6_LD_15_RN_3_RD_15_0.png","C_Dist_200_LN_7_LD_21_RN_2_RD_15_0.png","C_Dist_200_LN_8_LD_15_RN_2_RD_6_0.png","C_Dist_200_LN_8_LD_15_RN_3_RD_9_0.png","C_Dist_200_LN_8_LD_15_RN_7_RD_21_0.png","C_Dist_200_LN_9_LD_20_RN_4_RD_16_0.png"],["C_Dist_200_LN_1_LD_2_RN_21_RD_30_1.png","C_Dist_200_LN_13_LD_26_RN_14_RD_20_1.png","C_Dist_200_LN_3_LD_10_RN_11_RD_22_1.png","C_Dist_200_LN_3_LD_10_RN_14_RD_28_1.png","C_Dist_200_LN_3_LD_10_RN_7_RD_14_1.png","C_Dist_200_LN_3_LD_12_RN_9_RD_20_1.png","C_Dist_200_LN_3_LD_6_RN_14_RD_20_1.png","C_Dist_200_LN_5_LD_10_RN_14_RD_20_1.png","C_Dist_200_LN_6_LD_12_RN_7_RD_10_1.png","C_Dist_200_LN_6_LD_20_RN_11_RD_22_1.png","C_Dist_200_LN_7_LD_15_RN_18_RD_27_1.png","C_Dist_200_LN_9_LD_30_RN_13_RD_26_1.png"]],"dist200_I":[["I_Dist_200_LN_1_LD_2_RN_3_RD_10_0.png","I_Dist_200_LN_1_LD_3_RN_2_RD_15_0.png","I_Dist_200_LN_3_LD_4_RN_11_RD_20_0.png","I_Dist_200_LN_4_LD_5_RN_6_RD_10_0.png","I_Dist_200_LN_4_LD_6_RN_14_RD_30_0.png","I_Dist_200_LN_7_LD_10_RN_12_RD_24_0.png","I_Dist_200_LN_7_LD_10_RN_14_RD_28_0.png","I_Dist_200_LN_7_LD_10_RN_8_RD_16_0.png"],["I_Dist_200_LN_11_LD_20_RN_3_RD_4_1.png","I_Dist_200_LN_14_LD_30_RN_12_RD_18_1.png","I_Dist_200_LN_14_LD_30_RN_6_RD_9_1.png","I_Dist_200_LN_3_LD_10_RN_1_RD_2_1.png","I_Dist_200_LN_4_LD_30_RN_1_RD_3_1.png","I_Dist_200_LN_6_LD_20_RN_3_RD_6_1.png","I_Dist_200_LN_7_LD_15_RN_4_RD_6_1.png","I_Dist_200_LN_7_LD_15_RN_6_RD_9_1.png","I_Dist_200_LN_9_LD_15_RN_8_RD_10_1.png"]],"dist200_S":[["E_Dist_200_LN_3_LD_6_RN_3_RD_10_0.png"],["E_Dist_200_LN_3_LD_10_RN_3_RD_6_1.png"]],"dist300_C":[["C_Dist_300_LN_11_LD_22_RN_1_RD_5_0.png","C_Dist_300_LN_11_LD_22_RN_2_RD_10_0.png","C_Dist_300_LN_11_LD_22_RN_4_RD_20_0.png","C_Dist_300_LN_12_LD_24_RN_2_RD_10_0.png","C_Dist_300_LN_18_LD_20_RN_9_RD_15_0.png","C_Dist_300_LN_20_LD_25_RN_13_RD_26_0.png","C_Dist_300_LN_20_LD_25_RN_14_RD_28_0.png","C_Dist_300_LN_20_LD_25_RN_5_RD_10_0.png","C_Dist_300_LN_20_LD_25_RN_8_RD_16_0.png","C_Dist_300_LN_20_LD_25_RN_9_RD_18_0.png","C_Dist_300_LN_24_LD_30_RN_2_RD_4_0.png","C_Dist_300_LN_24_LD_30_RN_8_RD_16_0.png","C_Dist_300_LN_3_LD_6_RN_2_RD_10_0.png","C_Dist_300_LN_4_LD_10_RN_1_RD_10_0.png","C_Dist_300_LN_4_LD_5_RN_2_RD_4_0.png","C_Dist_300_LN_8_LD_16_RN_1_RD_5_0.png","C_Dist_300_LN_9_LD_10_RN_3_RD_5_0.png"],["C_Dist_300_LN_1_LD_20_RN_7_RD_20_1.png","C_Dist_300_LN_1_LD_3_RN_19_RD_30_1.png","C_Dist_300_LN_1_LD_30_RN_8_RD_24_1.png","C_Dist_300_LN_1_LD_5_RN_11_RD_22_1.png","C_Dist_300_LN_1_LD_5_RN_3_RD_6_1.png","C_Dist_300_LN_1_LD_5_RN_6_RD_12_1.png","C_Dist_300_LN_2_LD_10_RN_12_RD_24_1.png","C_Dist_300_LN_2_LD_20_RN_10_RD_25_1.png","C_Dist_300_LN_3_LD_12_RN_11_RD_20_1.png","C_Dist_300_LN_3_LD_6_RN_4_RD_5_1.png","C_Dist_300_LN_4_LD_20_RN_13_RD_26_1.png","C_Dist_300_LN_5_LD_25_RN_6_RD_12_1.png","C_Dist_300_LN_5_LD_25_RN_7_RD_14_1.png","C_Dist_300_LN_7_LD_14_RN_20_RD_25_1.png","C_Dist_300_LN_8_LD_15_RN_10_RD_12_1.png"]],"dist300_I":[["I_Dist_300_LN_1_LD_2_RN_2_RD_10_0.png","I_Dist_300_LN_1_LD_2_RN_3_RD_15_0.png","I_Dist_300_LN_2_LD_4_RN_6_RD_30_0.png","I_Dist_300_LN_3_LD_6_RN_4_RD_20_0.png","I_Dist_300_LN_4_LD_5_RN_6_RD_12_0.png","I_Dist_300_LN_4_LD_5_RN_8_RD_16_0.png","I_Dist_300_LN_7_LD_10_RN_8_RD_20_0.png","I_Dist_300_LN_8_LD_10_RN_14_RD_28_0.png","I_Dist_300_LN_8_LD_10_RN_9_RD_18_0.png"],["I_Dist_300_LN_13_LD_26_RN_12_RD_15_1.png","I_Dist_300_LN_4_LD_20_RN_2_RD_4_1.png"]],"dist300_S":[["E_Dist_300_LN_9_LD_12_RN_9_RD_20_0.png"],["E_Dist_300_LN_18_LD_30_RN_18_RD_20_1.png","E_Dist_300_LN_3_LD_10_RN_3_RD_5_1.png","E_Dist_300_LN_9_LD_20_RN_9_RD_12_1.png"]],"dist500_C":[["C_Dist_500_LN_10_LD_13_RN_7_RD_26_0.png","C_Dist_500_LN_10_LD_15_RN_4_RD_24_0.png","C_Dist_500_LN_12_LD_16_RN_3_RD_12_0.png","C_Dist_500_LN_12_LD_18_RN_4_RD_24_0.png","C_Dist_500_LN_15_LD_18_RN_5_RD_15_0.png","C_Dist_500_LN_15_LD_20_RN_1_RD_4_0.png","C_Dist_500_LN_18_LD_27_RN_1_RD_6_0.png","C_Dist_500_LN_20_LD_24_RN_1_RD_3_0.png","C_Dist_500_LN_20_LD_24_RN_3_RD_9_0.png","C_Dist_500_LN_20_LD_24_RN_7_RD_21_0.png","C_Dist_500_LN_20_LD_28_RN_3_RD_14_0.png","C_Dist_500_LN_21_LD_28_RN_6_RD_24_0.png","C_Dist_500_LN_22_LD_28_RN_2_RD_7_0.png","C_Dist_500_LN_25_LD_30_RN_9_RD_27_0.png","C_Dist_500_LN_4_LD_6_RN_1_RD_6_0.png","C_Dist_500_LN_5_LD_6_RN_2_RD_6_0.png","C_Dist_500_LN_6_LD_9_RN_1_RD_6_0.png","C_Dist_500_LN_7_LD_10_RN_1_RD_5_0.png","C_Dist_500_LN_8_LD_12_RN_1_RD_6_0.png","C_Dist_500_LN_8_LD_12_RN_4_RD_24_0.png"],["C_Dist_500_LN_1_LD_4_RN_12_RD_16_1.png","C_Dist_500_LN_1_LD_4_RN_9_RD_12_1.png","C_Dist_500_LN_1_LD_9_RN_11_RD_18_1.png","C_Dist_500_LN_10_LD_24_RN_22_RD_24_1.png","C_Dist_500_LN_2_LD_12_RN_10_RD_15_1.png","C_Dist_500_LN_2_LD_12_RN_12_RD_18_1.png","C_Dist_500_LN_2_LD_12_RN_4_RD_6_1.png","C_Dist_500_LN_2_LD_24_RN_7_RD_12_1.png","C_Dist_500_LN_2_LD_5_RN_18_RD_20_1.png","C_Dist_500_LN_2_LD_5_RN_9_RD_10_1.png","C_Dist_500_LN_2_LD_8_RN_12_RD_16_1.png","C_Dist_500_LN_2_LD_8_RN_21_RD_28_1.png","C_Dist_500_LN_3_LD_10_RN_4_RD_5_1.png","C_Dist_500_LN_3_LD_12_RN_15_RD_20_1.png","C_Dist_500_LN_3_LD_30_RN_6_RD_10_1.png","C_Dist_500_LN_3_LD_8_RN_14_RD_16_1.png","C_Dist_500_LN_4_LD_16_RN_15_RD_20_1.png","C_Dist_500_LN_4_LD_24_RN_12_RD_18_1.png","C_Dist_500_LN_5_LD_14_RN_6_RD_7_1.png","C_Dist_500_LN_7_LD_21_RN_20_RD_24_1.png","C_Dist_500_LN_7_LD_28_RN_12_RD_16_1.png","C_Dist_500_LN_7_LD_28_RN_9_RD_12_1.png","C_Dist_500_LN_9_LD_27_RN_20_RD_24_1.png"]],"dist500_I":[["I_Dist_500_LN_2_LD_3_RN_4_RD_24_0.png","I_Dist_500_LN_5_LD_6_RN_6_RD_18_0.png","I_Dist_500_LN_7_LD_8_RN_9_RD_24_0.png"],["I_Dist_500_LN_7_LD_21_RN_5_RD_6_1.png"]],"dist500_S":[["E_Dist_500_LN_6_LD_8_RN_6_RD_24_0.png"],["E_Dist_500_LN_2_LD_12_RN_2_RD_3_1.png","E_Dist_500_LN_6_LD_24_RN_6_RD_8_1.png"]]}},{"start_time":1552327446616,"click_time":1552327448615,"finger_time":1552327448254,"fix_duration":1359.8507138812226,"trial":1,"RT":1638,"MT":361,"sideResp":2,"stimulus":[],"xmouse":[779,778,778,778,778,778,778,778,778,778,778,778,778,778,778,778,778,778,778,778,778,778,778,778,778,778,778,778,778,778,778,778,778,778,778,778,778,778,778,778,778,778,778,778,778,778,778,778,778,778,778,778,778,778,778,778,778,778,778,778,778,778,778,778,778,778,778,778,776,775,774,774,774,774,774,774,774,774,780,787,796,806,825,893,903,905,906,903,905,910,918,931,961,972,982,990,998,1005,1026,1044,1062],"ymouse":[637,637,638,638,638,638,638,638,638,638,638,638,638,638,638,638,638,638,638,638,638,638,638,638,638,638,638,638,638,638,638,638,638,638,638,638,638,638,638,638,638,638,638,638,638,638,638,638,638,638,638,638,638,638,638,638,638,638,638,638,638,638,638,638,638,638,638,638,638,637,636,636,634,634,632,627,625,619,609,602,594,575,541,410,374,355,340,320,282,267,252,237,210,200,186,172,157,143,114,98,83],"timestamp_mouse":[1,19,50,59,78,99,119,138,158,180,200,218,239,260,279,298,319,338,358,379,400,420,439,459,478,499,519,539,558,578,599,618,639,658,679,700,718,738,759,778,798,818,840,859,879,898,920,939,959,979,998,1018,1038,1059,1079,1099,1118,1138,1158,1178,1199,1219,1238,1258,1279,1298,1318,1338,1359,1379,1399,1418,1439,1459,1478,1499,1518,1538,1560,1578,1598,1619,1638,1658,1679,1699,1719,1738,1758,1778,1798,1819,1840,1858,1879,1899,1918,1938,1959,1978,1998],"xSR":741.5,"ySR":573.95,"xT1":424.9,"yT1":0,"xT2":1058.1,"yT2":0,"toosoon":0,"cond_shown":"Incongruent","ratio_trial":100,"L_num":9,"L_den":15,"R_num":14,"R_den":28,"correct_side":1,"subjID":"GabrielaMontealegre25","gender":"1","school":"4","age":"8"},{"start_time":1552327452570,"click_time":1552327454494,"finger_time":1552327453974,"fix_duration":1194.8716308750395,"trial":2,"RT":1404,"MT":520,"sideResp":1,"stimulus":[],"xmouse":[781,781,781,781,781,781,781,781,781,781,781,781,781,781,781,781,781,781,781,781,781,781,781,781,781,781,781,781,781,781,781,781,781,781,781,781,781,781,781,781,781,781,781,781,781,781,781,781,781,781,781,781,781,781,781,781,781,781,781,781,781,781,779,774,771,764,762,757,753,748,737,727,717,707,696,669,655,613,584,556,527,503,499,499,499,499,499,499,499,499,499,499,499,499,498,490,490],"ymouse":[656,656,656,656,656,656,656,656,656,656,656,656,656,656,656,656,656,656,656,656,656,656,656,656,656,656,656,656,656,656,656,656,656,656,656,656,656,656,656,656,656,656,656,656,656,656,656,656,656,656,656,656,656,656,656,656,656,656,653,651,649,646,644,636,632,622,618,612,607,597,580,570,561,550,535,499,478,386,338,299,253,216,208,199,193,185,184,184,184,184,184,184,181,177,172,134,96],"timestamp_mouse":[11,33,45,64,84,104,124,145,165,185,205,225,244,264,284,305,324,344,364,384,404,424,445,465,485,506,524,545,564,586,605,624,644,665,686,706,725,744,765,784,805,824,845,864,886,904,926,944,965,985,1004,1024,1044,1064,1084,1105,1125,1144,1165,1184,1204,1224,1244,1265,1284,1304,1324,1344,1364,1384,1404,1424,1445,1465,1484,1505,1524,1545,1564,1584,1604,1624,1645,1664,1685,1704,1724,1745,1764,1785,1804,1824,1844,1864,1885,1904,1924],"xSR":741.5,"ySR":573.95,"xT1":424.9,"yT1":0,"xT2":1058.1,"yT2":0,"toosoon":0,"cond_shown":"Congruent","ratio_trial":200,"L_num":20,"L_den":25,"R_num":9,"R_den":15,"correct_side":1,"subjID":"GabrielaMontealegre25","gender":"1","school":"4","age":"8"},{"start_time":1552327458036,"click_time":1552327459934,"finger_time":1552327459514,"fix_duration":600.6157922496901,"trial":3,"RT":1478,"MT":420,"sideResp":2,"stimulus":[],"xmouse":[783,783,783,783,783,783,783,783,783,783,783,783,783,783,783,783,783,783,783,783,783,783,783,783,783,783,783,783,783,783,783,783,783,783,783,783,783,783,783,783,783,783,783,783,783,783,783,783,783,783,783,783,783,783,783,783,783,783,783,783,783,783,783,783,783,783,783,783,783,783,782,782,781,784,795,803,811,813,815,815,815,817,824,828,835,841,848,868,884,894,918,941,1035,1073,1092],"ymouse":[605,605,604,603,603,603,603,603,603,603,603,603,603,603,603,603,603,603,603,603,603,603,603,603,603,603,603,603,603,603,602,602,602,602,602,602,602,602,602,602,602,602,602,602,602,602,602,602,602,602,602,602,602,602,602,602,602,602,602,602,602,602,602,602,602,602,602,602,599,599,598,598,582,564,544,521,484,468,454,440,427,399,362,347,330,312,294,256,238,224,202,184,127,104,92],"timestamp_mouse":[18,39,58,79,98,118,139,160,178,199,219,238,259,278,298,318,339,360,379,398,418,440,459,478,499,519,539,558,578,599,618,638,658,678,700,718,739,759,779,799,818,839,858,878,898,919,938,960,978,998,1018,1039,1058,1079,1098,1118,1139,1159,1179,1199,1218,1239,1258,1278,1299,1318,1338,1358,1379,1398,1418,1438,1458,1478,1499,1518,1539,1558,1579,1598,1618,1638,1659,1679,1699,1718,1738,1758,1779,1799,1819,1838,1859,1878,1898],"xSR":741.5,"ySR":573.95,"xT1":424.9,"yT1":0,"xT2":1058.1,"yT2":0,"toosoon":0,"cond_shown":"Incongruent","ratio_trial":200,"L_num":4,"L_den":6,"R_num":14,"R_den":30,"correct_side":1,"subjID":"GabrielaMontealegre25","gender":"1","school":"4","age":"8"},{"start_time":1552327463185,"click_time":1552327464534,"finger_time":1552327464294,"fix_duration":250,"trial":4,"RT":1109,"MT":240,"sideResp":2,"stimulus":[],"xmouse":[796,796,796,796,796,796,796,796,796,796,796,796,796,796,796,796,796,796,796,796,796,796,796,796,796,796,796,796,796,796,796,796,796,796,796,796,796,796,796,796,796,796,796,796,796,796,796,796,796,796,799,804,812,822,831,852,857,862,864,867,884,905,922,944,970,1016,1037,1060],"ymouse":[639,639,639,639,639,639,639,639,639,639,639,639,639,639,639,639,639,639,639,639,639,639,639,639,639,639,639,639,639,639,639,639,639,639,639,639,639,639,639,639,639,639,639,639,639,639,639,639,639,639,634,627,609,592,579,548,537,527,512,497,446,386,341,287,228,118,62,8],"timestamp_mouse":[17,39,49,69,89,110,129,149,169,189,209,229,250,269,289,310,329,350,369,389,410,429,451,470,489,510,529,550,569,590,609,629,650,670,689,710,729,749,770,789,810,830,850,869,889,909,931,950,970,989,1010,1029,1049,1069,1090,1109,1129,1149,1169,1189,1209,1231,1250,1270,1290,1309,1329,1349],"xSR":741.5,"ySR":573.95,"xT1":424.9,"yT1":0,"xT2":1058.1,"yT2":0,"toosoon":0,"cond_shown":"Congruent","ratio_trial":300,"L_num":2,"L_den":10,"R_num":12,"R_den":24,"correct_side":2,"subjID":"GabrielaMontealegre25","gender":"1","school":"4","age":"8"},{"start_time":1552327467891,"click_time":1552327471016,"finger_time":1552327469435,"fix_duration":392.6278054671964,"trial":5,"RT":1544,"MT":1581,"sideResp":2,"stimulus":[],"xmouse":[756,756,756,756,756,756,756,756,756,756,756,756,756,756,756,756,756,756,756,756,756,756,756,756,756,756,756,756,756,756,756,756,756,756,756,756,756,756,756,756,756,756,756,756,756,756,756,756,756,756,756,756,756,756,756,756,756,756,756,756,756,756,756,756,756,756,756,756,756,756,756,756,756,757,759,762,775,782,789,797,804,817,822,826,832,834,836,837,838,838,839,842,847,855,864,882,902,913,923,933,940,949,953,954,954,955,959,962,965,970,974,985,991,1001,1004,1007,1013,1015,1016,1018,1021,1024,1031,1034,1037,1038,1038,1039,1040,1041,1043,1045,1045,1045,1045,1045,1045,1045,1045,1045,1047,1047,1048,1050,1050,1050,1051,1051,1053,1053,1054,1055,1055,1055,1055,1055,1059],"ymouse":[606,606,606,606,606,606,606,606,606,606,606,606,606,606,606,606,606,606,606,606,606,606,606,606,606,606,606,606,606,606,606,606,606,606,606,606,606,606,606,606,606,606,606,606,606,606,606,606,606,606,606,606,606,606,606,606,606,606,606,606,606,606,606,606,606,606,606,606,606,606,606,606,606,606,603,598,574,558,540,520,503,467,451,440,421,412,403,399,395,390,385,374,364,348,327,285,221,192,166,138,114,72,53,38,22,12,0,0,0,0,0,0,0,0,0,0,0,0,0,0,0,0,0,0,0,0,0,0,0,0,0,1,1,1,1,1,1,1,1,1,1,1,1,1,2,2,2,3,3,3,3,4,4,4,4,4,5],"timestamp_mouse":[10,35,45,65,84,105,124,145,164,185,205,224,245,263,285,304,324,344,365,383,405,424,445,465,485,504,524,544,565,585,605,625,644,665,685,704,724,744,765,785,804,825,845,864,884,905,923,945,965,984,1005,1024,1044,1064,1084,1104,1124,1145,1164,1184,1205,1224,1244,1265,1284,1305,1324,1344,1365,1384,1405,1424,1445,1463,1485,1505,1524,1544,1564,1584,1604,1624,1645,1665,1685,1705,1724,1744,1765,1784,1805,1824,1844,1865,1884,1903,1924,1944,1964,1984,2005,2024,2044,2064,2085,2104,2124,2144,2165,2185,2205,2224,2244,2265,2284,2305,2324,2344,2364,2385,2405,2424,2444,2465,2484,2505,2525,2544,2564,2583,2605,2624,2644,2665,2684,2705,2724,2744,2765,2784,2804,2825,2844,2864,2885,2904,2924,2944,2965,2984,3004,3024,3045,3064,3084,3104,3124],"xSR":741.5,"ySR":573.95,"xT1":424.9,"yT1":0,"xT2":1058.1,"yT2":0,"toosoon":0,"cond_shown":"Congruent","ratio_trial":100,"L_num":10,"L_den":25,"R_num":3,"R_den":10,"correct_side":1,"subjID":"GabrielaMontealegre25","gender":"1","school":"4","age":"8"},{"start_time":1552327475088,"click_time":1552327479135,"finger_time":1552327476776,"fix_duration":1170.2310798886942,"trial":6,"RT":1688,"MT":2359,"sideResp":1,"stimulus":[],"xmouse":[766,766,766,766,766,766,766,766,766,766,766,766,766,766,766,766,766,766,766,766,766,766,766,766,766,766,766,766,766,766,766,766,766,766,766,766,766,766,766,766,766,766,766,766,766,766,766,766,766,767,767,767,767,767,767,767,767,767,767,767,768,768,768,769,769,769,769,769,769,769,769,769,769,769,769,769,769,769,769,769,769,768,762,747,721,695,674,674,674,675,676,676,676,676,675,673,671,667,665,661,658,655,655,655,655,655,657,659,662,664,666,668,672,677,684,695,709,760,808,819,842,851,859,862,865,869,873,875,875,875,875,875,876,880,886,895,905,907,908,911,919,928,938,939,941,943,944,949,953,955,955,956,956,959,963,968,975,980,980,980,979,972,950,939,931,920,912,896,883,867,835,812,778,769,761,755,741,703,684,663,654,649,642,638,633,628,625,625,625,625,624,622,611,609,607,606,603,599,587,581,564,549,511],"ymouse":[657,657,657,657,657,657,657,657,656,656,656,656,656,656,656,656,656,656,656,656,656,656,656,656,656,656,656,656,656,656,656,656,656,656,656,656,656,656,656,656,656,656,656,656,656,656,656,656,656,656,656,656,656,656,656,656,656,656,656,656,656,656,656,655,655,655,655,655,655,655,655,655,655,655,655,655,655,655,655,655,655,654,648,628,585,549,508,497,487,483,480,479,477,476,474,471,469,465,464,462,460,458,458,458,458,458,457,454,452,450,446,441,426,408,391,373,352,305,259,247,207,184,142,128,115,105,99,94,94,94,94,94,94,94,93,93,93,93,93,93,94,97,98,98,98,98,96,93,91,90,90,90,90,90,90,90,90,90,90,90,90,90,91,95,98,100,103,106,108,110,113,116,122,123,124,124,124,124,124,124,124,124,124,124,124,124,124,124,124,124,122,119,114,113,113,113,112,111,109,108,104,100,81],"timestamp_mouse":[10,33,47,67,88,107,128,147,168,187,208,228,247,268,287,307,328,347,368,387,408,428,447,468,488,508,528,547,566,587,608,627,648,666,687,708,728,746,768,788,806,828,847,867,888,908,928,947,967,988,1008,1027,1046,1067,1088,1108,1128,1148,1168,1187,1207,1228,1248,1267,1287,1308,1327,1348,1367,1388,1408,1427,1448,1468,1488,1508,1528,1547,1567,1588,1607,1627,1648,1667,1688,1707,1728,1747,1767,1787,1808,1827,1847,1867,1888,1907,1928,1947,1967,1987,2008,2028,2048,2067,2087,2107,2128,2147,2168,2187,2207,2227,2248,2268,2287,2307,2328,2347,2367,2386,2407,2427,2448,2467,2487,2507,2527,2547,2567,2587,2607,2627,2647,2667,2688,2707,2729,2746,2767,2788,2808,2827,2847,2867,2888,2907,2928,2948,2968,2987,3006,3028,3047,3067,3088,3107,3127,3147,3166,3187,3207,3227,3247,3267,3287,3307,3327,3347,3367,3387,3408,3427,3447,3467,3487,3507,3527,3547,3567,3587,3607,3627,3647,3667,3687,3707,3728,3747,3768,3787,3808,3828,3848,3866,3888,3907,3928,3947,3967,3987,4007,4027,4047],"xSR":741.5,"ySR":573.95,"xT1":424.9,"yT1":0,"xT2":1058.1,"yT2":0,"toosoon":0,"cond_shown":"Congruent","ratio_trial":200,"L_num":16,"L_den":30,"R_num":9,"R_den":27,"correct_side":1,"subjID":"GabrielaMontealegre25","gender":"1","school":"4","age":"8"},{"start_time":1552327483779,"click_time":1552327486575,"finger_time":1552327485875,"fix_duration":541.2706092768125,"trial":7,"RT":2096,"MT":700,"sideResp":1,"stimulus":[],"xmouse":[797,797,797,797,797,797,797,797,797,797,797,797,797,797,797,797,797,797,797,797,797,797,797,797,797,797,797,797,797,797,797,797,797,797,797,797,797,797,797,797,797,797,797,797,797,797,797,797,797,797,797,797,797,797,797,797,797,797,797,797,797,797,797,797,797,797,797,797,797,797,797,797,797,797,797,797,797,796,793,792,791,790,789,788,787,786,786,785,783,782,780,777,776,773,773,773,773,773,773,771,770,768,767,764,753,742,731,709,703,695,693,692,688,688,688,687,686,686,685,685,685,685,684,678,674,668,661,652,633,623,613,608,608,605,602,598,593,582,531,487],"ymouse":[619,619,619,619,619,619,619,619,619,619,619,619,619,619,619,619,619,619,619,619,619,619,619,619,619,619,619,619,619,619,619,619,619,619,619,619,619,619,619,619,619,619,619,619,619,619,619,619,619,619,619,619,619,619,619,619,619,619,619,619,619,619,619,619,619,619,619,619,619,619,619,619,619,619,619,619,619,618,616,615,614,614,613,610,609,607,606,604,601,599,597,594,592,591,591,591,591,591,590,588,587,585,585,580,571,557,537,493,465,430,404,368,344,296,290,283,273,272,271,271,270,261,250,216,201,185,171,157,132,122,115,112,112,111,110,109,108,105,96,81],"timestamp_mouse":[18,37,56,77,96,117,136,156,177,197,217,236,256,276,296,316,336,357,376,397,417,436,457,475,497,517,537,555,577,597,616,637,656,677,697,717,737,757,776,797,817,836,857,876,896,915,936,957,976,996,1016,1036,1057,1077,1097,1117,1136,1156,1177,1197,1216,1236,1256,1277,1296,1317,1337,1356,1377,1397,1416,1436,1456,1476,1497,1516,1536,1557,1576,1597,1615,1636,1656,1675,1696,1717,1736,1756,1776,1797,1816,1836,1857,1876,1897,1917,1936,1957,1975,1997,2016,2037,2056,2077,2096,2116,2136,2157,2175,2196,2216,2236,2255,2277,2296,2317,2337,2356,2376,2397,2416,2436,2456,2477,2496,2516,2536,2557,2576,2596,2616,2635,2656,2677,2696,2716,2737,2756,2777,2796],"xSR":741.5,"ySR":573.95,"xT1":424.9,"yT1":0,"xT2":1058.1,"yT2":0,"toosoon":0,"cond_shown":"Congruent","ratio_trial":100,"L_num":11,"L_den":22,"R_num":4,"R_den":10,"correct_side":1,"subjID":"GabrielaMontealegre25","gender":"1","school":"4","age":"8"},{"start_time":1552327490133,"click_time":1552327491536,"finger_time":1552327490975,"fix_duration":1395.8610095198499,"trial":8,"RT":842,"MT":561,"sideResp":2,"stimulus":[],"xmouse":[779,779,779,779,779,779,779,779,779,779,779,779,779,779,779,779,779,779,779,779,779,779,779,779,779,779,779,779,779,779,779,779,779,779,779,779,779,780,783,786,789,809,824,830,834,838,841,845,846,847,847,848,848,848,849,850,858,862,867,876,885,896,925,939,953,971,1008,1023,1041,1057,1069],"ymouse":[606,606,606,606,606,606,606,606,606,606,606,606,606,606,606,606,606,606,606,606,606,606,606,606,606,606,606,606,606,606,606,606,606,606,606,606,606,606,604,602,597,577,564,557,549,543,540,533,530,528,526,523,518,515,511,503,476,458,439,418,397,373,317,293,267,237,178,154,129,103,77],"timestamp_mouse":[9,35,43,61,83,102,123,142,162,183,202,222,242,263,283,302,321,342,363,381,403,423,443,462,483,502,521,543,563,582,603,622,642,663,682,702,723,742,763,782,803,822,842,862,883,902,922,942,963,982,1003,1023,1043,1062,1083,1103,1124,1142,1163,1182,1202,1221,1242,1262,1282,1303,1322,1341,1362,1382,1403],"xSR":741.5,"ySR":573.95,"xT1":424.9,"yT1":0,"xT2":1058.1,"yT2":0,"toosoon":0,"cond_shown":"Congruent","ratio_trial":200,"L_num":3,"L_den":10,"R_num":14,"R_den":28,"correct_side":2,"subjID":"GabrielaMontealegre25","gender":"1","school":"4","age":"8"},{"start_time":1552327495073,"click_time":1552327497695,"finger_time":1552327497175,"fix_duration":1196.1324502315276,"trial":9,"RT":2102,"MT":520,"sideResp":1,"stimulus":[],"xmouse":[805,805,805,805,805,805,805,805,805,805,805,805,805,805,805,805,805,805,805,805,805,805,805,805,805,805,805,805,805,805,805,805,805,805,805,805,805,805,805,805,805,805,805,805,805,805,805,805,805,805,805,805,805,805,805,805,805,805,805,805,805,805,805,805,805,805,805,805,805,805,805,805,805,805,805,805,805,805,805,805,805,805,805,805,806,807,808,808,808,808,808,808,808,808,808,808,808,808,810,811,813,814,814,816,816,817,817,817,817,817,817,816,815,814,812,810,801,793,780,767,738,723,698,684,670,633,607,581,560,544,528,524],"ymouse":[613,613,613,613,613,613,613,613,613,613,613,613,613,613,613,613,613,613,613,613,613,613,613,613,613,613,613,613,613,613,613,613,613,613,613,613,613,613,613,613,613,613,613,613,613,613,613,613,613,613,613,613,613,613,613,613,613,613,613,613,613,613,613,613,613,613,613,613,612,612,610,610,610,610,610,609,609,609,609,608,608,607,607,606,604,602,601,601,601,601,601,601,601,601,601,601,601,601,598,596,591,588,586,584,578,571,567,564,562,560,556,552,549,546,539,534,517,503,484,461,399,368,328,303,278,204,170,138,110,90,61,51],"timestamp_mouse":[10,31,41,63,83,101,123,142,162,182,202,223,242,262,282,302,321,342,363,382,402,423,443,462,482,511,523,542,563,583,603,623,642,663,683,703,722,742,763,782,802,823,842,862,883,902,923,943,962,982,1002,1022,1042,1062,1082,1103,1123,1142,1162,1182,1203,1223,1242,1262,1283,1301,1322,1343,1362,1383,1402,1422,1442,1461,1482,1502,1523,1541,1563,1583,1603,1621,1643,1662,1682,1702,1723,1741,1762,1782,1803,1822,1843,1861,1883,1903,1923,1943,1962,1983,2002,2022,2042,2063,2081,2102,2122,2143,2161,2182,2202,2223,2242,2262,2282,2302,2322,2343,2362,2383,2401,2422,2443,2462,2483,2502,2522,2542,2562,2583,2602,2622],"xSR":741.5,"ySR":573.95,"xT1":424.9,"yT1":0,"xT2":1058.1,"yT2":0,"toosoon":0,"cond_shown":"Congruent","ratio_trial":100,"L_num":9,"L_den":15,"R_num":8,"R_den":16,"correct_side":1,"subjID":"GabrielaMontealegre25","gender":"1","school":"4","age":"8"},{"start_time":1552327500730,"click_time":1552327502994,"finger_time":1552327502055,"fix_duration":1173.6759988183362,"trial":10,"RT":1325,"MT":939,"sideResp":1,"stimulus":[],"xmouse":[770,770,770,770,770,770,770,770,770,770,770,770,770,770,770,770,770,770,770,770,770,770,770,770,770,770,770,771,771,771,771,771,771,771,771,771,771,771,771,771,771,771,771,771,771,771,771,771,771,771,771,771,771,771,771,771,771,771,771,771,771,771,771,771,771,771,771,771,771,771,771,771,771,771,771,771,769,764,746,727,702,681,663,624,612,604,603,602,602,602,602,602,601,597,594,588,580,562,558,549,544,537,527,524,521,515,509,502,495,493,491,488,482,480],"ymouse":[606,606,606,606,606,606,606,606,606,606,606,606,606,606,606,606,606,606,606,605,604,604,603,602,602,601,600,599,598,597,597,596,595,594,594,593,592,592,591,591,591,591,591,591,591,591,591,591,591,591,591,590,590,589,589,588,588,588,586,585,583,581,580,578,577,575,573,571,571,571,570,570,570,570,570,570,567,560,535,505,463,419,380,328,312,300,297,295,295,295,295,294,291,276,267,256,242,216,211,205,202,197,189,184,179,172,165,158,145,139,133,124,102,94],"timestamp_mouse":[11,33,46,65,85,104,126,145,166,185,206,225,246,265,286,305,326,345,365,385,404,425,446,466,484,505,525,546,564,585,606,625,645,665,685,706,726,745,766,786,805,824,846,866,885,905,926,946,966,985,1005,1026,1045,1065,1085,1106,1124,1145,1166,1184,1205,1225,1245,1265,1286,1305,1325,1346,1365,1385,1406,1426,1445,1466,1485,1505,1525,1545,1565,1585,1606,1625,1645,1665,1686,1705,1725,1746,1765,1785,1804,1825,1845,1865,1885,1905,1926,1946,1965,1985,2006,2025,2046,2065,2086,2105,2126,2146,2165,2185,2205,2224,2246,2264],"xSR":741.5,"ySR":573.95,"xT1":424.9,"yT1":0,"xT2":1058.1,"yT2":0,"toosoon":0,"cond_shown":"Incongruent","ratio_trial":200,"L_num":7,"L_den":10,"R_num":12,"R_den":24,"correct_side":1,"subjID":"GabrielaMontealegre25","gender":"1","school":"4","age":"8"},{"start_time":1552327505744,"click_time":1552327508135,"finger_time":1552327507114,"fix_duration":1007.537785651498,"trial":11,"RT":1370,"MT":1021,"sideResp":2,"stimulus":[],"xmouse":[777,777,777,777,777,777,777,777,777,777,777,777,777,777,777,777,777,777,777,777,777,777,777,777,777,777,777,778,778,778,778,778,778,778,778,779,779,779,779,779,779,779,779,779,779,779,779,779,779,779,779,779,779,779,779,779,779,779,779,779,780,780,780,780,780,781,781,784,786,790,797,803,815,820,823,826,831,839,848,856,863,868,874,881,890,901,914,941,950,957,959,959,961,968,974,982,986,989,991,991,992,992,993,995,997,999,1001,1002,1002,1004,1007,1011,1015,1019,1019,1020,1022,1028,1055,1073],"ymouse":[591,591,591,591,591,591,591,591,591,591,591,591,591,591,591,591,591,591,591,591,591,591,591,591,591,591,591,591,591,590,590,590,590,590,590,589,589,589,589,589,589,589,589,589,589,589,589,589,589,589,589,589,589,589,588,588,588,588,588,588,588,588,587,587,587,584,583,575,568,554,539,521,493,472,464,452,438,404,386,370,359,349,335,320,302,285,257,208,190,175,166,162,156,144,139,128,125,117,115,114,113,113,112,110,108,106,105,104,104,104,103,102,101,100,100,100,98,95,72,57],"timestamp_mouse":[12,38,51,71,91,111,132,151,171,191,212,231,252,272,291,312,332,352,371,391,411,431,452,470,492,511,531,551,572,592,612,632,652,670,692,712,732,752,770,792,811,831,850,872,892,911,932,952,971,992,1012,1031,1052,1072,1091,1111,1132,1152,1171,1191,1211,1230,1252,1271,1291,1312,1330,1351,1370,1392,1411,1431,1451,1471,1491,1512,1532,1550,1570,1591,1611,1632,1652,1672,1692,1710,1731,1750,1771,1792,1812,1831,1851,1871,1891,1911,1932,1951,1971,1991,2011,2030,2050,2072,2091,2110,2130,2151,2171,2191,2211,2231,2251,2271,2291,2312,2331,2351,2371,2391],"xSR":741.5,"ySR":573.95,"xT1":424.9,"yT1":0,"xT2":1058.1,"yT2":0,"toosoon":0,"cond_shown":"Incongruent","ratio_trial":100,"L_num":1,"L_den":2,"R_num":8,"R_den":20,"correct_side":1,"subjID":"GabrielaMontealegre25","gender":"1","school":"4","age":"8"},{"start_time":1552327512212,"click_time":1552327515015,"finger_time":1552327514414,"fix_duration":1156.6237828945102,"trial":12,"RT":2202,"MT":601,"sideResp":1,"stimulus":[],"xmouse":[766,766,766,766,766,766,766,766,766,766,766,766,766,766,766,766,766,766,766,766,766,766,766,766,766,766,766,766,766,766,766,766,766,766,766,766,766,766,766,766,766,766,766,766,766,766,766,766,766,766,766,766,766,766,766,766,766,766,766,766,766,766,766,766,766,766,766,766,766,766,767,768,768,768,768,768,768,768,768,768,768,768,768,768,768,768,768,768,768,768,768,768,768,768,768,768,768,768,768,768,768,768,768,768,768,769,770,770,770,770,769,769,769,769,769,760,754,742,736,730,719,713,706,701,694,676,668,660,653,645,625,611,594,579,568,551,541,536,530,525,514],"ymouse":[606,606,606,606,606,606,606,606,606,606,606,606,606,606,606,606,606,606,606,606,606,606,606,606,606,606,606,606,606,606,606,606,606,606,606,606,606,606,606,606,606,606,606,606,606,606,606,606,606,606,606,606,606,606,606,606,606,606,606,606,606,606,606,606,606,606,606,606,606,606,605,604,604,604,604,604,604,604,604,604,604,604,604,604,604,604,604,604,604,604,604,604,604,604,604,604,604,604,604,604,604,604,604,604,602,598,591,586,584,580,565,558,539,523,503,464,445,418,402,386,361,351,339,331,322,297,284,275,263,251,225,210,195,180,166,142,127,115,105,93,75],"timestamp_mouse":[10,31,44,63,84,103,122,143,164,183,204,224,244,263,284,303,323,343,364,383,402,423,444,464,483,504,524,544,563,584,603,623,643,664,684,703,723,744,764,783,804,824,844,864,884,904,924,944,963,984,1002,1023,1043,1064,1084,1103,1123,1143,1163,1183,1204,1223,1243,1264,1284,1304,1324,1344,1363,1383,1404,1423,1444,1463,1484,1504,1523,1542,1563,1583,1604,1624,1644,1662,1684,1704,1724,1744,1764,1784,1804,1824,1843,1863,1883,1903,1924,1943,1963,1983,2004,2023,2043,2062,2083,2103,2123,2143,2164,2184,2202,2223,2243,2263,2283,2304,2322,2343,2363,2383,2403,2423,2444,2463,2483,2504,2523,2543,2564,2583,2603,2623,2643,2663,2684,2702,2722,2743,2764,2783,2803],"xSR":741.5,"ySR":573.95,"xT1":424.9,"yT1":0,"xT2":1058.1,"yT2":0,"toosoon":0,"cond_shown":"Incongruent","ratio_trial":300,"L_num":4,"L_den":20,"R_num":2,"R_den":4,"correct_side":2,"subjID":"GabrielaMontealegre25","gender":"1","school":"4","age":"8"},{"start_time":1552327517994,"click_time":1552327520596,"finger_time":1552327519695,"fix_duration":557.064050797525,"trial":13,"RT":1701,"MT":901,"sideResp":1,"stimulus":[],"xmouse":[798,798,798,798,798,798,798,797,797,797,797,797,797,797,797,797,797,797,797,797,797,797,797,797,797,797,797,797,797,797,797,797,797,797,797,797,797,797,797,797,797,797,797,797,797,797,797,797,797,797,797,797,797,797,797,797,797,797,797,797,797,797,797,797,797,797,797,797,797,797,797,797,797,797,797,797,797,797,797,797,796,795,788,785,781,778,771,769,768,768,768,768,768,768,768,768,768,768,768,768,768,768,768,768,768,767,767,762,756,747,732,720,686,663,642,633,618,611,590,579,570,563,563,563,561,555,543,533,529,526,524],"ymouse":[603,603,603,603,602,601,600,597,596,596,596,596,596,596,596,596,596,596,596,596,596,596,596,596,596,596,596,596,596,596,596,596,596,596,596,596,596,596,596,596,596,596,596,596,596,596,596,596,596,596,596,596,596,596,596,596,596,596,596,596,596,596,596,596,596,596,596,596,596,596,596,596,596,596,596,596,596,596,596,596,595,593,587,582,577,573,565,562,560,560,560,560,560,560,560,560,560,560,560,560,560,560,560,560,560,559,558,551,542,528,510,490,409,332,262,189,94,40,0,0,0,0,0,0,0,0,1,7,10,16,23],"timestamp_mouse":[9,34,42,61,81,101,121,141,161,181,201,221,241,261,280,300,320,340,360,380,400,420,440,460,480,502,522,542,562,582,602,621,642,662,682,700,722,741,762,781,801,822,841,861,882,900,921,941,961,982,1001,1022,1041,1061,1082,1101,1122,1140,1162,1181,1201,1221,1242,1261,1280,1302,1321,1342,1361,1381,1400,1421,1442,1461,1482,1502,1522,1541,1562,1582,1601,1622,1642,1662,1682,1701,1722,1741,1761,1781,1802,1821,1842,1861,1882,1901,1922,1941,1961,1981,2000,2021,2042,2061,2080,2101,2120,2140,2161,2181,2202,2222,2241,2261,2281,2302,2321,2341,2361,2381,2401,2424,2441,2460,2482,2501,2520,2541,2561,2582,2602],"xSR":741.5,"ySR":573.95,"xT1":424.9,"yT1":0,"xT2":1058.1,"yT2":0,"toosoon":0,"cond_shown":"Incongruent","ratio_trial":300,"L_num":1,"L_den":2,"R_num":3,"R_den":15,"correct_side":1,"subjID":"GabrielaMontealegre25","gender":"1","school":"4","age":"8"},{"start_time":1552327524744,"click_time":1552327528436,"finger_time":1552327527915,"fix_duration":846.5853803228405,"trial":14,"RT":3171,"MT":521,"sideResp":1,"stimulus":[],"xmouse":[783,783,783,783,783,783,783,783,783,783,783,783,783,783,781,780,780,780,780,778,778,778,778,777,777,777,777,777,777,777,777,777,777,777,777,777,777,777,777,777,777,777,777,777,777,777,777,777,777,777,777,777,777,777,777,777,777,777,777,777,777,777,777,777,777,777,777,777,777,777,777,777,777,777,777,777,777,777,777,776,776,776,776,777,779,779,779,779,779,779,779,779,779,779,779,779,779,779,779,779,779,779,779,779,779,779,779,779,779,779,779,779,779,779,779,779,779,779,779,779,779,779,779,779,779,779,779,779,779,779,779,779,779,779,779,779,779,780,780,780,780,780,780,780,780,780,780,780,780,780,780,780,780,780,780,780,767,747,714,662,655,652,650,642,627,614,594,570,554,541,540,539,539,538,537,534,532,531,527,526,515,507,496,492,474],"ymouse":[630,630,630,630,630,630,630,630,630,630,630,630,630,630,632,633,633,633,635,636,636,637,637,637,638,638,638,638,638,638,638,638,638,638,638,638,638,638,638,638,638,638,638,638,638,638,638,638,638,638,638,638,638,638,638,638,638,638,638,638,638,638,638,638,638,638,638,638,638,638,638,638,638,638,638,638,638,638,638,639,638,631,624,615,595,592,589,589,589,589,589,589,589,589,589,589,589,589,589,589,589,588,588,588,588,588,588,588,588,588,588,588,588,588,588,588,588,588,588,588,588,588,588,588,588,588,588,588,588,586,586,586,586,586,585,583,583,583,583,583,583,583,583,583,583,583,583,583,583,583,583,583,583,583,583,582,579,576,565,543,536,527,515,469,401,366,334,305,286,269,264,261,257,254,250,238,235,230,221,215,186,171,143,133,96],"timestamp_mouse":[11,31,52,72,90,112,132,152,171,191,212,232,251,271,292,311,331,351,370,391,410,431,452,472,491,512,531,550,571,592,611,632,652,672,692,711,732,752,772,792,811,831,851,872,891,911,932,950,972,992,1011,1031,1051,1071,1091,1111,1131,1152,1172,1192,1210,1231,1252,1271,1291,1312,1331,1351,1371,1392,1412,1431,1452,1472,1492,1512,1530,1551,1572,1592,1611,1631,1651,1672,1692,1712,1731,1752,1772,1791,1811,1832,1851,1871,1892,1911,1931,1952,1972,1991,2011,2031,2052,2071,2092,2112,2131,2152,2171,2191,2212,2231,2251,2271,2291,2311,2330,2352,2371,2391,2412,2432,2452,2472,2491,2511,2531,2551,2571,2591,2611,2631,2652,2672,2691,2712,2731,2752,2771,2792,2812,2832,2852,2871,2890,2910,2932,2952,2972,2992,3010,3031,3052,3071,3091,3112,3131,3152,3171,3192,3210,3231,3251,3271,3293,3311,3331,3351,3372,3392,3411,3430,3451,3471,3491,3510,3531,3551,3571,3591,3612,3631,3651,3671,3692],"xSR":741.5,"ySR":573.95,"xT1":424.9,"yT1":0,"xT2":1058.1,"yT2":0,"toosoon":0,"cond_shown":"Incongruent","ratio_trial":200,"L_num":7,"L_den":15,"R_num":6,"R_den":9,"correct_side":2,"subjID":"GabrielaMontealegre25","gender":"1","school":"4","age":"8"},{"start_time":1552327531551,"click_time":1552327535256,"finger_time":1552327534716,"fix_duration":1194.7057929685625,"trial":15,"RT":3165,"MT":540,"sideResp":1,"stimulus":[],"xmouse":[772,772,772,772,772,772,772,772,772,772,772,772,772,772,772,772,772,772,772,772,772,772,772,772,772,772,772,772,772,772,772,772,772,772,772,772,772,772,772,772,772,772,772,772,772,772,772,772,772,772,772,772,772,772,772,772,772,772,772,772,772,772,772,772,772,772,772,772,772,772,772,772,772,772,772,772,772,772,772,772,772,772,772,772,772,772,772,772,772,772,772,772,772,772,772,772,772,772,772,772,772,772,772,772,772,772,772,772,772,772,772,772,772,772,772,772,772,772,772,772,772,772,772,772,772,772,772,772,772,772,772,772,772,772,772,772,772,772,772,772,772,772,772,771,771,771,770,769,768,768,766,766,765,764,763,761,759,756,752,748,726,715,706,693,679,656,648,642,637,633,627,615,610,606,601,595,577,559,531,496,440,436,436,436,436,437],"ymouse":[627,627,627,627,627,627,627,627,627,627,627,627,627,627,627,627,627,627,627,627,627,627,627,627,627,627,627,627,627,627,627,627,627,627,627,627,627,627,627,627,627,627,627,627,627,627,627,627,627,627,627,627,627,627,627,627,627,627,627,627,627,627,627,627,627,627,627,627,627,627,627,627,627,627,627,627,627,627,627,627,627,627,627,627,627,627,627,627,627,627,627,627,627,627,627,627,627,627,627,627,627,627,627,627,627,627,627,627,627,627,627,627,627,627,627,627,627,627,627,627,627,627,627,626,626,626,626,626,626,626,626,626,626,626,626,626,625,625,625,625,624,624,623,623,623,623,617,614,611,608,604,602,600,597,595,586,580,575,565,553,513,495,478,458,438,407,398,390,385,380,371,358,351,344,333,321,292,271,241,209,146,131,121,111,102,89],"timestamp_mouse":[11,32,44,64,84,104,123,145,165,185,204,225,244,265,284,303,325,344,364,384,405,424,445,464,485,504,524,544,564,585,605,624,645,664,685,705,724,745,765,785,804,825,844,863,883,905,924,944,965,985,1004,1024,1044,1064,1085,1105,1125,1144,1165,1185,1203,1225,1244,1264,1285,1304,1325,1344,1364,1384,1404,1424,1444,1464,1485,1505,1525,1544,1564,1584,1604,1625,1645,1664,1684,1705,1725,1744,1764,1785,1805,1824,1844,1864,1885,1904,1925,1944,1964,1985,2005,2024,2044,2064,2085,2104,2124,2145,2165,2184,2204,2224,2245,2264,2285,2305,2324,2344,2365,2385,2405,2424,2445,2465,2484,2504,2523,2545,2565,2585,2604,2625,2645,2664,2685,2704,2723,2744,2763,2785,2805,2825,2844,2864,2884,2904,2923,2944,2964,2984,3004,3024,3044,3065,3084,3105,3124,3144,3165,3184,3205,3225,3244,3264,3284,3304,3324,3345,3364,3385,3405,3424,3445,3464,3484,3505,3524,3544,3564,3583,3605,3624,3644,3664,3684,3705],"xSR":741.5,"ySR":573.95,"xT1":424.9,"yT1":0,"xT2":1058.1,"yT2":0,"toosoon":0,"cond_shown":"Incongruent","ratio_trial":100,"L_num":6,"L_den":10,"R_num":11,"R_den":22,"correct_side":1,"subjID":"GabrielaMontealegre25","gender":"1","school":"4","age":"8"},{"start_time":1552327537195,"click_time":1552327541656,"finger_time":1552327537335,"fix_duration":338.74215474205204,"trial":16,"RT":140,"MT":4321,"sideResp":2,"stimulus":[],"xmouse":[786,786,786,786,786,788,793,801,805,807,807,807,807,807,807,807,807,807,807,807,807,807,807,807,806,805,804,803,801,800,800,800,800,800,799,799,799,799,799,799,799,799,799,799,799,799,799,799,799,799,799,799,799,799,798,798,797,797,796,795,793,792,792,791,790,790,790,790,789,788,788,788,788,788,788,788,788,788,788,788,788,788,788,788,788,788,788,788,788,788,788,788,788,788,788,788,788,788,788,788,788,788,788,788,788,788,788,788,788,788,788,788,788,788,788,788,788,788,788,788,788,788,788,788,788,788,788,788,787,787,787,787,787,787,787,787,787,787,787,787,787,787,787,787,787,787,787,787,787,787,787,787,787,787,787,787,787,787,787,787,787,787,787,787,787,787,787,787,787,786,786,786,786,786,786,786,786,786,786,786,786,786,785,785,785,784,784,784,784,784,784,784,785,790,807,815,823,830,838,847,868,882,888,892,896,915,924,933,947,969,979,988,991,991,992,992,994,995,995,1003,1017,1030,1051,1072],"ymouse":[612,612,612,610,602,595,585,571,563,554,554,554,554,554,554,554,554,554,554,554,554,554,554,553,553,553,553,554,555,556,557,558,560,561,564,566,568,569,571,571,572,573,574,574,575,578,579,580,581,584,585,586,587,588,591,593,595,598,600,604,606,608,610,611,612,613,613,615,616,618,618,618,618,618,618,618,618,618,618,618,618,618,618,618,618,618,618,618,618,618,618,618,618,618,618,618,618,618,618,618,618,618,618,618,618,618,618,618,618,618,618,618,618,618,618,618,618,618,618,618,618,618,618,618,618,618,618,618,618,618,618,618,618,618,618,618,618,618,618,618,618,618,618,618,618,618,618,618,618,618,618,618,618,618,618,618,618,618,618,618,618,618,618,618,618,618,618,618,617,616,616,616,616,616,616,616,616,616,616,616,616,616,616,616,616,615,614,613,612,609,605,601,594,581,543,527,500,482,461,439,392,363,342,325,314,277,257,234,206,158,142,128,123,122,122,122,120,120,119,114,104,93,79,68],"timestamp_mouse":[1,31,41,61,80,101,120,140,160,180,200,221,240,261,281,300,320,340,361,380,401,421,439,461,480,500,520,540,561,580,600,620,639,660,681,700,720,741,761,780,799,820,841,860,880,900,920,941,961,980,999,1021,1040,1061,1080,1100,1120,1140,1160,1180,1200,1220,1241,1260,1280,1300,1320,1341,1360,1380,1400,1421,1440,1461,1480,1500,1521,1541,1560,1580,1601,1621,1641,1660,1680,1700,1720,1740,1760,1780,1799,1821,1840,1860,1881,1900,1920,1940,1961,1981,1999,2021,2040,2060,2080,2100,2121,2141,2161,2181,2201,2221,2241,2261,2279,2300,2321,2340,2361,2380,2400,2421,2441,2459,2480,2500,2521,2540,2560,2580,2601,2620,2640,2660,2680,2700,2721,2740,2761,2781,2800,2819,2841,2861,2880,2899,2921,2940,2961,2981,3000,3020,3040,3061,3081,3101,3120,3140,3161,3181,3201,3221,3240,3261,3281,3301,3321,3341,3360,3381,3400,3421,3441,3461,3480,3500,3521,3540,3560,3580,3600,3620,3641,3661,3679,3701,3720,3740,3759,3781,3800,3820,3840,3861,3880,3900,3919,3940,3961,3980,4000,4021,4040,4060,4079,4099,4120,4140,4160,4180,4200,4221,4239,4260,4280,4301,4320,4341,4360,4380,4400,4420,4440,4461],"xSR":741.5,"ySR":573.95,"xT1":424.9,"yT1":0,"xT2":1058.1,"yT2":0,"toosoon":0,"cond_shown":"Congruent","ratio_trial":100,"L_num":11,"L_den":22,"R_num":4,"R_den":10,"correct_side":1,"subjID":"GabrielaMontealegre25","gender":"1","school":"4","age":"8"},{"start_time":1552327545051,"click_time":1552327547595,"finger_time":1552327546855,"fix_duration":953.8325952626209,"trial":17,"RT":1804,"MT":740,"sideResp":1,"stimulus":[],"xmouse":[756,756,756,756,756,756,756,756,756,756,756,756,756,756,756,756,755,755,754,754,754,754,754,754,753,753,753,753,753,753,753,753,753,753,753,753,753,753,753,753,753,753,753,753,753,753,753,753,753,753,753,753,753,753,753,753,753,753,753,753,753,753,753,753,753,753,753,753,753,753,753,753,753,753,753,753,753,753,753,753,753,753,753,753,753,753,753,752,750,743,737,722,698,694,692,692,692,692,689,680,672,667,659,657,654,651,647,635,627,610,579,564,549,548,548,547,547,546,545,545,545,545,545,545,542,538,533,512],"ymouse":[642,642,642,642,642,642,642,642,642,642,642,642,642,642,642,642,642,642,642,642,642,642,642,642,642,642,642,642,642,642,642,642,642,642,642,642,642,642,642,642,642,642,642,642,642,642,642,642,642,642,642,642,642,642,642,642,642,642,642,642,642,642,642,642,642,642,642,642,642,642,642,642,642,642,642,642,642,642,642,642,642,642,642,642,642,642,641,636,634,625,618,571,496,464,433,404,376,326,300,270,248,231,209,203,197,193,191,188,186,178,168,163,157,157,157,156,156,154,153,153,153,153,153,152,144,135,124,92],"timestamp_mouse":[10,24,44,63,84,105,125,145,164,184,205,224,244,264,284,304,324,344,365,385,403,425,444,465,484,503,524,545,565,584,604,625,644,664,684,705,724,744,765,785,805,825,845,865,884,904,925,945,965,984,1005,1024,1044,1063,1085,1105,1124,1145,1164,1184,1205,1224,1244,1265,1284,1304,1324,1344,1364,1384,1405,1424,1444,1464,1485,1504,1525,1545,1565,1584,1605,1624,1644,1664,1684,1704,1724,1743,1764,1783,1804,1824,1844,1864,1885,1903,1924,1945,1964,1984,2005,2024,2044,2064,2084,2103,2124,2144,2165,2185,2204,2224,2245,2265,2284,2304,2324,2344,2364,2385,2404,2424,2444,2463,2485,2504,2525,2544],"xSR":741.5,"ySR":573.95,"xT1":424.9,"yT1":0,"xT2":1058.1,"yT2":0,"toosoon":0,"cond_shown":"Incongruent","ratio_trial":100,"L_num":9,"L_den":15,"R_num":14,"R_den":28,"correct_side":1,"subjID":"GabrielaMontealegre25","gender":"1","school":"4","age":"8"},{"start_time":1552327550774,"click_time":1552327553355,"finger_time":1552327552096,"fix_duration":1476.5795592867753,"trial":18,"RT":1322,"MT":1259,"sideResp":1,"stimulus":[],"xmouse":[808,808,808,808,808,808,808,808,808,808,808,808,808,808,808,808,808,808,808,808,808,808,808,808,808,808,808,808,808,808,808,808,808,808,808,808,808,808,808,808,808,808,808,808,807,807,807,807,807,807,807,807,807,807,807,807,807,807,807,807,807,807,807,807,807,807,807,807,807,807,807,807,807,807,807,807,807,807,807,807,807,807,806,806,805,803,801,801,801,801,801,801,800,799,797,794,783,775,760,741,725,679,665,656,648,645,642,641,640,639,637,629,621,609,596,581,554,549,547,546,546,539,534,529,527,526,526,526,525,524],"ymouse":[578,578,578,578,578,578,578,578,578,578,578,578,578,578,578,578,578,578,578,578,578,578,578,578,578,578,578,578,578,578,578,578,578,578,578,578,578,578,578,578,578,578,578,578,578,578,577,577,577,577,577,577,577,577,577,577,577,577,576,576,576,576,575,574,574,574,573,573,573,572,572,572,572,572,572,572,572,572,572,572,572,572,571,569,567,566,561,561,560,559,558,556,550,547,542,536,510,490,462,438,411,358,341,326,316,308,305,302,300,298,295,281,268,253,237,220,193,182,171,159,144,107,94,84,75,68,61,48,44,41],"timestamp_mouse":[9,35,42,61,82,102,121,142,162,181,202,222,241,261,281,301,321,341,362,381,402,421,442,461,481,501,521,542,561,581,601,622,641,662,680,701,721,741,762,782,801,822,841,862,882,901,922,942,960,982,1001,1022,1041,1061,1082,1102,1121,1141,1162,1181,1202,1220,1242,1261,1282,1302,1322,1342,1362,1381,1402,1422,1441,1461,1481,1501,1522,1542,1561,1580,1601,1622,1641,1661,1681,1702,1722,1741,1762,1781,1802,1821,1841,1862,1881,1901,1922,1941,1962,1982,2002,2022,2041,2061,2082,2100,2121,2141,2161,2182,2202,2221,2241,2261,2280,2301,2322,2341,2361,2382,2401,2422,2441,2461,2481,2500,2521,2541,2562,2581],"xSR":741.5,"ySR":573.95,"xT1":424.9,"yT1":0,"xT2":1058.1,"yT2":0,"toosoon":0,"cond_shown":"Incongruent","ratio_trial":100,"L_num":11,"L_den":22,"R_num":9,"R_den":15,"correct_side":2,"subjID":"GabrielaMontealegre25","gender":"1","school":"4","age":"8"},{"start_time":1552327558242,"click_time":1552327559716,"finger_time":1552327559114,"fix_duration":1406.5424256003648,"trial":19,"RT":872,"MT":602,"sideResp":2,"stimulus":[],"xmouse":[825,825,825,825,825,825,825,825,825,825,825,825,825,825,825,825,825,825,825,825,825,825,826,828,828,829,830,830,831,831,831,831,831,831,831,831,831,832,832,835,836,838,840,848,857,864,871,877,885,888,892,895,900,907,910,911,911,913,915,917,918,919,923,928,937,944,958,975,1014,1032,1047,1063,1075,1098],"ymouse":[650,650,650,650,650,650,650,650,650,650,650,650,650,650,650,650,650,650,650,650,650,650,644,638,637,636,635,634,634,634,634,634,634,634,634,634,634,633,632,628,624,620,614,595,580,572,566,562,555,552,548,543,538,531,527,527,526,526,523,520,519,516,513,502,479,465,441,411,334,288,244,197,151,81],"timestamp_mouse":[22,36,54,74,94,114,134,154,174,193,214,234,252,274,293,313,333,353,373,393,414,433,453,473,493,514,534,554,573,593,613,634,653,673,694,713,733,753,772,793,813,833,853,872,893,914,933,953,974,992,1014,1032,1053,1073,1093,1113,1133,1154,1172,1193,1213,1234,1253,1273,1295,1313,1333,1352,1375,1393,1413,1433,1453,1474],"xSR":741.5,"ySR":573.95,"xT1":424.9,"yT1":0,"xT2":1058.1,"yT2":0,"toosoon":0,"cond_shown":"Incongruent","ratio_trial":200,"L_num":14,"L_den":30,"R_num":12,"R_den":18,"correct_side":2,"subjID":"GabrielaMontealegre25","gender":"1","school":"4","age":"8"},{"start_time":1552327562391,"click_time":1552327563976,"finger_time":1552327563435,"fix_duration":775.3544109379151,"trial":20,"RT":1044,"MT":541,"sideResp":1,"stimulus":[],"xmouse":[798,798,798,798,798,798,798,798,798,798,798,798,798,798,798,798,798,798,798,798,798,798,798,798,798,798,798,798,798,798,798,798,798,798,799,799,800,800,800,800,800,800,800,800,800,800,800,800,800,800,800,800,796,793,781,775,731,707,680,657,641,614,610,609,609,608,607,603,601,597,590,584,565,550,544,533,527,512,499,477],"ymouse":[582,582,582,582,582,582,582,582,582,582,582,582,582,582,582,582,582,582,582,582,582,582,582,582,582,582,582,582,582,581,580,580,579,578,578,577,577,576,576,576,576,576,576,576,576,576,576,576,576,576,575,574,569,567,556,551,496,453,408,368,348,316,310,309,308,307,303,293,288,283,276,270,252,239,234,222,212,165,121,60],"timestamp_mouse":[11,39,43,65,85,105,125,144,165,185,205,225,244,265,285,304,324,344,365,385,404,425,445,465,484,505,524,545,563,585,604,625,644,665,685,705,725,744,765,785,804,824,844,865,884,905,925,945,964,984,1004,1025,1044,1064,1085,1104,1125,1144,1164,1184,1204,1225,1244,1264,1284,1305,1324,1345,1364,1384,1405,1424,1444,1465,1484,1504,1524,1544,1564,1585],"xSR":741.5,"ySR":573.95,"xT1":424.9,"yT1":0,"xT2":1058.1,"yT2":0,"toosoon":0,"cond_shown":"Incongruent","ratio_trial":300,"L_num":8,"L_den":10,"R_num":14,"R_den":28,"correct_side":1,"subjID":"GabrielaMontealegre25","gender":"1","school":"4","age":"8"},{"start_time":1552327566586,"click_time":1552327572496,"finger_time":1552327571674,"fix_duration":930.4736702967967,"trial":21,"RT":5088,"MT":822,"sideResp":1,"stimulus":[],"xmouse":[753,753,753,753,753,753,753,753,753,753,753,753,753,753,753,753,753,753,753,753,753,753,753,753,753,753,753,753,753,753,753,753,753,753,753,753,753,753,753,753,753,753,753,753,753,753,753,753,753,753,753,753,753,753,753,753,753,753,753,753,754,754,755,755,755,755,755,755,755,755,755,755,755,755,755,755,755,755,755,755,755,755,755,755,755,755,755,755,755,755,755,755,755,755,755,755,755,755,755,755,755,755,758,759,759,760,761,762,762,762,762,762,762,762,762,762,762,762,762,762,762,762,762,762,762,762,762,762,763,766,768,769,769,769,770,771,771,772,775,777,778,779,779,779,779,779,779,779,779,779,779,779,779,779,779,779,779,779,779,779,779,779,779,779,779,779,779,779,779,779,779,779,779,779,779,779,779,779,779,779,779,779,779,779,779,779,779,779,779,779,779,779,780,780,780,780,780,780,780,780,780,780,780,780,780,780,780,780,780,780,780,780,780,780,780,780,780,781,781,781,781,781,781,781,781,781,781,781,781,781,781,781,781,781,781,781,781,781,781,781,781,780,778,775,775,775,775,775,775,775,775,775,775,774,772,767,759,750,680,599,499,399,293,256,255,258,276,308,316,321,321,321,321,321,321,321,322,322,326,329,339,344,364,392,405,411,415,418,418,418,418,418,419,422,428,437],"ymouse":[631,631,631,631,631,631,631,631,631,631,631,631,631,631,631,631,631,631,631,631,631,631,631,631,631,631,631,631,631,631,631,631,631,631,631,631,631,631,631,631,631,631,631,631,631,631,631,631,630,629,629,629,629,629,629,629,629,629,629,626,626,625,623,622,622,622,622,622,622,622,622,622,622,622,622,622,622,622,622,622,622,622,622,622,622,622,622,622,622,622,622,622,622,622,622,622,622,622,622,622,622,621,621,621,621,621,621,621,621,621,621,621,621,621,621,621,621,621,621,621,621,621,621,621,621,621,621,621,621,621,621,621,621,621,621,621,621,621,621,621,620,619,619,619,619,619,619,619,619,619,619,619,619,619,619,619,619,619,619,619,619,619,619,619,619,619,619,619,619,619,619,619,619,619,619,617,616,615,615,615,614,614,614,614,614,614,614,614,614,614,614,613,611,611,611,611,611,611,611,611,611,611,611,611,611,611,611,611,611,611,611,611,611,611,611,611,611,610,610,610,610,610,610,610,610,610,610,610,610,610,610,610,610,610,610,610,610,610,610,606,601,591,586,581,581,581,581,581,581,581,581,581,581,574,564,554,538,525,470,422,374,328,271,240,235,222,204,158,133,110,90,90,90,90,90,90,90,90,90,90,93,93,95,98,99,100,100,100,100,100,100,100,100,101,101,98],"timestamp_mouse":[11,32,49,70,90,108,130,150,169,190,209,230,250,269,290,310,330,348,369,390,410,430,450,469,489,510,530,549,569,590,610,629,649,669,690,710,728,750,769,790,810,829,849,869,890,908,929,949,969,989,1009,1029,1049,1070,1090,1110,1129,1150,1168,1190,1209,1229,1249,1270,1290,1309,1330,1349,1370,1390,1410,1428,1450,1469,1489,1509,1529,1548,1570,1589,1609,1630,1650,1669,1689,1710,1729,1750,1770,1789,1808,1830,1849,1870,1889,1910,1929,1949,1970,1989,2010,2030,2049,2069,2090,2110,2129,2149,2169,2190,2209,2229,2249,2269,2289,2309,2329,2349,2370,2389,2409,2430,2449,2470,2489,2509,2530,2548,2568,2590,2609,2629,2650,2670,2689,2709,2729,2749,2769,2789,2810,2830,2849,2869,2890,2910,2930,2949,2969,2989,3009,3030,3049,3070,3090,3110,3129,3150,3169,3190,3209,3228,3250,3270,3289,3309,3330,3349,3369,3389,3408,3430,3450,3470,3489,3510,3529,3549,3570,3588,3609,3630,3649,3670,3690,3709,3730,3750,3770,3790,3809,3829,3849,3870,3890,3909,3929,3950,3970,3990,4008,4029,4050,4069,4090,4110,4129,4150,4170,4189,4209,4230,4250,4269,4290,4310,4328,4349,4370,4390,4410,4429,4450,4469,4488,4509,4529,4550,4570,4590,4610,4629,4648,4669,4690,4709,4730,4749,4769,4789,4809,4829,4848,4868,4890,4910,4930,4949,4969,4989,5010,5030,5049,5070,5088,5109,5129,5149,5169,5190,5209,5230,5250,5269,5289,5309,5329,5351,5368,5389,5409,5429,5450,5470,5490,5509,5529,5549,5569,5590,5609,5629,5649,5670,5689,5709,5729,5749,5768,5790,5810,5830,5849,5869,5889,5909],"xSR":741.5,"ySR":573.95,"xT1":424.9,"yT1":0,"xT2":1058.1,"yT2":0,"toosoon":0,"cond_shown":"Congruent","ratio_trial":300,"L_num":20,"L_den":25,"R_num":13,"R_den":26,"correct_side":1,"subjID":"GabrielaMontealegre25","gender":"1","school":"4","age":"8"},{"start_time":1552327574807,"click_time":1552327576956,"finger_time":1552327576336,"fix_duration":250,"trial":22,"RT":1529,"MT":620,"sideResp":1,"stimulus":[],"xmouse":[787,787,787,787,787,787,787,787,787,787,787,787,787,787,787,787,787,787,787,787,787,787,787,787,787,787,787,787,787,787,787,787,787,787,787,787,787,787,787,787,787,787,787,787,787,787,787,787,787,787,787,787,787,787,787,787,787,787,787,787,787,787,787,787,787,787,787,787,787,787,787,787,787,787,787,787,786,783,775,762,750,742,726,722,712,701,685,653,616,595,580,568,555,551,548,543,539,536,536,536,536,535,535,533,529,524,516,490],"ymouse":[592,592,592,592,592,592,592,592,592,592,592,592,592,592,592,592,592,592,592,592,592,592,592,592,592,592,592,592,592,592,592,592,592,592,592,592,592,592,592,592,592,592,592,592,592,592,592,592,592,592,592,592,592,592,592,592,592,592,592,592,592,592,592,592,592,592,592,592,591,591,590,589,587,585,582,576,566,556,520,487,465,444,396,374,335,299,270,230,200,188,179,173,165,163,161,158,156,154,154,154,154,154,151,146,138,129,117,80],"timestamp_mouse":[10,32,48,68,87,108,128,149,167,188,209,228,248,268,288,308,329,348,368,388,408,429,449,468,489,508,528,549,568,589,608,628,648,668,689,708,729,748,769,788,809,829,848,869,887,908,927,949,968,988,1009,1028,1048,1069,1089,1109,1128,1148,1168,1188,1209,1228,1249,1267,1289,1309,1329,1348,1369,1389,1408,1428,1448,1468,1488,1508,1529,1548,1568,1588,1608,1628,1649,1667,1689,1708,1729,1748,1768,1788,1809,1829,1847,1867,1888,1908,1928,1948,1968,1988,2008,2028,2048,2067,2089,2108,2128,2149],"xSR":741.5,"ySR":573.95,"xT1":424.9,"yT1":0,"xT2":1058.1,"yT2":0,"toosoon":0,"cond_shown":"Congruent","ratio_trial":200,"L_num":4,"L_den":8,"R_num":3,"R_den":10,"correct_side":1,"subjID":"GabrielaMontealegre25","gender":"1","school":"4","age":"8"},{"start_time":1552327579132,"click_time":1552327584875,"finger_time":1552327582274,"fix_duration":614.9334288434733,"trial":23,"RT":3142,"MT":2601,"sideResp":1,"stimulus":[],"xmouse":[815,815,815,815,815,815,815,815,815,815,815,815,815,815,815,815,815,815,815,815,815,815,815,815,815,815,815,815,815,815,815,815,815,815,815,815,815,815,815,815,815,815,815,815,815,815,815,815,815,815,815,815,815,815,815,815,815,815,815,815,815,815,815,815,815,815,815,815,815,815,815,815,815,815,815,815,815,815,815,815,815,815,815,815,815,815,815,815,815,815,815,815,815,815,815,815,813,813,812,812,812,812,812,812,812,812,812,812,812,812,812,812,812,812,812,812,812,812,812,812,812,813,813,813,814,814,814,814,814,814,814,814,814,814,814,814,814,814,814,814,814,814,814,814,814,814,814,814,814,813,813,813,813,813,813,812,812,809,808,807,807,807,807,807,807,807,807,807,807,807,808,808,808,808,808,808,808,808,808,808,808,808,808,808,808,808,808,808,808,808,808,808,808,808,808,808,808,808,808,808,807,807,806,806,806,806,806,806,806,806,806,806,806,805,805,805,805,805,805,805,805,805,805,805,805,805,805,805,805,805,805,805,805,805,805,805,805,805,805,805,805,805,805,805,805,805,805,805,805,805,805,805,805,805,805,805,805,805,805,805,805,805,805,805,805,805,805,800,782,758,730,694,595,542,490,454,424,396,392,391,391,391,391,395,398,404,415,471],"ymouse":[599,599,599,599,599,599,599,599,599,599,599,599,599,599,599,599,599,599,599,599,599,599,599,599,599,599,599,599,599,599,599,599,599,599,599,599,599,599,599,599,599,599,599,599,599,599,599,599,599,599,599,599,599,599,599,599,599,599,599,599,599,599,599,599,599,599,599,599,599,599,599,599,599,599,599,599,599,599,599,599,599,599,599,599,599,599,599,599,599,599,599,599,599,599,599,599,599,599,599,599,599,599,599,599,599,599,599,599,599,599,599,599,599,599,599,599,599,599,599,599,597,596,594,593,593,592,592,592,592,592,592,592,592,592,592,592,592,592,592,592,592,592,591,591,591,591,591,591,591,591,591,591,591,591,591,589,586,573,568,566,566,566,566,566,566,566,566,566,564,564,561,560,560,560,560,560,560,560,560,560,560,560,560,560,560,560,560,560,560,560,560,560,560,560,560,560,560,560,560,559,558,556,553,553,552,552,552,552,552,552,552,552,552,552,552,552,552,552,552,552,552,552,552,552,552,552,552,552,552,552,552,552,552,552,552,552,552,552,552,552,552,552,552,552,552,552,552,552,552,552,552,552,552,552,552,552,552,552,552,552,552,552,552,552,552,552,552,547,527,507,480,446,364,323,286,253,224,188,175,173,170,170,169,167,166,160,148,72],"timestamp_mouse":[17,38,43,63,83,103,123,143,164,183,203,224,243,264,283,302,324,343,364,383,404,423,443,464,483,503,524,542,562,584,604,624,644,663,684,704,722,742,764,784,803,823,844,862,884,904,923,944,963,984,1003,1024,1044,1063,1084,1104,1122,1143,1163,1182,1204,1224,1243,1264,1284,1302,1322,1343,1363,1383,1402,1423,1443,1464,1484,1504,1523,1543,1563,1584,1604,1623,1644,1664,1683,1704,1723,1743,1764,1783,1803,1824,1843,1864,1883,1903,1924,1943,1963,1983,2004,2023,2044,2062,2082,2102,2124,2143,2164,2183,2203,2223,2243,2262,2283,2303,2323,2344,2364,2383,2403,2423,2443,2463,2482,2504,2523,2543,2564,2583,2603,2623,2643,2663,2684,2704,2723,2743,2764,2783,2803,2823,2842,2864,2884,2902,2924,2944,2962,2983,3003,3024,3043,3064,3083,3103,3123,3142,3164,3183,3203,3224,3243,3263,3284,3303,3323,3343,3363,3383,3403,3424,3443,3463,3483,3503,3524,3543,3562,3584,3604,3623,3643,3663,3683,3703,3724,3743,3763,3783,3803,3824,3843,3863,3883,3904,3922,3943,3963,3982,4002,4022,4043,4064,4084,4103,4123,4143,4164,4182,4203,4224,4243,4263,4283,4303,4323,4343,4362,4382,4403,4424,4443,4464,4483,4502,4524,4544,4563,4583,4603,4623,4643,4663,4683,4703,4724,4743,4763,4784,4803,4824,4843,4863,4884,4903,4922,4943,4964,4984,5003,5023,5043,5063,5084,5103,5124,5143,5163,5184,5204,5223,5243,5263,5284,5304,5323,5343,5363,5383,5404,5423,5443,5463,5484,5502,5523,5543,5562,5583,5603,5623,5643,5663,5683,5704,5724,5743],"xSR":741.5,"ySR":573.95,"xT1":424.9,"yT1":0,"xT2":1058.1,"yT2":0,"toosoon":0,"cond_shown":"Congruent","ratio_trial":200,"L_num":8,"L_den":15,"R_num":2,"R_den":6,"correct_side":1,"subjID":"GabrielaMontealegre25","gender":"1","school":"4","age":"8"},{"start_time":1552327589808,"click_time":1552327591417,"finger_time":1552327590995,"fix_duration":1068.8325172335885,"trial":24,"RT":1187,"MT":422,"sideResp":1,"stimulus":[],"xmouse":[742,742,742,742,743,743,743,743,743,743,743,743,743,743,743,743,743,743,743,743,743,743,743,743,743,743,743,743,743,743,743,743,743,743,743,743,743,743,743,743,743,743,743,743,743,743,743,743,743,743,743,743,743,743,743,743,743,743,743,738,722,716,706,704,701,698,696,690,684,666,655,639,629,622,618,615,610,595,584,544,524],"ymouse":[633,633,633,633,633,633,633,633,633,633,633,633,633,633,633,633,633,633,633,633,633,633,633,633,633,633,633,633,633,633,633,633,633,633,633,633,633,633,633,633,633,633,633,633,633,633,633,633,633,633,633,633,633,633,633,633,633,632,628,616,597,589,580,574,562,554,545,534,523,501,491,475,463,448,402,370,306,249,188,75,26],"timestamp_mouse":[10,32,49,68,88,108,127,148,169,188,209,227,248,268,288,307,327,347,369,387,407,427,447,469,488,507,527,549,567,588,607,628,649,669,687,709,727,748,769,789,808,829,848,869,888,909,928,947,967,987,1008,1029,1048,1068,1087,1107,1127,1147,1168,1187,1208,1227,1248,1267,1288,1307,1327,1347,1367,1387,1408,1428,1448,1468,1488,1508,1528,1548,1568,1587,1609],"xSR":741.5,"ySR":573.95,"xT1":424.9,"yT1":0,"xT2":1058.1,"yT2":0,"toosoon":0,"cond_shown":"Incongruent","ratio_trial":100,"L_num":2,"L_den":4,"R_num":8,"R_den":20,"correct_side":1,"subjID":"GabrielaMontealegre25","gender":"1","school":"4","age":"8"},{"start_time":1552327597928,"click_time":1552327600496,"finger_time":1552327598415,"fix_duration":1209.3923189151483,"trial":25,"RT":487,"MT":2081,"sideResp":1,"stimulus":[],"xmouse":[767,767,767,767,767,767,767,767,767,767,767,767,767,767,767,767,767,767,767,768,768,768,768,768,768,768,768,768,769,770,770,771,771,771,772,772,772,772,772,772,772,772,772,772,772,772,772,772,772,772,772,772,769,766,754,746,738,733,727,725,724,724,723,723,720,714,710,704,699,684,672,668,660,659,659,659,659,659,659,659,658,650,641,633,621,616,611,606,598,582,576,574,572,572,572,570,566,562,558,550,547,546,538,523,491,476,467,465,465,465,465,465,465,465,465,465,465,465,465,469,473,474,476,476,478,479,480,482,483],"ymouse":[579,579,579,579,579,579,579,579,579,579,579,579,579,579,579,579,579,579,579,577,576,574,574,574,573,573,572,572,570,569,568,567,566,566,565,565,565,565,565,565,565,565,565,565,565,565,565,565,565,565,565,561,554,547,528,520,508,500,473,457,437,416,384,365,320,293,267,240,218,169,133,124,104,99,99,99,99,99,99,99,98,97,97,97,97,97,97,97,97,97,97,97,97,97,97,97,97,98,98,98,98,99,101,103,103,103,103,104,104,104,104,104,104,104,104,104,104,104,104,104,103,103,102,102,102,101,101,100,99],"timestamp_mouse":[8,40,49,69,89,108,127,149,169,189,208,229,247,268,287,307,329,349,368,388,408,427,449,467,487,509,527,547,568,588,608,628,648,667,688,707,729,747,768,788,807,828,849,867,888,908,928,947,967,989,1008,1028,1047,1068,1088,1108,1129,1149,1169,1187,1207,1229,1247,1267,1288,1308,1328,1348,1367,1389,1407,1427,1447,1469,1488,1509,1527,1547,1568,1588,1608,1628,1648,1668,1688,1707,1728,1748,1769,1787,1807,1827,1847,1867,1888,1907,1927,1947,1968,1987,2008,2028,2048,2068,2088,2107,2127,2147,2168,2188,2208,2229,2249,2269,2287,2307,2328,2348,2369,2387,2408,2428,2447,2469,2487,2508,2529,2548,2567],"xSR":741.5,"ySR":573.95,"xT1":424.9,"yT1":0,"xT2":1058.1,"yT2":0,"toosoon":0,"cond_shown":"Congruent","ratio_trial":200,"L_num":3,"L_den":10,"R_num":11,"R_den":22,"correct_side":2,"subjID":"GabrielaMontealegre25","gender":"1","school":"4","age":"8"},{"start_time":1552327604523,"click_time":1552327606936,"finger_time":1552327605996,"fix_duration":1025.676445665629,"trial":26,"RT":1473,"MT":940,"sideResp":1,"stimulus":[],"xmouse":[800,800,800,800,800,800,800,800,800,800,800,800,799,799,799,799,799,799,798,798,798,798,798,798,798,798,798,798,798,798,798,798,798,798,798,798,798,798,798,798,798,798,798,798,798,798,798,798,798,798,798,798,798,798,798,798,798,798,798,798,798,798,798,798,798,798,798,798,798,796,783,771,754,727,701,649,635,628,618,609,603,600,596,593,593,593,593,594,594,594,593,590,588,584,582,574,572,562,549,522,510,498,491,486,481,481,480,480,480,480,480,480,480,480,480,481,483,485,489,491,493],"ymouse":[609,609,609,609,609,609,609,609,609,609,609,609,609,609,609,609,609,609,609,609,609,609,609,609,609,609,609,609,609,609,609,609,609,609,609,609,609,609,609,609,609,609,609,609,609,609,609,609,609,609,609,609,609,609,609,609,609,609,609,609,609,609,609,609,609,609,609,609,609,607,595,586,575,564,553,529,519,510,480,440,394,368,343,320,304,283,275,267,265,251,249,245,242,237,233,230,229,224,217,198,189,181,175,169,163,163,163,163,163,163,163,163,162,161,160,152,147,141,128,118,97],"timestamp_mouse":[13,40,53,73,92,113,134,153,174,194,212,233,254,274,293,312,334,354,373,394,412,434,452,472,492,514,534,554,572,594,614,633,654,673,692,713,733,753,774,794,812,833,852,874,893,914,934,952,972,994,1014,1034,1054,1072,1093,1113,1134,1153,1174,1193,1212,1233,1252,1273,1292,1313,1333,1354,1373,1392,1413,1432,1453,1473,1492,1513,1533,1553,1572,1593,1613,1634,1654,1673,1694,1714,1732,1752,1772,1793,1812,1832,1854,1873,1892,1912,1933,1953,1974,1994,2012,2032,2052,2072,2094,2112,2132,2152,2173,2194,2214,2233,2253,2272,2292,2312,2333,2354,2373,2393,2413],"xSR":741.5,"ySR":573.95,"xT1":424.9,"yT1":0,"xT2":1058.1,"yT2":0,"toosoon":0,"cond_shown":"Congruent","ratio_trial":300,"L_num":3,"L_den":6,"R_num":2,"R_den":10,"correct_side":1,"subjID":"GabrielaMontealegre25","gender":"1","school":"4","age":"8"},{"start_time":1552327608658,"click_time":1552327610436,"finger_time":1552327609475,"fix_duration":620.2556123800723,"trial":27,"RT":817,"MT":961,"sideResp":2,"stimulus":[],"xmouse":[803,803,803,803,803,803,803,803,803,803,803,803,803,803,803,803,803,803,803,803,803,803,803,803,803,803,803,803,803,803,803,803,803,803,803,803,803,803,803,804,804,806,808,812,818,823,831,839,854,856,857,858,858,858,858,858,858,858,858,860,868,879,906,978,1016,1051,1073,1087,1094,1107,1111,1116,1120,1120,1121,1121,1121,1121,1121,1121,1121,1121,1121,1121,1121,1121,1121,1121,1121],"ymouse":[580,580,581,581,581,581,581,581,581,581,581,581,581,581,581,581,581,581,581,581,581,581,581,581,581,581,581,581,581,581,581,581,581,581,581,581,580,580,579,574,569,562,555,542,531,521,509,492,466,459,453,453,453,453,453,452,450,447,429,418,394,372,336,255,221,187,166,151,140,124,120,116,113,111,109,109,109,109,109,109,109,109,109,109,108,106,103,101,98],"timestamp_mouse":[25,37,59,79,99,117,138,157,179,197,217,239,258,278,297,317,338,359,379,399,418,437,457,479,498,519,538,558,577,599,618,639,659,677,697,717,738,759,777,797,817,838,858,877,898,918,938,957,977,999,1018,1037,1057,1077,1098,1118,1138,1157,1179,1197,1218,1239,1258,1279,1297,1318,1338,1358,1377,1398,1417,1438,1458,1478,1497,1517,1538,1558,1577,1597,1618,1638,1659,1678,1698,1719,1738,1759,1778],"xSR":741.5,"ySR":573.95,"xT1":424.9,"yT1":0,"xT2":1058.1,"yT2":0,"toosoon":0,"cond_shown":"Incongruent","ratio_trial":100,"L_num":8,"L_den":20,"R_num":1,"R_den":2,"correct_side":2,"subjID":"GabrielaMontealegre25","gender":"1","school":"4","age":"8"},{"start_time":1552327614178,"click_time":1552327616656,"finger_time":1552327615916,"fix_duration":261.13108239341034,"trial":28,"RT":1738,"MT":740,"sideResp":2,"stimulus":[],"xmouse":[800,800,800,800,800,800,800,800,800,800,800,799,799,798,798,798,797,797,796,796,796,796,796,795,794,794,794,794,794,794,794,794,794,794,794,794,794,794,794,794,794,794,794,794,794,794,794,794,794,794,794,794,794,794,794,794,794,794,794,794,794,794,794,794,794,794,794,794,794,794,794,794,794,794,794,794,795,795,797,799,800,802,803,813,820,832,842,860,935,979,1015,1037,1076,1085,1094,1103,1110,1115,1122,1124,1125,1127,1128,1129,1129,1129,1129,1129,1129,1129,1129,1129,1129,1129,1129,1129,1129,1129,1129,1129,1130,1130,1130,1130],"ymouse":[642,642,642,642,642,642,642,642,642,642,642,642,642,642,642,642,642,642,642,643,643,643,643,643,643,643,643,643,643,643,643,643,643,643,643,643,643,643,643,643,643,643,643,643,643,643,643,643,643,643,643,643,643,643,643,643,643,643,643,643,643,643,643,643,643,643,643,643,643,643,643,643,643,643,643,643,643,643,643,643,643,643,643,639,632,619,606,585,489,431,375,328,236,216,194,178,165,156,139,133,129,126,123,121,121,121,121,121,121,121,121,121,121,121,121,121,121,121,119,116,112,107,103,98],"timestamp_mouse":[19,39,59,78,99,117,137,157,179,199,217,238,259,277,299,317,338,358,379,398,418,438,457,478,497,517,539,558,577,598,619,638,659,679,697,718,737,757,777,798,818,839,858,878,898,919,938,958,977,998,1019,1038,1058,1077,1097,1118,1139,1158,1178,1199,1219,1237,1257,1279,1297,1317,1338,1359,1378,1397,1419,1439,1458,1477,1498,1517,1538,1557,1577,1599,1617,1638,1657,1678,1697,1718,1738,1758,1778,1798,1818,1838,1859,1877,1897,1917,1937,1957,1978,1998,2017,2039,2057,2078,2097,2118,2139,2157,2177,2198,2219,2239,2258,2278,2298,2317,2338,2359,2378,2398,2418,2438,2458,2478],"xSR":741.5,"ySR":573.95,"xT1":424.9,"yT1":0,"xT2":1058.1,"yT2":0,"toosoon":0,"cond_shown":"Congruent","ratio_trial":300,"L_num":2,"L_den":20,"R_num":10,"R_den":25,"correct_side":2,"subjID":"GabrielaMontealegre25","gender":"1","school":"4","age":"8"},{"start_time":1552327620299,"click_time":1552327622058,"finger_time":1552327621695,"fix_duration":741.6315247134313,"trial":29,"RT":1396,"MT":363,"sideResp":1,"stimulus":[],"xmouse":[786,786,786,786,786,786,786,786,786,786,786,786,786,786,786,786,786,786,786,786,786,786,786,786,786,786,786,786,786,786,786,786,786,786,786,786,786,786,786,786,786,786,786,786,786,786,786,786,786,786,786,786,786,786,786,786,786,786,786,786,786,786,786,786,786,786,786,781,773,763,751,737,723,717,712,704,696,689,671,660,650,636,621,575,560,548,540,522],"ymouse":[661,661,661,661,661,661,661,661,661,661,661,661,661,661,661,661,661,661,661,661,661,661,661,661,661,661,661,661,661,661,661,661,661,661,661,661,661,661,661,661,661,661,661,661,661,661,661,660,658,657,656,655,655,654,654,654,653,653,653,653,653,652,651,646,641,637,630,607,590,567,543,501,452,423,397,371,348,327,288,267,250,229,208,152,134,119,107,84],"timestamp_mouse":[19,36,57,78,97,117,137,158,176,197,216,238,258,277,296,317,337,357,378,398,417,436,458,478,497,517,537,558,577,597,617,638,656,678,697,716,737,757,777,798,816,836,857,877,897,918,938,957,977,996,1016,1038,1058,1077,1097,1117,1136,1157,1177,1196,1216,1237,1256,1278,1296,1318,1336,1357,1376,1396,1417,1437,1458,1476,1497,1518,1537,1558,1577,1597,1617,1637,1656,1677,1697,1718,1737,1758],"xSR":741.5,"ySR":573.95,"xT1":424.9,"yT1":0,"xT2":1058.1,"yT2":0,"toosoon":0,"cond_shown":"Incongruent","ratio_trial":200,"L_num":7,"L_den":10,"R_num":12,"R_den":24,"correct_side":1,"subjID":"GabrielaMontealegre25","gender":"1","school":"4","age":"8"},{"start_time":1552327625376,"click_time":1552327628116,"finger_time":1552327627475,"fix_duration":1237.6488277437152,"trial":30,"RT":2099,"MT":641,"sideResp":2,"stimulus":[],"xmouse":[754,754,754,754,754,754,754,754,754,754,754,754,754,754,756,756,756,757,757,757,758,758,758,758,759,759,759,759,759,760,760,761,761,761,761,761,761,761,763,763,763,763,763,763,763,763,763,763,763,763,763,763,763,763,763,763,763,763,763,763,763,763,763,763,763,763,763,763,763,763,763,763,763,763,763,763,763,763,763,763,763,763,763,763,763,763,763,763,763,763,763,763,763,763,763,763,763,763,763,763,763,763,763,763,768,780,786,794,805,818,830,853,861,867,876,899,910,918,924,929,936,941,946,951,956,964,971,978,988,996,1001,1004,1007,1011,1014,1025,1048,1066],"ymouse":[596,596,596,596,596,596,596,596,596,596,596,596,596,596,596,596,596,595,594,594,593,593,593,593,592,592,591,591,591,591,590,589,589,589,589,589,589,589,588,588,588,588,588,588,588,588,588,588,588,588,588,588,588,588,588,588,588,588,588,588,588,588,588,588,588,588,588,588,588,588,588,588,588,588,588,588,588,588,588,588,588,588,588,588,588,587,587,587,587,587,587,587,587,587,587,587,587,587,587,587,587,586,584,582,577,566,554,539,522,498,473,420,394,369,345,288,268,250,238,227,212,205,199,195,189,180,171,163,150,138,127,121,116,108,102,89,76,66],"timestamp_mouse":[8,30,40,61,80,100,120,139,161,180,200,219,240,259,280,300,320,339,359,381,399,420,439,460,480,501,520,540,560,579,600,621,640,661,680,701,721,739,760,781,801,819,841,861,880,901,921,939,961,981,1000,1019,1040,1060,1079,1101,1119,1141,1161,1180,1199,1219,1241,1261,1279,1301,1320,1341,1360,1381,1401,1420,1439,1461,1480,1500,1520,1540,1560,1581,1599,1619,1639,1661,1679,1700,1721,1741,1760,1779,1800,1821,1840,1861,1880,1901,1919,1941,1961,1979,2001,2019,2041,2060,2080,2099,2121,2140,2161,2180,2200,2219,2239,2260,2281,2301,2320,2340,2360,2380,2400,2419,2440,2460,2479,2501,2519,2540,2560,2581,2601,2619,2640,2660,2681,2701,2720,2739],"xSR":741.5,"ySR":573.95,"xT1":424.9,"yT1":0,"xT2":1058.1,"yT2":0,"toosoon":0,"cond_shown":"Incongruent","ratio_trial":200,"L_num":4,"L_den":30,"R_num":1,"R_den":3,"correct_side":2,"subjID":"GabrielaMontealegre25","gender":"1","school":"4","age":"8"},{"start_time":1552327629952,"click_time":1552327631796,"finger_time":1552327631497,"fix_duration":654.1517540313314,"trial":31,"RT":1545,"MT":299,"sideResp":2,"stimulus":[],"xmouse":[773,773,773,773,773,773,773,773,773,773,773,773,773,773,773,773,773,773,773,773,773,773,773,773,773,773,773,773,773,773,773,773,773,773,773,773,773,773,773,773,773,773,773,773,773,773,773,773,773,773,773,773,773,773,773,773,773,773,773,773,773,773,773,773,773,773,773,773,773,774,774,774,776,777,783,791,801,834,849,868,884,923,947,976,1005,1039,1057,1078,1088,1095,1102,1108,1119],"ymouse":[633,633,633,633,633,633,633,633,633,633,633,633,633,633,633,633,633,633,633,633,633,633,633,633,633,633,633,633,633,633,633,633,633,633,633,633,633,633,633,633,633,633,633,633,633,633,633,633,633,633,633,633,633,633,633,633,633,633,633,633,632,630,630,629,629,629,629,629,629,627,627,626,621,617,608,594,576,525,505,480,457,402,373,336,304,261,233,190,167,146,128,112,88],"timestamp_mouse":[9,25,44,63,85,104,123,143,163,184,203,230,243,264,284,304,323,343,365,384,405,424,444,465,485,503,523,543,564,583,603,623,643,665,683,705,724,744,763,785,805,823,843,864,883,903,925,943,965,984,1004,1024,1044,1064,1085,1105,1124,1144,1163,1185,1203,1224,1245,1263,1283,1304,1325,1344,1363,1385,1403,1423,1443,1464,1484,1503,1523,1545,1564,1584,1604,1625,1643,1664,1683,1703,1724,1744,1763,1784,1803,1824,1843],"xSR":741.5,"ySR":573.95,"xT1":424.9,"yT1":0,"xT2":1058.1,"yT2":0,"toosoon":0,"cond_shown":"Congruent","ratio_trial":300,"L_num":3,"L_den":12,"R_num":11,"R_den":20,"correct_side":2,"subjID":"GabrielaMontealegre25","gender":"1","school":"4","age":"8"},{"start_time":1552327633148,"click_time":1552327634996,"finger_time":1552327634315,"fix_duration":250,"trial":32,"RT":1167,"MT":681,"sideResp":2,"stimulus":[],"xmouse":[773,773,773,773,773,773,773,773,773,773,773,773,773,773,773,773,773,773,773,773,773,773,773,773,773,773,773,773,773,773,773,773,773,773,773,773,773,773,773,773,773,773,773,773,773,773,773,773,773,773,773,773,773,774,775,776,779,791,801,813,825,841,869,890,903,915,927,950,962,969,977,982,991,995,1003,1008,1011,1018,1019,1022,1023,1024,1028,1029,1032,1037,1040,1045,1047,1049,1051,1056,1076],"ymouse":[598,598,598,598,598,598,598,598,598,598,598,598,598,598,598,598,598,598,598,598,598,598,598,598,598,598,598,598,598,598,598,598,598,598,598,598,598,598,598,598,598,598,598,598,598,598,598,598,598,598,598,598,598,596,596,594,591,581,571,560,551,537,509,484,466,447,426,387,367,351,334,318,289,275,255,245,236,224,215,208,200,192,171,164,154,145,137,125,121,118,115,109,98],"timestamp_mouse":[10,34,48,68,88,108,128,148,167,188,209,227,248,269,287,307,328,348,368,389,407,428,448,467,489,508,529,548,567,589,609,629,648,668,689,707,727,748,769,787,808,828,848,869,887,909,928,947,968,988,1009,1029,1047,1068,1087,1109,1128,1147,1167,1187,1208,1228,1248,1268,1288,1308,1328,1348,1368,1388,1407,1429,1449,1468,1488,1507,1528,1549,1567,1588,1608,1627,1648,1669,1688,1709,1728,1747,1768,1788,1807,1829,1847],"xSR":741.5,"ySR":573.95,"xT1":424.9,"yT1":0,"xT2":1058.1,"yT2":0,"toosoon":0,"cond_shown":"Congruent","ratio_trial":200,"L_num":3,"L_den":10,"R_num":11,"R_den":22,"correct_side":2,"subjID":"GabrielaMontealegre25","gender":"1","school":"4","age":"8"},{"start_time":1552327637416,"click_time":1552327638997,"finger_time":1552327638816,"fix_duration":1079.772045565644,"trial":33,"RT":1400,"MT":181,"sideResp":2,"stimulus":[],"xmouse":[803,803,803,803,803,803,803,803,803,803,803,803,803,803,803,804,804,804,804,804,805,805,806,806,807,808,809,810,811,811,811,811,811,811,811,811,811,811,811,811,811,811,811,811,811,811,811,811,811,811,811,811,811,811,811,811,811,811,811,811,811,811,811,811,811,811,811,811,812,814,842,866,898,932,1002,1037,1068,1090,1110,1133],"ymouse":[622,622,622,622,622,622,622,622,622,622,622,622,622,622,621,620,620,620,620,620,619,619,619,619,618,618,618,618,618,618,618,618,618,618,618,618,618,618,618,618,618,618,618,618,618,618,618,618,618,618,618,618,618,618,618,618,618,618,618,618,618,618,618,618,618,618,618,618,617,615,569,530,476,420,295,236,188,153,123,86],"timestamp_mouse":[6,25,42,60,80,100,120,141,160,179,199,221,241,259,279,299,319,340,361,379,400,419,440,460,479,499,520,539,560,579,600,620,641,659,680,700,721,739,761,781,799,820,841,859,879,901,921,940,960,981,1000,1021,1040,1059,1080,1101,1120,1140,1161,1180,1199,1219,1241,1261,1280,1299,1320,1340,1361,1379,1400,1420,1440,1460,1480,1499,1520,1540,1561,1580],"xSR":741.5,"ySR":573.95,"xT1":424.9,"yT1":0,"xT2":1058.1,"yT2":0,"toosoon":0,"cond_shown":"Incongruent","ratio_trial":100,"L_num":13,"L_den":26,"R_num":6,"R_den":10,"correct_side":2,"subjID":"GabrielaMontealegre25","gender":"1","school":"4","age":"8"},{"start_time":1552327643571,"click_time":1552327645456,"finger_time":1552327645016,"fix_duration":833.2604942284007,"trial":34,"RT":1445,"MT":440,"sideResp":1,"stimulus":[],"xmouse":[769,769,769,769,769,769,769,769,769,769,769,769,769,769,769,769,769,769,769,769,769,769,769,769,769,769,769,769,769,769,769,769,769,769,769,769,769,769,769,769,769,769,769,769,769,769,769,769,769,769,769,769,769,768,768,768,768,768,768,768,768,768,768,768,768,768,768,768,768,768,768,768,765,762,759,756,753,745,743,740,739,737,733,731,727,722,716,695,681,656,633,607,555,528,507],"ymouse":[594,594,594,594,594,594,594,594,594,594,594,594,594,594,594,594,594,594,594,594,594,594,594,594,594,594,594,594,594,594,594,594,594,594,594,594,594,594,594,594,593,592,592,592,591,591,590,589,589,587,587,586,583,580,578,577,577,577,577,577,577,577,577,577,577,577,577,577,577,577,577,577,573,569,565,561,557,544,542,536,533,530,523,519,514,508,499,465,431,361,300,240,127,79,37],"timestamp_mouse":[11,25,44,66,85,105,126,145,166,185,204,225,245,266,285,304,325,344,364,386,406,424,444,466,486,505,525,546,564,584,605,625,646,666,684,705,726,746,765,785,804,826,845,864,885,904,925,944,966,986,1006,1024,1044,1064,1085,1106,1125,1145,1164,1185,1205,1224,1244,1264,1286,1305,1324,1346,1365,1386,1404,1424,1445,1464,1485,1504,1524,1546,1566,1585,1606,1625,1645,1665,1685,1704,1726,1744,1765,1785,1804,1824,1845,1864,1885],"xSR":741.5,"ySR":573.95,"xT1":424.9,"yT1":0,"xT2":1058.1,"yT2":0,"toosoon":0,"cond_shown":"Congruent","ratio_trial":100,"L_num":2,"L_den":5,"R_num":11,"R_den":22,"correct_side":2,"subjID":"GabrielaMontealegre25","gender":"1","school":"4","age":"8"},{"start_time":1552327650312,"click_time":1552327652117,"finger_time":1552327651776,"fix_duration":954.2202735060055,"trial":35,"RT":1464,"MT":341,"sideResp":2,"stimulus":[],"xmouse":[776,776,776,776,776,776,775,775,774,773,772,771,771,771,771,771,771,771,771,771,771,771,771,771,771,771,771,771,771,770,770,771,771,771,771,771,771,771,771,771,771,771,771,771,771,771,771,771,771,771,771,771,771,771,771,771,771,771,771,771,771,771,771,772,774,774,777,778,781,786,789,799,804,809,815,827,834,841,846,860,877,945,982,1005,1020,1031,1044,1051,1054,1059,1065],"ymouse":[631,631,631,631,631,631,631,631,631,631,631,631,631,631,631,631,631,631,631,631,631,631,631,631,631,631,631,631,631,631,630,630,630,630,630,630,630,630,630,630,630,630,630,630,630,630,630,630,630,630,630,630,630,630,630,630,630,630,630,630,630,630,630,628,627,626,624,621,617,610,605,591,580,569,556,533,520,506,493,465,432,327,277,239,210,191,155,130,115,101,88],"timestamp_mouse":[11,36,44,65,84,105,124,145,165,185,206,225,244,265,284,305,325,345,365,384,405,424,444,464,484,505,524,544,565,584,604,625,645,665,684,705,724,745,764,786,805,824,844,865,884,904,924,945,965,985,1005,1024,1045,1065,1084,1105,1125,1144,1165,1185,1205,1225,1245,1265,1284,1305,1324,1344,1364,1385,1404,1424,1444,1464,1485,1506,1524,1544,1564,1584,1604,1625,1644,1665,1684,1705,1724,1744,1764,1785,1805],"xSR":741.5,"ySR":573.95,"xT1":424.9,"yT1":0,"xT2":1058.1,"yT2":0,"toosoon":0,"cond_shown":"Incongruent","ratio_trial":100,"L_num":11,"L_den":22,"R_num":9,"R_den":15,"correct_side":2,"subjID":"GabrielaMontealegre25","gender":"1","school":"4","age":"8"},{"start_time":1552327654716,"click_time":1552327656717,"finger_time":1552327656317,"fix_duration":1279.075361462203,"trial":36,"RT":1601,"MT":400,"sideResp":2,"stimulus":[],"xmouse":[761,761,761,761,761,761,761,761,761,761,761,761,761,761,761,761,761,761,761,761,761,761,761,761,761,761,761,761,761,761,761,761,761,761,761,761,761,761,761,761,761,761,761,761,761,761,761,761,761,761,761,761,761,761,761,761,761,761,761,763,764,766,767,768,768,769,769,769,769,769,770,770,770,771,771,773,777,779,783,790,808,842,856,869,881,890,903,906,910,915,919,930,939,950,963,978,996,1035,1056,1084,1119],"ymouse":[615,615,615,615,615,615,615,615,615,615,615,615,615,615,615,615,615,615,615,615,615,615,615,615,615,615,615,615,615,615,615,615,615,615,615,615,615,615,615,615,615,615,615,615,615,615,615,615,615,615,615,615,615,615,615,615,615,615,615,612,611,608,608,606,605,605,605,605,605,605,604,603,603,602,601,599,595,592,589,581,568,537,513,490,467,449,415,408,398,382,368,329,309,289,270,252,232,187,163,131,88],"timestamp_mouse":[9,20,41,60,80,101,120,140,161,180,201,221,240,261,280,301,321,340,360,381,400,420,441,461,481,501,520,541,560,580,601,620,641,661,680,701,720,741,761,781,801,821,840,861,881,900,921,941,961,981,1000,1021,1041,1061,1080,1101,1120,1141,1160,1181,1200,1220,1240,1261,1280,1301,1321,1341,1360,1381,1400,1421,1442,1462,1480,1501,1520,1541,1560,1581,1601,1620,1640,1661,1681,1700,1720,1740,1760,1780,1800,1820,1840,1861,1880,1901,1920,1940,1960,1980,2001],"xSR":741.5,"ySR":573.95,"xT1":424.9,"yT1":0,"xT2":1058.1,"yT2":0,"toosoon":0,"cond_shown":"Congruent","ratio_trial":300,"L_num":3,"L_den":12,"R_num":11,"R_den":20,"correct_side":2,"subjID":"GabrielaMontealegre25","gender":"1","school":"4","age":"8"},{"start_time":1552327658563,"click_time":1552327660778,"finger_time":1552327659896,"fix_duration":365.06890240439213,"trial":37,"RT":1333,"MT":882,"sideResp":1,"stimulus":[],"xmouse":[765,765,765,765,765,770,775,777,777,777,777,777,777,777,777,777,777,777,777,777,777,777,777,777,777,777,777,777,777,777,777,777,777,777,777,777,777,777,777,777,777,777,777,777,777,777,777,777,777,777,777,777,777,777,777,777,777,777,777,777,777,777,776,775,770,765,758,753,750,746,746,746,746,746,747,750,751,751,749,742,736,719,709,697,673,663,656,652,652,652,650,646,636,622,583,569,559,551,549,549,549,549,549,549,549,549,548,545,536,506,493],"ymouse":[602,602,602,604,607,612,614,614,614,614,614,614,614,614,614,614,614,614,614,614,614,614,614,614,614,614,614,614,614,614,614,614,614,614,614,614,614,614,614,614,614,614,614,614,614,614,614,614,614,614,614,614,614,614,614,614,614,614,614,614,614,614,611,608,593,578,564,547,532,496,480,464,443,431,399,381,360,341,321,278,253,216,198,180,145,132,123,119,118,118,118,118,118,120,120,120,119,118,118,118,118,118,117,117,117,117,117,115,110,100,94],"timestamp_mouse":[13,38,53,73,94,113,133,154,173,194,213,233,253,274,293,314,333,353,374,393,413,434,453,474,495,513,534,553,573,594,614,633,654,673,693,714,735,754,774,794,815,834,853,873,893,914,934,954,974,993,1013,1033,1054,1073,1093,1114,1133,1154,1174,1194,1213,1233,1253,1274,1293,1313,1333,1354,1373,1394,1414,1433,1453,1473,1493,1513,1534,1553,1573,1593,1614,1633,1653,1673,1694,1713,1733,1754,1773,1793,1813,1833,1853,1873,1894,1913,1934,1953,1974,1993,2013,2033,2054,2074,2093,2113,2134,2154,2173,2193,2214],"xSR":741.5,"ySR":573.95,"xT1":424.9,"yT1":0,"xT2":1058.1,"yT2":0,"toosoon":0,"cond_shown":"Incongruent","ratio_trial":300,"L_num":8,"L_den":10,"R_num":14,"R_den":28,"correct_side":1,"subjID":"GabrielaMontealegre25","gender":"1","school":"4","age":"8"},{"start_time":1552327663360,"click_time":1552327665336,"finger_time":1552327664516,"fix_duration":403.4436872738191,"trial":38,"RT":1156,"MT":820,"sideResp":2,"stimulus":[],"xmouse":[753,753,753,753,753,753,753,753,753,753,753,753,753,753,753,753,753,753,753,753,754,754,754,754,754,754,754,754,754,754,754,754,754,754,754,754,754,754,754,754,754,754,754,754,754,754,754,754,754,754,754,754,754,754,754,754,754,754,756,758,761,764,765,768,770,774,778,783,787,796,813,818,824,828,836,839,843,848,854,867,874,880,883,888,907,921,933,942,950,959,975,985,996,1009,1031,1042,1048,1055,1063],"ymouse":[581,581,580,580,580,580,580,580,580,580,580,580,580,580,580,580,580,580,580,580,579,579,578,578,578,578,576,576,575,575,575,575,574,574,574,574,574,574,574,574,574,574,574,574,574,574,574,574,574,574,574,574,574,574,574,574,574,573,568,564,558,553,551,545,542,532,526,520,514,502,483,475,465,457,439,429,417,403,387,342,319,299,283,268,236,219,204,191,178,162,142,131,118,106,74,56,40,24,9],"timestamp_mouse":[17,36,56,76,97,118,137,157,177,197,216,238,256,277,296,317,336,356,377,397,416,437,457,476,497,516,537,557,577,597,616,636,657,677,696,716,737,756,777,796,817,837,857,877,897,917,936,957,977,996,1017,1036,1056,1077,1097,1116,1136,1156,1177,1197,1216,1237,1256,1276,1297,1316,1336,1357,1376,1396,1417,1436,1456,1476,1496,1516,1536,1556,1577,1597,1616,1636,1656,1677,1695,1716,1736,1756,1776,1796,1816,1836,1856,1876,1896,1916,1936,1956,1976],"xSR":741.5,"ySR":573