[{"start_time":1552054115193,"click_time":1552054118598,"finger_time":1552054115201,"fix_duration":250,"trial":0,"RT":8,"MT":3397,"sideResp":1,"stimulus":[],"xmouse":[760,761,762,763,764,764,764,765,766,767,767,767,767,767,767,767,767,767,767,767,767,767,767,767,767,767,767,767,767,767,767,767,767,767,767,767,767,763,759,758,757,757,757,757,757,757,757,757,757,762,765,767,768,768,768,768,768,768,768,768,768,768,772,773,775,776,777,779,781,782,783,783,783,784,784,784,784,786,787,790,791,791,791,791,791,791,791,791,791,791,791,791,791,791,791,791,793,796,802,805,805,805,805,805,805,805,805,805,805,805,805,804,801,801,801,801,800,799,799,799,799,799,799,799,799,799,799,799,799,799,799,799,797,793,788,783,779,775,772,769,765,762,759,757,755,754,751,747,721,707,689,670,648,608,598,593,592,592,592,592,592,592,592,592,591,589,572,558,535,528,523],"ymouse":[550,550,550,550,550,550,550,550,550,550,550,550,550,550,550,550,550,550,550,550,550,550,550,550,550,550,550,550,550,550,550,550,550,550,550,551,553,569,580,583,585,585,585,585,585,585,585,586,591,600,603,606,608,608,608,608,608,608,608,608,608,608,609,610,610,610,611,611,611,611,611,611,611,611,611,611,611,611,611,611,611,611,611,611,611,611,611,611,611,611,611,611,611,611,611,611,613,619,629,636,637,638,638,638,638,638,638,638,638,638,638,638,638,638,638,638,637,636,636,636,636,636,636,636,636,636,636,636,636,636,636,636,636,630,618,608,597,582,555,543,531,525,517,513,511,506,498,483,419,384,341,293,242,148,119,99,88,77,76,76,76,76,76,76,76,75,70,66,60,58,57],"timestamp_mouse":[7,26,46,64,84,105,124,144,165,185,205,225,245,265,286,306,325,345,365,384,405,425,444,465,485,504,526,545,564,586,606,625,645,665,685,705,726,745,764,785,805,825,844,865,885,905,925,945,964,984,1005,1025,1045,1064,1085,1104,1124,1144,1165,1185,1204,1225,1245,1265,1284,1305,1325,1345,1364,1385,1404,1424,1444,1465,1485,1505,1526,1545,1565,1585,1605,1625,1645,1665,1686,1706,1725,1745,1765,1784,1805,1826,1845,1865,1884,1905,1924,1945,1966,1984,2004,2025,2046,2065,2084,2104,2125,2146,2165,2184,2205,2225,2245,2265,2284,2306,2325,2345,2365,2384,2404,2425,2446,2465,2485,2504,2524,2545,2564,2584,2605,2624,2644,2665,2684,2705,2724,2744,2766,2784,2804,2825,2846,2865,2885,2905,2924,2944,2964,2985,3004,3026,3045,3064,3084,3105,3125,3145,3165,3184,3204,3225,3244,3264,3284,3305,3324,3345,3365,3385,3404],"xSR":741.5,"ySR":501.8,"xT1":424.9,"yT1":0,"xT2":1058.1,"yT2":0,"toosoon":0,"cond_shown":"Congruent","ratio_trial":200,"L_num":3,"L_den":10,"R_num":7,"R_den":14,"correct_side":2,"subjID":"gabrielaramirezsoler19","gender":"1","age":"9","school":"4","test":{"fix_dur":[250,1500],"timestim":1000,"targets_dim":[100,100],"targets_relative_coord":[0.3,0.7],"size_stim":[880,420],"start_dim":[100,100],"size_start":[300,300],"size_fix":60,"samplingrate":20,"img_types":["Congruent","Incongruent"],"ratios":[100,200,300],"rep_conds":19,"nTrials":120,"trials_to_rest":500,"Trials_order":[44,0,102,74,84,86,88,25,36,59,18,103,83,75,60,90,51,47,38,105,87,4,26,17,96,5,101,97,30,23,14,20,107,7,27,32,21,48,45,55,64,115,15,63,50,43,79,52,66,6,58,35,65,34,3,9,71,61,116,114,73,106,93,109,70,19,1,117,113,78,77,2,39,49,112,12,46,82,89,108,54,33,92,119,22,69,56,16,42,31,72,24,41,57,37,95,94,68,100,85,118,28,76,81,62,8,110,40,10,111,11,67,91,80,29,104,13,53,98,99],"cond_shown":["Congruent","Congruent","Congruent","Congruent","Congruent","Congruent","Congruent","Incongruent","Congruent","Incongruent","Congruent","Incongruent","Incongruent","Incongruent","Congruent","Congruent","Incongruent","Incongruent","Congruent","Incongruent","Incongruent","Congruent","Congruent","Incongruent","Congruent","Incongruent","Incongruent","Incongruent","Congruent","Incongruent","Congruent","Congruent","Incongruent","Incongruent","Incongruent","Congruent","Incongruent","Congruent","Incongruent","Incongruent","Congruent","Incongruent","Incongruent","Incongruent","Congruent","Incongruent","Incongruent","Congruent","Congruent","Congruent","Congruent","Incongruent","Incongruent","Congruent","Incongruent","Incongruent","Incongruent","Incongruent","Congruent","Congruent","Incongruent","Congruent","Incongruent","Incongruent","Congruent","Incongruent","Incongruent","Incongruent","Incongruent","Congruent","Incongruent","Congruent","Incongruent","Incongruent","Congruent","Congruent","Congruent","Congruent","Incongruent","Congruent","Congruent","Incongruent","Congruent","Incongruent","Congruent","Incongruent","Congruent","Congruent","Congruent","Incongruent","Congruent","Congruent","Incongruent","Incongruent","Incongruent","Incongruent","Congruent","Congruent","Congruent","Incongruent","Congruent","Congruent","Congruent","Incongruent","Congruent","Congruent","Congruent","Congruent","Congruent","Incongruent","Incongruent","Incongruent","Incongruent","Congruent","Incongruent","Congruent","Incongruent","Incongruent","Congruent","Incongruent"],"ratio_trial":[200,100,100,200,100,200,300,100,100,300,100,100,300,200,100,100,200,300,200,200,200,300,200,300,100,300,300,100,100,300,200,200,300,100,200,200,200,100,200,100,300,100,200,200,200,100,100,300,100,100,300,300,300,300,200,200,300,100,200,100,100,300,200,100,300,100,100,200,300,100,300,200,200,100,300,100,300,300,300,100,100,200,200,300,300,200,200,300,100,100,100,100,300,200,100,300,300,200,300,100,300,300,300,200,200,200,200,300,300,200,300,100,100,200,300,200,100,300,200,200],"left_num":[3,6,6,13,7,8,1,11,9,1,7,2,13,11,12,2,7,4,13,4,14,24,3,4,10,8,13,3,8,13,8,3,4,13,4,3,7,3,3,9,4,2,14,3,12,2,9,4,7,8,18,4,13,20,1,7,4,13,9,7,6,18,7,6,20,3,9,11,1,15,13,4,1,9,1,1,20,1,7,4,11,7,7,4,20,4,9,24,7,6,3,7,8,7,6,1,11,6,1,6,7,8,11,7,9,13,4,11,24,4,8,17,13,8,13,15,13,13,16,14],"right_num":[7,5,15,14,15,3,6,9,8,3,9,6,12,3,13,6,14,2,14,14,6,8,11,2,3,9,12,11,2,12,2,14,8,6,14,14,14,4,1,6,2,6,12,1,6,6,13,13,15,2,9,8,12,9,2,12,2,12,13,15,11,9,6,7,9,11,6,3,2,13,12,3,3,13,8,18,14,3,8,6,6,6,18,2,9,14,4,2,15,13,2,9,9,4,7,2,4,7,6,3,20,10,4,4,13,14,3,2,8,1,14,10,6,7,12,4,6,12,9,12],"left_den":[10,20,12,26,14,15,5,22,15,2,14,4,26,20,30,5,10,20,26,6,30,30,10,20,25,10,26,5,16,26,15,10,5,26,6,6,10,20,10,18,5,4,30,10,20,4,15,20,14,16,20,5,26,25,3,10,20,26,30,14,10,20,15,10,25,5,18,20,2,25,26,10,2,15,30,2,25,5,10,8,22,15,15,20,25,6,20,30,14,10,6,14,10,15,10,2,22,12,5,12,14,15,22,15,30,26,10,22,30,30,10,30,26,15,26,25,26,26,30,30],"right_den":[14,25,25,20,25,9,12,15,16,15,15,15,15,4,26,12,28,4,20,30,9,16,22,4,10,18,15,22,5,15,6,28,16,10,30,20,28,16,2,10,4,15,18,2,15,15,26,26,25,5,15,16,15,18,15,24,4,20,26,25,22,15,9,14,18,22,10,4,10,26,15,15,10,26,24,30,28,6,20,10,15,9,27,4,18,30,16,4,25,26,5,15,18,6,14,10,20,10,12,5,25,12,20,6,26,20,15,10,16,3,28,15,10,21,15,10,10,15,27,18],"correct_side":[2,1,2,2,2,1,2,2,1,1,2,1,2,2,2,2,1,2,2,1,2,1,2,2,1,1,2,1,1,2,1,2,1,2,1,2,1,2,2,2,1,1,2,2,1,1,1,2,2,1,1,1,2,1,1,1,2,2,2,2,1,1,2,1,1,1,2,2,1,1,2,1,1,1,2,2,1,2,1,2,1,2,2,2,1,1,1,1,2,1,1,2,1,2,1,1,1,2,2,2,2,2,1,2,2,2,1,1,1,2,1,2,2,1,2,1,2,2,1,2],"img_shown":["img2/200/Congruent/R/C_Dist_200_LN_3_LD_10_RN_7_RD_14_1.png","img2/100/Congruent/L/C_Dist_100_LN_6_LD_20_RN_5_RD_25_0.png","img2/100/Congruent/R/C_Dist_100_LN_6_LD_12_RN_15_RD_25_1.png","img2/200/Congruent/R/C_Dist_200_LN_13_LD_26_RN_14_RD_20_1.png","img2/100/Congruent/R/C_Dist_100_LN_7_LD_14_RN_15_RD_25_1.png","img2/200/Congruent/L/C_Dist_200_LN_8_LD_15_RN_3_RD_9_0.png","img2/300/Congruent/R/C_Dist_300_LN_1_LD_5_RN_6_RD_12_1.png","img2/100/Incongruent/R/I_Dist_100_LN_11_LD_22_RN_9_RD_15_1.png","img2/100/Congruent/L/C_Dist_100_LN_9_LD_15_RN_8_RD_16_0.png","img2/300/Incongruent/L/I_Dist_300_LN_1_LD_2_RN_3_RD_15_0.png","img2/100/Congruent/R/C_Dist_100_LN_7_LD_14_RN_9_RD_15_1.png","img2/100/Incongruent/L/I_Dist_100_LN_2_LD_4_RN_6_RD_15_0.png","img2/300/Incongruent/R/I_Dist_300_LN_13_LD_26_RN_12_RD_15_1.png","img2/200/Incongruent/R/I_Dist_200_LN_11_LD_20_RN_3_RD_4_1.png","img2/100/Congruent/R/C_Dist_100_LN_12_LD_30_RN_13_RD_26_1.png","img2/100/Congruent/R/C_Dist_100_LN_2_LD_5_RN_6_RD_12_1.png","img2/200/Incongruent/L/I_Dist_200_LN_7_LD_10_RN_14_RD_28_0.png","img2/300/Incongruent/R/I_Dist_300_LN_4_LD_20_RN_2_RD_4_1.png","img2/200/Congruent/R/C_Dist_200_LN_13_LD_26_RN_14_RD_20_1.png","img2/200/Incongruent/L/I_Dist_200_LN_4_LD_6_RN_14_RD_30_0.png","img2/200/Incongruent/R/I_Dist_200_LN_14_LD_30_RN_6_RD_9_1.png","img2/300/Congruent/L/C_Dist_300_LN_24_LD_30_RN_8_RD_16_0.png","img2/200/Congruent/R/C_Dist_200_LN_3_LD_10_RN_11_RD_22_1.png","img2/300/Incongruent/R/I_Dist_300_LN_4_LD_20_RN_2_RD_4_1.png","img2/100/Congruent/L/C_Dist_100_LN_10_LD_25_RN_3_RD_10_0.png","img2/300/Incongruent/L/I_Dist_300_LN_8_LD_10_RN_9_RD_18_0.png","img2/300/Incongruent/R/I_Dist_300_LN_13_LD_26_RN_12_RD_15_1.png","img2/100/Incongruent/L/I_Dist_100_LN_3_LD_5_RN_11_RD_22_0.png","img2/100/Congruent/L/C_Dist_100_LN_8_LD_16_RN_2_RD_5_0.png","img2/300/Incongruent/R/I_Dist_300_LN_13_LD_26_RN_12_RD_15_1.png","img2/200/Congruent/L/C_Dist_200_LN_8_LD_15_RN_2_RD_6_0.png","img2/200/Congruent/R/C_Dist_200_LN_3_LD_10_RN_14_RD_28_1.png","img2/300/Incongruent/L/I_Dist_300_LN_4_LD_5_RN_8_RD_16_0.png","img2/100/Incongruent/R/I_Dist_100_LN_13_LD_26_RN_6_RD_10_1.png","img2/200/Incongruent/L/I_Dist_200_LN_4_LD_6_RN_14_RD_30_0.png","img2/200/Congruent/R/C_Dist_200_LN_3_LD_6_RN_14_RD_20_1.png","img2/200/Incongruent/L/I_Dist_200_LN_7_LD_10_RN_14_RD_28_0.png","img2/100/Congruent/R/C_Dist_100_LN_3_LD_20_RN_4_RD_16_1.png","img2/200/Incongruent/R/I_Dist_200_LN_3_LD_10_RN_1_RD_2_1.png","img2/100/Incongruent/R/I_Dist_100_LN_9_LD_18_RN_6_RD_10_1.png","img2/300/Congruent/L/C_Dist_300_LN_4_LD_5_RN_2_RD_4_0.png","img2/100/Incongruent/L/I_Dist_100_LN_2_LD_4_RN_6_RD_15_0.png","img2/200/Incongruent/R/I_Dist_200_LN_14_LD_30_RN_12_RD_18_1.png","img2/200/Incongruent/R/I_Dist_200_LN_3_LD_10_RN_1_RD_2_1.png","img2/200/Congruent/L/C_Dist_200_LN_12_LD_20_RN_6_RD_15_0.png","img2/100/Incongruent/L/I_Dist_100_LN_2_LD_4_RN_6_RD_15_0.png","img2/100/Incongruent/L/I_Dist_100_LN_9_LD_15_RN_13_RD_26_0.png","img2/300/Congruent/R/C_Dist_300_LN_4_LD_20_RN_13_RD_26_1.png","img2/100/Congruent/R/C_Dist_100_LN_7_LD_14_RN_15_RD_25_1.png","img2/100/Congruent/L/C_Dist_100_LN_8_LD_16_RN_2_RD_5_0.png","img2/300/Congruent/L/C_Dist_300_LN_18_LD_20_RN_9_RD_15_0.png","img2/300/Incongruent/L/I_Dist_300_LN_4_LD_5_RN_8_RD_16_0.png","img2/300/Incongruent/R/I_Dist_300_LN_13_LD_26_RN_12_RD_15_1.png","img2/300/Congruent/L/C_Dist_300_LN_20_LD_25_RN_9_RD_18_0.png","img2/200/Incongruent/L/I_Dist_200_LN_1_LD_3_RN_2_RD_15_0.png","img2/200/Incongruent/L/I_Dist_200_LN_7_LD_10_RN_12_RD_24_0.png","img2/300/Incongruent/R/I_Dist_300_LN_4_LD_20_RN_2_RD_4_1.png","img2/100/Incongruent/R/I_Dist_100_LN_13_LD_26_RN_12_RD_20_1.png","img2/200/Congruent/R/C_Dist_200_LN_9_LD_30_RN_13_RD_26_1.png","img2/100/Congruent/R/C_Dist_100_LN_7_LD_14_RN_15_RD_25_1.png","img2/100/Incongruent/L/I_Dist_100_LN_6_LD_10_RN_11_RD_22_0.png","img2/300/Congruent/L/C_Dist_300_LN_18_LD_20_RN_9_RD_15_0.png","img2/200/Incongruent/R/I_Dist_200_LN_7_LD_15_RN_6_RD_9_1.png","img2/100/Incongruent/L/I_Dist_100_LN_6_LD_10_RN_7_RD_14_0.png","img2/300/Congruent/L/C_Dist_300_LN_20_LD_25_RN_9_RD_18_0.png","img2/100/Incongruent/L/I_Dist_100_LN_3_LD_5_RN_11_RD_22_0.png","img2/100/Incongruent/R/I_Dist_100_LN_9_LD_18_RN_6_RD_10_1.png","img2/200/Incongruent/R/I_Dist_200_LN_11_LD_20_RN_3_RD_4_1.png","img2/300/Incongruent/L/I_Dist_300_LN_1_LD_2_RN_2_RD_10_0.png","img2/100/Congruent/L/C_Dist_100_LN_15_LD_25_RN_13_RD_26_0.png","img2/300/Incongruent/R/I_Dist_300_LN_13_LD_26_RN_12_RD_15_1.png","img2/200/Congruent/L/C_Dist_200_LN_4_LD_10_RN_3_RD_15_0.png","img2/200/Incongruent/L/I_Dist_200_LN_1_LD_2_RN_3_RD_10_0.png","img2/100/Incongruent/L/I_Dist_100_LN_9_LD_15_RN_13_RD_26_0.png","img2/300/Congruent/R/C_Dist_300_LN_1_LD_30_RN_8_RD_24_1.png","img2/100/Congruent/R/C_Dist_100_LN_1_LD_2_RN_18_RD_30_1.png","img2/300/Congruent/L/C_Dist_300_LN_20_LD_25_RN_14_RD_28_0.png","img2/300/Congruent/R/C_Dist_300_LN_1_LD_5_RN_3_RD_6_1.png","img2/300/Incongruent/L/I_Dist_300_LN_7_LD_10_RN_8_RD_20_0.png","img2/100/Congruent/R/C_Dist_100_LN_4_LD_8_RN_6_RD_10_1.png","img2/100/Congruent/L/C_Dist_100_LN_11_LD_22_RN_6_RD_15_0.png","img2/200/Incongruent/R/I_Dist_200_LN_7_LD_15_RN_6_RD_9_1.png","img2/200/Congruent/R/C_Dist_200_LN_7_LD_15_RN_18_RD_27_1.png","img2/300/Incongruent/R/I_Dist_300_LN_4_LD_20_RN_2_RD_4_1.png","img2/300/Congruent/L/C_Dist_300_LN_20_LD_25_RN_9_RD_18_0.png","img2/200/Incongruent/L/I_Dist_200_LN_4_LD_6_RN_14_RD_30_0.png","img2/200/Congruent/L/C_Dist_200_LN_9_LD_20_RN_4_RD_16_0.png","img2/300/Congruent/L/C_Dist_300_LN_24_LD_30_RN_2_RD_4_0.png","img2/100/Congruent/R/C_Dist_100_LN_7_LD_14_RN_15_RD_25_1.png","img2/100/Incongruent/L/I_Dist_100_LN_6_LD_10_RN_13_RD_26_0.png","img2/100/Congruent/L/C_Dist_100_LN_3_LD_6_RN_2_RD_5_0.png","img2/100/Congruent/R/C_Dist_100_LN_7_LD_14_RN_9_RD_15_1.png","img2/300/Incongruent/L/I_Dist_300_LN_8_LD_10_RN_9_RD_18_0.png","img2/200/Incongruent/R/I_Dist_200_LN_7_LD_15_RN_4_RD_6_1.png","img2/100/Incongruent/L/I_Dist_100_LN_6_LD_10_RN_7_RD_14_0.png","img2/300/Incongruent/L/I_Dist_300_LN_1_LD_2_RN_2_RD_10_0.png","img2/300/Congruent/L/C_Dist_300_LN_11_LD_22_RN_4_RD_20_0.png","img2/200/Congruent/R/C_Dist_200_LN_6_LD_12_RN_7_RD_10_1.png","img2/300/Congruent/R/C_Dist_300_LN_1_LD_5_RN_6_RD_12_1.png","img2/100/Incongruent/R/I_Dist_100_LN_6_LD_12_RN_3_RD_5_1.png","img2/300/Congruent/R/C_Dist_300_LN_7_LD_14_RN_20_RD_25_1.png","img2/300/Congruent/R/C_Dist_300_LN_8_LD_15_RN_10_RD_12_1.png","img2/300/Congruent/L/C_Dist_300_LN_11_LD_22_RN_4_RD_20_0.png","img2/200/Incongruent/R/I_Dist_200_LN_7_LD_15_RN_4_RD_6_1.png","img2/200/Congruent/R/C_Dist_200_LN_9_LD_30_RN_13_RD_26_1.png","img2/200/Congruent/R/C_Dist_200_LN_13_LD_26_RN_14_RD_20_1.png","img2/200/Congruent/L/C_Dist_200_LN_4_LD_10_RN_3_RD_15_0.png","img2/300/Congruent/L/C_Dist_300_LN_11_LD_22_RN_2_RD_10_0.png","img2/300/Congruent/L/C_Dist_300_LN_24_LD_30_RN_8_RD_16_0.png","img2/200/Incongruent/R/I_Dist_200_LN_4_LD_30_RN_1_RD_3_1.png","img2/300/Incongruent/L/I_Dist_300_LN_8_LD_10_RN_14_RD_28_0.png","img2/100/Incongruent/R/I_Dist_100_LN_17_LD_30_RN_10_RD_15_1.png","img2/100/Incongruent/R/I_Dist_100_LN_13_LD_26_RN_6_RD_10_1.png","img2/200/Congruent/L/C_Dist_200_LN_8_LD_15_RN_7_RD_21_0.png","img2/300/Incongruent/R/I_Dist_300_LN_13_LD_26_RN_12_RD_15_1.png","img2/200/Congruent/L/C_Dist_200_LN_15_LD_25_RN_4_RD_10_0.png","img2/100/Incongruent/R/I_Dist_100_LN_13_LD_26_RN_6_RD_10_1.png","img2/300/Incongruent/R/I_Dist_300_LN_13_LD_26_RN_12_RD_15_1.png","img2/200/Congruent/L/C_Dist_200_LN_16_LD_30_RN_9_RD_27_0.png","img2/200/Incongruent/R/I_Dist_200_LN_14_LD_30_RN_12_RD_18_1.png"],"dist100_C":[["C_Dist_100_LN_10_LD_25_RN_3_RD_10_0.png","C_Dist_100_LN_11_LD_22_RN_4_RD_10_0.png","C_Dist_100_LN_11_LD_22_RN_6_RD_15_0.png","C_Dist_100_LN_15_LD_25_RN_13_RD_26_0.png","C_Dist_100_LN_3_LD_6_RN_2_RD_5_0.png","C_Dist_100_LN_6_LD_20_RN_5_RD_25_0.png","C_Dist_100_LN_8_LD_16_RN_2_RD_5_0.png","C_Dist_100_LN_9_LD_15_RN_8_RD_16_0.png"],["C_Dist_100_LN_1_LD_2_RN_18_RD_30_1.png","C_Dist_100_LN_1_LD_2_RN_3_RD_5_1.png","C_Dist_100_LN_12_LD_30_RN_13_RD_26_1.png","C_Dist_100_LN_2_LD_5_RN_11_RD_22_1.png","C_Dist_100_LN_2_LD_5_RN_6_RD_12_1.png","C_Dist_100_LN_3_LD_20_RN_4_RD_16_1.png","C_Dist_100_LN_4_LD_10_RN_15_RD_30_1.png","C_Dist_100_LN_4_LD_8_RN_6_RD_10_1.png","C_Dist_100_LN_6_LD_12_RN_15_RD_25_1.png","C_Dist_100_LN_7_LD_14_RN_15_RD_25_1.png","C_Dist_100_LN_7_LD_14_RN_9_RD_15_1.png"]],"dist100_I":[["I_Dist_100_LN_1_LD_2_RN_8_RD_20_0.png","I_Dist_100_LN_2_LD_4_RN_6_RD_15_0.png","I_Dist_100_LN_2_LD_4_RN_8_RD_20_0.png","I_Dist_100_LN_3_LD_5_RN_11_RD_22_0.png","I_Dist_100_LN_3_LD_5_RN_8_RD_16_0.png","I_Dist_100_LN_3_LD_6_RN_4_RD_10_0.png","I_Dist_100_LN_3_LD_9_RN_7_RD_30_0.png","I_Dist_100_LN_4_LD_8_RN_8_RD_20_0.png","I_Dist_100_LN_6_LD_10_RN_11_RD_22_0.png","I_Dist_100_LN_6_LD_10_RN_13_RD_26_0.png","I_Dist_100_LN_6_LD_10_RN_7_RD_14_0.png","I_Dist_100_LN_9_LD_10_RN_20_RD_25_0.png","I_Dist_100_LN_9_LD_15_RN_13_RD_26_0.png","I_Dist_100_LN_9_LD_15_RN_14_RD_28_0.png"],["I_Dist_100_LN_10_LD_25_RN_8_RD_16_1.png","I_Dist_100_LN_10_LD_25_RN_9_RD_18_1.png","I_Dist_100_LN_11_LD_22_RN_9_RD_15_1.png","I_Dist_100_LN_12_LD_24_RN_9_RD_15_1.png","I_Dist_100_LN_12_LD_30_RN_2_RD_4_1.png","I_Dist_100_LN_13_LD_26_RN_12_RD_20_1.png","I_Dist_100_LN_13_LD_26_RN_6_RD_10_1.png","I_Dist_100_LN_17_LD_30_RN_10_RD_15_1.png","I_Dist_100_LN_6_LD_12_RN_3_RD_5_1.png","I_Dist_100_LN_8_LD_16_RN_6_RD_10_1.png","I_Dist_100_LN_8_LD_20_RN_1_RD_2_1.png","I_Dist_100_LN_9_LD_18_RN_6_RD_10_1.png"]],"dist100_S":[["E_Dist_100_LN_2_LD_12_RN_2_RD_30_0.png","E_Dist_100_LN_6_LD_10_RN_6_RD_12_0.png"],["E_Dist_100_LN_6_LD_12_RN_6_RD_10_1.png"]],"dist200_C":[["C_Dist_200_LN_11_LD_22_RN_3_RD_10_0.png","C_Dist_200_LN_12_LD_15_RN_6_RD_10_0.png","C_Dist_200_LN_12_LD_20_RN_6_RD_15_0.png","C_Dist_200_LN_14_LD_28_RN_6_RD_20_0.png","C_Dist_200_LN_15_LD_25_RN_4_RD_10_0.png","C_Dist_200_LN_16_LD_20_RN_12_RD_20_0.png","C_Dist_200_LN_16_LD_30_RN_9_RD_27_0.png","C_Dist_200_LN_20_LD_25_RN_9_RD_15_0.png","C_Dist_200_LN_21_LD_30_RN_2_RD_4_0.png","C_Dist_200_LN_4_LD_10_RN_3_RD_15_0.png","C_Dist_200_LN_4_LD_8_RN_3_RD_10_0.png","C_Dist_200_LN_6_LD_15_RN_3_RD_15_0.png","C_Dist_200_LN_7_LD_21_RN_2_RD_15_0.png","C_Dist_200_LN_8_LD_15_RN_2_RD_6_0.png","C_Dist_200_LN_8_LD_15_RN_3_RD_9_0.png","C_Dist_200_LN_8_LD_15_RN_7_RD_21_0.png","C_Dist_200_LN_9_LD_20_RN_4_RD_16_0.png"],["C_Dist_200_LN_1_LD_2_RN_21_RD_30_1.png","C_Dist_200_LN_13_LD_26_RN_14_RD_20_1.png","C_Dist_200_LN_3_LD_10_RN_11_RD_22_1.png","C_Dist_200_LN_3_LD_10_RN_14_RD_28_1.png","C_Dist_200_LN_3_LD_10_RN_7_RD_14_1.png","C_Dist_200_LN_3_LD_12_RN_9_RD_20_1.png","C_Dist_200_LN_3_LD_6_RN_14_RD_20_1.png","C_Dist_200_LN_5_LD_10_RN_14_RD_20_1.png","C_Dist_200_LN_6_LD_12_RN_7_RD_10_1.png","C_Dist_200_LN_6_LD_20_RN_11_RD_22_1.png","C_Dist_200_LN_7_LD_15_RN_18_RD_27_1.png","C_Dist_200_LN_9_LD_30_RN_13_RD_26_1.png"]],"dist200_I":[["I_Dist_200_LN_1_LD_2_RN_3_RD_10_0.png","I_Dist_200_LN_1_LD_3_RN_2_RD_15_0.png","I_Dist_200_LN_3_LD_4_RN_11_RD_20_0.png","I_Dist_200_LN_4_LD_5_RN_6_RD_10_0.png","I_Dist_200_LN_4_LD_6_RN_14_RD_30_0.png","I_Dist_200_LN_7_LD_10_RN_12_RD_24_0.png","I_Dist_200_LN_7_LD_10_RN_14_RD_28_0.png","I_Dist_200_LN_7_LD_10_RN_8_RD_16_0.png"],["I_Dist_200_LN_11_LD_20_RN_3_RD_4_1.png","I_Dist_200_LN_14_LD_30_RN_12_RD_18_1.png","I_Dist_200_LN_14_LD_30_RN_6_RD_9_1.png","I_Dist_200_LN_3_LD_10_RN_1_RD_2_1.png","I_Dist_200_LN_4_LD_30_RN_1_RD_3_1.png","I_Dist_200_LN_6_LD_20_RN_3_RD_6_1.png","I_Dist_200_LN_7_LD_15_RN_4_RD_6_1.png","I_Dist_200_LN_7_LD_15_RN_6_RD_9_1.png","I_Dist_200_LN_9_LD_15_RN_8_RD_10_1.png"]],"dist200_S":[["E_Dist_200_LN_3_LD_6_RN_3_RD_10_0.png"],["E_Dist_200_LN_3_LD_10_RN_3_RD_6_1.png"]],"dist300_C":[["C_Dist_300_LN_11_LD_22_RN_1_RD_5_0.png","C_Dist_300_LN_11_LD_22_RN_2_RD_10_0.png","C_Dist_300_LN_11_LD_22_RN_4_RD_20_0.png","C_Dist_300_LN_12_LD_24_RN_2_RD_10_0.png","C_Dist_300_LN_18_LD_20_RN_9_RD_15_0.png","C_Dist_300_LN_20_LD_25_RN_13_RD_26_0.png","C_Dist_300_LN_20_LD_25_RN_14_RD_28_0.png","C_Dist_300_LN_20_LD_25_RN_5_RD_10_0.png","C_Dist_300_LN_20_LD_25_RN_8_RD_16_0.png","C_Dist_300_LN_20_LD_25_RN_9_RD_18_0.png","C_Dist_300_LN_24_LD_30_RN_2_RD_4_0.png","C_Dist_300_LN_24_LD_30_RN_8_RD_16_0.png","C_Dist_300_LN_3_LD_6_RN_2_RD_10_0.png","C_Dist_300_LN_4_LD_10_RN_1_RD_10_0.png","C_Dist_300_LN_4_LD_5_RN_2_RD_4_0.png","C_Dist_300_LN_8_LD_16_RN_1_RD_5_0.png","C_Dist_300_LN_9_LD_10_RN_3_RD_5_0.png"],["C_Dist_300_LN_1_LD_20_RN_7_RD_20_1.png","C_Dist_300_LN_1_LD_3_RN_19_RD_30_1.png","C_Dist_300_LN_1_LD_30_RN_8_RD_24_1.png","C_Dist_300_LN_1_LD_5_RN_11_RD_22_1.png","C_Dist_300_LN_1_LD_5_RN_3_RD_6_1.png","C_Dist_300_LN_1_LD_5_RN_6_RD_12_1.png","C_Dist_300_LN_2_LD_10_RN_12_RD_24_1.png","C_Dist_300_LN_2_LD_20_RN_10_RD_25_1.png","C_Dist_300_LN_3_LD_12_RN_11_RD_20_1.png","C_Dist_300_LN_3_LD_6_RN_4_RD_5_1.png","C_Dist_300_LN_4_LD_20_RN_13_RD_26_1.png","C_Dist_300_LN_5_LD_25_RN_6_RD_12_1.png","C_Dist_300_LN_5_LD_25_RN_7_RD_14_1.png","C_Dist_300_LN_7_LD_14_RN_20_RD_25_1.png","C_Dist_300_LN_8_LD_15_RN_10_RD_12_1.png"]],"dist300_I":[["I_Dist_300_LN_1_LD_2_RN_2_RD_10_0.png","I_Dist_300_LN_1_LD_2_RN_3_RD_15_0.png","I_Dist_300_LN_2_LD_4_RN_6_RD_30_0.png","I_Dist_300_LN_3_LD_6_RN_4_RD_20_0.png","I_Dist_300_LN_4_LD_5_RN_6_RD_12_0.png","I_Dist_300_LN_4_LD_5_RN_8_RD_16_0.png","I_Dist_300_LN_7_LD_10_RN_8_RD_20_0.png","I_Dist_300_LN_8_LD_10_RN_14_RD_28_0.png","I_Dist_300_LN_8_LD_10_RN_9_RD_18_0.png"],["I_Dist_300_LN_13_LD_26_RN_12_RD_15_1.png","I_Dist_300_LN_4_LD_20_RN_2_RD_4_1.png"]],"dist300_S":[["E_Dist_300_LN_9_LD_12_RN_9_RD_20_0.png"],["E_Dist_300_LN_18_LD_30_RN_18_RD_20_1.png","E_Dist_300_LN_3_LD_10_RN_3_RD_5_1.png","E_Dist_300_LN_9_LD_20_RN_9_RD_12_1.png"]],"dist500_C":[["C_Dist_500_LN_10_LD_13_RN_7_RD_26_0.png","C_Dist_500_LN_10_LD_15_RN_4_RD_24_0.png","C_Dist_500_LN_12_LD_16_RN_3_RD_12_0.png","C_Dist_500_LN_12_LD_18_RN_4_RD_24_0.png","C_Dist_500_LN_15_LD_18_RN_5_RD_15_0.png","C_Dist_500_LN_15_LD_20_RN_1_RD_4_0.png","C_Dist_500_LN_18_LD_27_RN_1_RD_6_0.png","C_Dist_500_LN_20_LD_24_RN_1_RD_3_0.png","C_Dist_500_LN_20_LD_24_RN_3_RD_9_0.png","C_Dist_500_LN_20_LD_24_RN_7_RD_21_0.png","C_Dist_500_LN_20_LD_28_RN_3_RD_14_0.png","C_Dist_500_LN_21_LD_28_RN_6_RD_24_0.png","C_Dist_500_LN_22_LD_28_RN_2_RD_7_0.png","C_Dist_500_LN_25_LD_30_RN_9_RD_27_0.png","C_Dist_500_LN_4_LD_6_RN_1_RD_6_0.png","C_Dist_500_LN_5_LD_6_RN_2_RD_6_0.png","C_Dist_500_LN_6_LD_9_RN_1_RD_6_0.png","C_Dist_500_LN_7_LD_10_RN_1_RD_5_0.png","C_Dist_500_LN_8_LD_12_RN_1_RD_6_0.png","C_Dist_500_LN_8_LD_12_RN_4_RD_24_0.png"],["C_Dist_500_LN_1_LD_4_RN_12_RD_16_1.png","C_Dist_500_LN_1_LD_4_RN_9_RD_12_1.png","C_Dist_500_LN_1_LD_9_RN_11_RD_18_1.png","C_Dist_500_LN_10_LD_24_RN_22_RD_24_1.png","C_Dist_500_LN_2_LD_12_RN_10_RD_15_1.png","C_Dist_500_LN_2_LD_12_RN_12_RD_18_1.png","C_Dist_500_LN_2_LD_12_RN_4_RD_6_1.png","C_Dist_500_LN_2_LD_24_RN_7_RD_12_1.png","C_Dist_500_LN_2_LD_5_RN_18_RD_20_1.png","C_Dist_500_LN_2_LD_5_RN_9_RD_10_1.png","C_Dist_500_LN_2_LD_8_RN_12_RD_16_1.png","C_Dist_500_LN_2_LD_8_RN_21_RD_28_1.png","C_Dist_500_LN_3_LD_10_RN_4_RD_5_1.png","C_Dist_500_LN_3_LD_12_RN_15_RD_20_1.png","C_Dist_500_LN_3_LD_30_RN_6_RD_10_1.png","C_Dist_500_LN_3_LD_8_RN_14_RD_16_1.png","C_Dist_500_LN_4_LD_16_RN_15_RD_20_1.png","C_Dist_500_LN_4_LD_24_RN_12_RD_18_1.png","C_Dist_500_LN_5_LD_14_RN_6_RD_7_1.png","C_Dist_500_LN_7_LD_21_RN_20_RD_24_1.png","C_Dist_500_LN_7_LD_28_RN_12_RD_16_1.png","C_Dist_500_LN_7_LD_28_RN_9_RD_12_1.png","C_Dist_500_LN_9_LD_27_RN_20_RD_24_1.png"]],"dist500_I":[["I_Dist_500_LN_2_LD_3_RN_4_RD_24_0.png","I_Dist_500_LN_5_LD_6_RN_6_RD_18_0.png","I_Dist_500_LN_7_LD_8_RN_9_RD_24_0.png"],["I_Dist_500_LN_7_LD_21_RN_5_RD_6_1.png"]],"dist500_S":[["E_Dist_500_LN_6_LD_8_RN_6_RD_24_0.png"],["E_Dist_500_LN_2_LD_12_RN_2_RD_3_1.png","E_Dist_500_LN_6_LD_24_RN_6_RD_8_1.png"]]}},{"start_time":1552054123448,"click_time":1552054126858,"finger_time":1552054126278,"fix_duration":1189.632409692463,"trial":1,"RT":2830,"MT":580,"sideResp":2,"stimulus":[],"xmouse":[799,799,800,800,800,800,800,800,800,800,800,800,800,800,800,800,800,800,800,800,800,800,800,800,800,800,800,800,800,800,800,800,800,800,800,800,800,800,800,800,800,800,800,800,800,800,800,802,805,807,810,812,812,812,812,812,812,812,812,812,812,812,812,812,812,812,812,812,812,812,812,812,812,812,812,812,812,812,812,812,812,812,813,815,816,816,816,816,816,816,816,816,816,816,816,816,816,816,816,816,816,816,816,816,816,816,816,816,816,816,816,816,816,816,816,816,816,816,816,816,816,816,816,816,815,814,814,814,814,814,814,814,814,814,814,815,823,828,833,838,841,844,847,850,856,862,873,880,887,896,904,945,971,1007,1048,1076,1141,1173,1191,1202,1209,1211,1211,1211,1211,1211,1207,1197,1183,1167,1142],"ymouse":[626,626,627,627,627,627,627,627,627,627,627,627,627,627,627,627,627,627,627,627,627,627,627,627,627,627,627,627,627,627,627,627,627,627,627,627,627,627,627,627,627,627,627,627,627,627,627,627,628,628,629,629,629,629,629,629,629,629,629,629,629,629,629,629,629,629,629,629,629,629,629,629,629,629,629,629,629,629,629,629,629,629,629,629,629,629,629,629,629,629,629,629,629,629,629,629,629,629,629,629,629,629,629,629,629,629,629,629,629,629,629,629,629,629,630,630,630,630,630,630,630,632,632,632,632,632,632,632,632,632,632,632,632,632,632,629,620,614,610,606,602,598,594,588,579,572,559,549,540,528,513,448,414,364,300,237,111,55,19,0,0,0,0,0,0,0,0,0,0,5,13],"timestamp_mouse":[23,33,54,69,89,109,129,150,169,189,209,229,249,270,290,310,331,349,369,389,409,429,449,469,489,509,530,551,570,590,610,630,650,670,691,710,729,750,770,790,809,829,850,869,890,909,930,950,970,990,1010,1030,1049,1069,1090,1109,1129,1149,1170,1190,1210,1230,1250,1270,1290,1309,1329,1350,1370,1390,1409,1431,1450,1470,1489,1509,1529,1551,1569,1590,1610,1631,1650,1670,1689,1709,1729,1750,1771,1789,1810,1830,1850,1871,1889,1910,1931,1950,1970,1989,2010,2030,2051,2069,2091,2110,2129,2150,2171,2190,2210,2230,2249,2269,2289,2310,2330,2350,2370,2389,2410,2430,2449,2471,2490,2510,2530,2550,2569,2590,2609,2631,2650,2671,2690,2711,2730,2750,2770,2791,2810,2830,2851,2870,2891,2911,2930,2949,2969,2989,3009,3031,3050,3070,3091,3110,3130,3150,3170,3191,3213,3231,3249,3270,3290,3311,3329,3350,3370,3389,3409],"xSR":741.5,"ySR":573.95,"xT1":424.9,"yT1":0,"xT2":1058.1,"yT2":0,"toosoon":0,"cond_shown":"Congruent","ratio_trial":100,"L_num":6,"L_den":20,"R_num":5,"R_den":25,"correct_side":1,"subjID":"gabrielaramirezsoler19","gender":"1","school":"4","age":"9"},{"start_time":1552054142491,"click_time":1552054147318,"finger_time":1552054146617,"fix_duration":610.130395685929,"trial":2,"RT":4126,"MT":701,"sideResp":2,"stimulus":[],"xmouse":[779,779,779,779,779,779,779,779,779,779,779,779,779,779,779,779,779,779,779,779,779,779,779,779,779,779,779,779,779,779,779,779,779,779,779,779,779,779,779,779,779,779,779,779,779,779,779,779,779,779,779,779,779,779,779,779,779,779,779,779,779,779,779,779,779,779,779,779,779,779,779,779,779,779,779,779,779,779,781,783,783,784,784,784,784,784,784,784,784,784,784,784,784,784,784,783,781,781,781,781,781,781,781,781,781,781,781,781,781,781,781,781,781,781,781,781,781,781,781,781,781,781,781,781,781,781,781,781,781,781,781,781,781,781,781,781,781,781,781,781,781,781,781,781,781,781,781,781,781,781,781,781,781,781,781,781,781,781,781,781,781,781,781,781,781,781,781,781,781,781,781,781,781,781,781,781,781,781,781,781,781,781,781,781,781,781,781,781,781,781,781,782,783,783,783,783,783,784,784,784,784,785,788,794,802,811,832,843,855,869,875,904,918,934,951,965,991,1005,1021,1037,1059,1078,1088,1099,1108,1113,1125,1131,1134,1134,1134,1134,1134,1134,1134,1134,1129,1125,1123,1123,1123,1119],"ymouse":[617,617,617,617,617,617,617,617,617,617,617,617,617,617,617,617,617,617,617,617,617,617,617,617,617,617,617,617,617,617,617,617,617,617,617,617,617,617,617,617,617,617,617,617,617,617,617,617,617,617,617,617,617,617,617,617,617,617,617,617,617,617,617,617,617,617,617,617,617,617,617,617,617,617,617,617,617,617,616,615,614,614,614,614,614,614,613,613,613,613,613,613,613,613,613,612,611,611,611,611,611,611,611,611,611,611,611,611,611,611,611,611,611,611,611,611,611,611,611,611,611,611,611,611,611,611,611,611,611,611,611,611,611,611,611,611,611,611,611,611,611,611,611,611,611,611,611,611,611,611,611,611,611,611,611,611,611,611,611,611,611,611,611,611,611,611,611,611,611,611,611,611,611,611,611,611,611,611,611,611,611,611,611,611,611,611,611,611,611,610,610,609,608,608,608,608,608,607,607,607,607,606,604,599,595,588,571,561,549,533,526,489,471,452,432,414,378,360,342,325,299,259,237,216,195,180,142,123,110,110,109,109,109,109,109,108,105,103,102,102,102,99],"timestamp_mouse":[13,37,46,66,86,107,126,146,167,188,207,226,248,266,287,306,327,347,368,386,407,427,448,467,487,507,526,547,568,587,607,626,646,667,686,706,727,747,766,786,807,827,848,866,886,906,926,947,966,986,1007,1026,1048,1067,1087,1106,1128,1147,1167,1186,1207,1228,1247,1266,1287,1306,1328,1347,1367,1388,1407,1426,1446,1466,1488,1507,1526,1546,1566,1586,1608,1627,1647,1668,1686,1706,1727,1747,1767,1787,1808,1826,1846,1866,1887,1908,1926,1946,1967,1986,2006,2027,2048,2068,2086,2107,2127,2146,2167,2188,2208,2227,2248,2266,2287,2306,2327,2347,2366,2388,2407,2427,2446,2466,2488,2508,2528,2547,2566,2587,2607,2627,2646,2667,2686,2707,2727,2747,2767,2786,2806,2826,2846,2867,2886,2908,2926,2946,2967,2986,3008,3026,3046,3067,3086,3107,3126,3147,3166,3186,3207,3226,3246,3268,3287,3306,3326,3347,3366,3388,3406,3427,3447,3467,3488,3507,3527,3547,3566,3586,3606,3626,3647,3667,3687,3708,3726,3747,3767,3787,3807,3826,3848,3867,3887,3907,3928,3948,3967,3986,4006,4026,4047,4067,4088,4107,4126,4147,4167,4186,4208,4227,4247,4268,4288,4307,4326,4348,4367,4387,4407,4426,4447,4466,4487,4508,4526,4547,4566,4586,4608,4626,4646,4666,4688,4708,4727,4747,4766,4786,4808,4826],"xSR":741.5,"ySR":573.95,"xT1":424.9,"yT1":0,"xT2":1058.1,"yT2":0,"toosoon":0,"cond_shown":"Congruent","ratio_trial":100,"L_num":6,"L_den":12,"R_num":15,"R_den":25,"correct_side":2,"subjID":"gabrielaramirezsoler19","gender":"1","school":"4","age":"9"},{"start_time":1552054149418,"click_time":1552054152658,"finger_time":1552054151138,"fix_duration":739.7013565186452,"trial":3,"RT":1720,"MT":1520,"sideResp":2,"stimulus":[],"xmouse":[781,781,781,781,781,781,781,781,781,781,781,781,781,781,781,781,781,781,781,781,781,781,781,781,781,781,781,781,781,781,781,781,781,781,781,781,781,781,781,781,781,781,781,781,781,781,781,781,781,781,781,781,781,781,781,781,781,781,781,781,781,781,781,781,781,781,781,781,781,781,781,781,781,781,781,781,781,781,781,781,781,781,781,781,781,781,785,790,793,797,805,805,801,795,787,760,738,700,671,651,634,629,625,623,619,616,610,607,603,597,595,595,594,594,597,606,624,632,638,639,639,639,640,644,652,672,683,697,715,737,790,817,833,847,857,877,888,901,911,917,920,931,938,946,956,968,973,977,984,987,991,992,992,993,998,1011,1019,1027,1034,1040,1043,1056,1061],"ymouse":[601,601,601,601,601,601,601,601,601,601,601,601,601,601,601,601,601,601,601,601,601,601,601,601,601,601,601,601,601,601,601,601,601,601,601,601,601,601,601,601,601,601,601,601,601,601,601,601,601,601,601,601,601,601,601,601,601,601,601,601,601,601,601,601,601,601,601,601,601,601,601,601,601,601,601,601,601,601,601,601,601,601,601,600,596,591,567,543,520,505,457,440,423,408,392,361,342,306,256,183,86,28,8,4,0,0,0,0,0,0,0,0,0,1,6,12,21,26,30,31,31,31,31,32,33,36,36,36,36,36,36,36,33,31,30,25,23,21,20,20,20,20,20,20,20,20,21,21,22,22,23,23,24,24,24,24,24,24,24,24,24,23,22],"timestamp_mouse":[1,19,39,60,79,100,121,140,160,180,199,220,241,261,279,300,319,340,359,380,400,420,440,460,479,499,519,539,560,579,599,620,640,660,681,700,720,740,759,779,799,820,840,860,879,899,919,941,961,980,1000,1020,1041,1060,1079,1099,1119,1140,1160,1179,1200,1220,1241,1260,1279,1300,1319,1340,1360,1379,1400,1421,1440,1461,1480,1500,1519,1540,1561,1581,1600,1620,1640,1659,1679,1700,1720,1739,1760,1779,1800,1819,1841,1861,1879,1900,1920,1940,1959,1979,2001,2020,2039,2060,2079,2100,2120,2139,2159,2180,2200,2219,2239,2260,2279,2300,2319,2340,2359,2380,2401,2420,2439,2459,2480,2502,2519,2541,2560,2579,2601,2619,2640,2659,2679,2701,2719,2741,2760,2780,2799,2819,2839,2859,2879,2902,2920,2940,2959,2980,2999,3019,3039,3060,3080,3102,3120,3140,3159,3180,3199,3220,3240],"xSR":741.5,"ySR":573.95,"xT1":424.9,"yT1":0,"xT2":1058.1,"yT2":0,"toosoon":0,"cond_shown":"Congruent","ratio_trial":200,"L_num":13,"L_den":26,"R_num":14,"R_den":20,"correct_side":2,"subjID":"gabrielaramirezsoler19","gender":"1","school":"4","age":"9"},{"start_time":1552054154935,"click_time":1552054157138,"finger_time":1552054156838,"fix_duration":635.9783075167286,"trial":4,"RT":1903,"MT":300,"sideResp":2,"stimulus":[],"xmouse":[827,824,824,820,818,818,817,816,813,810,806,805,804,803,803,803,803,803,803,803,803,803,803,803,803,803,803,803,803,803,803,803,803,803,803,803,803,803,803,803,803,803,803,803,803,803,803,803,803,803,803,803,803,803,803,803,803,803,803,803,803,803,803,803,803,803,803,803,803,803,803,803,803,803,803,803,803,803,803,803,803,803,803,803,803,803,803,803,803,803,803,804,806,813,819,835,839,842,848,860,893,908,921,944,960,989,1008,1040,1080,1112,1158],"ymouse":[589,592,592,593,594,594,595,596,597,600,603,604,605,605,605,605,605,605,605,605,605,605,605,605,605,605,605,605,605,605,605,605,605,605,605,605,605,605,605,605,605,605,605,605,605,605,605,605,605,605,605,605,605,605,605,605,605,605,605,605,605,605,605,605,605,605,605,605,605,605,605,605,605,605,605,605,605,605,605,604,602,600,600,600,600,600,600,600,600,600,599,597,594,583,574,553,548,543,536,525,501,489,474,448,429,390,363,317,257,194,52],"timestamp_mouse":[14,39,44,63,84,104,124,143,163,183,202,222,243,263,283,303,322,344,362,382,402,424,443,463,483,504,522,544,563,583,603,624,643,662,684,704,723,744,764,782,804,823,842,864,883,902,923,943,964,984,1002,1023,1043,1064,1084,1102,1123,1143,1164,1183,1202,1223,1243,1263,1282,1304,1323,1343,1364,1383,1404,1422,1443,1464,1482,1503,1523,1543,1562,1582,1602,1624,1644,1664,1683,1702,1723,1743,1763,1784,1803,1824,1843,1863,1883,1903,1923,1943,1962,1983,2003,2023,2044,2062,2082,2103,2123,2143,2163,2183,2203],"xSR":741.5,"ySR":573.95,"xT1":424.9,"yT1":0,"xT2":1058.1,"yT2":0,"toosoon":0,"cond_shown":"Congruent","ratio_trial":100,"L_num":7,"L_den":14,"R_num":15,"R_den":25,"correct_side":2,"subjID":"gabrielaramirezsoler19","gender":"1","school":"4","age":"9"},{"start_time":1552054159656,"click_time":1552054162457,"finger_time":1552054161858,"fix_duration":895.5700172274336,"trial":5,"RT":2202,"MT":599,"sideResp":1,"stimulus":[],"xmouse":[790,790,790,790,790,790,790,790,790,790,790,790,790,790,790,790,790,790,790,790,790,790,790,790,790,790,790,790,790,790,790,790,790,790,790,790,790,790,790,790,790,790,790,790,790,790,790,790,790,790,790,790,790,790,790,790,790,790,790,790,790,790,790,790,790,790,790,790,790,790,790,790,790,790,790,790,790,790,790,790,790,790,790,790,790,790,790,790,790,790,790,790,790,790,790,790,790,790,790,790,790,790,790,789,787,768,761,754,749,746,746,746,745,742,731,719,715,710,705,697,677,668,660,656,643,621,614,611,607,607,602,598,595,589,582,576,562,537,508,478,450],"ymouse":[638,638,638,638,638,638,638,638,638,638,638,638,638,638,638,638,638,638,638,638,638,638,638,638,638,638,638,638,638,638,638,638,638,638,638,638,638,638,638,638,638,638,638,638,638,638,638,638,638,638,638,638,638,638,638,638,638,638,638,638,638,638,638,638,638,638,638,638,638,638,638,638,638,638,638,638,638,638,638,638,638,638,638,638,638,638,638,638,638,638,638,638,638,638,638,638,638,638,638,638,638,638,638,638,638,623,617,611,603,597,564,539,509,481,438,391,377,363,351,339,325,321,317,314,304,286,278,269,262,256,243,231,221,207,191,185,173,159,140,116,79],"timestamp_mouse":[12,37,42,63,82,101,121,143,162,183,202,221,242,263,281,302,323,341,363,382,402,423,443,461,482,503,522,542,562,581,603,622,643,661,683,701,722,742,761,783,801,822,843,863,882,903,923,942,962,982,1002,1022,1042,1063,1082,1102,1122,1142,1162,1183,1203,1221,1242,1262,1283,1303,1322,1342,1362,1383,1401,1423,1442,1463,1483,1502,1523,1541,1563,1582,1602,1621,1641,1662,1683,1703,1724,1742,1762,1782,1801,1823,1842,1862,1882,1901,1923,1942,1963,1982,2003,2023,2042,2063,2082,2103,2122,2142,2162,2183,2202,2222,2242,2262,2281,2302,2323,2343,2362,2382,2402,2422,2443,2463,2482,2503,2523,2542,2561,2581,2602,2623,2643,2662,2683,2703,2722,2741,2762,2782,2801],"xSR":741.5,"ySR":573.95,"xT1":424.9,"yT1":0,"xT2":1058.1,"yT2":0,"toosoon":0,"cond_shown":"Congruent","ratio_trial":200,"L_num":8,"L_den":15,"R_num":3,"R_den":9,"correct_side":1,"subjID":"gabrielaramirezsoler19","gender":"1","school":"4","age":"9"},{"start_time":1552054165063,"click_time":1552054167499,"finger_time":1552054167039,"fix_duration":1224.2791312556878,"trial":6,"RT":1976,"MT":460,"sideResp":2,"stimulus":[],"xmouse":[779,779,779,779,779,779,779,779,779,779,779,779,779,779,779,779,779,779,779,779,779,779,779,779,779,779,779,779,779,779,779,779,779,779,779,779,779,779,779,779,779,779,779,779,779,779,779,779,779,779,779,779,779,779,779,779,779,779,779,779,779,779,779,779,779,779,779,779,781,783,784,785,785,785,785,785,785,785,786,789,789,790,790,790,791,791,791,791,791,791,791,791,791,791,795,796,802,811,821,830,857,885,905,924,959,986,1015,1047,1075,1140,1162,1178,1191,1194,1197,1196,1188,1175,1160,1127,1110,1102],"ymouse":[599,599,599,599,599,599,599,599,599,599,599,599,599,599,599,599,599,599,599,599,599,599,599,599,599,599,599,599,599,599,599,599,599,599,599,599,599,599,599,599,599,599,599,599,599,599,599,599,599,599,599,599,599,599,599,599,599,599,599,599,599,599,599,599,599,599,599,599,599,599,598,597,597,597,597,597,597,597,597,597,597,597,597,597,596,596,596,596,596,596,596,596,596,596,595,593,587,578,567,556,528,502,484,467,430,395,361,321,282,180,140,105,56,33,12,0,0,0,0,0,0,1],"timestamp_mouse":[15,41,56,76,94,116,136,154,176,196,215,236,255,276,296,315,336,356,374,395,415,436,455,475,495,514,536,554,576,595,616,635,655,676,694,715,735,754,774,795,815,836,855,875,896,915,936,956,974,994,1014,1036,1056,1075,1095,1115,1135,1156,1175,1195,1216,1235,1255,1276,1295,1316,1336,1355,1375,1395,1415,1434,1454,1476,1495,1514,1535,1554,1576,1595,1615,1635,1654,1676,1695,1715,1734,1755,1775,1795,1816,1834,1855,1876,1895,1915,1934,1956,1976,1995,2015,2035,2055,2076,2095,2115,2135,2156,2175,2195,2215,2235,2256,2275,2295,2315,2335,2355,2375,2397,2414,2435],"xSR":741.5,"ySR":573.95,"xT1":424.9,"yT1":0,"xT2":1058.1,"yT2":0,"toosoon":0,"cond_shown":"Congruent","ratio_trial":300,"L_num":1,"L_den":5,"R_num":6,"R_den":12,"correct_side":2,"subjID":"gabrielaramirezsoler19","gender":"1","school":"4","age":"9"},{"start_time":1552054169511,"click_time":1552054174260,"finger_time":1552054171997,"fix_duration":292.0758383878258,"trial":7,"RT":2486,"MT":2263,"sideResp":2,"stimulus":[],"xmouse":[803,803,803,803,803,803,803,803,803,803,803,803,803,803,803,803,803,803,803,803,803,803,803,803,803,803,803,803,803,803,803,803,803,803,803,803,803,803,803,803,803,803,803,803,803,803,803,803,803,803,803,803,803,803,803,803,803,803,803,803,803,803,803,803,803,803,803,803,803,803,803,803,803,801,801,800,800,800,800,800,800,800,800,797,794,791,786,786,777,776,776,776,776,776,776,776,776,776,776,776,773,772,770,769,769,769,769,769,768,768,768,768,768,768,768,768,768,768,768,768,768,768,765,762,760,758,757,757,766,766,762,756,748,738,736,735,733,728,718,717,715,709,704,692,689,688,687,684,678,675,671,667,665,661,658,657,657,653,651,648,647,647,647,647,647,647,645,645,630,629,629,629,628,624,624,624,624,624,624,624,624,624,624,621,619,615,612,611,611,611,611,611,611,611,611,611,611,611,650,691,748,821,918,1164,1328,1364,1424,1435,1439,1440,1441,1441,1442,1442,1441,1440,1430,1416,1375,1352,1333,1317,1309,1305,1305,1305,1305,1305,1305,1305,1301,1296,1290,1263,1217,1198,1167,1154],"ymouse":[597,597,597,598,598,598,598,598,598,598,598,598,598,598,598,598,598,598,598,598,598,598,598,598,598,598,598,598,598,598,598,598,598,598,598,598,598,598,598,598,598,598,598,598,598,598,598,598,598,598,598,598,598,598,598,598,598,598,598,598,598,598,598,598,598,598,598,598,598,598,598,598,598,598,598,598,598,598,598,598,598,598,598,598,598,597,596,595,593,593,593,593,593,593,593,593,593,593,593,593,591,591,590,590,590,590,590,590,590,590,590,590,590,590,590,590,590,590,590,590,590,590,586,576,566,553,536,516,465,444,421,398,375,338,324,310,298,283,271,271,270,269,267,264,262,262,257,242,224,215,206,197,188,165,155,145,145,138,133,130,130,130,130,130,130,130,130,130,119,119,119,119,118,112,112,112,112,112,112,112,112,112,112,111,110,108,107,106,106,106,106,106,106,106,106,106,106,106,119,130,139,157,186,255,311,325,346,350,351,351,351,351,350,348,342,341,333,325,303,289,279,269,262,257,257,257,251,247,233,220,205,186,168,122,79,66,37,26],"timestamp_mouse":[27,29,48,67,87,107,126,147,167,188,206,227,247,266,286,307,328,347,368,386,406,427,448,468,488,508,526,548,568,588,607,626,647,668,687,707,728,746,767,787,806,828,847,866,887,908,927,948,968,988,1007,1027,1047,1066,1087,1106,1127,1147,1168,1186,1208,1227,1248,1268,1287,1308,1328,1348,1368,1387,1406,1428,1448,1467,1487,1508,1527,1547,1566,1588,1606,1626,1646,1667,1687,1707,1726,1748,1766,1787,1807,1827,1847,1867,1886,1908,1927,1948,1966,1988,2007,2027,2047,2067,2087,2108,2127,2146,2167,2187,2208,2226,2247,2267,2288,2307,2328,2348,2367,2388,2407,2427,2447,2466,2486,2507,2527,2547,2568,2587,2607,2626,2648,2667,2687,2707,2727,2748,2766,2788,2807,2827,2847,2867,2888,2907,2926,2948,2967,2988,3007,3027,3048,3067,3088,3107,3126,3147,3168,3187,3207,3227,3247,3267,3286,3306,3327,3347,3367,3387,3406,3427,3447,3467,3486,3507,3528,3548,3568,3587,3608,3627,3646,3667,3687,3707,3727,3746,3768,3788,3808,3827,3847,3866,3888,3907,3928,3947,3967,3988,4007,4027,4046,4066,4086,4107,4127,4147,4167,4187,4207,4228,4247,4266,4287,4307,4328,4347,4367,4387,4407,4427,4447,4467,4488,4508,4528,4548,4567,4587,4607,4627,4647,4667,4687,4706,4727,4748],"xSR":741.5,"ySR":573.95,"xT1":424.9,"yT1":0,"xT2":1058.1,"yT2":0,"toosoon":0,"cond_shown":"Incongruent","ratio_trial":100,"L_num":11,"L_den":22,"R_num":9,"R_den":15,"correct_side":2,"subjID":"gabrielaramirezsoler19","gender":"1","school":"4","age":"9"},{"start_time":1552054176163,"click_time":1552054178698,"finger_time":1552054178238,"fix_duration":563.37502672744,"trial":8,"RT":2075,"MT":460,"sideResp":2,"stimulus":[],"xmouse":[797,797,797,797,797,797,797,797,797,797,797,797,797,797,797,797,797,797,797,797,797,797,797,797,797,797,797,797,797,797,797,797,797,797,797,797,797,797,797,797,797,797,797,797,797,797,797,797,797,797,797,797,797,797,797,797,797,797,797,797,797,797,797,797,797,797,797,797,797,797,797,797,797,797,797,797,797,797,797,797,797,797,797,797,797,797,797,797,797,797,797,797,797,797,797,797,797,797,797,797,797,797,835,882,930,930,985,1014,1046,1073,1121,1137,1157,1167,1171,1171,1169,1166,1162,1159,1153,1137,1135,1134,1133,1131,1125],"ymouse":[604,604,604,604,604,604,604,604,604,604,604,604,604,604,604,604,604,604,604,604,604,604,604,604,604,604,604,604,604,604,604,604,604,604,604,604,604,604,604,604,604,604,604,604,604,604,604,604,604,604,604,604,604,604,604,604,604,604,604,604,604,604,604,604,604,604,604,604,604,604,604,604,604,604,604,604,604,604,604,604,604,604,604,604,604,604,604,604,604,604,604,604,604,604,604,604,604,604,604,604,604,604,585,570,539,539,486,457,418,377,283,238,180,137,102,76,33,9,0,0,0,0,0,0,0,0,4],"timestamp_mouse":[15,35,55,76,96,115,135,156,176,194,214,235,255,276,296,315,335,355,376,396,415,436,456,475,495,515,535,556,576,596,615,636,655,675,694,716,736,754,775,795,815,835,854,874,895,915,935,954,974,994,1015,1036,1056,1076,1094,1115,1136,1156,1176,1194,1215,1235,1255,1276,1296,1315,1336,1354,1375,1394,1416,1436,1456,1476,1495,1516,1535,1555,1575,1595,1615,1636,1656,1676,1695,1715,1734,1756,1775,1796,1816,1836,1856,1874,1895,1915,1936,1955,1976,1995,2015,2034,2054,2075,2102,2115,2135,2155,2175,2196,2216,2236,2255,2275,2295,2315,2335,2355,2376,2395,2415,2436,2455,2476,2494,2517,2534],"xSR":741.5,"ySR":573.95,"xT1":424.9,"yT1":0,"xT2":1058.1,"yT2":0,"toosoon":0,"cond_shown":"Congruent","ratio_trial":100,"L_num":9,"L_den":15,"R_num":8,"R_den":16,"correct_side":1,"subjID":"gabrielaramirezsoler19","gender":"1","school":"4","age":"9"},{"start_time":1552054183325,"click_time":1552054189938,"finger_time":1552054185479,"fix_duration":505.7430014977895,"trial":9,"RT":2154,"MT":4459,"sideResp":2,"stimulus":[],"xmouse":[779,779,779,779,779,779,779,779,779,779,779,779,779,779,779,779,779,779,779,779,779,779,779,779,779,779,779,779,779,779,779,779,779,779,779,779,779,779,779,779,779,779,779,779,779,779,779,779,779,779,779,779,779,779,779,779,779,779,779,779,779,779,779,779,782,783,784,784,784,784,784,784,784,784,784,784,784,784,784,784,784,784,784,784,784,784,784,784,784,784,784,784,784,784,784,784,784,784,784,784,784,784,784,777,769,759,745,735,726,722,720,716,708,701,699,699,696,695,693,685,679,677,676,674,669,667,667,666,665,665,665,665,665,665,665,665,665,665,665,665,665,665,665,665,665,665,665,665,664,664,664,664,664,664,664,664,664,664,664,664,664,664,664,664,664,664,664,664,664,664,664,664,664,664,664,664,664,664,664,664,664,664,664,664,664,664,664,664,664,664,664,664,664,664,664,664,671,687,693,694,694,694,694,694,694,694,694,694,694,694,694,694,694,694,694,694,694,694,712,720,723,726,727,727,727,728,729,729,732,734,734,739,743,748,755,756,756,756,756,757,770,787,798,809,824,830,833,834,835,836,836,836,836,836,836,836,836,836,836,836,836,836,836,836,836,836,841,842,845,849,851,857,864,871,887,893,899,907,910,918,920,931,948,969,1027,1063,1092,1117,1161,1222,1231,1252,1257,1259,1259,1259,1259,1259,1259,1259,1259,1260,1260,1256,1206,1181,1156,1128,1116,1112,1112,1112,1112,1112,1112,1112,1112,1112,1112,1112,1112,1112,1112,1112,1112,1112,1112,1112,1112,1112,1109],"ymouse":[630,630,630,630,630,630,630,630,630,630,630,630,630,630,630,630,630,630,630,630,630,630,630,630,630,630,630,630,630,630,630,630,630,630,630,630,630,630,630,630,630,630,630,630,630,630,630,630,630,630,630,630,630,630,630,630,630,630,630,630,630,630,630,629,628,628,627,627,627,627,627,627,627,627,627,627,627,627,627,627,627,627,627,627,627,627,627,627,627,627,627,627,627,627,627,627,627,627,627,627,627,627,625,618,612,603,595,586,577,569,563,557,546,531,523,507,494,490,485,467,457,454,451,447,439,436,436,435,432,432,432,432,432,432,432,432,432,432,432,432,432,432,432,432,432,432,432,432,432,432,432,432,432,432,432,432,432,432,432,432,432,432,432,432,432,432,432,432,432,432,432,432,432,432,432,432,432,432,432,432,432,432,432,432,432,432,432,432,432,432,432,432,432,432,432,432,431,429,428,428,428,428,428,428,428,428,428,428,428,428,428,428,428,428,428,428,428,428,443,450,454,459,464,467,480,486,494,501,523,570,598,624,647,667,686,687,687,687,687,688,685,676,668,656,636,627,620,617,614,611,611,611,611,611,611,611,611,611,611,611,611,611,611,611,611,611,604,602,595,582,576,567,556,545,520,507,494,473,467,453,447,429,398,361,265,215,176,149,95,18,8,0,0,0,0,0,0,0,0,0,0,0,0,0,0,0,0,0,0,0,0,0,0,0,0,0,0,0,0,0,0,0,0,0,0,0,0,0,0,0,1],"timestamp_mouse":[13,39,53,74,94,113,132,154,173,193,213,234,254,274,294,313,334,352,373,394,414,433,453,474,493,514,533,554,573,593,613,633,653,673,693,713,733,754,773,793,813,834,854,873,892,914,934,954,973,994,1013,1032,1052,1073,1094,1113,1134,1152,1172,1193,1213,1234,1253,1273,1293,1313,1332,1353,1373,1394,1414,1432,1453,1472,1493,1514,1532,1552,1573,1593,1613,1632,1654,1673,1693,1712,1732,1754,1773,1794,1814,1833,1853,1873,1893,1914,1934,1952,1973,1994,2014,2033,2053,2073,2093,2114,2134,2154,2173,2193,2213,2233,2253,2273,2293,2313,2334,2353,2374,2393,2413,2433,2452,2473,2492,2513,2533,2553,2573,2594,2613,2634,2654,2673,2693,2714,2733,2754,2772,2793,2813,2834,2853,2873,2893,2913,2932,2952,2974,2992,3013,3033,3053,3074,3094,3113,3132,3152,3174,3194,3213,3234,3254,3272,3292,3313,3333,3354,3374,3393,3413,3433,3452,3473,3494,3514,3533,3552,3574,3592,3613,3633,3654,3674,3693,3713,3733,3753,3773,3793,3813,3834,3854,3874,3892,3913,3932,3953,3973,3994,4014,4033,4053,4074,4093,4113,4133,4152,4174,4192,4213,4234,4253,4274,4293,4313,4332,4353,4374,4393,4414,4433,4453,4474,4493,4513,4533,4554,4573,4594,4613,4634,4652,4673,4693,4713,4734,4752,4772,4792,4813,4833,4853,4873,4893,4913,4933,4953,4973,4993,5013,5032,5054,5074,5092,5113,5133,5153,5174,5193,5214,5234,5253,5272,5294,5312,5333,5354,5373,5394,5413,5434,5454,5473,5493,5514,5533,5552,5574,5593,5613,5634,5653,5673,5693,5712,5734,5753,5774,5794,5813,5832,5853,5872,5893,5913,5933,5953,5973,5993,6013,6034,6052,6073,6093,6114,6133,6153,6173,6193,6213,6233,6252,6272,6293,6314,6334,6353,6373,6393,6414,6434,6454,6473,6492,6513,6533,6553,6573,6594,6613],"xSR":741.5,"ySR":573.95,"xT1":424.9,"yT1":0,"xT2":1058.1,"yT2":0,"toosoon":0,"cond_shown":"Incongruent","ratio_trial":300,"L_num":1,"L_den":2,"R_num":3,"R_den":15,"correct_side":1,"subjID":"gabrielaramirezsoler19","gender":"1","school":"4","age":"9"},{"start_time":1552054193590,"click_time":1552054198318,"finger_time":1552054197479,"fix_duration":250,"trial":10,"RT":3889,"MT":839,"sideResp":2,"stimulus":[],"xmouse":[780,780,780,780,780,780,780,780,780,780,780,780,780,780,780,780,780,780,780,780,780,780,780,780,780,780,780,780,780,780,780,780,780,780,780,780,780,780,780,780,780,780,780,780,780,780,780,780,780,780,780,780,780,780,780,780,780,780,780,780,780,780,780,780,780,780,780,780,780,780,780,780,780,780,780,780,780,780,780,780,780,780,780,780,780,780,780,781,782,782,783,784,784,784,784,784,784,784,785,785,785,786,786,786,786,786,786,786,786,786,786,786,786,786,786,786,786,786,786,786,786,786,786,786,786,788,792,793,794,795,795,795,796,796,796,796,796,796,796,796,796,796,796,796,796,796,796,796,796,796,796,796,796,796,796,796,796,796,796,796,796,796,796,796,796,796,796,796,796,796,796,796,796,796,796,799,800,806,807,809,810,810,810,811,813,814,816,820,822,823,825,826,833,838,845,854,863,885,897,912,923,936,959,972,985,1002,1032,1045,1054,1061,1068,1075,1085,1091,1097,1106,1112,1118,1118,1118,1112,1104,1076,1053,1025,1002,985,973,973,973,973,978,992,1009,1033,1056,1078],"ymouse":[610,610,610,610,610,610,610,610,610,610,610,610,610,610,610,610,610,610,610,610,610,610,610,610,610,610,610,610,610,610,610,610,610,610,610,610,610,610,610,610,610,610,610,610,610,610,610,610,610,610,610,610,610,610,610,610,610,610,610,610,610,610,610,610,610,610,610,610,610,610,610,610,610,610,610,610,610,610,610,610,610,610,610,610,610,610,610,609,609,609,609,609,609,609,609,609,609,609,609,610,610,610,610,610,610,610,610,610,610,610,610,610,610,610,610,610,610,610,610,610,610,610,610,610,610,610,610,611,611,611,611,611,611,611,611,611,611,611,611,611,611,611,611,611,611,611,611,611,611,611,611,611,611,611,611,611,611,611,611,611,611,611,611,611,611,611,611,611,611,611,611,611,611,611,611,611,611,611,611,611,610,610,610,610,609,609,608,606,605,604,603,602,597,592,585,573,560,524,504,481,462,441,411,394,376,354,314,300,289,279,270,260,250,244,237,230,224,213,210,205,196,188,149,120,93,71,56,46,46,46,46,45,44,44,44,46,50],"timestamp_mouse":[13,28,48,67,88,109,148,148,167,187,207,228,247,267,288,309,328,349,368,389,408,428,449,469,488,508,528,548,569,588,608,628,648,667,689,709,728,748,767,787,807,828,849,868,888,909,928,948,967,989,1008,1028,1048,1069,1089,1109,1128,1148,1169,1187,1207,1228,1247,1268,1289,1308,1329,1348,1369,1389,1408,1428,1449,1467,1489,1509,1528,1549,1568,1587,1609,1628,1649,1669,1688,1708,1727,1748,1768,1788,1809,1829,1849,1869,1888,1909,1929,1948,1967,1989,2009,2029,2047,2068,2089,2108,2127,2149,2168,2189,2208,2229,2248,2269,2288,2308,2329,2349,2368,2389,2409,2428,2447,2468,2487,2508,2529,2549,2569,2587,2609,2628,2647,2669,2689,2708,2727,2747,2767,2789,2809,2829,2847,2869,2887,2908,2927,2949,2968,2989,3008,3028,3048,3068,3089,3108,3129,3147,3167,3189,3208,3229,3248,3268,3289,3309,3329,3349,3369,3389,3408,3427,3447,3467,3488,3508,3528,3548,3568,3588,3609,3629,3648,3668,3688,3709,3727,3748,3768,3788,3809,3829,3847,3868,3889,3908,3928,3948,3969,3987,4008,4029,4048,4069,4088,4108,4129,4148,4168,4188,4209,4228,4248,4267,4288,4308,4328,4347,4369,4388,4408,4427,4448,4468,4489,4508,4529,4548,4568,4588,4608,4628,4648,4668,4687,4709,4728],"xSR":741.5,"ySR":573.95,"xT1":424.9,"yT1":0,"xT2":1058.1,"yT2":0,"toosoon":0,"cond_shown":"Congruent","ratio_trial":100,"L_num":7,"L_den":14,"R_num":9,"R_den":15,"correct_side":2,"subjID":"gabrielaramirezsoler19","gender":"1","school":"4","age":"9"},{"start_time":1552054199910,"click_time":1552054203818,"finger_time":1552054201458,"fix_duration":250,"trial":11,"RT":1548,"MT":2360,"sideResp":2,"stimulus":[],"xmouse":[802,802,802,802,802,802,802,802,802,802,802,802,802,802,802,802,802,802,802,802,802,802,802,802,802,802,802,802,802,802,802,802,802,802,802,802,802,802,802,802,802,802,802,802,802,802,802,802,802,802,802,802,802,802,802,802,802,802,802,802,802,802,802,802,802,802,802,802,802,802,802,802,802,802,802,802,802,805,805,791,769,735,711,682,666,656,636,629,621,611,603,595,584,584,584,583,580,578,575,575,575,575,575,575,575,575,575,575,575,575,575,575,575,575,575,575,577,581,581,583,586,614,653,679,701,715,717,717,717,717,716,716,692,676,657,639,607,597,591,587,583,580,579,579,579,579,579,579,579,579,580,582,602,625,654,684,733,749,758,763,766,767,767,767,768,769,774,785,785,785,785,817,824,827,832,840,881,913,954,981,1001,1014,1032,1037,1039,1040,1042,1043,1044,1045,1045,1049,1053,1055,1057,1059],"ymouse":[604,604,604,604,604,604,604,604,604,604,604,604,604,604,604,604,604,604,604,604,604,604,604,604,604,604,604,604,604,604,604,604,604,604,604,604,604,604,604,604,604,604,604,604,604,604,604,604,604,604,604,604,604,604,604,604,604,604,604,604,604,604,604,604,604,604,604,604,604,604,604,604,604,604,604,604,595,559,521,462,398,269,195,106,73,55,33,27,21,17,11,6,0,0,0,0,0,0,1,1,1,1,1,1,1,1,1,1,1,1,1,1,1,1,1,1,1,1,1,1,1,5,11,17,24,28,28,28,28,28,28,28,28,28,28,28,23,22,22,22,22,22,23,23,23,23,23,23,23,23,23,23,21,18,15,15,15,15,15,15,15,15,15,15,15,17,26,43,43,43,43,93,100,100,100,100,83,73,62,58,55,52,41,38,36,35,33,32,31,30,30,27,26,25,25,25],"timestamp_mouse":[12,43,48,68,89,108,128,147,169,189,207,227,248,268,289,308,327,348,368,389,407,428,449,469,487,509,528,548,569,589,608,627,648,669,689,707,727,747,767,789,808,829,848,869,889,908,928,948,969,989,1008,1029,1049,1069,1088,1109,1128,1148,1169,1189,1207,1227,1249,1269,1289,1308,1328,1349,1369,1388,1407,1427,1449,1468,1489,1508,1527,1548,1568,1588,1607,1628,1648,1668,1687,1707,1728,1747,1768,1789,1808,1829,1848,1868,1888,1908,1928,1948,1968,1988,2009,2028,2048,2068,2089,2108,2129,2149,2168,2188,2208,2227,2248,2268,2288,2308,2328,2348,2368,2388,2407,2428,2447,2468,2487,2509,2528,2549,2569,2588,2608,2629,2649,2668,2688,2707,2727,2748,2767,2788,2807,2829,2848,2868,2888,2908,2929,2949,2969,2989,3008,3029,3047,3068,3088,3109,3128,3148,3168,3188,3208,3228,3248,3269,3288,3309,3328,3348,3368,3388,3409,3429,3447,3468,3489,3508,3530,3548,3569,3588,3608,3627,3647,3668,3688,3708,3728,3747,3769,3788,3809,3828,3848,3867,3889,3908],"xSR":741.5,"ySR":573.95,"xT1":424.9,"yT1":0,"xT2":1058.1,"yT2":0,"toosoon":0,"cond_shown":"Incongruent","ratio_trial":100,"L_num":2,"L_den":4,"R_num":6,"R_den":15,"correct_side":1,"subjID":"gabrielaramirezsoler19","gender":"1","school":"4","age":"9"},{"start_time":1552054205211,"click_time":1552054206917,"finger_time":1552054206578,"fix_duration":250,"trial":12,"RT":1367,"MT":339,"sideResp":2,"stimulus":[],"xmouse":[800,800,800,800,800,800,800,800,800,800,800,800,800,800,800,800,800,800,800,800,800,800,800,800,800,800,800,800,800,800,800,800,800,800,800,800,800,800,800,800,800,800,800,800,800,800,800,800,800,800,800,800,800,800,800,800,800,800,800,800,800,800,800,800,800,801,806,812,815,819,824,832,857,870,885,911,935,995,1016,1035,1048,1063,1069,1076,1084,1095],"ymouse":[644,644,644,644,644,644,644,644,644,644,644,644,644,644,644,644,644,644,644,644,644,644,644,644,644,644,644,644,644,644,644,644,644,644,644,644,644,644,644,644,644,644,644,644,644,644,644,644,644,644,644,644,644,644,644,644,644,644,644,644,644,644,644,644,645,644,620,586,564,539,513,486,417,385,355,312,282,223,202,177,158,140,132,124,113,98],"timestamp_mouse":[13,27,46,67,86,106,126,148,167,188,206,228,247,267,286,308,327,347,368,388,407,428,448,467,487,508,526,547,566,587,608,626,646,667,688,708,727,747,766,788,806,828,847,867,887,908,927,947,968,988,1008,1027,1047,1068,1087,1107,1128,1146,1168,1187,1207,1227,1247,1268,1287,1306,1327,1347,1367,1387,1407,1426,1447,1468,1488,1507,1528,1547,1567,1587,1607,1628,1647,1667,1688,1706],"xSR":741.5,"ySR":573.95,"xT1":424.9,"yT1":0,"xT2":1058.1,"yT2":0,"toosoon":0,"cond_shown":"Incongruent","ratio_trial":300,"L_num":13,"L_den":26,"R_num":12,"R_den":15,"correct_side":2,"subjID":"gabrielaramirezsoler19","gender":"1","school":"4","age":"9"},{"start_time":1552054208050,"click_time":1552054209879,"finger_time":1552054209558,"fix_duration":250,"trial":13,"RT":1508,"MT":321,"sideResp":2,"stimulus":[],"xmouse":[800,800,800,800,800,800,800,800,800,800,800,800,800,800,800,800,800,800,800,800,800,800,800,800,800,800,800,800,800,800,800,800,800,800,800,800,800,800,800,800,800,800,800,800,800,800,800,800,800,800,800,800,800,800,800,800,800,800,800,800,800,800,800,800,800,800,800,800,800,800,800,804,812,815,819,837,851,866,877,887,919,925,941,952,965,990,1001,1014,1038,1066,1112,1131],"ymouse":[639,639,639,639,639,639,639,639,639,639,639,639,639,639,639,639,639,639,639,639,639,639,639,639,639,639,639,639,639,639,639,639,639,639,639,639,639,639,639,639,639,639,639,639,639,639,639,639,639,639,639,639,639,639,639,639,639,639,639,639,639,639,639,639,639,639,639,639,639,639,639,627,612,603,596,564,545,525,509,495,453,445,430,419,404,356,331,299,252,200,115,83],"timestamp_mouse":[14,40,47,68,88,107,128,149,167,188,207,227,249,268,287,308,328,348,368,387,409,427,449,469,488,509,528,548,569,588,608,627,649,669,688,708,729,749,769,789,809,827,848,868,889,908,927,948,968,988,1007,1028,1048,1069,1087,1107,1127,1148,1167,1187,1208,1228,1248,1268,1289,1308,1328,1348,1368,1388,1407,1429,1448,1467,1489,1508,1528,1547,1568,1588,1609,1628,1648,1668,1688,1708,1728,1748,1768,1789,1808,1828],"xSR":741.5,"ySR":573.95,"xT1":424.9,"yT1":0,"xT2":1058.1,"yT2":0,"toosoon":0,"cond_shown":"Incongruent","ratio_trial":200,"L_num":11,"L_den":20,"R_num":3,"R_den":4,"correct_side":2,"subjID":"gabrielaramirezsoler19","gender":"1","school":"4","age":"9"},{"start_time":1552054211991,"click_time":1552054214519,"finger_time":1552054213378,"fix_duration":1291.2322017653316,"trial":14,"RT":1387,"MT":1141,"sideResp":1,"stimulus":[],"xmouse":[771,771,771,771,771,771,771,771,771,771,771,771,771,771,771,771,771,771,771,771,771,771,771,771,771,771,771,771,771,771,771,771,771,771,771,771,771,771,771,771,771,771,771,771,771,771,771,771,771,771,771,771,771,771,771,771,771,771,771,771,771,771,771,771,771,771,771,779,799,841,857,868,879,887,912,921,928,932,936,940,941,941,941,941,941,941,940,938,926,914,903,893,877,836,825,817,809,800,787,759,737,709,669,493,414,344,284,261,258,258,258,258,260,264,266,267,271,278,291,323,346,377,412,422,423,423,425],"ymouse":[626,626,626,626,626,626,626,626,626,626,626,626,626,626,626,626,626,626,626,626,626,626,626,626,626,626,626,626,626,626,626,626,626,626,626,626,626,626,626,626,626,626,626,626,626,626,626,626,626,626,626,626,626,626,626,626,626,626,626,626,626,626,626,626,626,626,621,615,601,565,550,535,520,506,462,445,430,421,412,400,399,399,399,399,399,399,399,403,414,422,428,432,438,447,448,448,448,448,444,432,422,410,393,287,231,155,78,46,34,13,5,0,0,0,0,0,0,0,0,7,18,30,38,38,38,38,37],"timestamp_mouse":[11,33,48,67,86,107,127,148,167,186,208,228,248,267,287,307,328,348,367,388,408,428,446,466,488,506,527,548,566,588,606,626,646,668,687,707,726,748,768,788,806,827,848,867,887,906,927,948,967,988,1008,1026,1048,1066,1088,1108,1126,1148,1166,1186,1208,1226,1246,1267,1287,1307,1327,1348,1366,1387,1408,1427,1448,1468,1488,1506,1527,1548,1568,1587,1606,1627,1647,1667,1687,1707,1727,1747,1768,1786,1807,1827,1847,1868,1886,1907,1927,1947,1966,1987,2006,2027,2047,2068,2087,2108,2127,2146,2167,2187,2208,2226,2246,2267,2286,2307,2327,2347,2366,2387,2407,2427,2447,2466,2488,2506,2528],"xSR":741.5,"ySR":573.95,"xT1":424.9,"yT1":0,"xT2":1058.1,"yT2":0,"toosoon":0,"cond_shown":"Congruent","ratio_trial":100,"L_num":12,"L_den":30,"R_num":13,"R_den":26,"correct_side":2,"subjID":"gabrielaramirezsoler19","gender":"1","school":"4","age":"9"},{"start_time":1552054218357,"click_time":1552054222338,"finger_time":1552054221599,"fix_duration":1418.3721952633935,"trial":15,"RT":3242,"MT":739,"sideResp":1,"stimulus":[],"xmouse":[788,788,788,788,788,788,788,788,788,788,788,788,788,788,788,788,788,788,788,788,788,788,788,788,788,788,788,788,788,788,788,788,788,788,788,788,788,788,788,788,788,788,788,788,788,788,788,788,788,788,788,788,788,788,788,788,788,788,788,788,788,788,788,788,788,788,788,788,788,788,788,788,788,788,788,788,788,788,788,788,788,788,788,788,788,788,788,788,788,788,788,788,788,788,788,788,788,788,788,788,788,788,788,788,788,788,788,788,788,788,788,788,788,788,788,788,788,788,788,788,788,788,788,788,788,788,788,788,788,788,788,788,788,788,788,788,788,788,788,788,788,788,788,788,788,788,788,788,788,788,788,788,788,788,791,793,797,802,808,812,816,819,823,824,825,825,825,825,825,825,825,825,808,758,693,605,516,399,379,369,365,352,347,345,345,345,345,346,347,350,353,360,369,375,392,417,456,507,514,514],"ymouse":[637,637,637,637,637,637,637,637,637,637,637,637,637,637,637,637,637,637,637,637,637,637,637,637,637,637,637,637,637,637,637,637,637,637,637,637,637,637,637,637,637,637,637,637,637,637,637,637,637,637,637,637,637,637,637,637,637,637,637,637,637,637,637,637,637,637,637,637,637,637,637,637,637,637,637,637,637,637,637,637,637,637,637,637,634,633,631,631,631,631,631,631,631,631,631,631,631,631,631,631,631,631,631,631,631,631,631,631,631,631,631,631,631,631,631,631,631,631,631,631,631,631,631,631,631,631,631,631,631,631,631,631,631,631,631,631,631,631,631,631,631,631,631,631,631,631,631,631,631,631,631,631,631,628,625,622,612,602,592,585,579,575,569,568,566,566,566,566,566,566,566,566,558,536,495,444,387,307,289,278,270,245,233,226,217,211,204,202,201,198,196,193,190,187,178,163,141,111,102,96],"timestamp_mouse":[10,37,42,62,82,100,120,142,161,180,201,221,240,262,280,301,321,341,361,381,400,421,441,460,482,502,521,540,561,580,602,622,641,660,681,701,721,740,762,781,802,821,842,861,880,901,921,942,961,982,1001,1021,1041,1061,1080,1100,1120,1141,1161,1180,1200,1220,1242,1262,1282,1301,1321,1341,1362,1380,1402,1421,1442,1461,1481,1501,1520,1542,1562,1580,1602,1621,1641,1661,1682,1701,1721,1740,1761,1782,1801,1821,1840,1862,1882,1902,1921,1941,1960,1982,2002,2021,2040,2061,2080,2102,2121,2141,2162,2181,2201,2222,2241,2261,2282,2301,2321,2342,2361,2380,2400,2421,2442,2461,2482,2501,2521,2541,2561,2582,2602,2621,2642,2660,2680,2700,2722,2741,2761,2780,2800,2822,2842,2861,2881,2900,2921,2942,2961,2982,3002,3021,3040,3060,3081,3102,3121,3141,3161,3181,3201,3221,3242,3261,3282,3301,3321,3340,3362,3381,3401,3421,3442,3462,3481,3501,3520,3541,3562,3582,3601,3622,3641,3661,3680,3701,3721,3741,3761,3781,3801,3821,3840,3862,3882,3901,3921,3941,3961,3981],"xSR":741.5,"ySR":573.95,"xT1":424.9,"yT1":0,"xT2":1058.1,"yT2":0,"toosoon":0,"cond_shown":"Congruent","ratio_trial":100,"L_num":2,"L_den":5,"R_num":6,"R_den":12,"correct_side":2,"subjID":"gabrielaramirezsoler19","gender":"1","school":"4","age":"9"},{"start_time":1552054226614,"click_time":1552054228598,"finger_time":1552054227997,"fix_duration":632.4776664742758,"trial":16,"RT":1383,"MT":601,"sideResp":1,"stimulus":[],"xmouse":[768,768,768,768,768,768,768,768,768,768,768,768,768,768,768,768,768,769,770,770,770,770,770,770,771,772,772,773,773,773,773,773,773,773,773,773,773,773,773,773,773,773,773,773,773,773,771,764,757,755,755,755,755,755,755,755,755,755,755,755,754,754,754,754,754,754,754,754,752,736,719,703,697,691,631,575,522,481,464,462,462,461,453,440,389,355,324,317,317,338,345,350,351,351,354,363,377,396,416,459],"ymouse":[630,630,630,630,630,630,630,630,630,630,630,630,630,630,630,630,630,630,630,630,630,630,630,630,630,630,630,630,630,630,630,630,630,630,630,630,630,630,630,630,630,630,630,630,630,630,630,631,632,633,633,633,633,633,633,633,633,633,633,633,634,636,638,645,660,664,665,666,666,607,542,491,457,430,349,317,287,268,259,257,257,257,250,232,166,139,112,98,80,49,40,35,35,35,34,33,33,33,33,36],"timestamp_mouse":[13,28,44,64,85,103,124,145,164,185,203,225,243,264,284,304,324,344,364,384,404,423,443,464,484,504,524,545,565,583,603,625,645,665,684,703,725,744,764,783,803,824,845,865,884,903,924,944,964,984,1004,1023,1045,1064,1084,1104,1125,1143,1163,1183,1204,1224,1244,1263,1283,1303,1324,1345,1365,1383,1403,1424,1443,1465,1485,1503,1524,1545,1563,1584,1604,1625,1644,1664,1684,1703,1724,1744,1765,1784,1804,1824,1845,1864,1884,1904,1924,1944,1965,1984],"xSR":741.5,"ySR":573.95,"xT1":424.9,"yT1":0,"xT2":1058.1,"yT2":0,"toosoon":0,"cond_shown":"Incongruent","ratio_trial":200,"L_num":7,"L_den":10,"R_num":14,"R_den":28,"correct_side":1,"subjID":"gabrielaramirezsoler19","gender":"1","school":"4","age":"9"},{"start_time":1552054230304,"click_time":1552054232157,"finger_time":1552054231638,"fix_duration":425.00714876693525,"trial":17,"RT":1334,"MT":519,"sideResp":2,"stimulus":[],"xmouse":[807,807,807,807,807,807,807,807,807,807,807,807,807,807,807,807,807,807,807,807,807,807,807,807,807,807,807,807,807,807,807,807,807,807,807,807,807,807,807,807,807,807,807,807,807,807,807,807,807,807,807,807,807,807,807,807,807,807,807,807,807,807,807,807,813,838,859,879,902,933,972,994,1016,1038,1057,1091,1101,1107,1113,1119,1122,1123,1125,1125,1125,1125,1125,1124,1123,1116,1104,1096,1089],"ymouse":[616,616,616,616,616,616,616,616,616,616,616,616,616,616,616,616,616,616,616,616,616,616,616,616,616,616,616,616,616,616,616,616,616,616,616,616,616,616,616,616,616,616,616,616,616,616,616,616,616,616,616,616,616,616,616,616,616,616,616,616,616,616,616,616,617,611,603,591,572,541,490,457,417,378,334,261,238,221,208,195,185,179,173,170,164,152,146,142,138,130,114,100,82],"timestamp_mouse":[20,46,53,74,95,115,135,154,174,195,213,234,255,275,295,315,334,354,374,394,415,435,453,475,495,514,534,553,575,595,615,634,653,673,694,715,734,754,774,795,813,834,854,875,895,915,934,955,975,995,1014,1034,1055,1075,1095,1115,1133,1154,1174,1194,1213,1234,1255,1274,1294,1314,1334,1354,1375,1394,1413,1433,1454,1474,1494,1514,1534,1554,1574,1594,1615,1634,1654,1674,1694,1713,1735,1754,1775,1794,1813,1834,1853],"xSR":741.5,"ySR":573.95,"xT1":424.9,"yT1":0,"xT2":1058.1,"yT2":0,"toosoon":0,"cond_shown":"Incongruent","ratio_trial":300,"L_num":4,"L_den":20,"R_num":2,"R_den":4,"correct_side":2,"subjID":"gabrielaramirezsoler19","gender":"1","school":"4","age":"9"},{"start_time":1552054233434,"click_time":1552054234978,"finger_time":1552054234778,"fix_duration":273.63414535693545,"trial":18,"RT":1344,"MT":200,"sideResp":1,"stimulus":[],"xmouse":[801,801,801,801,801,801,801,801,801,801,801,801,801,801,801,801,801,801,801,801,801,801,801,801,801,801,801,801,801,801,801,801,801,801,801,801,801,801,801,801,801,801,801,801,801,801,801,801,801,801,801,801,801,800,796,795,794,794,794,794,794,794,794,792,780,768,755,736,720,679,651,595,563,529,469,461,461,461],"ymouse":[638,638,638,638,638,638,638,638,638,638,638,638,638,638,638,638,638,638,638,638,638,638,638,638,638,638,638,638,638,638,638,638,638,638,638,638,638,638,638,638,638,638,638,638,638,638,638,638,638,638,638,638,638,636,623,617,614,613,613,613,613,613,612,610,601,592,581,567,551,514,484,422,378,319,172,136,112,93],"timestamp_mouse":[12,36,43,64,83,105,123,144,165,185,205,225,244,263,283,304,324,344,365,384,405,424,445,464,484,504,525,544,563,585,605,623,643,663,685,705,723,745,764,784,805,823,843,864,885,904,925,945,964,985,1004,1024,1043,1064,1083,1103,1124,1145,1165,1183,1203,1224,1244,1264,1284,1304,1325,1344,1363,1384,1404,1425,1444,1465,1484,1503,1524,1544],"xSR":741.5,"ySR":573.95,"xT1":424.9,"yT1":0,"xT2":1058.1,"yT2":0,"toosoon":0,"cond_shown":"Congruent","ratio_trial":200,"L_num":13,"L_den":26,"R_num":14,"R_den":20,"correct_side":2,"subjID":"gabrielaramirezsoler19","gender":"1","school":"4","age":"9"},{"start_time":1552054236501,"click_time":1552054238699,"finger_time":1552054237878,"fix_duration":502.87685443804685,"trial":19,"RT":1377,"MT":821,"sideResp":1,"stimulus":[],"xmouse":[785,789,791,793,793,793,793,793,793,793,793,793,793,793,793,793,793,793,793,793,793,793,793,793,793,793,793,793,793,793,793,793,793,793,793,793,793,793,793,793,793,793,793,793,793,793,793,793,793,793,793,793,793,793,793,793,793,793,793,793,793,793,793,793,793,793,788,778,769,761,744,735,732,731,731,731,722,714,708,705,704,704,702,697,692,688,688,688,688,686,685,669,655,640,623,593,578,569,560,556,554,554,554,554,553,551,535,530,528,522],"ymouse":[652,652,652,652,652,652,652,652,652,652,652,652,652,652,652,652,652,652,652,652,652,652,652,652,652,652,652,652,652,652,652,652,652,652,652,652,652,652,652,652,652,652,652,652,652,652,652,652,652,652,652,652,652,652,652,652,652,652,652,652,652,652,652,652,652,646,612,591,566,539,475,446,421,399,379,363,326,313,305,303,303,302,298,292,289,287,287,287,287,285,281,265,252,239,225,190,168,149,130,117,110,110,110,110,110,105,91,88,87,84],"timestamp_mouse":[23,42,56,76,97,117,136,158,177,197,217,237,256,278,298,316,336,356,376,396,417,436,457,478,498,517,537,557,577,596,617,637,656,677,698,717,737,757,776,796,817,838,857,877,897,917,937,958,977,997,1017,1037,1057,1076,1096,1117,1136,1156,1177,1196,1216,1238,1258,1277,1296,1317,1338,1356,1377,1397,1417,1436,1456,1477,1498,1518,1538,1558,1578,1597,1617,1637,1656,1678,1698,1717,1736,1757,1777,1797,1817,1837,1857,1878,1897,1917,1936,1958,1977,1998,2017,2036,2058,2077,2096,2117,2138,2157,2178,2198],"xSR":741.5,"ySR":573.95,"xT1":424.9,"yT1":0,"xT2":1058.1,"yT2":0,"toosoon":0,"cond_shown":"Incongruent","ratio_trial":200,"L_num":4,"L_den":6,"R_num":14,"R_den":30,"correct_side":1,"subjID":"gabrielaramirezsoler19","gender":"1","school":"4","age":"9"},{"start_time":1552054244329,"click_time":1552054246138,"finger_time":1552054245818,"fix_duration":250,"trial":20,"RT":1489,"MT":320,"sideResp":2,"stimulus":[],"xmouse":[782,782,782,782,782,782,782,782,782,782,782,782,782,782,782,782,782,782,782,782,782,782,782,782,782,782,782,782,782,782,782,782,782,782,782,782,782,782,782,782,782,782,782,782,782,782,782,782,782,782,782,782,782,782,782,782,782,782,782,782,782,782,782,782,782,782,782,782,782,781,784,797,809,825,835,845,871,882,893,903,923,938,947,960,972,985,1020,1039,1060,1076,1105],"ymouse":[634,634,634,634,634,634,634,634,634,634,634,634,634,634,634,634,634,634,634,634,634,634,634,634,634,634,634,634,634,634,634,634,634,634,634,634,634,634,634,634,634,634,634,634,634,634,634,634,634,634,634,634,634,634,634,634,634,634,634,634,634,634,634,634,634,634,634,634,634,634,627,612,597,581,565,549,504,482,461,443,416,394,377,356,334,310,249,215,178,147,98],"timestamp_mouse":[13,38,48,69,89,109,130,148,169,189,208,230,249,270,290,309,328,349,370,390,408,429,449,469,489,508,528,548,568,589,609,628,648,670,690,709,729,750,768,789,809,829,850,868,888,908,928,949,968,988,1009,1030,1048,1068,1090,1108,1128,1149,1170,1189,1209,1230,1248,1270,1290,1308,1330,1350,1369,1390,1409,1428,1449,1469,1489,1509,1529,1549,1568,1589,1609,1629,1649,1669,1689,1709,1728,1749,1769,1789,1809],"xSR":741.5,"ySR":573.95,"xT1":424.9,"yT1":0,"xT2":1058.1,"yT2":0,"toosoon":0,"cond_shown":"Incongruent","ratio_trial":200,"L_num":14,"L_den":30,"R_num":6,"R_den":9,"correct_side":2,"subjID":"gabrielaramirezsoler19","gender":"1","school":"4","age":"9"},{"start_time":1552054250040,"click_time":1552054252798,"finger_time":1552054251639,"fix_duration":699.8665766363744,"trial":21,"RT":1599,"MT":1159,"sideResp":1,"stimulus":[],"xmouse":[779,779,779,779,779,779,779,779,779,779,779,779,779,779,779,779,779,779,779,779,779,779,779,779,779,779,779,779,779,779,779,779,779,779,779,779,779,779,779,779,779,779,779,779,779,779,779,779,779,779,779,779,779,779,779,779,779,779,779,779,779,779,779,779,779,779,779,779,779,779,779,779,779,779,786,792,800,809,817,844,861,880,904,918,934,938,939,940,940,940,940,940,940,940,940,940,940,940,937,922,871,848,778,752,733,729,725,719,713,706,702,701,690,678,643,620,600,582,565,540,531,529,528,528,528,528,528,528,528,528,528,528,528,527,527,525,518],"ymouse":[602,602,602,602,602,602,602,602,602,602,602,602,602,602,602,602,602,602,602,602,602,602,602,602,602,602,602,602,602,602,602,602,602,602,602,602,602,602,602,602,602,602,602,602,602,602,602,602,602,602,602,602,602,602,602,602,602,602,602,602,602,602,602,602,602,602,602,602,602,602,602,602,602,602,597,593,585,577,567,535,514,491,462,446,421,411,407,406,406,406,406,406,406,406,406,406,406,406,404,396,378,367,333,310,269,247,227,206,187,165,158,156,151,146,139,135,133,132,132,129,129,128,127,127,127,116,106,95,84,65,54,52,48,47,47,46,44],"timestamp_mouse":[41,59,79,99,118,139,158,178,199,218,239,259,277,298,319,337,359,379,398,418,438,459,477,498,519,539,558,578,598,618,639,659,678,698,719,739,758,778,799,819,838,859,878,898,917,939,957,979,998,1018,1039,1058,1078,1099,1118,1139,1158,1178,1199,1217,1239,1258,1278,1298,1319,1339,1358,1378,1399,1419,1438,1457,1479,1498,1518,1538,1558,1577,1599,1618,1637,1658,1677,1698,1717,1738,1758,1778,1799,1819,1838,1858,1877,1898,1918,1938,1959,1978,1997,2018,2037,2059,2078,2098,2117,2137,2158,2177,2199,2218,2238,2258,2277,2297,2317,2338,2358,2379,2399,2419,2437,2459,2478,2498,2517,2537,2559,2577,2599,2618,2638,2658,2679,2699,2717,2737,2758],"xSR":741.5,"ySR":573.95,"xT1":424.9,"yT1":0,"xT2":1058.1,"yT2":0,"toosoon":0,"cond_shown":"Congruent","ratio_trial":300,"L_num":24,"L_den":30,"R_num":8,"R_den":16,"correct_side":1,"subjID":"gabrielaramirezsoler19","gender":"1","school":"4","age":"9"},{"start_time":1552054254884,"click_time":1552054257338,"finger_time":1552054256719,"fix_duration":844.2676719063688,"trial":22,"RT":1835,"MT":619,"sideResp":2,"stimulus":[],"xmouse":[777,777,777,777,777,777,777,777,777,777,777,777,777,777,777,777,777,777,777,777,777,777,777,777,777,777,777,777,777,777,777,777,777,777,777,777,777,777,777,777,777,777,777,777,777,777,777,777,777,777,777,777,777,777,777,777,777,777,777,777,777,777,777,777,777,777,777,777,777,777,777,777,777,777,777,777,777,777,777,777,777,777,777,777,777,777,777,782,785,798,804,809,814,819,829,834,838,840,843,849,851,854,855,864,873,879,884,887,892,899,902,906,908,919,927,934,940,954,966,997,1022,1049,1074],"ymouse":[635,635,635,635,635,635,635,635,635,635,635,635,635,635,635,635,635,635,635,635,635,635,635,635,635,635,635,635,635,635,635,635,635,635,635,635,635,635,635,635,635,635,635,635,635,635,635,635,635,635,635,635,635,635,635,635,635,635,635,635,635,635,635,635,635,635,635,635,635,635,635,635,635,635,635,635,635,635,635,635,635,635,635,635,635,635,635,623,613,593,582,573,565,556,539,531,524,517,512,502,497,487,480,454,428,406,389,378,364,352,347,341,338,321,307,294,278,251,230,176,133,86,27],"timestamp_mouse":[14,38,54,74,93,113,134,154,174,193,213,235,255,274,294,314,335,353,375,394,415,435,453,474,495,515,533,554,574,593,613,635,654,674,694,713,735,753,773,794,815,835,854,874,894,914,933,955,973,994,1015,1035,1053,1075,1095,1115,1133,1155,1174,1194,1213,1234,1254,1274,1295,1314,1335,1354,1375,1395,1413,1435,1455,1474,1494,1514,1534,1555,1574,1593,1613,1635,1653,1675,1695,1714,1734,1754,1773,1793,1814,1835,1855,1874,1893,1914,1933,1954,1974,1994,2014,2033,2053,2075,2093,2114,2133,2153,2174,2194,2215,2234,2254,2275,2294,2315,2334,2354,2374,2395,2415,2435,2453],"xSR":741.5,"ySR":573.95,"xT1":424.9,"yT1":0,"xT2":1058.1,"yT2":0,"toosoon":0,"cond_shown":"Congruent","ratio_trial":200,"L_num":3,"L_den":10,"R_num":11,"R_den":22,"correct_side":2,"subjID":"gabrielaramirezsoler19","gender":"1","school":"4","age":"9"},{"start_time":1552054258711,"click_time":1552054261138,"finger_time":1552054260898,"fix_duration":250,"trial":23,"RT":2187,"MT":240,"sideResp":2,"stimulus":[],"xmouse":[803,793,793,787,787,787,787,787,787,787,787,787,787,787,787,787,787,787,787,787,787,787,787,787,787,787,787,787,787,787,787,787,787,787,787,787,787,787,787,787,787,787,787,787,787,787,787,787,787,787,787,787,787,787,787,787,787,787,787,787,787,787,787,787,787,787,787,787,787,787,787,787,787,787,787,787,787,787,787,787,787,787,787,789,789,790,790,790,790,791,792,792,793,793,793,794,794,794,794,794,794,795,795,795,797,798,803,811,834,850,866,884,903,956,984,1022,1042,1060,1089,1103,1117,1134],"ymouse":[638,633,633,630,630,630,630,630,630,630,630,630,630,630,630,630,630,630,630,630,630,630,630,630,630,630,630,630,630,630,630,630,630,630,630,630,630,630,630,630,630,630,630,630,630,630,630,630,630,630,630,630,630,630,630,630,630,630,630,630,630,630,630,630,630,630,630,630,630,630,630,630,630,630,630,630,630,630,630,630,630,630,630,627,626,625,625,625,624,624,622,622,621,620,620,620,620,620,620,620,618,617,617,617,615,614,610,605,585,568,550,529,506,436,397,342,305,269,199,160,120,75],"timestamp_mouse":[13,38,48,66,87,106,128,148,167,186,207,227,247,267,287,307,327,346,367,387,406,427,447,468,488,506,527,547,568,587,608,626,648,667,686,706,728,748,766,788,808,827,846,868,888,907,927,947,967,986,1008,1027,1047,1067,1088,1108,1128,1146,1167,1187,1208,1227,1247,1268,1287,1306,1328,1348,1367,1387,1406,1428,1448,1467,1486,1508,1527,1548,1567,1588,1608,1627,1648,1666,1688,1708,1728,1746,1766,1788,1807,1827,1846,1866,1886,1906,1927,1948,1966,1987,2007,2027,2048,2066,2087,2107,2126,2146,2167,2187,2207,2228,2247,2267,2286,2307,2328,2347,2366,2386,2406,2427],"xSR":741.5,"ySR":573.95,"xT1":424.9,"yT1":0,"xT2":1058.1,"yT2":0,"toosoon":0,"cond_shown":"Incongruent","ratio_trial":300,"L_num":4,"L_den":20,"R_num":2,"R_den":4,"correct_side":2,"subjID":"gabrielaramirezsoler19","gender":"1","school":"4","age":"9"},{"start_time":1552054263642,"click_time":1552054265879,"finger_time":1552054265399,"fix_duration":1062.845914263299,"trial":24,"RT":1757,"MT":480,"sideResp":2,"stimulus":[],"xmouse":[773,773,773,773,773,773,773,773,773,773,773,773,773,773,773,773,773,773,773,773,773,773,773,773,773,773,773,773,773,773,773,773,773,773,773,773,773,773,773,773,773,773,773,773,773,773,773,773,773,773,773,773,773,773,773,773,773,773,773,773,773,773,773,773,773,773,773,773,773,773,773,773,773,773,773,773,773,773,773,773,773,773,773,773,773,782,795,831,849,872,894,944,962,973,983,995,1006,1026,1034,1040,1045,1049,1052,1054,1057,1060,1065,1073,1078,1082,1087,1095],"ymouse":[630,630,630,630,630,630,630,630,630,630,630,630,630,630,630,630,630,630,630,630,630,630,630,630,630,630,630,630,630,630,630,630,630,630,630,630,630,630,630,630,630,630,630,630,630,630,630,630,630,630,630,630,630,630,630,630,630,630,630,630,630,630,630,630,630,630,630,630,630,630,630,630,630,630,630,630,630,630,630,630,630,630,630,630,630,618,603,562,539,510,481,416,391,369,349,322,303,270,255,241,229,219,208,204,196,190,175,149,135,120,104,71],"timestamp_mouse":[15,38,57,77,96,115,136,157,177,195,216,236,255,276,296,315,336,355,377,397,417,436,456,477,496,515,537,556,577,595,617,636,656,677,697,717,736,757,777,795,816,836,856,876,896,916,935,957,976,995,1015,1037,1056,1075,1097,1115,1135,1156,1177,1197,1217,1236,1257,1276,1296,1317,1336,1356,1376,1397,1416,1437,1457,1476,1497,1517,1536,1556,1576,1597,1617,1636,1656,1677,1696,1715,1735,1757,1776,1796,1815,1836,1856,1876,1895,1915,1936,1955,1976,1996,2015,2035,2056,2077,2096,2116,2135,2156,2177,2197,2215,2236],"xSR":741.5,"ySR":573.95,"xT1":424.9,"yT1":0,"xT2":1058.1,"yT2":0,"toosoon":0,"cond_shown":"Congruent","ratio_trial":100,"L_num":10,"L_den":25,"R_num":3,"R_den":10,"correct_side":1,"subjID":"gabrielaramirezsoler19","gender":"1","school":"4","age":"9"},{"start_time":1552054270641,"click_time":1552054272518,"finger_time":1552054271978,"fix_duration":1462.2295573498445,"trial":25,"RT":1337,"MT":540,"sideResp":1,"stimulus":[],"xmouse":[787,787,787,787,787,787,787,787,787,787,787,787,787,787,787,787,787,787,787,787,787,787,787,787,787,787,787,787,787,787,787,787,787,787,787,787,787,787,787,787,787,787,787,787,787,787,787,787,787,787,787,787,787,787,787,787,787,787,787,787,787,787,787,787,787,782,771,743,730,719,707,694,664,644,635,631,630,624,601,562,512,483,458,458,458,458,455,438,401,394,393,393,408,431],"ymouse":[598,598,598,598,598,598,598,598,598,598,598,598,598,598,598,598,598,598,598,598,598,598,598,598,598,598,598,598,598,598,598,598,598,598,598,598,598,598,598,598,598,598,598,598,598,598,598,598,598,598,598,598,598,598,598,598,598,598,598,598,598,598,598,598,598,588,572,530,504,470,430,383,294,255,240,235,234,232,224,205,176,160,143,143,143,143,142,134,110,104,98,95,87,79],"timestamp_mouse":[16,36,56,78,97,117,136,157,178,198,217,236,257,278,297,318,336,356,376,396,417,438,456,477,496,516,537,557,577,597,617,637,657,677,698,718,737,756,777,798,817,837,857,877,896,917,938,957,978,996,1017,1036,1056,1077,1098,1116,1138,1157,1178,1197,1218,1237,1257,1277,1296,1316,1337,1357,1376,1398,1418,1437,1458,1476,1497,1516,1537,1557,1577,1597,1618,1637,1658,1677,1696,1718,1738,1756,1776,1797,1817,1838,1856,1877],"xSR":741.5,"ySR":573.95,"xT1":424.9,"yT1":0,"xT2":1058.1,"yT2":0,"toosoon":0,"cond_shown":"Incongruent","ratio_trial":300,"L_num":8,"L_den":10,"R_num":9,"R_den":18,"correct_side":1,"subjID":"gabrielaramirezsoler19","gender":"1","school":"4","age":"9"},{"start_time":1552054277323,"click_time":1552054279377,"finger_time":1552054278717,"fix_duration":1024.710171633878,"trial":26,"RT":1394,"MT":660,"sideResp":2,"stimulus":[],"xmouse":[796,796,796,796,796,796,796,796,796,796,796,796,796,796,796,796,796,796,796,796,796,796,796,796,796,796,796,796,796,796,796,796,796,796,796,796,796,796,796,796,796,796,796,796,796,796,796,796,796,796,796,796,796,796,802,806,807,808,808,808,808,808,808,808,809,814,819,827,838,863,877,897,929,973,1094,1171,1217,1269,1319,1372,1479,1528,1569,1569,1569,1569,1569,1565,1522,1446,1428,1420,1419,1419,1416,1396,1367,1330,1290,1221,1193,1171,1146],"ymouse":[625,625,625,625,625,625,625,625,625,625,625,625,625,625,625,625,625,625,625,625,625,625,625,625,625,625,625,625,625,625,625,625,625,625,625,625,625,625,625,625,625,625,625,625,625,625,625,625,625,625,625,625,625,623,619,615,614,613,613,613,613,613,613,613,613,608,603,594,582,547,526,498,460,409,267,172,102,33,0,0,0,0,0,0,0,0,0,38,101,205,237,253,256,256,257,243,220,189,158,99,74,58,41],"timestamp_mouse":[21,42,54,74,96,114,135,155,174,196,214,235,255,276,296,314,335,354,374,395,416,435,454,475,495,516,535,554,576,594,616,634,654,675,695,716,736,755,775,796,814,834,855,875,896,914,934,954,974,996,1015,1036,1055,1074,1094,1115,1135,1154,1174,1194,1215,1234,1256,1275,1294,1315,1335,1355,1375,1394,1415,1434,1455,1475,1494,1515,1535,1554,1574,1594,1614,1635,1655,1674,1694,1715,1734,1754,1774,1796,1814,1834,1854,1875,1894,1914,1935,1954,1974,1995,2014,2035,2054],"xSR":741.5,"ySR":573.95,"xT1":424.9,"yT1":0,"xT2":1058.1,"yT2":0,"toosoon":0,"cond_shown":"Incongruent","ratio_trial":300,"L_num":13,"L_den":26,"R_num":12,"R_den":15,"correct_side":2,"subjID":"gabrielaramirezsoler19","gender":"1","school":"4","age":"9"},{"start_time":1552054283190,"click_time":1552054285798,"finger_time":1552054284517,"fix_duration":250,"trial":27,"RT":1327,"MT":1281,"sideResp":1,"stimulus":[],"xmouse":[805,805,805,805,805,805,805,805,805,805,805,805,805,805,805,805,805,805,805,805,805,805,805,805,805,805,805,805,805,805,805,805,805,805,805,805,805,805,805,805,805,805,805,805,805,805,805,805,805,805,805,805,805,805,805,805,805,805,805,805,805,805,805,803,784,754,723,685,680,680,680,680,684,684,682,674,666,646,635,624,608,599,590,590,590,594,599,611,612,612,609,600,555,525,491,461,439,400,374,365,363,363,363,363,363,363,363,363,364,367,368,370,376,377,377,379,383,387,389,393,401,404,404,405,409,412,413,414,419,421,430],"ymouse":[621,621,621,621,621,621,621,621,621,621,621,621,621,621,621,621,621,621,621,621,621,621,621,621,621,621,621,621,621,621,621,621,621,621,621,621,621,621,621,621,621,621,621,621,621,621,621,621,621,621,621,621,621,621,621,621,621,621,621,621,621,621,621,618,605,585,560,520,511,509,509,507,483,467,449,429,412,381,365,346,319,298,244,206,157,114,81,38,32,27,22,17,9,4,0,0,0,0,0,1,2,2,2,2,2,2,2,2,2,2,2,2,1,1,1,1,1,1,1,1,1,1,1,1,1,1,1,1,1,1,3],"timestamp_mouse":[13,44,47,68,87,108,127,147,167,188,208,227,249,269,288,308,327,348,369,388,408,427,448,469,489,507,528,547,569,588,609,628,647,667,689,708,727,749,768,788,807,827,847,868,887,908,928,949,969,987,1008,1027,1047,1067,1088,1108,1127,1148,1167,1189,1209,1227,1247,1267,1288,1307,1327,1347,1367,1388,1407,1428,1448,1467,1487,1508,1528,1548,1569,1588,1608,1627,1648,1668,1688,1708,1727,1748,1768,1788,1808,1828,1847,1867,1888,1907,1928,1948,1967,1987,2008,2029,2048,2068,2088,2107,2128,2148,2169,2188,2207,2228,2247,2271,2288,2308,2328,2347,2368,2387,2408,2427,2447,2467,2487,2507,2527,2547,2567,2588,2608],"xSR":741.5,"ySR":573.95,"xT1":424.9,"yT1":0,"xT2":1058.1,"yT2":0,"toosoon":0,"cond_shown":"Incongruent","ratio_trial":100,"L_num":3,"L_den":5,"R_num":11,"R_den":22,"correct_side":1,"subjID":"gabrielaramirezsoler19","gender":"1","school":"4","age":"9"},{"start_time":1552054287952,"click_time":1552054291319,"finger_time":1552054289758,"fix_duration":792.290151956197,"trial":28,"RT":1806,"MT":1561,"sideResp":1,"stimulus":[],"xmouse":[782,782,782,782,782,782,782,782,782,782,782,782,782,782,782,782,782,782,782,782,782,782,782,782,782,782,782,782,782,782,782,782,782,782,782,782,782,782,782,782,782,782,782,782,782,782,782,782,782,782,782,782,782,782,782,782,782,782,782,782,782,782,782,782,782,782,782,782,782,782,782,782,782,782,782,782,782,782,782,782,782,782,782,782,782,782,782,786,796,816,846,862,876,892,919,931,939,944,949,964,970,977,983,993,1010,1018,1024,1027,1030,1031,1033,1033,1033,1033,1035,1038,1040,1042,1047,1050,1054,1054,1054,1054,1054,1056,1056,1056,1056,1056,1056,1056,1056,1056,1056,1056,1056,1046,1032,1018,995,977,950,917,893,855,840,825,812,751,723,690,666,647,612,594,579,569,565,565,564,564,564,563,556,549,538,526,519],"ymouse":[627,627,627,627,627,627,627,627,627,627,627,627,627,627,627,627,627,627,627,627,627,627,627,627,627,627,627,627,627,627,627,627,627,627,627,627,627,627,627,627,627,627,627,627,627,627,627,627,627,627,627,627,627,627,627,627,627,627,627,627,627,627,627,627,627,627,627,627,627,627,627,627,627,627,627,627,627,627,627,627,627,627,627,627,627,627,628,623,607,574,519,493,467,444,406,388,376,367,358,332,320,306,291,274,234,216,202,190,183,181,179,179,178,176,171,166,162,154,148,140,133,133,133,133,132,129,129,129,129,129,129,129,129,129,129,129,129,139,156,175,215,237,260,274,283,289,289,285,280,253,240,224,212,201,180,168,157,148,141,140,134,128,122,112,86,73,61,52,50],"timestamp_mouse":[12,35,45,65,85,106,125,146,166,186,205,226,245,266,285,305,326,346,365,386,406,426,445,465,485,505,526,545,567,585,606,625,645,667,686,706,725,746,766,785,805,825,845,866,886,906,926,946,965,986,1005,1026,1046,1066,1086,1107,1127,1145,1166,1185,1206,1225,1246,1267,1286,1306,1326,1345,1366,1385,1406,1426,1447,1467,1485,1506,1525,1545,1565,1586,1606,1627,1645,1666,1685,1707,1727,1746,1765,1786,1806,1825,1845,1865,1886,1906,1926,1946,1966,1986,2005,2026,2047,2066,2086,2105,2125,2145,2166,2186,2205,2226,2247,2266,2286,2305,2326,2346,2366,2385,2405,2426,2446,2465,2486,2505,2526,2545,2565,2586,2606,2625,2645,2665,2687,2705,2726,2746,2766,2785,2805,2826,2845,2866,2885,2905,2926,2946,2966,2986,3005,3027,3046,3066,3086,3106,3125,3145,3166,3185,3206,3227,3246,3265,3286,3306,3325,3345,3367],"xSR":741.5,"ySR":573.95,"xT1":424.9,"yT1":0,"xT2":1058.1,"yT2":0,"toosoon":0,"cond_shown":"Congruent","ratio_trial":100,"L_num":8,"L_den":16,"R_num":2,"R_den":5,"correct_side":1,"subjID":"gabrielaramirezsoler19","gender":"1","school":"4","age":"9"},{"start_time":1552054293459,"click_time":1552054295518,"finger_time":1552054294638,"fix_duration":1280.4065262287013,"trial":29,"RT":1179,"MT":880,"sideResp":2,"stimulus":[],"xmouse":[798,798,798,798,798,798,798,798,798,798,798,798,798,798,798,798,798,798,798,799,799,799,799,799,799,799,799,799,799,799,799,799,799,799,799,799,799,799,799,799,799,799,799,799,799,799,799,799,799,799,800,801,807,812,821,827,835,841,848,863,870,892,902,933,969,992,1012,1030,1050,1093,1122,1165,1190,1215,1268,1288,1302,1311,1313,1314,1313,1299,1276,1255,1221,1213,1208,1206,1206,1205,1205,1205,1205,1205,1205,1205,1205,1203,1197,1181,1172,1160,1152],"ymouse":[642,642,642,642,642,642,642,642,642,642,642,642,642,642,642,642,642,642,642,642,642,642,642,642,642,642,642,642,642,642,642,642,642,642,642,642,642,642,642,642,642,642,642,642,642,642,642,642,642,642,642,642,641,640,636,633,629,625,620,610,603,583,576,544,499,466,439,414,386,320,281,209,152,95,0,0,0,0,0,0,0,8,20,34,56,61,63,64,64,64,64,64,64,64,64,64,64,64,64,59,57,54,51],"timestamp_mouse":[18,44,59,78,99,119,140,160,179,199,219,238,258,278,299,319,338,359,379,398,420,439,459,479,500,520,539,558,580,598,619,638,658,679,698,718,738,758,778,800,818,839,858,878,899,919,939,960,978,999,1019,1038,1058,1079,1099,1118,1139,1159,1179,1198,1219,1239,1258,1278,1298,1318,1339,1359,1379,1398,1419,1438,1460,1479,1500,1519,1539,1559,1579,1598,1618,1638,1659,1678,1698,1718,1738,1758,1778,1799,1818,1839,1859,1879,1899,1919,1938,1958,1980,2000,2019,2038,2059],"xSR":741.5,"ySR":573.95,"xT1":424.9,"yT1":0,"xT2":1058.1,"yT2":0,"toosoon":0,"cond_shown":"Incongruent","ratio_trial":300,"L_num":13,"L_den":26,"R_num":12,"R_den":15,"correct_side":2,"subjID":"gabrielaramirezsoler19","gender":"1","school":"4","age":"9"},{"start_time":1552054297287,"click_time":1552054299038,"finger_time":1552054298718,"fix_duration":607.5584697617629,"trial":30,"RT":1431,"MT":320,"sideResp":1,"stimulus":[],"xmouse":[784,784,784,784,784,784,784,784,784,784,784,784,784,784,784,784,784,784,784,784,784,784,784,784,784,784,784,784,784,784,784,784,784,784,784,784,784,784,784,784,784,784,784,784,784,784,784,784,784,784,784,784,784,784,784,784,784,784,784,784,784,784,784,784,784,784,784,775,765,749,746,744,742,739,730,726,718,711,706,696,690,681,664,610,582,551,528,516],"ymouse":[637,637,637,637,637,637,637,637,637,637,637,637,637,637,637,637,637,637,637,637,637,637,637,637,637,637,637,637,637,637,637,637,637,637,637,637,637,637,637,637,637,637,637,637,637,637,637,637,637,637,637,637,637,637,637,637,637,637,637,637,637,637,637,637,637,636,634,622,610,584,579,573,568,559,528,511,492,474,460,431,417,396,365,251,184,111,52,18],"timestamp_mouse":[12,30,51,70,92,111,131,151,170,192,212,231,250,271,291,310,331,352,371,392,410,431,451,470,491,510,531,551,571,591,612,631,650,670,692,711,730,752,771,791,810,830,850,871,891,910,931,951,971,990,1010,1030,1050,1070,1092,1111,1130,1152,1171,1191,1211,1232,1251,1270,1291,1311,1331,1352,1371,1391,1410,1431,1450,1470,1490,1511,1530,1551,1571,1592,1611,1631,1650,1671,1690,1711,1730,1751],"xSR":741.5,"ySR":573.95,"xT1":424.9,"yT1":0,"xT2":1058.1,"yT2":0,"toosoon":0,"cond_shown":"Congruent","ratio_trial":200,"L_num":8,"L_den":15,"R_num":2,"R_den":6,"correct_side":1,"subjID":"gabrielaramirezsoler19","gender":"1","school":"4","age":"9"},{"start_time":1552054301136,"click_time":1552054303158,"finger_time":1552054302697,"fix_duration":335.9980911850692,"trial":31,"RT":1561,"MT":461,"sideResp":1,"stimulus":[],"xmouse":[801,801,801,801,801,801,801,801,801,801,801,801,801,801,801,801,801,801,801,801,801,801,801,801,801,801,801,801,801,801,801,801,801,801,801,801,801,801,801,801,801,801,801,801,801,801,801,801,801,801,801,801,801,801,801,801,801,801,801,801,801,801,801,801,801,801,801,801,801,801,801,801,801,800,799,798,792,784,778,774,766,758,741,733,724,715,693,660,648,642,636,629,610,598,585,571,567,561,555,544,529,515],"ymouse":[617,617,617,617,617,617,617,617,617,617,617,617,617,617,617,617,617,617,617,617,617,617,617,617,617,617,617,617,617,617,617,617,617,617,617,617,617,617,617,617,617,617,617,617,617,617,617,617,617,617,617,617,617,617,617,617,617,617,617,617,617,617,617,617,617,617,617,617,617,617,617,617,617,617,617,617,611,587,568,549,525,507,470,450,431,406,357,286,256,232,210,188,142,120,102,82,78,77,76,74,72,66],"timestamp_mouse":[11,21,42,62,81,103,122,141,161,182,201,223,241,262,283,303,323,341,361,383,403,423,442,462,482,503,521,541,561,582,602,621,641,662,683,702,722,742,763,781,802,822,841,861,883,902,922,941,961,982,1001,1022,1041,1061,1081,1102,1122,1142,1161,1181,1201,1222,1241,1262,1281,1303,1322,1341,1362,1381,1402,1422,1441,1461,1481,1502,1522,1541,1561,1581,1602,1622,1641,1661,1682,1702,1721,1741,1761,1782,1802,1821,1841,1862,1881,1901,1921,1941,1961,1981,2001,2021],"xSR":741.5,"ySR":573.95,"xT1":424.9,"yT1":0,"xT2":1058.1,"yT2":0,"toosoon":0,"cond_shown":"Congruent","ratio_trial":200,"L_num":3,"L_den":10,"R_num":14,"R_den":28,"correct_side":2,"subjID":"gabrielaramirezsoler19","gender":"1","school":"4","age":"9"},{"start_time":1552054305475,"click_time":1552054307057,"finger_time":1552054306437,"fix_duration":1235.8915591929122,"trial":32,"RT":962,"MT":620,"sideResp":1,"stimulus":[],"xmouse":[801,801,801,798,797,797,797,797,797,797,797,797,797,797,797,797,796,796,797,798,799,800,801,801,801,801,801,801,801,801,801,801,801,801,801,801,801,799,795,790,788,787,786,784,781,771,762,754,745,734,693,666,640,627,617,606,600,595,589,584,575,572,568,564,561,559,553,550,547,543,525,509,492,479,470,459,454,454,450,448],"ymouse":[604,604,604,605,606,606,606,606,606,606,606,606,606,606,606,606,606,608,610,612,613,616,617,618,618,618,618,618,618,618,618,618,618,618,618,618,619,621,622,622,622,622,622,622,620,608,596,584,569,548,484,450,420,401,387,359,347,333,320,307,282,270,257,242,229,217,192,184,177,169,154,147,139,132,127,120,114,113,106,99],"timestamp_mouse":[13,36,43,62,83,102,122,144,163,182,202,223,243,263,283,302,324,342,362,383,402,422,442,462,482,502,522,544,562,583,603,622,642,663,682,702,723,742,763,783,802,823,843,862,882,903,923,942,962,983,1003,1022,1042,1062,1083,1103,1122,1143,1162,1182,1202,1222,1243,1263,1282,1302,1323,1343,1363,1382,1403,1422,1442,1462,1483,1503,1523,1542,1562,1582],"xSR":741.5,"ySR":573.95,"xT1":424.9,"yT1":0,"xT2":1058.1,"yT2":0,"toosoon":0,"cond_shown":"Incongruent","ratio_trial":300,"L_num":4,"L_den":5,"R_num":8,"R_den":16,"correct_side":1,"subjID":"gabrielaramirezsoler19","gender":"1","school":"4","age":"9"},{"start_time":1552054309250,"click_time":1552054310837,"finger_time":1552054310617,"fix_duration":1169.7417805672176,"trial":33,"RT":1367,"MT":220,"sideResp":2,"stimulus":[],"xmouse":[812,812,813,814,814,814,814,814,814,814,814,814,814,814,814,814,814,814,814,814,814,814,814,814,814,814,814,814,814,814,814,814,814,814,814,814,814,814,814,814,814,814,814,814,814,814,814,814,814,814,814,814,814,814,814,814,814,814,814,814,814,814,814,814,814,814,814,818,844,869,896,944,970,994,1013,1026,1050,1079,1090,1095],"ymouse":[616,616,616,616,616,616,616,616,616,616,616,616,616,616,616,616,616,616,616,616,616,616,616,616,616,616,616,616,616,616,616,616,616,616,616,616,616,616,616,616,616,616,616,616,616,616,616,616,616,616,616,616,616,616,616,616,616,616,616,616,616,616,616,616,616,616,616,612,580,548,514,443,402,360,328,293,236,152,111,82],"timestamp_mouse":[9,35,48,67,88,108,129,149,168,188,208,229,248,269,288,307,327,347,368,389,409,428,447,467,488,509,528,548,569,588,608,627,647,668,688,708,727,747,768,789,808,828,847,869,889,909,928,948,968,988,1008,1027,1048,1069,1089,1107,1128,1147,1167,1189,1209,1228,1247,1268,1289,1308,1327,1347,1367,1387,1407,1429,1449,1467,1488,1508,1528,1548,1567,1587],"xSR":741.5,"ySR":573.95,"xT1":424.9,"yT1":0,"xT2":1058.1,"yT2":0,"toosoon":0,"cond_shown":"Incongruent","ratio_trial":100,"L_num":13,"L_den":26,"R_num":6,"R_den":10,"correct_side":2,"subjID":"gabrielaramirezsoler19","gender":"1","school":"4","age":"9"},{"start_time":1552054313087,"click_time":1552054314899,"finger_time":1552054314298,"fix_duration":1107.0316426653671,"trial":34,"RT":1211,"MT":601,"sideResp":1,"stimulus":[],"xmouse":[792,792,792,792,792,792,792,792,792,792,792,793,793,793,793,793,793,793,793,793,793,793,793,793,793,793,793,793,793,793,793,793,793,793,793,793,793,793,793,793,793,793,793,793,793,793,793,793,793,793,793,793,791,788,786,783,781,778,773,763,714,690,656,626,594,507,450,401,365,345,331,327,327,327,327,336,341,344,349,356,386,414,423,424,424,424,424,424,424,424,429],"ymouse":[623,623,623,623,623,623,623,622,622,622,622,622,622,622,622,622,622,622,622,622,622,622,622,622,622,622,622,622,622,622,622,622,622,622,622,622,622,622,622,622,622,622,622,622,622,622,622,622,622,622,622,622,622,622,620,619,617,613,609,597,543,512,474,435,388,258,181,111,52,13,0,0,0,0,0,0,0,0,0,0,14,31,36,37,37,37,37,37,37,37,37],"timestamp_mouse":[13,37,50,70,90,110,130,151,170,192,210,230,251,271,291,310,330,352,370,392,411,432,451,471,491,510,530,551,571,591,610,630,650,670,692,711,730,750,771,791,810,831,850,871,892,910,930,951,970,990,1011,1030,1050,1071,1090,1110,1130,1150,1171,1190,1211,1230,1251,1271,1291,1310,1330,1351,1370,1390,1411,1430,1450,1471,1490,1511,1530,1550,1570,1591,1610,1630,1651,1670,1691,1710,1731,1750,1770,1791,1812],"xSR":741.5,"ySR":573.95,"xT1":424.9,"yT1":0,"xT2":1058.1,"yT2":0,"toosoon":0,"cond_shown":"Incongruent","ratio_trial":200,"L_num":4,"L_den":6,"R_num":14,"R_den":30,"correct_side":1,"subjID":"gabrielaramirezsoler19","gender":"1","school":"4","age":"9"},{"start_time":1552054317244,"click_time":1552054319438,"finger_time":1552054318897,"fix_duration":1244.5574434265066,"trial":35,"RT":1653,"MT":541,"sideResp":1,"stimulus":[],"xmouse":[782,783,783,784,784,784,784,784,784,784,784,784,784,784,784,784,784,784,784,784,784,784,784,784,784,784,784,784,784,784,784,784,784,784,784,784,784,784,784,784,784,784,784,784,784,784,784,784,784,784,784,784,784,784,784,784,784,784,784,784,784,784,784,784,784,784,784,784,784,783,783,782,782,780,780,780,780,780,780,780,780,778,768,747,734,721,702,685,648,632,613,588,575,558,555,553,553,549,537,528,519,511,500,494,493,492,487,479,462,459],"ymouse":[614,615,615,615,615,615,615,615,615,615,615,615,615,615,615,615,615,615,615,615,615,615,615,615,615,615,615,615,615,615,615,615,615,615,615,615,615,615,615,615,615,615,615,615,615,615,615,615,615,615,615,615,615,615,615,615,615,615,615,615,615,615,615,615,615,615,615,615,615,615,615,615,612,609,609,609,609,609,609,607,602,588,561,517,491,462,421,385,326,303,279,248,231,208,202,197,192,186,174,165,158,151,141,132,130,128,124,115,100,95],"timestamp_mouse":[13,40,53,74,93,113,134,154,174,193,213,234,255,274,294,313,334,355,374,394,414,434,454,473,493,514,534,554,575,593,614,633,654,673,694,713,733,753,774,793,813,834,853,873,893,913,934,953,973,995,1015,1034,1053,1075,1093,1113,1134,1153,1173,1193,1213,1233,1255,1274,1294,1313,1335,1353,1373,1393,1413,1434,1454,1474,1494,1515,1535,1555,1573,1594,1614,1635,1653,1673,1693,1713,1733,1753,1773,1794,1814,1834,1855,1873,1893,1913,1933,1954,1973,1994,2013,2033,2053,2073,2093,2113,2133,2154,2173,2194],"xSR":741.5,"ySR":573.95,"xT1":424.9,"yT1":0,"xT2":1058.1,"yT2":0,"toosoon":0,"cond_shown":"Congruent","ratio_trial":200,"L_num":3,"L_den":6,"R_num":14,"R_den":20,"correct_side":2,"subjID":"gabrielaramirezsoler19","gender":"1","school":"4","age":"9"},{"start_time":1552054322301,"click_time":1552054325278,"finger_time":1552054323897,"fix_duration":1282.2120839500617,"trial":36,"RT":1596,"MT":1381,"sideResp":1,"stimulus":[],"xmouse":[789,789,789,789,789,789,789,789,789,789,789,789,789,789,789,789,789,789,789,789,789,789,789,789,789,789,789,789,789,789,789,789,789,789,789,789,789,789,789,789,789,789,789,789,789,789,789,789,789,789,789,789,789,789,789,789,789,789,789,789,789,789,789,789,789,789,789,789,789,789,789,789,789,789,787,786,781,779,776,773,770,759,748,733,716,675,648,633,625,625,624,624,620,616,612,607,605,603,600,598,590,583,574,566,552,523,505,496,492,492,492,492,492,492,492,492,492,492,492,492,492,492,492,492,492,492,492,492,492,492,492,497,499,505,513,536,543,548,551,551,551,550,548,548,544,535,529,525,521],"ymouse":[596,596,596,596,596,596,596,596,596,596,596,596,596,596,596,596,596,596,596,596,596,596,596,596,596,596,596,596,596,596,596,596,596,596,596,596,596,596,596,596,596,596,596,596,596,596,596,596,596,596,596,596,596,596,596,596,596,596,596,596,596,596,596,596,596,596,596,596,596,596,596,596,596,596,596,595,586,579,574,570,567,555,540,518,495,449,418,404,396,394,393,377,360,346,332,316,306,301,296,289,278,268,259,252,243,222,206,199,191,190,190,190,190,190,190,190,190,190,190,190,190,190,190,190,190,190,190,190,187,185,181,165,155,142,123,75,55,36,18,4,0,0,0,0,0,0,3,8,12],"timestamp_mouse":[17,37,57,77,96,116,136,157,177,196,216,238,256,276,297,316,336,356,377,396,416,438,456,477,497,516,536,558,576,596,616,636,658,676,696,717,737,757,776,797,817,836,857,877,898,916,936,958,976,997,1017,1038,1056,1076,1097,1116,1138,1157,1177,1196,1216,1238,1257,1277,1298,1316,1336,1358,1378,1397,1416,1437,1457,1477,1497,1516,1536,1556,1576,1596,1616,1636,1656,1676,1697,1717,1737,1757,1777,1796,1816,1836,1856,1877,1896,1916,1936,1957,1978,1997,2016,2036,2056,2076,2098,2117,2136,2157,2177,2197,2216,2237,2257,2277,2297,2317,2338,2357,2377,2396,2417,2436,2456,2476,2497,2517,2538,2556,2576,2596,2617,2636,2656,2677,2697,2717,2736,2756,2776,2797,2816,2836,2857,2877,2898,2918,2937,2956,2977],"xSR":741.5,"ySR":573.95,"xT1":424.9,"yT1":0,"xT2"