[{"start_time":1552055027904,"click_time":1552055045112,"finger_time":1552055027916,"fix_duration":1166.6316657019347,"trial":0,"RT":12,"MT":17196,"sideResp":2,"stimulus":"img/500/equaldotanddens/L/10_Ratio_500_L_4_R_2.png","xmouse":[784,786,787,794,799,802,804,804,804,804,804,804,804,804,804,804,804,804,804,804,804,804,804,804,804,804,804,804,804,800,797,794,792,788,788,788,788,788,788,788,788,787,786,784,783,781,780,780,780,780,780,780,781,785,787,788,791,793,795,795,795,795,795,795,795,795,795,795,795,795,795,795,795,795,795,795,795,795,795,795,795,795,795,794,789,784,784,784,784,784,784,783,783,783,783,783,783,783,783,783,783,783,783,783,783,783,783,783,783,783,783,783,783,783,783,783,783,783,783,783,783,783,783,783,783,783,783,783,783,784,786,786,787,787,787,787,788,788,788,789,791,792,792,793,793,793,793,793,793,793,793,793,793,793,793,793,793,793,793,793,793,793,793,793,793,793,793,793,793,793,793,793,793,793,793,793,793,793,793,793,793,793,793,793,793,793,793,793,793,793,793,793,793,793,793,793,793,793,793,793,793,793,793,793,793,793,793,793,793,793,793,793,793,793,793,793,793,797,806,811,812,813,813,814,815,815,815,815,815,815,815,816,817,818,828,835,846,858,901,921,941,964,980,991,999,1000,1000,1000,1000,1000,999,997,989,978,959,947,933,920,907,906,904,901,898,896,887,881,872,870,860,833,818,808,798,780,774,771,768,760,756,756,756,756,756,756,762,772,785,788,796,801,802,802,802,802,802,802,802,802,802,802,803,803,803,803,803,801,801,801,801,801,801,801,801,796,788,784,779,775,771,768,768,768,768,768,768,768,768,768,768,768,768,768,768,768,768,768,768,769,770,773,774,774,774,775,775,776,777,778,779,781,782,784,787,789,793,793,793,793,793,793,793,793,793,793,793,793,793,793,793,793,793,793,793,793,793,793,793,793,793,793,793,793,793,793,793,793,793,793,793,793,793,793,793,793,793,793,793,793,793,793,793,793,793,793,793,793,793,793,793,793,794,794,794,794,794,794,794,794,794,794,794,794,794,794,794,794,794,794,794,794,794,794,794,794,794,794,794,794,794,794,794,794,794,794,794,794,794,794,794,794,794,794,794,817,880,940,1055,1140,1223,1335,1354,1364,1366,1366,1366,1366,1366,1366,1366,1366,1366,1366,1365,1365,1345,1324,1312,1298,1279,1229,1208,1188,1165,1136,1087,1051,1026,1006,990,970,964,961,959,959,948,943,928,910,893,879,875,870,867,865,864,860,853,848,844,828,815,807,801,798,798,798,798,798,798,798,798,798,798,798,798,798,798,797,797,797,797,797,797,797,797,797,797,797,797,797,797,797,797,797,797,797,797,797,797,797,797,797,797,797,797,797,797,797,797,797,797,797,797,797,797,797,797,797,797,797,797,797,797,797,797,797,797,797,797,797,797,797,797,797,797,797,797,797,797,797,797,797,797,797,797,797,797,797,797,797,797,797,797,797,797,797,797,797,797,797,797,797,797,797,797,797,797,797,797,797,797,797,797,797,797,797,797,797,797,797,797,797,797,797,797,797,797,797,797,797,797,797,797,797,797,797,797,797,797,797,797,797,797,797,797,797,797,797,797,797,797,797,797,797,797,797,797,797,797,797,797,796,796,795,794,793,792,792,792,792,791,791,791,791,791,791,791,791,791,791,791,791,791,791,791,791,791,791,791,791,791,791,791,791,791,791,791,791,791,791,791,791,791,791,791,791,791,791,791,791,791,791,791,791,791,791,791,791,791,791,791,791,791,791,791,791,791,791,791,791,791,791,791,791,791,791,791,791,791,791,791,791,791,791,791,791,791,791,791,791,791,791,791,791,791,791,791,791,791,791,791,790,799,799,799,799,799,799,799,799,799,799,799,799,799,799,799,799,799,799,799,799,799,799,799,799,799,799,799,799,799,799,799,799,799,799,799,799,799,799,799,799,799,799,799,799,799,799,799,799,799,882,882,878,874,875,875,875,875,875,1061,1132,1149,1149,1149,1149,1149,1149,1150,1153,1156,1156,1159,1196,1255,1346,1384,1411,1415,1368,1335,1311,1265,1243,1230,1222,1216,1203,1186,1166,1120],"ymouse":[544,544,544,546,546,546,547,547,547,547,547,547,547,547,547,547,547,547,547,547,547,547,547,547,547,547,547,547,549,551,553,556,557,561,561,561,562,562,565,567,568,569,572,577,579,583,588,595,599,606,610,615,622,632,634,635,636,637,637,637,637,637,637,637,637,637,637,637,637,637,637,637,637,637,637,637,637,637,637,637,637,637,637,637,637,637,637,637,637,637,637,638,638,638,638,638,638,638,638,638,638,638,638,638,638,638,638,638,638,638,638,638,638,638,638,638,638,638,638,638,638,638,638,638,638,638,638,638,637,634,632,632,631,631,630,630,630,630,629,628,628,627,627,627,627,627,627,627,627,627,627,627,627,627,627,627,627,627,627,627,627,627,627,627,627,627,627,627,627,627,627,627,627,627,627,627,627,627,627,627,627,627,627,627,627,627,627,627,627,627,627,627,627,627,627,627,627,627,627,627,627,627,627,627,627,627,627,627,627,627,627,627,627,627,627,627,627,626,624,623,622,622,621,621,620,620,620,620,620,620,620,619,619,619,619,619,619,619,618,617,616,614,613,613,611,611,611,611,611,611,611,611,611,611,611,611,610,608,606,606,606,606,606,606,606,606,606,606,606,604,602,600,599,596,596,595,594,593,593,593,593,593,593,593,593,595,597,598,600,600,601,601,601,601,601,601,601,601,601,601,601,602,602,604,607,610,611,613,613,613,613,613,613,613,613,613,613,613,613,613,613,613,613,613,613,613,613,613,613,613,613,613,613,613,613,613,613,613,613,613,613,613,613,613,613,613,613,613,613,613,613,614,614,614,615,615,615,615,615,615,615,615,615,615,615,615,615,615,615,615,615,615,615,615,615,615,615,615,615,615,615,615,615,615,615,615,615,615,615,615,615,615,615,615,615,615,615,615,615,615,615,615,615,615,615,615,615,615,615,615,616,616,616,616,616,616,616,616,616,616,616,616,616,616,616,616,616,616,616,616,616,616,616,616,616,616,616,616,616,616,616,616,616,616,616,616,616,616,616,616,616,616,616,616,616,625,641,657,674,699,703,705,706,706,706,706,706,706,706,706,706,706,706,706,706,706,706,703,700,693,691,687,684,680,673,667,664,661,659,656,655,655,655,655,652,652,651,650,649,648,648,648,646,646,646,646,645,644,644,643,641,641,640,639,639,639,639,639,639,639,639,639,639,639,639,635,628,623,623,623,623,623,623,623,623,623,623,623,623,623,623,623,623,623,623,623,623,623,623,623,623,623,623,623,623,623,623,623,623,623,623,623,623,623,623,623,623,623,623,623,623,623,623,623,623,623,623,623,623,623,623,623,623,623,623,623,623,623,623,623,623,623,623,623,623,623,623,623,623,623,623,623,623,623,623,623,623,623,623,623,623,623,623,623,623,623,623,623,623,623,623,623,623,623,623,623,623,623,623,623,623,623,623,623,623,623,623,623,623,623,623,623,623,623,623,623,623,623,623,623,623,623,623,623,623,623,623,623,623,623,623,623,623,623,623,623,623,623,623,623,623,622,622,622,622,622,622,622,622,622,622,622,622,622,622,622,622,622,622,622,622,622,622,622,622,622,622,622,622,622,622,622,622,622,622,622,622,622,622,622,622,622,622,622,622,622,622,622,622,622,622,622,622,622,622,622,622,622,622,622,622,622,622,622,622,622,622,622,622,622,622,622,622,622,622,622,622,622,622,622,622,622,622,622,622,622,622,622,622,622,622,622,622,622,622,622,622,622,622,622,622,674,779,779,779,779,779,779,779,779,779,779,779,779,779,779,779,779,779,779,779,779,779,779,779,779,779,779,779,779,779,779,779,779,779,779,779,779,779,779,779,779,779,779,779,779,779,779,779,779,779,878,877,877,877,882,882,882,882,882,850,817,812,812,812,812,812,812,812,812,813,813,810,741,619,389,257,126,25,0,0,0,0,0,0,0,0,0,0,0,7],"timestamp_mouse":[11,26,46,67,86,107,127,148,167,187,207,227,247,268,287,307,326,346,367,388,408,427,447,468,488,507,527,547,566,587,607,627,646,666,688,708,728,747,767,787,807,826,847,866,887,906,927,947,966,986,1007,1028,1047,1067,1087,1106,1128,1148,1168,1187,1207,1228,1247,1268,1287,1308,1327,1348,1368,1386,1407,1428,1447,1467,1488,1508,1527,1547,1567,1587,1608,1628,1648,1666,1686,1707,1727,1747,1767,1787,1806,1827,1848,1867,1887,1907,1928,1948,1967,1988,2007,2028,2046,2067,2088,2106,2128,2148,2166,2188,2206,2228,2247,2267,2287,2308,2328,2347,2367,2386,2406,2426,2446,2467,2487,2508,2527,2547,2567,2587,2608,2626,2647,2666,2688,2706,2726,2747,2767,2787,2806,2826,2846,2867,2887,2907,2927,2947,2967,2986,3006,3027,3047,3067,3086,3108,3128,3147,3166,3188,3207,3227,3247,3267,3287,3306,3328,3348,3366,3386,3408,3427,3447,3467,3488,3508,3528,3546,3567,3586,3608,3628,3646,3667,3686,3706,3727,3748,3767,3786,3808,3826,3846,3867,3886,3906,3928,3947,3966,3988,4007,4027,4046,4067,4087,4108,4126,4148,4167,4187,4208,4228,4248,4267,4288,4307,4326,4347,4367,4388,4406,4427,4446,4467,4487,4508,4528,4548,4567,4587,4607,4628,4646,4667,4686,4708,4727,4747,4767,4786,4806,4828,4847,4866,4886,4907,4926,4946,4967,4987,5006,5026,5046,5068,5087,5107,5127,5146,5166,5186,5206,5226,5247,5267,5287,5307,5326,5347,5367,5388,5407,5428,5447,5468,5486,5506,5526,5547,5567,5588,5606,5627,5646,5668,5686,5707,5726,5746,5767,5788,5807,5826,5847,5868,5886,5906,5927,5947,5967,5988,6006,6027,6048,6067,6086,6108,6128,6146,6167,6186,6208,6228,6246,6266,6286,6307,6327,6348,6367,6388,6407,6426,6448,6467,6488,6507,6527,6548,6568,6586,6608,6627,6646,6667,6686,6708,6727,6746,6766,6787,6808,6828,6846,6867,6886,6908,6927,6946,6966,6986,7006,7028,7046,7067,7086,7107,7127,7147,7166,7187,7208,7228,7248,7267,7287,7307,7328,7347,7367,7388,7407,7426,7446,7468,7488,7508,7526,7546,7567,7587,7606,7626,7647,7668,7687,7707,7727,7747,7767,7787,7807,7828,7848,7867,7887,7908,7928,7947,7966,7987,8006,8028,8048,8068,8088,8106,8127,8147,8168,8187,8206,8228,8247,8268,8287,8307,8326,8346,8368,8386,8408,8428,8447,8468,8488,8507,8527,8548,8568,8586,8607,8628,8647,8668,8687,8706,8727,8746,8767,8788,8807,8826,8846,8868,8887,8907,8926,8946,8967,8988,9008,9027,9046,9068,9086,9108,9126,9146,9166,9187,9207,9226,9246,9268,9287,9308,9328,9348,9367,9387,9407,9427,9447,9467,9487,9508,9527,9547,9567,9587,9606,9627,9647,9668,9686,9706,9727,9747,9767,9787,9806,9827,9847,9867,9887,9907,9927,9947,9967,9987,10006,10026,10046,10066,10086,10106,10126,10147,10167,10187,10207,10227,10247,10267,10287,10307,10328,10347,10368,10387,10406,10426,10447,10467,10486,10507,10526,10548,10567,10586,10608,10626,10648,10666,10687,10706,10728,10747,10766,10787,10806,10827,10848,10867,10887,10907,10928,10947,10968,10987,11007,11028,11046,11066,11087,11106,11126,11146,11168,11187,11206,11226,11246,11268,11287,11306,11327,11348,11366,11387,11407,11426,11447,11468,11487,11506,11527,11547,11568,11587,11606,11628,11648,11666,11687,11708,11726,11748,11766,11786,11808,11827,11846,11866,11887,11906,11927,11947,11967,11986,12006,12026,12046,12067,12087,12108,12127,12146,12166,12187,12206,12228,12247,12268,12287,12308,12327,12348,12366,12386,12408,12427,12447,12466,12488,12508,12528,12547,12567,12587,12606,12626,12648,12667,12687,12707,12727,12748,12768,12787,12808,12827,12848,12868,12887,12906,12927,12948,12967,12987,13006,13027,13048,13067,13086,13108,13128,13148,13166,13188,13207,13226,13246,13267,13287,13308,13327,13347,13367,13387,13407,13427,13447,13467,13488,13507,13527,13547,13566,13588,13608,13628,13648,13667,13687,13708,13727,13748,13767,13786,13806,13827,13846,13867,13888,13908,13926,13946,13968,13988,14008,14026,14047,14067,14087,14106,14127,14146,14168,14188,14206,14226,14246,14267,14288,14307,14327,14347,14367,14387,14408,14427,14446,14468,14487,14506,14528,14547,14568,14588,14606,14627,14647,14667,14688,14708,14726,14747,14768,14788,14806,14827,14847,14868,14888,14906,14926,14946,14967,14988,15008,15027,15048,15067,15087,15106,15127,15147,15167,15188,15206,15228,15247,15268,15288,15307,15326,15346,15368,15387,15406,15427,15446,15468,15487,15508,15527,15548,15567,15588,15608,15627,15647,15667,15687,15707,15726,15747,15766,15788,15807,15827,15847,15867,15887,15906,15927,15946,15966,15988,16007,16027,16047,16068,16087,16107,16128,16147,16166,16187,16207,16227,16247,16267,16287,16307,16327,16348,16368,16387,16406,16428,16447,16466,16486,16506,16526,16547,16567,16587,16606,16627,16648,16667,16687,16707,16726,16747,16766,16788,16808,16828,16847,16867,16887,16907,16926,16947,16967,16994,17010,17027,17048,17068,17086,17107,17128,17148,17166,17187,17207],"xSR":741.5,"ySR":501.8,"xT1":424.9,"yT1":0,"xT2":1058.1,"yT2":0,"toosoon":0,"cond_shown":"equaldotanddens","ratio_trial":500,"smaller_num":"2","larger_num":"4","correct_side":1,"subjID":"gabrielaramirezsoler19","gender":"1","age":"9","school":"4","test":{"fix_dur":[250,1500],"timestim":300,"targets_dim":[100,100],"targets_relative_coord":[0.3,0.7],"size_stim":[880,420],"start_dim":[100,100],"size_start":[300,300],"size_fix":60,"samplingrate":20,"img_types":["equaldotsize","equaldotanddens","randomdotsizeEA"],"ratios":[250,500,750,900],"rep_conds":9,"nTrials":120,"trials_to_rest":500,"Trials_order":[4,6,99,83,19,42,29,47,74,44,93,78,7,26,104,61,22,85,36,91,53,109,96,13,71,98,112,43,63,111,103,67,84,10,89,17,32,21,72,88,20,0,11,35,16,25,116,27,49,82,60,38,65,23,105,62,55,79,87,92,59,3,57,12,107,54,50,58,97,108,110,1,28,41,114,101,75,24,73,94,106,77,40,52,117,51,2,80,39,119,37,33,18,70,69,46,8,118,66,34,9,81,76,15,115,86,45,102,48,113,14,30,100,64,31,90,56,68,95,5],"cond_shown":["equaldotanddens","equaldotsize","equaldotsize","randomdotsizeEA","equaldotanddens","equaldotsize","randomdotsizeEA","randomdotsizeEA","randomdotsizeEA","randomdotsizeEA","equaldotsize","equaldotsize","equaldotanddens","randomdotsizeEA","randomdotsizeEA","equaldotanddens","equaldotanddens","equaldotanddens","equaldotsize","equaldotanddens","randomdotsizeEA","equaldotanddens","equaldotsize","equaldotanddens","randomdotsizeEA","randomdotsizeEA","equaldotanddens","equaldotanddens","equaldotsize","equaldotsize","equaldotanddens","equaldotanddens","equaldotsize","equaldotanddens","randomdotsizeEA","randomdotsizeEA","randomdotsizeEA","equaldotsize","equaldotsize","equaldotanddens","randomdotsizeEA","equaldotsize","randomdotsizeEA","randomdotsizeEA","equaldotanddens","equaldotanddens","randomdotsizeEA","equaldotsize","equaldotanddens","equaldotanddens","equaldotsize","randomdotsizeEA","randomdotsizeEA","randomdotsizeEA","equaldotsize","randomdotsizeEA","equaldotanddens","equaldotanddens","equaldotsize","randomdotsizeEA","randomdotsizeEA","equaldotsize","equaldotsize","equaldotsize","randomdotsizeEA","equaldotsize","randomdotsizeEA","equaldotanddens","equaldotanddens","equaldotsize","randomdotsizeEA","equaldotanddens","equaldotanddens","randomdotsizeEA","equaldotsize","randomdotsizeEA","equaldotsize","equaldotsize","equaldotanddens","equaldotanddens","equaldotanddens","randomdotsizeEA","equaldotanddens","equaldotanddens","equaldotsize","equaldotsize","randomdotsizeEA","randomdotsizeEA","equaldotsize","randomdotsizeEA","equaldotanddens","equaldotsize","equaldotsize","equaldotanddens","equaldotsize","equaldotanddens","randomdotsizeEA","equaldotanddens","equaldotsize","equaldotanddens","equaldotsize","equaldotsize","equaldotanddens","equaldotsize","equaldotanddens","randomdotsizeEA","equaldotsize","equaldotsize","equaldotsize","randomdotsizeEA","randomdotsizeEA","equaldotsize","equaldotanddens","equaldotanddens","equaldotanddens","equaldotsize","randomdotsizeEA","randomdotsizeEA","randomdotsizeEA","randomdotsizeEA"],"ratio_trial":[500,750,500,900,750,750,500,900,250,750,900,750,750,250,750,250,900,250,250,750,500,250,250,250,900,250,500,750,500,500,750,750,250,900,500,500,750,900,250,500,750,250,900,900,500,250,750,500,250,900,250,250,500,900,900,250,750,750,500,750,900,500,900,250,900,750,250,900,250,250,250,250,500,500,750,500,500,250,250,900,900,500,500,500,900,500,250,750,500,900,250,900,750,900,900,900,750,900,750,900,900,900,500,500,750,250,900,750,250,500,250,750,500,500,750,750,750,750,900,500],"smaller_num":["2","9","9","18","3","15","5","18","2","3","18","15","3","2","15","2","18","4","3","15","5","3","4","6","9","3","3","15","4","9","3","3","1","18","1","6","3","18","2","9","3","3","18","18","5","6","15","2","3","9","3","3","1","18","18","3","15","18","9","15","18","6","18","4","18","15","5","18","5","6","2","2","3","1","3","5","5","3","2","18","9","2","2","2","18","9","2","15","1","9","5","18","6","18","18","18","15","9","3","9","9","18","2","1","6","1","18","6","4","9","6","6","6","4","12","15","3","3","18","1"],"larger_num":["4","12","18","20","4","20","10","20","8","4","20","20","4","8","20","8","20","16","12","20","10","12","16","24","10","12","6","20","8","18","4","4","4","20","2","12","4","20","8","18","4","12","20","20","10","24","20","4","12","10","12","12","2","20","20","12","20","24","18","20","20","12","20","16","20","20","20","20","20","24","8","8","6","2","4","10","10","12","8","20","10","4","4","4","20","18","8","20","2","10","20","20","8","20","20","20","20","10","4","10","10","20","4","2","8","4","20","8","16","18","24","8","12","8","16","20","4","4","20","2"],"correct_side":[1,2,2,1,2,2,2,2,1,2,2,2,1,1,2,2,1,1,2,2,1,1,1,2,2,2,2,1,1,2,2,2,2,2,2,1,1,1,1,1,2,2,1,2,2,1,2,1,2,2,1,2,2,1,2,1,2,1,1,2,1,1,2,1,1,2,2,2,2,1,1,1,2,2,1,2,2,1,1,1,1,1,2,1,2,2,1,2,2,1,2,1,2,1,1,1,1,2,1,2,1,2,2,2,1,2,2,2,1,1,2,1,1,1,2,1,1,1,1,2],"img_shown":["img/500/equaldotanddens/L/10_Ratio_500_L_4_R_2.png","img/750/equaldotsize/R/15_Ratio_750_L_9_R_12.png","img/500/equaldotsize/R/1_Ratio_500_L_9_R_18.png","img/900/randomdotsizeEA/L/8_Ratio_900_L_20_R_18.png","img/750/equaldotanddens/R/12_Ratio_750_L_3_R_4.png","img/750/equaldotsize/R/3_Ratio_750_L_15_R_20.png","img/500/randomdotsizeEA/R/14_Ratio_500_L_5_R_10.png","img/900/randomdotsizeEA/R/11_Ratio_900_L_18_R_20.png","img/250/randomdotsizeEA/L/1_Ratio_250_L_8_R_2.png","img/750/randomdotsizeEA/R/7_Ratio_750_L_3_R_4.png","img/900/equaldotsize/R/11_Ratio_900_L_18_R_20.png","img/750/equaldotsize/R/4_Ratio_750_L_15_R_20.png","img/750/equaldotanddens/L/8_Ratio_750_L_4_R_3.png","img/250/randomdotsizeEA/L/3_Ratio_250_L_8_R_2.png","img/750/randomdotsizeEA/R/3_Ratio_750_L_15_R_20.png","img/250/equaldotanddens/R/13_Ratio_250_L_2_R_8.png","img/900/equaldotanddens/L/2_Ratio_900_L_20_R_18.png","img/250/equaldotanddens/L/2_Ratio_250_L_16_R_4.png","img/250/equaldotsize/R/9_Ratio_250_L_3_R_12.png","img/750/equaldotanddens/R/3_Ratio_750_L_15_R_20.png","img/500/randomdotsizeEA/L/7_Ratio_500_L_10_R_5.png","img/250/equaldotanddens/L/15_Ratio_250_L_12_R_3.png","img/250/equaldotsize/L/2_Ratio_250_L_16_R_4.png","img/250/equaldotanddens/R/6_Ratio_250_L_6_R_24.png","img/900/randomdotsizeEA/R/5_Ratio_900_L_9_R_10.png","img/250/randomdotsizeEA/R/9_Ratio_250_L_3_R_12.png","img/500/equaldotanddens/R/2_Ratio_500_L_3_R_6.png","img/750/equaldotanddens/L/1_Ratio_750_L_20_R_15.png","img/500/equaldotsize/L/8_Ratio_500_L_8_R_4.png","img/500/equaldotsize/R/1_Ratio_500_L_9_R_18.png","img/750/equaldotanddens/R/7_Ratio_750_L_3_R_4.png","img/750/equaldotanddens/R/7_Ratio_750_L_3_R_4.png","img/250/equaldotsize/R/8_Ratio_250_L_1_R_4.png","img/900/equaldotanddens/R/13_Ratio_900_L_18_R_20.png","img/500/randomdotsizeEA/R/12_Ratio_500_L_1_R_2.png","img/500/randomdotsizeEA/L/13_Ratio_500_L_12_R_6.png","img/750/randomdotsizeEA/L/10_Ratio_750_L_4_R_3.png","img/900/equaldotsize/L/4_Ratio_900_L_20_R_18.png","img/250/equaldotsize/L/3_Ratio_250_L_8_R_2.png","img/500/equaldotanddens/L/4_Ratio_500_L_18_R_9.png","img/750/randomdotsizeEA/R/12_Ratio_750_L_3_R_4.png","img/250/equaldotsize/R/9_Ratio_250_L_3_R_12.png","img/900/randomdotsizeEA/L/2_Ratio_900_L_20_R_18.png","img/900/randomdotsizeEA/R/13_Ratio_900_L_18_R_20.png","img/500/equaldotanddens/R/14_Ratio_500_L_5_R_10.png","img/250/equaldotanddens/L/5_Ratio_250_L_24_R_6.png","img/750/randomdotsizeEA/R/3_Ratio_750_L_15_R_20.png","img/500/equaldotsize/L/10_Ratio_500_L_4_R_2.png","img/250/equaldotanddens/R/4_Ratio_250_L_3_R_12.png","img/900/equaldotanddens/R/15_Ratio_900_L_9_R_10.png","img/250/equaldotsize/L/14_Ratio_250_L_12_R_3.png","img/250/randomdotsizeEA/R/11_Ratio_250_L_3_R_12.png","img/500/randomdotsizeEA/R/15_Ratio_500_L_1_R_2.png","img/900/randomdotsizeEA/L/4_Ratio_900_L_20_R_18.png","img/900/equaldotsize/R/9_Ratio_900_L_18_R_20.png","img/250/randomdotsizeEA/L/15_Ratio_250_L_12_R_3.png","img/750/equaldotanddens/R/5_Ratio_750_L_15_R_20.png","img/750/equaldotanddens/L/6_Ratio_750_L_24_R_18.png","img/500/equaldotsize/L/4_Ratio_500_L_18_R_9.png","img/750/randomdotsizeEA/R/3_Ratio_750_L_15_R_20.png","img/900/randomdotsizeEA/L/10_Ratio_900_L_20_R_18.png","img/500/equaldotsize/L/11_Ratio_500_L_12_R_6.png","img/900/equaldotsize/R/14_Ratio_900_L_18_R_20.png","img/250/equaldotsize/L/2_Ratio_250_L_16_R_4.png","img/900/randomdotsizeEA/L/4_Ratio_900_L_20_R_18.png","img/750/equaldotsize/R/3_Ratio_750_L_15_R_20.png","img/250/randomdotsizeEA/R/12_Ratio_250_L_5_R_20.png","img/900/equaldotanddens/R/11_Ratio_900_L_18_R_20.png","img/250/equaldotanddens/R/12_Ratio_250_L_5_R_20.png","img/250/equaldotsize/L/5_Ratio_250_L_24_R_6.png","img/250/randomdotsizeEA/L/1_Ratio_250_L_8_R_2.png","img/250/equaldotanddens/L/1_Ratio_250_L_8_R_2.png","img/500/equaldotanddens/R/2_Ratio_500_L_3_R_6.png","img/500/randomdotsizeEA/R/15_Ratio_500_L_1_R_2.png","img/750/equaldotsize/L/8_Ratio_750_L_4_R_3.png","img/500/randomdotsizeEA/R/14_Ratio_500_L_5_R_10.png","img/500/equaldotsize/R/14_Ratio_500_L_5_R_10.png","img/250/equaldotsize/L/14_Ratio_250_L_12_R_3.png","img/250/equaldotanddens/L/7_Ratio_250_L_8_R_2.png","img/900/equaldotanddens/L/2_Ratio_900_L_20_R_18.png","img/900/equaldotanddens/L/1_Ratio_900_L_10_R_9.png","img/500/randomdotsizeEA/L/5_Ratio_500_L_4_R_2.png","img/500/equaldotanddens/R/9_Ratio_500_L_2_R_4.png","img/500/equaldotanddens/L/5_Ratio_500_L_4_R_2.png","img/900/equaldotsize/R/9_Ratio_900_L_18_R_20.png","img/500/equaldotsize/R/1_Ratio_500_L_9_R_18.png","img/250/randomdotsizeEA/L/1_Ratio_250_L_8_R_2.png","img/750/randomdotsizeEA/R/5_Ratio_750_L_15_R_20.png","img/500/equaldotsize/R/15_Ratio_500_L_1_R_2.png","img/900/randomdotsizeEA/L/1_Ratio_900_L_10_R_9.png","img/250/equaldotanddens/R/12_Ratio_250_L_5_R_20.png","img/900/equaldotsize/L/2_Ratio_900_L_20_R_18.png","img/750/equaldotsize/R/2_Ratio_750_L_6_R_8.png","img/900/equaldotanddens/L/10_Ratio_900_L_20_R_18.png","img/900/equaldotsize/L/4_Ratio_900_L_20_R_18.png","img/900/equaldotanddens/L/8_Ratio_900_L_20_R_18.png","img/750/randomdotsizeEA/L/1_Ratio_750_L_20_R_15.png","img/900/equaldotanddens/R/3_Ratio_900_L_9_R_10.png","img/750/equaldotsize/L/9_Ratio_750_L_4_R_3.png","img/900/equaldotanddens/R/5_Ratio_900_L_9_R_10.png","img/900/equaldotsize/L/1_Ratio_900_L_10_R_9.png","img/900/equaldotsize/R/11_Ratio_900_L_18_R_20.png","img/500/equaldotanddens/R/9_Ratio_500_L_2_R_4.png","img/500/equaldotsize/R/15_Ratio_500_L_1_R_2.png","img/750/equaldotanddens/L/14_Ratio_750_L_8_R_6.png","img/250/randomdotsizeEA/R/8_Ratio_250_L_1_R_4.png","img/900/equaldotsize/R/13_Ratio_900_L_18_R_20.png","img/750/equaldotsize/R/2_Ratio_750_L_6_R_8.png","img/250/equaldotsize/L/2_Ratio_250_L_16_R_4.png","img/500/randomdotsizeEA/L/4_Ratio_500_L_18_R_9.png","img/250/randomdotsizeEA/R/6_Ratio_250_L_6_R_24.png","img/750/equaldotsize/L/14_Ratio_750_L_8_R_6.png","img/500/equaldotanddens/L/11_Ratio_500_L_12_R_6.png","img/500/equaldotanddens/L/8_Ratio_500_L_8_R_4.png","img/750/equaldotanddens/R/11_Ratio_750_L_12_R_16.png","img/750/equaldotsize/L/1_Ratio_750_L_20_R_15.png","img/750/randomdotsizeEA/L/8_Ratio_750_L_4_R_3.png","img/750/randomdotsizeEA/L/10_Ratio_750_L_4_R_3.png","img/900/randomdotsizeEA/L/4_Ratio_900_L_20_R_18.png","img/500/randomdotsizeEA/R/15_Ratio_500_L_1_R_2.png"],"Rat0":[["12_Ratio_0_L_9_R_0.png","13_Ratio_0_L_6_R_0.png","5_Ratio_0_L_2_R_0.png","6_Ratio_0_L_4_R_0.png","8_Ratio_0_L_6_R_0.png"],["1_Ratio_0_L_0_R_17.png","10_Ratio_0_L_0_R_22.png","11_Ratio_0_L_0_R_1.png","14_Ratio_0_L_0_R_24.png","15_Ratio_0_L_0_R_4.png","2_Ratio_0_L_0_R_5.png","3_Ratio_0_L_0_R_17.png","4_Ratio_0_L_0_R_7.png","7_Ratio_0_L_0_R_19.png","9_Ratio_0_L_0_R_15.png"]],"Rat250":[["1_Ratio_250_L_8_R_2.png","14_Ratio_250_L_12_R_3.png","15_Ratio_250_L_12_R_3.png","2_Ratio_250_L_16_R_4.png","3_Ratio_250_L_8_R_2.png","5_Ratio_250_L_24_R_6.png","7_Ratio_250_L_8_R_2.png"],["10_Ratio_250_L_4_R_16.png","11_Ratio_250_L_3_R_12.png","12_Ratio_250_L_5_R_20.png","13_Ratio_250_L_2_R_8.png","4_Ratio_250_L_3_R_12.png","6_Ratio_250_L_6_R_24.png","8_Ratio_250_L_1_R_4.png","9_Ratio_250_L_3_R_12.png"]],"Rat500":[["10_Ratio_500_L_4_R_2.png","11_Ratio_500_L_12_R_6.png","13_Ratio_500_L_12_R_6.png","4_Ratio_500_L_18_R_9.png","5_Ratio_500_L_4_R_2.png","7_Ratio_500_L_10_R_5.png","8_Ratio_500_L_8_R_4.png"],["1_Ratio_500_L_9_R_18.png","12_Ratio_500_L_1_R_2.png","14_Ratio_500_L_5_R_10.png","15_Ratio_500_L_1_R_2.png","2_Ratio_500_L_3_R_6.png","3_Ratio_500_L_10_R_20.png","6_Ratio_500_L_9_R_18.png","9_Ratio_500_L_2_R_4.png"]],"Rat750":[["1_Ratio_750_L_20_R_15.png","10_Ratio_750_L_4_R_3.png","13_Ratio_750_L_8_R_6.png","14_Ratio_750_L_8_R_6.png","6_Ratio_750_L_24_R_18.png","8_Ratio_750_L_4_R_3.png","9_Ratio_750_L_4_R_3.png"],["11_Ratio_750_L_12_R_16.png","12_Ratio_750_L_3_R_4.png","15_Ratio_750_L_9_R_12.png","2_Ratio_750_L_6_R_8.png","3_Ratio_750_L_15_R_20.png","4_Ratio_750_L_15_R_20.png","5_Ratio_750_L_15_R_20.png","7_Ratio_750_L_3_R_4.png"]],"Rat900":[["1_Ratio_900_L_10_R_9.png","10_Ratio_900_L_20_R_18.png","2_Ratio_900_L_20_R_18.png","4_Ratio_900_L_20_R_18.png","8_Ratio_900_L_20_R_18.png"],["11_Ratio_900_L_18_R_20.png","12_Ratio_900_L_18_R_20.png","13_Ratio_900_L_18_R_20.png","14_Ratio_900_L_18_R_20.png","15_Ratio_900_L_9_R_10.png","3_Ratio_900_L_9_R_10.png","5_Ratio_900_L_9_R_10.png","6_Ratio_900_L_9_R_10.png","7_Ratio_900_L_9_R_10.png","9_Ratio_900_L_18_R_20.png"]],"Rat1000":[["10_Ratio_1000_L_16_R_16.png","11_Ratio_1000_L_6_R_6.png","12_Ratio_1000_L_14_R_14.png","13_Ratio_1000_L_20_R_20.png","15_Ratio_1000_L_15_R_15.png","2_Ratio_1000_L_17_R_17.png","4_Ratio_1000_L_9_R_9.png","5_Ratio_1000_L_6_R_6.png","6_Ratio_1000_L_19_R_19.png","8_Ratio_1000_L_14_R_14.png","9_Ratio_1000_L_25_R_25.png"],["1_Ratio_1000_L_1_R_1.png","14_Ratio_1000_L_17_R_17.png","3_Ratio_1000_L_17_R_17.png","7_Ratio_1000_L_6_R_6.png"]]}},{"start_time":1552055047468,"click_time":1552055049590,"finger_time":1552055048830,"fix_duration":414.1931365703401,"trial":1,"RT":1362,"MT":760,"sideResp":1,"stimulus":"img/750/equaldotsize/R/15_Ratio_750_L_9_R_12.png","xmouse":[811,811,811,811,812,812,813,814,814,814,814,814,814,814,814,814,814,814,814,814,814,814,814,814,814,814,814,814,814,814,814,814,814,814,814,814,814,814,814,814,814,814,814,814,814,814,814,814,814,814,814,814,814,814,814,814,814,814,814,814,814,816,818,822,822,825,826,833,836,838,838,838,838,834,833,829,823,814,811,808,806,804,804,804,804,804,802,761,706,655,610,564,491,475,466,465,465,465,465,465,464,463,462,462,462,462,461],"ymouse":[640,640,640,640,640,640,640,640,640,640,640,640,640,640,640,640,640,640,640,640,640,640,640,640,640,640,640,640,640,640,640,640,640,640,640,640,640,640,640,640,640,640,640,640,640,640,640,640,640,640,640,640,640,640,640,640,640,640,640,640,640,637,631,600,598,595,593,581,569,556,537,517,481,447,413,349,292,226,202,186,180,178,177,177,177,177,175,144,103,60,21,0,0,0,0,0,0,0,0,0,0,0,0,0,0,0,1],"timestamp_mouse":[13,23,47,62,83,102,122,143,162,182,204,224,243,264,283,302,324,343,363,383,403,422,442,464,483,503,522,543,563,583,604,623,643,664,683,703,723,743,764,783,802,824,842,864,883,902,924,943,964,982,1004,1023,1043,1063,1082,1104,1123,1143,1162,1182,1202,1224,1243,1263,1283,1304,1323,1343,1362,1384,1403,1423,1443,1462,1482,1502,1523,1543,1562,1583,1603,1622,1643,1662,1684,1703,1722,1743,1762,1784,1804,1824,1843,1862,1882,1902,1923,1943,1964,1983,2004,2023,2043,2064,2083,2102,2122],"xSR":741.5,"ySR":573.95,"xT1":424.9,"yT1":0,"xT2":1058.1,"yT2":0,"toosoon":0,"cond_shown":"equaldotsize","ratio_trial":750,"smaller_num":"9","larger_num":"12","correct_side":2,"subjID":"gabrielaramirezsoler19","gender":"1","age":"9","school":"4"},{"start_time":1552055052000,"click_time":1552055053511,"finger_time":1552055052731,"fix_duration":1208.3445151172382,"trial":2,"RT":731,"MT":780,"sideResp":2,"stimulus":"img/500/equaldotsize/R/1_Ratio_500_L_9_R_18.png","xmouse":[783,783,783,783,783,783,783,783,783,783,783,783,783,783,783,783,783,783,783,783,783,783,783,783,783,783,783,783,783,783,783,783,783,783,784,789,811,824,843,865,893,953,966,978,987,990,995,996,997,999,1002,1009,1014,1020,1024,1027,1034,1038,1041,1042,1043,1044,1048,1052,1054,1056,1057,1060,1066,1071,1077,1082,1084,1086,1088,1092],"ymouse":[618,618,618,618,618,618,618,618,618,618,618,618,618,618,618,618,618,618,618,618,618,618,618,618,618,618,618,618,618,618,618,618,618,617,611,598,561,537,505,470,429,339,312,280,262,253,241,241,239,233,227,211,203,192,185,179,172,168,164,163,162,160,154,145,141,139,137,134,128,123,117,111,109,106,103,96],"timestamp_mouse":[14,40,52,71,91,110,131,151,172,190,211,231,251,270,290,311,331,351,371,391,410,432,451,471,491,510,532,550,572,592,610,630,651,670,691,711,731,750,770,791,811,830,851,871,891,911,931,951,970,990,1010,1030,1052,1071,1090,1110,1131,1151,1172,1192,1210,1230,1252,1271,1290,1310,1331,1350,1371,1390,1411,1430,1452,1471,1491,1511],"xSR":741.5,"ySR":573.95,"xT1":424.9,"yT1":0,"xT2":1058.1,"yT2":0,"toosoon":0,"cond_shown":"equaldotsize","ratio_trial":500,"smaller_num":"9","larger_num":"18","correct_side":2,"subjID":"gabrielaramirezsoler19","gender":"1","age":"9","school":"4"},{"start_time":1552055058302,"click_time":1552055060251,"finger_time":1552055059611,"fix_duration":1490.7554281199752,"trial":3,"RT":1309,"MT":640,"sideResp":2,"stimulus":"img/900/randomdotsizeEA/L/8_Ratio_900_L_20_R_18.png","xmouse":[781,781,781,782,783,783,784,784,784,784,784,784,784,784,784,784,784,784,784,784,784,784,784,784,784,784,784,784,784,784,784,784,784,784,784,784,784,784,784,784,784,784,784,784,784,784,784,784,784,784,784,784,784,784,784,784,784,784,784,784,784,784,784,792,807,818,859,950,1009,1071,1132,1244,1296,1334,1388,1416,1437,1450,1450,1450,1450,1438,1397,1379,1357,1345,1340,1337,1334,1328,1319,1307,1278,1262,1238,1215,1190,1136],"ymouse":[607,608,608,609,609,610,611,611,611,611,611,611,611,611,611,611,611,611,611,611,611,611,611,611,611,611,611,611,611,611,611,611,611,611,611,611,611,611,611,611,611,611,611,611,611,611,611,611,611,611,611,611,611,611,611,611,611,611,611,611,611,611,611,600,577,560,509,412,347,282,210,49,0,0,0,0,0,0,0,0,1,26,84,108,130,137,139,140,140,139,134,127,105,92,72,57,45,20],"timestamp_mouse":[14,41,48,68,90,109,129,149,169,190,210,229,250,269,288,309,328,348,369,390,409,430,450,470,489,508,530,550,568,589,609,630,650,669,689,710,729,750,769,788,810,829,849,870,889,908,930,950,969,989,1008,1028,1050,1069,1089,1110,1129,1148,1169,1189,1210,1228,1248,1269,1288,1309,1329,1349,1369,1388,1408,1430,1450,1469,1489,1510,1530,1548,1569,1590,1610,1629,1649,1669,1690,1708,1729,1749,1768,1789,1810,1829,1849,1870,1888,1910,1929,1949],"xSR":741.5,"ySR":573.95,"xT1":424.9,"yT1":0,"xT2":1058.1,"yT2":0,"toosoon":0,"cond_shown":"randomdotsizeEA","ratio_trial":900,"smaller_num":"18","larger_num":"20","correct_side":1,"subjID":"gabrielaramirezsoler19","gender":"1","age":"9","school":"4"},{"start_time":1552055062523,"click_time":1552055063951,"finger_time":1552055063550,"fix_duration":930.8688275456419,"trial":4,"RT":1027,"MT":401,"sideResp":2,"stimulus":"img/750/equaldotanddens/R/12_Ratio_750_L_3_R_4.png","xmouse":[802,802,802,802,802,802,802,802,802,802,802,802,802,802,802,802,802,802,802,802,802,802,802,802,802,802,802,802,802,802,802,802,802,802,802,802,802,802,802,802,802,802,802,802,802,802,802,802,807,821,837,879,900,936,952,970,998,1006,1013,1022,1030,1052,1056,1071,1081,1088,1103,1110,1117,1127,1137,1148],"ymouse":[634,634,634,634,634,634,634,634,634,634,634,634,634,634,634,634,634,634,634,634,634,634,634,634,634,634,634,634,634,634,634,634,634,634,634,634,634,634,634,634,634,634,634,634,634,634,634,634,629,618,601,562,538,497,474,447,397,384,369,353,335,289,280,247,224,209,176,159,141,122,106,84],"timestamp_mouse":[12,40,48,68,88,109,127,148,168,188,209,228,247,268,288,309,327,347,368,387,408,428,448,469,489,508,528,548,567,588,608,627,649,667,689,709,727,747,769,788,807,829,848,869,889,908,927,947,968,988,1007,1027,1049,1068,1088,1108,1128,1148,1168,1188,1208,1228,1248,1268,1288,1308,1327,1347,1368,1388,1407,1428],"xSR":741.5,"ySR":573.95,"xT1":424.9,"yT1":0,"xT2":1058.1,"yT2":0,"toosoon":0,"cond_shown":"equaldotanddens","ratio_trial":750,"smaller_num":"3","larger_num":"4","correct_side":2,"subjID":"gabrielaramirezsoler19","gender":"1","age":"9","school":"4"},{"start_time":1552055065042,"click_time":1552055066652,"finger_time":1552055065931,"fix_duration":250,"trial":5,"RT":889,"MT":721,"sideResp":1,"stimulus":"img/750/equaldotsize/R/3_Ratio_750_L_15_R_20.png","xmouse":[803,803,803,803,803,803,803,803,803,803,803,803,803,803,803,803,803,803,803,803,803,803,803,803,803,803,803,803,803,803,803,803,803,803,803,803,803,803,802,802,804,806,809,812,819,829,831,834,840,849,875,890,904,922,959,973,1029,1063,1080,1085,1086,1087,1087,1087,1087,1087,1085,1061,1021,961,820,757,729,715,713,706,700,687,656,613,519],"ymouse":[614,614,614,614,614,614,614,614,614,614,614,614,614,614,614,614,614,614,614,614,614,614,614,614,614,614,614,614,614,614,614,614,614,614,614,614,614,614,613,610,600,595,589,582,569,553,550,546,537,526,492,472,454,432,390,373,298,251,220,202,192,189,189,189,189,189,189,189,189,189,196,206,208,208,208,208,203,188,165,137,90],"timestamp_mouse":[21,46,49,68,88,108,128,148,168,188,209,229,250,270,290,309,329,348,368,390,409,429,448,469,489,509,530,548,569,589,609,629,648,670,689,709,730,748,769,789,809,828,848,869,889,909,929,949,969,989,1009,1028,1050,1069,1089,1109,1129,1149,1169,1188,1209,1229,1248,1268,1288,1309,1328,1349,1368,1389,1409,1428,1450,1469,1489,1509,1529,1549,1568,1588,1609],"xSR":741.5,"ySR":573.95,"xT1":424.9,"yT1":0,"xT2":1058.1,"yT2":0,"toosoon":0,"cond_shown":"equaldotsize","ratio_trial":750,"smaller_num":"15","larger_num":"20","correct_side":2,"subjID":"gabrielaramirezsoler19","gender":"1","age":"9","school":"4"},{"start_time":1552055068625,"click_time":1552055071752,"finger_time":1552055070531,"fix_duration":912.5972993570315,"trial":6,"RT":1906,"MT":1221,"sideResp":2,"stimulus":"img/500/randomdotsizeEA/R/14_Ratio_500_L_5_R_10.png","xmouse":[785,785,785,785,785,785,785,785,785,785,785,785,785,785,785,785,785,785,785,785,785,785,785,785,785,785,785,785,785,785,785,785,785,785,785,785,785,785,785,785,785,785,785,785,785,785,785,785,785,785,785,785,785,785,785,785,785,785,785,785,785,785,785,785,785,785,785,785,785,785,785,785,785,785,785,785,785,785,785,785,785,785,785,785,785,785,785,785,785,785,785,785,785,788,788,784,779,778,778,778,778,768,763,763,763,763,763,758,754,752,752,745,731,708,702,690,688,688,688,691,701,715,780,845,988,1110,1228,1412,1504,1504,1504,1504,1504,1504,1504,1561,1518,1408,1374,1350,1334,1319,1292,1285,1283,1283,1281,1280,1275,1268,1253,1231,1194,1183,1167,1161,1158],"ymouse":[632,632,632,632,632,632,632,632,632,632,632,632,632,632,632,632,632,632,632,632,632,632,632,632,632,632,632,632,632,632,632,632,632,632,632,632,632,632,632,632,632,632,632,632,632,632,632,632,632,632,632,632,632,632,632,632,632,632,632,632,632,632,632,632,632,632,632,632,632,632,632,632,632,632,632,632,632,632,632,632,632,632,632,632,632,632,632,632,632,632,632,632,632,631,623,561,465,452,452,452,452,447,444,444,442,442,442,429,415,408,407,395,379,358,353,345,343,343,342,338,331,321,299,282,245,206,160,88,62,62,62,62,62,62,62,0,0,0,0,0,0,0,0,1,1,2,2,4,11,19,29,39,49,50,51,52,52],"timestamp_mouse":[13,25,45,66,87,106,125,146,166,185,205,226,246,267,286,306,326,347,367,386,407,426,446,466,485,507,526,547,566,587,605,627,645,667,687,705,725,745,767,786,807,826,846,866,887,907,926,945,966,987,1007,1027,1046,1066,1086,1107,1127,1146,1165,1186,1205,1226,1246,1266,1287,1306,1327,1346,1366,1386,1407,1426,1446,1467,1486,1506,1526,1545,1567,1587,1606,1626,1646,1665,1687,1707,1725,1746,1767,1785,1806,1826,1846,1866,1885,1906,1927,1947,1967,1986,2005,2025,2045,2066,2086,2106,2125,2145,2166,2186,2206,2227,2245,2266,2285,2306,2326,2345,2365,2386,2405,2426,2445,2466,2485,2507,2526,2547,2566,2586,2606,2627,2646,2666,2685,2706,2725,2746,2765,2786,2806,2827,2847,2867,2885,2906,2925,2945,2966,2987,3007,3026,3045,3066,3086,3106,3126],"xSR":741.5,"ySR":573.95,"xT1":424.9,"yT1":0,"xT2":1058.1,"yT2":0,"toosoon":0,"cond_shown":"randomdotsizeEA","ratio_trial":500,"smaller_num":"5","larger_num":"10","correct_side":2,"subjID":"gabrielaramirezsoler19","gender":"1","age":"9","school":"4"},{"start_time":1552055073480,"click_time":1552055074991,"finger_time":1552055074571,"fix_duration":447.8584218781658,"trial":7,"RT":1091,"MT":420,"sideResp":1,"stimulus":"img/900/randomdotsizeEA/R/11_Ratio_900_L_18_R_20.png","xmouse":[803,803,803,803,803,803,803,803,803,803,803,803,803,803,803,803,803,803,803,803,803,803,803,803,803,803,803,803,803,803,803,803,803,803,803,803,803,803,803,803,803,803,803,803,803,803,803,803,803,803,803,803,802,802,804,804,800,788,763,692,607,585,556,547,537,535,535,535,535,535,535,535,534,530,525,504],"ymouse":[613,613,613,613,613,613,613,613,613,613,613,613,613,613,613,613,613,613,613,613,613,613,613,613,613,613,613,613,613,613,613,613,613,613,613,613,613,613,613,613,613,613,613,613,613,613,613,613,613,613,613,613,611,606,567,537,496,435,363,209,77,37,0,0,0,0,0,0,0,0,0,0,0,0,5,17],"timestamp_mouse":[14,38,52,70,90,112,132,150,170,190,211,231,250,270,290,312,332,350,372,391,412,430,450,472,490,511,531,551,570,590,612,630,652,671,691,712,731,752,770,791,812,832,851,872,892,911,930,951,970,991,1010,1031,1051,1071,1091,1110,1131,1150,1171,1191,1210,1232,1252,1272,1291,1310,1331,1352,1370,1390,1411,1431,1451,1471,1491,1511],"xSR":741.5,"ySR":573.95,"xT1":424.9,"yT1":0,"xT2":1058.1,"yT2":0,"toosoon":0,"cond_shown":"randomdotsizeEA","ratio_trial":900,"smaller_num":"18","larger_num":"20","correct_side":2,"subjID":"gabrielaramirezsoler19","gender":"1","age":"9","school":"4"},{"start_time":1552055077159,"click_time":1552055079812,"finger_time":1552055078272,"fix_duration":1246.6422936906092,"trial":8,"RT":1113,"MT":1540,"sideResp":1,"stimulus":"img/250/randomdotsizeEA/L/1_Ratio_250_L_8_R_2.png","xmouse":[800,800,800,800,800,800,800,800,800,800,800,800,800,800,800,800,800,800,800,800,800,800,800,800,800,800,800,800,800,800,800,800,800,800,800,800,800,800,800,800,800,800,801,802,805,805,806,806,806,806,806,806,806,806,806,768,739,725,703,697,697,697,697,697,697,697,697,697,697,697,697,698,701,699,693,693,693,693,677,663,652,633,619,608,597,593,574,574,564,564,564,563,562,562,562,562,562,562,562,562,562,562,562,562,562,562,562,562,562,562,562,562,562,557,547,539,525,524,524,524,524,524,524,525,527,527,525,521,518,518,517,511,509],"ymouse":[639,639,639,639,639,639,639,639,639,639,639,639,639,639,639,639,639,639,639,639,639,639,639,639,639,639,639,639,639,639,639,639,639,639,639,639,639,639,639,639,639,639,636,631,625,624,622,622,622,622,622,622,622,622,616,544,502,485,463,452,452,452,452,452,452,452,452,452,452,452,452,443,427,397,378,377,377,377,359,341,327,296,279,267,257,253,232,232,220,220,219,209,209,209,209,209,208,208,208,208,208,208,208,208,208,208,208,208,208,208,208,208,208,200,192,186,183,183,183,183,183,184,183,173,167,165,159,150,143,139,134,107,95],"timestamp_mouse":[14,35,51,72,93,113,133,151,171,193,212,233,253,272,291,312,332,351,372,391,411,433,452,472,493,511,531,553,573,592,612,632,653,673,693,712,731,751,771,791,811,831,852,873,892,912,931,952,973,993,1011,1031,1051,1073,1092,1113,1132,1151,1172,1192,1213,1231,1252,1271,1293,1312,1333,1351,1372,1391,1411,1431,1452,1472,1493,1512,1532,1551,1573,1591,1613,1631,1652,1672,1692,1712,1732,1751,1771,1791,1812,1832,1853,1873,1892,1912,1931,1953,1972,1992,2013,2031,2052,2072,2092,2111,2131,2152,2172,2192,2213,2231,2252,2272,2292,2312,2332,2353,2371,2393,2412,2433,2452,2472,2491,2511,2532,2551,2573,2592,2612,2631,2653],"xSR":741.5,"ySR":573.95,"xT1":424.9,"yT1":0,"xT2":1058.1,"yT2":0,"toosoon":0,"cond_shown":"randomdotsizeEA","ratio_trial":250,"smaller_num":"2","larger_num":"8","correct_side":1,"subjID":"gabrielaramirezsoler19","gender":"1","age":"9","school":"4"},{"start_time":1552055083986,"click_time":1552055085411,"finger_time":1552055085191,"fix_duration":1454.840244804764,"trial":9,"RT":1205,"MT":220,"sideResp":2,"stimulus":"img/750/randomdotsizeEA/R/7_Ratio_750_L_3_R_4.png","xmouse":[786,786,786,786,786,786,786,786,786,786,786,786,786,786,786,786,786,786,786,786,786,786,786,786,786,786,786,786,786,786,786,786,786,786,786,786,786,786,786,786,786,786,786,786,786,786,786,786,786,786,786,786,786,786,786,786,785,791,804,808,820,835,845,858,872,889,939,963,984,1001,1029,1090],"ymouse":[635,635,635,635,635,635,635,635,635,635,635,635,635,635,635,635,635,635,635,635,635,635,635,635,635,635,635,635,635,635,635,635,635,635,635,635,635,635,635,635,635,635,635,635,635,635,635,635,635,635,635,635,635,635,635,635,628,610,588,577,551,519,496,476,449,419,336,294,255,224,169,53],"timestamp_mouse":[14,36,45,66,85,105,125,146,166,186,206,226,246,265,284,305,326,345,366,385,405,426,445,466,485,506,526,546,566,586,605,626,646,666,686,705,725,744,766,786,805,826,845,865,885,906,924,946,966,985,1006,1025,1046,1064,1086,1105,1124,1146,1164,1186,1204,1226,1245,1265,1285,1305,1325,1346,1365,1386,1406,1425],"xSR":741.5,"ySR":573.95,"xT1":424.9,"yT1":0,"xT2":1058.1,"yT2":0,"toosoon":0,"cond_shown":"randomdotsizeEA","ratio_trial":750,"smaller_num":"3","larger_num":"4","correct_side":2,"subjID":"gabrielaramirezsoler19","gender":"1","age":"9","school":"4"},{"start_time":1552055087172,"click_time":1552055088952,"finger_time":1552055088252,"fix_duration":819.9212601355923,"trial":10,"RT":1080,"MT":700,"sideResp":1,"stimulus":"img/900/equaldotsize/R/11_Ratio_900_L_18_R_20.png","xmouse":[804,804,804,804,804,804,804,804,804,804,804,804,804,804,804,804,804,804,804,804,804,804,804,804,804,804,804,804,804,804,804,804,804,804,804,804,804,804,804,804,804,804,804,804,807,808,808,808,809,809,812,814,818,818,818,818,814,795,775,768,753,745,731,721,708,698,687,656,637,618,592,576,559,554,551,550,547,538,537,537,537,537,537,537,537,537,537,537,534,502],"ymouse":[646,646,646,646,646,646,646,646,646,646,646,646,646,646,646,646,646,646,646,646,646,646,646,646,646,646,646,646,646,646,646,646,646,646,646,646,646,646,646,646,646,646,646,646,644,644,643,643,643,642,636,629,602,580,558,528,493,437,398,387,361,346,323,310,295,282,269,230,209,183,147,124,91,78,69,65,60,51,50,50,50,50,50,50,50,50,50,50,50,49],"timestamp_mouse":[1,19,39,58,80,100,120,139,159,180,198,220,240,260,279,299,320,339,360,379,400,420,439,459,480,500,520,539,559,580,600,619,639,659,678,700,720,739,759,779,800,820,839,860,880,898,919,940,959,979,999,1019,1039,1058,1080,1099,1120,1139,1159,1179,1200,1219,1239,1259,1279,1299,1319,1339,1360,1379,1399,1419,1439,1459,1479,1499,1519,1539,1560,1579,1599,1620,1639,1660,1680,1699,1719,1738,1759,1780],"xSR":741.5,"ySR":573.95,"xT1":424.9,"yT1":0,"xT2":1058.1,"yT2":0,"toosoon":0,"cond_shown":"equaldotsize","ratio_trial":900,"smaller_num":"18","larger_num":"20","correct_side":2,"subjID":"gabrielaramirezsoler19","gender":"1","age":"9","school":"4"},{"start_time":1552055091179,"click_time":1552055092671,"finger_time":1552055092251,"fix_duration":1065.100510408656,"trial":11,"RT":1072,"MT":420,"sideResp":1,"stimulus":"img/750/equaldotsize/R/4_Ratio_750_L_15_R_20.png","xmouse":[798,798,798,798,798,798,798,798,798,798,798,798,798,798,798,798,798,798,798,798,798,798,798,798,798,798,798,798,798,798,798,798,798,798,798,798,798,798,798,798,798,798,798,798,801,802,803,805,806,806,807,808,808,808,808,802,786,778,769,761,746,698,658,623,608,595,574,496,469,456,451,444,443,443,433],"ymouse":[616,616,616,616,616,616,616,616,616,616,616,616,616,616,616,616,616,616,616,616,616,616,616,616,616,616,616,616,616,616,616,616,616,616,616,616,616,616,616,616,616,616,616,616,605,603,599,594,593,590,588,582,579,573,551,510,432,406,391,374,353,282,222,164,117,68,17,0,0,0,0,0,0,0,5],"timestamp_mouse":[12,38,52,73,92,113,132,152,173,191,213,232,252,273,291,312,332,352,373,392,413,432,453,471,492,513,532,552,573,593,612,632,653,673,692,713,732,753,773,793,813,832,853,871,891,913,932,953,971,992,1012,1032,1052,1072,1092,1112,1132,1152,1172,1192,1212,1232,1252,1272,1292,1313,1333,1353,1372,1393,1412,1432,1452,1472,1492],"xSR":741.5,"ySR":573.95,"xT1":424.9,"yT1":0,"xT2":1058.1,"yT2":0,"toosoon":0,"cond_shown":"equaldotsize","ratio_trial":750,"smaller_num":"15","larger_num":"20","correct_side":2,"subjID":"gabrielaramirezsoler19","gender":"1","age":"9","school":"4"},{"start_time":1552055096708,"click_time":1552055098052,"finger_time":1552055097650,"fix_duration":1315.0249526014347,"trial":12,"RT":942,"MT":402,"sideResp":1,"stimulus":"img/750/equaldotanddens/L/8_Ratio_750_L_4_R_3.png","xmouse":[782,782,782,782,782,782,782,782,782,782,782,782,782,782,782,782,782,782,782,782,782,782,782,782,782,782,782,782,782,782,782,782,782,782,782,782,782,782,782,782,782,782,782,782,782,782,779,770,749,724,692,640,630,625,622,617,607,604,596,593,590,586,581,572,562,554,535,520],"ymouse":[612,612,612,612,612,612,612,612,612,612,612,612,612,612,612,612,612,612,612,612,612,612,612,612,612,612,612,612,612,612,612,612,612,612,612,612,612,612,612,612,612,612,612,612,612,612,589,568,531,493,437,325,300,280,261,249,228,214,187,172,161,144,126,102,79,59,31,20],"timestamp_mouse":[19,36,43,63,83,103,123,143,163,183,204,223,244,264,283,303,323,343,363,384,404,424,444,464,484,504,523,543,564,583,603,623,643,664,684,704,722,743,762,784,804,823,843,863,884,903,922,942,963,984,1003,1023,1043,1063,1083,1104,1122,1144,1163,1184,1203,1223,1243,1263,1282,1304,1323,1343],"xSR":741.5,"ySR":573.95,"xT1":424.9,"yT1":0,"xT2":1058.1,"yT2":0,"toosoon":0,"cond_shown":"equaldotanddens","ratio_trial":750,"smaller_num":"3","larger_num":"4","correct_side":1,"subjID":"gabrielaramirezsoler19","gender":"1","age":"9","school":"4"},{"start_time":1552055103129,"click_time":1552055104612,"finger_time":1552055103950,"fix_duration":895.5154967594103,"trial":13,"RT":821,"MT":662,"sideResp":1,"stimulus":"img/250/randomdotsizeEA/L/3_Ratio_250_L_8_R_2.png","xmouse":[774,774,774,774,774,774,774,774,774,774,774,774,774,774,774,774,774,774,774,774,774,774,774,774,774,774,774,774,774,774,774,774,774,774,774,774,774,774,774,773,769,747,724,704,671,650,622,609,601,596,595,594,594,594,594,594,594,594,593,593,590,583,576,570,565,552,546,543,543,543,542,534,528,527,523],"ymouse":[603,603,603,603,603,603,603,603,603,603,603,603,603,603,603,603,603,603,603,603,603,603,603,603,603,603,603,603,603,603,603,603,603,603,603,603,603,603,603,595,587,545,500,452,370,324,261,239,222,209,195,166,138,127,103,84,50,28,10,0,0,0,0,0,0,0,0,0,0,0,0,2,4,5,6],"timestamp_mouse":[13,23,42,63,82,102,122,143,163,181,202,223,242,262,282,302,322,343,362,382,402,423,443,462,481,501,522,542,563,582,603,621,643,663,683,702,723,742,762,781,803,821,842,862,883,902,923,942,962,981,1003,1022,1043,1062,1083,1102,1122,1142,1162,1183,1202,1222,1242,1262,1282,1303,1322,1341,1362,1382,1402,1422,1442,1463,1483],"xSR":741.5,"ySR":573.95,"xT1":424.9,"yT1":0,"xT2":1058.1,"yT2":0,"toosoon":0,"cond_shown":"randomdotsizeEA","ratio_trial":250,"smaller_num":"2","larger_num":"8","correct_side":1,"subjID":"gabrielaramirezsoler19","gender":"1","age":"9","school":"4"},{"start_time":1552055107129,"click_time":1552055108371,"finger_time":1552055107951,"fix_duration":1376.484734691008,"trial":14,"RT":822,"MT":420,"sideResp":1,"stimulus":"img/750/randomdotsizeEA/R/3_Ratio_750_L_15_R_20.png","xmouse":[784,784,784,784,784,784,784,784,784,784,784,784,784,784,785,785,785,785,785,785,785,785,785,785,785,785,785,785,785,785,785,785,785,785,785,785,785,785,785,785,785,778,775,772,770,765,757,723,712,701,692,660,610,591,575,559,526,513,506,503,499,490,484],"ymouse":[607,607,607,607,607,607,607,607,608,608,608,608,608,609,610,610,610,610,610,610,610,610,610,610,610,610,610,610,610,610,610,610,610,610,610,610,610,610,610,606,602,567,551,532,512,486,456,385,363,345,331,298,263,245,226,209,175,161,149,141,133,112,90],"timestamp_mouse":[13,36,43,63,83,102,122,141,162,182,203,222,243,261,283,302,322,342,363,382,403,422,443,463,481,501,522,543,562,583,603,622,643,662,683,702,723,742,763,781,802,822,842,861,882,902,921,941,962,982,1001,1022,1042,1062,1083,1102,1122,1142,1162,1182,1202,1222,1242],"xSR":741.5,"ySR":573.95,"xT1":424.9,"yT1":0,"xT2":1058.1,"yT2":0,"toosoon":0,"cond_shown":"randomdotsizeEA","ratio_trial":750,"smaller_num":"15","larger_num":"20","correct_side":2,"subjID":"gabrielaramirezsoler19","gender":"1","age":"9","school":"4"},{"start_time":1552055109343,"click_time":1552055110851,"finger_time":1552055110170,"fix_duration":250,"trial":15,"RT":827,"MT":681,"sideResp":2,"stimulus":"img/250/equaldotanddens/R/13_Ratio_250_L_2_R_8.png","xmouse":[810,809,807,804,804,804,803,802,801,801,800,800,800,800,800,800,800,800,800,800,800,800,800,800,800,800,800,800,800,800,800,800,800,800,800,800,801,807,808,821,831,834,845,859,886,900,908,916,921,931,934,937,941,947,954,975,992,1005,1023,1039,1045,1054,1057,1059,1059,1059,1059,1060,1061,1061,1063,1068,1072,1078,1086],"ymouse":[638,637,635,633,633,633,633,632,631,630,629,629,629,629,629,629,629,629,629,629,629,629,629,629,629,629,629,629,629,629,629,629,629,629,629,629,621,611,608,578,559,551,536,518,482,461,448,432,421,404,398,394,384,375,362,319,290,266,233,193,182,170,165,163,162,161,161,160,158,157,151,138,125,109,93],"timestamp_mouse":[28,49,68,88,108,128,148,167,187,207,229,248,268,288,309,329,349,367,388,408,427,449,468,489,509,528,549,569,589,608,627,649,668,688,708,727,748,768,788,808,827,848,868,888,909,927,948,968,988,1009,1028,1048,1068,1088,1108,1128,1149,1168,1189,1208,1228,1249,1268,1288,1309,1329,1349,1368,1388,1408,1427,1448,1469,1488,1508],"xSR":741.5,"ySR":573.95,"xT1":424.9,"yT1":0,"xT2":1058.1,"yT2":0,"toosoon":0,"cond_shown":"equaldotanddens","ratio_trial":250,"smaller_num":"2","larger_num":"8","correct_side":2,"subjID":"gabrielaramirezsoler19","gender":"1","age":"9","school":"4"},{"start_time":1552055117413,"click_time":1552055118771,"finger_time":1552055118132,"fix_duration":1141.004055347712,"trial":16,"RT":719,"MT":639,"sideResp":1,"stimulus":"img/900/equaldotanddens/L/2_Ratio_900_L_20_R_18.png","xmouse":[807,807,807,807,807,807,807,807,807,807,807,807,807,807,807,807,807,807,807,807,807,807,807,807,807,807,807,807,807,807,807,807,807,807,799,781,755,719,706,704,701,691,672,662,644,635,631,630,630,630,630,629,624,621,621,621,621,605,604,604,594,583,581,577,560,550,532,504],"ymouse":[625,625,625,625,625,625,625,625,625,625,625,625,625,625,625,625,625,625,625,625,625,625,625,625,625,625,625,625,625,625,625,625,625,622,597,559,502,390,328,317,289,243,186,146,96,66,52,49,49,49,49,50,50,52,52,52,52,48,48,48,42,37,36,33,27,25,21,19],"timestamp_mouse":[18,38,58,79,98,118,139,157,179,198,218,239,258,278,298,318,338,377,378,398,419,438,458,478,499,518,538,558,579,599,619,638,658,679,698,719,738,759,778,798,818,838,859,878,899,919,939,958,978,997,1018,1038,1058,1077,1098,1118,1138,1158,1178,1198,1218,1238,1259,1279,1298,1319,1338,1358],"xSR":741.5,"ySR":573.95,"xT1":424.9,"yT1":0,"xT2":1058.1,"yT2":0,"toosoon":0,"cond_shown":"equaldotanddens","ratio_trial":900,"smaller_num":"18","larger_num":"20","correct_side":1,"subjID":"gabrielaramirezsoler19","gender":"1","age":"9","school":"4"},{"start_time":1552055124647,"click_time":1552055125652,"finger_time":1552055125371,"fix_duration":455.5369293211732,"trial":17,"RT":724,"MT":281,"sideResp":1,"stimulus":"img/250/equaldotanddens/L/2_Ratio_250_L_16_R_4.png","xmouse":[819,819,818,818,818,818,818,818,818,818,818,818,818,818,818,818,818,818,818,818,818,818,818,818,818,818,818,818,818,818,818,818,815,809,797,787,769,718,686,668,654,644,626,611,597,580,561,530,528,526,521],"ymouse":[643,643,642,642,642,642,642,642,642,642,642,642,642,642,642,642,642,642,642,642,642,642,642,642,642,642,642,642,642,642,642,642,639,631,617,599,562,467,407,371,332,301,242,207,175,146,116,72,70,66,65],"timestamp_mouse":[13,24,43,64,84,105,123,145,164,185,205,224,244,265,285,305,325,343,364,385,404,424,444,465,484,504,523,543,565,585,604,625,644,664,683,704,724,744,763,784,804,824,844,864,885,904,924,944,965,984,1005],"xSR":741.5,"ySR":573.95,"xT1":424.9,"yT1":0,"xT2":1058.1,"yT2":0,"toosoon":0,"cond_shown":"equaldotanddens","ratio_trial":250,"smaller_num":"4","larger_num":"16","correct_side":1,"subjID":"gabrielaramirezsoler19","gender":"1","age":"9","school":"4"},{"start_time":1552055127836,"click_time":1552055129511,"finger_time":1552055128671,"fix_duration":1044.9599044591364,"trial":18,"RT":835,"MT":840,"sideResp":2,"stimulus":"img/250/equaldotsize/R/9_Ratio_250_L_3_R_12.png","xmouse":[799,799,799,799,799,799,799,799,799,799,799,799,799,799,799,799,799,799,799,800,800,800,800,800,800,800,800,800,800,800,800,800,800,800,800,800,799,799,799,801,808,820,854,881,912,945,988,1008,1037,1051,1051,1051,1051,1051,1051,1051,1051,1051,1051,1051,1051,1051,1051,1053,1052,1052,1052,1052,1056,1056,1058,1058,1059,1061,1062,1062,1062,1062,1062,1062,1062,1064,1069,1072],"ymouse":[626,626,626,626,626,626,626,626,626,626,626,626,626,626,626,626,626,626,626,626,626,626,626,626,626,626,626,626,626,626,626,624,623,621,620,619,618,611,605,596,581,561,516,476,435,383,320,290,244,224,224,224,224,219,219,219,219,219,219,219,219,219,219,207,200,192,181,172,153,151,146,146,137,125,123,123,123,123,123,123,121,116,103,97],"timestamp_mouse":[20,43,55,75,96,114,136,156,174,196,216,234,255,276,295,316,335,355,376,395,416,436,456,475,496,514,536,555,576,595,616,635,656,675,695,715,735,755,775,795,816,835,856,874,896,915,935,955,975,995,1015,1036,1055,1076,1096,1115,1135,1156,1175,1195,1215,1235,1255,1275,1295,1315,1336,1355,1375,1395,1415,1435,1455,1475,1495,1515,1536,1555,1576,1596,1615,1635,1656,1674],"xSR":741.5,"ySR":573.95,"xT1":424.9,"yT1":0,"xT2":1058.1,"yT2":0,"toosoon":0,"cond_shown":"equaldotsize","ratio_trial":250,"smaller_num":"3","larger_num":"12","correct_side":2,"subjID":"gabrielaramirezsoler19","gender":"1","age":"9","school":"4"},{"start_time":1552055131902,"click_time":1552055133611,"finger_time":1552055132852,"fix_duration":1469.7696110752627,"trial":19,"RT":950,"MT":759,"sideResp":1,"stimulus":"img/750/equaldotanddens/R/3_Ratio_750_L_15_R_20.png","xmouse":[797,797,797,797,797,797,797,797,797,797,797,797,797,797,797,797,797,797,797,797,797,797,797,797,797,797,797,797,797,797,794,789,783,781,780,780,779,779,779,779,779,779,779,779,779,779,780,786,793,803,822,840,851,862,872,887,889,891,892,893,896,896,896,896,896,896,892,875,845,804,701,678,649,609,589,562,557,557,555,551,539,532,523,518,508,496],"ymouse":[622,622,622,622,622,622,622,622,622,622,622,622,622,622,622,622,622,622,622,622,622,622,622,622,622,622,622,622,622,622,621,613,604,601,599,599,598,597,596,595,594,592,592,592,591,589,583,569,551,527,476,435,410,385,362,330,324,320,317,316,307,304,303,303,303,303,300,294,281,262,216,204,191,169,154,139,136,135,135,134,129,122,116,110,100,88],"timestamp_mouse":[12,42,50,70,89,110,130,150,170,190,208,230,250,270,289,310,330,349,369,388,410,430,449,469,489,509,529,548,569,588,609,629,649,669,690,710,729,749,769,790,808,829,850,870,889,909,929,950,969,990,1009,1029,1050,1069,1089,1109,1130,1149,1169,1190,1209,1229,1250,1269,1289,1310,1329,1350,1369,1389,1409,1430,1449,1470,1489,1508,1528,1550,1569,1590,1608,1629,1650,1669,1689,1709],"xSR":741.5,"ySR":573.95,"xT1":424.9,"yT1":0,"xT2":1058.1,"yT2":0,"toosoon":0,"cond_shown":"equaldotanddens","ratio_trial":750,"smaller_num":"15","larger_num":"20","correct_side":2,"subjID":"gabrielaramirezsoler19","gender":"1","age":"9","school":"4"},{"start_time":1552055137629,"click_time":1552055139311,"finger_time":1552055138790,"fix_duration":1095.3555772423824,"trial":20,"RT":1161,"MT":521,"sideResp":1,"stimulus":"img/500/randomdotsizeEA/L/7_Ratio_500_L_10_R_5.png","xmouse":[775,778,778,783,784,787,788,788,788,789,792,794,794,794,794,794,794,794,794,794,794,794,794,794,794,794,794,794,794,794,794,794,794,794,794,794,794,794,794,794,794,794,794,794,794,794,794,794,794,794,794,794,794,794,794,794,794,794,794,794,777,765,752,733,721,686,666,649,633,621,601,597,589,566,565,565,565,565,565,560,553,547,541,528,516],"ymouse":[617,617,617,617,617,617,617,617,617,617,617,617,617,617,617,617,617,617,617,617,617,617,617,617,617,617,617,617,617,617,617,617,617,617,617,617,617,617,617,617,617,617,617,617,617,617,617,617,617,617,617,617,617,617,617,617,602,590,562,527,442,399,355,301,272,202,168,140,120,106,84,83,80,72,71,71,71,71,71,70,69,68,66,63,59],"timestamp_mouse":[2,36,42,62,81,103,122,142,163,182,202,222,243,263,282,302,322,343,362,382,403,423,442,462,482,502,522,542,561,582,602,623,642,663,682,701,723,742,763,783,802,823,843,863,883,903,922,942,963,983,1003,1022,1043,1062,1082,1102,1122,1143,1161,1183,1201,1222,1242,1262,1282,1303,1321,1342,1362,1382,1401,1422,1441,1462,1483,1503,1523,1542,1562,1583,1602,1623,1642,1663,1682],"xSR":741.5,"ySR":573.95,"xT1":424.9,"yT1":0,"xT2":1058.1,"yT2":0,"toosoon":0,"cond_shown":"randomdotsizeEA","ratio_trial":500,"smaller_num":"5","larger_num":"10","correct_side":1,"subjID":"gabrielaramirezsoler19","gender":"1","age":"9","school":"4"},{"start_time":1552055157355,"click_time":1552055159251,"finger_time":1552055158152,"fix_duration":503.9698882257424,"trial":21,"RT":797,"MT":1099,"sideResp":1,"stimulus":"img/250/equaldotanddens/L/15_Ratio_250_L_12_R_3.png","xmouse":[778,777,776,776,776,775,774,774,774,774,773,773,773,773,773,773,773,773,773,773,773,773,773,773,773,773,773,773,773,773,773,773,773,773,773,773,773,773,773,770,768,768,767,767,757,755,755,755,755,755,755,755,755,755,755,755,755,755,755,755,752,750,750,750,750,750,752,752,752,752,752,744,738,728,722,705,702,691,685,680,676,673,666,657,649,640,639,634,631,627,614,601,574,530,482],"ymouse":[643,639,636,634,633,630,628,626,624,623,620,618,618,617,617,617,617,617,617,617,617,617,617,617,617,617,617,617,617,617,617,617,617,617,617,616,611,603,590,572,569,567,566,566,554,552,552,552,552,552,552,552,552,552,552,552,552,552,552,547,531,522,518,515,515,503,483,465,444,419,393,330,301,269,244,186,176,152,143,137,136,135,133,131,128,124,122,119,119,117,113,109,97,82,62],"timestamp_mouse":[16,40,56,76,96,116,136,157,177,196,216,236,255,276,297,316,336,357,377,397,415,437,457,476,496,516,536,557,577,596,617,637,656,676,696,716,737,756,775,797,816,837,856,876,895,917,937,956,976,997,1017,1037,1056,1075,1096,1116,1136,1156,1176,1196,1215,1236,1257,1276,1296,1316,1335,1356,1376,1396,1415,1435,1456,1476,1497,1516,1536,1556,1576,1597,1616,1636,1657,1676,1697,1716,1735,1756,1776,1796,1816,1836,1856,1876,1896],"xSR":741.5,"ySR":573.95,"xT1":424.9,"yT1":0,"xT2":1058.1,"yT2":0,"toosoon":0,"cond_shown":"equaldotanddens","ratio_trial":250,"smaller_num":"3","larger_num":"12","correct_side":1,"subjID":"gabrielaramirezsoler19","gender":"1","age":"9","school":"4"},{"start_time":1552055161379,"click_time":1552055162751,"finger_time":1552055162031,"fix_duration":765.7122942281927,"trial":22,"RT":652,"MT":720,"sideResp":1,"stimulus":"img/250/equaldotsize/L/2_Ratio_250_L_16_R_4.png","xmouse":[792,792,792,792,792,792,792,792,792,792,792,792,792,792,792,792,792,792,792,792,792,792,792,792,792,792,792,792,792,792,793,794,794,794,728,700,686,679,675,674,671,671,673,675,676,675,671,666,656,628,614,605,597,592,577,575,574,571,570,570,565,564,562,551,551,541,541,529,519],"ymouse":[609,609,609,609,609,609,609,609,609,609,609,609,609,609,609,609,609,609,609,609,609,609,609,609,609,609,609,609,609,608,599,586,566,542,445,408,382,358,335,312,276,261,250,245,241,238,237,233,227,206,193,183,172,160,142,137,134,125,121,121,117,115,112,107,107,102,101,96,91],"timestamp_mouse":[14,38,51,72,92,113,132,152,171,192,213,233,252,273,292,312,333,353,373,392,413,433,453,472,493,513,533,551,573,593,612,633,652,673,692,711,732,753,772,792,812,833,852,872,893,912,932,952,972,993,1012,1033,1051,1072,1093,1112,1132,1152,1172,1192,1212,1233,1252,1271,1292,1313,1333,1352,1372],"xSR":741.5,"ySR":573.95,"xT1":424.9,"yT1":0,"xT2":1058.1,"yT2":0,"toosoon":0,"cond_shown":"equaldotsize","ratio_trial":250,"smaller_num":"4","larger_num":"16","correct_side":1,"subjID":"gabrielaramirezsoler19","gender":"1","age":"9","school":"4"},{"start_time":1552055163962,"click_time":1552055165491,"finger_time":1552055164692,"fix_duration":250,"trial":23,"RT":730,"MT":799,"sideResp":2,"stimulus":"img/250/equaldotanddens/R/6_Ratio_250_L_6_R_24.png","xmouse":[803,803,803,803,803,803,803,803,803,803,803,803,803,803,803,803,803,803,803,803,803,803,803,803,803,803,803,803,803,803,803,803,803,808,817,842,854,866,881,900,941,951,958,969,977,990,993,994,995,999,1007,1012,1019,1028,1034,1048,1054,1058,1060,1061,1062,1063,1065,1067,1069,1070,1074,1076,1082,1085,1093,1097,1101,1107,1111,1121],"ymouse":[619,617,617,617,617,617,617,617,617,617,617,617,617,617,617,617,617,617,617,617,617,617,617,617,617,617,617,617,617,617,617,614,609,597,580,542,526,512,495,476,426,411,396,381,372,362,361,360,358,352,341,333,322,307,294,269,258,251,246,245,243,242,238,235,231,226,219,211,200,188,162,151,138,119,104,77],"timestamp_mouse":[32,50,70,88,109,129,150,170,190,210,228,249,270,290,310,329,348,369,390,409,430,449,470,490,509,529,550,570,589,609,629,649,669,690,709,730,750,769,789,809,829,849,869,889,909,929,949,970,990,1010,1030,1049,1070,1089,1109,1130,1149,1169,1189,1209,1230,1249,1269,1290,1310,1329,1349,1369,1388,1409,1429,1449,1468,1489,1509,1529],"xSR":741.5,"ySR":573.95,"xT1":424.9,"yT1":0,"xT2":1058.1,"yT2":0,"toosoon":0,"cond_shown":"equaldotanddens","ratio_trial":250,"smaller_num":"6","larger_num":"24","correct_side":2,"subjID":"gabrielaramirezsoler19","gender":"1","age":"9","school":"4"},{"start_time":1552055166824,"click_time":1552055168612,"finger_time":1552055167612,"fix_duration":250,"trial":24,"RT":788,"MT":1000,"sideResp":1,"stimulus":"img/900/randomdotsizeEA/R/5_Ratio_900_L_9_R_10.png","xmouse":[776,776,776,776,776,776,776,776,776,776,776,776,776,776,776,776,776,776,776,776,776,776,776,776,776,776,776,776,776,776,777,778,780,783,785,787,788,790,800,806,810,814,820,833,840,845,848,850,852,855,857,858,861,869,877,886,892,907,930,935,936,936,936,936,936,936,936,936,936,937,937,933,915,841,796,767,746,731,712,628,602,579,555,540,527,527,527,527,525,518],"ymouse":[636,636,636,636,636,636,636,636,636,636,636,636,636,636,636,636,636,636,636,636,636,636,636,636,636,636,636,636,636,636,633,632,627,620,615,612,608,600,580,565,556,547,535,509,495,484,477,473,469,462,459,455,448,432,418,401,391,372,341,333,332,332,332,332,332,332,332,332,332,332,330,322,305,243,208,183,168,157,148,123,114,105,95,89,84,84,84,84,84,83],"timestamp_mouse":[12,35,47,67,88,108,128,147,166,188,207,228,248,267,287,306,328,347,366,388,407,427,448,466,487,506,528,546,567,588,607,627,647,667,687,707,727,748,767,788,807,827,847,867,886,907,927,948,967,988,1007,1027,1047,1067,1087,1108,1127,1148,1166,1187,1207,1226,1248,1267,1288,1307,1327,1348,1367,1387,1407,1427,1447,1467,1486,1508,1527,1548,1566,1587,1607,1628,1647,1667,1687,1708,1727,1747,1767,1788],"xSR":741.5,"ySR":573.95,"xT1":424.9,"yT1":0,"xT2":1058.1,"yT2":0,"toosoon":0,"cond_shown":"randomdotsizeEA","ratio_trial":900,"smaller_num":"9","larger_num":"10","correct_side":2,"subjID":"gabrielaramirezsoler19","gender":"1","age":"9","school":"4"},{"start_time":1552055170460,"click_time":1552055171831,"finger_time":1552055171132,"fix_duration":1028.9668567567917,"trial":25,"RT":672,"MT":699,"sideResp":2,"stimulus":"img/250/randomdotsizeEA/R/9_Ratio_250_L_3_R_12.png","xmouse":[797,797,797,797,797,797,797,797,797,797,797,797,797,797,797,797,797,797,797,797,797,797,797,797,797,797,797,797,797,797,797,784,780,776,773,773,773,773,779,790,808,856,871,883,890,900,918,927,935,946,959,972,1003,1015,1029,1046,1051,1052,1052,1052,1052,1052,1053,1054,1055,1062,1063,1067,1069],"ymouse":[625,625,625,625,625,625,625,625,625,625,625,625,625,625,625,625,625,625,625,625,625,625,625,625,625,625,625,625,625,625,618,593,577,565,554,547,546,533,516,489,449,367,340,319,306,291,268,257,248,233,219,204,177,164,150,130,121,121,121,121,121,121,120,120,119,109,108,102,99],"timestamp_mouse":[13,39,52,70,91,112,131,150,172,190,211,231,252,272,290,311,332,351,371,392,410,430,451,472,491,511,531,552,572,590,611,631,651,672,690,710,732,751,771,791,810,832,851,871,891,911,931,951,970,992,1011,1031,1050,1071,1091,1111,1132,1151,1171,1192,1211,1232,1251,1271,1291,1311,1332,1351,1371],"xSR":741.5,"ySR":573.95,"xT1":424.9,"yT1":0,"xT2":1058.1,"yT2":0,"toosoon":0,"cond_shown":"randomdotsizeEA","ratio_trial":250,"smaller_num":"3","larger_num":"12","correct_side":2,"subjID":"gabrielaramirezsoler19","gender":"1","age":"9","school":"4"},{"start_time":1552055173151,"click_time":1552055174331,"finger_time":1552055173951,"fix_duration":538.8788415490826,"trial":26,"RT":800,"MT":380,"sideResp":2,"stimulus":"img/500/equaldotanddens/R/2_Ratio_500_L_3_R_6.png","xmouse":[771,771,771,771,771,771,771,771,771,771,771,771,771,771,771,771,771,771,771,771,771,771,771,771,771,771,771,771,771,771,771,771,771,771,771,771,771,771,777,795,809,869,916,1012,1053,1091,1132,1169,1212,1233,1266,1301,1331,1345,1346,1346,1341,1303,1185,1151],"ymouse":[606,606,606,606,606,606,606,606,606,606,606,606,606,606,606,606,606,606,606,606,606,606,606,606,606,606,606,606,606,606,606,606,606,606,606,606,606,606,597,576,564,511,466,358,309,268,225,188,158,137,112,92,75,63,62,62,61,55,36,26],"timestamp_mouse":[10,20,40,61,81,100,119,140,160,180,200,220,241,261,281,301,321,341,360,380,400,419,439,460,481,500,520,541,561,580,601,621,641,660,679,701,720,741,760,780,800,821,839,859,880,901,920,940,959,981,1000,1019,1039,1060,1080,1101,1120,1141,1160,1180],"xSR":741.5,"ySR":573.95,"xT1":424.9,"yT1":0,"xT2":1058.1,"yT2":0,"toosoon":0,"cond_shown":"equaldotanddens","ratio_trial":500,"smaller_num":"3","larger_num":"6","correct_side":2,"subjID":"gabrielaramirezsoler19","gender":"1","age":"9","school":"4"},{"start_time":1552055176131,"click_time":1552055177811,"finger_time":1552055176911,"fix_duration":697.4679553334319,"trial":27,"RT":780,"MT":900,"sideResp":1,"stimulus":"img/750/equaldotanddens/L/1_Ratio_750_L_20_R_15.png","xmouse":[784,784,784,784,784,784,784,784,784,784,784,784,784,784,784,784,784,784,784,784,784,784,784,784,784,784,784,784,784,784,784,784,784,784,784,784,785,785,779,741,716,693,668,641,579,550,519,498,485,478,478,478,478,478,478,478,478,478,478,478,478,478,478,478,478,478,478,478,478,478,478,478,478,478,478,478,478,478,478,478,478,478,478,478,478],"ymouse":[598,598,598,598,598,598,598,598,598,598,598,598,598,598,598,598,598,598,598,598,598,598,598,598,598,598,598,598,598,598,598,598,598,598,598,598,599,599,577,448,336,252,181,124,35,11,0,0,0,0,0,0,0,0,0,0,0,0,0,0,0,0,0,0,0,0,0,0,0,0,0,0,0,0,0,0,0,0,0,0,0,0,0,0,1],"timestamp_mouse":[9,20,39,60,80,100,121,140,160,180,201,219,240,261,280,300,320,341,359,379,400,420,441,460,479,500,520,541,560,580,600,620,640,661,679,699,720,740,760,780,800,820,840,861,880,900,920,940,960,981,999,1019,1040,1060,1080,1101,1120,1141,1160,1180,1200,1221,1241,1261,1281,1300,1321,1340,1361,1380,1400,1420,1440,1459,1481,1500,1520,1540,1560,1581,1600,1621,1639,1661,1680],"xSR":741.5,"ySR":573.95,"xT1":424.9,"yT1":0,"xT2":1058.1,"yT2":0,"toosoon":0,"cond_shown":"equaldotanddens","ratio_trial":750,"smaller_num":"15","larger_num":"20","correct_side":1,"subjID":"gabrielaramirezsoler19","gender":"1","age":"9","school":"4"},{"start_time":1552055180973,"click_time":1552055182030,"finger_time":1552055181652,"fix_duration":741.3139919400755,"trial":28,"RT":679,"MT":378,"sideResp":1,"stimulus":"img/500/equaldotsize/L/8_Ratio_500_L_8_R_4.png","xmouse":[807,807,807,807,806,806,806,806,806,806,806,806,806,806,806,806,806,806,806,806,806,806,806,806,806,806,806,806,806,806,802,789,779,769,757,744,723,694,685,681,680,679,677,677,676,673,659,656,653,647,625,568,464],"ymouse":[627,627,626,626,626,626,626,625,625,625,625,625,625,625,625,625,625,625,625,625,625,625,625,625,625,625,625,625,625,625,621,600,583,562,537,511,461,382,347,324,311,301,280,267,242,223,187,179,176,168,151,113,37],"timestamp_mouse":[18,39,59,79,98,118,139,159,179,199,217,239,259,277,298,318,339,357,378,399,418,439,459,478,498,519,539,559,578,599,618,639,658,679,698,719,738,758,777,798,818,839,857,878,898,918,939,958,977,998,1018,1039,1057],"xSR":741.5,"ySR":573.95,"xT1":424.9,"yT1":0,"xT2":1058.1,"yT2":0,"toosoon":0,"cond_shown":"equaldotsize","ratio_trial":500,"smaller_num":"4","larger_num":"8","correct_side":1,"subjID":"gabrielaramirezsoler19","gender":"1","age":"9","school":"4"},{"start_time":1552055183482,"click_time":1552055184613,"finger_time":1552055184230,"fix_duration":250,"trial":29,"RT":748,"MT":383,"sideResp":2,"stimulus":"img/500/equaldotsize/R/1_Ratio_500_L_9_R_18.png","xmouse":[808,807,806,806,806,806,806,806,806,806,806,806,806,806,806,806,806,806,806,806,806,806,806,806,806,806,806,806,806,806,806,806,806,806,806,810,818,844,862,876,890,900,923,936,948,963,973,977,980,987,997,1009,1041,1059,1075,1089,1104],"ymouse":[630,629,629,629,628,628,628,628,628,628,628,628,628,628,628,628,628,628,628,628,628,628,628,628,628,628,628,628,628,628,628,628,628,628,624,618,602,551,513,487,463,444,404,386,372,359,356,350,338,326,309,288,233,195,162,132,99],"timestamp_mouse":[9,39,49,69,89,110,129,149,169,190,209,229,249,268,289,310,329,349,369,390,410,429,449,470,488,510,530,549,569,590,610,630,650,670,689,709,730,748,769,789,809,829,849,869,889,909,930,949,970,988,1009,1030,1049,1068,1090,1109,1131],"xSR":741.5,"ySR":573.95,"xT1":424.9,"yT1":0,"xT2":1058.1,"yT2":0,"toosoon":0,"cond_shown":"equaldotsize","ratio_trial":500,"smaller_num":"9","larger_num":"18","correct_side":2,"subjID":"gabrielaramirezsoler19","gender":"1","age":"9","school":"4"},{"start_time":1552055186340,"click_time":1552055187331,"finger_time":1552055186951,"fix_duration":807.2889338504247,"trial":30,"RT":611,"MT":380,"sideResp":2,"stimulus":"img/750/equaldotanddens/R/7_Ratio_750_L_3_R_4.png","xmouse":[766,766,766,766,766,766,766,766,766,766,766,766,766,766,766,766,766,766,766,766,766,766,766,768,770,782,789,800,817,835,904,955,1012,1057,1105,1105,1105,1105,1105,1110,1111,1113,1114,1116,1118,1125,1128,1130,1131,1131],"ymouse":[639,639,639,639,639,639,639,639,639,639,639,639,639,639,639,639,639,639,639,639,639,639,639,639,639,631,626,614,596,574,498,446,389,336,264,264,264,264,264,254,248,243,238,235,230,202,184,161,139,94],"timestamp_mouse":[13,38,51,70,90,110,131,151,172,191,211,231,252,272,291,312,330,351,372,390,411,432,452,471,491,511,531,551,571,591,611,632,651,671,691,712,732,751,771,791,810,831,851,871,891,912,931,951,971,991],"xSR":741.5,"ySR":573.95,"xT1":424.9,"yT1":0,"xT2":1058.1,"yT2":0,"toosoon":0,"cond_shown":"equaldotanddens","ratio_trial":750,"smaller_num":"3","larger_num":"4","correct_side":2,"subjID":"gabrielaramirezsoler19","gender":"1","age":"9","school":"4"},{"start_time":1552055188658,"click_time":1552055189632,"finger_time":1552055189171,"fix_duration":364.86226740313776,"trial":31,"RT":513,"MT":461,"sideResp":2,"stimulus":"img/750/equaldotanddens/R/7_Ratio_750_L_3_R_4.png","xmouse":[790,790,790,790,790,790,790,790,790,790,790,790,790,790,790,790,790,790,790,790,790,790,790,791,805,817,834,864,877,970,1007,1038,1078,1120,1172,1194,1211,1223,1227,1228,1228,1228,1228,1228,1228,1224,1205,1177,1144],"ymouse":[595,595,595,595,595,595,595,595,595,595,595,595,595,595,595,595,595,595,595,595,595,595,595,595,574,553,529,486,469,347,308,279,242,211,163,137,116,97,90,89,89,89,89,89,89,87,81,73,63],"timestamp_mouse":[14,34,53,74,92,113,133,154,173,193,213,233,253,273,294,313,334,353,373,393,414,434,452,474,493,513,534,553,573,594,613,633,653,673,693,713,733,753,773,794,813,833,854,874,893,913,933,954,974],"xSR":741.5,"ySR":573.95,"xT1":424.9,"yT1":0,"xT2":1058.1,"yT2":0,"toosoon":0,"cond_shown":"equaldotanddens","ratio_trial":750,"smaller_num":"3","larger_num":"4","correct_side":2,"subjID":"gabrielaramirezsoler19","gender":"1","age":"9","school":"4"},{"start_time":1552055192097,"click_time":1552055193373,"finger_time":1552055192811,"fix_duration":1482.362919134678,"trial":32,"RT":714,"MT":562,"sideResp":2,"stimulus":"img/250/equaldotsize/R/8_Ratio_250_L_1_R_4.png","xmouse":[797,797,797,797,797,797,797,797,797,797,797,797,797,797,797,797,797,797,797,797,797,797,797,797,797,797,797,797,797,797,798,799,805,809,821,833,847,895,928,956,986,1005,1018,1019,1019,1019,1019,1020,1026,1029,1038,1046,1053,1060,1062,1062,1062,1062,1062,1062,1065,1069,1091,1119],"ymouse":[625,625,625,625,625,625,625,625,625,625,625,625,625,625,625,625,625,625,625,625,625,625,625,625,625,625,625,625,625,625,625,622,607,601,577,556,530,443,382,336,293,263,236,233,233,233,233,232,215,204,186,170,161,151,148,148,148,148,148,148,144,138,105,66],"timestamp_mouse":[14,39,54,75,93,114,135,154,174,194,215,234,255,273,295,315,334,354,374,393,415,435,454,475,494,515,535,555,574,595,614,634,654,674,694,714,733,753,775,794,814,834,854,875,894,915,934,954,974,994,1014,1035,1053,1074,1095,1114,1135,1154,1174,1195,1214,1234,1254,1275],"xSR":741.5,"ySR":573.95,"xT1":424.9,"yT1":0,"xT2":1058.1,"yT2":0,"toosoon":0,"cond_shown":"equaldotsize","ratio_trial":250,"smaller_num":"1","larger_num":"4","correct_side":2,"subjID":"gabrielaramirezsoler19","gender":"1","age":"9","school":"4"},{"start_time":1552055195573,"click_time":1552055196511,"finger_time":1552055196311,"fix_duration":1281.3184429552532,"trial":33,"RT":738,"MT":200,"sideResp":1,"stimulus":"img/900/equaldotanddens/R/13_Ratio_900_L_18_R_20.png","xmouse":[798,798,798,798,798,798,798,798,798,798,798,798,798,798,798,798,798,798,798,798,798,798,798,798,798,798,798,798,798,798,798,798,798,798,793,769,720,663,525,496,481,478,478,478,477,477,477],"ymouse":[615,615,615,615,615,615,615,615,615,615,615,615,615,615,615,615,615,615,615,615,615,615,615,615,615,615,615,615,615,615,615,615,615,615,604,574,520,468,340,283,221,178,157,146,125,113,93],"timestamp_mouse":[18,42,58,78,98,119,139,157,177,199,218,238,257,278,298,317,339,358,378,398,418,439,459,478,499,518,538,559,578,599,618,637,658,678,698,719,738,759,779,797,818,838,858,878,898,919,938],"xSR":741.5,"ySR":573.95,"xT1":424.9,"yT1":0,"xT2":1058.1,"yT2":0,"toosoon":0,"cond_shown":"equaldotanddens","ratio_trial":900,"smaller_num":"18","larger_num":"20","correct_side":2,"subjID":"gabrielaramirezsoler19","gender":"1","age":"9","school":"4"},{"start_time":1552055198730,"click_time":1552055200011,"finger_time":1552055199812,"fix_duration":1156.216958779273,"trial":34,"RT":1082,"MT":199,"sideResp":2,"stimulus":"img/500/randomdotsizeEA/R/12_Ratio_500_L_1_R_2.png","xmouse":[803,812,812,812,812,812,812,812,812,812,812,813,813,813,813,813,813,813,813,812,812,812,812,812,812,812,812,812,812,812,812,812,812,812,812,812,812,812,812,812,812,812,812,812,812,812,812,812,812,812,812,811,818,828,837,848,860,895,920,960,986,1011,1049,1065,1081],"ymouse":[624,623,623,623,623,623,623,623,623,623,623,622,622,622,622,622,622,621,621,621,621,620,620,620,620,620,620,620,620,620,620,620,620,620,620,620,620,620,620,620,620,620,620,620,620,620,620,620,620,620,620,615,599,582,565,547,525,444,387,327,293,259,193,134,84],"timestamp_mouse":[1,22,41,62,81,102,122,142,161,181,201,222,241,262,281,301,321,342,361,381,402,421,441,460,481,501,521,541,562,582,600,620,642,661,681,702,720,740,762,782,802,822,841,861,882,901,922,941,961,980,1001,1022,1041,1061,1082,1101,1121,1141,1161,1181,1201,1221,1242,1260,1281],"xSR":741.5,"ySR":573.95,"xT1":424.9,"yT1":0,"xT2":1058.1,"yT2":0,"toosoon":0,"cond_shown":"randomdotsizeEA","ratio_trial":500,"smaller_num":"1","larger_num":"2","correct_side":2,"subjID":"gabrielaramirezsoler19","gender":"1","age":"9","school":"4"},{"start_time":1552055201578,"click_time":1552055202852,"finger_time":1552055202431,"fix_duration":525.0252976973757,"trial":35,"RT":853,"MT":421,"sideResp":1,"stimulus":"img/500/randomdotsizeEA/L/13_Ratio_500_L_12_R_6.png","xmouse":[787,787,787,787,787,787,787,787,787,787,787,787,787,787,787,787,787,787,787,787,787,787,787,787,787,787,787,787,787,787,787,787,787,789,796,801,804,805,806,809,811,814,817,818,822,822,824,824,824,813,803,784,756,717,624,573,551,535,523,511,508,502,494,490],"ymouse":[623,623,623,623,623,623,623,623,623,623,623,623,623,623,623,623,623,623,623,623,623,623,623,623,623,623,623,623,623,623,623,623,622,619,612,607,604,602,598,588,582,575,570,564,547,539,533,528,516,484,467,443,411,368,272,222,199,181,169,151,141,128,110,93],"timestamp_mouse":[14,39,54,73,93,112,134,154,173,194,214,234,253,274,293,314,334,354,373,394,414,434,452,473,493,514,533,553,574,594,613,634,653,674,692,714,733,753,773,793,813,834,853,874,893,913,933,953,973,993,1013,1033,1053,1074,1093,1113,1133,1154,1172,1193,1213,1233,1253,1274],"xSR":741.5,"ySR":573.95,"xT1":424.9,"yT1":0,"xT2":1058.1,"yT2":0,"toosoon":0,"cond_shown":"randomdotsizeEA","ratio_trial":500,"smaller_num":"6","larger_num":"12","correct_side":1,"subjID":"gabrielaramirezsoler19","gender":"1","age":"9","school":"4"},{"start_time":1552055203981,"click_time":1552055205111,"finger_time":1552055204751,"fix_duration":250,"trial":36,"RT":770,"MT":360,"sideResp":2,"stimulus":"img/750/randomdotsizeEA/L/10_Ratio_750_L_4_R_3.png","xmouse":[780,780,780,780,780,780,780,780,780,780,780,780,780,780,780,780,780,780,780,780,780,780,780,780,780,780,780,780,780,780,780,782,784,788,800,806,817,828,843,890,921,958,984,1002,1038,1042,1047,1048,1050,1052,1054,1056,1056,1058,1061,1071,1077],"ymouse":[651,651,651,651,651,651,651,651,651,651,651,651,651,651,651,651,651,651,651,651,651,651,651,651,651,651,651,651,651,651,651,649,647,642,625,615,602,587,569,516,480,442,410,385,326,316,303,294,284,272,250,231,211,192,166,105,89],"timestamp_mouse":[16,40,51,70,90,110,130,150,171,190,209,231,250,271,290,310,331,350,371,390,411,430,451,470,490,510,530,550,571,591,611,630,650,670,690,710,730,751,770,790,809,829,851,870,890,909,930,951,970,990,1010,1030,1050,1069,1090,1111,1130],"xSR":741.5,"ySR":573.95,"xT1":424.9,"yT1":0,"xT2":1058.1,"yT2":0,"toosoon":0,"cond_shown":"randomdotsizeEA","ratio_trial":750,"smaller_num":"3","larger_num":"4","correct_side":1,"subjID":"gabrielaramirezsoler19","gender":"1","age":"9","school":"4"},{"start_time":1552055206915,"click_time":1552055208412,"finger_time":1552055207691,"fix_duration":923.3030550470293,"trial":37,"RT":776,"MT":721,"sideResp":1,"stimulus":"img/900/equaldotsize/L/4_Ratio_900_L_20_R_18.png","xmouse":[767,767,767,767,767,767,767,767,767,767,767,767,767,767,767,767,767,767,767,767,767,767,767,767,767,767,767,767,767,767,767,767,767,767,767,767,766,765,757,748,739,718,644,582,509,445,406,383,381,381,381,381,381,381,381,381,381,382,394,396,399,401,406,407,407,407,407,409,410,410,412,412,415,424,436],"ymouse":[626,626,626,626,626,626,626,626,626,626,626,626,626,626,626,626,626,626,626,626,626,626,626,626,626,626,626,626,626,626,626,626,626,626,626,618,610,591,552,530,508,476,394,342,281,228,190,159,147,140,134,129,124,120,120,120,120,117,101,95,88,83,74,74,74,73,73,70,67,67,65,64,61,56,50],"timestamp_mouse":[17,38,56,77,96,116,135,155,177,197,216,237,257,276,296,315,337,357,376,396,417,436,456,477,497,515,537,557,577,596,616,637,657,675,697,716,736,756,776,797,816,836,857,876,896,916,936,956,976,996,1016,1036,1056,1077,1096,1116,1137,1156,1176,1196,1216,1236,1257,1275,1296,1317,1337,1357,1376,1395,1416,1436,1456,1476,1497],"xSR":741.5,"ySR":573.95,"xT1":424.9,"yT1":0,"xT2":1058.1,"yT2":0,"toosoon":0,"cond_shown":"equaldotsize","ratio_trial":900,"smaller_num":"18","larger_num":"20","correct_side":1,"subjID":"gabrielaramirezsoler19","gender":"1","age":"9","school":"4"},{"start_time":1552055210480,"click_time":1552055212272,"finger_time":1552055211271,"fix_duration":965.1566265100143,"trial":38,"RT":791,"MT":1001,"sideResp":1,"stimulus":"img/250/equaldotsize/L/3_Ratio_250_L_8_R_2.png","xmouse":[776,776,776,776,776,776,776,776,776,776,776,776,776,776,776,776,776,776,776,776,776,776,776,776,776,776,776,776,776,776,776,776,776,776,776,776,776,776,776,768,718,685,659,625,583,462,340,274,234,215,212,212,212,212,215,231,257,273,285,291,305,314,328,339,343,345,345,345,345,345,345,346,356,372,384,406,418,418,418,418,418,418,418,418,418,418,420,421,422,427],"ymouse":[622,622,622,622,622,622,622,622,622,622,622,622,622,622,622,622,622,622,622,622,622,622,622,622,622,622,622,622,622,622,622,622,622,622,622,622,622,621,585,538,377,292,208,139,70,0,0,0,0,0,0,0,0,0,4,16,36,47,55,59,67,70,73,76,77,77,77,77,77,77,77,77,77,77,77,72,66,66,66,66,66,66,66,66,66,66,66,66,66,66],"timestamp_mouse":[12,32,51,71,91,111,130,150,170,190,211,232,251,272,291,311,331,352,371,390,411,431,452,471,491,510,532,551,572,592,612,632,651,670,691,711,732,751,771,791,811,831,851,871,891,913,931,951,971,992,1012,1032,1051,1072,1092,1111,1130,1151,1172,1191,1213,1232,1251,1272,1292,1311,1331,1351,1371,1391,1411,1430,1451,1472,1491,1511,1532,1551,1572,1592,1611,1631,1651,1672,1692,1711,1732,1751,1771,1792],"xSR":741.5,"ySR":573.95,"xT1":424.9,"yT1":0,"xT2":1058.1,"yT2":0,"toosoon":0,"cond_shown":"equaldotsize","ratio_trial":250,"smaller_num":"2","larger_num":"8","correct_side":1,"subjID":"gabrielaramirezsoler19","gender":"1","age":"9","school":"4"},{"start_time":1552055220860,"click_time":1552055221691,"finger_time":1552055221491,"fix_duration":387.7742095515437,"trial":39,"RT":631,"MT":200,"sideResp":1,"stimulus":"img/500/equaldotanddens/L/4_Ratio_500_L_18_R_9.png","xmouse":[807,807,807,807,807,807,807,807,807,807,807,807,807,807,807,807,807,807,807,807,807,807,807,807,807,807,807,807,805,799,788,761,709,675,636,593,556,522,517,514,512,511],"ymouse":[628,628,628,628,628,628,628,628,628,628,628,628,628,628,628,628,628,628,628,628,628,628,628,628,628,628,628,628,625,614,599,567,495,448,393,333,269,177,144,119,101,81],"timestamp_mouse":[13,36,51,72,91,112,131,151,171,191,212,231,252,272,292,312,330,350,372,392,412,431,451,471,491,512,531,551,571,591,611,631,651,672,691,711,731,751,771,792,811,831],"xSR":741.5,"ySR":573.95,"xT1":424.9,"yT1":0,"xT2":1058.1,"yT2":0,"toosoon":0,"cond_shown":"equaldotanddens","ratio_trial":500,"smaller_num":"9","larger_num":"18","correct_side":1,"subjID":"gabrielaramirezsoler19","gender":"1","age":"9","school":"4"},{"start_time":1552055223836,"click_time":1552055227772,"finger_time":1552055226732,"fix_duration":1204.492969377654,"trial":40,"RT":2896,"MT":1040,"sideResp":2,"stimulus":"img/750/randomdotsizeEA/R/12_Ratio_750_L_3_R_4.png","xmouse":[778,778,778,778,778,778,778,778,778,778,778,778,778,778,778,778,778,778,778,778,778,778,778,778,778,778,778,778,778,778,778,778,778,778,778,778,778,778,778,778,778,778,778,778,778,778,778,778,778,778,778,778,778,778,778,778,778,778,778,778,778,778,778,778,778,778,778,778,778,778,778,778,778,778,778,778,778,778,778,778,778,778,778,778,778,778,778,778,778,778,778,778,778,778,778,778,778,778,778,778,778,778,778,778,778,778,778,778,778,778,778,778,778,778,778,778,778,778,778,778,778,778,778,778,778,778,778,778,778,778,778,778,778,778,778,778,778,782,792,819,829,834,835,837,860,879,897,911,926,974,1001,1031,1073,1091,1114,1119,1120,1120,1120,1120,1120,1120,1120,1120,1120,1120,1120,1120,1120,1120,1120,1120,1120,1120,1120,1120,1120,1120,1120,1120,1120,1120,1120,1120,1120,1120,1120,1120,1120,1120,1120,1120,1120,1120,1120,1120,1121],"ymouse":[612,612,612,612,612,612,612,612,612,612,612,612,612,612,612,612,612,612,612,612,612,612,612,612,612,612,612,612,612,612,612,612,612,612,612,612,612,612,612,612,612,612,612,612,612,612,612,612,612,612,612,612,612,612,612,612,612,612,612,612,612,612,612,612,612,612,612,612,612,612,612,612,612,612,612,612,612,612,612,612,612,612,612,612,612,612,612,612,612,612,612,612,612,612,612,612,612,612,612,612,612,612,612,612,612,612,612,612,612,612,612,612,612,612,612,612,612,612,612,612,612,612,612,612,612,612,612,612,612,612,612,612,612,612,612,612,612,613,618,629,633,635,635,634,571,500,423,354,289,111,6,0,0,0,0,0,0,0,0,0,0,0,0,0,0,0,0,0,0,0,0,0,0,0,0,0,0,0,0,0,0,0,0,0,0,0,0,0,0,0,0,0,0,0,0,0,3],"timestamp_mouse":[19,44,54,75,96,116,135,155,176,196,216,236,256,275,296,316,335,356,374,396,415,436,456,476,496,516,535,554,576,595,615,636,655,676,696,716,736,756,775,796,816,836,855,876,896,915,935,956,975,996,1016,1036,1055,1075,1096,1116,1135,1156,1175,1195,1216,1236,1256,1276,1295,1316,1334,1354,1375,1395,1415,1436,1456,1476,1496,1514,1535,1556,1576,1595,1615,1635,1656,1676,1695,1716,1736,1756,1775,1794,1815,1835,1855,1874,1895,1915,1936,1956,1976,1995,2015,2035,2056,2075,2096,2116,2136,2155,2175,2195,2215,2236,2256,2276,2295,2315,2334,2354,2375,2395,2416,2434,2456,2475,2494,2515,2535,2555,2575,2596,2616,2635,2656,2676,2696,2714,2734,2755,2775,2794,2815,2835,2855,2875,2896,2915,2935,2955,2976,2995,3015,3036,3055,3074,3096,3115,3135,3155,3176,3195,3215,3235,3256,3277,3296,3316,3335,3354,3376,3395,3415,3435,3456,3475,3496,3515,3536,3555,3575,3595,3616,3635,3656,3676,3695,3716,3734,3755,3776,3794,3815,3836,3856,3875,3895,3916,3936],"xSR":741.5,"ySR":573.95,"xT1":424.9,"yT1":0,"xT2":1058.1,"yT2":0,"toosoon":0,"cond_shown":"randomdotsizeEA","ratio_trial":750,"smaller_num":"3","larger_num":"4","correct_side":2,"subjID":"gabrielaramirezsoler19","gender":"1","age":"9","school":"4"},{"start_time":1552055229442,"click_time":1552055230551,"finger_time":1552055230051,"fix_duration":250,"trial":41,"RT":609,"MT":500,"sideResp":2,"stimulus":"img/250/equaldotsize/R/9_Ratio_250_L_3_R_12.png","xmouse":[768,769,769,769,769,769,769,769,769,769,769,769,769,769,769,769,769,769,771,774,775,775,775,775,775,775,775,775,776,792,820,853,881,911,999,1054,1108,1159,1189,1226,1230,1231,1231,1231,1231,1214,1202,1187,1170,1147,1147,1147,1147,1147,1147,1146],"ymouse":[616,617,617,617,617,617,617,617,617,617,617,617,617,617,617,617,617,617,617,618,619,619,619,619,619,619,619,619,619,584,529,480,441,398,270,198,129,68,33,0,0,0,0,0,0,0,0,0,0,0,0,0,0,0,0,4],"timestamp_mouse":[14,29,49,69,89,109,129,149,170,190,210,229,249,268,288,309,329,350,369,389,409,429,449,469,489,509,528,548,570,589,609,629,649,669,689,708,729,749,770,790,809,830,850,870,889,908,929,948,969,989,1008,1029,1049,1069,1089,1109],"xSR":741.5,"ySR":573.95,"xT1":424.9,"yT1":0,"xT2":1058.1,"yT2":0,"toosoon":0,"cond_shown":"equaldotsize","ratio_trial":250,"smaller_num":"3","larger_num":"12","correct_side":2,"subjID":"gabrielaramirezsoler19","gender":"1","age":"9","school":"4"},{"start_time":1552055235342,"click_time":1552055236451,"finger_time":1552055235951,"fix_duration":250,"trial":42,"RT":609,"MT":500,"sideResp":1,"stimulus":"img/900/randomdotsizeEA/L/2_Ratio_900_L_20_R_18.png","xmouse":[795,795,795,795,795,795,795,795,795,795,795,795,795,795,795,795,795,795,795,795,795,795,795,795,795,795,795,795,795,793,757,704,657,598,537,460,438,425,417,412,398,395,393,392,392,392,392,392,393,393,394,395,397,397,401,431],"ymouse":[653,653,653,653,653,653,653,653,653,653,653,653,653,653,653,653,653,653,653,646,629,621,617,617,614,612,608,600,593,581,513,436,383,332,284,197,165,137,114,93,49,42,38,36,36,36,35,35,35,33,33,32,32,32,31,35],"timestamp_mouse":[13,34,49,68,90,109,130,149,170,190,209,229,249,268,290,310,330,350,368,389,409,429,449,470,488,510,528,549,569,590,609,628,649,669,689,709,728,749,769,790,809,829,848,870,890,910,928,949,970,990,1008,1029,1049,1070,1089,1109],"xSR":741.5,"ySR":573.95,"xT1":424.9,"yT1":0,"xT2":1058.1,"yT2":0,"toosoon":0,"cond_shown":"randomdotsizeEA","ratio_trial":900,"smaller_num":"18","larger_num":"20","correct_side":1,"subjID":"gabrielaramirezsoler19","gender":"1","age":"9","school":"4"},{"start_time":1552055238175,"click_time":1552055239671,"finger_time":1552055238771,"fix_duration":801.8996571576554,"trial":43,"RT":596,"MT":900,"sideResp":1,"stimulus":"img/900/randomdotsizeEA/R/13_Ratio_900_L_18_R_20.png","xmouse":[806,806,806,806,806,806,806,806,806,806,806,806,806,806,806,806,806,806,806,806,806,806,806,806,806,806,806,806,802,774,734,687,628,487,422,366,317,276,232,230,221,211,204,202,202,202,202,202,209,213,217,221,222,226,231,233,233,233,248,268,285,293,296,313,333,354,365,368,372,378,391,400,410,420,428],"ymouse":[618,618,618,618,618,618,618,618,618,618,618,618,618,618,618,618,618,618,618,618,618,618,618,618,618,618,618,618,607,562,512,458,395,270,211,161,117,80,38,35,27,17,8,4,4,4,4,4,3,2,2,2,2,3,4,5,5,5,9,15,19,20,21,26,32,38,41,42,43,45,50,53,55,57,58],"timestamp_mouse":[22,44,56,77,96,117,136,157,175,196,216,237,256,275,295,317,336,356,375,397,416,436,456,475,496,516,537,556,576,596,616,636,656,676,696,716,736,756,776,796,816,837,856,876,896,917,936,957,976,995,1015,1035,1056,1077,1096,1115,1135,1156,1179,1196,1215,1236,1255,1279,1295,1317,1335,1356,1375,1395,1416,1436,1455,1476,1496],"xSR":741.5,"ySR":573.95,"xT1":424.9,"yT1":0,"xT2":1058.1,"yT2":0,"toosoon":0,"cond_shown":"randomdotsizeEA","ratio_trial":900,"smaller_num":"18","larger_num":"20","correct_side":2,"subjID":"gabrielaramirezsoler19","gender":"1","age":"9","school":"4"},{"start_time":1552055241631,"click_time":1552055242771,"finger_time":1552055242252,"fix_duration":897.4585726188055,"trial":44,"RT":621,"MT":519,"sideResp":2,"stimulus":"img/500/equaldotanddens/R/14_Ratio_500_L_5_R_10.png","xmouse":[781,781,781,781,781,781,781,781,781,781,781,781,781,781,781,781,781,781,781,781,781,781,781,781,781,781,781,781,781,781,784,822,852,876,894,914,943,962,980,992,1009,1019,1038,1044,1048,1050,1050,1050,1050,1050,1050,1050,1050,1050,1050,1051,1058,1085],"ymouse":[627,627,627,627,627,627,627,627,627,627,627,627,627,627,627,627,627,627,627,627,627,627,627,627,627,627,627,627,627,625,599,466,401,352,323,286,243,222,201,187,165,144,92,68,54,49,49,47,41,34,32,31,31,31,31,31,31,31],"timestamp_mouse":[11,21,39,61,80,100,119,141,160,181,201,220,240,261,280,300,320,341,360,380,400,420,440,460,480,501,520,541,561,580,599,621,640,661,680,700,721,740,760,780,799,820,840,860,880,900,919,939,960,980,1001,1020,1040,1060,1081,1100,1119,1140],"xSR":741.5,"ySR":573.95,"xT1":424.9,"yT1":0,"xT2":1058.1,"yT2":0,"toosoon":0,"cond_shown":"equaldotanddens","ratio_trial":500,"smaller_num":"5","larger_num":"10","correct_side":2,"subjID":"gabrielaramirezsoler19","gender":"1","age":"9","school":"4"},{"start_time":1552055244742,"click_time":1552055245971,"finger_time":1552055245431,"fix_duration":1047.1355863457725,"trial":45,"RT":689,"MT":540,"sideResp":1,"stimulus":"img/250/equaldotanddens/L/5_Ratio_250_L_24_R_6.png","xmouse":[788,788,788,788,788,788,788,788,788,788,788,788,788,788,788,788,788,788,788,788,788,788,788,788,788,788,788,788,788,788,788,788,788,768,751,708,620,555,514,474,437,399,393,390,386,383,378,378,378,378,382,405,413,414,415,416,418,419,421,423,423,425],"ymouse":[608,608,608,608,608,608,608,608,608,608,608,608,608,608,608,608,608,608,608,608,608,608,608,608,608,608,608,608,608,608,608,608,608,587,562,507,400,319,268,220,175,114,96,81,67,53,35,30,28,26,25,25,25,24,23,23,22,22,21,21,20,20],"timestamp_mouse":[21,43,49,69,89,110,130,149,170,188,210,230,250,269,289,309,329,349,369,389,409,430,449,469,490,508,529,549,570,588,608,629,648,668,689,708,729,750,769,789,809,828,848,869,888,908,929,949,969,989,1010,1028,1048,1069,1088,1110,1130,1149,1168,1189,1210,1229],"xSR":741.5,"ySR":573.95,"xT1":424.9,"yT1":0,"xT2":1058.1,"yT2":0,"toosoon":0,"cond_shown":"equaldotanddens","ratio_trial":250,"smaller_num":"6","larger_num":"24","correct_side":1,"subjID":"gabrielaramirezsoler19","gender":"1","age":"9","school":"4"},{"start_time":1552055247261,"click_time":1552055248211,"finger_time":1552055248071,"fix_duration":368.02001296976584,"trial":46,"RT":810,"MT":140,"sideResp":2,"stimulus":"img/750/randomdotsizeEA/R/3_Ratio_750_L_15_R_20.png","xmouse":[812,812,812,812,811,802,796,790,786,782,781,778,777,775,775,775,775,775,775,775,775,775,775,775,775,775,775,775,775,775,775,775,775,774,774,774,776,779,785,804,813,831,854,885,971,1033,1090],"ymouse":[640,640,640,639,639,637,635,632,632,631,630,630,630,630,630,630,630,630,630,630,630,630,630,630,630,630,630,630,630,630,630,630,630,626,623,612,607,598,586,551,533,509,471,410,246,154,80],"timestamp_mouse":[36,50,71,89,109,130,149,170,190,210,230,250,270,291,310,330,349,371,391,410,430,450,471,490,510,530,550,569,589,609,630,650,669,689,709,730,751,770,791,810,830,849,871,890,911,930,949],"xSR":741.5,"ySR":573.95,"xT1":424.9,"yT1":0,"xT2":1058.1,"yT2":0,"toosoon":0,"cond_shown":"randomdotsizeEA","ratio_trial":750,"smaller_num":"15","larger_num":"20","correct_side":2,"subjID":"gabrielaramirezsoler19","gender":"1","age":"9","school":"4"},{"start_time":1552055249623,"click_time":1552055250672,"finger_time":1552055250231,"fix_duration":250,"trial":47,"RT":608,"MT":441,"sideResp":1,"stimulus":"img/500/equaldotsize/L/10_Ratio_500_L_4_R_2.png","xmouse":[801,801,801,801,801,801,801,801,801,801,801,801,801,801,801,801,801,801,801,801,801,801,801,801,801,801,801,801,798,793,784,769,738,726,719,715,713,711,702,698,690,681,677,666,658,647,633,615,579,562,549,525,489],"ymouse":[641,641,641,641,641,641,641,641,641,641,641,641,641,641,641,641,641,641,641,641,641,641,641,641,641,641,638,623,613,599,568,534,461,435,417,407,403,396,366,350,328,296,282,254,237,220,201,179,143,127,116,92,63],"timestamp_mouse":[18,35,47,69,88,109,129,148,168,188,208,227,248,268,287,307,329,348,368,388,409,428,449,468,488,509,527,549,567,589,608,628,649,668,689,708,728,747,768,788,808,829,849,869,888,909,928,948,968,988,1008,1027,1049],"xSR":741.5,"ySR":573.95,"xT1":424.9,"yT1":0,"xT2":1058.1,"yT2":0,"toosoon":0,"cond_shown":"equaldotsize","ratio_trial":500,"smaller_num":"2","larger_num":"4","correct_side":1,"subjID":"gabrielaramirezsoler19","gender":"1","age":"9","school":"4"},{"start_time":1552055254509,"click_time":1552055255871,"finger_time":1552055255191,"fix_duration":1496.3066858360564,"trial":48,"RT":682,"MT":680,"sideResp":2,"stimulus":"img/250/equaldotanddens/R/4_Ratio_250_L_3_R_12.png","xmouse":[782,782,782,782,782,782,782,782,782,782,782,782,782,782,782,782,782,782,782,782,782,782,782,782,782,782,782,782,782,782,785,787,793,802,813,819,820,820,823,832,837,844,850,855,863,864,864,864,866,876,881,888,898,914,943,959,967,977,988,1017,1027,1032,1038,1043,1045,1047,1051,1056,1063],"ymouse":[635,635,635,635,635,635,635,635,635,635,635,635,635,635,635,635,635,635,635,635,635,635,635,635,635,635,635,635,635,635,626,618,601,581,553,527,522,516,506,478,459,440,420,400,342,291,266,241,222,186,170,154,141,127,106,91,80,70,61,38,29,21,12,5,1,1,1,1,1],"timestamp_mouse":[10,34,42,62,83,101,121,143,162,182,203,222,242,261,281,303,322,341,361,382,401,422,443,463,482,503,522,542,561,583,601,623,643,663,682,703,722,741,762,782,802,823,842,863,882,902,922,943,961,982,1002,1022,1042,1063,1081,1102,1121,1141,1161,1182,1202,1222,1242,1263,1285,1302,1322,1343,1362],"xSR":741.5,"ySR":573.95,"xT1":424.9,"yT1":0,"xT2":1058.1,"yT2":0,"toosoon":0,"cond_shown":"equaldotanddens","ratio_trial":250,"smaller_num":"3","larger_num":"12","correct_side":2,"subjID":"gabrielaramirezsoler19","gender":"1","age":"9","school":"4"},{"start_time":1552055257873,"click_time":1552055260131,"finger_time":1552055258631,"fix_duration":960.0299917007677,"trial":49,"RT":758,"MT":1500,"sideResp":1,"stimulus":"img/900/equaldotanddens/R/15_Ratio_900_L_9_R_10.png","xmouse":[789,789,789,789,789,789,789,789,789,789,789,789,789,789,789,789,789,789,789,789,789,789,789,789,789,789,789,789,789,789,789,789,789,789,789,788,788,786,781,776,771,751,739,731,730,730,730,730,731,733,735,738,742,744,747,747,748,748,748,748,747,707,674,637,565,542,407,359,313,282,272,272,272,272,272,283,300,318,330,337,347,348,352,373,390,402,406,406,406,406,406,410,415,415,415,415,415,415,415,414,414,414,413,413,413,413,413,413,413,413,414,420,441],"ymouse":[612,612,612,612,612,612,612,612,612,612,612,612,612,612,612,612,612,612,612,612,612,612,612,612,612,612,612,612,612,612,612,612,612,612,612,610,590,573,545,510,476,420,400,388,387,386,383,379,376,372,370,364,360,356,351,348,344,344,344,343,340,294,236,157,51,25,0,0,0,0,0,0,0,0,0,5,11,17,21,22,25,25,26,30,32,34,35,35,35,35,35,35,35,35,35,35,35,35,35,35,35,35,35,35,35,34,34,34,34,34,34,37,46],"timestamp_mouse":[18,37,57,77,98,118,139,157,177,198,219,238,259,278,298,319,338,357,379,399,419,438,459,478,499,518,538,558,579,598,618,639,658,678,698,718,739,758,779,797,819,838,858,878,898,918,938,958,978,997,1017,1037,1058,1078,1098,1119,1138,1158,1178,1197,1218,1238,1257,1278,1297,1318,1338,1357,1378,1399,1418,1438,1458,1477,1498,1521,1538,1558,1579,1599,1621,1638,1657,1678,1698,1718,1738,1758,1778,1798,1819,1837,1858,1877,1898,1919,1938,1958,1979,1997,2017,2038,2058,2079,2098,2117,2138,2158,2177,2198,2219,2238,2258],"xSR":741.5,"ySR":573.95,"xT1":424.9,"yT1":0,"xT2":1058.1,"yT2":0,"toosoon":0,"cond_shown":"equaldotanddens","ratio_trial":900,"smaller_num":"9","larger_num":"10","correct_side":2,"subjID":"gabrielaramirezsoler19","gender":"1","age":"9","school":"4"},{"start_time":1552055261711,"click_time":1552055262732,"finger_time":1552055262330,"fix_duration":517.0458588202232,"trial":50,"RT":619,"MT":402,"sideResp":1,"stimulus":"img/250/equaldotsize/L/14_Ratio_250_L_12_R_3.png","xmouse":[787,787,787,787,787,787,787,787,787,787,787,787,787,787,787,787,787,787,787,787,787,787,787,787,787,787,787,787,787,782,771,756,742,720,697,654,633,612,592,578,550,538,522,513,504,497,496,495,494,494,492,491],"ymouse":[635,635,635,635,635,635,635,635,635,635,635,635,635,635,635,635,635,635,635,635,635,635,635,635,635,635,635,632,629,619,590,557,525,486,448,381,350,320,290,266,226,209,184,167,151,131,127,122,117,111,102,97],"timestamp_mouse":[11,20,40,61,81,100,120,139,160,180,201,220,240,260,279,301,320,341,360,381,399,420,441,461,481,501,520,541,560,580,600,619,640,659,680,700,721,739,759,781,799,820,840,860,880,900,919,940,960,980,1000,1020],"xSR":741.5,"ySR":573.95,"xT1":424.9,"yT1":0,"xT2":1058.1,"yT2":0,"toosoon":0,"cond_shown":"equaldotsize","ratio_trial":250,"smaller_num":"3","larger_num":"12","correct_side":1,"subjID":"gabrielaramirezsoler19","gender":"1","age":"9","school":"4"},{"start_time":1552055264428,"click_time":1552055266311,"finger_time":1552055266111,"fix_duration":734.7279534522639,"trial":51,"RT":1683,"MT":200,"sideResp":1,"stimulus":"img/250/randomdotsizeEA/R/11_Ratio_250_L_3_R_12.png","xmouse":[792,792,792,792,792,792,792,792,792,792,792,792,792,792,792,792,792,792,792,792,792,792,792,792,792,792,792,792,792,792,792,792,792,792,792,792,792,792,792,792,792,792,792,792,792,792,792,792,792,792,792,792,792,792,792,792,792,792,792,792,792,792,792,792,792,792,792,792,792,792,792,792,792,792,792,792,792,792,792,792,792,792,792,787,735,704,675,649,630,600,588,572,552,511,478],"ymouse":[637,637,637,637,637,637,637,637,637,637,637,637,637,637,637,637,637,637,637,637,637,637,637,637,637,637,637,637,637,637,637,637,637,637,637,637,637,637,637,637,637,637,637,637,637,637,637,637,637,637,637,637,637,637,637,637,637,637,637,637,637,637,637,637,637,637,637,637,637,637,637,637,637,637,637,637,637,637,637,637,637,637,637,627,532,471,423,371,330,258,234,210,186,137,87],"timestamp_mouse":[12,35,44,63,83,103,123,143,164,183,203,223,242,263,283,303,323,343,364,383,404,422,444,464,483,504,522,542,564,583,603,624,643,663,683,704,723,743,764,782,804,823,844,864,883,904,923,944,963,983,1003,1023,1044,1062,1083,1103,1124,1142,1164,1182,1204,1224,1243,1263,1283,1304,1323,1344,1364,1383,1404,1424,1444,1463,1483,1504,1522,1543,1564,1583,1603,1624,1643,1664,1683,1702,1722,1742,1763,1784,1802,1823,1843,1863,1883],"xSR":741.5,"ySR":573.95,"xT1":424.9,"yT1":0,"xT2":1058.1,"yT2":0,"toosoon":0,"cond_shown":"randomdotsizeEA","ratio_trial":250,"smaller_num":"3","larger_num":"12","correct_side":2,"subjID":"gabrielaramirezsoler19","gender":"1","age":"9","school":"4"},{"start_time":1552055268224,"click_time":1552055271091,"finger_time":1552055270771,"fix_duration":250,"trial":52,"RT":2547,"MT":320,"sideResp":2,"stimulus":"img/500/randomdotsizeEA/R/15_Ratio_500_L_1_R_2.png","xmouse":[814,814,814,814,814,814,814,814,814,814,814,814,814,814,814,814,814,814,814,814,814,814,814,814,814,814,814,814,814,814,814,814,814,814,814,814,814,814,814,814,814,814,814,814,814,814,814,814,814,814,814,814,814,814,814,814,814,814,814,814,814,814,814,814,814,814,814,814,814,814,814,814,814,814,814,814,814,814,814,814,814,814,814,814,814,814,814,814,814,814,814,814,814,814,814,814,814,814,814,814,814,814,814,814,814,814,814,814,814,814,814,814,814,814,814,814,814,814,814,814,814,814,814,814,814,819,823,831,842,853,887,916,954,985,1007,1041,1051,1061,1069,1078,1093,1099,1101,1101],"ymouse":[609,609,609,609,609,609,609,609,609,609,609,609,609,609,609,609,609,609,609,609,609,609,609,609,609,609,609,609,609,609,609,609,609,609,609,609,609,609,609,609,609,609,609,609,609,609,609,609,609,609,609,609,609,609,609,609,609,609,609,609,609,609,609,609,60