[{"start_time":1552055589907,"click_time":1552055591582,"finger_time":1552055591161,"fix_duration":1320.1096418632187,"trial":0,"RT":1254,"MT":421,"sideResp":2,"stimulus":"img/250/equaldotsize/R/11_Ratio_250_L_3_R_12.png","xmouse":[802,802,802,802,802,802,802,802,802,802,802,802,802,802,802,802,802,802,802,802,802,802,802,802,802,802,802,802,802,802,802,802,802,802,802,802,802,802,802,802,802,802,802,802,802,802,802,802,802,802,802,802,802,804,806,814,819,823,826,831,834,840,849,858,875,880,888,894,900,919,928,937,946,957,972,977,984,991,1000,1010,1027,1038,1054,1070],"ymouse":[556,556,556,556,556,556,556,556,556,556,556,556,556,556,556,556,556,556,556,556,556,556,556,556,556,556,556,556,556,556,556,556,556,556,556,556,556,556,556,556,556,556,556,556,556,556,556,556,556,556,556,556,553,550,547,538,533,528,524,517,513,506,494,482,453,440,424,410,395,358,340,320,302,273,244,230,215,200,183,163,128,111,93,77],"timestamp_mouse":[15,52,54,74,94,115,134,154,174,194,215,235,255,274,295,315,335,354,374,395,414,434,455,474,494,514,535,554,575,594,614,634,655,675,694,715,736,755,775,794,814,834,854,874,894,914,934,955,974,994,1014,1035,1055,1074,1094,1114,1134,1155,1174,1194,1215,1234,1254,1275,1295,1315,1335,1354,1374,1395,1414,1434,1455,1476,1495,1515,1534,1554,1574,1595,1615,1635,1655,1675],"xSR":741.5,"ySR":501.8,"xT1":424.9,"yT1":0,"xT2":1058.1,"yT2":0,"toosoon":0,"cond_shown":"equaldotsize","ratio_trial":250,"smaller_num":"3","larger_num":"12","correct_side":2,"subjID":"gabrielavargassalinas","gender":"1","age":"9","school":"4","test":{"fix_dur":[250,1500],"timestim":300,"targets_dim":[100,100],"targets_relative_coord":[0.3,0.7],"size_stim":[880,420],"start_dim":[100,100],"size_start":[300,300],"size_fix":60,"samplingrate":20,"img_types":["equaldotsize","equaldotanddens","randomdotsizeEA"],"ratios":[250,500,750,900],"rep_conds":9,"nTrials":120,"trials_to_rest":500,"Trials_order":[108,45,119,38,31,100,94,48,72,30,110,51,60,33,4,9,101,44,105,64,19,71,66,79,109,95,96,21,14,36,41,6,97,63,0,43,118,117,23,81,62,3,53,88,84,55,83,7,86,61,49,92,37,103,74,2,50,11,69,32,13,104,18,56,47,107,90,5,12,91,98,17,80,16,99,24,93,1,114,70,15,29,82,10,75,68,8,87,67,57,54,46,28,22,115,40,27,20,25,106,59,58,73,85,78,39,76,102,77,111,65,52,42,113,112,116,89,35,34,26],"cond_shown":["equaldotsize","equaldotsize","randomdotsizeEA","randomdotsizeEA","equaldotanddens","equaldotanddens","equaldotanddens","equaldotsize","equaldotsize","equaldotsize","randomdotsizeEA","equaldotsize","equaldotsize","equaldotsize","equaldotanddens","equaldotsize","randomdotsizeEA","randomdotsizeEA","equaldotsize","equaldotanddens","equaldotanddens","randomdotsizeEA","equaldotsize","equaldotanddens","equaldotanddens","randomdotsizeEA","equaldotsize","equaldotsize","randomdotsizeEA","equaldotsize","randomdotsizeEA","equaldotsize","equaldotanddens","equaldotsize","equaldotsize","equaldotanddens","equaldotanddens","equaldotsize","randomdotsizeEA","equaldotsize","randomdotsizeEA","equaldotsize","randomdotsizeEA","equaldotanddens","equaldotsize","equaldotanddens","randomdotsizeEA","equaldotanddens","randomdotsizeEA","equaldotanddens","equaldotanddens","randomdotsizeEA","equaldotanddens","equaldotanddens","randomdotsizeEA","randomdotsizeEA","randomdotsizeEA","randomdotsizeEA","equaldotsize","randomdotsizeEA","equaldotanddens","randomdotsizeEA","equaldotsize","randomdotsizeEA","randomdotsizeEA","randomdotsizeEA","equaldotsize","randomdotsizeEA","equaldotsize","equaldotanddens","randomdotsizeEA","randomdotsizeEA","randomdotsizeEA","equaldotanddens","equaldotsize","equaldotsize","equaldotsize","equaldotanddens","equaldotsize","equaldotanddens","equaldotsize","randomdotsizeEA","equaldotanddens","equaldotanddens","equaldotsize","randomdotsizeEA","randomdotsizeEA","equaldotsize","equaldotanddens","equaldotsize","equaldotsize","equaldotanddens","equaldotanddens","equaldotanddens","equaldotanddens","equaldotanddens","equaldotsize","randomdotsizeEA","equaldotanddens","equaldotanddens","randomdotsizeEA","equaldotanddens","equaldotanddens","equaldotanddens","equaldotsize","equaldotsize","equaldotanddens","equaldotsize","randomdotsizeEA","equaldotsize","randomdotsizeEA","equaldotanddens","equaldotsize","randomdotsizeEA","equaldotanddens","randomdotsizeEA","randomdotsizeEA","randomdotsizeEA","equaldotanddens","randomdotsizeEA"],"ratio_trial":[250,900,900,250,750,500,900,250,250,750,250,500,250,900,500,900,500,750,900,500,750,900,750,750,250,900,250,900,250,250,500,750,250,500,250,750,900,900,900,900,250,500,500,500,250,750,900,750,250,250,250,750,250,750,250,250,250,900,900,750,250,750,750,750,900,900,750,500,250,750,250,500,750,500,500,250,900,250,750,900,500,500,900,900,500,750,750,500,750,900,750,900,500,900,750,500,500,750,250,900,900,900,250,250,750,500,500,750,500,500,500,500,750,500,500,750,500,900,900,250],"smaller_num":["3","9","18","3","3","2","18","4","5","6","3","2","2","18","6","18","9","15","18","10","3","18","6","18","5","18","2","9","3","4","9","3","6","9","2","3","18","18","9","9","6","9","10","3","3","15","9","3","2","4","4","6","2","15","2","6","2","18","18","3","3","3","3","3","18","18","12","5","1","3","4","10","6","6","6","2","9","3","9","9","5","2","9","18","9","12","3","2","6","18","6","9","10","18","15","9","6","15","4","18","9","18","3","4","15","1","6","3","2","3","3","4","3","6","1","3","5","18","18","4"],"larger_num":["12","10","20","12","4","4","20","16","20","8","12","4","8","20","12","20","18","20","20","20","4","20","8","24","20","20","8","10","12","16","18","4","24","18","8","4","20","20","10","10","24","18","20","6","12","20","10","4","8","16","16","8","8","20","8","24","8","20","20","4","12","4","4","4","20","20","16","10","4","4","16","20","8","12","12","8","10","12","12","10","10","4","10","20","18","16","4","4","8","20","8","10","20","20","20","18","12","20","16","20","10","20","12","16","20","2","12","4","4","6","6","8","4","12","2","4","10","20","20","16"],"correct_side":[2,2,2,2,1,1,1,1,2,2,1,2,2,1,1,1,1,1,2,2,2,1,1,1,2,2,1,1,2,2,1,1,2,1,1,2,2,1,2,2,1,2,2,2,2,2,1,1,2,2,2,1,1,2,1,2,1,2,1,2,1,2,1,2,1,1,2,2,2,2,2,2,1,1,1,1,2,2,2,2,1,1,1,2,2,2,2,1,1,1,2,1,2,1,1,2,1,2,1,1,2,2,2,1,2,2,1,1,1,2,2,1,1,1,2,1,2,1,2,1],"img_shown":["img/250/equaldotsize/R/11_Ratio_250_L_3_R_12.png","img/900/equaldotsize/R/3_Ratio_900_L_9_R_10.png","img/900/randomdotsizeEA/R/11_Ratio_900_L_18_R_20.png","img/250/randomdotsizeEA/R/11_Ratio_250_L_3_R_12.png","img/750/equaldotanddens/L/10_Ratio_750_L_4_R_3.png","img/500/equaldotanddens/L/5_Ratio_500_L_4_R_2.png","img/900/equaldotanddens/L/10_Ratio_900_L_20_R_18.png","img/250/equaldotsize/L/2_Ratio_250_L_16_R_4.png","img/250/equaldotsize/R/12_Ratio_250_L_5_R_20.png","img/750/equaldotsize/R/2_Ratio_750_L_6_R_8.png","img/250/randomdotsizeEA/L/14_Ratio_250_L_12_R_3.png","img/500/equaldotsize/R/9_Ratio_500_L_2_R_4.png","img/250/equaldotsize/R/13_Ratio_250_L_2_R_8.png","img/900/equaldotsize/L/8_Ratio_900_L_20_R_18.png","img/500/equaldotanddens/L/13_Ratio_500_L_12_R_6.png","img/900/equaldotsize/L/4_Ratio_900_L_20_R_18.png","img/500/randomdotsizeEA/L/4_Ratio_500_L_18_R_9.png","img/750/randomdotsizeEA/L/1_Ratio_750_L_20_R_15.png","img/900/equaldotsize/R/13_Ratio_900_L_18_R_20.png","img/500/equaldotanddens/R/3_Ratio_500_L_10_R_20.png","img/750/equaldotanddens/R/7_Ratio_750_L_3_R_4.png","img/900/randomdotsizeEA/L/2_Ratio_900_L_20_R_18.png","img/750/equaldotsize/L/14_Ratio_750_L_8_R_6.png","img/750/equaldotanddens/L/6_Ratio_750_L_24_R_18.png","img/250/equaldotanddens/R/12_Ratio_250_L_5_R_20.png","img/900/randomdotsizeEA/R/9_Ratio_900_L_18_R_20.png","img/250/equaldotsize/L/7_Ratio_250_L_8_R_2.png","img/900/equaldotsize/L/1_Ratio_900_L_10_R_9.png","img/250/randomdotsizeEA/R/9_Ratio_250_L_3_R_12.png","img/250/equaldotsize/R/10_Ratio_250_L_4_R_16.png","img/500/randomdotsizeEA/L/4_Ratio_500_L_18_R_9.png","img/750/equaldotsize/L/8_Ratio_750_L_4_R_3.png","img/250/equaldotanddens/R/6_Ratio_250_L_6_R_24.png","img/500/equaldotsize/L/4_Ratio_500_L_18_R_9.png","img/250/equaldotsize/L/1_Ratio_250_L_8_R_2.png","img/750/equaldotanddens/R/7_Ratio_750_L_3_R_4.png","img/900/equaldotanddens/R/14_Ratio_900_L_18_R_20.png","img/900/equaldotsize/L/10_Ratio_900_L_20_R_18.png","img/900/randomdotsizeEA/R/6_Ratio_900_L_9_R_10.png","img/900/equaldotsize/R/6_Ratio_900_L_9_R_10.png","img/250/randomdotsizeEA/L/5_Ratio_250_L_24_R_6.png","img/500/equaldotsize/R/1_Ratio_500_L_9_R_18.png","img/500/randomdotsizeEA/R/3_Ratio_500_L_10_R_20.png","img/500/equaldotanddens/R/2_Ratio_500_L_3_R_6.png","img/250/equaldotsize/R/9_Ratio_250_L_3_R_12.png","img/750/equaldotanddens/R/4_Ratio_750_L_15_R_20.png","img/900/randomdotsizeEA/L/1_Ratio_900_L_10_R_9.png","img/750/equaldotanddens/L/10_Ratio_750_L_4_R_3.png","img/250/randomdotsizeEA/R/13_Ratio_250_L_2_R_8.png","img/250/equaldotanddens/R/10_Ratio_250_L_4_R_16.png","img/250/equaldotanddens/R/10_Ratio_250_L_4_R_16.png","img/750/randomdotsizeEA/L/13_Ratio_750_L_8_R_6.png","img/250/equaldotanddens/L/7_Ratio_250_L_8_R_2.png","img/750/equaldotanddens/R/4_Ratio_750_L_15_R_20.png","img/250/randomdotsizeEA/L/1_Ratio_250_L_8_R_2.png","img/250/randomdotsizeEA/R/6_Ratio_250_L_6_R_24.png","img/250/randomdotsizeEA/L/1_Ratio_250_L_8_R_2.png","img/900/randomdotsizeEA/R/9_Ratio_900_L_18_R_20.png","img/900/equaldotsize/L/4_Ratio_900_L_20_R_18.png","img/750/randomdotsizeEA/R/12_Ratio_750_L_3_R_4.png","img/250/equaldotanddens/L/15_Ratio_250_L_12_R_3.png","img/750/randomdotsizeEA/R/12_Ratio_750_L_3_R_4.png","img/750/equaldotsize/L/8_Ratio_750_L_4_R_3.png","img/750/randomdotsizeEA/R/12_Ratio_750_L_3_R_4.png","img/900/randomdotsizeEA/L/10_Ratio_900_L_20_R_18.png","img/900/randomdotsizeEA/L/2_Ratio_900_L_20_R_18.png","img/750/equaldotsize/R/11_Ratio_750_L_12_R_16.png","img/500/randomdotsizeEA/R/14_Ratio_500_L_5_R_10.png","img/250/equaldotsize/R/8_Ratio_250_L_1_R_4.png","img/750/equaldotanddens/R/7_Ratio_750_L_3_R_4.png","img/250/randomdotsizeEA/R/10_Ratio_250_L_4_R_16.png","img/500/randomdotsizeEA/R/3_Ratio_500_L_10_R_20.png","img/750/randomdotsizeEA/L/13_Ratio_750_L_8_R_6.png","img/500/equaldotanddens/L/11_Ratio_500_L_12_R_6.png","img/500/equaldotsize/L/13_Ratio_500_L_12_R_6.png","img/250/equaldotsize/L/7_Ratio_250_L_8_R_2.png","img/900/equaldotsize/R/7_Ratio_900_L_9_R_10.png","img/250/equaldotanddens/R/4_Ratio_250_L_3_R_12.png","img/750/equaldotsize/R/15_Ratio_750_L_9_R_12.png","img/900/equaldotanddens/R/3_Ratio_900_L_9_R_10.png","img/500/equaldotsize/L/7_Ratio_500_L_10_R_5.png","img/500/randomdotsizeEA/L/10_Ratio_500_L_4_R_2.png","img/900/equaldotanddens/L/1_Ratio_900_L_10_R_9.png","img/900/equaldotanddens/R/12_Ratio_900_L_18_R_20.png","img/500/equaldotsize/R/1_Ratio_500_L_9_R_18.png","img/750/randomdotsizeEA/R/11_Ratio_750_L_12_R_16.png","img/750/randomdotsizeEA/R/12_Ratio_750_L_3_R_4.png","img/500/equaldotsize/L/5_Ratio_500_L_4_R_2.png","img/750/equaldotanddens/L/13_Ratio_750_L_8_R_6.png","img/900/equaldotsize/L/4_Ratio_900_L_20_R_18.png","img/750/equaldotsize/R/2_Ratio_750_L_6_R_8.png","img/900/equaldotanddens/L/1_Ratio_900_L_10_R_9.png","img/500/equaldotanddens/R/3_Ratio_500_L_10_R_20.png","img/900/equaldotanddens/L/8_Ratio_900_L_20_R_18.png","img/750/equaldotanddens/L/1_Ratio_750_L_20_R_15.png","img/500/equaldotanddens/R/6_Ratio_500_L_9_R_18.png","img/500/equaldotsize/L/11_Ratio_500_L_12_R_6.png","img/750/randomdotsizeEA/R/4_Ratio_750_L_15_R_20.png","img/250/equaldotanddens/L/2_Ratio_250_L_16_R_4.png","img/900/equaldotanddens/L/8_Ratio_900_L_20_R_18.png","img/900/randomdotsizeEA/R/6_Ratio_900_L_9_R_10.png","img/900/equaldotanddens/R/14_Ratio_900_L_18_R_20.png","img/250/equaldotanddens/R/11_Ratio_250_L_3_R_12.png","img/250/equaldotanddens/L/2_Ratio_250_L_16_R_4.png","img/750/equaldotsize/R/4_Ratio_750_L_15_R_20.png","img/500/equaldotsize/R/12_Ratio_500_L_1_R_2.png","img/500/equaldotanddens/L/11_Ratio_500_L_12_R_6.png","img/750/equaldotsize/L/10_Ratio_750_L_4_R_3.png","img/500/randomdotsizeEA/L/10_Ratio_500_L_4_R_2.png","img/500/equaldotsize/R/2_Ratio_500_L_3_R_6.png","img/500/randomdotsizeEA/R/2_Ratio_500_L_3_R_6.png","img/500/equaldotanddens/L/8_Ratio_500_L_8_R_4.png","img/750/equaldotsize/L/9_Ratio_750_L_4_R_3.png","img/500/randomdotsizeEA/L/11_Ratio_500_L_12_R_6.png","img/500/equaldotanddens/R/12_Ratio_500_L_1_R_2.png","img/750/randomdotsizeEA/L/9_Ratio_750_L_4_R_3.png","img/500/randomdotsizeEA/R/14_Ratio_500_L_5_R_10.png","img/900/randomdotsizeEA/L/2_Ratio_900_L_20_R_18.png","img/900/equaldotanddens/R/12_Ratio_900_L_18_R_20.png","img/250/randomdotsizeEA/L/2_Ratio_250_L_16_R_4.png"],"Rat0":[["12_Ratio_0_L_9_R_0.png","13_Ratio_0_L_6_R_0.png","5_Ratio_0_L_2_R_0.png","6_Ratio_0_L_4_R_0.png","8_Ratio_0_L_6_R_0.png"],["1_Ratio_0_L_0_R_17.png","10_Ratio_0_L_0_R_22.png","11_Ratio_0_L_0_R_1.png","14_Ratio_0_L_0_R_24.png","15_Ratio_0_L_0_R_4.png","2_Ratio_0_L_0_R_5.png","3_Ratio_0_L_0_R_17.png","4_Ratio_0_L_0_R_7.png","7_Ratio_0_L_0_R_19.png","9_Ratio_0_L_0_R_15.png"]],"Rat250":[["1_Ratio_250_L_8_R_2.png","14_Ratio_250_L_12_R_3.png","15_Ratio_250_L_12_R_3.png","2_Ratio_250_L_16_R_4.png","3_Ratio_250_L_8_R_2.png","5_Ratio_250_L_24_R_6.png","7_Ratio_250_L_8_R_2.png"],["10_Ratio_250_L_4_R_16.png","11_Ratio_250_L_3_R_12.png","12_Ratio_250_L_5_R_20.png","13_Ratio_250_L_2_R_8.png","4_Ratio_250_L_3_R_12.png","6_Ratio_250_L_6_R_24.png","8_Ratio_250_L_1_R_4.png","9_Ratio_250_L_3_R_12.png"]],"Rat500":[["10_Ratio_500_L_4_R_2.png","11_Ratio_500_L_12_R_6.png","13_Ratio_500_L_12_R_6.png","4_Ratio_500_L_18_R_9.png","5_Ratio_500_L_4_R_2.png","7_Ratio_500_L_10_R_5.png","8_Ratio_500_L_8_R_4.png"],["1_Ratio_500_L_9_R_18.png","12_Ratio_500_L_1_R_2.png","14_Ratio_500_L_5_R_10.png","15_Ratio_500_L_1_R_2.png","2_Ratio_500_L_3_R_6.png","3_Ratio_500_L_10_R_20.png","6_Ratio_500_L_9_R_18.png","9_Ratio_500_L_2_R_4.png"]],"Rat750":[["1_Ratio_750_L_20_R_15.png","10_Ratio_750_L_4_R_3.png","13_Ratio_750_L_8_R_6.png","14_Ratio_750_L_8_R_6.png","6_Ratio_750_L_24_R_18.png","8_Ratio_750_L_4_R_3.png","9_Ratio_750_L_4_R_3.png"],["11_Ratio_750_L_12_R_16.png","12_Ratio_750_L_3_R_4.png","15_Ratio_750_L_9_R_12.png","2_Ratio_750_L_6_R_8.png","3_Ratio_750_L_15_R_20.png","4_Ratio_750_L_15_R_20.png","5_Ratio_750_L_15_R_20.png","7_Ratio_750_L_3_R_4.png"]],"Rat900":[["1_Ratio_900_L_10_R_9.png","10_Ratio_900_L_20_R_18.png","2_Ratio_900_L_20_R_18.png","4_Ratio_900_L_20_R_18.png","8_Ratio_900_L_20_R_18.png"],["11_Ratio_900_L_18_R_20.png","12_Ratio_900_L_18_R_20.png","13_Ratio_900_L_18_R_20.png","14_Ratio_900_L_18_R_20.png","15_Ratio_900_L_9_R_10.png","3_Ratio_900_L_9_R_10.png","5_Ratio_900_L_9_R_10.png","6_Ratio_900_L_9_R_10.png","7_Ratio_900_L_9_R_10.png","9_Ratio_900_L_18_R_20.png"]],"Rat1000":[["10_Ratio_1000_L_16_R_16.png","11_Ratio_1000_L_6_R_6.png","12_Ratio_1000_L_14_R_14.png","13_Ratio_1000_L_20_R_20.png","15_Ratio_1000_L_15_R_15.png","2_Ratio_1000_L_17_R_17.png","4_Ratio_1000_L_9_R_9.png","5_Ratio_1000_L_6_R_6.png","6_Ratio_1000_L_19_R_19.png","8_Ratio_1000_L_14_R_14.png","9_Ratio_1000_L_25_R_25.png"],["1_Ratio_1000_L_1_R_1.png","14_Ratio_1000_L_17_R_17.png","3_Ratio_1000_L_17_R_17.png","7_Ratio_1000_L_6_R_6.png"]]}},{"start_time":1552055593870,"click_time":1552055596142,"finger_time":1552055595121,"fix_duration":1127.9677124207687,"trial":1,"RT":1251,"MT":1021,"sideResp":2,"stimulus":"img/900/equaldotsize/R/3_Ratio_900_L_9_R_10.png","xmouse":[800,800,800,800,800,800,800,800,800,800,800,800,800,800,800,800,800,800,800,800,800,800,800,800,800,800,800,800,800,800,800,800,800,800,800,800,800,800,800,800,800,800,800,800,800,800,800,799,798,797,797,796,796,796,796,795,794,794,794,794,794,792,788,786,781,775,770,761,757,756,755,755,755,755,755,755,755,755,755,755,755,755,755,755,755,755,755,755,760,765,770,777,802,829,847,864,881,908,919,927,932,936,955,969,983,998,1006,1013,1013,1014,1015,1017,1033,1060],"ymouse":[515,515,515,515,515,515,515,515,515,515,515,515,515,515,515,515,515,515,515,515,515,515,515,515,515,515,515,515,515,515,515,515,515,515,515,515,515,515,515,515,515,515,515,515,515,515,514,506,502,499,496,491,489,488,487,486,485,485,484,482,480,475,465,458,447,437,425,404,396,393,391,391,391,391,391,391,391,391,391,391,391,391,391,391,391,391,391,386,371,359,344,327,284,253,238,224,211,190,183,179,176,175,166,160,154,145,141,134,133,132,130,128,115,97],"timestamp_mouse":[11,31,60,71,91,111,131,151,171,191,212,232,251,271,293,312,332,351,372,392,412,431,452,472,491,511,531,552,571,591,611,632,652,671,691,712,732,752,772,791,812,833,852,871,891,911,931,952,971,992,1012,1033,1051,1071,1092,1112,1131,1152,1171,1191,1212,1232,1251,1271,1291,1312,1331,1352,1371,1391,1412,1431,1451,1472,1492,1511,1532,1551,1571,1592,1612,1632,1651,1672,1692,1712,1732,1751,1772,1791,1811,1831,1851,1872,1892,1912,1932,1951,1972,1991,2012,2032,2052,2072,2092,2111,2131,2152,2172,2192,2212,2231,2251,2271],"xSR":741.5,"ySR":469.95,"xT1":424.9,"yT1":0,"xT2":1058.1,"yT2":0,"toosoon":0,"cond_shown":"equaldotsize","ratio_trial":900,"smaller_num":"9","larger_num":"10","correct_side":2,"subjID":"gabrielavargassalinas","gender":"1","age":"9","school":"4"},{"start_time":1552055598386,"click_time":1552055602821,"finger_time":1552055601781,"fix_duration":1282.71335024877,"trial":2,"RT":3395,"MT":1040,"sideResp":2,"stimulus":"img/900/randomdotsizeEA/R/11_Ratio_900_L_18_R_20.png","xmouse":[790,790,790,790,790,790,790,790,790,790,790,790,790,790,790,790,790,790,790,790,790,790,790,790,790,790,790,790,790,790,790,790,790,790,790,790,790,790,790,790,790,790,790,790,790,790,790,790,790,790,790,790,790,790,790,790,790,790,790,790,790,790,790,790,790,790,790,790,790,790,790,790,790,790,790,790,790,790,790,790,790,790,790,790,790,790,790,790,790,790,790,790,790,790,790,790,790,790,790,790,790,790,790,790,790,790,790,790,790,790,790,790,790,790,790,790,790,790,790,790,790,790,790,790,790,790,790,790,790,790,790,790,790,790,790,790,790,790,790,790,790,790,790,790,790,790,790,790,790,790,790,790,790,790,790,790,790,790,790,790,790,790,790,790,794,798,811,821,827,833,839,842,849,855,861,867,869,869,869,869,869,869,873,885,905,916,925,933,937,940,942,946,947,949,950,957,961,965,969,973,979,986,1003,1010,1019,1033,1040,1059,1069,1081,1089,1095,1103,1105,1105,1106,1106,1106,1106,1106,1106,1106],"ymouse":[540,540,540,540,540,540,540,540,540,540,540,540,540,540,540,540,540,540,540,540,540,540,540,540,540,540,540,540,540,540,540,540,540,540,540,540,540,540,540,540,540,540,540,540,540,540,540,540,540,540,540,540,540,540,540,540,540,540,540,540,540,540,540,540,540,540,540,540,540,540,540,540,540,540,540,540,540,540,540,540,540,540,540,540,540,540,540,540,540,540,540,540,540,540,540,540,540,540,540,540,540,540,540,540,540,540,540,540,540,540,540,540,540,540,540,540,540,540,540,540,540,540,540,540,540,540,540,540,540,540,540,540,540,540,540,540,540,540,540,540,540,540,540,540,540,540,540,540,540,540,540,540,540,540,540,540,540,540,540,540,540,540,540,540,536,530,512,487,474,461,447,438,420,404,392,378,374,374,374,374,374,374,370,364,355,350,346,343,341,341,340,339,338,337,336,332,330,327,324,320,316,310,292,283,268,246,233,199,180,163,149,137,113,106,104,104,104,104,103,103,101,98],"timestamp_mouse":[22,35,63,75,96,116,135,156,175,196,215,236,256,276,295,316,336,355,376,395,416,435,456,476,496,517,535,555,576,596,615,635,655,677,695,715,736,756,775,795,816,836,856,877,896,916,936,955,975,995,1016,1036,1057,1076,1096,1116,1135,1156,1175,1195,1216,1236,1255,1275,1295,1315,1335,1356,1375,1395,1416,1436,1457,1476,1495,1515,1535,1555,1576,1596,1616,1636,1655,1675,1695,1716,1735,1755,1776,1797,1816,1835,1855,1876,1897,1916,1936,1955,1975,1995,2016,2035,2056,2076,2095,2115,2135,2156,2176,2196,2217,2236,2255,2276,2296,2315,2335,2356,2375,2395,2415,2435,2456,2476,2495,2515,2536,2556,2577,2596,2616,2636,2657,2676,2695,2715,2735,2755,2775,2795,2815,2835,2855,2876,2895,2915,2935,2955,2976,2996,3015,3035,3056,3076,3095,3115,3137,3156,3176,3195,3216,3237,3255,3276,3296,3317,3335,3355,3376,3395,3415,3435,3455,3476,3495,3515,3537,3555,3576,3596,3615,3635,3655,3675,3695,3715,3735,3755,3776,3795,3815,3837,3855,3875,3896,3915,3937,3955,3976,3995,4015,4036,4055,4076,4095,4116,4136,4156,4175,4195,4216,4237,4255,4275,4295,4315,4336,4357,4376,4396,4415,4435],"xSR":741.5,"ySR":469.95,"xT1":424.9,"yT1":0,"xT2":1058.1,"yT2":0,"toosoon":0,"cond_shown":"randomdotsizeEA","ratio_trial":900,"smaller_num":"18","larger_num":"20","correct_side":2,"subjID":"gabrielavargassalinas","gender":"1","age":"9","school":"4"},{"start_time":1552055606786,"click_time":1552055609143,"finger_time":1552055607961,"fix_duration":1303.413688315953,"trial":3,"RT":1175,"MT":1182,"sideResp":2,"stimulus":"img/250/randomdotsizeEA/R/11_Ratio_250_L_3_R_12.png","xmouse":[789,789,789,789,789,789,789,789,789,789,789,789,789,789,789,789,789,789,789,789,789,789,789,789,789,789,789,789,789,789,789,789,789,789,789,789,789,789,789,789,789,789,789,789,789,789,789,789,789,789,789,789,789,789,789,789,789,781,776,770,764,756,749,739,738,737,735,731,728,725,721,714,701,694,688,684,681,667,660,658,656,651,634,630,627,625,624,621,620,620,620,620,620,620,623,630,649,677,734,760,788,823,863,880,898,912,925,935,951,959,968,982,992,1015,1027,1041,1051,1062],"ymouse":[509,509,509,509,509,509,509,509,509,509,509,509,509,509,509,509,509,509,509,509,509,509,509,509,509,509,509,509,509,509,509,509,509,509,509,509,509,509,509,509,509,509,509,509,509,509,509,509,509,509,509,509,509,509,509,506,502,475,459,441,426,413,404,391,389,388,385,378,374,369,364,352,331,323,316,313,307,298,293,293,290,287,275,272,269,267,265,261,260,260,259,259,258,256,252,248,240,232,216,205,195,185,172,168,163,159,155,152,145,142,138,133,126,110,101,91,83,75],"timestamp_mouse":[15,42,55,75,97,115,135,155,177,196,215,236,255,275,296,315,335,355,375,395,415,435,455,475,495,516,536,555,575,596,615,635,655,676,696,715,736,755,776,796,815,836,855,875,896,916,936,956,976,996,1015,1036,1055,1076,1096,1115,1136,1156,1175,1196,1215,1235,1255,1275,1296,1316,1337,1356,1375,1397,1417,1435,1456,1476,1496,1515,1535,1556,1575,1595,1615,1635,1656,1676,1695,1715,1735,1757,1775,1795,1816,1836,1855,1875,1895,1916,1936,1956,1975,1996,2015,2035,2056,2076,2096,2115,2135,2156,2175,2197,2216,2236,2255,2275,2295,2315,2335,2356],"xSR":741.5,"ySR":469.95,"xT1":424.9,"yT1":0,"xT2":1058.1,"yT2":0,"toosoon":0,"cond_shown":"randomdotsizeEA","ratio_trial":250,"smaller_num":"3","larger_num":"12","correct_side":2,"subjID":"gabrielavargassalinas","gender":"1","age":"9","school":"4"},{"start_time":1552055611264,"click_time":1552055613321,"finger_time":1552055612721,"fix_duration":1161.8665535001112,"trial":4,"RT":1457,"MT":600,"sideResp":1,"stimulus":"img/750/equaldotanddens/L/10_Ratio_750_L_4_R_3.png","xmouse":[786,786,786,786,786,786,786,786,786,786,786,786,786,786,786,786,786,786,786,786,786,786,786,786,786,786,786,786,786,786,786,786,786,786,786,786,786,786,786,786,786,786,786,786,786,786,786,786,786,786,786,786,786,786,786,786,786,786,786,786,786,786,786,786,786,786,786,786,786,780,767,745,722,690,648,635,621,610,600,585,576,570,561,547,520,498,479,461,439,411,405,404,404,404,404,404,404,404,404,411,417,421,426],"ymouse":[519,519,519,519,519,519,519,519,519,519,519,519,519,519,519,519,519,519,519,519,519,519,519,519,519,519,519,519,519,519,519,519,519,519,519,519,519,519,519,519,519,519,519,519,519,519,519,519,519,519,519,519,519,519,519,519,519,519,519,519,519,519,519,519,519,519,519,519,519,516,505,488,469,445,410,397,381,370,359,341,330,323,312,296,259,225,192,156,118,65,53,49,49,49,49,49,49,49,47,47,47,47,47],"timestamp_mouse":[18,37,63,78,98,118,137,158,178,197,217,238,258,278,298,319,339,357,378,397,418,437,457,478,497,518,537,558,579,598,617,638,657,677,697,717,738,757,777,797,817,839,858,878,899,918,937,958,978,997,1018,1038,1057,1077,1099,1118,1138,1157,1177,1197,1217,1237,1258,1278,1298,1317,1337,1357,1377,1398,1418,1437,1457,1477,1497,1517,1537,1557,1578,1597,1619,1638,1659,1678,1698,1718,1737,1757,1778,1797,1817,1837,1857,1877,1897,1918,1938,1958,1978,1997,2017,2037,2057],"xSR":741.5,"ySR":469.95,"xT1":424.9,"yT1":0,"xT2":1058.1,"yT2":0,"toosoon":0,"cond_shown":"equaldotanddens","ratio_trial":750,"smaller_num":"3","larger_num":"4","correct_side":1,"subjID":"gabrielavargassalinas","gender":"1","age":"9","school":"4"},{"start_time":1552055614805,"click_time":1552055616382,"finger_time":1552055616001,"fix_duration":582.012799167908,"trial":5,"RT":1196,"MT":381,"sideResp":1,"stimulus":"img/500/equaldotanddens/L/5_Ratio_500_L_4_R_2.png","xmouse":[812,812,812,812,812,812,812,812,812,812,812,812,812,812,812,812,812,812,812,812,812,812,812,812,812,812,812,812,812,812,812,812,812,812,812,812,812,812,812,812,812,813,815,817,818,819,819,819,819,819,819,819,819,819,819,819,819,817,810,793,766,719,622,589,570,555,541,526,517,509,503,497,491,490,489,489,488,483,481],"ymouse":[497,497,497,497,497,497,497,497,497,497,497,497,497,497,497,497,497,497,497,497,497,497,497,497,497,497,497,497,497,497,497,497,497,497,497,497,497,497,497,497,497,497,493,490,488,487,486,486,486,486,486,486,486,486,486,486,486,482,471,455,434,402,330,307,287,268,244,216,203,191,180,171,157,154,149,144,138,105,90],"timestamp_mouse":[16,45,56,76,97,116,137,158,178,197,217,236,256,276,297,318,336,356,377,396,416,437,457,477,498,517,536,556,577,596,616,636,656,676,698,718,737,757,776,796,816,836,856,877,897,916,936,957,977,996,1017,1038,1057,1077,1096,1116,1136,1157,1178,1196,1216,1236,1256,1278,1296,1316,1337,1357,1377,1396,1416,1436,1457,1476,1497,1516,1537,1557,1577],"xSR":741.5,"ySR":469.95,"xT1":424.9,"yT1":0,"xT2":1058.1,"yT2":0,"toosoon":0,"cond_shown":"equaldotanddens","ratio_trial":500,"smaller_num":"2","larger_num":"4","correct_side":1,"subjID":"gabrielavargassalinas","gender":"1","age":"9","school":"4"},{"start_time":1552055617709,"click_time":1552055619541,"finger_time":1552055619161,"fix_duration":346.72766052976044,"trial":6,"RT":1452,"MT":380,"sideResp":1,"stimulus":"img/900/equaldotanddens/L/10_Ratio_900_L_20_R_18.png","xmouse":[810,810,810,810,810,810,810,810,810,810,810,810,810,810,810,810,810,810,810,810,810,810,810,810,810,810,810,810,810,810,810,810,810,810,810,810,810,810,810,810,810,810,810,810,810,810,810,810,810,810,810,810,810,810,810,810,810,810,810,810,810,810,810,810,810,810,810,810,810,810,805,794,735,612,539,494,487,481,480,478,476,472,467,462,461,459,459,459,459,459,459,459],"ymouse":[524,524,524,524,524,524,524,524,524,524,524,524,524,524,524,524,524,524,524,524,524,524,524,524,524,524,524,524,524,524,524,524,524,524,524,524,524,524,524,524,524,524,524,524,524,524,524,524,524,524,524,524,524,524,524,524,524,524,524,524,524,524,524,524,524,524,524,524,524,524,520,512,474,396,347,308,303,293,291,287,282,273,259,226,211,190,170,151,123,106,103,94],"timestamp_mouse":[13,33,52,72,92,113,133,152,172,193,213,233,254,272,293,312,332,352,373,392,412,432,453,474,493,512,532,552,572,593,613,632,653,672,694,712,732,752,772,794,813,833,853,872,892,912,933,952,972,992,1013,1033,1054,1073,1092,1113,1133,1153,1173,1192,1213,1232,1253,1273,1292,1312,1332,1352,1372,1393,1413,1433,1452,1472,1492,1512,1532,1554,1573,1593,1613,1632,1652,1672,1693,1714,1734,1753,1772,1792,1812,1832],"xSR":741.5,"ySR":469.95,"xT1":424.9,"yT1":0,"xT2":1058.1,"yT2":0,"toosoon":0,"cond_shown":"equaldotanddens","ratio_trial":900,"smaller_num":"18","larger_num":"20","correct_side":1,"subjID":"gabrielavargassalinas","gender":"1","age":"9","school":"4"},{"start_time":1552055621821,"click_time":1552055622742,"finger_time":1552055622581,"fix_duration":1439.0732072419391,"trial":7,"RT":760,"MT":161,"sideResp":1,"stimulus":"img/250/equaldotsize/L/2_Ratio_250_L_16_R_4.png","xmouse":[758,758,758,758,758,758,758,758,758,758,758,758,758,758,758,758,758,758,758,758,758,758,758,758,758,758,758,758,758,758,758,758,758,758,758,758,758,758,738,716,693,666,652,592,549,532,513],"ymouse":[509,509,509,509,509,509,509,509,509,509,509,509,509,509,509,509,509,509,509,509,509,509,509,509,509,509,509,509,509,509,509,509,509,509,509,509,507,497,431,382,326,278,251,161,98,77,53],"timestamp_mouse":[9,21,40,71,80,101,121,141,160,181,200,220,240,261,280,301,320,341,362,381,401,420,441,460,480,500,521,542,560,580,601,620,640,661,681,701,721,741,760,780,800,820,841,860,880,901,921],"xSR":741.5,"ySR":469.95,"xT1":424.9,"yT1":0,"xT2":1058.1,"yT2":0,"toosoon":0,"cond_shown":"equaldotsize","ratio_trial":250,"smaller_num":"4","larger_num":"16","correct_side":1,"subjID":"gabrielavargassalinas","gender":"1","age":"9","school":"4"},{"start_time":1552055623892,"click_time":1552055625683,"finger_time":1552055624502,"fix_duration":250,"trial":8,"RT":610,"MT":1181,"sideResp":2,"stimulus":"img/250/equaldotsize/R/12_Ratio_250_L_5_R_20.png","xmouse":[766,766,766,766,766,766,766,766,766,766,766,766,766,766,766,766,766,766,766,766,766,766,766,766,766,766,766,766,766,770,778,814,845,874,904,910,915,918,918,918,918,919,920,927,931,931,931,931,931,931,931,931,931,931,931,931,931,931,931,931,931,931,931,931,931,931,943,964,986,986,986,986,986,986,986,986,986,986,986,986,986,986,986,986,988,1003,1015,1026,1043,1066],"ymouse":[480,480,480,480,480,480,480,480,480,480,480,480,480,480,480,480,480,480,480,480,480,480,480,480,480,480,480,480,480,473,453,375,297,227,124,98,84,78,78,78,78,78,78,74,73,73,73,73,73,73,73,73,73,73,73,73,73,73,73,73,73,73,73,73,73,73,70,65,57,57,57,57,57,57,57,57,57,57,57,57,57,57,57,57,57,57,57,61,65,72],"timestamp_mouse":[14,41,49,70,89,110,129,150,170,189,209,229,249,269,289,310,330,349,369,389,409,431,449,469,489,509,530,550,569,589,609,629,650,669,690,709,731,750,770,791,811,829,849,870,889,909,929,950,969,989,1009,1029,1049,1069,1089,1110,1129,1149,1170,1191,1210,1229,1249,1269,1289,1311,1329,1350,1370,1389,1409,1429,1450,1470,1490,1509,1529,1549,1569,1589,1609,1629,1650,1669,1689,1709,1729,1749,1769,1790],"xSR":741.5,"ySR":469.95,"xT1":424.9,"yT1":0,"xT2":1058.1,"yT2":0,"toosoon":0,"cond_shown":"equaldotsize","ratio_trial":250,"smaller_num":"5","larger_num":"20","correct_side":2,"subjID":"gabrielavargassalinas","gender":"1","age":"9","school":"4"},{"start_time":1552055630956,"click_time":1552055632241,"finger_time":1552055631921,"fix_duration":1092.5941633548387,"trial":9,"RT":965,"MT":320,"sideResp":2,"stimulus":"img/750/equaldotsize/R/2_Ratio_750_L_6_R_8.png","xmouse":[815,815,815,815,815,815,815,815,815,815,815,815,815,815,815,815,815,815,815,815,815,815,815,815,815,815,815,815,815,815,815,815,815,815,815,815,815,815,815,815,815,815,815,815,815,815,816,833,853,870,891,912,944,977,1006,1034,1064,1103,1114,1122,1125,1127,1139,1146,1149],"ymouse":[504,504,504,504,504,504,504,504,504,504,504,504,504,504,504,504,504,504,504,504,504,504,504,504,504,504,504,504,504,504,504,504,504,504,504,504,504,504,504,504,504,504,504,504,504,504,503,473,447,424,394,359,297,256,228,206,188,170,167,165,164,163,137,114,89],"timestamp_mouse":[9,25,47,65,86,105,127,146,167,186,206,226,245,265,285,306,326,345,365,385,405,426,446,465,485,505,525,546,566,586,605,626,645,665,686,707,726,745,765,786,805,825,845,865,885,906,926,945,965,986,1005,1025,1045,1066,1086,1107,1125,1146,1165,1186,1206,1226,1246,1265,1285],"xSR":741.5,"ySR":469.95,"xT1":424.9,"yT1":0,"xT2":1058.1,"yT2":0,"toosoon":0,"cond_shown":"equaldotsize","ratio_trial":750,"smaller_num":"6","larger_num":"8","correct_side":2,"subjID":"gabrielavargassalinas","gender":"1","age":"9","school":"4"},{"start_time":1552055635269,"click_time":1552055636821,"finger_time":1552055636402,"fix_duration":664.1401414362907,"trial":10,"RT":1133,"MT":419,"sideResp":1,"stimulus":"img/250/randomdotsizeEA/L/14_Ratio_250_L_12_R_3.png","xmouse":[815,815,815,815,815,815,815,815,815,815,815,815,815,815,815,815,815,815,815,815,815,815,815,815,815,815,815,815,815,815,815,815,815,815,815,815,815,815,815,815,815,815,815,815,815,815,815,819,822,824,826,827,828,828,828,828,825,815,806,792,776,759,725,707,686,646,619,578,563,552,541,520,509,499,487,481,478,476],"ymouse":[539,539,539,539,539,539,539,539,539,539,539,539,539,539,539,539,539,539,539,539,539,539,539,539,539,539,539,539,539,539,539,539,539,539,539,539,539,539,539,539,539,539,539,539,539,539,534,523,515,508,502,497,490,486,480,475,467,443,427,407,385,362,321,300,278,243,219,181,168,159,153,147,143,138,129,121,112,98],"timestamp_mouse":[13,33,62,72,93,114,132,153,173,193,212,232,253,272,293,312,332,354,374,394,412,432,452,472,492,512,532,552,573,593,612,633,652,673,692,712,732,752,774,793,812,832,852,872,893,912,932,952,973,993,1012,1032,1052,1073,1092,1112,1133,1152,1172,1194,1213,1232,1253,1272,1292,1312,1332,1352,1372,1392,1412,1434,1452,1474,1494,1512,1532,1552],"xSR":741.5,"ySR":469.95,"xT1":424.9,"yT1":0,"xT2":1058.1,"yT2":0,"toosoon":0,"cond_shown":"randomdotsizeEA","ratio_trial":250,"smaller_num":"3","larger_num":"12","correct_side":1,"subjID":"gabrielavargassalinas","gender":"1","age":"9","school":"4"},{"start_time":1552055637873,"click_time":1552055639121,"finger_time":1552055638901,"fix_duration":250,"trial":11,"RT":1028,"MT":220,"sideResp":2,"stimulus":"img/500/equaldotsize/R/9_Ratio_500_L_2_R_4.png","xmouse":[826,826,826,826,826,826,826,826,826,825,824,819,807,805,805,805,805,805,804,804,804,804,804,804,804,804,804,804,804,804,804,804,804,804,804,804,804,804,804,804,804,804,804,804,804,804,804,810,816,821,829,843,885,913,929,945,962,1001,1026,1056,1087,1115,1158],"ymouse":[523,523,523,523,523,523,523,523,523,523,524,526,529,530,530,530,530,530,530,533,538,540,540,540,540,540,540,540,540,540,540,540,540,540,540,540,540,540,540,540,540,540,540,540,540,540,540,540,537,534,527,508,438,391,362,339,318,273,245,206,175,142,93],"timestamp_mouse":[8,28,58,69,89,109,128,148,169,188,208,228,248,268,289,309,328,348,368,389,408,428,448,469,489,508,528,549,569,589,610,628,649,669,689,708,728,749,768,789,810,828,849,869,888,908,928,948,968,988,1008,1028,1048,1069,1089,1109,1128,1148,1168,1189,1209,1228,1248],"xSR":741.5,"ySR":469.95,"xT1":424.9,"yT1":0,"xT2":1058.1,"yT2":0,"toosoon":0,"cond_shown":"equaldotsize","ratio_trial":500,"smaller_num":"2","larger_num":"4","correct_side":2,"subjID":"gabrielavargassalinas","gender":"1","age":"9","school":"4"},{"start_time":1552055642393,"click_time":1552055643501,"finger_time":1552055643303,"fix_duration":250,"trial":12,"RT":910,"MT":198,"sideResp":2,"stimulus":"img/250/equaldotsize/R/13_Ratio_250_L_2_R_8.png","xmouse":[782,782,782,782,782,782,782,782,782,782,782,782,782,782,782,782,782,782,782,782,782,782,782,782,782,782,782,782,782,782,782,782,782,782,782,782,782,783,785,785,787,788,795,804,818,852,908,933,958,978,990,1004,1036,1055,1075,1108],"ymouse":[536,536,536,536,536,536,536,536,536,536,536,536,536,536,536,536,536,536,536,536,536,536,536,536,536,536,536,536,536,536,536,536,536,536,536,536,536,536,536,536,536,536,532,525,507,446,348,307,272,243,226,207,175,156,131,95],"timestamp_mouse":[9,37,48,68,89,108,130,149,168,188,210,230,248,268,288,309,330,348,368,388,409,429,449,469,488,509,528,548,569,590,609,629,649,668,689,708,728,749,769,789,809,828,848,868,889,910,929,948,968,988,1009,1029,1049,1069,1088,1108],"xSR":741.5,"ySR":469.95,"xT1":424.9,"yT1":0,"xT2":1058.1,"yT2":0,"toosoon":0,"cond_shown":"equaldotsize","ratio_trial":250,"smaller_num":"2","larger_num":"8","correct_side":2,"subjID":"gabrielavargassalinas","gender":"1","age":"9","school":"4"},{"start_time":1552055645781,"click_time":1552055647921,"finger_time":1552055646982,"fix_duration":418.785142050664,"trial":13,"RT":1201,"MT":939,"sideResp":2,"stimulus":"img/900/equaldotsize/L/8_Ratio_900_L_20_R_18.png","xmouse":[806,806,806,806,806,806,806,806,806,806,806,806,806,806,806,806,806,806,806,806,806,806,806,806,806,806,806,806,806,806,806,806,806,806,806,806,806,806,806,806,806,806,806,806,806,806,806,806,806,806,806,806,806,806,802,794,786,778,761,750,738,722,704,666,641,623,611,597,583,576,572,570,569,568,568,568,568,568,568,568,568,568,584,647,681,706,727,753,832,867,894,918,941,977,993,998,1001,1005,1021,1032,1044,1057,1067,1074,1076,1077,1080,1085],"ymouse":[511,511,511,511,511,511,511,511,511,511,511,511,511,511,511,511,511,511,511,511,511,511,511,511,511,511,511,511,511,511,511,511,511,511,511,511,511,511,511,511,511,511,511,511,511,511,511,511,511,511,511,511,511,511,511,511,511,511,506,503,497,487,475,438,400,367,328,286,197,156,115,89,67,48,48,48,48,48,48,48,48,47,47,55,67,82,96,112,141,150,154,154,154,154,150,149,147,144,137,132,127,121,115,108,107,104,100,93],"timestamp_mouse":[9,20,41,61,80,100,122,141,161,180,200,221,241,260,280,300,320,341,361,380,401,422,441,460,481,502,520,540,561,580,601,621,640,661,682,700,720,741,761,781,801,821,840,861,880,900,920,941,962,980,1002,1020,1040,1061,1080,1100,1121,1141,1160,1181,1201,1221,1241,1260,1280,1300,1320,1341,1361,1380,1400,1420,1440,1461,1481,1500,1521,1542,1561,1580,1600,1620,1643,1660,1682,1700,1720,1740,1762,1781,1800,1820,1841,1862,1881,1901,1921,1941,1961,1980,2001,2020,2040,2060,2081,2100,2120,2140],"xSR":741.5,"ySR":469.95,"xT1":424.9,"yT1":0,"xT2":1058.1,"yT2":0,"toosoon":0,"cond_shown":"equaldotsize","ratio_trial":900,"smaller_num":"18","larger_num":"20","correct_side":1,"subjID":"gabrielavargassalinas","gender":"1","age":"9","school":"4"},{"start_time":1552055650237,"click_time":1552055651521,"finger_time":1552055651021,"fix_duration":1434.3668169857722,"trial":14,"RT":784,"MT":500,"sideResp":1,"stimulus":"img/500/equaldotanddens/L/13_Ratio_500_L_12_R_6.png","xmouse":[776,776,776,776,776,776,776,776,776,776,776,776,776,776,776,776,776,776,776,776,776,776,776,776,776,776,776,776,776,776,776,776,776,776,776,776,773,768,756,734,705,698,690,686,682,673,669,666,661,656,648,632,621,607,595,582,560,552,545,539,530,528,527,525,523],"ymouse":[527,527,527,527,527,527,527,527,527,527,527,527,527,527,527,527,527,527,527,527,527,527,527,527,527,527,527,527,527,527,527,527,527,527,527,527,524,518,500,461,387,352,315,286,258,220,209,202,197,193,188,182,180,177,174,172,168,164,157,152,131,119,109,97,80],"timestamp_mouse":[9,24,44,64,84,104,125,145,165,185,204,224,244,264,285,305,325,344,364,384,404,426,445,464,484,504,524,544,565,584,604,624,645,665,684,704,724,744,764,784,804,825,845,864,884,904,924,945,966,986,1005,1024,1045,1065,1086,1105,1124,1144,1164,1185,1205,1224,1244,1264,1284],"xSR":741.5,"ySR":469.95,"xT1":424.9,"yT1":0,"xT2":1058.1,"yT2":0,"toosoon":0,"cond_shown":"equaldotanddens","ratio_trial":500,"smaller_num":"6","larger_num":"12","correct_side":1,"subjID":"gabrielavargassalinas","gender":"1","age":"9","school":"4"},{"start_time":1552055653291,"click_time":1552055657361,"finger_time":1552055654901,"fix_duration":689.2337990545661,"trial":15,"RT":1610,"MT":2460,"sideResp":2,"stimulus":"img/900/equaldotsize/L/4_Ratio_900_L_20_R_18.png","xmouse":[805,805,805,805,805,805,805,805,805,805,805,805,805,805,805,805,805,805,805,805,805,805,805,805,805,805,805,805,805,805,805,805,805,805,805,805,805,805,805,805,805,805,805,805,805,805,805,805,805,805,805,805,805,805,805,805,805,805,805,805,805,805,805,805,805,805,805,804,804,804,804,803,802,797,797,795,795,793,785,767,741,696,636,561,547,545,545,545,554,569,588,616,642,701,734,793,899,934,945,945,945,936,882,692,644,571,548,534,530,534,554,588,637,730,742,759,760,761,753,749,742,730,671,637,637,655,703,763,899,964,1005,1024,1026,1026,1026,1026,1026,1028,1030,1037,1045,1050,1056,1060,1062,1062,1062,1062,1062,1062,1062,1061,1061,997,967,929,894,865,811,786,765,749,735,719,717,712,707,701,683,675,670,669,669,669,669,669,669,669,671,680,694,709,726,763,780,784,786,788,805,822,841,860,881,912,936,955,966,981,1015,1026,1032,1038,1043,1059],"ymouse":[542,542,542,542,542,542,542,542,542,542,542,542,542,542,542,542,542,542,542,542,542,542,542,542,542,542,542,542,542,542,542,542,542,542,542,542,542,542,542,542,542,542,542,542,542,542,542,542,542,542,542,542,542,542,542,542,542,542,542,542,542,542,542,542,542,542,542,541,533,531,528,526,522,504,499,495,494,493,487,476,462,429,389,332,316,311,307,294,285,278,271,265,260,251,250,250,250,249,249,249,249,248,241,227,229,250,261,270,276,277,279,282,282,282,282,283,284,284,285,285,285,285,277,277,277,277,277,277,277,275,271,269,269,269,269,269,269,268,267,263,259,255,250,239,232,230,229,229,229,229,229,228,228,220,217,212,209,208,208,208,208,208,208,206,206,205,204,204,201,200,199,199,199,199,199,199,199,199,199,199,199,199,199,199,199,199,199,199,196,193,184,179,171,157,143,131,125,118,96,88,82,76,73,69],"timestamp_mouse":[10,37,51,71,90,110,131,151,171,190,210,230,251,272,290,310,331,351,370,391,412,431,451,470,490,510,530,551,571,590,610,630,652,671,691,710,730,751,771,790,810,831,851,871,891,910,931,952,971,991,1011,1030,1051,1071,1090,1110,1130,1150,1170,1191,1210,1230,1251,1271,1291,1311,1330,1351,1372,1391,1410,1430,1451,1472,1490,1510,1530,1550,1572,1591,1610,1630,1650,1670,1691,1710,1730,1752,1770,1790,1810,1830,1850,1870,1890,1911,1930,1950,1970,1990,2011,2030,2050,2070,2090,2110,2130,2150,2171,2190,2210,2231,2250,2270,2290,2310,2330,2350,2370,2390,2410,2430,2450,2470,2490,2510,2531,2550,2571,2590,2610,2630,2650,2671,2691,2710,2730,2750,2770,2791,2811,2832,2850,2870,2890,2910,2930,2952,2971,2990,3010,3030,3050,3070,3090,3111,3130,3150,3171,3190,3210,3230,3250,3270,3291,3310,3331,3351,3370,3390,3411,3431,3451,3470,3490,3510,3531,3550,3571,3590,3610,3630,3651,3671,3690,3711,3731,3751,3771,3790,3811,3831,3850,3870,3891,3911,3931,3950,3970,3990,4011,4031,4050,4070],"xSR":741.5,"ySR":469.95,"xT1":424.9,"yT1":0,"xT2":1058.1,"yT2":0,"toosoon":0,"cond_shown":"equaldotsize","ratio_trial":900,"smaller_num":"18","larger_num":"20","correct_side":1,"subjID":"gabrielavargassalinas","gender":"1","age":"9","school":"4"},{"start_time":1552055659914,"click_time":1552055662542,"finger_time":1552055662241,"fix_duration":250,"trial":16,"RT":2327,"MT":301,"sideResp":1,"stimulus":"img/500/randomdotsizeEA/L/4_Ratio_500_L_18_R_9.png","xmouse":[787,787,787,787,787,787,787,787,787,787,787,787,787,787,787,787,787,787,787,787,787,787,787,787,787,787,787,787,787,787,787,787,787,787,787,787,787,787,787,787,787,787,787,787,787,787,787,787,787,787,787,787,787,787,787,787,787,787,787,787,787,787,787,787,787,787,787,787,787,787,787,787,787,787,787,787,787,787,787,787,787,787,787,787,787,787,787,787,787,787,787,787,787,787,787,787,787,787,787,787,787,787,787,787,787,787,787,787,787,787,787,787,787,784,768,742,692,601,574,561,554,551,549,549,548,548,548,548,548,543,532,508],"ymouse":[533,533,533,533,533,533,533,533,533,533,533,533,533,533,533,533,533,533,533,533,533,533,533,533,533,533,533,533,533,533,533,533,533,533,533,533,533,533,533,533,533,533,533,533,533,533,533,533,533,533,533,533,533,533,533,533,533,533,533,533,533,533,533,533,533,533,533,533,533,533,533,533,533,533,533,533,533,533,533,533,533,533,533,533,533,533,533,533,533,533,533,533,533,533,533,533,533,533,533,533,533,533,533,533,533,533,533,533,533,533,533,533,533,531,519,506,479,424,403,389,376,364,355,352,347,339,323,303,229,186,133,82],"timestamp_mouse":[9,40,48,67,88,108,129,147,169,188,209,227,248,267,287,309,327,347,367,388,408,428,447,467,487,507,529,548,568,588,607,627,647,667,687,707,727,747,768,787,808,828,848,868,889,907,927,947,969,988,1008,1027,1048,1067,1087,1107,1128,1148,1167,1188,1208,1229,1247,1268,1288,1307,1327,1348,1369,1388,1407,1427,1447,1467,1487,1508,1527,1547,1567,1588,1607,1627,1647,1668,1688,1707,1727,1747,1767,1788,1807,1827,1847,1869,1889,1907,1927,1948,1967,1987,2008,2028,2048,2067,2088,2107,2127,2147,2168,2187,2207,2227,2248,2268,2287,2307,2327,2349,2367,2387,2407,2427,2449,2467,2488,2507,2527,2547,2567,2587,2608,2628],"xSR":741.5,"ySR":469.95,"xT1":424.9,"yT1":0,"xT2":1058.1,"yT2":0,"toosoon":0,"cond_shown":"randomdotsizeEA","ratio_trial":500,"smaller_num":"9","larger_num":"18","correct_side":1,"subjID":"gabrielavargassalinas","gender":"1","age":"9","school":"4"},{"start_time":1552055663912,"click_time":1552055666003,"finger_time":1552055665921,"fix_duration":469.83030313921483,"trial":17,"RT":2009,"MT":82,"sideResp":2,"stimulus":"img/750/randomdotsizeEA/L/1_Ratio_750_L_20_R_15.png","xmouse":[794,794,794,794,794,794,794,794,794,794,794,794,794,794,794,794,794,794,794,794,794,794,794,794,794,794,794,794,794,794,794,794,794,794,794,794,794,794,794,794,794,794,794,794,794,794,794,794,794,794,794,794,794,794,794,794,794,794,794,794,794,794,794,794,794,794,794,794,794,794,794,794,794,794,794,794,794,794,794,794,794,794,794,794,794,794,794,794,794,794,794,794,794,794,794,794,794,794,802,817,846,879,922,1021,1080],"ymouse":[538,538,538,538,538,538,538,538,538,538,538,538,538,538,538,538,538,538,538,538,538,538,538,538,538,538,538,538,538,538,538,538,538,538,538,538,538,538,538,538,538,538,538,538,538,538,538,538,538,538,538,538,538,538,538,538,538,538,538,538,538,538,538,538,538,538,538,538,538,538,538,538,538,538,538,538,538,538,538,538,538,538,538,538,538,538,538,538,538,538,538,538,538,538,538,538,538,538,523,497,449,389,316,136,29],"timestamp_mouse":[9,29,49,69,89,109,131,149,169,189,210,229,250,270,289,309,330,350,370,390,409,430,450,469,489,510,530,550,570,589,609,630,649,670,690,710,729,749,770,789,810,830,850,871,890,910,929,949,970,989,1010,1030,1050,1070,1089,1109,1130,1149,1170,1189,1209,1230,1249,1270,1289,1310,1330,1349,1370,1390,1410,1429,1449,1470,1489,1509,1530,1550,1571,1590,1609,1629,1649,1670,1690,1711,1729,1749,1769,1790,1809,1829,1849,1869,1890,1909,1931,1950,1969,1989,2009,2029,2050,2069,2090],"xSR":741.5,"ySR":469.95,"xT1":424.9,"yT1":0,"xT2":1058.1,"yT2":0,"toosoon":0,"cond_shown":"randomdotsizeEA","ratio_trial":750,"smaller_num":"15","larger_num":"20","correct_side":1,"subjID":"gabrielavargassalinas","gender":"1","age":"9","school":"4"},{"start_time":1552055667405,"click_time":1552055668902,"finger_time":1552055668322,"fix_duration":302.4983261628621,"trial":18,"RT":917,"MT":580,"sideResp":1,"stimulus":"img/900/equaldotsize/R/13_Ratio_900_L_18_R_20.png","xmouse":[783,783,783,783,783,783,783,783,783,783,783,783,783,783,783,783,783,783,783,783,783,783,783,783,783,783,783,783,783,783,783,783,783,783,783,783,783,783,783,783,783,783,782,777,751,733,713,695,666,653,642,631,622,604,598,593,587,582,570,564,560,554,546,525,520,516,513,512,509,508,508,504,502,497,496],"ymouse":[554,554,554,554,554,554,554,554,554,554,554,554,554,554,554,554,554,554,554,554,554,554,554,554,554,554,554,554,554,554,554,554,554,554,554,554,554,554,554,554,554,554,552,537,498,471,441,409,361,342,327,312,298,259,245,232,220,209,186,173,162,151,140,120,114,109,106,104,103,103,103,102,101,100,99],"timestamp_mouse":[17,44,57,77,96,116,136,157,177,196,216,236,256,276,296,317,338,357,377,397,416,436,456,477,498,517,538,557,577,597,618,636,656,676,696,717,737,758,776,796,816,838,856,876,896,917,937,957,977,996,1016,1038,1056,1076,1097,1116,1137,1156,1177,1196,1218,1236,1257,1277,1297,1317,1338,1356,1377,1396,1416,1436,1456,1477,1497],"xSR":741.5,"ySR":469.95,"xT1":424.9,"yT1":0,"xT2":1058.1,"yT2":0,"toosoon":0,"cond_shown":"equaldotsize","ratio_trial":900,"smaller_num":"18","larger_num":"20","correct_side":2,"subjID":"gabrielavargassalinas","gender":"1","age":"9","school":"4"},{"start_time":1552055669914,"click_time":1552055671422,"finger_time":1552055670722,"fix_duration":250,"trial":19,"RT":808,"MT":700,"sideResp":2,"stimulus":"img/500/equaldotanddens/R/3_Ratio_500_L_10_R_20.png","xmouse":[792,792,792,792,792,792,792,792,792,792,792,792,792,792,792,792,792,792,792,792,792,792,792,792,792,792,792,792,792,792,792,792,792,792,793,794,797,803,809,830,846,862,880,959,1021,1080,1143,1160,1209,1256,1265,1265,1265,1265,1265,1265,1265,1265,1265,1265,1265,1265,1265,1265,1265,1265,1265,1265,1265,1265,1265,1265,1265,1163,1159,1153],"ymouse":[500,501,502,503,503,503,503,503,503,503,503,503,503,503,503,503,503,503,503,503,503,503,503,503,503,503,503,503,503,503,503,503,503,503,504,504,504,504,504,499,492,482,467,395,340,275,190,163,94,23,9,9,9,9,9,9,9,9,9,9,9,9,9,9,9,9,9,9,9,9,9,9,9,8,14,24],"timestamp_mouse":[7,27,47,67,88,107,127,148,168,187,208,228,248,267,288,308,328,348,367,387,407,428,447,467,487,508,528,547,567,587,609,628,648,667,687,707,727,747,767,787,808,828,848,868,887,908,928,948,967,987,1008,1028,1048,1068,1088,1108,1127,1148,1169,1187,1209,1229,1248,1269,1288,1307,1328,1347,1368,1388,1407,1427,1447,1469,1487,1508],"xSR":741.5,"ySR":469.95,"xT1":424.9,"yT1":0,"xT2":1058.1,"yT2":0,"toosoon":0,"cond_shown":"equaldotanddens","ratio_trial":500,"smaller_num":"10","larger_num":"20","correct_side":2,"subjID":"gabrielavargassalinas","gender":"1","age":"9","school":"4"},{"start_time":1552055674057,"click_time":1552055675402,"finger_time":1552055675002,"fix_duration":473.51167255547165,"trial":20,"RT":945,"MT":400,"sideResp":2,"stimulus":"img/750/equaldotanddens/R/7_Ratio_750_L_3_R_4.png","xmouse":[801,801,801,801,801,801,801,801,801,801,801,801,801,801,801,801,801,801,801,801,801,801,801,801,801,801,801,801,801,801,801,801,801,801,801,801,801,801,801,801,801,801,801,801,800,803,815,866,897,926,953,977,1021,1037,1047,1053,1056,1056,1056,1056,1056,1057,1061,1063,1065,1067,1068,1076],"ymouse":[525,525,525,525,525,525,525,525,525,525,525,525,525,525,525,525,525,525,525,525,525,525,525,525,525,525,525,525,525,525,525,525,525,525,525,525,525,525,525,525,525,525,525,525,523,517,501,443,405,364,326,283,204,169,148,133,128,126,126,126,126,123,117,113,110,108,105,94],"timestamp_mouse":[9,25,45,65,84,104,125,145,164,185,204,225,245,264,284,305,324,344,364,384,405,425,446,465,484,504,525,545,565,584,604,625,645,665,684,704,724,744,764,784,805,825,846,864,884,904,924,945,965,984,1004,1025,1045,1064,1085,1105,1125,1144,1165,1185,1205,1224,1245,1264,1284,1304,1325,1344],"xSR":741.5,"ySR":469.95,"xT1":424.9,"yT1":0,"xT2":1058.1,"yT2":0,"toosoon":0,"cond_shown":"equaldotanddens","ratio_trial":750,"smaller_num":"3","larger_num":"4","correct_side":2,"subjID":"gabrielavargassalinas","gender":"1","age":"9","school":"4"},{"start_time":1552055677216,"click_time":1552055679403,"finger_time":1552055678402,"fix_duration":752.9122910791908,"trial":21,"RT":1186,"MT":1001,"sideResp":1,"stimulus":"img/900/randomdotsizeEA/L/2_Ratio_900_L_20_R_18.png","xmouse":[783,783,783,783,783,783,783,783,783,783,783,783,783,783,783,783,783,783,783,783,783,783,783,783,783,783,783,783,783,783,783,783,783,783,783,783,783,783,783,783,783,783,783,783,783,783,783,783,783,783,783,783,783,783,783,783,783,782,777,763,752,741,731,723,705,694,679,663,650,633,609,594,580,566,542,532,529,528,528,528,528,528,528,528,528,528,528,528,528,528,528,528,528,528,528,528,528,528,528,528,528,528,528,528,528,528,528,528,528,524],"ymouse":[502,502,503,503,504,504,504,504,504,505,505,505,505,505,505,505,505,505,505,505,505,505,505,505,505,505,505,505,505,505,505,505,505,505,505,505,505,505,505,505,505,505,505,505,505,505,505,505,505,505,505,505,505,505,505,505,505,503,492,455,431,406,384,364,331,315,297,278,259,229,190,164,139,116,75,62,59,58,58,58,58,57,57,57,57,57,57,57,57,57,57,57,57,57,57,58,58,58,58,58,58,58,58,58,58,58,58,58,58,58],"timestamp_mouse":[9,26,45,65,85,105,127,146,166,185,205,225,246,267,285,305,325,346,366,385,406,426,446,465,485,505,527,546,565,585,606,626,645,665,685,706,725,745,765,786,805,825,845,866,885,905,926,946,966,985,1005,1025,1045,1066,1085,1105,1126,1145,1165,1186,1205,1226,1245,1265,1287,1306,1325,1345,1365,1385,1406,1425,1446,1465,1486,1505,1525,1545,1565,1586,1605,1625,1645,1665,1686,1705,1725,1745,1765,1787,1807,1827,1845,1865,1885,1905,1927,1947,1966,1986,2007,2026,2045,2065,2086,2105,2125,2145,2165,2187],"xSR":741.5,"ySR":469.95,"xT1":424.9,"yT1":0,"xT2":1058.1,"yT2":0,"toosoon":0,"cond_shown":"randomdotsizeEA","ratio_trial":900,"smaller_num":"18","larger_num":"20","correct_side":1,"subjID":"gabrielavargassalinas","gender":"1","age":"9","school":"4"},{"start_time":1552055681488,"click_time":1552055682742,"finger_time":1552055682281,"fix_duration":1006.4171222666353,"trial":22,"RT":793,"MT":461,"sideResp":2,"stimulus":"img/750/equaldotsize/L/14_Ratio_750_L_8_R_6.png","xmouse":[767,767,767,767,767,767,767,767,767,767,767,767,767,767,767,767,767,767,767,767,767,767,767,767,767,767,767,767,767,767,767,767,767,767,767,771,783,803,829,864,898,954,974,998,1017,1032,1050,1055,1059,1061,1062,1066,1067,1068,1069,1070,1072,1073,1073,1074,1075,1079,1082],"ymouse":[511,511,511,511,511,511,511,511,511,511,511,511,511,511,511,511,511,511,511,511,511,511,511,511,511,511,511,511,511,511,511,511,511,511,511,510,506,497,479,452,425,371,347,318,290,264,224,209,196,187,182,172,165,160,157,152,143,138,136,129,123,103,94],"timestamp_mouse":[13,33,62,74,93,113,133,153,174,194,215,233,254,273,293,313,334,354,374,394,413,434,454,474,494,514,534,553,575,594,613,633,653,674,694,713,734,754,774,793,814,833,854,873,893,915,934,954,973,993,1013,1033,1054,1073,1093,1113,1134,1154,1173,1193,1213,1234,1254],"xSR":741.5,"ySR":469.95,"xT1":424.9,"yT1":0,"xT2":1058.1,"yT2":0,"toosoon":0,"cond_shown":"equaldotsize","ratio_trial":750,"smaller_num":"6","larger_num":"8","correct_side":1,"subjID":"gabrielavargassalinas","gender":"1","age":"9","school":"4"},{"start_time":1552055685725,"click_time":1552055687041,"finger_time":1552055686522,"fix_duration":520.1484822798824,"trial":23,"RT":797,"MT":519,"sideResp":1,"stimulus":"img/750/equaldotanddens/L/6_Ratio_750_L_24_R_18.png","xmouse":[789,789,789,789,789,789,789,789,789,789,789,789,789,789,789,789,789,789,789,789,789,789,789,789,789,789,789,789,789,789,789,789,789,789,789,789,784,778,765,737,727,720,712,704,696,670,655,637,620,581,569,556,549,542,531,529,527,526,525,525,525,523,522,520,518,514],"ymouse":[522,522,522,522,522,522,522,522,522,522,522,522,522,522,522,522,522,522,522,522,522,522,522,522,522,522,522,522,522,522,522,522,522,522,522,522,519,515,506,475,458,441,426,411,397,366,348,329,309,256,238,219,205,193,172,164,161,157,156,155,151,142,133,119,100,71],"timestamp_mouse":[18,39,57,76,96,116,136,156,176,197,217,236,256,276,296,316,337,356,376,396,416,437,457,476,496,516,537,556,576,597,616,637,656,676,696,717,736,756,776,796,816,837,856,876,896,916,937,956,978,998,1016,1036,1057,1076,1098,1116,1136,1157,1176,1196,1216,1236,1256,1276,1297,1316],"xSR":741.5,"ySR":469.95,"xT1":424.9,"yT1":0,"xT2":1058.1,"yT2":0,"toosoon":0,"cond_shown":"equaldotanddens","ratio_trial":750,"smaller_num":"18","larger_num":"24","correct_side":1,"subjID":"gabrielavargassalinas","gender":"1","age":"9","school":"4"},{"start_time":1552055689061,"click_time":1552055690001,"finger_time":1552055689881,"fix_duration":1219.3635767198243,"trial":24,"RT":820,"MT":120,"sideResp":2,"stimulus":"img/250/equaldotanddens/R/12_Ratio_250_L_5_R_20.png","xmouse":[770,770,770,770,770,770,770,770,770,770,770,770,770,770,770,770,770,770,770,770,770,770,770,770,770,770,770,770,770,770,770,770,770,770,770,770,770,775,779,804,822,867,911,996,1037,1063,1069,1078],"ymouse":[551,551,551,551,551,551,551,551,551,551,551,551,551,551,551,551,551,551,551,551,551,551,551,551,551,551,551,551,551,551,551,551,551,551,551,551,551,547,542,511,485,403,333,200,148,115,107,95],"timestamp_mouse":[6,21,49,61,81,100,122,141,161,180,200,222,241,260,280,301,320,341,360,380,400,420,440,462,480,501,520,540,560,582,600,620,640,661,680,700,721,740,761,781,800,820,840,862,880,900,920,940],"xSR":741.5,"ySR":469.95,"xT1":424.9,"yT1":0,"xT2":1058.1,"yT2":0,"toosoon":0,"cond_shown":"equaldotanddens","ratio_trial":250,"smaller_num":"5","larger_num":"20","correct_side":2,"subjID":"gabrielavargassalinas","gender":"1","age":"9","school":"4"},{"start_time":1552055693264,"click_time":1552055696181,"finger_time":1552055694601,"fix_duration":401.42776935741,"trial":25,"RT":1337,"MT":1580,"sideResp":1,"stimulus":"img/900/randomdotsizeEA/R/9_Ratio_900_L_18_R_20.png","xmouse":[812,812,812,812,812,812,812,812,812,812,812,812,812,812,812,812,812,812,812,812,812,812,812,812,812,812,812,812,812,812,812,812,812,812,812,812,812,812,812,812,812,812,812,812,812,812,812,812,812,812,812,812,812,812,812,812,812,812,812,812,812,812,812,812,808,805,798,791,786,786,783,774,759,747,723,712,704,702,683,681,681,681,681,677,677,677,674,658,618,601,582,564,550,537,526,526,526,526,526,526,526,526,526,526,526,526,526,526,526,526,526,526,526,526,526,526,526,526,526,526,526,526,526,526,526,526,526,526,526,526,526,526,526,526,526,526,526,526,526,526,526,526,526,526,525,523],"ymouse":[479,479,479,479,479,479,479,479,479,479,479,479,479,479,479,479,479,479,479,479,479,479,479,479,479,479,479,479,479,479,479,479,479,479,479,479,479,479,479,479,479,479,479,479,479,479,479,479,479,479,479,479,479,479,479,479,479,479,479,479,479,479,479,479,475,471,460,448,440,440,438,422,395,370,321,301,284,278,257,255,255,255,255,252,252,252,245,226,169,147,121,98,81,66,55,55,55,55,55,55,55,55,55,55,55,55,55,55,55,55,55,55,55,55,55,55,55,55,55,55,55,55,55,55,55,55,55,55,55,55,55,55,55,55,55,55,55,55,55,55,55,55,55,55,55,56],"timestamp_mouse":[17,37,57,77,98,118,137,158,178,197,217,237,257,277,297,317,338,357,377,397,417,437,457,478,498,517,539,558,577,597,617,638,657,677,698,717,738,757,777,798,817,837,857,877,897,918,938,957,977,998,1017,1037,1057,1077,1097,1119,1139,1157,1177,1197,1217,1237,1258,1277,1297,1318,1337,1358,1377,1397,1417,1437,1458,1478,1498,1517,1538,1557,1577,1598,1618,1638,1657,1677,1697,1717,1737,1757,1778,1798,1819,1837,1857,1878,1902,1917,1937,1957,1978,1997,2017,2039,2058,2078,2097,2119,2138,2157,2178,2197,2218,2237,2257,2278,2297,2318,2337,2357,2377,2399,2417,2437,2457,2478,2497,2517,2537,2557,2578,2597,2617,2637,2658,2678,2698,2717,2737,2758,2777,2797,2817,2837,2857,2879,2897,2917],"xSR":741.5,"ySR":469.95,"xT1":424.9,"yT1":0,"xT2":1058.1,"yT2":0,"toosoon":0,"cond_shown":"randomdotsizeEA","ratio_trial":900,"smaller_num":"18","larger_num":"20","correct_side":2,"subjID":"gabrielavargassalinas","gender":"1","age":"9","school":"4"},{"start_time":1552055701028,"click_time":1552055703681,"finger_time":1552055702062,"fix_duration":1385.6339108243465,"trial":26,"RT":1034,"MT":1619,"sideResp":1,"stimulus":"img/250/equaldotsize/L/7_Ratio_250_L_8_R_2.png","xmouse":[792,792,792,792,792,792,791,791,791,791,791,791,791,791,791,791,791,791,791,791,791,791,791,791,791,791,791,791,791,791,791,791,791,791,791,791,791,791,791,791,791,791,791,791,791,791,791,788,783,775,766,732,714,694,675,663,663,658,658,658,658,658,658,658,658,658,658,658,658,658,658,658,658,658,658,658,658,658,658,658,658,658,658,658,658,658,658,658,658,658,658,658,658,658,658,658,658,658,658,658,658,658,658,658,658,658,644,644,639,634,627,622,621,620,620,620,619,615,612,609,605,594,588,583,577,571,558,557,555,553,549,530,516],"ymouse":[532,532,532,532,532,532,531,531,531,531,531,531,531,531,531,531,531,531,531,531,531,531,531,531,531,531,531,531,531,531,531,531,531,531,531,531,531,531,531,531,531,531,531,531,531,531,531,528,518,507,493,455,431,409,389,377,377,371,370,370,370,370,370,370,370,370,370,370,370,370,370,370,370,370,370,370,370,370,370,370,370,370,370,370,370,370,370,370,370,370,370,370,370,370,370,370,370,370,370,370,370,370,370,370,370,370,331,328,313,291,268,220,205,185,169,155,124,112,100,89,77,56,47,39,29,22,10,10,10,10,10,18,24],"timestamp_mouse":[14,34,53,74,93,114,134,153,173,193,213,233,253,273,293,314,334,354,373,394,414,433,454,473,494,513,533,553,573,593,613,633,653,673,693,713,733,753,774,794,813,833,853,874,893,913,933,954,973,993,1013,1034,1053,1073,1093,1113,1133,1153,1174,1193,1213,1233,1253,1275,1293,1313,1334,1353,1373,1394,1413,1433,1453,1473,1493,1513,1533,1553,1573,1594,1613,1634,1653,1674,1693,1713,1733,1754,1774,1793,1813,1833,1855,1874,1893,1913,1933,1954,1973,1993,2013,2034,2054,2074,2093,2113,2133,2153,2175,2193,2213,2234,2253,2273,2293,2313,2334,2353,2373,2393,2413,2434,2453,2473,2493,2514,2534,2553,2573,2593,2614,2634,2653],"xSR":741.5,"ySR":469.95,"xT1":424.9,"yT1":0,"xT2":1058.1,"yT2":0,"toosoon":0,"cond_shown":"equaldotsize","ratio_trial":250,"smaller_num":"2","larger_num":"8","correct_side":1,"subjID":"gabrielavargassalinas","gender":"1","age":"9","school":"4"},{"start_time":1552055704573,"click_time":1552055707964,"finger_time":1552055707241,"fix_duration":250,"trial":27,"RT":2668,"MT":723,"sideResp":1,"stimulus":"img/900/equaldotsize/L/1_Ratio_900_L_10_R_9.png","xmouse":[778,778,778,778,778,778,778,778,778,778,778,778,778,778,778,778,778,778,778,778,778,778,778,778,778,778,778,778,778,778,778,778,778,778,778,778,778,778,778,778,778,778,778,778,778,778,778,778,778,778,778,778,778,778,778,778,778,778,778,778,778,778,778,778,778,778,778,778,778,778,778,778,778,778,778,778,778,778,778,778,778,778,778,778,778,778,778,778,778,778,778,778,778,778,778,778,778,778,778,778,778,778,778,778,778,778,778,778,778,778,778,778,778,778,778,778,778,778,778,778,778,778,778,778,778,778,778,778,778,778,778,767,757,744,730,729,725,717,716,716,708,702,699,694,683,677,666,664,652,642,629,616,606,593,577,570,565,562,554,544,542,541,541,541,541,540,539,537,535,524],"ymouse":[517,517,517,517,517,517,517,517,517,517,517,517,517,517,517,517,517,517,517,517,517,517,517,517,517,517,517,517,517,517,517,517,517,517,517,517,517,517,517,517,517,517,517,517,517,517,517,517,517,517,517,517,517,517,517,517,517,517,517,517,517,517,517,517,517,517,517,517,517,517,517,517,517,517,517,517,517,517,517,517,517,517,517,517,517,517,517,517,517,517,517,517,517,517,517,517,517,517,517,517,517,517,517,517,517,517,517,517,517,517,517,517,517,517,517,517,517,517,517,517,517,517,517,517,517,517,517,517,517,517,516,502,487,466,440,436,429,410,408,408,395,386,376,359,338,329,312,310,294,279,258,241,226,209,189,178,172,167,155,133,129,127,125,125,124,120,118,115,112,97],"timestamp_mouse":[10,37,48,69,88,109,128,148,168,188,208,228,248,268,289,308,329,348,369,388,409,429,448,468,488,509,529,548,569,588,610,628,648,668,688,709,729,748,768,788,808,828,848,868,888,908,929,948,968,989,1009,1029,1048,1068,1090,1109,1128,1148,1168,1188,1208,1228,1249,1269,1288,1308,1330,1348,1369,1388,1408,1428,1448,1468,1489,1508,1528,1548,1570,1590,1609,1628,1648,1669,1690,1708,1728,1748,1768,1788,1809,1828,1849,1868,1889,1909,1928,1948,1969,1988,2008,2028,2049,2068,2089,2108,2129,2148,2168,2190,2208,2230,2248,2268,2288,2308,2330,2348,2368,2389,2409,2428,2448,2468,2489,2509,2528,2548,2570,2588,2609,2628,2648,2668,2688,2708,2728,2749,2769,2788,2808,2829,2848,2868,2890,2908,2929,2948,2968,2990,3009,3029,3049,3068,3089,3108,3128,3148,3168,3191,3208,3228,3248,3268,3288,3308,3328,3348,3368,3391],"xSR":741.5,"ySR":469.95,"xT1":424.9,"yT1":0,"xT2":1058.1,"yT2":0,"toosoon":0,"cond_shown":"equaldotsize","ratio_trial":900,"smaller_num":"9","larger_num":"10","correct_side":1,"subjID":"gabrielavargassalinas","gender":"1","age":"9","school":"4"},{"start_time":1552055710611,"click_time":1552055712582,"finger_time":1552055712081,"fix_duration":1488.3020062343662,"trial":28,"RT":1470,"MT":501,"sideResp":2,"stimulus":"img/250/randomdotsizeEA/R/9_Ratio_250_L_3_R_12.png","xmouse":[801,801,801,801,801,801,801,801,801,801,801,801,801,801,801,801,801,801,801,801,801,801,801,801,801,801,801,801,801,801,801,801,801,801,801,801,801,801,801,801,801,801,800,800,800,800,800,800,800,800,800,800,800,800,800,800,800,800,800,800,800,800,800,801,801,801,801,801,801,801,803,804,812,847,861,874,885,894,912,923,932,942,958,975,982,991,998,1006,1020,1026,1030,1035,1040,1045,1050,1053,1054,1059,1065],"ymouse":[519,519,519,519,519,519,519,519,519,519,519,519,519,519,519,519,519,519,519,519,519,519,519,519,519,519,519,519,519,519,519,519,519,519,519,519,519,519,519,519,519,518,518,518,518,518,518,518,518,518,518,518,518,518,518,518,518,518,518,518,518,518,518,514,514,514,514,514,514,514,511,510,503,477,465,451,436,422,396,383,371,356,336,302,284,266,250,236,205,189,175,161,149,138,125,120,116,108,99],"timestamp_mouse":[10,59,59,70,91,110,130,151,170,190,210,230,250,270,291,310,330,350,370,391,410,430,450,470,491,511,530,550,571,591,611,631,651,670,690,710,730,750,770,790,810,830,850,870,890,910,930,951,971,990,1011,1030,1050,1070,1090,1110,1130,1151,1170,1190,1210,1230,1251,1271,1290,1310,1330,1351,1370,1390,1410,1431,1450,1470,1490,1510,1530,1550,1571,1591,1610,1630,1651,1671,1691,1711,1732,1750,1770,1792,1812,1831,1851,1871,1890,1911,1931,1950,1971],"xSR":741.5,"ySR":469.95,"xT1":424.9,"yT1":0,"xT2":1058.1,"yT2":0,"toosoon":0,"cond_shown":"randomdotsizeEA","ratio_trial":250,"smaller_num":"3","larger_num":"12","correct_side":2,"subjID":"gabrielavargassalinas","gender":"1","age":"9","school":"4"},{"start_time":1552055715612,"click_time":1552055717122,"finger_time":1552055716501,"fix_duration":1169.7004829145617,"trial":29,"RT":889,"MT":621,"sideResp":2,"stimulus":"img/250/equaldotsize/R/10_Ratio_250_L_4_R_16.png","xmouse":[802,802,802,802,802,802,802,802,802,802,802,802,802,802,802,802,802,802,802,802,802,802,802,802,802,802,802,802,802,802,802,802,802,802,802,802,802,802,802,805,809,811,816,825,859,880,904,924,944,993,1004,1031,1048,1062,1085,1095,1102,1108,1112,1120,1120,1122,1123,1124,1126,1127,1128,1129,1130,1131,1131,1131,1131,1131,1131,1130],"ymouse":[542,542,542,542,542,542,542,542,542,542,542,542,542,542,542,542,542,542,542,542,541,541,541,541,541,541,541,541,541,541,541,541,541,541,541,541,541,541,541,540,540,540,540,539,528,518,505,489,473,428,419,387,367,346,305,286,268,251,236,205,199,186,179,170,156,149,143,135,131,123,120,115,113,109,102,99],"timestamp_mouse":[10,31,50,69,89,109,129,149,170,189,209,229,249,269,290,310,330,350,369,389,410,429,450,469,490,510,530,550,569,589,609,630,649,669,689,709,729,749,770,789,810,829,849,869,889,909,929,949,970,989,1009,1030,1049,1071,1089,1109,1129,1149,1170,1190,1209,1229,1249,1269,1289,1309,1329,1349,1370,1390,1409,1429,1449,1470,1489,1510],"xSR":741.5,"ySR":469.95,"xT1":424.9,"yT1":0,"xT2":1058.1,"yT2":0,"toosoon":0,"cond_shown":"equaldotsize","ratio_trial":250,"smaller_num":"4","larger_num":"16","correct_side":2,"subjID":"gabrielavargassalinas","gender":"1","age":"9","school":"4"},{"start_time":1552055720558,"click_time":1552055722281,"finger_time":1552055721762,"fix_duration":836.8216246197077,"trial":30,"RT":1204,"MT":519,"sideResp":1,"stimulus":"img/500/randomdotsizeEA/L/4_Ratio_500_L_18_R_9.png","xmouse":[798,798,798,798,798,798,798,798,798,798,798,798,798,798,798,798,798,798,798,798,798,798,798,798,798,798,798,798,798,798,798,798,798,798,798,798,798,798,798,798,798,798,798,798,798,798,798,798,798,800,807,810,814,818,818,820,820,820,820,820,816,802,782,733,718,681,639,578,559,549,537,534,528,528,528,527,527,527,527,527,527,527,527,527,527,527,524],"ymouse":[513,513,513,513,513,513,513,513,513,513,513,513,513,513,513,513,513,513,513,513,513,513,513,513,513,513,513,513,513,513,513,513,513,513,513,513,513,513,513,513,513,513,513,513,513,513,513,512,510,509,506,505,503,501,500,500,499,497,483,472,457,424,394,334,316,276,228,140,106,81,52,45,28,26,25,23,23,23,23,23,23,23,23,23,23,23,24],"timestamp_mouse":[12,24,44,63,83,104,124,143,163,183,203,223,243,263,283,303,323,344,363,384,403,423,443,464,484,503,523,543,563,583,604,623,643,663,683,703,723,743,763,783,803,823,844,863,883,904,924,943,963,983,1004,1025,1043,1064,1084,1103,1123,1143,1163,1183,1204,1223,1243,1263,1285,1305,1325,1345,1363,1383,1403,1423,1444,1463,1483,1504,1524,1544,1563,1583,1603,1623,1644,1663,1683,1703,1723],"xSR":741.5,"ySR":469.95,"xT1":424.9,"yT1":0,"xT2":1058.1,"yT2":0,"toosoon":0,"cond_shown":"randomdotsizeEA","ratio_trial":500,"smaller_num":"9","larger_num":"18","correct_side":1,"subjID":"gabrielavargassalinas","gender":"1","age":"9","school":"4"},{"start_time":1552055723929,"click_time":1552055725182,"finger_time":1552055724902,"fix_duration":766.7244307243883,"trial":31,"RT":973,"MT":280,"sideResp":1,"stimulus":"img/750/equaldotsize/L/8_Ratio_750_L_4_R_3.png","xmouse":[797,797,797,797,797,797,797,797,797,797,797,797,797,797,797,797,797,797,797,797,797,797,797,797,797,797,797,797,797,797,797,797,797,797,797,797,797,797,797,797,797,797,797,797,797,791,775,752,730,678,660,601,568,541,506,502,500,498,496,490,486,481,475],"ymouse":[508,508,508,508,508,508,508,508,508,508,508,508,508,508,508,508,508,508,508,508,508,508,508,508,508,508,508,508,508,508,508,508,508,508,508,508,508,508,508,508,508,508,508,508,508,508,500,479,454,392,372,304,272,249,220,213,208,198,189,159,131,115,95],"timestamp_mouse":[13,34,53,72,92,112,133,153,172,193,212,232,254,273,292,313,332,352,372,392,412,432,452,472,492,512,533,552,573,593,612,632,652,672,693,714,732,753,773,793,812,832,853,874,893,912,932,953,973,992,1012,1032,1052,1072,1093,1112,1132,1152,1172,1193,1212,1232,1253],"xSR":741.5,"ySR":469.95,"xT1":424.9,"yT1":0,"xT2":1058.1,"yT2":0,"toosoon":0,"cond_shown":"equaldotsize","ratio_trial":750,"smaller_num":"3","larger_num":"4","correct_side":1,"subjID":"gabrielavargassalinas","gender":"1","age":"9","school":"4"},{"start_time":1552055726433,"click_time":1552055727761,"finger_time":1552055727081,"fix_duration":250,"trial":32,"RT":648,"MT":680,"sideResp":2,"stimulus":"img/250/equaldotanddens/R/6_Ratio_250_L_6_R_24.png","xmouse":[759,759,759,759,759,759,760,760,760,761,761,761,761,761,761,761,761,761,761,761,761,761,761,761,761,761,761,761,761,768,780,796,815,857,882,897,912,928,954,967,977,985,994,994,994,994,994,994,994,994,994,994,994,994,994,994,994,994,994,994,994,994,994,994,994,1099],"ymouse":[504,504,504,504,504,504,505,507,512,513,513,513,513,513,513,513,513,513,513,513,513,513,513,513,513,513,513,513,513,506,489,468,442,372,321,286,248,211,133,96,63,33,8,8,8,8,8,8,8,8,8,8,8,8,8,8,8,8,8,8,8,8,8,8,8,32],"timestamp_mouse":[9,56,68,88,109,129,149,168,188,208,229,248,268,288,308,329,349,368,389,408,429,449,468,488,509,529,548,568,588,608,628,648,668,688,709,728,748,768,789,809,829,848,869,888,908,928,949,968,989,1008,1028,1049,1069,1088,1108,1128,1150,1168,1189,1208,1228,1248,1268,1289,1308,1328],"xSR":741.5,"ySR":469.95,"xT1":424.9,"yT1":0,"xT2":1058.1,"yT2":0,"toosoon":0,"cond_shown":"equaldotanddens","ratio_trial":250,"smaller_num":"6","larger_num":"24","correct_side":2,"subjID":"gabrielavargassalinas","gender":"1","age":"9","school":"4"},{"start_time":1552055731090,"click_time":1552055732782,"finger_time":1552055732282,"fix_duration":766.7353987253601,"trial":33,"RT":1192,"MT":500,"sideResp":1,"stimulus":"img/500/equaldotsize/L/4_Ratio_500_L_18_R_9.png","xmouse":[771,772,772,772,772,772,772,774,774,774,774,774,774,774,774,774,774,774,774,774,774,774,774,774,774,774,774,774,774,774,774,774,774,774,774,774,774,774,774,774,774,774,774,774,774,774,774,774,774,774,774,774,774,774,774,774,774,774,768,757,747,725,713,695,683,664,631,615,610,601,598,582,572,562,550,539,528,515,508,505,503,498,493,488,480],"ymouse":[569,568,563,557,552,547,544,537,536,535,534,534,534,534,534,534,534,534,534,534,534,534,534,534,534,534,534,534,534,534,534,534,534,534,534,534,534,534,534,534,534,534,534,531,527,519,511,505,504,504,504,504,504,504,504,504,503,496,486,466,453,421,407,393,382,370,345,334,328,317,311,282,266,248,226,199,175,143,133,130,127,123,116,106,94],"timestamp_mouse":[12,31,51,74,91,111,132,151,171,191,211,231,252,271,292,312,332,351,371,391,411,431,451,471,492,511,531,551,571,591,611,631,651,672,692,712,732,751,772,792,811,831,851,871,891,912,931,951,971,992,1011,1032,1051,1071,1091,1113,1131,1151,1171,1192,1211,1233,1251,1271,1291,1311,1333,1351,1373,1392,1412,1433,1451,1471,1492,1512,1533,1552,1571,1591,1613,1633,1651,1672,1692],"xSR":741.5,"ySR":469.95,"xT1":424.9,"yT1":0,"xT2":1058.1,"yT2":0,"toosoon":0,"cond_shown":"equaldotsize","ratio_trial":500,"smaller_num":"9","larger_num":"18","correct_side":1,"subjID":"gabrielavargassalinas","gender":"1","age":"9","school":"4"},{"start_time":1552055737200,"click_time":1552055739143,"finger_time":1552055738202,"fix_duration":597.9996502483738,"trial":34,"RT":1002,"MT":941,"sideResp":1,"stimulus":"img/250/equaldotsize/L/1_Ratio_250_L_8_R_2.png","xmouse":[781,781,781,781,781,781,781,781,781,781,781,781,784,789,791,792,793,793,793,793,793,793,793,793,793,793,793,793,793,793,793,793,793,793,793,793,793,793,793,793,793,793,793,793,793,793,793,793,791,786,774,744,674,637,607,581,554,554,554,554,554,554,554,554,554,554,554,554,554,554,554,554,554,554,554,554,554,554,554,554,554,554,554,554,554,554,554,554,554,554,554,554,554,554,421,421,421,444],"ymouse":[525,525,525,525,525,525,525,525,525,525,525,525,523,521,520,520,520,520,520,520,520,520,520,520,520,520,520,520,520,520,520,520,520,520,520,520,520,520,520,520,520,520,520,520,520,520,518,517,512,496,457,351,192,126,82,42,12,12,12,12,12,12,12,12,12,12,12,12,12,12,12,12,12,12,12,12,12,12,12,12,12,12,12,12,12,12,12,12,12,12,12,12,12,12,2,2,2,25],"timestamp_mouse":[9,22,41,61,81,101,122,142,161,181,201,221,241,261,282,303,321,341,361,381,401,421,442,462,482,502,521,542,562,581,601,621,641,661,681,701,721,741,761,781,801,821,841,861,882,903,921,941,961,981,1002,1022,1042,1061,1081,1101,1122,1142,1163,1182,1202,1221,1242,1262,1281,1301,1321,1341,1362,1381,1401,1421,1441,1461,1481,1501,1521,1541,1562,1581,1601,1621,1642,1662,1682,1701,1721,1742,1763,1782,1801,1821,1842,1862,1881,1901,1921,1943],"xSR":741.5,"ySR":469.95,"xT1":424.9,"yT1":0,"xT2":1058.1,"yT2":0,"toosoon":0,"cond_shown":"equaldotsize","ratio_trial":250,"smaller_num":"2","larger_num":"8","correct_side":1,"subjID":"gabrielavargassalinas","gender":"1","age":"9","school":"4"},{"start_time":1552055742310,"click_time":1552055743561,"finger_time":1552055743202,"fix_duration":1327.0581464749098,"trial":35,"RT":892,"MT":359,"sideResp":2,"stimulus":"img/750/equaldotanddens/R/7_Ratio_750_L_3_R_4.png","xmouse":[812,812,812,812,812,812,812,812,812,812,812,812,812,812,812,812,812,812,812,812,812,812,812,812,812,812,812,812,812,812,812,812,812,812,812,812,812,812,812,812,812,812,823,834,846,857,871,900,910,922,934,948,994,1012,1028,1036,1043,1047,1048,1048,1049,1052,1069],"ymouse":[534,534,534,534,534,534,534,534,534,534,534,534,534,534,534,534,534,534,534,534,534,534,534,534,534,534,534,534,534,534,534,534,534,534,534,534,534,534,534,534,534,534,528,519,506,486,460,406,382,356,329,297,190,160,129,107,92,80,79,78,77,74,62],"timestamp_mouse":[12,31,51,71,91,111,132,151,171,191,212,231,252,272,291,311,332,352,372,391,411,431,452,471,491,511,531,551,571,591,611,632,652,671,691,711,732,752,771,791,811,831,851,872,892,912,931,952,973,992,1012,1031,1051,1072,1091,1111,1132,1152,1172,1191,1211,1232,1251],"xSR":741.5,"ySR":469.95,"xT1":424.9,"yT1":0,"xT2":1058.1,"yT2":0,"toosoon":0,"cond_shown":"equaldotanddens","ratio_trial":750,"smaller_num":"3","larger_num":"4","correct_side":2,"subjID":"gabrielavargassalinas","gender":"1","age":"9","school":"4"},{"start_time":1552055744873,"click_time":1552055746462,"finger_time":1552055746162,"fix_duration":250,"trial":36,"RT":1289,"MT":300,"sideResp":2,"stimulus":"img/900/equaldotanddens/R/14_Ratio_900_L_18_R_20.png","xmouse":[820,820,820,820,820,820,820,820,820,820,820,820,820,820,820,820,820,820,820,820,820,820,820,820,820,820,820,820,820,820,820,820,820,820,820,820,820,820,820,820,820,820,820,820,820,820,820,820,820,820,820,820,820,820,820,820,820,820,820,820,820,820,822,827,853,870,887,905,927,962,976,987,996,1004,1023,1034,1044,1051,1057,1064],"ymouse":[516,516,516,516,516,516,516,516,516,516,516,516,516,516,516,516,516,516,516,516,516,516,516,516,516,516,516,516,516,516,516,516,516,516,516,516,516,516,516,516,516,516,516,516,516,516,516,516,516,516,516,516,516,516,516,516,516,516,516,516,516,516,514,509,469,436,403,369,329,262,241,221,203,187,152,136,123,112,103,90],"timestamp_mouse":[9,28,55,69,89,109,129,148,168,189,208,228,248,268,288,308,328,348,368,388,408,428,448,469,489,508,528,548,568,588,608,629,650,669,688,709,728,748,769,788,808,828,849,869,888,908,929,949,968,988,1010,1028,1049,1068,1089,1108,1128,1149,1168,1189,1209,1229,1248,1268,1289,1308,1328,1349,1368,1389,1408,1429,1449,1469,1489,1508,1528,1550,1568,1589],"xSR":741.5,"ySR":469.95,"xT1":424.9,"yT1":0,"xT2":1058.1,"yT2":0,"toosoon":0,"cond_shown":"equaldotanddens","ratio_trial":900,"smaller_num":"18","larger_num":"20","correct_side":2,"subjID":"gabrielavargassalinas","gender":"1","age":"9","school":"4"},{"start_time":1552055748507,"click_time":1552055750781,"finger_time":1552055749841,"fix_duration":1184.4905297902421,"trial":37,"RT":1334,"MT":940,"sideResp":1,"stimulus":"img/900/equaldotsize/L/10_Ratio_900_L_20_R_18.png","xmouse":[810,810,810,810,810,810,810,810,810,810,810,810,810,810,810,810,810,810,810,810,810,810,810,810,810,810,810,810,810,810,810,810,810,810,810,810,810,810,810,805,787,766,765,765,765,765,765,765,765,765,765,765,765,765,765,765,765,765,765,765,765,765,765,765,755,747,729,693,640,638,627,627,627,627,618,600,600,600,600,600,600,600,600,600,600,600,600,600,600,600,600,600,600,598,596,594,592,591,590,589,585,580,575,574,574,573,568,563,545,538,535,531,527,518],"ymouse":[513,513,513,513,513,513,513,513,513,513,513,513,513,513,513,513,513,513,513,513,513,513,513,513,513,513,513,513,513,513,513,513,513,513,513,513,513,513,513,512,501,489,489,489,489,489,489,489,489,489,489,489,489,489,489,489,489,489,489,489,489,489,489,489,486,484,481,475,458,458,455,455,455,455,456,462,462,462,462,462,462,462,462,462,462,462,462,462,462,462,462,462,462,455,446,443,437,431,428,425,415,405,391,391,391,384,356,334,246,202,179,153,120,56],"timestamp_mouse":[15,34,55,75,94,114,135,155,174,195,214,234,255,274,294,314,334,354,375,394,414,435,454,476,494,514,534,555,575,595,614,634,654,674,695,714,734,755,774,796,814,835,854,874,894,916,934,955,974,995,1014,1035,1054,1074,1094,1114,1135,1155,1175,1194,1214,1235,1255,1274,1294,1314,1334,1356,1374,1394,1415,1434,1455,1474,1495,1514,1534,1555,1574,1595,1614,1635,1656,1674,1695,1714,1734,1754,1774,1794,1814,1834,1854,1874,1894,1914,1934,1956,1974,1995,2014,2034,2054,2074,2094,2114,2134,2154,2174,2194,2214,2234,2254,2274],"xSR":741.5,"ySR":469.95,"xT1":424.9,"yT1":0,"xT2":1058.1,"yT2":0,"toosoon":0,"cond_shown":"equaldotsize","ratio_trial":900,"smaller_num":"18","larger_num":"20","correct_side":1,"subjID":"gabrielavargassalinas","gender":"1","age":"9","school":"4"},{"start_time":1552055756048,"click_time":1552055757421,"finger_time":1552055757002,"fix_duration":1165.9230129194682,"trial":38,"RT":954,"MT":419,"sideResp":1,"stimulus":"img/900/randomdotsizeEA/R/6_Ratio_900_L_9_R_10.png","xmouse":[796,796,796,796,796,796,796,796,796,796,796,796,796,796,796,796,796,796,796,796,796,796,796,796,796,796,796,796,796,796,796,795,794,793,793,793,791,791,791,790,790,790,786,784,781,779,771,768,765,762,751,731,718,704,691,679,655,637,615,587,574,562,559,554,545,535,509,503,499],"ymouse":[533,533,533,533,533,533,533,533,533,533,533,533,533,533,533,533,533,533,533,533,533,533,533,533,533,533,533,533,533,532,531,525,522,519,515,513,511,509,508,507,506,505,500,497,492,487,474,469,465,460,445,413,392,372,351,330,287,260,235,205,188,169,160,150,139,128,107,101,96],"timestamp_mouse":[14,44,53,74,95,114,133,153,173,193,213,233,253,273,293,313,333,353,374,393,413,434,453,473,493,513,533,553,573,595,613,633,653,673,693,713,733,753,773,793,813,833,854,873,893,913,934,954,973,993,1014,1034,1053,1074,1094,1113,1134,1153,1174,1193,1214,1233,1254,1273,1294,1314,1335,1353,1373],"xSR":741.5,"ySR":469.95,"xT1":424.9,"yT1":0,"xT2":1058.1,"yT2":0,"toosoon":0,"cond_shown":"randomdotsizeEA","ratio_trial":900,"smaller_num":"9","larger_num":"10","correct_side":2,"subjID":"gabrielavargassalinas","gender":"1","age":"9","school":"4"},{"start_time":1552055759459,"click_time":1552055763202,"finger_time":1552055761961,"fix_duration":876.5947759611975,"trial":39,"RT":2502,"MT":1241,"sideResp":2,"stimulus":"img/900/equaldotsize/R/6_Ratio_900_L_9_R_10.png","xmouse":[787,787,787,787,786,786,786,786,786,786,786,786,786,786,786,786,786,786,786,786,786,786,786,786,786,786,786,786,786,786,786,786,786,786,786,786,786,786,786,786,786,786,786,786,786,786,786,786,786,786,786,786,786,786,786,788,789,791,791,791,791,791,793,793,793,794,794,794,794,794,794,794,794,794,794,794,794,794,794,794,794,794,794,794,794,793,790,783,780,779,779,779,779,779,779,779,779,779,779,779,779,779,779,779,779,779,779,779,779,779,779,779,779,779,779,779,779,779,779,779,779,779,780,781,786,792,795,805,808,809,809,809,810,810,812,813,814,816,816,816,817,817,818,818,818,818,818,818,818,819,821,828,848,860,870,882,890,910,918,925,930,935,939,940,941,941,941,944,945,946,948,949,953,955,959,961,962,963,964,966,972,979,1002,1013,1026,1036,1051,1072],"ymouse":[552,552,552,552,553,553,553,553,553,553,553,553,553,553,553,553,553,553,553,553,553,553,553,553,553,553,553,553,553,553,553,553,553,553,553,553,553,553,553,553,553,553,553,553,553,553,553,553,553,553,553,553,553,551,545,534,529,523,520,519,518,517,511,506,502,500,500,500,500,500,500,500,500,500,500,500,500,500,500,500,500,500,500,500,499,499,500,502,504,504,504,504,504,504,504,504,504,504,504,504,504,504,504,504,504,504,504,504,504,504,504,504,504,504,504,504,504,504,504,504,504,504,502,495,481,465,450,423,414,411,411,411,410,408,406,403,401,399,398,398,398,397,396,396,395,395,395,395,395,395,393,387,367,356,342,328,316,288,277,266,259,252,247,245,244,244,243,239,236,234,231,227,219,214,207,203,202,199,197,194,186,173,147,133,121,109,91,65],"timestamp_mouse":[9,22,42,62,83,102,123,142,163,182,202,222,242,262,282,302,322,342,362,382,402,422,442,463,482,502,522,543,562,582,602,624,643,663,682,702,724,743,762,782,802,822,843,862,882,902,922,942,962,982,1002,1022,1043,1062,1082,1102,1122,1142,1162,1182,1203,1222,1242,1262,1283,1302,1322,1342,1362,1382,1402,1422,1442,1462,1483,1502,1522,1543,1562,1582,1602,1622,1642,1662,1682,1702,1722,1743,1762,1782,1802,1822,1842,1862,1882,1902,1922,1942,1962,1982,2002,2022,2042,2062,2082,2102,2122,2142,2162,2182,2202,2222,2242,2262,2282,2303,2323,2342,2362,2382,2402,2422,2442,2462,2482,2502,2522,2542,2563,2582,2603,2622,2642,2663,2682,2702,2722,2742,2762,2782,2802,2822,2842,2862,2883,2902,2922,2942,2962,2982,3002,3022,3042,3064,3082,3102,3122,3142,3162,3182,3203,3224,3243,3262,3282,3302,3322,3343,3362,3382,3402,3423,3442,3462,3483,3502,3522,3542,3562,3583,3602,3622,3642,3662,3682,3702,3722,3743],"xSR":741.5,"ySR":469.95,"xT1":424.9,"yT1":0,"xT2":1058.1,"yT2":0,"toosoon":0,"cond_shown":"equaldotsize","ratio_trial":900,"smaller_num":"9","larger_num":"10","correct_side":2,"subjID":"gabrielavargassalinas","gender":"1","age":"9","school":"4"},{"start_time":1552055767113,"click_time":1552055768761,"finger_time":1552055768221,"fix_duration":1249.6141162976903,"trial":40,"RT":1108,"MT":540,"sideResp":1,"stimulus":"img/250/randomdotsizeEA/L/5_Ratio_250_L_24_R_6.png","xmouse":[805,805,805,805,805,805,805,805,805,805,805,805,805,805,805,805,805,805,805,805,805,805,805,805,805,805,805,805,805,805,805,805,805,805,805,805,805,805,805,805,805,805,806,806,806,806,805,804,802,799,785,773,766,760,752,728,713,700,684,669,642,616,602,589,579,564,558,554,552,551,549,549,548,546,540,513,499,489,484,481,474,471,466],"ymouse":[552,552,552,552,552,552,552,552,552,552,552,552,552,552,552,552,552,552,552,552,552,552,552,552,552,552,552,552,552,552,552,552,552,552,552,552,552,552,552,552,552,552,552,551,549,548,546,546,542,538,522,512,508,502,495,475,461,444,426,403,356,311,287,263,246,213,198,186,175,162,157,155,154,152,149,141,136,130,125,122,107,102,83],"timestamp_mouse":[13,42,48,68,89,108,128,148,169,188,208,228,248,268,288,308,328,348,368,388,409,428,448,468,488,508,528,548,568,588,609,628,648,669,688,708,728,748,768,788,809,828,849,868,888,909,928,948,968,988,1008,1028,1048,1068,1088,1108,1128,1149,1168,1189,1208,1229,1248,1270,1288,1308,1328,1348,1368,1391,1408,1428,1448,1469,1490,1508,1528,1548,1568,1588,1608,1628,1648],"xSR":741.5,"ySR":469.95,"xT1":424.9,"yT1":0,"xT2":1058.1,"yT2":0,"toosoon":0,"cond_shown":"randomdotsizeEA","ratio_trial":250,"smaller_num":"6","larger_num":"24","correct_side":1,"subjID":"gabrielavargassalinas","gender":"1","age":"9","school":"4"},{"start_time":1552055771593,"click_time":1552055772581,"finger_time":1552055772421,"fix_duration":1011.4083804987168,"trial":41,"RT":828,"MT":160,"sideResp":2,"stimulus":"img/500/equaldotsize/R/1_Ratio_500_L_9_R_18.png","xmouse":[812,812,812,812,812,812,812,812,812,812,812,812,812,812,812,812,812,812,812,812,812,812,812,812,812,812,812,812,812,812,812,812,812,812,812,812,814,816,817,820,825,849,872,901,938,974,1074,1100,1123,1138],"ymouse":[512,512,512,512,512,512,512,512,512,512,512,512,512,512,512,512,512,512,512,512,512,512,512,512,512,512,512,512,512,512,512,512,512,512,512,512,512,512,512,512,510,483,455,413,361,305,170,133,100,80],"timestamp_mouse":[9,40,48,68,88,109,129,148,168,190,208,229,248,269,288,308,328,348,369,388,408,428,449,468,489,509,528,549,568,589,608,628,649,669,688,708,728,748,768,788,808,828,848,869,889,909,928,949,968,988],"xSR":741.5,"ySR":469.95,"xT1":424.9,"yT1":0,"xT2":1058.1,"yT2":0,"toosoon":0,"cond_shown":"equaldotsize","ratio_trial":500,"smaller_num":"9","larger_num":"18","correct_side":2,"subjID":"gabrielavargassalinas","gender":"1","age":"9","school":"4"},{"start_time":1552055774658,"click_time":1552055775941,"finger_time":1552055775541,"fix_duration":1136.7739559078957,"trial":42,"RT":883,"MT":400,"sideResp":2,"stimulus":"img/500/randomdotsizeEA/R/3_Ratio_500_L_10_R_20.png","xmouse":[807,807,807,807,807,807,807,807,807,807,807,807,807,807,807,807,807,807,807,807,807,807,807,807,807,807,807,807,807,807,807,807,807,807,807,807,807,807,807,807,807,807,809,814,866,897,926,953,973,1000,1008,1011,1011,1011,1012,1013,1017,1020,1026,1038,1049,1055,1063,1072,1088],"ymouse":[520,520,520,520,520,520,520,520,520,520,520,520,520,520,520,520,520,520,520,520,520,520,520,520,520,520,520,520,520,520,520,520,520,520,520,520,520,520,520,520,520,520,519,511,422,365,314,269,232,182,171,165,165,165,165,165,164,163,161,154,145,137,124,105,71],"timestamp_mouse":[9,24,43,63,83,103,124,143,163,183,203,223,243,263,283,303,324,343,363,383,403,423,443,463,483,503,524,543,563,591,604,623,643,663,684,703,723,743,763,784,803,823,844,863,883,904,924,943,964,983,1003,1024,1044,1063,1083,1103,1123,1143,1165,1183,1204,1223,1243,1264,1283],"xSR":741.5,"ySR":469.95,"xT1":424.9,"yT1":0,"xT2":1058.1,"yT2":0,"toosoon":0,"cond_shown":"randomdotsizeEA","ratio_trial":500,"smaller_num":"10","larger_num":"20","correct_side":2,"subjID":"gabrielavargassalinas","gender":"1","age":"9","school":"4"},{"start_time":1552055777472,"click_time":1552055778823,"finger_time":1552055778421,"fix_duration":250,"trial":43,"RT":949,"MT":402,"sideResp":2,"stimulus":"img/500/equaldotanddens/R/2_Ratio_500_L_3_R_6.png","xmouse":[797,797,797,797,797,797,797,797,797,797,797,797,797,797,797,797,797,797,797,797,797,797,797,797,797,797,797,797,797,797,797,797,797,797,797,797,797,797,797,797,797,797,797,797,797,816,826,873,995,1026,1047,1065,1075,1080,1080,1080,1080,1080,1086,1087,1088,1089,1089,1091,1092,1094,1095,1096],"ymouse":[517,517,517,517,517,517,517,517,517,517,517,517,517,517,517,517,517,517,517,517,517,517,517,517,517,517,517,517,517,517,517,517,517,517,517,517,517,517,517,517,517,517,517,517,517,493,479,423,275,226,189,162,146,137,136,136,136,136,131,129,128,126,125,119,114,107,101,97],"timestamp_mouse":[9,29,50,69,89,109,129,149,169,189,210,229,249,269,289,309,329,350,369,389,410,429,449,470,491,509,529,549,570,589,609,630,650,669,689,709,729,749,770,789,810,829,849,869,889,909,929,949,969,989,1010,1030,1050,1069,1090,1109,1129,1149,1169,1190,1209,1229,1249,1270,1290,1309,1329,1350],"xSR":741.5,"ySR":469.95,"xT1":424.9,"yT1":0,"xT2":1058.1,"yT2":0,"toosoon":0,"cond_shown":"equaldotanddens","ratio_trial":500,"smaller_num":"3","larger_num":"6","correct_side":2,"subjID":"gabrielavargassalinas","gender":"1","age":"9","school":"4"},{"start_time":1552055780073,"click_time":1552055780941,"finger_time":1552055780601,"fix_duration":250,"trial":44,"RT":528,"MT":340,"sideResp":2,"stimulus":"img/250/equaldotsize/R/9_Ratio_250_L_3_R_12.png","xmouse":[800,800,800,800,800,800,800,800,800,800,800,800,800,800,800,800,800,800,800,800,800,800,800,812,823,835,847,861,882,890,897,907,916,926,945,953,960,971,993,1006,1021,1033,1047,1071],"ymouse":[560,560,560,560,560,560,560,560,560,560,560,560,560,560,560,560,560,560,560,560,560,560,550,528,510,479,454,418,375,360,343,326,310,291,258,244,230,213,175,152,126,104,80,38],"timestamp_mouse":[9,28,48,74,88,108,128,148,168,189,208,228,248,268,288,309,328,349,368,388,408,428,449,468,488,508,528,548,568,588,609,628,648,668,689,708,728,749,769,789,808,828,848,868],"xSR":741.5,"ySR":469.95,"xT1":424.9,"yT1":0,"xT2":1058.1,"yT2":0,"toosoon":0,"cond_shown":"equaldotsize","ratio_trial":250,"smaller_num":"3","larger_num":"12","correct_side":2,"subjID":"gabrielavargassalinas","gender":"1","age":"9","school":"4"},{"start_time":1552055783510,"click_time":1552055784881,"finger_time":1552055784102,"fix_duration":1446.4750625114475,"trial":45,"RT":592,"MT":779,"sideResp":2,"stimulus":"img/750/equaldotanddens/R/4_Ratio_750_L_15_R_20.png","xmouse":[776,776,776,776,776,776,776,776,776,776,776,776,776,776,776,776,776,776,776,776,776,776,776,776,776,776,775,778,784,794,803,833,844,860,869,881,895,927,945,959,972,981,993,1006,1018,1028,1038,1058,1070,1077,1080,1081,1082,1082,1082,1082,1082,1082,1082,1082,1082,1082,1082,1082,1082,1083,1083,1083,1083],"ymouse":[532,532,532,532,532,532,532,532,532,532,532,532,532,532,532,532,532,532,532,532,532,532,532,532,532,532,532,519,496,464,429,352,325,288,266,245,224,186,169,151,135,122,108,104,103,102,102,101,101,101,101,101,101,101,101,101,101,100,100,100,100,100,100,100,100,100,100,100,99],"timestamp_mouse":[11,36,51,71,91,112,132,152,171,191,211,231,251,271,291,311,331,352,372,391,411,431,452,471,491,511,532,551,571,592,611,633,651,671,691,711,731,752,771,791,811,832,851,871,891,911,931,952,971,991,1011,1032,1051,1071,1091,1111,1133,1151,1171,1191,1212,1233,1251,1271,1291,1312,1331,1351,1371],"xSR":741.5,"ySR":469.95,"xT1":424.9,"yT1":0,"xT2":1058.1,"yT2":0,"toosoon":0,"cond_shown":"equaldotanddens","ratio_trial":750,"smaller_num":"15","larger_num":"20","correct_side":2,"subjID":"gabrielavargassalinas","gender":"1","age":"9","school":"4"},{"start_time":1552055786864,"click_time":1552055788362,"finger_time":1552055787781,"fix_duration":860.0675594180332,"trial":46,"RT":917,"MT":581,"sideResp":2,"stimulus":"img/900/randomdotsizeEA/L/1_Ratio_900_L_10_R_9.png","xmouse":[814,814,814,814,814,814,814,814,814,814,814,814,814,814,814,814,814,814,814,814,814,814,814,814,814,814,814,814,814,814,814,814,814,814,814,814,814,814,814,814,814,814,814,814,823,852,891,958,1041,1195,1219,1219,1219,1219,1219,1219,1219,1219,1219,1219,1219,1219,1219,1219,1219,1219,1219,1219,1219,1219,1219,1219,1219,1219,1153],"ymouse":[500,500,500,500,500,500,500,500,500,500,500,500,500,500,500,500,500,500,500,500,500,500,500,500,500,500,500,500,500,500,500,500,500,500,500,500,500,500,500,500,500,500,500,499,478,442,396,323,239,59,23,23,23,23,23,23,23,23,23,23,23,23,23,23,23,23,23,23,23,23,23,23,23,23,16],"timestamp_mouse":[17,38,57,77,97,117,137,157,177,197,217,237,258,277,297,317,337,358,377,397,417,437,457,477,498,517,537,557,577,598,617,637,657,677,698,717,737,757,778,798,817,837,857,877,897,917,937,957,977,998,1017,1037,1057,1077,1097,1117,1137,1157,1177,1197,1218,1237,1257,1277,1297,1317,1337,1357,1377,1397,1417,1437,1457,1477,1498],"xSR":741.5,"ySR":469.95,"xT1":424.9,"yT1":0,"xT2":1058.1,"yT2":0,"toosoon":0,"cond_shown":"randomdotsizeEA","ratio_trial":900,"smaller_num":"9","larger_num":"10","correct_side":1,"subjID":"gabrielavargassalinas","gender":"1","age":"9","school":"4"},{"start_time":1552055790924,"click_time":1552055792341,"finger_time":1552055791662,"fix_duration":1480.8072918154785,"trial":47,"RT":738,"MT":679,"sideResp":1,"stimulus":"img/750/equaldotanddens/L/10_Ratio_750_L_4_R_3.png","xmouse":[790,790,790,790,790,790,790,790,790,790,790,790,790,790,790,790,790,790,790,790,790,790,790,790,790,790,790,790,790,790,790,790,790,791,795,799,804,806,806,806,806,801,799,793,785,773,735,714,691,655,633,616,584,570,558,549,543,537,534,534,534,534,534,534,534,532,531,528,528,527,524],"ymouse":[520,520,520,520,520,520,520,520,520,520,520,520,520,520,520,520,520,520,520,520,520,520,520,520,520,520,520,520,520,520,519,512,505,496,485,471,443,433,426,419,415,407,403,396,386,371,326,298,260,187,155,121,73,54,36,24,16,9,8,8,7,7,7,7,7,8,10,12,12,13,13],"timestamp_mouse":[17,37,57,77,97,117,137,158,178,197,218,237,257,277,297,317,337,357,377,397,417,437,457,478,497,517,537,557,577,597,617,637,657,677,697,718,738,757,777,797,817,838,857,877,897,918,938,957,977,997,1017,1038,1057,1078,1097,1117,1138,1157,1178,1198,1217,1237,1257,1277,1297,1317,1337,1357,1377,1397,1417],"xSR":741.5,"ySR":469.95,"xT1":424.9,"yT1":0,"xT2":1058.1,"yT2":0,"toosoon":0,"cond_shown":"equaldotanddens","ratio_trial":750,"smaller_num":"3","larger_num":"4","correct_side":1,"subjID":"gabrielavargassalinas","gender":"1","age":"9","school":"4"},{"start_time":1552055793753,"click_time":1552055794922,"finger_time":1552055794541,"fix_duration":510.6237931162869,"trial":48,"RT":788,"MT":381,"sideResp":2,"stimulus":"img/250/randomdotsizeEA/R/13_Ratio_250_L_2_R_8.png","xmouse":[788,788,788,788,788,788,788,788,788,788,788,788,788,788,788,788,788,788,788,788,788,788,788,788,788,788,788,788,788,788,788,788,788,788,788,789,791,797,807,822,862,882,907,925,926,945,947,950,955,963,974,992,1000,1010,1018,1029,1047,1058,1062],"ymouse":[541,541,541,541,541,541,541,541,541,541,541,541,541,541,541,541,541,541,541,541,541,541,541,541,541,541,541,541,541,541,541,541,541,541,541,541,530,512,488,452,358,312,262,226,223,192,188,184,179,173,166,153,146,138,131,123,104,93,88],"timestamp_mouse":[9,40,48,68,88,108,128,149,168,188,208,229,249,268,288,309,328,349,368,388,409,428,448,468,488,508,528,548,568,589,608,629,648,668,688,708,728,748,768,788,810,828,848,868,889,910,928,949,968,988,1008,1029,1048,1068,1088,1108,1128,1149,1169],"xSR":741.5,"ySR":469.95,"xT1":424.9,"yT1":0,"xT2":1058.1,"yT2":0,"toosoon":0,"cond_shown":"randomdotsizeEA","ratio_trial":250,"smaller_num":"2","larger_num":"8","correct_side":2,"subjID":"gabrielavargassalinas","gender":"1","age":"9","school":"4"},{"start_time":1552055796411,"click_time":1552055797721,"finger_time":1552055797282,"fix_duration":687.0197422286615,"trial":49,"RT":871,"MT":439,"sideResp":2,"stimulus":"img/250/equaldotanddens/R/10_Ratio_250_L_4_R_16.png","xmouse":[800,800,800,800,800,800,800,800,800,800,800,800,800,800,800,800,800,800,800,800,800,799,799,799,799,799,799,798,798,797,797,797,797,797,797,797,797,797,796,796,799,804,816,867,888,915,942,949,956,976,987,994,1003,1009,1010,1011,1013,1014,1020,1024,1028,1032,1039,1057,1064,1071],"ymouse":[551,551,551,551,551,551,551,551,551,551,551,551,551,551,551,551,551,551,551,551,551,551,551,551,551,551,551,551,551,551,551,551,551,551,551,551,551,551,551,543,531,514,489,403,363,316,268,255,249,219,204,196,186,179,178,177,176,174,169,164,160,153,144,114,102,91],"timestamp_mouse":[14,30,50,71,91,111,130,150,170,190,210,230,251,271,292,310,330,350,370,390,410,430,450,471,490,510,530,551,570,590,610,630,650,670,690,710,730,750,770,791,811,831,850,871,891,910,930,951,970,991,1011,1030,1050,1070,1090,1110,1130,1150,1170,1192,1211,1230,1250,1271,1291,1310],"xSR":741.5,"ySR":469.95,"xT1":424.9,"yT1":0,"xT2":1058.1,"yT2":0,"toosoon":0,"cond_shown":"equaldotanddens","ratio_trial":250,"smaller_num":"4","larger_num":"16","correct_side":2,"subjID":"gabrielavargassalinas","gender":"1","age":"9","school":"4"},{"start_time":1552055798893,"click_time":1552055800161,"finger_time":1552055799661,"fix_duration":250,"trial":50,"RT":768,"MT":500,"sideResp":2,"stimulus":"img/250/equaldotanddens/R/10_Ratio_250_L_4_R_16.png","xmouse":[772,772,772,772,772,772,772,772,772,772,772,772,772,772,772,772,772,772,772,772,772,772,772,772,772,772,772,772,772,772,772,772,772,772,775,781,787,799,821,843,893,911,925,938,961,971,983,986,993,1010,1018,1026,1034,1040,1045,1051,1054,1056,1059,1060,1061,1062,1064,1065],"ymouse":[568,568,568,568,568,568,568,568,568,568,568,568,568,568,568,568,568,568,568,568,568,568,568,568,568,568,568,568,568,568,568,568,568,567,551,537,519,497,457,427,366,344,325,310,284,276,265,262,257,236,225,212,199,184,172,151,140,132,122,113,109,106,102,98],"timestamp_mouse":[8,28,48,68,88,108,128,149,169,188,208,229,248,268,288,308,329,349,368,389,408,428,448,468,488,508,528,549,568,588,608,628,648,668,688,709,729,749,768,789,809,828,848,868,889,908,929,948,968,989,1008,1028,1048,1068,1088,1108,1128,1148,1168,1189,1208,1228,1248,1268],"xSR":741.5,"ySR":469.95,"xT1":424.9,"yT1":0,"xT2":1058.1,"yT2":0,"toosoon":0,"cond_shown":"equaldotanddens","ratio_trial":250,"smaller_num":"4","larger_num":"16","correct_side":2,"subjID":"gabrielavargassalinas","gender":"1","age":"9","school":"4"},{"start_time":1552055802061,"click_time":1552055803321,"finger_time":1552055803201,"fix_duration":918.7529486269343,"trial":51,"RT":1140,"MT":120,"sideResp":1,"stimulus":"img/750/randomdotsizeEA/L/13_Ratio_750_L_8_R_6.png","xmouse":[785,785,785,785,785,785,785,785,785,785,785,785,785,785,785,785,785,785,785,785,785,785,785,785,785,785,785,785,785,785,785,785,785,785,785,785,785,785,785,785,785,785,785,785,785,785,785,785,785,785,785,785,785,783,781,773,758,696,632,593,559,529,481,468],"ymouse":[547,547,547,547,547,547,547,547,547,547,547,547,547,547,547,547,547,547,547,547,547,547,547,547,547,547,547,547,547,547,547,547,547,547,547,547,547,547,547,547,547,547,547,547,547,547,547,547,547,547,547,547,547,544,536,519,493,398,322,269,222,179,107,81],"timestamp_mouse":[9,20,40,60,80,100,120,141,160,180,200,220,241,260,280,300,320,341,360,380,400,420,440,460,480,500,520,540,560,581,600,621,640,661,680,700,720,740,760,780,800,820,841,861,880,900,920,940,960,980,1000,1020,1040,1060,1080,1100,1120,1140,1161,1180,1200,1221,1241,1260],"xSR":741.5,"ySR":469.95,"xT1":424.9,"yT1":0,"xT2":1058.1,"yT2":0,"toosoon":0,"cond_shown":"randomdotsizeEA","ratio_trial":750,"smaller_num":"6","larger_num":"8","correct_side":1,"subjID":"gabrielavargassalinas","gender":"1","age":"9","school":"4"},{"start_time":1552055805598,"click_time":1552055806721,"finger_time":1552055806321,"fix_duration":1094.408006644343,"trial":52,"RT":723,"MT":400,"sideResp":1,"stimulus":"img/250/equaldotanddens/L/7_Ratio_250_L_8_R_2.png","xmouse":[793,793,793,793,793,793,793,793,793,793,793,793,793,793,793,793,793,793,793,793,793,793,793,793,793,793,793,793,793,793,793,793,793,793,793,793,787,783,778,775,769,765,761,752,742,720,709,697,686,676,622,593,564,542,525,512,510],"ymouse":[520,520,520,520,520,520,520,520,520,520,520,520,520,520,520,520,520,520,520,520,520,520,520,520,520,520,520,520,520,520,520,520,520,519,513,486,464,441,418,396,346,326,307,283,257,204,184,170,161,155,138,131,123,115,108,101,99],"timestamp_mouse":[9,23,43,63,83,104,123,143,163,183,204,223,243,264,283,303,324,343,363,383,403,423,444,465,483,503,524,543,563,583,603,623,644,663,683,703,723,744,763,783,803,824,843,864,883,903,923,943,963,983,1004,1025,1044,1063,1083,1103,1123],"xSR":741.5,"ySR":469.95,"xT1":424.9,"yT1":0,"xT2":1058.1,"yT2":0,"toosoon":0,"cond_shown":"equaldotanddens","ratio_trial":250,"smaller_num":"2","larger_num":"8","correct_side":1,"subjID":"gabrielavargassalinas","gender":"1","age":"9","school":"4"},{"start_time":1552055809247,"click_time":1552055810121,"finger_time":1552055809901,"fix_duration":1244.8156977587457,"trial":53,"RT":654,"MT":220,"sideResp":2,"stimulus":"img/750/equaldotanddens/R/4_Ratio_750_L_15_R_20.png","xmouse":[771,771,771,771,771,771,771,771,771,771,771,771,771,771,771,771,771,771,771,771,771,771,771,771,771,771,771,771,771,774,780,802,834,893,930,961,1001,1033,1048,1073,1094,1114,1148,1158],"ymouse":[529,529,529,529,529,529,529,529,529,529,529,529,529,529,529,529,529,529,529,529,529,529,529,529,529,529,529,529,529,523,513,477,433,355,307,272,237,213,200,176,154,134,100,88],"timestamp_mouse":[15,36,54,74,95,114,134,154,174,196,214,235,255,275,295,314,335,355,374,394,414,434,454,474,495,514,534,554,573,593,614,634,654,674,695,714,735,756,774,794,814,834,855,873],"xSR":741.5,"ySR":469.95,"xT1":424.9,"yT1":0,"xT2":1058.1,"yT2":0,"toosoon":0,"cond_shown":"equaldotanddens","ratio_trial":750,"smaller_num":"15","larger_num":"20","correct_side":2,"subjID":"gabrielavargassalinas","gender":"1","age":"9","school":"4"},{"start_time":1552055813099,"click_time":1552055814121,"finger_time":1552055813982,"fix_duration":777.0060682201604,"trial":54,"RT":883,"MT":139,"sideResp":1,"stimulus":"img/250/randomdotsizeEA/L/1_Ratio_250_L_8_R_2.png","xmouse":[810,810,810,810,810,810,810,810,810,810,810,810,810,810,810,810,810,810,810,810,810,810,810,810,810,809,809,809,809,80