[{"start_time":1552054914773,"click_time":1552054917323,"finger_time":1552054916263,"fix_duration":1063.2917982642323,"trial":0,"RT":1490,"MT":1060,"sideResp":1,"stimulus":[],"xmouse":[786,786,786,786,786,786,786,786,786,786,786,786,786,786,786,786,786,786,786,786,786,786,786,786,786,786,786,786,786,786,786,786,786,786,786,786,786,786,786,786,786,786,786,786,786,786,786,786,786,786,786,786,786,786,786,786,786,786,786,786,786,786,786,786,785,785,783,783,781,781,781,781,781,773,769,768,768,767,767,767,767,767,766,759,753,748,742,738,737,737,737,737,737,737,737,737,737,737,737,737,734,721,714,633,603,584,572,572,572,572,572,572,572,572,572,572,572,572,572,572,421,421,425,425,425,425,426],"ymouse":[537,537,537,537,537,537,537,537,537,537,537,537,537,537,537,537,537,537,537,537,537,537,537,537,537,537,537,537,537,537,537,537,537,537,537,537,537,537,537,537,537,537,537,537,537,537,537,537,537,537,537,537,537,537,537,537,537,537,537,537,537,537,537,537,534,531,528,526,520,517,510,499,483,439,428,426,424,423,423,423,423,423,423,410,400,388,374,357,354,351,351,351,351,351,351,351,351,351,351,351,347,315,295,140,82,41,16,16,16,16,16,16,16,16,16,16,16,16,16,16,0,0,0,0,0,0,1],"timestamp_mouse":[35,50,70,90,111,131,150,170,190,211,230,251,271,291,311,330,350,370,392,411,431,450,471,491,510,530,550,571,591,610,630,650,671,690,710,731,750,770,790,810,831,851,870,890,911,931,951,971,991,1010,1031,1050,1070,1091,1110,1130,1150,1171,1190,1210,1231,1250,1270,1290,1311,1332,1351,1370,1390,1411,1431,1450,1470,1490,1511,1532,1551,1571,1591,1610,1631,1650,1670,1691,1710,1731,1750,1771,1791,1811,1831,1851,1870,1891,1910,1931,1951,1971,1991,2011,2031,2051,2071,2091,2110,2132,2151,2171,2191,2212,2231,2250,2271,2291,2311,2330,2351,2371,2391,2411,2432,2451,2471,2491,2511,2531,2550],"xSR":741.5,"ySR":501.8,"xT1":424.9,"yT1":0,"xT2":1058.1,"yT2":0,"toosoon":0,"cond_shown":"Congruent","ratio_trial":200,"L_num":11,"L_den":22,"R_num":3,"R_den":10,"correct_side":1,"subjID":"gabrielavargassalinas","gender":"1","age":"9","school":"4","test":{"fix_dur":[250,1500],"timestim":1000,"targets_dim":[100,100],"targets_relative_coord":[0.3,0.7],"size_stim":[880,420],"start_dim":[100,100],"size_start":[300,300],"size_fix":60,"samplingrate":20,"img_types":["Congruent","Incongruent"],"ratios":[100,200,300],"rep_conds":19,"nTrials":120,"trials_to_rest":500,"Trials_order":[50,12,110,94,53,27,58,96,38,112,52,64,10,59,78,118,62,17,91,90,108,23,61,89,43,60,1,109,66,2,14,47,65,77,76,106,39,104,105,29,81,117,13,73,54,70,35,9,19,46,72,68,69,57,102,93,37,51,49,5,16,119,41,88,55,26,107,74,115,4,83,45,7,95,25,87,11,32,33,63,8,3,67,92,56,36,80,75,85,20,99,28,21,101,48,100,98,116,31,34,15,18,42,86,30,103,40,6,44,82,24,111,0,71,84,113,97,79,114,22],"cond_shown":["Congruent","Congruent","Congruent","Congruent","Incongruent","Incongruent","Congruent","Congruent","Congruent","Congruent","Congruent","Congruent","Congruent","Incongruent","Congruent","Congruent","Congruent","Incongruent","Incongruent","Congruent","Congruent","Incongruent","Incongruent","Incongruent","Incongruent","Congruent","Incongruent","Incongruent","Congruent","Congruent","Congruent","Incongruent","Incongruent","Incongruent","Congruent","Congruent","Incongruent","Congruent","Incongruent","Incongruent","Incongruent","Incongruent","Incongruent","Incongruent","Congruent","Congruent","Incongruent","Incongruent","Incongruent","Congruent","Congruent","Congruent","Incongruent","Incongruent","Congruent","Incongruent","Incongruent","Incongruent","Incongruent","Incongruent","Congruent","Incongruent","Incongruent","Congruent","Incongruent","Congruent","Incongruent","Congruent","Incongruent","Congruent","Incongruent","Incongruent","Incongruent","Incongruent","Incongruent","Incongruent","Incongruent","Congruent","Incongruent","Incongruent","Congruent","Incongruent","Incongruent","Congruent","Congruent","Congruent","Congruent","Incongruent","Incongruent","Congruent","Incongruent","Congruent","Incongruent","Incongruent","Congruent","Congruent","Congruent","Congruent","Incongruent","Congruent","Incongruent","Congruent","Congruent","Congruent","Congruent","Incongruent","Congruent","Congruent","Congruent","Congruent","Congruent","Incongruent","Congruent","Incongruent","Congruent","Incongruent","Incongruent","Incongruent","Congruent","Congruent"],"ratio_trial":[200,100,200,300,300,200,300,100,200,300,300,300,300,300,100,300,200,300,100,100,100,300,100,300,100,100,100,100,100,200,200,300,300,300,300,300,200,200,200,300,200,200,100,100,100,300,300,200,100,300,100,200,200,200,100,200,100,200,100,300,300,300,300,300,100,200,300,200,100,300,300,200,100,300,100,200,300,200,200,200,200,200,100,200,200,100,200,200,100,200,200,300,200,300,100,300,200,200,100,300,200,100,100,200,100,100,300,100,200,300,100,200,100,300,100,300,100,100,100,300],"left_num":[11,7,9,9,4,4,1,9,12,5,4,2,9,7,1,1,5,7,4,8,4,8,4,4,9,10,6,4,3,9,12,4,1,7,1,2,7,7,1,13,7,11,11,3,10,18,13,14,8,1,15,15,1,4,9,6,9,4,8,13,7,13,4,5,11,1,13,8,4,2,8,7,13,13,10,1,13,3,7,6,1,1,13,5,4,3,5,7,3,4,4,20,3,4,11,11,12,3,13,8,4,4,3,4,8,12,20,15,12,3,11,7,10,13,7,4,13,6,1,9],"right_num":[3,9,13,3,2,14,8,8,6,6,13,12,3,8,18,19,14,8,8,2,15,9,8,2,6,3,13,8,4,4,6,2,3,8,19,12,8,18,3,12,6,3,9,8,3,9,12,6,6,7,13,4,3,1,8,3,6,14,1,12,20,12,6,6,9,21,12,7,8,12,9,4,6,12,9,3,12,11,8,3,21,2,12,14,3,2,14,4,7,3,14,5,11,2,4,2,6,9,6,10,14,6,2,3,2,2,13,13,6,2,6,12,3,12,9,8,12,13,3,3],"left_den":[22,14,30,10,20,6,30,15,15,25,20,10,10,10,2,3,10,10,8,16,10,10,8,20,18,25,10,8,20,20,15,20,2,10,3,10,10,15,2,26,15,20,22,5,25,20,26,30,16,20,25,25,2,30,15,20,18,6,20,26,14,26,5,25,22,2,26,15,8,10,10,15,26,26,25,2,26,10,10,20,2,3,26,10,8,6,10,15,9,10,6,25,4,20,22,22,20,12,26,15,6,8,6,10,16,30,25,25,20,6,22,10,25,26,14,5,26,10,2,10],"right_den":[10,15,26,5,4,30,24,16,10,12,26,24,5,20,30,30,20,20,20,5,30,18,20,4,10,10,26,20,16,16,10,4,15,20,30,24,16,27,10,15,9,4,15,16,10,15,15,9,10,20,26,10,10,3,16,6,10,30,2,15,25,15,12,12,15,30,15,21,20,24,18,6,10,15,18,10,15,22,16,6,30,15,20,20,10,5,20,6,30,15,30,10,20,4,10,10,15,20,10,12,30,10,5,15,5,4,26,26,15,10,15,24,10,15,15,16,20,26,5,5],"correct_side":[1,2,2,1,2,1,2,1,1,2,2,2,1,1,2,2,2,1,1,1,2,1,1,2,2,1,1,1,2,1,1,2,1,1,2,2,1,2,1,2,2,2,2,1,1,1,2,2,2,2,1,1,1,2,1,2,2,1,2,2,2,2,1,2,2,2,2,1,1,2,1,2,2,2,2,1,2,2,1,2,2,1,2,2,1,1,2,2,1,1,1,1,1,2,1,1,1,2,2,2,1,2,1,1,1,2,1,1,1,1,1,1,1,2,2,1,2,1,2,1],"img_shown":["img2/200/Congruent/L/C_Dist_200_LN_11_LD_22_RN_3_RD_10_0.png","img2/100/Congruent/R/C_Dist_100_LN_7_LD_14_RN_9_RD_15_1.png","img2/200/Congruent/R/C_Dist_200_LN_9_LD_30_RN_13_RD_26_1.png","img2/300/Congruent/L/C_Dist_300_LN_9_LD_10_RN_3_RD_5_0.png","img2/300/Incongruent/R/I_Dist_300_LN_4_LD_20_RN_2_RD_4_1.png","img2/200/Incongruent/L/I_Dist_200_LN_4_LD_6_RN_14_RD_30_0.png","img2/300/Congruent/R/C_Dist_300_LN_1_LD_30_RN_8_RD_24_1.png","img2/100/Congruent/L/C_Dist_100_LN_9_LD_15_RN_8_RD_16_0.png","img2/200/Congruent/L/C_Dist_200_LN_12_LD_15_RN_6_RD_10_0.png","img2/300/Congruent/R/C_Dist_300_LN_5_LD_25_RN_6_RD_12_1.png","img2/300/Congruent/R/C_Dist_300_LN_4_LD_20_RN_13_RD_26_1.png","img2/300/Congruent/R/C_Dist_300_LN_2_LD_10_RN_12_RD_24_1.png","img2/300/Congruent/L/C_Dist_300_LN_9_LD_10_RN_3_RD_5_0.png","img2/300/Incongruent/L/I_Dist_300_LN_7_LD_10_RN_8_RD_20_0.png","img2/100/Congruent/R/C_Dist_100_LN_1_LD_2_RN_18_RD_30_1.png","img2/300/Congruent/R/C_Dist_300_LN_1_LD_3_RN_19_RD_30_1.png","img2/200/Congruent/R/C_Dist_200_LN_5_LD_10_RN_14_RD_20_1.png","img2/300/Incongruent/L/I_Dist_300_LN_7_LD_10_RN_8_RD_20_0.png","img2/100/Incongruent/L/I_Dist_100_LN_4_LD_8_RN_8_RD_20_0.png","img2/100/Congruent/L/C_Dist_100_LN_8_LD_16_RN_2_RD_5_0.png","img2/100/Congruent/R/C_Dist_100_LN_4_LD_10_RN_15_RD_30_1.png","img2/300/Incongruent/L/I_Dist_300_LN_8_LD_10_RN_9_RD_18_0.png","img2/100/Incongruent/L/I_Dist_100_LN_4_LD_8_RN_8_RD_20_0.png","img2/300/Incongruent/R/I_Dist_300_LN_4_LD_20_RN_2_RD_4_1.png","img2/100/Incongruent/R/I_Dist_100_LN_9_LD_18_RN_6_RD_10_1.png","img2/100/Congruent/L/C_Dist_100_LN_10_LD_25_RN_3_RD_10_0.png","img2/100/Incongruent/L/I_Dist_100_LN_6_LD_10_RN_13_RD_26_0.png","img2/100/Incongruent/L/I_Dist_100_LN_4_LD_8_RN_8_RD_20_0.png","img2/100/Congruent/R/C_Dist_100_LN_3_LD_20_RN_4_RD_16_1.png","img2/200/Congruent/L/C_Dist_200_LN_9_LD_20_RN_4_RD_16_0.png","img2/200/Congruent/L/C_Dist_200_LN_12_LD_15_RN_6_RD_10_0.png","img2/300/Incongruent/R/I_Dist_300_LN_4_LD_20_RN_2_RD_4_1.png","img2/300/Incongruent/L/I_Dist_300_LN_1_LD_2_RN_3_RD_15_0.png","img2/300/Incongruent/L/I_Dist_300_LN_7_LD_10_RN_8_RD_20_0.png","img2/300/Congruent/R/C_Dist_300_LN_1_LD_3_RN_19_RD_30_1.png","img2/300/Congruent/R/C_Dist_300_LN_2_LD_10_RN_12_RD_24_1.png","img2/200/Incongruent/L/I_Dist_200_LN_7_LD_10_RN_8_RD_16_0.png","img2/200/Congruent/R/C_Dist_200_LN_7_LD_15_RN_18_RD_27_1.png","img2/200/Incongruent/L/I_Dist_200_LN_1_LD_2_RN_3_RD_10_0.png","img2/300/Incongruent/R/I_Dist_300_LN_13_LD_26_RN_12_RD_15_1.png","img2/200/Incongruent/R/I_Dist_200_LN_7_LD_15_RN_6_RD_9_1.png","img2/200/Incongruent/R/I_Dist_200_LN_11_LD_20_RN_3_RD_4_1.png","img2/100/Incongruent/R/I_Dist_100_LN_11_LD_22_RN_9_RD_15_1.png","img2/100/Incongruent/L/I_Dist_100_LN_3_LD_5_RN_8_RD_16_0.png","img2/100/Congruent/L/C_Dist_100_LN_10_LD_25_RN_3_RD_10_0.png","img2/300/Congruent/L/C_Dist_300_LN_18_LD_20_RN_9_RD_15_0.png","img2/300/Incongruent/R/I_Dist_300_LN_13_LD_26_RN_12_RD_15_1.png","img2/200/Incongruent/R/I_Dist_200_LN_14_LD_30_RN_6_RD_9_1.png","img2/100/Incongruent/R/I_Dist_100_LN_8_LD_16_RN_6_RD_10_1.png","img2/300/Congruent/R/C_Dist_300_LN_1_LD_20_RN_7_RD_20_1.png","img2/100/Congruent/L/C_Dist_100_LN_15_LD_25_RN_13_RD_26_0.png","img2/200/Congruent/L/C_Dist_200_LN_15_LD_25_RN_4_RD_10_0.png","img2/200/Incongruent/L/I_Dist_200_LN_1_LD_2_RN_3_RD_10_0.png","img2/200/Incongruent/R/I_Dist_200_LN_4_LD_30_RN_1_RD_3_1.png","img2/100/Congruent/L/C_Dist_100_LN_9_LD_15_RN_8_RD_16_0.png","img2/200/Incongruent/R/I_Dist_200_LN_6_LD_20_RN_3_RD_6_1.png","img2/100/Incongruent/R/I_Dist_100_LN_9_LD_18_RN_6_RD_10_1.png","img2/200/Incongruent/L/I_Dist_200_LN_4_LD_6_RN_14_RD_30_0.png","img2/100/Incongruent/R/I_Dist_100_LN_8_LD_20_RN_1_RD_2_1.png","img2/300/Incongruent/R/I_Dist_300_LN_13_LD_26_RN_12_RD_15_1.png","img2/300/Congruent/R/C_Dist_300_LN_7_LD_14_RN_20_RD_25_1.png","img2/300/Incongruent/R/I_Dist_300_LN_13_LD_26_RN_12_RD_15_1.png","img2/300/Incongruent/L/I_Dist_300_LN_4_LD_5_RN_6_RD_12_0.png","img2/300/Congruent/R/C_Dist_300_LN_5_LD_25_RN_6_RD_12_1.png","img2/100/Incongruent/R/I_Dist_100_LN_11_LD_22_RN_9_RD_15_1.png","img2/200/Congruent/R/C_Dist_200_LN_1_LD_2_RN_21_RD_30_1.png","img2/300/Incongruent/R/I_Dist_300_LN_13_LD_26_RN_12_RD_15_1.png","img2/200/Congruent/L/C_Dist_200_LN_8_LD_15_RN_7_RD_21_0.png","img2/100/Incongruent/L/I_Dist_100_LN_4_LD_8_RN_8_RD_20_0.png","img2/300/Congruent/R/C_Dist_300_LN_2_LD_10_RN_12_RD_24_1.png","img2/300/Incongruent/L/I_Dist_300_LN_8_LD_10_RN_9_RD_18_0.png","img2/200/Incongruent/R/I_Dist_200_LN_7_LD_15_RN_4_RD_6_1.png","img2/100/Incongruent/R/I_Dist_100_LN_13_LD_26_RN_6_RD_10_1.png","img2/300/Incongruent/R/I_Dist_300_LN_13_LD_26_RN_12_RD_15_1.png","img2/100/Incongruent/R/I_Dist_100_LN_10_LD_25_RN_9_RD_18_1.png","img2/200/Incongruent/L/I_Dist_200_LN_1_LD_2_RN_3_RD_10_0.png","img2/300/Incongruent/R/I_Dist_300_LN_13_LD_26_RN_12_RD_15_1.png","img2/200/Congruent/R/C_Dist_200_LN_3_LD_10_RN_11_RD_22_1.png","img2/200/Incongruent/L/I_Dist_200_LN_7_LD_10_RN_8_RD_16_0.png","img2/200/Incongruent/R/I_Dist_200_LN_6_LD_20_RN_3_RD_6_1.png","img2/200/Congruent/R/C_Dist_200_LN_1_LD_2_RN_21_RD_30_1.png","img2/200/Incongruent/L/I_Dist_200_LN_1_LD_3_RN_2_RD_15_0.png","img2/100/Incongruent/R/I_Dist_100_LN_13_LD_26_RN_12_RD_20_1.png","img2/200/Congruent/R/C_Dist_200_LN_5_LD_10_RN_14_RD_20_1.png","img2/200/Congruent/L/C_Dist_200_LN_4_LD_8_RN_3_RD_10_0.png","img2/100/Congruent/L/C_Dist_100_LN_3_LD_6_RN_2_RD_5_0.png","img2/200/Congruent/R/C_Dist_200_LN_5_LD_10_RN_14_RD_20_1.png","img2/200/Incongruent/R/I_Dist_200_LN_7_LD_15_RN_4_RD_6_1.png","img2/100/Incongruent/L/I_Dist_100_LN_3_LD_9_RN_7_RD_30_0.png","img2/200/Congruent/L/C_Dist_200_LN_4_LD_10_RN_3_RD_15_0.png","img2/200/Incongruent/L/I_Dist_200_LN_4_LD_6_RN_14_RD_30_0.png","img2/300/Congruent/L/C_Dist_300_LN_20_LD_25_RN_5_RD_10_0.png","img2/200/Incongruent/L/I_Dist_200_LN_3_LD_4_RN_11_RD_20_0.png","img2/300/Incongruent/R/I_Dist_300_LN_4_LD_20_RN_2_RD_4_1.png","img2/100/Congruent/L/C_Dist_100_LN_11_LD_22_RN_4_RD_10_0.png","img2/300/Congruent/L/C_Dist_300_LN_11_LD_22_RN_2_RD_10_0.png","img2/200/Congruent/L/C_Dist_200_LN_12_LD_20_RN_6_RD_15_0.png","img2/200/Congruent/R/C_Dist_200_LN_3_LD_12_RN_9_RD_20_1.png","img2/100/Incongruent/R/I_Dist_100_LN_13_LD_26_RN_6_RD_10_1.png","img2/300/Congruent/R/C_Dist_300_LN_8_LD_15_RN_10_RD_12_1.png","img2/200/Incongruent/L/I_Dist_200_LN_4_LD_6_RN_14_RD_30_0.png","img2/100/Congruent/R/C_Dist_100_LN_4_LD_8_RN_6_RD_10_1.png","img2/100/Congruent/L/C_Dist_100_LN_3_LD_6_RN_2_RD_5_0.png","img2/200/Congruent/L/C_Dist_200_LN_4_LD_10_RN_3_RD_15_0.png","img2/100/Congruent/L/C_Dist_100_LN_8_LD_16_RN_2_RD_5_0.png","img2/100/Incongruent/R/I_Dist_100_LN_12_LD_30_RN_2_RD_4_1.png","img2/300/Congruent/L/C_Dist_300_LN_20_LD_25_RN_13_RD_26_0.png","img2/100/Congruent/L/C_Dist_100_LN_15_LD_25_RN_13_RD_26_0.png","img2/200/Congruent/L/C_Dist_200_LN_12_LD_20_RN_6_RD_15_0.png","img2/300/Congruent/L/C_Dist_300_LN_3_LD_6_RN_2_RD_10_0.png","img2/100/Congruent/L/C_Dist_100_LN_11_LD_22_RN_6_RD_15_0.png","img2/200/Incongruent/L/I_Dist_200_LN_7_LD_10_RN_12_RD_24_0.png","img2/100/Congruent/L/C_Dist_100_LN_10_LD_25_RN_3_RD_10_0.png","img2/300/Incongruent/R/I_Dist_300_LN_13_LD_26_RN_12_RD_15_1.png","img2/100/Congruent/R/C_Dist_100_LN_7_LD_14_RN_9_RD_15_1.png","img2/300/Incongruent/L/I_Dist_300_LN_4_LD_5_RN_8_RD_16_0.png","img2/100/Incongruent/R/I_Dist_100_LN_13_LD_26_RN_12_RD_20_1.png","img2/100/Incongruent/L/I_Dist_100_LN_6_LD_10_RN_13_RD_26_0.png","img2/100/Congruent/R/C_Dist_100_LN_1_LD_2_RN_3_RD_5_1.png","img2/300/Congruent/L/C_Dist_300_LN_9_LD_10_RN_3_RD_5_0.png"],"dist100_C":[["C_Dist_100_LN_10_LD_25_RN_3_RD_10_0.png","C_Dist_100_LN_11_LD_22_RN_4_RD_10_0.png","C_Dist_100_LN_11_LD_22_RN_6_RD_15_0.png","C_Dist_100_LN_15_LD_25_RN_13_RD_26_0.png","C_Dist_100_LN_3_LD_6_RN_2_RD_5_0.png","C_Dist_100_LN_6_LD_20_RN_5_RD_25_0.png","C_Dist_100_LN_8_LD_16_RN_2_RD_5_0.png","C_Dist_100_LN_9_LD_15_RN_8_RD_16_0.png"],["C_Dist_100_LN_1_LD_2_RN_18_RD_30_1.png","C_Dist_100_LN_1_LD_2_RN_3_RD_5_1.png","C_Dist_100_LN_12_LD_30_RN_13_RD_26_1.png","C_Dist_100_LN_2_LD_5_RN_11_RD_22_1.png","C_Dist_100_LN_2_LD_5_RN_6_RD_12_1.png","C_Dist_100_LN_3_LD_20_RN_4_RD_16_1.png","C_Dist_100_LN_4_LD_10_RN_15_RD_30_1.png","C_Dist_100_LN_4_LD_8_RN_6_RD_10_1.png","C_Dist_100_LN_6_LD_12_RN_15_RD_25_1.png","C_Dist_100_LN_7_LD_14_RN_15_RD_25_1.png","C_Dist_100_LN_7_LD_14_RN_9_RD_15_1.png"]],"dist100_I":[["I_Dist_100_LN_1_LD_2_RN_8_RD_20_0.png","I_Dist_100_LN_2_LD_4_RN_6_RD_15_0.png","I_Dist_100_LN_2_LD_4_RN_8_RD_20_0.png","I_Dist_100_LN_3_LD_5_RN_11_RD_22_0.png","I_Dist_100_LN_3_LD_5_RN_8_RD_16_0.png","I_Dist_100_LN_3_LD_6_RN_4_RD_10_0.png","I_Dist_100_LN_3_LD_9_RN_7_RD_30_0.png","I_Dist_100_LN_4_LD_8_RN_8_RD_20_0.png","I_Dist_100_LN_6_LD_10_RN_11_RD_22_0.png","I_Dist_100_LN_6_LD_10_RN_13_RD_26_0.png","I_Dist_100_LN_6_LD_10_RN_7_RD_14_0.png","I_Dist_100_LN_9_LD_10_RN_20_RD_25_0.png","I_Dist_100_LN_9_LD_15_RN_13_RD_26_0.png","I_Dist_100_LN_9_LD_15_RN_14_RD_28_0.png"],["I_Dist_100_LN_10_LD_25_RN_8_RD_16_1.png","I_Dist_100_LN_10_LD_25_RN_9_RD_18_1.png","I_Dist_100_LN_11_LD_22_RN_9_RD_15_1.png","I_Dist_100_LN_12_LD_24_RN_9_RD_15_1.png","I_Dist_100_LN_12_LD_30_RN_2_RD_4_1.png","I_Dist_100_LN_13_LD_26_RN_12_RD_20_1.png","I_Dist_100_LN_13_LD_26_RN_6_RD_10_1.png","I_Dist_100_LN_17_LD_30_RN_10_RD_15_1.png","I_Dist_100_LN_6_LD_12_RN_3_RD_5_1.png","I_Dist_100_LN_8_LD_16_RN_6_RD_10_1.png","I_Dist_100_LN_8_LD_20_RN_1_RD_2_1.png","I_Dist_100_LN_9_LD_18_RN_6_RD_10_1.png"]],"dist100_S":[["E_Dist_100_LN_2_LD_12_RN_2_RD_30_0.png","E_Dist_100_LN_6_LD_10_RN_6_RD_12_0.png"],["E_Dist_100_LN_6_LD_12_RN_6_RD_10_1.png"]],"dist200_C":[["C_Dist_200_LN_11_LD_22_RN_3_RD_10_0.png","C_Dist_200_LN_12_LD_15_RN_6_RD_10_0.png","C_Dist_200_LN_12_LD_20_RN_6_RD_15_0.png","C_Dist_200_LN_14_LD_28_RN_6_RD_20_0.png","C_Dist_200_LN_15_LD_25_RN_4_RD_10_0.png","C_Dist_200_LN_16_LD_20_RN_12_RD_20_0.png","C_Dist_200_LN_16_LD_30_RN_9_RD_27_0.png","C_Dist_200_LN_20_LD_25_RN_9_RD_15_0.png","C_Dist_200_LN_21_LD_30_RN_2_RD_4_0.png","C_Dist_200_LN_4_LD_10_RN_3_RD_15_0.png","C_Dist_200_LN_4_LD_8_RN_3_RD_10_0.png","C_Dist_200_LN_6_LD_15_RN_3_RD_15_0.png","C_Dist_200_LN_7_LD_21_RN_2_RD_15_0.png","C_Dist_200_LN_8_LD_15_RN_2_RD_6_0.png","C_Dist_200_LN_8_LD_15_RN_3_RD_9_0.png","C_Dist_200_LN_8_LD_15_RN_7_RD_21_0.png","C_Dist_200_LN_9_LD_20_RN_4_RD_16_0.png"],["C_Dist_200_LN_1_LD_2_RN_21_RD_30_1.png","C_Dist_200_LN_13_LD_26_RN_14_RD_20_1.png","C_Dist_200_LN_3_LD_10_RN_11_RD_22_1.png","C_Dist_200_LN_3_LD_10_RN_14_RD_28_1.png","C_Dist_200_LN_3_LD_10_RN_7_RD_14_1.png","C_Dist_200_LN_3_LD_12_RN_9_RD_20_1.png","C_Dist_200_LN_3_LD_6_RN_14_RD_20_1.png","C_Dist_200_LN_5_LD_10_RN_14_RD_20_1.png","C_Dist_200_LN_6_LD_12_RN_7_RD_10_1.png","C_Dist_200_LN_6_LD_20_RN_11_RD_22_1.png","C_Dist_200_LN_7_LD_15_RN_18_RD_27_1.png","C_Dist_200_LN_9_LD_30_RN_13_RD_26_1.png"]],"dist200_I":[["I_Dist_200_LN_1_LD_2_RN_3_RD_10_0.png","I_Dist_200_LN_1_LD_3_RN_2_RD_15_0.png","I_Dist_200_LN_3_LD_4_RN_11_RD_20_0.png","I_Dist_200_LN_4_LD_5_RN_6_RD_10_0.png","I_Dist_200_LN_4_LD_6_RN_14_RD_30_0.png","I_Dist_200_LN_7_LD_10_RN_12_RD_24_0.png","I_Dist_200_LN_7_LD_10_RN_14_RD_28_0.png","I_Dist_200_LN_7_LD_10_RN_8_RD_16_0.png"],["I_Dist_200_LN_11_LD_20_RN_3_RD_4_1.png","I_Dist_200_LN_14_LD_30_RN_12_RD_18_1.png","I_Dist_200_LN_14_LD_30_RN_6_RD_9_1.png","I_Dist_200_LN_3_LD_10_RN_1_RD_2_1.png","I_Dist_200_LN_4_LD_30_RN_1_RD_3_1.png","I_Dist_200_LN_6_LD_20_RN_3_RD_6_1.png","I_Dist_200_LN_7_LD_15_RN_4_RD_6_1.png","I_Dist_200_LN_7_LD_15_RN_6_RD_9_1.png","I_Dist_200_LN_9_LD_15_RN_8_RD_10_1.png"]],"dist200_S":[["E_Dist_200_LN_3_LD_6_RN_3_RD_10_0.png"],["E_Dist_200_LN_3_LD_10_RN_3_RD_6_1.png"]],"dist300_C":[["C_Dist_300_LN_11_LD_22_RN_1_RD_5_0.png","C_Dist_300_LN_11_LD_22_RN_2_RD_10_0.png","C_Dist_300_LN_11_LD_22_RN_4_RD_20_0.png","C_Dist_300_LN_12_LD_24_RN_2_RD_10_0.png","C_Dist_300_LN_18_LD_20_RN_9_RD_15_0.png","C_Dist_300_LN_20_LD_25_RN_13_RD_26_0.png","C_Dist_300_LN_20_LD_25_RN_14_RD_28_0.png","C_Dist_300_LN_20_LD_25_RN_5_RD_10_0.png","C_Dist_300_LN_20_LD_25_RN_8_RD_16_0.png","C_Dist_300_LN_20_LD_25_RN_9_RD_18_0.png","C_Dist_300_LN_24_LD_30_RN_2_RD_4_0.png","C_Dist_300_LN_24_LD_30_RN_8_RD_16_0.png","C_Dist_300_LN_3_LD_6_RN_2_RD_10_0.png","C_Dist_300_LN_4_LD_10_RN_1_RD_10_0.png","C_Dist_300_LN_4_LD_5_RN_2_RD_4_0.png","C_Dist_300_LN_8_LD_16_RN_1_RD_5_0.png","C_Dist_300_LN_9_LD_10_RN_3_RD_5_0.png"],["C_Dist_300_LN_1_LD_20_RN_7_RD_20_1.png","C_Dist_300_LN_1_LD_3_RN_19_RD_30_1.png","C_Dist_300_LN_1_LD_30_RN_8_RD_24_1.png","C_Dist_300_LN_1_LD_5_RN_11_RD_22_1.png","C_Dist_300_LN_1_LD_5_RN_3_RD_6_1.png","C_Dist_300_LN_1_LD_5_RN_6_RD_12_1.png","C_Dist_300_LN_2_LD_10_RN_12_RD_24_1.png","C_Dist_300_LN_2_LD_20_RN_10_RD_25_1.png","C_Dist_300_LN_3_LD_12_RN_11_RD_20_1.png","C_Dist_300_LN_3_LD_6_RN_4_RD_5_1.png","C_Dist_300_LN_4_LD_20_RN_13_RD_26_1.png","C_Dist_300_LN_5_LD_25_RN_6_RD_12_1.png","C_Dist_300_LN_5_LD_25_RN_7_RD_14_1.png","C_Dist_300_LN_7_LD_14_RN_20_RD_25_1.png","C_Dist_300_LN_8_LD_15_RN_10_RD_12_1.png"]],"dist300_I":[["I_Dist_300_LN_1_LD_2_RN_2_RD_10_0.png","I_Dist_300_LN_1_LD_2_RN_3_RD_15_0.png","I_Dist_300_LN_2_LD_4_RN_6_RD_30_0.png","I_Dist_300_LN_3_LD_6_RN_4_RD_20_0.png","I_Dist_300_LN_4_LD_5_RN_6_RD_12_0.png","I_Dist_300_LN_4_LD_5_RN_8_RD_16_0.png","I_Dist_300_LN_7_LD_10_RN_8_RD_20_0.png","I_Dist_300_LN_8_LD_10_RN_14_RD_28_0.png","I_Dist_300_LN_8_LD_10_RN_9_RD_18_0.png"],["I_Dist_300_LN_13_LD_26_RN_12_RD_15_1.png","I_Dist_300_LN_4_LD_20_RN_2_RD_4_1.png"]],"dist300_S":[["E_Dist_300_LN_9_LD_12_RN_9_RD_20_0.png"],["E_Dist_300_LN_18_LD_30_RN_18_RD_20_1.png","E_Dist_300_LN_3_LD_10_RN_3_RD_5_1.png","E_Dist_300_LN_9_LD_20_RN_9_RD_12_1.png"]],"dist500_C":[["C_Dist_500_LN_10_LD_13_RN_7_RD_26_0.png","C_Dist_500_LN_10_LD_15_RN_4_RD_24_0.png","C_Dist_500_LN_12_LD_16_RN_3_RD_12_0.png","C_Dist_500_LN_12_LD_18_RN_4_RD_24_0.png","C_Dist_500_LN_15_LD_18_RN_5_RD_15_0.png","C_Dist_500_LN_15_LD_20_RN_1_RD_4_0.png","C_Dist_500_LN_18_LD_27_RN_1_RD_6_0.png","C_Dist_500_LN_20_LD_24_RN_1_RD_3_0.png","C_Dist_500_LN_20_LD_24_RN_3_RD_9_0.png","C_Dist_500_LN_20_LD_24_RN_7_RD_21_0.png","C_Dist_500_LN_20_LD_28_RN_3_RD_14_0.png","C_Dist_500_LN_21_LD_28_RN_6_RD_24_0.png","C_Dist_500_LN_22_LD_28_RN_2_RD_7_0.png","C_Dist_500_LN_25_LD_30_RN_9_RD_27_0.png","C_Dist_500_LN_4_LD_6_RN_1_RD_6_0.png","C_Dist_500_LN_5_LD_6_RN_2_RD_6_0.png","C_Dist_500_LN_6_LD_9_RN_1_RD_6_0.png","C_Dist_500_LN_7_LD_10_RN_1_RD_5_0.png","C_Dist_500_LN_8_LD_12_RN_1_RD_6_0.png","C_Dist_500_LN_8_LD_12_RN_4_RD_24_0.png"],["C_Dist_500_LN_1_LD_4_RN_12_RD_16_1.png","C_Dist_500_LN_1_LD_4_RN_9_RD_12_1.png","C_Dist_500_LN_1_LD_9_RN_11_RD_18_1.png","C_Dist_500_LN_10_LD_24_RN_22_RD_24_1.png","C_Dist_500_LN_2_LD_12_RN_10_RD_15_1.png","C_Dist_500_LN_2_LD_12_RN_12_RD_18_1.png","C_Dist_500_LN_2_LD_12_RN_4_RD_6_1.png","C_Dist_500_LN_2_LD_24_RN_7_RD_12_1.png","C_Dist_500_LN_2_LD_5_RN_18_RD_20_1.png","C_Dist_500_LN_2_LD_5_RN_9_RD_10_1.png","C_Dist_500_LN_2_LD_8_RN_12_RD_16_1.png","C_Dist_500_LN_2_LD_8_RN_21_RD_28_1.png","C_Dist_500_LN_3_LD_10_RN_4_RD_5_1.png","C_Dist_500_LN_3_LD_12_RN_15_RD_20_1.png","C_Dist_500_LN_3_LD_30_RN_6_RD_10_1.png","C_Dist_500_LN_3_LD_8_RN_14_RD_16_1.png","C_Dist_500_LN_4_LD_16_RN_15_RD_20_1.png","C_Dist_500_LN_4_LD_24_RN_12_RD_18_1.png","C_Dist_500_LN_5_LD_14_RN_6_RD_7_1.png","C_Dist_500_LN_7_LD_21_RN_20_RD_24_1.png","C_Dist_500_LN_7_LD_28_RN_12_RD_16_1.png","C_Dist_500_LN_7_LD_28_RN_9_RD_12_1.png","C_Dist_500_LN_9_LD_27_RN_20_RD_24_1.png"]],"dist500_I":[["I_Dist_500_LN_2_LD_3_RN_4_RD_24_0.png","I_Dist_500_LN_5_LD_6_RN_6_RD_18_0.png","I_Dist_500_LN_7_LD_8_RN_9_RD_24_0.png"],["I_Dist_500_LN_7_LD_21_RN_5_RD_6_1.png"]],"dist500_S":[["E_Dist_500_LN_6_LD_8_RN_6_RD_24_0.png"],["E_Dist_500_LN_2_LD_12_RN_2_RD_3_1.png","E_Dist_500_LN_6_LD_24_RN_6_RD_8_1.png"]]}},{"start_time":1552054920102,"click_time":1552054922284,"finger_time":1552054921503,"fix_duration":1456.2348050118312,"trial":1,"RT":1401,"MT":781,"sideResp":2,"stimulus":[],"xmouse":[794,794,794,794,794,794,794,794,794,794,794,794,794,794,794,794,794,794,794,794,794,794,794,794,794,794,794,794,794,794,794,794,794,794,794,794,794,794,794,794,794,794,794,794,794,794,794,794,794,794,794,794,794,794,794,794,794,794,794,794,794,794,794,794,794,794,797,802,802,828,837,842,848,855,872,877,886,889,893,911,922,934,950,966,1009,1059,1102,1143,1164,1188,1193,1193,1193,1193,1193,1193,1193,1192,1189,1185,1182,1180,1180,1178,1174,1172,1172,1171,1167,1147],"ymouse":[515,515,515,515,515,515,515,515,515,515,515,515,515,515,515,515,515,515,515,515,515,515,515,515,515,515,515,515,515,515,515,515,515,515,515,515,515,515,515,515,515,515,515,515,515,515,515,515,515,515,515,515,515,515,515,515,515,515,515,515,515,515,515,515,515,515,511,506,504,471,458,452,440,419,378,366,353,349,346,334,325,315,304,293,273,249,223,198,181,151,142,140,140,140,140,140,138,135,132,126,122,118,118,110,94,91,90,89,89,86],"timestamp_mouse":[9,21,41,61,81,103,123,141,161,182,202,221,241,263,282,301,321,343,362,381,402,422,441,462,481,502,522,542,561,582,601,621,643,662,681,702,721,741,761,783,803,821,841,862,882,901,921,942,961,982,1001,1022,1042,1063,1082,1102,1121,1141,1161,1181,1201,1221,1241,1261,1282,1303,1322,1341,1361,1382,1401,1422,1442,1462,1481,1501,1521,1541,1561,1582,1602,1621,1642,1663,1681,1702,1722,1741,1761,1782,1802,1821,1841,1861,1882,1901,1922,1941,1962,1981,2002,2022,2042,2061,2081,2102,2122,2143,2162,2182],"xSR":741.5,"ySR":469.95,"xT1":424.9,"yT1":0,"xT2":1058.1,"yT2":0,"toosoon":0,"cond_shown":"Congruent","ratio_trial":100,"L_num":7,"L_den":14,"R_num":9,"R_den":15,"correct_side":2,"subjID":"gabrielavargassalinas","gender":"1","school":"4","age":"9"},{"start_time":1552054924340,"click_time":1552054925764,"finger_time":1552054925624,"fix_duration":294.952064508932,"trial":2,"RT":1284,"MT":140,"sideResp":2,"stimulus":[],"xmouse":[818,818,818,818,818,818,818,818,818,818,818,818,818,818,818,816,815,814,812,810,810,810,810,810,810,810,810,810,810,810,810,810,810,810,810,810,810,810,810,810,810,810,810,810,810,810,810,810,810,810,810,810,810,810,810,810,810,810,810,810,810,810,816,825,843,868,905,950,1026,1066,1066,1110],"ymouse":[535,535,535,535,535,535,535,535,535,535,535,535,535,535,535,534,534,534,534,534,534,534,534,534,534,534,534,534,534,534,534,534,534,534,534,534,534,534,534,534,534,534,534,534,533,533,533,533,533,533,533,533,533,533,533,533,533,533,533,533,533,533,516,494,457,412,348,276,178,130,130,72],"timestamp_mouse":[12,24,45,63,83,103,124,144,163,184,204,223,243,264,283,303,324,344,363,383,403,423,443,463,484,503,523,543,564,583,603,623,643,664,684,704,723,743,764,785,804,823,844,864,885,904,923,943,964,985,1003,1023,1045,1063,1083,1103,1123,1144,1164,1184,1204,1224,1243,1264,1284,1304,1324,1344,1364,1384,1403,1423],"xSR":741.5,"ySR":469.95,"xT1":424.9,"yT1":0,"xT2":1058.1,"yT2":0,"toosoon":0,"cond_shown":"Congruent","ratio_trial":200,"L_num":9,"L_den":30,"R_num":13,"R_den":26,"correct_side":2,"subjID":"gabrielavargassalinas","gender":"1","school":"4","age":"9"},{"start_time":1552054928871,"click_time":1552054930224,"finger_time":1552054929784,"fix_duration":846.8868171405189,"trial":3,"RT":913,"MT":440,"sideResp":1,"stimulus":[],"xmouse":[787,787,787,787,787,787,787,787,787,787,787,787,787,787,787,787,787,787,787,787,787,787,787,787,787,787,787,787,787,787,787,787,787,787,787,787,787,787,787,787,787,787,787,787,785,768,635,586,563,554,549,542,539,538,538,538,538,538,538,538,538,538,538,538,538,538,531,510],"ymouse":[501,501,501,501,501,501,501,501,501,501,501,501,501,501,501,501,501,501,501,501,501,501,501,501,501,501,501,501,501,501,501,501,501,501,501,501,501,501,501,499,490,487,487,487,485,455,280,216,178,156,147,120,110,99,94,91,91,91,91,91,91,91,91,91,91,91,91,89],"timestamp_mouse":[13,33,58,72,94,113,133,152,172,194,213,232,253,272,293,313,333,352,373,393,413,433,452,472,492,513,533,553,572,592,612,633,654,674,693,713,733,752,773,793,814,833,854,873,892,913,933,954,974,992,1013,1033,1052,1072,1093,1114,1132,1153,1172,1192,1213,1233,1253,1273,1293,1312,1332,1353],"xSR":741.5,"ySR":469.95,"xT1":424.9,"yT1":0,"xT2":1058.1,"yT2":0,"toosoon":0,"cond_shown":"Congruent","ratio_trial":300,"L_num":9,"L_den":10,"R_num":3,"R_den":5,"correct_side":1,"subjID":"gabrielavargassalinas","gender":"1","school":"4","age":"9"},{"start_time":1552054933495,"click_time":1552054935984,"finger_time":1552054934923,"fix_duration":1310.3536051869892,"trial":4,"RT":1428,"MT":1061,"sideResp":2,"stimulus":[],"xmouse":[790,790,790,790,790,790,790,790,790,790,790,790,790,790,790,790,790,790,790,790,790,790,790,790,790,790,790,790,790,790,790,790,790,790,790,790,790,790,790,790,790,790,790,790,790,790,790,790,790,790,790,790,790,790,790,790,790,790,790,790,790,790,790,790,790,790,794,797,801,805,812,821,824,826,826,826,826,826,826,826,826,826,826,826,826,826,826,826,826,829,834,838,841,847,852,857,864,866,867,867,867,867,867,867,867,867,867,867,867,871,878,897,919,943,968,971,980,995,1013,1013,1013,1028,1040,1055,1068],"ymouse":[514,514,514,514,514,514,514,514,514,514,514,514,514,514,514,514,514,514,514,514,514,514,514,514,514,514,514,514,514,514,514,514,514,514,514,514,514,514,514,514,514,514,514,514,514,514,514,514,514,514,514,514,514,514,514,514,514,514,514,514,514,514,514,514,514,514,515,509,503,496,483,467,459,454,454,454,454,454,454,454,454,454,454,454,454,454,454,453,449,435,418,405,398,384,368,352,326,320,313,311,310,310,310,310,310,310,309,308,308,300,291,267,246,224,203,202,193,175,153,153,153,130,111,87,63],"timestamp_mouse":[10,36,49,69,88,108,128,149,169,189,208,229,248,268,289,308,328,349,368,390,408,428,448,469,488,508,528,549,568,588,608,628,649,668,688,708,729,750,769,789,808,828,848,868,888,908,928,949,968,989,1009,1028,1048,1068,1088,1108,1128,1149,1169,1189,1208,1228,1248,1268,1288,1308,1328,1348,1370,1389,1409,1428,1449,1469,1489,1509,1528,1549,1568,1589,1609,1628,1648,1668,1689,1709,1729,1749,1768,1789,1809,1828,1850,1869,1889,1909,1929,1949,1968,1988,2009,2028,2049,2068,2088,2110,2128,2148,2168,2188,2209,2228,2249,2268,2288,2309,2328,2349,2368,2388,2409,2428,2449,2469,2489],"xSR":741.5,"ySR":469.95,"xT1":424.9,"yT1":0,"xT2":1058.1,"yT2":0,"toosoon":0,"cond_shown":"Incongruent","ratio_trial":300,"L_num":4,"L_den":20,"R_num":2,"R_den":4,"correct_side":2,"subjID":"gabrielavargassalinas","gender":"1","school":"4","age":"9"},{"start_time":1552054941576,"click_time":1552054943184,"finger_time":1552054942784,"fix_duration":250,"trial":5,"RT":1208,"MT":400,"sideResp":1,"stimulus":[],"xmouse":[799,799,799,799,799,799,799,799,799,799,799,799,799,799,799,799,799,799,799,799,799,799,799,799,799,799,799,799,799,799,799,799,799,799,799,799,799,799,799,799,799,799,799,799,799,799,799,799,799,799,799,799,799,799,799,799,799,799,799,797,794,787,745,715,680,652,622,572,554,540,529,526,526,526,526,526,526,526,525,525,524],"ymouse":[470,470,470,470,470,470,470,470,470,470,470,470,470,470,470,470,470,470,470,470,470,470,470,470,470,470,470,470,470,470,470,470,470,470,470,470,470,470,470,470,470,470,470,470,470,470,470,470,470,470,470,470,470,470,470,470,470,470,470,470,469,460,400,363,325,286,246,185,165,149,137,132,130,130,129,125,118,100,88,81,76],"timestamp_mouse":[9,28,58,68,89,108,127,149,167,187,208,228,247,268,287,307,328,348,367,388,408,427,448,468,487,508,527,547,567,588,608,627,647,667,687,707,727,747,767,788,807,827,847,869,888,908,928,948,969,987,1007,1027,1048,1067,1087,1107,1127,1149,1168,1189,1208,1229,1248,1268,1287,1307,1327,1348,1368,1387,1408,1427,1447,1467,1487,1507,1527,1548,1567,1588,1608],"xSR":741.5,"ySR":469.95,"xT1":424.9,"yT1":0,"xT2":1058.1,"yT2":0,"toosoon":0,"cond_shown":"Incongruent","ratio_trial":200,"L_num":4,"L_den":6,"R_num":14,"R_den":30,"correct_side":1,"subjID":"gabrielavargassalinas","gender":"1","school":"4","age":"9"},{"start_time":1552054945239,"click_time":1552054946584,"finger_time":1552054946023,"fix_duration":675.1826244207318,"trial":6,"RT":784,"MT":561,"sideResp":2,"stimulus":[],"xmouse":[767,767,767,767,767,767,767,767,767,767,767,767,767,767,767,767,767,767,767,767,767,767,767,767,767,767,767,767,767,767,767,767,767,767,767,767,767,769,775,787,827,853,875,881,881,881,884,887,889,889,889,889,889,889,893,899,903,913,926,947,947,950,964,979,1012,1029,1044,1066],"ymouse":[496,496,496,496,496,496,496,496,496,496,496,496,496,496,496,496,496,496,496,496,496,496,496,496,496,496,496,496,496,496,496,496,496,496,496,496,496,489,482,460,384,341,302,292,292,292,287,280,276,275,275,275,275,275,268,258,252,236,219,188,187,184,169,152,118,101,83,60],"timestamp_mouse":[10,24,44,65,86,104,125,146,166,185,204,225,245,265,284,304,324,344,364,385,404,424,444,465,485,504,524,544,564,585,605,626,644,664,685,705,724,744,764,784,804,824,844,864,885,905,925,945,964,986,1004,1026,1045,1064,1084,1104,1126,1144,1164,1186,1204,1225,1245,1265,1287,1304,1325,1345],"xSR":741.5,"ySR":469.95,"xT1":424.9,"yT1":0,"xT2":1058.1,"yT2":0,"toosoon":0,"cond_shown":"Congruent","ratio_trial":300,"L_num":1,"L_den":30,"R_num":8,"R_den":24,"correct_side":2,"subjID":"gabrielavargassalinas","gender":"1","school":"4","age":"9"},{"start_time":1552054948831,"click_time":1552054950444,"finger_time":1552054949884,"fix_duration":526.1273027252817,"trial":7,"RT":1053,"MT":560,"sideResp":1,"stimulus":[],"xmouse":[802,802,802,802,802,802,802,802,802,802,802,802,802,802,802,802,802,802,802,802,802,802,802,802,802,802,802,802,802,802,802,802,802,802,802,802,802,801,800,799,799,798,797,796,795,792,791,791,791,789,780,769,754,742,731,713,709,704,700,695,687,672,663,656,647,631,622,614,604,598,585,579,571,565,554,545,543,541,539,533,521],"ymouse":[492,492,492,492,492,492,492,492,492,492,492,492,492,492,492,492,492,492,492,492,492,492,492,492,492,492,492,492,492,492,492,492,492,492,492,492,492,493,493,493,493,493,493,493,493,493,493,493,493,493,489,479,468,455,443,415,404,395,385,375,366,346,334,321,307,276,253,232,209,192,153,136,121,106,90,77,75,73,72,72,72],"timestamp_mouse":[12,32,56,72,92,113,133,153,172,192,213,232,253,273,292,312,332,353,373,392,413,432,452,472,493,512,533,553,572,593,612,632,652,673,693,712,733,753,772,792,812,833,852,872,892,913,932,952,973,992,1013,1033,1053,1073,1093,1112,1133,1153,1174,1193,1212,1232,1253,1273,1292,1313,1334,1353,1374,1393,1413,1434,1454,1473,1492,1513,1533,1552,1573,1592,1612],"xSR":741.5,"ySR":469.95,"xT1":424.9,"yT1":0,"xT2":1058.1,"yT2":0,"toosoon":0,"cond_shown":"Congruent","ratio_trial":100,"L_num":9,"L_den":15,"R_num":8,"R_den":16,"correct_side":1,"subjID":"gabrielavargassalinas","gender":"1","school":"4","age":"9"},{"start_time":1552054954339,"click_time":1552054955784,"finger_time":1552054955263,"fix_duration":974.7507994283874,"trial":8,"RT":924,"MT":521,"sideResp":1,"stimulus":[],"xmouse":[788,788,788,788,788,788,788,788,788,788,788,788,788,788,788,788,788,788,788,788,788,788,788,788,788,788,788,788,788,788,788,788,788,788,788,788,788,788,788,788,788,788,788,787,785,754,735,720,713,702,689,683,677,674,669,667,653,652,643,637,631,619,609,601,592,575,565,561,553,547,542,532,524],"ymouse":[547,547,547,547,547,547,547,547,547,547,547,547,547,547,547,547,547,547,547,547,547,547,547,547,547,547,547,547,547,547,547,547,547,547,547,547,547,547,547,547,547,547,547,546,542,496,476,457,448,432,411,404,396,389,379,372,347,344,326,311,299,272,257,243,226,189,159,149,121,105,92,68,55],"timestamp_mouse":[9,37,45,64,84,105,124,144,164,184,204,225,244,265,284,304,324,344,364,384,404,424,444,464,484,504,524,544,565,584,604,625,644,664,684,705,725,745,765,785,805,825,844,865,884,905,924,944,964,985,1007,1025,1045,1064,1085,1105,1124,1144,1164,1184,1206,1224,1244,1265,1285,1307,1325,1346,1364,1384,1404,1424,1445],"xSR":741.5,"ySR":469.95,"xT1":424.9,"yT1":0,"xT2":1058.1,"yT2":0,"toosoon":0,"cond_shown":"Congruent","ratio_trial":200,"L_num":12,"L_den":15,"R_num":6,"R_den":10,"correct_side":1,"subjID":"gabrielavargassalinas","gender":"1","school":"4","age":"9"},{"start_time":1552054958589,"click_time":1552054960103,"finger_time":1552054959863,"fix_duration":1323.8702709614552,"trial":9,"RT":1274,"MT":240,"sideResp":2,"stimulus":[],"xmouse":[781,781,781,781,781,781,781,781,781,781,781,781,781,781,781,781,781,781,781,781,781,781,781,781,781,781,781,781,781,781,781,781,781,781,781,781,781,781,781,781,781,781,781,781,781,781,781,781,781,781,781,781,781,781,781,781,781,781,781,781,781,781,786,828,850,878,901,926,952,989,1005,1023,1028,1048,1053,1060],"ymouse":[546,546,546,546,546,546,546,546,546,546,546,546,546,546,546,546,546,546,546,546,546,546,546,546,546,546,546,546,546,546,546,546,546,546,546,546,546,546,546,546,546,546,546,546,546,546,546,546,546,546,546,546,546,546,546,546,546,546,546,546,546,539,531,435,379,314,255,210,167,108,87,60,52,20,12,3],"timestamp_mouse":[16,43,55,74,94,114,134,154,174,194,214,235,255,274,295,316,335,355,376,395,414,434,454,475,495,514,534,554,575,595,614,634,654,675,695,714,734,755,774,795,815,834,854,874,895,915,934,955,975,995,1015,1035,1054,1074,1095,1115,1135,1154,1174,1194,1215,1235,1254,1274,1294,1315,1336,1355,1375,1394,1414,1435,1455,1474,1494,1514],"xSR":741.5,"ySR":469.95,"xT1":424.9,"yT1":0,"xT2":1058.1,"yT2":0,"toosoon":0,"cond_shown":"Congruent","ratio_trial":300,"L_num":5,"L_den":25,"R_num":6,"R_den":12,"correct_side":2,"subjID":"gabrielavargassalinas","gender":"1","school":"4","age":"9"},{"start_time":1552054963128,"click_time":1552054964703,"finger_time":1552054964204,"fix_duration":662.9265081494304,"trial":10,"RT":1076,"MT":499,"sideResp":2,"stimulus":[],"xmouse":[753,753,753,753,753,753,753,753,753,753,753,753,753,753,753,753,753,753,753,753,753,753,753,753,753,753,753,753,753,753,753,753,753,753,753,753,753,753,753,753,754,754,754,754,754,754,755,760,765,770,774,779,788,797,810,823,848,853,854,864,873,882,902,920,933,948,968,1005,1024,1035,1046,1051,1052,1053,1055,1055,1056,1057,1062],"ymouse":[508,508,508,508,508,508,508,508,508,508,508,508,508,508,508,508,508,508,508,508,508,508,508,508,508,508,508,508,508,508,508,508,508,508,508,508,508,508,508,508,508,508,508,508,508,508,508,506,500,493,488,481,472,462,450,438,414,407,407,395,385,373,344,318,299,275,243,179,148,128,108,98,96,95,93,93,93,91,87],"timestamp_mouse":[16,43,55,77,95,115,135,156,175,195,215,235,255,276,296,316,335,356,375,395,415,436,456,477,496,516,535,556,575,595,616,636,656,676,697,715,735,756,775,796,816,835,856,876,896,916,935,955,975,995,1015,1036,1055,1076,1095,1117,1137,1155,1176,1195,1216,1236,1256,1275,1295,1317,1335,1355,1375,1395,1416,1437,1455,1475,1496,1515,1536,1555,1575],"xSR":741.5,"ySR":469.95,"xT1":424.9,"yT1":0,"xT2":1058.1,"yT2":0,"toosoon":0,"cond_shown":"Congruent","ratio_trial":300,"L_num":4,"L_den":20,"R_num":13,"R_den":26,"correct_side":2,"subjID":"gabrielavargassalinas","gender":"1","school":"4","age":"9"},{"start_time":1552054966616,"click_time":1552054968363,"finger_time":1552054967883,"fix_duration":250,"trial":11,"RT":1267,"MT":480,"sideResp":2,"stimulus":[],"xmouse":[800,800,800,800,800,800,800,800,800,800,800,800,800,800,800,800,800,800,800,800,800,800,800,800,800,800,800,800,800,800,800,800,800,800,800,800,800,800,800,800,800,800,800,800,800,800,800,800,800,800,800,800,800,800,800,800,800,800,800,801,803,810,822,848,862,878,893,908,938,946,951,955,957,962,966,971,980,992,1019,1028,1037,1045,1052,1065,1074,1083,1091,1099],"ymouse":[507,507,507,507,507,507,507,507,507,507,507,507,507,507,507,507,507,507,507,507,507,507,507,507,507,507,507,507,507,507,507,507,507,507,507,507,507,507,507,507,507,507,507,507,507,507,507,507,507,507,507,507,507,507,507,507,507,507,507,508,507,502,489,449,423,394,371,350,308,297,290,284,280,273,268,261,251,238,201,187,175,164,155,136,124,113,101,90],"timestamp_mouse":[9,40,47,68,87,108,127,148,168,188,208,227,247,269,287,307,327,348,367,388,407,428,449,467,487,509,527,547,567,588,608,628,648,667,688,707,727,747,767,788,808,827,847,867,887,907,928,948,968,987,1008,1027,1047,1068,1087,1108,1127,1147,1168,1187,1207,1228,1248,1267,1288,1307,1328,1349,1367,1387,1407,1427,1447,1468,1489,1507,1527,1547,1568,1588,1608,1628,1647,1668,1687,1709,1728,1747],"xSR":741.5,"ySR":469.95,"xT1":424.9,"yT1":0,"xT2":1058.1,"yT2":0,"toosoon":0,"cond_shown":"Congruent","ratio_trial":300,"L_num":2,"L_den":10,"R_num":12,"R_den":24,"correct_side":2,"subjID":"gabrielavargassalinas","gender":"1","school":"4","age":"9"},{"start_time":1552054970088,"click_time":1552054971363,"finger_time":1552054970805,"fix_duration":683.0867791437063,"trial":12,"RT":717,"MT":558,"sideResp":1,"stimulus":[],"xmouse":[799,799,799,799,799,799,799,799,799,799,799,799,799,799,799,799,799,799,799,799,799,799,799,799,799,799,799,799,799,799,797,797,793,781,772,754,748,739,731,720,699,691,682,672,661,657,655,651,647,634,625,620,614,601,589,584,579,572,569,565,555,548,531,521],"ymouse":[536,536,536,536,536,536,536,536,536,536,536,536,536,536,536,536,536,536,536,536,536,536,536,536,536,536,536,536,536,536,534,533,530,512,495,453,429,400,365,327,258,232,214,193,175,172,170,169,168,166,164,162,160,153,149,147,146,141,139,136,124,118,105,97],"timestamp_mouse":[16,43,56,76,96,116,135,155,175,196,216,235,255,276,297,315,335,355,376,396,415,435,455,476,496,515,535,555,575,595,616,636,655,675,696,717,735,755,775,796,815,836,856,875,897,915,936,955,975,997,1016,1037,1055,1076,1096,1115,1135,1156,1175,1195,1215,1237,1256,1275],"xSR":741.5,"ySR":469.95,"xT1":424.9,"yT1":0,"xT2":1058.1,"yT2":0,"toosoon":0,"cond_shown":"Congruent","ratio_trial":300,"L_num":9,"L_den":10,"R_num":3,"R_den":5,"correct_side":1,"subjID":"gabrielavargassalinas","gender":"1","school":"4","age":"9"},{"start_time":1552054973945,"click_time":1552054975403,"finger_time":1552054974904,"fix_duration":1160.1019920515278,"trial":13,"RT":959,"MT":499,"sideResp":1,"stimulus":[],"xmouse":[776,776,776,776,776,776,776,776,776,776,776,776,776,776,776,776,776,776,776,776,776,776,776,776,776,776,776,776,776,776,776,776,776,776,776,776,776,776,776,776,776,776,776,776,776,776,774,756,749,740,734,726,722,713,707,701,694,671,657,644,633,623,607,599,591,583,573,549,541,534,527,519,505],"ymouse":[492,492,492,492,492,492,492,492,492,492,492,492,492,492,492,492,492,492,492,492,492,492,492,492,492,492,492,492,492,492,492,492,492,492,492,492,492,492,492,492,492,492,492,492,492,482,476,429,407,388,371,357,346,329,321,312,304,279,270,259,249,239,221,213,205,197,184,155,144,131,117,105,83],"timestamp_mouse":[19,38,58,78,98,119,138,158,178,198,219,239,258,278,300,319,339,358,378,399,420,438,458,478,499,519,539,559,579,598,618,638,659,678,698,718,738,760,778,798,819,839,858,878,899,919,939,959,979,998,1019,1039,1058,1079,1098,1119,1139,1158,1179,1200,1218,1238,1258,1278,1298,1319,1339,1358,1380,1398,1418,1438,1458],"xSR":741.5,"ySR":469.95,"xT1":424.9,"yT1":0,"xT2":1058.1,"yT2":0,"toosoon":0,"cond_shown":"Incongruent","ratio_trial":300,"L_num":7,"L_den":10,"R_num":8,"R_den":20,"correct_side":1,"subjID":"gabrielavargassalinas","gender":"1","school":"4","age":"9"},{"start_time":1552054977238,"click_time":1552054980024,"finger_time":1552054978683,"fix_duration":853.8982501398741,"trial":14,"RT":1445,"MT":1341,"sideResp":2,"stimulus":[],"xmouse":[808,808,808,808,808,808,808,808,808,808,808,808,808,808,808,808,808,808,808,808,808,808,808,808,808,808,808,808,808,808,808,808,808,808,808,808,808,808,808,808,808,808,808,808,808,808,808,808,808,808,808,808,808,808,808,808,808,808,808,808,808,808,808,808,808,808,808,807,807,807,807,809,815,822,844,858,876,896,909,934,941,943,944,944,944,944,944,944,944,944,944,944,944,944,944,944,944,944,944,944,944,944,944,944,944,944,944,944,944,944,944,944,944,944,944,944,944,944,944,944,944,944,944,944,944,944,945,952,961,974,981,984,990,996,1013,1022,1033,1041,1050,1065],"ymouse":[536,536,536,536,536,536,536,536,536,536,536,536,536,536,536,536,536,536,536,536,536,536,536,536,536,536,536,536,536,536,536,536,536,536,536,536,536,536,536,536,536,536,536,536,536,536,536,536,536,536,536,536,536,536,536,536,536,536,535,535,534,533,533,533,531,531,530,526,517,508,498,485,464,449,407,384,357,330,308,274,265,260,259,259,259,259,259,259,259,259,259,259,259,259,259,259,259,259,259,259,259,259,259,259,259,259,259,259,259,259,259,259,259,259,259,259,259,259,259,259,259,259,259,259,259,259,257,248,237,221,210,203,196,187,164,152,138,125,110,86],"timestamp_mouse":[13,28,46,65,85,106,126,145,165,185,205,225,245,266,285,305,326,346,366,385,405,425,445,466,486,505,525,546,565,585,605,625,646,665,686,706,725,746,765,786,806,825,846,866,886,907,926,946,966,985,1005,1025,1045,1065,1086,1106,1125,1145,1165,1185,1205,1225,1245,1265,1286,1306,1326,1346,1366,1385,1405,1426,1445,1465,1487,1506,1526,1545,1566,1585,1606,1626,1646,1666,1685,1706,1725,1745,1766,1785,1806,1825,1845,1867,1885,1907,1926,1945,1966,1987,2005,2026,2046,2067,2086,2105,2126,2145,2166,2186,2205,2225,2245,2265,2285,2305,2326,2346,2365,2387,2406,2426,2445,2465,2486,2505,2525,2546,2565,2585,2605,2625,2645,2667,2686,2707,2725,2745,2766,2785],"xSR":741.5,"ySR":469.95,"xT1":424.9,"yT1":0,"xT2":1058.1,"yT2":0,"toosoon":0,"cond_shown":"Congruent","ratio_trial":100,"L_num":1,"L_den":2,"R_num":18,"R_den":30,"correct_side":2,"subjID":"gabrielavargassalinas","gender":"1","school":"4","age":"9"},{"start_time":1552054982226,"click_time":1552054985404,"finger_time":1552054984063,"fix_duration":720.5849616336681,"trial":15,"RT":1837,"MT":1341,"sideResp":2,"stimulus":[],"xmouse":[791,791,791,791,791,791,791,791,791,791,791,791,791,791,791,791,791,791,791,791,791,791,791,791,791,791,791,791,791,791,791,791,791,791,791,791,791,791,791,791,791,791,791,791,791,791,791,791,791,791,791,791,791,791,791,791,791,791,791,791,791,791,791,791,791,791,791,791,791,791,791,791,791,791,791,791,791,791,791,791,791,791,791,791,791,791,791,791,792,810,824,838,851,862,871,872,874,874,876,883,888,891,896,900,907,910,915,923,933,967,986,1010,1028,1032,1032,1034,1036,1036,1036,1036,1036,1036,1036,1036,1036,1036,1036,1036,1036,1036,1036,1036,1036,1036,1036,1036,1036,1036,1036,1036,1036,1036,1036,1036,1036,1036,1036,1038,1041,1052,1057,1057,1057,1057,1057,1057,1057,1058,1065],"ymouse":[525,525,525,525,525,525,525,525,525,525,525,525,525,525,525,525,525,525,525,525,525,525,525,525,525,525,525,525,525,525,525,525,525,525,525,525,525,525,525,525,525,525,525,525,525,525,525,525,525,525,525,525,525,525,525,525,525,525,525,525,525,525,525,525,525,525,525,525,525,525,525,525,525,525,525,525,525,525,525,525,525,525,525,525,525,525,525,525,525,503,485,465,447,431,414,411,408,407,403,387,377,367,358,349,332,324,313,299,282,219,185,148,123,115,115,114,111,111,111,111,111,111,111,111,111,111,111,111,111,111,111,111,111,111,111,111,111,111,111,111,111,111,111,111,111,111,111,110,107,92,84,84,84,84,84,84,84,83,72],"timestamp_mouse":[18,40,57,77,97,117,137,157,177,199,219,237,257,279,298,318,338,357,378,398,418,437,458,478,498,517,537,557,577,599,617,637,657,677,697,717,739,758,777,797,817,839,857,877,897,917,938,958,977,997,1017,1037,1059,1077,1097,1118,1137,1158,1178,1197,1217,1237,1258,1278,1297,1317,1337,1357,1378,1398,1417,1437,1457,1477,1497,1518,1537,1557,1577,1597,1617,1638,1658,1678,1697,1717,1737,1757,1778,1798,1818,1837,1857,1878,1898,1919,1937,1957,1979,1998,2017,2038,2057,2079,2097,2118,2137,2157,2177,2197,2218,2238,2257,2277,2298,2317,2337,2357,2378,2397,2417,2437,2457,2477,2497,2517,2537,2557,2577,2597,2617,2637,2657,2678,2699,2718,2737,2757,2778,2799,2818,2837,2857,2878,2897,2917,2937,2957,2977,2997,3018,3039,3057,3077,3097,3117,3140,3157,3178],"xSR":741.5,"ySR":469.95,"xT1":424.9,"yT1":0,"xT2":1058.1,"yT2":0,"toosoon":0,"cond_shown":"Congruent","ratio_trial":300,"L_num":1,"L_den":3,"R_num":19,"R_den":30,"correct_side":2,"subjID":"gabrielavargassalinas","gender":"1","school":"4","age":"9"},{"start_time":1552054988654,"click_time":1552054990243,"finger_time":1552054989563,"fix_duration":409.231009837615,"trial":16,"RT":909,"MT":680,"sideResp":2,"stimulus":[],"xmouse":[814,814,814,814,814,814,814,814,814,814,814,814,814,814,814,814,814,814,814,814,814,814,814,814,813,813,811,810,810,810,809,809,809,809,809,809,809,809,809,809,809,809,810,813,822,833,843,849,864,875,883,895,905,923,931,938,946,954,954,954,954,954,954,954,956,961,962,962,968,986,1001,1016,1033,1049,1060,1060,1076,1092,1092,1095],"ymouse":[507,507,507,507,507,507,507,507,507,507,507,507,507,507,507,507,507,507,507,507,507,507,507,507,507,507,507,507,508,508,508,508,508,508,508,508,508,508,508,508,508,508,508,507,487,464,446,432,400,382,362,344,327,294,282,270,257,242,242,242,242,242,242,242,240,233,231,230,226,210,197,183,168,148,134,134,118,102,102,98],"timestamp_mouse":[10,40,49,69,89,110,129,149,169,190,210,230,250,269,290,309,330,349,369,390,410,429,449,469,489,509,530,551,570,591,610,629,649,671,689,710,729,749,770,790,809,829,849,870,889,909,929,949,971,989,1009,1030,1050,1071,1089,1109,1129,1149,1171,1190,1210,1229,1249,1269,1289,1310,1330,1350,1369,1389,1410,1430,1450,1469,1490,1510,1530,1550,1569,1589],"xSR":741.5,"ySR":469.95,"xT1":424.9,"yT1":0,"xT2":1058.1,"yT2":0,"toosoon":0,"cond_shown":"Congruent","ratio_trial":200,"L_num":5,"L_den":10,"R_num":14,"R_den":20,"correct_side":2,"subjID":"gabrielavargassalinas","gender":"1","school":"4","age":"9"},{"start_time":1552054992122,"click_time":1552054994005,"finger_time":1552054993523,"fix_duration":537.8241051641725,"trial":17,"RT":1401,"MT":482,"sideResp":1,"stimulus":[],"xmouse":[831,831,831,831,831,831,831,831,830,830,830,829,829,829,829,829,829,829,829,829,829,829,829,829,829,829,829,829,829,829,829,829,829,829,829,829,829,829,829,829,829,829,829,829,829,829,829,829,829,829,829,829,829,829,829,829,829,829,829,829,829,829,829,829,829,829,826,822,813,804,796,740,718,693,671,648,603,580,571,571,571,571,571,571,571,571,571,571,571,571,571,571,571,571,514],"ymouse":[523,523,523,523,523,523,523,523,523,523,523,523,523,523,523,523,523,523,523,523,523,523,523,523,523,523,523,523,523,523,523,523,523,523,523,523,523,523,523,523,523,523,523,523,523,523,523,523,523,523,523,523,523,523,523,523,523,523,523,523,523,523,523,523,523,523,521,513,499,476,458,329,283,226,168,121,46,15,3,3,3,3,3,3,3,3,3,3,3,3,3,3,3,3,3],"timestamp_mouse":[9,33,41,63,81,101,123,141,161,181,201,222,241,261,281,301,321,342,361,381,402,423,441,461,481,502,521,541,562,582,601,621,641,662,681,701,721,742,761,781,801,821,841,861,881,902,922,942,961,981,1002,1021,1042,1061,1081,1101,1121,1141,1162,1181,1201,1222,1242,1263,1281,1301,1321,1342,1362,1381,1401,1422,1443,1462,1481,1502,1522,1541,1562,1581,1601,1622,1641,1661,1681,1701,1721,1741,1761,1781,1801,1823,1841,1861,1883],"xSR":741.5,"ySR":469.95,"xT1":424.9,"yT1":0,"xT2":1058.1,"yT2":0,"toosoon":0,"cond_shown":"Incongruent","ratio_trial":300,"L_num":7,"L_den":10,"R_num":8,"R_den":20,"correct_side":1,"subjID":"gabrielavargassalinas","gender":"1","school":"4","age":"9"},{"start_time":1552054996290,"click_time":1552054998145,"finger_time":1552054997764,"fix_duration":726.0052975882434,"trial":18,"RT":1474,"MT":381,"sideResp":1,"stimulus":[],"xmouse":[777,777,777,777,777,777,777,777,777,777,777,777,777,777,777,777,777,777,777,777,777,777,777,777,777,777,777,777,777,777,777,777,777,777,777,777,777,777,777,777,777,777,777,777,777,777,777,777,777,777,777,777,777,777,777,777,777,777,777,777,777,777,777,777,777,777,777,777,777,777,778,779,770,746,733,722,713,704,691,670,658,648,647,636,622,607,592,573,561,548,528,517,496],"ymouse":[525,525,525,525,525,525,525,525,525,525,525,525,525,525,525,525,525,525,525,525,525,525,525,525,525,525,525,525,525,525,525,525,525,525,525,525,525,525,525,525,525,525,525,525,525,525,525,525,525,525,525,525,525,525,525,525,525,525,525,525,525,525,525,525,525,525,525,525,525,525,526,523,506,458,427,397,371,344,319,285,267,254,253,239,224,211,197,179,166,153,135,123,97],"timestamp_mouse":[13,33,54,74,93,113,133,153,173,193,214,234,253,273,294,313,334,354,373,393,413,433,453,473,493,513,533,553,574,594,614,634,653,673,694,714,733,753,773,793,813,833,853,873,894,913,933,954,973,994,1014,1033,1054,1073,1094,1113,1133,1153,1174,1193,1213,1233,1254,1274,1293,1313,1333,1354,1374,1393,1413,1433,1453,1474,1493,1514,1533,1554,1575,1593,1614,1633,1654,1673,1694,1713,1733,1755,1773,1793,1813,1833,1855],"xSR":741.5,"ySR":469.95,"xT1":424.9,"yT1":0,"xT2":1058.1,"yT2":0,"toosoon":0,"cond_shown":"Incongruent","ratio_trial":100,"L_num":4,"L_den":8,"R_num":8,"R_den":20,"correct_side":1,"subjID":"gabrielavargassalinas","gender":"1","school":"4","age":"9"},{"start_time":1552055000412,"click_time":1552055003524,"finger_time":1552055003303,"fix_duration":1127.9206834663626,"trial":19,"RT":2891,"MT":221,"sideResp":1,"stimulus":[],"xmouse":[806,806,806,806,806,806,806,806,806,806,806,806,806,806,806,806,806,806,806,806,806,806,806,806,806,806,806,806,806,806,806,806,806,806,806,806,806,806,806,806,806,806,806,806,806,806,806,806,806,806,806,806,806,806,806,806,806,806,806,806,806,806,806,806,806,806,806,806,806,806,806,806,806,806,806,806,806,806,806,806,806,806,806,806,806,806,806,806,806,806,806,806,806,806,806,806,806,806,806,804,804,804,804,804,804,804,804,804,804,804,804,804,804,804,804,804,804,804,804,804,804,804,804,804,804,804,804,804,804,804,804,804,804,804,804,804,803,801,799,794,787,775,764,745,733,717,699,657,637,617,597,577,552,538,527,507],"ymouse":[530,530,530,530,530,530,530,530,530,530,530,530,530,530,530,530,530,530,530,530,530,530,530,530,530,530,530,530,530,530,530,530,530,530,530,530,530,530,530,530,530,530,530,530,530,530,530,530,530,530,530,530,530,530,530,530,530,530,530,530,530,530,530,530,530,530,530,530,530,530,530,530,530,530,530,530,530,530,530,530,530,530,530,530,530,530,530,530,530,530,530,530,530,530,530,530,530,530,530,530,530,530,530,530,530,530,530,530,530,530,530,530,530,530,530,530,530,530,530,530,530,530,530,530,530,530,530,530,530,530,530,530,530,530,530,530,530,530,530,528,527,520,512,487,472,452,433,391,363,335,306,270,207,163,115,78],"timestamp_mouse":[12,39,52,71,92,112,132,152,171,192,211,231,251,271,291,311,331,351,372,392,411,432,451,471,491,512,531,551,572,591,612,631,652,671,691,711,731,751,772,791,811,832,851,871,891,911,931,951,971,991,1011,1032,1051,1071,1091,1112,1131,1151,1172,1192,1212,1231,1251,1271,1292,1311,1331,1351,1371,1392,1411,1431,1451,1472,1493,1511,1532,1551,1572,1591,1611,1631,1651,1672,1691,1711,1731,1752,1772,1792,1811,1831,1851,1871,1891,1911,1931,1951,1971,1991,2011,2031,2051,2071,2091,2111,2131,2151,2172,2191,2211,2232,2251,2272,2291,2311,2331,2351,2371,2391,2411,2431,2452,2472,2491,2511,2531,2552,2571,2591,2611,2632,2651,2672,2691,2711,2731,2751,2771,2791,2811,2832,2851,2872,2891,2911,2931,2952,2971,2991,3011,3031,3052,3071,3092,3112],"xSR":741.5,"ySR":469.95,"xT1":424.9,"yT1":0,"xT2":1058.1,"yT2":0,"toosoon":0,"cond_shown":"Congruent","ratio_trial":100,"L_num":8,"L_den":16,"R_num":2,"R_den":5,"correct_side":1,"subjID":"gabrielavargassalinas","gender":"1","school":"4","age":"9"},{"start_time":1552055005601,"click_time":1552055008443,"finger_time":1552055006883,"fix_duration":972.7508632538849,"trial":20,"RT":1282,"MT":1560,"sideResp":2,"stimulus":[],"xmouse":[777,777,777,777,777,777,777,777,777,777,777,777,777,777,777,777,777,777,777,777,777,777,777,777,777,777,777,777,777,777,777,777,777,777,777,777,777,777,777,777,777,777,777,777,777,777,777,777,777,777,777,777,777,777,777,777,777,777,777,777,777,777,777,788,796,829,835,841,842,850,860,862,863,864,868,873,874,874,874,878,922,943,983,984,984,984,984,984,984,1006,1022,1023,1027,1030,1030,1030,1032,1032,1032,1032,1032,1032,1032,1032,1032,1032,1032,1032,1032,1032,1032,1032,1032,1032,1032,1032,1032,1032,1032,1032,1032,1032,1032,1032,1032,1032,1032,1032,1032,1032,1032,1032,1032,1032,1032,1032,1032,1032,1032,1032,1032,1055,1089],"ymouse":[504,504,504,504,504,504,504,504,504,504,504,504,504,504,504,504,504,504,504,504,504,504,504,504,504,504,504,504,504,504,504,504,504,504,504,504,504,504,504,504,504,504,504,504,504,504,504,504,504,504,504,504,504,504,504,504,504,504,504,504,504,504,500,474,456,393,380,358,354,338,321,319,317,317,314,310,310,310,310,305,246,221,179,179,179,179,179,179,179,159,142,141,133,129,128,128,126,126,126,126,126,126,126,126,126,126,126,126,126,126,126,126,126,126,126,126,126,126,126,126,126,126,126,126,126,126,126,126,126,126,126,126,126,126,126,126,126,126,126,126,126,97,50],"timestamp_mouse":[9,23,44,63,82,103,122,142,162,183,202,224,242,262,282,303,323,342,362,382,402,423,442,463,482,502,522,542,562,582,602,622,642,662,683,702,722,742,763,782,803,823,842,862,883,902,922,942,962,983,1002,1023,1043,1062,1082,1103,1122,1142,1163,1183,1202,1222,1243,1262,1282,1302,1322,1342,1364,1382,1402,1422,1442,1464,1482,1502,1522,1542,1563,1582,1602,1622,1642,1662,1682,1703,1722,1742,1762,1782,1803,1822,1842,1862,1882,1903,1922,1942,1963,1982,2002,2022,2043,2062,2083,2102,2122,2143,2162,2183,2202,2222,2242,2264,2283,2304,2323,2342,2362,2382,2402,2422,2442,2462,2483,2503,2522,2542,2562,2583,2602,2622,2642,2662,2683,2702,2722,2742,2762,2783,2802,2823,2842],"xSR":741.5,"ySR":469.95,"xT1":424.9,"yT1":0,"xT2":1058.1,"yT2":0,"toosoon":0,"cond_shown":"Congruent","ratio_trial":100,"L_num":4,"L_den":10,"R_num":15,"R_den":30,"correct_side":2,"subjID":"gabrielavargassalinas","gender":"1","school":"4","age":"9"},{"start_time":1552055012735,"click_time":1552055014764,"finger_time":1552055013803,"fix_duration":930.6408711850718,"trial":21,"RT":1068,"MT":961,"sideResp":1,"stimulus":[],"xmouse":[765,765,765,765,765,765,765,765,765,765,765,765,765,765,765,765,765,765,765,765,765,765,765,765,765,765,765,765,765,765,765,765,765,765,765,765,765,765,765,765,765,765,765,765,765,765,765,765,765,761,759,753,751,730,718,708,702,696,696,694,693,689,669,669,654,638,621,611,609,604,604,601,599,599,599,599,599,599,599,599,599,599,599,599,592,584,584,584,584,584,584,583,578,576,573,571,567,556,548,540,527,516],"ymouse":[516,516,516,516,516,516,516,516,516,516,516,516,516,516,516,516,516,516,516,516,516,516,516,516,516,516,516,516,516,516,516,516,516,516,516,516,516,516,516,516,516,516,516,516,516,516,516,516,516,510,503,487,477,424,396,375,361,348,345,343,342,339,317,315,299,280,261,250,248,243,242,239,235,235,235,235,235,235,235,235,235,235,235,235,214,195,194,194,194,194,194,193,182,176,174,169,162,139,120,99,62,37],"timestamp_mouse":[9,34,48,68,89,108,128,148,169,188,209,228,249,269,290,308,328,349,369,388,408,428,449,470,489,508,528,549,569,588,609,629,648,668,688,708,728,748,768,788,809,829,848,868,889,908,928,948,968,988,1009,1029,1048,1068,1089,1109,1128,1150,1168,1188,1208,1228,1250,1268,1289,1309,1328,1348,1368,1389,1408,1430,1448,1468,1488,1508,1528,1548,1568,1588,1608,1629,1648,1670,1688,1708,1730,1749,1769,1788,1808,1828,1850,1868,1889,1908,1928,1950,1968,1988,2008,2028],"xSR":741.5,"ySR":469.95,"xT1":424.9,"yT1":0,"xT2":1058.1,"yT2":0,"toosoon":0,"cond_shown":"Incongruent","ratio_trial":300,"L_num":8,"L_den":10,"R_num":9,"R_den":18,"correct_side":1,"subjID":"gabrielavargassalinas","gender":"1","school":"4","age":"9"},{"start_time":1552055022061,"click_time":1552055024224,"finger_time":1552055023823,"fix_duration":1015.7543444676833,"trial":22,"RT":1762,"MT":401,"sideResp":1,"stimulus":[],"xmouse":[787,787,787,787,787,787,787,787,787,787,787,787,787,787,787,787,787,787,787,787,787,787,787,787,787,787,787,787,787,787,787,787,787,787,787,787,787,787,787,787,787,787,787,787,787,787,787,787,787,787,787,787,787,787,787,787,787,787,787,787,787,787,787,787,787,787,787,787,787,787,787,787,787,787,787,787,787,787,787,787,787,787,786,782,777,768,757,745,722,700,683,671,633,614,606,604,604,603,599,598,597,590,577,568,561,554,548,539,518],"ymouse":[526,526,526,526,526,526,526,526,526,526,526,526,526,526,526,526,526,526,526,526,526,526,526,526,526,526,526,526,526,526,526,526,526,526,526,526,526,526,526,526,526,526,526,526,526,526,526,526,526,526,526,526,526,526,526,526,526,526,526,526,526,526,526,526,526,526,526,526,526,526,526,526,526,526,526,526,526,526,526,526,526,526,526,526,526,519,511,493,453,409,362,342,282,244,220,218,218,214,198,193,192,182,163,153,142,132,122,114,97],"timestamp_mouse":[12,22,42,62,84,102,122,143,164,183,202,222,243,263,283,302,322,344,362,383,403,422,442,462,483,502,523,542,562,582,602,622,643,662,683,702,722,742,762,782,803,822,842,863,883,902,923,942,963,982,1003,1022,1042,1064,1082,1102,1122,1142,1163,1183,1202,1222,1242,1263,1282,1302,1322,1342,1363,1383,1402,1422,1442,1462,1482,1504,1522,1542,1562,1583,1602,1623,1643,1662,1684,1702,1722,1742,1762,1782,1802,1823,1844,1862,1882,1902,1923,1944,1962,1982,2004,2024,2044,2062,2083,2103,2123,2142,2162],"xSR":741.5,"ySR":469.95,"xT1":424.9,"yT1":0,"xT2":1058.1,"yT2":0,"toosoon":0,"cond_shown":"Incongruent","ratio_trial":100,"L_num":4,"L_den":8,"R_num":8,"R_den":20,"correct_side":1,"subjID":"gabrielavargassalinas","gender":"1","school":"4","age":"9"},{"start_time":1552055026486,"click_time":1552055028323,"finger_time":1552055028024,"fix_duration":1220.1430146922953,"trial":23,"RT":1538,"MT":299,"sideResp":2,"stimulus":[],"xmouse":[769,769,769,769,769,769,769,769,769,769,769,769,769,769,769,769,769,769,769,769,769,769,769,769,769,769,769,769,769,769,769,769,769,769,769,769,769,769,769,769,769,769,769,769,769,769,769,769,769,769,769,769,769,769,769,769,769,769,769,769,769,769,769,769,769,769,769,769,769,769,769,769,769,769,772,787,833,836,836,856,889,966,999,1030,1052,1063,1089,1096,1104,1108,1111,1127],"ymouse":[501,501,501,501,501,501,501,501,501,501,501,501,501,501,501,501,501,501,501,501,501,501,501,501,501,501,501,501,501,501,501,501,501,501,501,501,501,501,501,501,501,501,501,501,501,501,501,501,501,501,501,501,501,501,501,501,501,501,501,501,501,501,501,501,501,501,501,501,501,501,501,501,501,502,502,496,463,460,460,433,389,295,257,226,203,183,145,132,119,110,105,79],"timestamp_mouse":[19,38,57,77,97,117,137,157,177,197,217,237,258,277,297,318,337,358,377,397,418,437,457,477,498,517,538,557,577,597,617,637,657,678,697,717,737,757,778,797,817,837,857,877,897,917,937,962,978,997,1018,1037,1058,1077,1097,1118,1137,1157,1177,1198,1217,1237,1257,1277,1297,1318,1339,1357,1377,1397,1418,1439,1458,1477,1498,1517,1538,1558,1577,1598,1618,1638,1657,1678,1698,1717,1737,1758,1777,1797,1819,1837],"xSR":741.5,"ySR":469.95,"xT1":424.9,"yT1":0,"xT2":1058.1,"yT2":0,"toosoon":0,"cond_shown":"Incongruent","ratio_trial":300,"L_num":4,"L_den":20,"R_num":2,"R_den":4,"correct_side":2,"subjID":"gabrielavargassalinas","gender":"1","school":"4","age":"9"},{"start_time":1552055030960,"click_time":1552055032764,"finger_time":1552055032503,"fix_duration":976.5550837372422,"trial":24,"RT":1543,"MT":261,"sideResp":1,"stimulus":[],"xmouse":[786,786,786,786,786,786,786,786,786,786,786,786,786,786,786,786,786,786,786,786,786,786,786,786,786,786,786,786,786,786,786,786,786,786,786,786,786,786,786,786,786,786,786,786,786,786,786,786,786,786,786,786,786,786,786,786,786,786,786,786,786,786,786,786,786,786,786,786,786,786,786,786,784,780,778,778,774,761,733,717,711,686,667,628,609,588,572,555,537,529,523],"ymouse":[521,521,521,521,521,521,521,521,521,521,521,521,521,521,521,521,521,521,521,521,521,521,521,521,521,521,521,521,521,521,521,521,521,521,521,521,521,521,521,521,521,521,521,521,521,521,521,521,521,521,521,521,521,521,521,521,521,521,521,521,521,521,521,521,521,521,521,521,521,518,518,518,512,504,502,502,488,453,377,329,317,260,217,148,117,89,64,42,18,9,1],"timestamp_mouse":[3,23,43,64,84,104,124,144,164,184,204,223,243,263,283,303,323,343,363,383,403,423,443,463,483,503,523,544,564,585,604,623,643,663,683,703,724,743,763,783,803,823,843,864,885,904,923,943,963,983,1003,1023,1043,1063,1083,1103,1123,1143,1163,1184,1203,1223,1243,1263,1283,1303,1324,1344,1363,1383,1403,1424,1444,1464,1484,1504,1524,1543,1564,1583,1603,1623,1643,1665,1683,1703,1724,1745,1765,1783,1803],"xSR":741.5,"ySR":469.95,"xT1":424.9,"yT1":0,"xT2":1058.1,"yT2":0,"toosoon":0,"cond_shown":"Incongruent","ratio_trial":100,"L_num":9,"L_den":18,"R_num":6,"R_den":10,"correct_side":2,"subjID":"gabrielavargassalinas","gender":"1","school":"4","age":"9"},{"start_time":1552055035335,"click_time":1552055038545,"finger_time":1552055036704,"fix_duration":250,"trial":25,"RT":1369,"MT":1841,"sideResp":2,"stimulus":[],"xmouse":[795,795,795,795,795,795,795,795,795,795,795,795,795,795,795,795,795,795,795,795,795,795,795,795,795,795,795,795,795,795,795,795,795,795,795,795,795,795,795,795,795,795,795,795,795,795,795,795,795,795,795,795,798,799,805,816,818,819,819,819,819,819,819,819,819,820,822,826,830,844,913,955,1013,1049,1066,1118,1133,1137,1137,1137,1137,1137,1137,1136,1135,1134,1134,1134,1134,1132,1123,1121,1121,1121,1121,1121,1121,1121,1121,1121,1121,1121,1121,1121,1121,1112,1080,1056,1041,1037,1015,1003,988,975,960,925,906,891,877,867,850,846,843,842,842,842,842,842,842,842,842,842,842,842,842,842,838,835,822,817,784,775,770,769,769,759,749,737,729,723,722,722,722,723,728,771,793,830,903,933,1135],"ymouse":[532,532,532,532,532,532,532,532,532,532,532,532,532,532,532,532,532,532,532,532,532,532,532,532,532,532,532,532,532,532,532,532,532,532,532,532,532,532,532,532,532,532,532,532,532,532,532,532,532,532,532,532,531,531,527,515,513,510,509,509,509,509,509,509,509,505,497,483,466,440,344,300,258,235,224,188,177,172,171,171,171,171,171,171,171,171,171,171,171,171,171,171,171,171,171,171,171,171,171,171,171,171,171,171,171,171,171,171,171,171,177,179,180,180,176,155,143,133,127,124,122,121,121,121,121,121,121,121,121,121,121,121,121,121,121,121,120,119,119,119,115,114,114,113,113,113,113,113,112,112,112,112,112,111,110,98,91,79,61,52,25],"timestamp_mouse":[9,28,48,68,89,108,128,149,168,188,208,228,248,268,288,309,328,348,369,388,409,428,448,469,488,508,529,549,568,589,608,628,649,669,689,708,729,749,768,788,810,828,848,869,888,908,928,948,968,989,1009,1030,1048,1068,1088,1108,1128,1148,1168,1188,1208,1228,1248,1268,1288,1308,1328,1348,1369,1388,1408,1429,1448,1469,1489,1508,1528,1548,1568,1588,1608,1628,1648,1668,1688,1708,1728,1748,1768,1788,1808,1828,1849,1868,1888,1908,1928,1949,1968,1988,2009,2028,2048,2069,2088,2109,2129,2149,2168,2189,2208,2230,2249,2268,2289,2309,2328,2349,2368,2389,2408,2428,2448,2469,2489,2509,2528,2549,2568,2589,2609,2628,2648,2668,2688,2708,2728,2749,2768,2789,2808,2829,2850,2868,2888,2909,2929,2950,2968,2988,3009,3029,3048,3068,3089,3109,3129,3149,3168,3188,3209],"xSR":741.5,"ySR":469.95,"xT1":424.9,"yT1":0,"xT2":1058.1,"yT2":0,"toosoon":0,"cond_shown":"Congruent","ratio_trial":100,"L_num":10,"L_den":25,"R_num":3,"R_den":10,"correct_side":1,"subjID":"gabrielavargassalinas","gender":"1","school":"4","age":"9"},{"start_time":1552055040277,"click_time":1552055041763,"finger_time":1552055041663,"fix_duration":250,"trial":26,"RT":1386,"MT":100,"sideResp":1,"stimulus":[],"xmouse":[795,795,795,795,795,795,795,795,795,795,795,795,795,795,795,795,795,795,795,795,795,795,795,795,795,795,795,795,795,795,795,795,795,795,795,795,795,795,795,795,795,795,795,795,795,795,795,795,795,795,795,795,795,795,795,795,795,795,795,795,795,795,795,795,795,792,786,772,751,685,652,624,589,558,510],"ymouse":[547,547,547,547,547,547,547,547,547,547,547,547,547,547,547,547,547,547,547,547,547,547,547,547,547,547,547,547,547,547,547,547,547,547,547,547,547,547,547,547,547,547,547,547,547,547,547,547,547,547,547,547,547,547,547,547,547,547,547,547,547,547,547,547,547,544,533,509,472,348,290,240,186,137,70],"timestamp_mouse":[9,39,47,66,88,106,126,146,167,187,206,226,247,267,286,307,326,347,366,386,406,426,446,466,486,506,526,546,566,586,608,626,646,666,687,706,726,748,766,786,807,826,846,866,886,906,927,946,967,986,1007,1026,1048,1066,1086,1106,1126,1146,1166,1186,1207,1227,1246,1266,1286,1306,1327,1346,1366,1386,1406,1427,1448,1467,1486],"xSR":741.5,"ySR":469.95,"xT1":424.9,"yT1":0,"xT2":1058.1,"yT2":0,"toosoon":0,"cond_shown":"Incongruent","ratio_trial":100,"L_num":6,"L_den":10,"R_num":13,"R_den":26,"correct_side":1,"subjID":"gabrielavargassalinas","gender":"1","school":"4","age":"9"},{"start_time":1552055044143,"click_time":1552055046784,"finger_time":1552055046064,"fix_duration":1378.804206505933,"trial":27,"RT":1921,"MT":720,"sideResp":1,"stimulus":[],"xmouse":[753,753,753,753,753,753,753,753,753,753,753,753,753,753,753,753,753,753,753,753,753,753,753,753,753,753,753,753,753,753,753,753,753,753,753,753,753,753,753,753,753,753,753,753,753,753,753,753,753,753,753,753,753,753,753,753,753,753,753,753,753,753,753,753,753,753,753,753,753,753,753,753,753,753,753,753,753,753,753,753,753,753,753,753,753,753,753,753,753,753,753,753,753,753,752,748,735,729,723,718,714,707,704,703,702,702,702,702,702,702,700,689,680,670,655,649,631,605,596,592,585,580,572,568,562,554,550,543,542,542,537,528,520],"ymouse":[509,509,509,509,509,509,509,509,509,509,509,509,509,509,509,509,509,509,509,509,509,509,509,509,509,509,509,509,509,509,509,509,509,509,509,509,509,509,509,509,509,509,509,509,509,509,509,509,509,509,509,509,509,509,509,509,509,509,509,509,509,509,509,509,509,509,509,509,509,509,509,509,509,509,509,509,509,509,509,509,509,509,509,509,509,509,509,509,509,509,509,509,509,507,500,485,455,444,436,431,428,425,425,425,424,424,424,424,424,424,423,410,397,379,344,330,281,215,186,170,149,132,107,96,87,76,70,60,59,59,58,56,55],"timestamp_mouse":[9,32,40,60,80,100,120,140,160,180,200,220,241,260,280,300,322,341,360,380,400,420,440,460,482,500,520,540,560,580,600,621,640,660,680,700,720,740,761,780,800,820,840,860,880,900,920,940,960,980,1001,1021,1041,1060,1081,1100,1120,1140,1161,1181,1200,1220,1241,1260,1280,1301,1320,1340,1360,1381,1401,1420,1441,1460,1480,1500,1520,1540,1560,1580,1600,1621,1641,1660,1680,1701,1720,1740,1760,1780,1800,1820,1841,1861,1881,1900,1921,1942,1961,1980,2000,2020,2040,2061,2080,2100,2120,2140,2160,2180,2200,2220,2240,2260,2280,2300,2321,2340,2361,2381,2400,2421,2441,2460,2480,2500,2521,2541,2560,2580,2601,2621,2640],"xSR":741.5,"ySR":469.95,"xT1":424.9,"yT1":0,"xT2":1058.1,"yT2":0,"toosoon":0,"cond_shown":"Incongruent","ratio_trial":100,"L_num":4,"L_den":8,"R_num":8,"R_den":20,"correct_side":1,"subjID":"gabrielavargassalinas","gender":"1","school":"4","age":"9"},{"start_time":1552055048560,"click_time":1552055051443,"finger_time":1552055050303,"fix_duration":835.2254902314988,"trial":28,"RT":1743,"MT":1140,"sideResp":2,"stimulus":[],"xmouse":[774,774,774,774,774,774,774,774,774,774,774,774,774,774,774,774,774,774,774,774,774,774,774,774,774,774,774,774,774,774,774,774,774,774,774,774,774,774,774,774,774,774,774,774,774,774,774,774,774,774,774,774,774,774,774,774,774,774,774,774,774,774,774,774,774,774,774,774,774,774,774,774,774,774,774,774,774,774,774,774,774,774,774,775,777,791,806,828,847,858,858,872,872,872,872,872,872,874,886,898,923,923,923,923,923,923,959,959,959,959,969,995,1021,1022,1022,1025,1025,1030,1037,1041,1047,1056,1056,1056,1056,1056,1056,1056,1056,1056,1056,1056,1056,1056,1056,1056,1056,1056,1056,1056,1056,1056,1056,1057,1059],"ymouse":[517,517,517,517,517,517,517,517,517,517,517,517,517,517,517,517,517,517,517,517,517,517,517,517,517,517,517,517,517,517,517,517,517,517,517,517,517,517,517,517,517,517,517,517,517,517,517,517,517,517,517,517,517,517,517,517,517,517,517,517,517,517,517,517,517,517,517,517,517,517,517,517,517,517,517,517,517,517,517,517,517,517,517,516,514,498,482,452,425,411,411,396,396,396,396,396,396,392,376,358,322,321,321,321,321,321,257,257,257,256,233,190,136,134,134,131,131,120,100,86,75,60,60,60,60,60,60,60,60,60,60,60,60,60,60,60,60,60,60,60,60,60,60,60,60],"timestamp_mouse":[9,23,44,64,83,103,124,143,163,183,203,223,245,263,284,303,325,344,363,383,404,423,443,463,483,504,523,544,564,583,603,623,644,663,683,704,724,743,763,784,803,823,843,863,883,903,923,943,963,984,1005,1024,1043,1063,1083,1103,1123,1143,1163,1185,1203,1223,1243,1263,1283,1303,1324,1344,1364,1383,1403,1423,1443,1463,1483,1503,1524,1543,1563,1584,1604,1623,1643,1663,1684,1703,1722,1743,1763,1784,1804,1822,1843,1863,1883,1903,1922,1943,1963,1984,2005,2023,2042,2063,2083,2103,2124,2143,2162,2183,2205,2223,2243,2263,2283,2304,2323,2343,2363,2383,2403,2423,2443,2463,2483,2504,2524,2544,2563,2583,2604,2622,2644,2663,2682,2703,2723,2743,2763,2783,2803,2824,2843,2863,2883],"xSR":741.5,"ySR":469.95,"xT1":424.9,"yT1":0,"xT2":1058.1,"yT2":0,"toosoon":0,"cond_shown":"Congruent","ratio_trial":100,"L_num":3,"L_den":20,"R_num":4,"R_den":16,"correct_side":2,"subjID":"gabrielavargassalinas","gender":"1","school":"4","age":"9"},{"start_time":1552055059548,"click_time":1552055061203,"finger_time":1552055060842,"fix_duration":703.0014805484087,"trial":29,"RT":1294,"MT":361,"sideResp":1,"stimulus":[],"xmouse":[797,797,797,797,797,797,797,797,797,798,798,798,798,798,798,798,798,798,798,798,798,798,798,798,798,798,798,798,798,798,798,798,798,798,798,798,798,798,798,798,798,798,798,798,798,798,798,798,798,798,798,798,798,798,798,798,798,798,798,798,798,799,799,797,789,771,748,691,681,676,672,668,650,636,619,603,591,568,560,551,542,531,509],"ymouse":[515,515,515,515,515,515,515,515,515,516,516,516,516,516,516,516,516,516,516,516,516,516,516,516,516,516,516,516,516,516,516,516,516,516,516,516,516,516,516,516,516,516,516,516,516,516,516,516,516,516,516,516,516,516,516,516,516,516,516,516,516,516,509,496,468,425,381,285,269,262,259,256,243,234,223,211,200,167,149,130,112,95,64],"timestamp_mouse":[15,35,65,75,95,115,136,155,174,195,215,236,255,275,295,316,335,355,375,395,415,435,455,475,496,515,534,556,575,595,615,634,655,675,694,716,734,756,776,795,814,834,856,875,895,914,935,956,975,996,1015,1035,1055,1076,1096,1115,1134,1156,1176,1196,1215,1235,1255,1276,1294,1315,1335,1354,1375,1395,1415,1436,1454,1475,1495,1515,1535,1555,1575,1594,1616,1636,1655],"xSR":741.5,"ySR":469.95,"xT1":424.9,"yT1":0,"xT2":1058.1,"yT2":0,"toosoon":0,"cond_shown":"Congruent","ratio_trial":200,"L_num":9,"L_den":20,"R_num":4,"R_den":16,"correct_side":1,"subjID":"gabrielavargassalinas","gender":"1","school":"4","age":"9"},{"start_time":1552055064081,"click_time":1552055065683,"finger_time":1552055065003,"fix_duration":1397.8729881595716,"trial":30,"RT":922,"MT":680,"sideResp":1,"stimulus":[],"xmouse":[809,809,809,809,809,809,809,809,809,809,809,809,809,809,809,809,809,809,809,809,809,809,809,809,809,809,809,809,809,809,809,809,809,809,809,809,809,809,809,809,809,809,809,804,792,782,761,755,752,748,745,741,721,706,694,689,663,659,659,642,629,607,597,582,569,556,537,527,517,506,506,498,479,479,479,479,479,478,478,478,478],"ymouse":[521,521,521,521,521,521,521,521,521,521,521,521,521,521,521,521,521,521,521,521,521,521,521,521,521,521,521,521,521,521,521,521,521,521,521,521,521,521,521,521,521,521,521,518,498,481,441,430,423,418,414,409,383,366,350,345,304,294,294,266,245,206,191,171,156,144,131,125,120,113,113,109,101,100,100,100,100,100,100,100,99],"timestamp_mouse":[10,34,41,63,82,102,122,142,163,182,202,222,242,261,282,302,322,342,362,382,402,422,441,462,482,503,522,542,563,582,602,622,642,661,683,702,722,742,762,781,802,822,841,862,882,902,922,943,962,983,1002,1023,1042,1061,1081,1103,1123,1142,1161,1181,1202,1222,1242,1262,1281,1302,1323,1342,1362,1382,1402,1422,1442,1463,1482,1502,1522,1542,1563,1582,1602],"xSR":741.5,"ySR":469.95,"xT1":424.9,"yT1":0,"xT2":1058.1,"yT2":0,"toosoon":0,"cond_shown":"Congruent","ratio_trial":200,"L_num":12,"L_den":15,"R_num":6,"R_den":10,"correct_side":1,"subjID":"gabrielavargassalinas","gender":"1","school":"4","age":"9"},{"start_time":1552055068535,"click_time":1552055070443,"finger_time":1552055069743,"fix_duration":250,"trial":31,"RT":1208,"MT":700,"sideResp":2,"stimulus":[],"xmouse":[814,814,814,814,814,814,814,814,814,814,814,814,814,814,814,814,814,814,814,814,814,814,814,814,814,814,814,814,814,814,814,814,814,814,814,814,814,814,814,814,814,814,814,814,814,814,814,814,814,814,814,814,814,814,814,814,815,816,821,832,837,843,849,859,883,900,907,913,913,925,935,938,943,947,962,974,977,977,977,981,988,999,1010,1019,1019,1019,1019,1020,1021,1033,1040,1049,1058,1067,1067,1068],"ymouse":[528,528,528,528,528,528,528,528,528,528,528,528,528,528,528,528,528,528,528,528,528,528,528,528,528,528,528,528,528,528,528,528,528,528,528,528,528,528,528,528,528,528,528,528,528,528,528,528,528,528,528,528,528,528,528,528,526,522,511,476,458,439,418,396,347,316,302,292,292,265,246,239,231,228,213,202,199,199,199,194,188,181,171,161,161,161,161,159,157,142,133,122,111,100,100,99],"timestamp_mouse":[12,31,48,68,88,108,127,148,169,187,208,229,248,268,287,308,328,348,368,389,408,428,447,468,489,508,527,547,568,588,608,629,648,668,688,709,729,748,768,793,808,828,848,868,887,908,927,948,968,987,1008,1028,1048,1068,1088,1108,1128,1148,1168,1188,1208,1228,1248,1268,1288,1309,1328,1348,1369,1388,1409,1428,1448,1468,1488,1508,1527,1548,1568,1589,1608,1629,1649,1667,1688,1707,1728,1748,1768,1788,1808,1829,1848,1868,1888,1908],"xSR":741.5,"ySR":469.95,"xT1":424.9,"yT1":0,"xT2":1058.1,"yT2":0,"toosoon":0,"cond_shown":"Incongruent","ratio_trial":300,"L_num":4,"L_den":20,"R_num":2,"R_den":4,"correct_side":2,"subjID":"gabrielavargassalinas","gender":"1","school":"4","age":"9"},{"start_time":1552055072683,"click_time":1552055074424,"finger_time":1552055074263,"fix_duration":259.8318555208808,"trial":32,"RT":1580,"MT":161,"sideResp":2,"stimulus":[],"xmouse":[786,786,786,786,786,786,786,786,786,786,786,786,786,786,786,786,786,786,786,786,786,786,786,786,786,786,786,786,786,786,786,786,786,786,786,786,786,786,786,786,786,786,786,786,786,786,786,786,786,786,786,786,786,786,786,786,786,786,786,786,786,786,786,786,786,786,786,786,786,786,786,786,786,786,786,786,794,820,835,865,901,938,992,1012,1043,1049,1065,1087],"ymouse":[500,500,500,500,500,500,500,500,500,500,500,500,500,500,500,500,500,500,500,500,500,500,500,500,500,500,500,500,500,500,500,500,500,500,500,500,500,500,500,500,500,500,500,500,500,500,500,500,500,500,500,500,500,500,500,500,500,500,500,500,500,500,500,500,500,500,500,500,500,500,500,500,500,500,500,501,501,489,476,449,413,367,288,242,173,158,124,77],"timestamp_mouse":[1,19,43,60,80,100,120,140,160,180,200,220,240,259,279,300,321,340,360,380,400,420,441,461,481,500,520,540,560,580,599,619,640,660,680,699,719,740,760,780,799,820,840,860,881,900,920,939,960,981,1001,1020,1040,1060,1080,1099,1120,1140,1160,1180,1199,1220,1240,1260,1280,1300,1320,1340,1360,1380,1401,1419,1440,1460,1480,1501,1520,1540,1560,1580,1600,1620,1641,1660,1680,1699,1720,1741],"xSR":741.5,"ySR":469.95,"xT1":424.9,"yT1":0,"xT2":1058.1,"yT2":0,"toosoon":0,"cond_shown":"Incongruent","ratio_trial":300,"L_num":1,"L_den":2,"R_num":3,"R_den":15,"correct_side":1,"subjID":"gabrielavargassalinas","gender":"1","school":"4","age":"9"},{"start_time":1552055077894,"click_time":1552055079583,"finger_time":1552055078763,"fix_duration":968.4995683463654,"trial":33,"RT":869,"MT":820,"sideResp":1,"stimulus":[],"xmouse":[804,804,804,804,804,804,804,804,804,804,804,804,804,804,804,804,804,804,804,804,804,804,804,804,804,803,803,803,803,803,803,803,803,802,802,801,800,798,797,795,793,791,769,753,738,724,722,712,704,694,689,689,673,659,650,639,627,616,614,597,578,563,531,525,516,509,509,504,497,497,497,497,497,497,497,497,497,497,497,497,497,497,497,497,495],"ymouse":[532,532,532,532,532,532,532,532,532,532,532,532,532,532,532,532,532,532,532,532,532,532,532,532,532,532,532,532,532,532,532,532,532,532,532,532,532,532,532,531,531,528,476,439,408,376,374,351,334,319,310,310,292,276,265,252,237,221,218,197,176,159,126,122,115,110,110,107,100,100,100,100,100,100,100,100,100,100,100,100,100,100,100,100,97],"timestamp_mouse":[19,36,50,69,89,109,129,149,169,189,209,228,249,269,289,309,329,349,369,388,409,428,449,470,489,509,529,548,570,590,609,629,649,669,689,709,729,749,769,788,809,830,849,869,889,908,930,948,970,989,1009,1029,1049,1070,1088,1109,1129,1148,1168,1189,1209,1228,1249,1270,1290,1309,1329,1349,1370,1389,1410,1429,1449,1468,1489,1509,1529,1549,1569,1589,1608,1628,1649,1670,1689],"xSR":741.5,"ySR":469.95,"xT1":424.9,"yT1":0,"xT2":1058.1,"yT2":0,"toosoon":0,"cond_shown":"Incongruent","ratio_trial":300,"L_num":7,"L_den":10,"R_num":8,"R_den":20,"correct_side":1,"subjID":"gabrielavargassalinas","gender":"1","school":"4","age":"9"},{"start_time":1552055081318,"click_time":1552055083945,"finger_time":1552055082142,"fix_duration":393.49173690800967,"trial":34,"RT":824,"MT":1803,"sideResp":2,"stimulus":[],"xmouse":[796,796,796,796,796,796,795,795,795,795,795,795,795,795,795,795,795,795,795,795,795,795,795,795,795,795,795,795,795,795,795,795,795,795,795,795,795,796,799,806,824,839,879,899,921,940,941,952,960,968,974,982,984,987,987,987,993,999,1005,1008,1009,1019,1019,1019,1019,1019,1019,1030,1036,1042,1050,1051,1051,1051,1051,1051,1051,1051,1051,1051,1051,1051,1051,1051,1051,1051,1051,1051,1051,1051,1051,1051,1051,1051,1051,1051,1051,1051,1051,1051,1051,1051,1051,1051,1051,1051,1051,1051,1051,1051,1051,1051,1051,1051,1051,1051,1051,1051,1051,1051,1051,1051,1051,1051,1051,1051,1051,1051,1052,1055,1057,1059],"ymouse":[524,524,524,524,524,524,524,524,524,524,524,524,524,524,524,524,524,524,524,524,524,524,524,524,524,524,524,524,524,524,524,524,524,524,524,524,524,523,516,502,471,447,380,341,306,279,277,256,239,222,203,178,168,158,157,157,149,138,130,124,123,113,113,113,113,113,113,103,96,92,90,88,88,88,88,88,88,88,88,88,88,88,88,88,88,88,88,88,88,88,88,88,88,88,88,88,88,88,88,88,88,88,88,88,88,88,88,88,88,88,88,88,88,88,88,88,88,88,88,88,88,88,88,88,88,88,88,88,88,84,82,80],"timestamp_mouse":[11,39,45,65,86,106,126,144,165,185,205,225,245,264,284,306,325,345,366,385,404,424,445,464,484,505,525,545,565,585,604,624,645,665,686,704,725,746,765,785,804,824,845,865,884,905,925,945,965,985,1005,1026,1045,1065,1085,1105,1126,1145,1166,1185,1205,1226,1244,1265,1284,1304,1326,1345,1364,1384,1405,1426,1445,1465,1485,1505,1525,1545,1565,1585,1605,1625,1645,1665,1685,1705,1726,1745,1764,1785,1804,1826,1845,1865,1884,1904,1926,1945,1964,1985,2005,2025,2045,2065,2085,2105,2125,2145,2165,2184,2205,2225,2245,2264,2285,2304,2325,2344,2365,2385,2405,2426,2445,2465,2485,2505,2525,2544,2565,2585,2604,2626],"xSR":741.5,"ySR":469.95,"xT1":424.9,"yT1":0,"xT2":1058.1,"yT2":0,"toosoon":0,"cond_shown":"Congruent","ratio_trial":300,"L_num":1,"L_den":3,"R_num":19,"R_den":30,"correct_side":2,"subjID":"gabrielavargassalinas","gender":"1","school":"4","age":"9"},{"start_time":1552055087790,"click_time":1552055090664,"finger_time":1552055089823,"fix_duration":1006.8607277233003,"trial":35,"RT":2033,"MT":841,"sideResp":2,"stimulus":[],"xmouse":[787,787,787,787,787,787,787,787,787,787,787,787,787,787,787,787,787,787,787,787,787,787,787,787,787,787,787,787,787,787,787,787,787,787,787,787,787,787,787,787,787,787,787,787,787,787,787,787,787,787,787,787,787,787,787,787,787,787,787,787,787,787,787,787,787,787,787,787,787,787,787,787,787,787,787,787,787,787,787,787,787,787,787,787,787,787,787,787,788,790,794,795,800,804,806,806,807,808,812,815,818,821,824,837,845,854,866,877,890,920,938,978,992,1048,1126,1164,1195,1215,1215,1215,1215,1215,1215,1215,1215,1215,1215,1215,1215,1215,1215,1215,1215,1215,1215,1215,1215,1215,1215,1215,1176,1166,1161,1156],"ymouse":[520,520,520,520,520,520,520,520,520,520,520,520,520,520,520,520,520,520,520,520,520,520,520,520,520,520,520,520,520,520,520,520,520,520,520,520,520,520,520,520,520,520,520,520,520,520,520,520,520,520,520,520,520,520,520,520,520,520,520,520,520,520,520,520,520,520,520,520,520,520,520,520,520,520,520,520,520,520,520,520,520,520,520,520,520,520,520,520,517,514,507,506,498,492,488,488,488,486,479,474,470,465,463,447,437,424,410,396,380,345,322,277,260,194,103,62,26,3,3,3,3,3,3,3,3,3,3,3,3,3,3,3,3,3,3,3,3,3,3,3,6,21,28,34],"timestamp_mouse":[13,35,53,73,93,114,133,153,173,193,213,233,253,273,292,313,333,353,373,393,413,433,453,473,493,513,533,553,574,592,612,633,654,673,693,713,733,753,772,794,813,833,853,873,893,913,933,953,974,993,1013,1033,1053,1072,1093,1114,1133,1152,1173,1193,1214,1232,1253,1273,1293,1314,1333,1353,1373,1393,1413,1433,1453,1472,1493,1513,1533,1553,1574,1594,1613,1633,1653,1673,1693,1713,1733,1754,1773,1793,1813,1833,1854,1873,1893,1913,1932,1952,1973,1992,2014,2033,2053,2074,2094,2113,2134,2154,2173,2193,2213,2233,2253,2273,2293,2312,2332,2353,2373,2394,2414,2433,2454,2473,2493,2513,2533,2553,2574,2593,2614,2634,2653,2673,2693,2713,2733,2753,2773,2793,2814,2834,2853,2873],"xSR":741.5,"ySR":469.95,"xT1":424.9,"yT1":0,"xT2":1058.1,"yT2":0,"toosoon":0,"cond_shown":"Congruent","ratio_trial":300,"L_num":2,"L_den":10,"R_num":12,"R_den":24,"correct_side":2,"subjID":"gabrielavargassalinas","gender":"1","school":"4","age":"9"},{"start_time":1552055093851,"click_time":1552055095324,"finger_time":1552055094743,"fix_duration":647.6426135355962,"trial":36,"RT":892,"MT":581,"sideResp":1,"stimulus":[],"xmouse":[811,811,811,811,811,811,811,811,811,811,811,811,811,811,811,811,811,811,811,811,811,811,811,811,811,811,811,811,811,810,810,810,810,810,810,810,810,810,810,810,810,810,807,803,795,792,773,746,734,724,718,698,689,681,676,670,660,651,642,635,628,609,596,581,568,557,543,539,539,539,537,532,529,524],"ymouse":[513,513,513,513,513,513,513,513,513,513,513,513,513,513,513,513,513,513,513,513,513,513,513,513,513,513,513,513,513,513,513,513,513,513,513,513,513,513,513,513,513,513,509,492,469,458,420,372,348,325,307,264,241,219,196,176,143,122,106,94,83,67,59,53,51,50,48,47,47,47,47,47,47,48],"timestamp_mouse":[12,38,52,72,92,112,132,151,172,193,212,232,252,272,292,312,331,351,372,393,412,432,451,472,492,512,532,552,572,593,613,632,652,672,693,712,732,752,772,791,812,833,852,873,892,912,932,952,972,992,1012,1032,1052,1072,1093,1112,1132,1151,1172,1192,1212,1232,1252,1272,1292,1312,1332,1352,1372,1392,1411,1432,1452,1473],"xSR":741.5,"ySR":469.95,"xT1":424.9,"yT1":0,"xT2":1058.1,"yT2":0,"toosoon":0,"cond_shown":"Incongruent","ratio_trial":200,"L_num":7,"L_den":10,"R_num":8,"R_den":16,"correct_side":1,"subjID":"gabrielavargassalinas","gender":"1","school":"4","age":"9"},{"start_time":1552055096915,"click_time":1552055098784,"finger_time":1552055098282,"fix_duration":611.0917493376417,"trial":37,"RT":1367,"MT":502,"sideResp":2,"stimulus":[],"xmouse":[798,798,798,798,798,798,798,798,798,798,798,798,798,798,798,798,798,798,798,798,798,798,798,798,798,798,798,798,798,798,798,798,798,798,798,797,797,797,797,797,797,797,796,796,795,795,795,795,795,795,795,795,795,795,795,795,795,795,795,795,795,795,795,795,795,796,800,811,835,844,857,870,901,915,966,985,1000,1005,1026,1037,1049,1060,1066,1076,1079,1082,1086,1090,1093,1097,1098,1098,1099,1100],"ymouse":[528,528,528,528,528,528,528,528,528,528,528,528,528,528,528,528,528,528,528,528,528,528,528,528,528,528,528,528,528,528,527,527,527,527,527,527,527,527,527,527,527,527,527,527,527,527,527,527,527,527,527,527,527,527,527,527,527,527,527,527,527,527,527,527,527,526,520,504,465,445,422,398,358,339,284,259,237,228,203,190,176,166,159,147,142,138,132,124,116,108,106,104,101,96],"timestamp_mouse":[9,35,47,68,88,108,128,147,168,188,209,228,248,269,288,308,328,348,367,388,408,428,448,468,488,508,528,548,567,588,608,627,648,668,688,708,727,748,768,788,807,828,848,868,887,907,928,948,968,988,1009,1028,1049,1068,1088,1107,1129,1148,1168,1188,1208,1228,1248,1268,1287,1308,1328,1348,1367,1387,1408,1429,1448,1468,1489,1508,1528,1549,1568,1588,1608,1627,1648,1669,1688,1709,1729,1748,1768,1788,1808,1827,1848,1869],"xSR":741.5,"ySR":469.95,"xT1":424.9,"yT1":0,"xT2":1058.1,"yT2":0,"toosoon":0,"cond_shown":"Congruent","ratio_trial":200,"L_num":7,"L_den":15,"R_num":18,"R_den":27,"correct_side":2,"subjID":"gabrielavargassalinas","gender":"1","school":"4","age":"9"},{"start_time":1552055100993,"click_time":1552055102503,"finger_time":1552055102163,"fix_duration":1169.2004361753106,"trial":38,"RT":1170,"MT":340,"sideResp":2,"stimulus":[],"xmouse":[812,812,812,812,812,812,812,812,812,812,812,812,812,812,812,812,812,812,812,812,812,812,812,812,812,812,812,812,812,812,812,812,812,812,812,812,812,812,812,812,812,812,812,812,812,812,812,812,812,812,812,812,812,812,812,814,817,831,842,861,870,878,887,896,910,947,979,997,1014,1029,1060,1074,1085,1099,1119,1130],"ymouse":[519,519,519,519,519,519,519,519,519,519,519,519,519,519,519,519,519,519,519,519,519,519,519,519,519,519,519,519,519,519,519,519,519,519,519,519,519,519,519,519,519,519,519,519,519,519,519,519,519,519,519,519,519,519,519,519,518,510,501,482,472,460,449,434,416,373,330,304,280,260,214,193,172,151,113,97],"timestamp_mouse":[10,38,49,71,90,110,131,150,170,190,210,229,250,270,290,310,330,350,370,390,410,430,450,470,491,509,530,551,570,591,610,630,650,671,690,709,730,751,770,791,810,830,850,870,890,911,929,950,970,990,1010,1030,1050,1071,1090,1109,1130,1151,1170,1192,1210,1230,1250,1270,1290,1309,1330,1350,1369,1390,1410,1431,1450,1470,1492,1510],"xSR":741.5,"ySR":469.95,"xT1":424.9,"yT1":0,"xT2":1058.1,"yT2":0,"toosoon":0,"cond_shown":"Incongruent","ratio_trial":200,"L_num":1,"L_den":2,"R_num":3,"R_den":10,"correct_side":1,"subjID":"gabrielavargassalinas","gender":"1","school":"4","age":"9"},{"start_time":1552055105174,"click_time":1552055106723,"finger_time":1552055106363,"fix_duration":250,"trial":39,"RT":1189,"MT":360,"sideResp":2,"stimulus":[],"xmouse":[780,780,779,779,779,779,779,779,779,779,779,779,779,779,779,779,779,779,779,779,779,779,779,779,779,779,779,779,779,779,779,779,779,779,779,779,779,779,779,779,779,779,779,779,779,779,779,779,779,779,779,779,779,779,782,785,812,827,840,854,864,886,898,910,925,938,972,982,985,992,1004,1021,1031,1045,1061,1065,1069,1083],"ymouse":[530,530,531,531,531,531,531,531,531,531,531,531,531,531,531,531,531,531,531,531,531,531,531,531,531,531,531,531,531,531,531,531,531,531,531,531,531,531,531,531,531,531,531,531,531,531,531,531,531,531,531,531,531,531,531,530,506,489,472,455,444,418,405,389,369,350,308,292,288,274,254,225,206,175,138,129,118,85],"timestamp_mouse":[10,41,49,70,89,108,128,150,169,189,209,229,249,269,288,309,328,349,368,389,408,429,449,469,489,508,529,549,569,588,609,629,649,668,689,709,729,749,769,789,809,830,848,870,889,909,930,949,968,989,1009,1029,1048,1069,1090,1109,1129,1149,1169,1189,1209,1228,1250,1269,1288,1309,1329,1350,1369,1388,1408,1429,1449,1470,1488,1509,1529,1549],"xSR":741.5,"ySR":469.95,"xT1":424.9,"yT1":0,"xT2":1058.1,"yT2":0,"toosoon":0,"cond_shown":"Incongruent","ratio_trial":300,"L_num":13,"L_den":26,"R_num":12,"R_den":15,"correct_side":2,"subjID":"gabrielavargassalinas","gender":"1","school":"4","age":"9"},{"start_time":1552055108696,"click_time":1552055111182,"finger_time":1552055109763,"fix_duration":552.5006244419799,"trial":40,"RT":1067,"MT":1419,"sideResp":2,"stimulus":[],"xmouse":[797,797,797,797,797,797,797,797,797,797,798,798,796,796,796,796,796,796,796,796,796,796,796,796,796,796,796,796,796,796,796,796,796,796,796,796,796,796,796,796,796,796,796,796,796,796,796,796,796,795,794,789,784,779,775,771,767,764,762,760,760,759,759,759,759,759,759,759,759,759,759,759,759,759,759,759,759,759,759,759,759,759,759,759,759,759,759,759,759,759,759,759,759,759,759,759,761,764,784,806,840,865,894,931,968,1004,1005,1025,1035,1035,1037,1038,1038,1038,1038,1038,1038,1038,1038,1043,1051,1058,1062,1066,1070],"ymouse":[504,504,504,504,504,504,504,504,504,504,505,507,508,508,508,508,508,508,508,508,508,508,508,508,508,508,508,508,508,508,508,508,508,508,508,508,508,508,508,508,508,508,508,508,508,508,508,508,508,508,506,486,470,451,428,405,363,347,333,319,315,311,311,311,311,311,311,311,311,311,311,311,311,311,311,311,311,311,311,311,311,311,311,311,311,311,311,311,311,311,311,311,311,311,311,311,310,308,303,297,288,275,263,243,222,201,200,183,174,174,170,169,169,169,168,166,166,166,164,152,140,123,113,105,95],"timestamp_mouse":[9,27,50,67,87,107,127,148,167,187,207,227,247,266,287,307,327,346,367,386,407,427,447,467,487,507,527,547,567,587,607,627,647,667,687,707,727,747,767,787,806,826,847,867,888,907,927,947,967,987,1007,1027,1047,1067,1087,1108,1127,1148,1167,1187,1208,1227,1248,1267,1287,1308,1326,1347,1366,1387,1408,1426,1447,1466,1487,1508,1526,1546,1566,1587,1606,1626,1646,1666,1686,1708,1726,1747,1766,1786,1808,1826,1847,1866,1886,1908,1927,1947,1966,1987,2008,2026,2046,2068,2086,2108,2126,2146,2166,2187,2208,2227,2247,2266,2286,2308,2327,2346,2366,2386,2406,2426,2446,2466,2486],"xSR":741.5,"ySR":469.95,"xT1":424.9,"yT1":0,"xT2":1058.1,"yT2":0,"toosoon":0,"cond_shown":"Incongruent","ratio_trial":200,"L_num":7,"L_den":15,"R_num":6,"R_den":9,"correct_side":2,"subjID":"gabrielavargassalinas","gender":"1","school":"4","age":"9"},{"start_time":1552055114877,"click_time":1552055117123,"finger_time":1552055116402,"fix_duration":993.4591266909182,"trial":41,"RT":1525,"MT":721,"sideResp":2,"stimulus":[],"xmouse":[795,795,795,795,795,795,795,795,795,795,795,795,795,795,795,795,795,795,795,795,795,795,795,795,795,795,795,795,795,795,795,795,795,795,795,795,795,795,795,795,795,795,795,795,795,795,795,795,795,795,795,795,795,795,795,795,795,795,795,795,795,795,795,795,795,795,795,795,795,795,795,795,795,795,806,822,863,897,900,905,911,914,916,918,919,919,919,920,921,923,927,933,950,961,975,992,1016,1022,1026,1033,1043,1052,1068,1072,1073,1076,1078,1084,1090,1098,1104,1104,1113],"ymouse":[522,522,522,522,522,522,522,522,522,522,522,522,522,522,522,522,522,522,522,522,522,522,522,522,522,522,522,522,522,522,522,522,522,522,522,522,522,522,522,522,522,522,522,522,522,522,522,522,522,522,522,522,522,522,522,522,522,522,522,522,522,522,522,522,522,522,522,522,522,522,522,522,522,522,517,508,489,474,472,468,462,459,457,456,456,456,456,456,455,454,450,442,413,393,369,346,309,295,288,271,250,230,193,182,182,175,164,150,140,126,115,115,89],"timestamp_mouse":[10,25,45,65,85,105,125,146,166,186,205,225,246,265,286,305,326,345,365,386,405,425,445,466,486,506,525,545,565,585,605,626,646,666,686,705,725,746,766,786,805,825,845,865,886,905,925,945,965,986,1006,1026,1045,1065,1085,1106,1126,1145,1166,1185,1205,1225,1245,1266,1285,1305,1325,1346,1365,1385,1406,1426,1445,1465,1485,1506,1525,1546,1565,1586,1606,1627,1646,1665,1686,1705,1726,1746,1765,1785,1806,1825,1846,1865,1886,1905,1926,1945,1966,1985,2006,2026,2046,2066,2085,2106,2126,2146,2165,2185,2205,2225,2246],"xSR":741.5,"ySR":469.95,"xT1":424.9,"yT1":0,"xT2":1058.1,"yT2":0,"toosoon":0,"cond_shown":"Incongruent","ratio_trial":200,"L_num":11,"L_den":20,"R_num":3,"R_den":4,"correct_side":2,"subjID":"gabrielavargassalinas","gender":"1","school":"4","age":"9"},{"start_time":1552055118673,"click_time":1552055120203,"finger_time":1552055120022,"fix_duration":250,"trial":42,"RT":1349,"MT":181,"sideResp":2,"stimulus":[],"xmouse":[811,811,811,811,811,811,811,811,811,811,811,811,811,811,811,811,811,811,811,811,811,811,811,811,811,811,811,811,811,811,811,811,811,811,811,811,811,811,811,811,811,811,811,811,811,811,811,811,811,811,811,811,811,811,811,811,811,811,811,811,811,811,811,811,814,820,832,843,872,892,918,933,967,1068,1070,1091,1129],"ymouse":[516,516,516,516,516,516,516,516,516,516,516,516,516,516,516,516,516,516,516,516,516,516,516,516,516,516,516,516,516,516,516,516,516,516,516,516,516,516,516,516,516,516,516,516,516,516,516,516,516,516,516,516,516,516,516,516,516,516,516,516,516,516,516,516,515,509,495,482,437,404,368,346,303,170,168,138,85],"timestamp_mouse":[9,40,49,69,89,109,130,149,169,189,210,230,249,271,290,310,331,349,369,389,410,429,449,469,489,509,530,550,569,591,610,630,650,670,690,710,730,749,769,790,810,829,849,869,891,909,929,949,970,991,1009,1029,1050,1070,1090,1109,1129,1149,1169,1189,1209,1229,1249,1270,1289,1309,1329,1349,1369,1390,1409,1430,1449,1469,1491,1510,1530],"xSR":741.5,"ySR":469.95,"xT1":424.9,"yT1":0,"xT2":1058.1,"yT2":0,"toosoon":0,"cond_shown":"Incongruent","ratio_trial":100,"L_num":11,"L_den":22,"R_num":9,"R_den":15,"correct_side":2,"subjID":"gabrielavargassalinas","gender":"1","school":"4","age":"9"},{"start_time":1552055121515,"click_time":1552055122843,"finger_time":1552055122642,"fix_duration":250,"trial":43,"RT":1127,"MT":201,"sideResp":2,"stimulus":[],"xmouse":[817,817,817,817,817,817,817,817,817,817,817,817,817,817,817,817,817,817,817,817,817,817,817,817,817,817,817,817,817,817,817,817,817,817,817,817,817,817,817,817,817,817,817,817,817,817,817,817,817,817,817,817,817,817,817,823,843,864,885,904,932,978,1002,1029,1057,1084,1141],"ymouse":[531,531,531,531,531,531,531,531,531,531,531,531,531,531,531,531,531,531,531,531,531,531,531,531,531,531,531,531,531,531,531,531,531,531,531,531,531,531,531,531,531,531,531,531,531,531,531,531,531,531,531,531,531,531,531,531,509,483,455,429,381,302,257,209,159,109,10],"timestamp_mouse":[10,37,48,67,89,107,127,147,167,187,208,227,247,267,287,307,328,347,368,387,407,427,447,467,487,507,528,548,567,588,608,628,648,667,687,707,727,747,767,787,807,828,847,867,887,908,927,947,967,988,1008,1028,1047,1067,1087,1107,1127,1147,1167,1187,1207,1227,1247,1267,1287,1307,1328],"xSR":741.5,"ySR":469.95,"xT1":424.9,"yT1":0,"xT2":1058.1,"yT2":0,"toosoon":0,"cond_shown":"Incongruent","ratio_trial":100,"L_num":3,"L_den":5,"R_num":8,"R_den":16,"correct_side":1,"subjID":"gabrielavargassalinas","gender":"1","school":"4","age":"9"},{"start_time":1552055125419,"click_time":1552055128462,"finger_time":1552055126522,"fix_duration":815.7074425628441,"trial":44,"RT":1103,"MT":1940,"sideResp":1,"stimulus":[],"xmouse":[806,806,806,806,806,806,806,806,806,806,806,806,806,806,806,806,806,806,806,806,806,806,806,806,806,806,806,806,806,806,806,806,806,806,806,806,806,806,806,806,806,806,806,806,806,806,806,806,806,806,806,806,806,818,834,846,896,918,937,958,971,993,1000,1007,1019,1026,1041,1047,1053,1057,1058,1058,1058,1058,1058,1058,1058,1058,1058,1058,1058,1058,1058,1058,1058,1058,1045,1028,1006,982,954,944,939,911,900,900,881,873,868,864,859,849,818,798,765,750,703,679,664,648,634,631,631,631,631,631,631,631,631,631,631,631,631,631,631,631,631,631,631,631,631,631,631,631,631,631,631,631,631,631,631,631,631,631,631,631,631,631,614,596,579,539,508],"ymouse":[521,521,521,521,521,521,521,521,521,521,521,521,521,521,521,521,521,521,521,521,521,521,521,521,521,521,521,521,521,521,521,521,521,521,521,521,521,521,521,521,521,521,521,521,521,521,521,521,521,521,521,521,521,511,493,480,395,356,317,276,249,207,190,176,155,140,104,89,75,67,64,64,64,64,64,64,64,64,64,64,64,64,64,64,64,63,66,75,85,99,115,121,124,137,140,140,144,145,145,145,145,145,145,145,143,142,137,134,132,128,125,124,124,124,124,124,124,124,124,124,124,124,124,124,124,124,124,124,124,124,124,124,124,124,124,124,124,124,124,124,124,124,124,124,124,124,124,124,110,97,85,64,51],"timestamp_mouse":[11,38,44,63,83,103,123,144,163,184,203,223,244,265,283,303,323,344,364,384,403,423,444,465,483,503,523,543,563,583,604,623,643,663,684,704,724,743,763,783,803,823,844,863,883,903,923,943,963,983,1003,1024,1044,1065,1083,1103,1124,1143,1164,1184,1204,1224,1243,1264,1284,1303,1324,1343,1363,1385,1403,1424,1443,1463,1483,1503,1523,1543,1563,1583,1603,1624,1643,1665,1684,1704,1724,1743,1763,1784,1803,1824,1843,1864,1884,1903,1925,1943,1965,1983,2003,2025,2043,2064,2084,2104,2125,2143,2164,2183,2203,2223,2243,2263,2284,2304,2325,2343,2363,2383,2403,2425,2443,2463,2484,2504,2525,2543,2563,2583,2603,2624,2643,2663,2683,2704,2725,2744,2763,2783,2803,2824,2844,2864,2883,2904,2924,2943,2964,2984,3003,3025,3043],"xSR":741.5,"ySR":469.95,"xT1":424.9,"yT1":0,"xT2":1058.1,"yT2":0,"toosoon":0,"cond_shown":"Congruent","ratio_trial":100,"L_num":10,"L_den":25,"R_num":3,"R_den":10,"correct_side":1,"subjID":"gabrielavargassalinas","gender":"1","school":"4","age":"9"},{"start_time":1552055135903,"click_time":1552055137603,"finger_time":1552055136784,"fix_duration":980.162350911809,"trial":45,"RT":881,"MT":819,"sideResp":1,"stimulus":[],"xmouse":[776,776,776,776,776,776,776,776,776,776,776,776,776,776,776,776,776,776,776,776,776,776,776,776,776,776,776,776,776,776,776,776,776,776,776,774,768,763,759,757,751,750,746,741,738,735,732,726,706,682,657,640,640,640,640,640,640,622,608,605,605,605,605,605,605,605,605,605,605,605,605,605,605,605,601,596,589,583,571,564,557,549,542,527,521],"ymouse":[523,523,523,523,523,523,523,523,523,523,523,523,523,523,523,523,523,523,523,523,523,523,523,523,523,523,523,523,523,523,523,523,523,523,523,523,523,523,523,523,523,523,523,518,511,501,495,479,433,382,327,290,290,290,290,290,290,267,251,249,249,249,249,249,249,249,249,249,249,249,249,249,249,246,223,198,172,150,115,100,85,71,56,23,14],"timestamp_mouse":[19,47,61,79,100,119,139,159,179,199,219,239,260,279,299,319,341,361,380,400,419,439,460,480,501,520,539,559,579,600,619,640,660,679,699,721,739,759,781,800,820,839,859,881,901,919,939,961,979,1000,1020,1039,1061,1080,1100,1121,1140,1161,1179,1199,1219,1240,1260,1280,1299,1319,1339,1359,1379,1400,1419,1439,1461,1479,1499,1519,1539,1559,1579,1599,1620,1639,1660,1679,1699],"xSR":741.5,"ySR":469.95,"xT1":424.9,"yT1":0,"xT2":1058.1,"yT2":0,"toosoon":0,"cond_shown":"Congruent","ratio_trial":300,"L_num":18,"L_den":20,"R_num":9,"R_den":15,"correct_side":1,"subjID":"gabrielavargassalinas","gender":"1","school":"4","age":"9"},{"start_time":1552055140942,"click_time":1552055142684,"finger_time":1552055142042,"fix_duration":1377.9598078840233,"trial":46,"RT":1100,"MT":642,"sideResp":2,"stimulus":[],"xmouse":[751,751,751,751,751,751,751,751,751,751,751,751,751,751,751,751,751,751,751,751,751,751,751,751,751,751,751,751,751,751,751,751,751,751,751,751,751,751,751,751,751,751,751,751,751,751,751,751,751,751,751,751,758,761,774,791,813,852,878,889,896,915,927,927,927,927,927,928,934,936,937,940,960,960,960,960,960,960,962,968,980,984,1004,1014,1028,1040,1061,1118],"ymouse":[515,515,515,515,515,515,515,515,515,515,515,515,515,515,515,515,515,515,515,515,515,515,515,515,515,515,515,515,515,515,515,515,515,515,515,515,515,515,515,515,515,515,515,515,515,515,515,515,515,515,515,515,501,496,477,453,416,341,298,281,269,233,217,217,217,217,217,217,211,207,206,206,200,200,200,200,200,200,198,196,191,188,172,159,143,131,109,56],"timestamp_mouse":[11,20,40,60,80,100,121,140,160,180,201,221,241,260,280,301,320,340,360,380,402,422,441,461,482,500,520,540,560,580,601,620,640,660,681,702,720,740,761,780,800,822,841,860,880,901,921