[{"start_time":1552074658394,"click_time":1552074659287,"finger_time":1552074658439,"fix_duration":1483.769073812811,"trial":0,"RT":45,"MT":848,"sideResp":2,"stimulus":[],"xmouse":[767,767,767,767,767,767,767,767,767,769,769,771,771,772,772,772,772,773,774,774,774,775,776,776,778,784,823,884,945,994,1018,1026,1026,1026,1026,1026,1028,1030,1031,1033,1036,1048,1057,1068],"ymouse":[312,312,301,299,298,298,298,298,298,296,296,295,295,294,293,292,291,283,278,271,263,254,229,220,212,204,199,198,195,181,166,149,145,145,145,145,142,139,135,131,126,110,103,93],"timestamp_mouse":[45,52,72,93,112,132,153,173,193,212,233,252,272,291,312,332,352,373,392,413,433,452,473,493,512,532,552,573,593,613,632,653,673,693,713,732,753,772,792,812,832,853,871,892],"xSR":741.5,"ySR":500.5,"xT1":424.9,"yT1":0,"xT2":1058.1,"yT2":0,"toosoon":0,"cond_shown":"Congruent","ratio_trial":100,"L_num":3,"L_den":6,"R_num":2,"R_den":5,"correct_side":1,"subjID":"Alejandra Caycedo Moreno 24","gender":null,"age":null,"school":null,"test":{"fix_dur":[250,1500],"timestim":1000,"targets_dim":[100,100],"targets_relative_coord":[0.3,0.7],"size_stim":[880,420],"start_dim":[100,100],"size_start":[300,300],"size_fix":60,"samplingrate":20,"img_types":["Congruent","Incongruent"],"ratios":[100,200,300],"rep_conds":19,"nTrials":120,"trials_to_rest":500,"Trials_order":[96,112,67,28,34,35,62,78,46,21,51,88,87,119,91,12,93,104,0,47,38,55,74,105,85,107,99,65,63,19,39,45,15,42,83,22,5,30,82,80,106,77,101,20,100,33,7,64,57,95,69,61,81,6,26,116,68,24,3,73,27,56,50,70,32,75,52,89,29,115,54,60,8,102,53,58,114,16,1,111,10,94,72,11,113,98,84,79,97,109,14,71,18,37,48,4,13,25,36,90,59,66,40,117,92,108,31,17,103,110,118,41,44,86,49,9,76,23,43,2],"cond_shown":["Congruent","Congruent","Incongruent","Congruent","Congruent","Incongruent","Congruent","Congruent","Congruent","Incongruent","Incongruent","Congruent","Incongruent","Incongruent","Incongruent","Congruent","Incongruent","Congruent","Congruent","Incongruent","Congruent","Incongruent","Congruent","Incongruent","Incongruent","Incongruent","Incongruent","Incongruent","Incongruent","Incongruent","Incongruent","Incongruent","Incongruent","Congruent","Incongruent","Congruent","Incongruent","Congruent","Congruent","Congruent","Congruent","Incongruent","Incongruent","Congruent","Congruent","Incongruent","Incongruent","Congruent","Incongruent","Incongruent","Incongruent","Incongruent","Incongruent","Congruent","Congruent","Congruent","Congruent","Congruent","Incongruent","Incongruent","Incongruent","Congruent","Congruent","Congruent","Congruent","Incongruent","Congruent","Incongruent","Incongruent","Incongruent","Congruent","Congruent","Congruent","Congruent","Incongruent","Congruent","Congruent","Congruent","Incongruent","Incongruent","Congruent","Congruent","Congruent","Incongruent","Incongruent","Congruent","Congruent","Incongruent","Incongruent","Incongruent","Congruent","Incongruent","Congruent","Incongruent","Congruent","Congruent","Incongruent","Incongruent","Congruent","Congruent","Incongruent","Congruent","Congruent","Incongruent","Congruent","Congruent","Incongruent","Incongruent","Incongruent","Congruent","Congruent","Incongruent","Congruent","Congruent","Incongruent","Incongruent","Congruent","Incongruent","Incongruent","Congruent"],"ratio_trial":[100,300,100,300,300,300,200,100,300,200,200,300,200,300,100,100,200,200,100,300,200,100,200,200,100,300,200,300,200,100,200,200,200,100,300,300,300,100,300,200,300,300,300,200,300,200,100,300,200,300,200,100,200,100,200,200,200,100,200,100,200,200,200,300,200,200,300,300,300,100,100,100,200,100,300,300,100,300,100,200,300,300,100,300,300,200,100,100,100,100,200,300,100,100,100,300,100,100,100,100,300,100,300,200,200,100,100,300,100,200,300,300,200,200,100,200,300,300,100,200],"left_num":[3,3,8,20,9,1,8,10,1,7,7,24,7,1,3,15,4,6,2,8,3,3,15,3,10,4,1,13,11,6,7,14,7,3,8,4,1,11,1,6,3,4,2,3,20,11,4,5,1,4,1,1,11,11,13,12,6,2,14,10,4,4,21,12,14,11,1,4,1,9,6,1,13,8,1,1,1,18,10,7,1,1,12,3,8,13,9,3,9,12,7,3,2,13,3,12,6,6,1,4,4,15,3,7,3,3,2,4,6,9,20,8,9,4,1,7,20,13,12,5],"right_num":[2,2,6,14,3,2,3,3,6,8,6,8,6,2,7,13,14,7,6,14,7,4,4,11,8,2,3,12,3,7,12,6,8,2,14,13,3,6,3,7,11,8,6,9,13,3,8,6,2,2,3,8,3,6,14,6,7,6,12,9,14,3,2,2,6,3,7,2,3,20,5,18,14,2,2,3,3,9,9,8,7,19,13,4,14,14,8,11,14,9,18,4,11,6,2,2,11,13,18,6,2,13,11,6,7,4,8,8,3,4,8,9,4,3,8,6,5,12,9,14],"left_den":[6,6,16,25,10,2,15,25,5,10,15,30,15,2,9,25,6,12,5,10,10,6,25,4,25,20,2,26,20,10,10,30,10,6,10,20,2,22,5,12,12,5,4,12,25,20,8,25,3,20,2,2,20,22,26,20,12,5,30,25,6,10,30,24,28,20,20,20,2,10,20,2,26,16,2,5,2,20,25,10,20,3,30,6,10,26,15,5,15,24,15,6,5,26,6,24,10,10,2,8,20,25,12,15,10,20,4,5,12,20,25,10,20,10,2,15,25,26,24,10],"right_den":[5,10,10,28,5,10,9,10,12,16,9,16,9,10,30,26,30,10,12,28,14,10,10,20,16,4,10,15,4,14,24,9,16,5,28,26,15,15,6,10,20,16,30,20,26,4,20,12,15,4,10,20,4,15,20,15,10,12,18,18,30,15,4,10,20,4,20,4,15,25,25,30,20,5,10,6,5,15,18,16,20,30,26,20,28,20,16,22,28,15,27,20,22,10,5,10,22,26,30,10,4,26,20,9,14,16,20,16,5,16,16,18,16,15,20,9,10,15,15,20],"correct_side":[1,1,2,1,1,1,1,1,2,1,2,1,2,1,1,1,1,2,2,1,2,1,1,1,2,2,1,2,2,1,1,2,1,1,1,2,1,1,2,2,2,1,1,2,1,2,1,2,1,2,1,1,2,1,2,1,2,2,2,2,1,1,1,1,1,2,2,2,1,1,1,2,2,1,1,2,2,1,2,1,2,2,2,1,1,2,1,1,1,2,2,1,2,2,1,1,1,1,2,2,2,1,2,2,2,2,1,1,2,1,1,1,1,1,1,2,1,2,2,2],"img_shown":["img2/100/Congruent/L/C_Dist_100_LN_3_LD_6_RN_2_RD_5_0.png","img2/300/Congruent/L/C_Dist_300_LN_3_LD_6_RN_2_RD_10_0.png","img2/100/Incongruent/R/I_Dist_100_LN_8_LD_16_RN_6_RD_10_1.png","img2/300/Congruent/L/C_Dist_300_LN_20_LD_25_RN_14_RD_28_0.png","img2/300/Congruent/L/C_Dist_300_LN_9_LD_10_RN_3_RD_5_0.png","img2/300/Incongruent/L/I_Dist_300_LN_1_LD_2_RN_2_RD_10_0.png","img2/200/Congruent/L/C_Dist_200_LN_8_LD_15_RN_3_RD_9_0.png","img2/100/Congruent/L/C_Dist_100_LN_10_LD_25_RN_3_RD_10_0.png","img2/300/Congruent/R/C_Dist_300_LN_1_LD_5_RN_6_RD_12_1.png","img2/200/Incongruent/L/I_Dist_200_LN_7_LD_10_RN_8_RD_16_0.png","img2/200/Incongruent/R/I_Dist_200_LN_7_LD_15_RN_6_RD_9_1.png","img2/300/Congruent/L/C_Dist_300_LN_24_LD_30_RN_8_RD_16_0.png","img2/200/Incongruent/R/I_Dist_200_LN_7_LD_15_RN_6_RD_9_1.png","img2/300/Incongruent/L/I_Dist_300_LN_1_LD_2_RN_2_RD_10_0.png","img2/100/Incongruent/L/I_Dist_100_LN_3_LD_9_RN_7_RD_30_0.png","img2/100/Congruent/L/C_Dist_100_LN_15_LD_25_RN_13_RD_26_0.png","img2/200/Incongruent/L/I_Dist_200_LN_4_LD_6_RN_14_RD_30_0.png","img2/200/Congruent/R/C_Dist_200_LN_6_LD_12_RN_7_RD_10_1.png","img2/100/Congruent/R/C_Dist_100_LN_2_LD_5_RN_6_RD_12_1.png","img2/300/Incongruent/L/I_Dist_300_LN_8_LD_10_RN_14_RD_28_0.png","img2/200/Congruent/R/C_Dist_200_LN_3_LD_10_RN_7_RD_14_1.png","img2/100/Incongruent/L/I_Dist_100_LN_3_LD_6_RN_4_RD_10_0.png","img2/200/Congruent/L/C_Dist_200_LN_15_LD_25_RN_4_RD_10_0.png","img2/200/Incongruent/L/I_Dist_200_LN_3_LD_4_RN_11_RD_20_0.png","img2/100/Incongruent/R/I_Dist_100_LN_10_LD_25_RN_8_RD_16_1.png","img2/300/Incongruent/R/I_Dist_300_LN_4_LD_20_RN_2_RD_4_1.png","img2/200/Incongruent/L/I_Dist_200_LN_1_LD_2_RN_3_RD_10_0.png","img2/300/Incongruent/R/I_Dist_300_LN_13_LD_26_RN_12_RD_15_1.png","img2/200/Incongruent/R/I_Dist_200_LN_11_LD_20_RN_3_RD_4_1.png","img2/100/Incongruent/L/I_Dist_100_LN_6_LD_10_RN_7_RD_14_0.png","img2/200/Incongruent/L/I_Dist_200_LN_7_LD_10_RN_12_RD_24_0.png","img2/200/Incongruent/R/I_Dist_200_LN_14_LD_30_RN_6_RD_9_1.png","img2/200/Incongruent/L/I_Dist_200_LN_7_LD_10_RN_8_RD_16_0.png","img2/100/Congruent/L/C_Dist_100_LN_3_LD_6_RN_2_RD_5_0.png","img2/300/Incongruent/L/I_Dist_300_LN_8_LD_10_RN_14_RD_28_0.png","img2/300/Congruent/R/C_Dist_300_LN_4_LD_20_RN_13_RD_26_1.png","img2/300/Incongruent/L/I_Dist_300_LN_1_LD_2_RN_3_RD_15_0.png","img2/100/Congruent/L/C_Dist_100_LN_11_LD_22_RN_6_RD_15_0.png","img2/300/Congruent/R/C_Dist_300_LN_1_LD_5_RN_3_RD_6_1.png","img2/200/Congruent/R/C_Dist_200_LN_6_LD_12_RN_7_RD_10_1.png","img2/300/Congruent/R/C_Dist_300_LN_3_LD_12_RN_11_RD_20_1.png","img2/300/Incongruent/L/I_Dist_300_LN_4_LD_5_RN_8_RD_16_0.png","img2/300/Incongruent/L/I_Dist_300_LN_2_LD_4_RN_6_RD_30_0.png","img2/200/Congruent/R/C_Dist_200_LN_3_LD_12_RN_9_RD_20_1.png","img2/300/Congruent/L/C_Dist_300_LN_20_LD_25_RN_13_RD_26_0.png","img2/200/Incongruent/R/I_Dist_200_LN_11_LD_20_RN_3_RD_4_1.png","img2/100/Incongruent/L/I_Dist_100_LN_4_LD_8_RN_8_RD_20_0.png","img2/300/Congruent/R/C_Dist_300_LN_5_LD_25_RN_6_RD_12_1.png","img2/200/Incongruent/L/I_Dist_200_LN_1_LD_3_RN_2_RD_15_0.png","img2/300/Incongruent/R/I_Dist_300_LN_4_LD_20_RN_2_RD_4_1.png","img2/200/Incongruent/L/I_Dist_200_LN_1_LD_2_RN_3_RD_10_0.png","img2/100/Incongruent/L/I_Dist_100_LN_1_LD_2_RN_8_RD_20_0.png","img2/200/Incongruent/R/I_Dist_200_LN_11_LD_20_RN_3_RD_4_1.png","img2/100/Congruent/L/C_Dist_100_LN_11_LD_22_RN_6_RD_15_0.png","img2/200/Congruent/R/C_Dist_200_LN_13_LD_26_RN_14_RD_20_1.png","img2/200/Congruent/L/C_Dist_200_LN_12_LD_20_RN_6_RD_15_0.png","img2/200/Congruent/R/C_Dist_200_LN_6_LD_12_RN_7_RD_10_1.png","img2/100/Congruent/R/C_Dist_100_LN_2_LD_5_RN_6_RD_12_1.png","img2/200/Incongruent/R/I_Dist_200_LN_14_LD_30_RN_12_RD_18_1.png","img2/100/Incongruent/R/I_Dist_100_LN_10_LD_25_RN_9_RD_18_1.png","img2/200/Incongruent/L/I_Dist_200_LN_4_LD_6_RN_14_RD_30_0.png","img2/200/Congruent/L/C_Dist_200_LN_4_LD_10_RN_3_RD_15_0.png","img2/200/Congruent/L/C_Dist_200_LN_21_LD_30_RN_2_RD_4_0.png","img2/300/Congruent/L/C_Dist_300_LN_12_LD_24_RN_2_RD_10_0.png","img2/200/Congruent/L/C_Dist_200_LN_14_LD_28_RN_6_RD_20_0.png","img2/200/Incongruent/R/I_Dist_200_LN_11_LD_20_RN_3_RD_4_1.png","img2/300/Congruent/R/C_Dist_300_LN_1_LD_20_RN_7_RD_20_1.png","img2/300/Incongruent/R/I_Dist_300_LN_4_LD_20_RN_2_RD_4_1.png","img2/300/Incongruent/L/I_Dist_300_LN_1_LD_2_RN_3_RD_15_0.png","img2/100/Incongruent/L/I_Dist_100_LN_9_LD_10_RN_20_RD_25_0.png","img2/100/Congruent/L/C_Dist_100_LN_6_LD_20_RN_5_RD_25_0.png","img2/100/Congruent/R/C_Dist_100_LN_1_LD_2_RN_18_RD_30_1.png","img2/200/Congruent/R/C_Dist_200_LN_13_LD_26_RN_14_RD_20_1.png","img2/100/Congruent/L/C_Dist_100_LN_8_LD_16_RN_2_RD_5_0.png","img2/300/Incongruent/L/I_Dist_300_LN_1_LD_2_RN_2_RD_10_0.png","img2/300/Congruent/R/C_Dist_300_LN_1_LD_5_RN_3_RD_6_1.png","img2/100/Congruent/R/C_Dist_100_LN_1_LD_2_RN_3_RD_5_1.png","img2/300/Congruent/L/C_Dist_300_LN_18_LD_20_RN_9_RD_15_0.png","img2/100/Incongruent/R/I_Dist_100_LN_10_LD_25_RN_9_RD_18_1.png","img2/200/Incongruent/L/I_Dist_200_LN_7_LD_10_RN_8_RD_16_0.png","img2/300/Congruent/R/C_Dist_300_LN_1_LD_20_RN_7_RD_20_1.png","img2/300/Congruent/R/C_Dist_300_LN_1_LD_3_RN_19_RD_30_1.png","img2/100/Congruent/R/C_Dist_100_LN_12_LD_30_RN_13_RD_26_1.png","img2/300/Incongruent/L/I_Dist_300_LN_3_LD_6_RN_4_RD_20_0.png","img2/300/Incongruent/L/I_Dist_300_LN_8_LD_10_RN_14_RD_28_0.png","img2/200/Congruent/R/C_Dist_200_LN_13_LD_26_RN_14_RD_20_1.png","img2/100/Congruent/L/C_Dist_100_LN_9_LD_15_RN_8_RD_16_0.png","img2/100/Incongruent/L/I_Dist_100_LN_3_LD_5_RN_11_RD_22_0.png","img2/100/Incongruent/L/I_Dist_100_LN_9_LD_15_RN_14_RD_28_0.png","img2/100/Incongruent/R/I_Dist_100_LN_12_LD_24_RN_9_RD_15_1.png","img2/200/Congruent/R/C_Dist_200_LN_7_LD_15_RN_18_RD_27_1.png","img2/300/Incongruent/L/I_Dist_300_LN_3_LD_6_RN_4_RD_20_0.png","img2/100/Congruent/R/C_Dist_100_LN_2_LD_5_RN_11_RD_22_1.png","img2/100/Incongruent/R/I_Dist_100_LN_13_LD_26_RN_6_RD_10_1.png","img2/100/Congruent/L/C_Dist_100_LN_3_LD_6_RN_2_RD_5_0.png","img2/300/Congruent/L/C_Dist_300_LN_12_LD_24_RN_2_RD_10_0.png","img2/100/Incongruent/L/I_Dist_100_LN_6_LD_10_RN_11_RD_22_0.png","img2/100/Incongruent/L/I_Dist_100_LN_6_LD_10_RN_13_RD_26_0.png","img2/100/Congruent/R/C_Dist_100_LN_1_LD_2_RN_18_RD_30_1.png","img2/100/Congruent/R/C_Dist_100_LN_4_LD_8_RN_6_RD_10_1.png","img2/300/Incongruent/R/I_Dist_300_LN_4_LD_20_RN_2_RD_4_1.png","img2/100/Congruent/L/C_Dist_100_LN_15_LD_25_RN_13_RD_26_0.png","img2/300/Congruent/R/C_Dist_300_LN_3_LD_12_RN_11_RD_20_1.png","img2/200/Incongruent/R/I_Dist_200_LN_7_LD_15_RN_6_RD_9_1.png","img2/200/Congruent/R/C_Dist_200_LN_3_LD_10_RN_7_RD_14_1.png","img2/100/Congruent/R/C_Dist_100_LN_3_LD_20_RN_4_RD_16_1.png","img2/100/Incongruent/L/I_Dist_100_LN_2_LD_4_RN_8_RD_20_0.png","img2/300/Incongruent/L/I_Dist_300_LN_4_LD_5_RN_8_RD_16_0.png","img2/100/Incongruent/R/I_Dist_100_LN_6_LD_12_RN_3_RD_5_1.png","img2/200/Congruent/L/C_Dist_200_LN_9_LD_20_RN_4_RD_16_0.png","img2/300/Congruent/L/C_Dist_300_LN_20_LD_25_RN_8_RD_16_0.png","img2/300/Incongruent/L/I_Dist_300_LN_8_LD_10_RN_9_RD_18_0.png","img2/200/Congruent/L/C_Dist_200_LN_9_LD_20_RN_4_RD_16_0.png","img2/200/Congruent/L/C_Dist_200_LN_4_LD_10_RN_3_RD_15_0.png","img2/100/Incongruent/L/I_Dist_100_LN_1_LD_2_RN_8_RD_20_0.png","img2/200/Incongruent/R/I_Dist_200_LN_7_LD_15_RN_6_RD_9_1.png","img2/300/Congruent/L/C_Dist_300_LN_20_LD_25_RN_5_RD_10_0.png","img2/300/Incongruent/R/I_Dist_300_LN_13_LD_26_RN_12_RD_15_1.png","img2/100/Incongruent/R/I_Dist_100_LN_12_LD_24_RN_9_RD_15_1.png","img2/200/Congruent/R/C_Dist_200_LN_5_LD_10_RN_14_RD_20_1.png"],"dist100_C":[["C_Dist_100_LN_10_LD_25_RN_3_RD_10_0.png","C_Dist_100_LN_11_LD_22_RN_4_RD_10_0.png","C_Dist_100_LN_11_LD_22_RN_6_RD_15_0.png","C_Dist_100_LN_15_LD_25_RN_13_RD_26_0.png","C_Dist_100_LN_3_LD_6_RN_2_RD_5_0.png","C_Dist_100_LN_6_LD_20_RN_5_RD_25_0.png","C_Dist_100_LN_8_LD_16_RN_2_RD_5_0.png","C_Dist_100_LN_9_LD_15_RN_8_RD_16_0.png"],["C_Dist_100_LN_1_LD_2_RN_18_RD_30_1.png","C_Dist_100_LN_1_LD_2_RN_3_RD_5_1.png","C_Dist_100_LN_12_LD_30_RN_13_RD_26_1.png","C_Dist_100_LN_2_LD_5_RN_11_RD_22_1.png","C_Dist_100_LN_2_LD_5_RN_6_RD_12_1.png","C_Dist_100_LN_3_LD_20_RN_4_RD_16_1.png","C_Dist_100_LN_4_LD_10_RN_15_RD_30_1.png","C_Dist_100_LN_4_LD_8_RN_6_RD_10_1.png","C_Dist_100_LN_6_LD_12_RN_15_RD_25_1.png","C_Dist_100_LN_7_LD_14_RN_15_RD_25_1.png","C_Dist_100_LN_7_LD_14_RN_9_RD_15_1.png"]],"dist100_I":[["I_Dist_100_LN_1_LD_2_RN_8_RD_20_0.png","I_Dist_100_LN_2_LD_4_RN_6_RD_15_0.png","I_Dist_100_LN_2_LD_4_RN_8_RD_20_0.png","I_Dist_100_LN_3_LD_5_RN_11_RD_22_0.png","I_Dist_100_LN_3_LD_5_RN_8_RD_16_0.png","I_Dist_100_LN_3_LD_6_RN_4_RD_10_0.png","I_Dist_100_LN_3_LD_9_RN_7_RD_30_0.png","I_Dist_100_LN_4_LD_8_RN_8_RD_20_0.png","I_Dist_100_LN_6_LD_10_RN_11_RD_22_0.png","I_Dist_100_LN_6_LD_10_RN_13_RD_26_0.png","I_Dist_100_LN_6_LD_10_RN_7_RD_14_0.png","I_Dist_100_LN_9_LD_10_RN_20_RD_25_0.png","I_Dist_100_LN_9_LD_15_RN_13_RD_26_0.png","I_Dist_100_LN_9_LD_15_RN_14_RD_28_0.png"],["I_Dist_100_LN_10_LD_25_RN_8_RD_16_1.png","I_Dist_100_LN_10_LD_25_RN_9_RD_18_1.png","I_Dist_100_LN_11_LD_22_RN_9_RD_15_1.png","I_Dist_100_LN_12_LD_24_RN_9_RD_15_1.png","I_Dist_100_LN_12_LD_30_RN_2_RD_4_1.png","I_Dist_100_LN_13_LD_26_RN_12_RD_20_1.png","I_Dist_100_LN_13_LD_26_RN_6_RD_10_1.png","I_Dist_100_LN_17_LD_30_RN_10_RD_15_1.png","I_Dist_100_LN_6_LD_12_RN_3_RD_5_1.png","I_Dist_100_LN_8_LD_16_RN_6_RD_10_1.png","I_Dist_100_LN_8_LD_20_RN_1_RD_2_1.png","I_Dist_100_LN_9_LD_18_RN_6_RD_10_1.png"]],"dist100_S":[["E_Dist_100_LN_2_LD_12_RN_2_RD_30_0.png","E_Dist_100_LN_6_LD_10_RN_6_RD_12_0.png"],["E_Dist_100_LN_6_LD_12_RN_6_RD_10_1.png"]],"dist200_C":[["C_Dist_200_LN_11_LD_22_RN_3_RD_10_0.png","C_Dist_200_LN_12_LD_15_RN_6_RD_10_0.png","C_Dist_200_LN_12_LD_20_RN_6_RD_15_0.png","C_Dist_200_LN_14_LD_28_RN_6_RD_20_0.png","C_Dist_200_LN_15_LD_25_RN_4_RD_10_0.png","C_Dist_200_LN_16_LD_20_RN_12_RD_20_0.png","C_Dist_200_LN_16_LD_30_RN_9_RD_27_0.png","C_Dist_200_LN_20_LD_25_RN_9_RD_15_0.png","C_Dist_200_LN_21_LD_30_RN_2_RD_4_0.png","C_Dist_200_LN_4_LD_10_RN_3_RD_15_0.png","C_Dist_200_LN_4_LD_8_RN_3_RD_10_0.png","C_Dist_200_LN_6_LD_15_RN_3_RD_15_0.png","C_Dist_200_LN_7_LD_21_RN_2_RD_15_0.png","C_Dist_200_LN_8_LD_15_RN_2_RD_6_0.png","C_Dist_200_LN_8_LD_15_RN_3_RD_9_0.png","C_Dist_200_LN_8_LD_15_RN_7_RD_21_0.png","C_Dist_200_LN_9_LD_20_RN_4_RD_16_0.png"],["C_Dist_200_LN_1_LD_2_RN_21_RD_30_1.png","C_Dist_200_LN_13_LD_26_RN_14_RD_20_1.png","C_Dist_200_LN_3_LD_10_RN_11_RD_22_1.png","C_Dist_200_LN_3_LD_10_RN_14_RD_28_1.png","C_Dist_200_LN_3_LD_10_RN_7_RD_14_1.png","C_Dist_200_LN_3_LD_12_RN_9_RD_20_1.png","C_Dist_200_LN_3_LD_6_RN_14_RD_20_1.png","C_Dist_200_LN_5_LD_10_RN_14_RD_20_1.png","C_Dist_200_LN_6_LD_12_RN_7_RD_10_1.png","C_Dist_200_LN_6_LD_20_RN_11_RD_22_1.png","C_Dist_200_LN_7_LD_15_RN_18_RD_27_1.png","C_Dist_200_LN_9_LD_30_RN_13_RD_26_1.png"]],"dist200_I":[["I_Dist_200_LN_1_LD_2_RN_3_RD_10_0.png","I_Dist_200_LN_1_LD_3_RN_2_RD_15_0.png","I_Dist_200_LN_3_LD_4_RN_11_RD_20_0.png","I_Dist_200_LN_4_LD_5_RN_6_RD_10_0.png","I_Dist_200_LN_4_LD_6_RN_14_RD_30_0.png","I_Dist_200_LN_7_LD_10_RN_12_RD_24_0.png","I_Dist_200_LN_7_LD_10_RN_14_RD_28_0.png","I_Dist_200_LN_7_LD_10_RN_8_RD_16_0.png"],["I_Dist_200_LN_11_LD_20_RN_3_RD_4_1.png","I_Dist_200_LN_14_LD_30_RN_12_RD_18_1.png","I_Dist_200_LN_14_LD_30_RN_6_RD_9_1.png","I_Dist_200_LN_3_LD_10_RN_1_RD_2_1.png","I_Dist_200_LN_4_LD_30_RN_1_RD_3_1.png","I_Dist_200_LN_6_LD_20_RN_3_RD_6_1.png","I_Dist_200_LN_7_LD_15_RN_4_RD_6_1.png","I_Dist_200_LN_7_LD_15_RN_6_RD_9_1.png","I_Dist_200_LN_9_LD_15_RN_8_RD_10_1.png"]],"dist200_S":[["E_Dist_200_LN_3_LD_6_RN_3_RD_10_0.png"],["E_Dist_200_LN_3_LD_10_RN_3_RD_6_1.png"]],"dist300_C":[["C_Dist_300_LN_11_LD_22_RN_1_RD_5_0.png","C_Dist_300_LN_11_LD_22_RN_2_RD_10_0.png","C_Dist_300_LN_11_LD_22_RN_4_RD_20_0.png","C_Dist_300_LN_12_LD_24_RN_2_RD_10_0.png","C_Dist_300_LN_18_LD_20_RN_9_RD_15_0.png","C_Dist_300_LN_20_LD_25_RN_13_RD_26_0.png","C_Dist_300_LN_20_LD_25_RN_14_RD_28_0.png","C_Dist_300_LN_20_LD_25_RN_5_RD_10_0.png","C_Dist_300_LN_20_LD_25_RN_8_RD_16_0.png","C_Dist_300_LN_20_LD_25_RN_9_RD_18_0.png","C_Dist_300_LN_24_LD_30_RN_2_RD_4_0.png","C_Dist_300_LN_24_LD_30_RN_8_RD_16_0.png","C_Dist_300_LN_3_LD_6_RN_2_RD_10_0.png","C_Dist_300_LN_4_LD_10_RN_1_RD_10_0.png","C_Dist_300_LN_4_LD_5_RN_2_RD_4_0.png","C_Dist_300_LN_8_LD_16_RN_1_RD_5_0.png","C_Dist_300_LN_9_LD_10_RN_3_RD_5_0.png"],["C_Dist_300_LN_1_LD_20_RN_7_RD_20_1.png","C_Dist_300_LN_1_LD_3_RN_19_RD_30_1.png","C_Dist_300_LN_1_LD_30_RN_8_RD_24_1.png","C_Dist_300_LN_1_LD_5_RN_11_RD_22_1.png","C_Dist_300_LN_1_LD_5_RN_3_RD_6_1.png","C_Dist_300_LN_1_LD_5_RN_6_RD_12_1.png","C_Dist_300_LN_2_LD_10_RN_12_RD_24_1.png","C_Dist_300_LN_2_LD_20_RN_10_RD_25_1.png","C_Dist_300_LN_3_LD_12_RN_11_RD_20_1.png","C_Dist_300_LN_3_LD_6_RN_4_RD_5_1.png","C_Dist_300_LN_4_LD_20_RN_13_RD_26_1.png","C_Dist_300_LN_5_LD_25_RN_6_RD_12_1.png","C_Dist_300_LN_5_LD_25_RN_7_RD_14_1.png","C_Dist_300_LN_7_LD_14_RN_20_RD_25_1.png","C_Dist_300_LN_8_LD_15_RN_10_RD_12_1.png"]],"dist300_I":[["I_Dist_300_LN_1_LD_2_RN_2_RD_10_0.png","I_Dist_300_LN_1_LD_2_RN_3_RD_15_0.png","I_Dist_300_LN_2_LD_4_RN_6_RD_30_0.png","I_Dist_300_LN_3_LD_6_RN_4_RD_20_0.png","I_Dist_300_LN_4_LD_5_RN_6_RD_12_0.png","I_Dist_300_LN_4_LD_5_RN_8_RD_16_0.png","I_Dist_300_LN_7_LD_10_RN_8_RD_20_0.png","I_Dist_300_LN_8_LD_10_RN_14_RD_28_0.png","I_Dist_300_LN_8_LD_10_RN_9_RD_18_0.png"],["I_Dist_300_LN_13_LD_26_RN_12_RD_15_1.png","I_Dist_300_LN_4_LD_20_RN_2_RD_4_1.png"]],"dist300_S":[["E_Dist_300_LN_9_LD_12_RN_9_RD_20_0.png"],["E_Dist_300_LN_18_LD_30_RN_18_RD_20_1.png","E_Dist_300_LN_3_LD_10_RN_3_RD_5_1.png","E_Dist_300_LN_9_LD_20_RN_9_RD_12_1.png"]],"dist500_C":[["C_Dist_500_LN_10_LD_13_RN_7_RD_26_0.png","C_Dist_500_LN_10_LD_15_RN_4_RD_24_0.png","C_Dist_500_LN_12_LD_16_RN_3_RD_12_0.png","C_Dist_500_LN_12_LD_18_RN_4_RD_24_0.png","C_Dist_500_LN_15_LD_18_RN_5_RD_15_0.png","C_Dist_500_LN_15_LD_20_RN_1_RD_4_0.png","C_Dist_500_LN_18_LD_27_RN_1_RD_6_0.png","C_Dist_500_LN_20_LD_24_RN_1_RD_3_0.png","C_Dist_500_LN_20_LD_24_RN_3_RD_9_0.png","C_Dist_500_LN_20_LD_24_RN_7_RD_21_0.png","C_Dist_500_LN_20_LD_28_RN_3_RD_14_0.png","C_Dist_500_LN_21_LD_28_RN_6_RD_24_0.png","C_Dist_500_LN_22_LD_28_RN_2_RD_7_0.png","C_Dist_500_LN_25_LD_30_RN_9_RD_27_0.png","C_Dist_500_LN_4_LD_6_RN_1_RD_6_0.png","C_Dist_500_LN_5_LD_6_RN_2_RD_6_0.png","C_Dist_500_LN_6_LD_9_RN_1_RD_6_0.png","C_Dist_500_LN_7_LD_10_RN_1_RD_5_0.png","C_Dist_500_LN_8_LD_12_RN_1_RD_6_0.png","C_Dist_500_LN_8_LD_12_RN_4_RD_24_0.png"],["C_Dist_500_LN_1_LD_4_RN_12_RD_16_1.png","C_Dist_500_LN_1_LD_4_RN_9_RD_12_1.png","C_Dist_500_LN_1_LD_9_RN_11_RD_18_1.png","C_Dist_500_LN_10_LD_24_RN_22_RD_24_1.png","C_Dist_500_LN_2_LD_12_RN_10_RD_15_1.png","C_Dist_500_LN_2_LD_12_RN_12_RD_18_1.png","C_Dist_500_LN_2_LD_12_RN_4_RD_6_1.png","C_Dist_500_LN_2_LD_24_RN_7_RD_12_1.png","C_Dist_500_LN_2_LD_5_RN_18_RD_20_1.png","C_Dist_500_LN_2_LD_5_RN_9_RD_10_1.png","C_Dist_500_LN_2_LD_8_RN_12_RD_16_1.png","C_Dist_500_LN_2_LD_8_RN_21_RD_28_1.png","C_Dist_500_LN_3_LD_10_RN_4_RD_5_1.png","C_Dist_500_LN_3_LD_12_RN_15_RD_20_1.png","C_Dist_500_LN_3_LD_30_RN_6_RD_10_1.png","C_Dist_500_LN_3_LD_8_RN_14_RD_16_1.png","C_Dist_500_LN_4_LD_16_RN_15_RD_20_1.png","C_Dist_500_LN_4_LD_24_RN_12_RD_18_1.png","C_Dist_500_LN_5_LD_14_RN_6_RD_7_1.png","C_Dist_500_LN_7_LD_21_RN_20_RD_24_1.png","C_Dist_500_LN_7_LD_28_RN_12_RD_16_1.png","C_Dist_500_LN_7_LD_28_RN_9_RD_12_1.png","C_Dist_500_LN_9_LD_27_RN_20_RD_24_1.png"]],"dist500_I":[["I_Dist_500_LN_2_LD_3_RN_4_RD_24_0.png","I_Dist_500_LN_5_LD_6_RN_6_RD_18_0.png","I_Dist_500_LN_7_LD_8_RN_9_RD_24_0.png"],["I_Dist_500_LN_7_LD_21_RN_5_RD_6_1.png"]],"dist500_S":[["E_Dist_500_LN_6_LD_8_RN_6_RD_24_0.png"],["E_Dist_500_LN_2_LD_12_RN_2_RD_3_1.png","E_Dist_500_LN_6_LD_24_RN_6_RD_8_1.png"]]}},{"start_time":1552074662569,"click_time":1552074663408,"finger_time":1552074663067,"fix_duration":1400.5348051848032,"trial":1,"RT":498,"MT":341,"sideResp":1,"stimulus":[],"xmouse":[798,798,798,798,795,795,795,795,795,795,793,793,792,792,791,791,791,791,791,790,790,790,789,786,785,784,782,781,779,774,772,769,764,756,721,672,633,595,544,531,522,511],"ymouse":[564,564,563,561,558,558,558,558,557,554,550,547,545,542,541,540,540,540,539,538,535,533,528,514,500,491,486,481,477,471,469,466,462,456,424,369,321,267,170,136,111,86],"timestamp_mouse":[34,36,58,78,97,117,137,158,178,197,217,238,257,278,297,318,338,358,377,396,417,438,458,478,498,518,537,557,578,597,618,638,658,679,698,717,737,757,778,797,817,838],"xSR":741.5,"ySR":501.8,"xT1":424.9,"yT1":0,"xT2":1058.1,"yT2":0,"toosoon":0,"cond_shown":"Congruent","ratio_trial":300,"L_num":3,"L_den":6,"R_num":2,"R_den":10,"correct_side":1,"subjID":"Alejandra Caycedo Moreno 24","gender":null,"school":null,"age":null},{"start_time":1552074666083,"click_time":1552074666946,"finger_time":1552074666567,"fix_duration":1015.9089709845206,"trial":2,"RT":484,"MT":379,"sideResp":2,"stimulus":[],"xmouse":[773,773,773,773,773,773,773,773,773,773,773,773,773,773,773,773,773,775,777,783,785,788,794,802,830,859,892,928,953,982,983,984,985,988,1006,1019,1033,1044,1057,1066,1070,1075,1082,1085],"ymouse":[551,551,551,551,551,551,551,551,551,551,551,551,551,551,551,551,551,551,551,544,539,534,526,514,471,439,407,383,367,346,344,343,339,333,307,294,275,258,235,194,170,143,117,90],"timestamp_mouse":[16,24,48,64,84,102,124,143,164,184,203,222,244,263,284,304,323,344,363,382,403,424,443,463,484,503,524,544,563,584,603,624,644,664,684,703,723,742,763,783,803,824,843,863],"xSR":741.5,"ySR":501.8,"xT1":424.9,"yT1":0,"xT2":1058.1,"yT2":0,"toosoon":0,"cond_shown":"Incongruent","ratio_trial":100,"L_num":8,"L_den":16,"R_num":6,"R_den":10,"correct_side":2,"subjID":"Alejandra Caycedo Moreno 24","gender":null,"school":null,"age":null},{"start_time":1552074670515,"click_time":1552074671346,"finger_time":1552074670946,"fix_duration":506.2419722200957,"trial":3,"RT":431,"MT":400,"sideResp":2,"stimulus":[],"xmouse":[766,766,766,766,766,766,766,766,766,766,766,766,766,766,767,768,771,777,782,790,800,813,826,853,878,896,915,948,967,989,1010,1024,1038,1041,1041,1041,1042,1043,1046,1052,1058,1066],"ymouse":[551,551,551,551,551,551,551,551,551,551,551,551,551,551,551,551,548,540,535,525,513,497,480,431,395,373,354,309,277,242,207,177,134,114,106,101,99,98,97,94,89,81],"timestamp_mouse":[13,37,52,71,92,112,131,151,172,191,211,231,251,271,291,311,332,351,372,392,412,431,451,471,491,512,532,552,571,592,611,632,652,670,691,712,731,751,772,791,811,831],"xSR":741.5,"ySR":501.8,"xT1":424.9,"yT1":0,"xT2":1058.1,"yT2":0,"toosoon":0,"cond_shown":"Congruent","ratio_trial":300,"L_num":20,"L_den":25,"R_num":14,"R_den":28,"correct_side":1,"subjID":"Alejandra Caycedo Moreno 24","gender":null,"school":null,"age":null},{"start_time":1552074673856,"click_time":1552074675066,"finger_time":1552074674486,"fix_duration":1167.5974382363477,"trial":4,"RT":630,"MT":580,"sideResp":1,"stimulus":[],"xmouse":[813,814,815,815,815,815,816,816,816,816,816,816,816,816,816,816,816,816,816,816,816,816,816,816,816,816,816,816,811,794,774,753,749,745,741,738,734,734,734,734,734,719,697,665,601,531,512,510,508,500,483,421,398,391,391,391,418,431,440,446,448],"ymouse":[538,536,534,533,532,531,527,526,526,526,526,526,525,525,525,525,525,525,525,525,525,525,525,525,525,525,525,525,521,514,507,501,499,496,492,486,449,430,408,386,361,306,274,246,220,203,203,202,200,192,184,162,154,150,150,148,137,128,115,103,93],"timestamp_mouse":[12,43,50,70,91,110,131,150,170,191,210,231,251,269,291,310,331,351,371,391,411,430,449,471,491,511,530,550,571,591,610,630,651,671,691,710,730,750,771,790,810,831,850,871,890,910,930,950,971,990,1011,1031,1050,1071,1090,1112,1130,1151,1170,1190,1210],"xSR":741.5,"ySR":501.8,"xT1":424.9,"yT1":0,"xT2":1058.1,"yT2":0,"toosoon":0,"cond_shown":"Congruent","ratio_trial":300,"L_num":9,"L_den":10,"R_num":3,"R_den":5,"correct_side":1,"subjID":"Alejandra Caycedo Moreno 24","gender":null,"school":null,"age":null},{"start_time":1552074678934,"click_time":1552074680506,"finger_time":1552074679627,"fix_duration":1345.7530529834753,"trial":5,"RT":693,"MT":879,"sideResp":2,"stimulus":[],"xmouse":[802,802,802,802,802,802,802,802,802,802,802,802,802,802,802,802,802,802,802,802,802,802,802,802,802,802,802,802,802,802,801,801,804,807,812,815,819,828,836,841,846,852,867,876,888,900,911,924,939,939,939,941,945,950,958,971,985,1001,1004,1006,1009,1013,1025,1028,1030,1032,1035,1043,1051,1057,1057,1057,1057,1057,1057,1057,1057,1057,1060],"ymouse":[525,525,525,525,525,525,525,525,525,525,525,525,525,525,525,525,525,525,525,525,525,525,525,525,525,525,525,525,525,525,524,523,511,503,497,493,486,478,470,462,454,442,411,391,369,347,322,297,254,232,222,216,205,197,189,176,162,142,135,129,128,127,125,124,122,117,112,100,86,77,71,66,64,63,63,63,63,63,62],"timestamp_mouse":[14,33,53,72,91,113,133,152,172,193,212,233,252,272,292,312,332,352,372,393,412,432,452,472,492,513,533,552,572,593,612,632,653,671,693,712,732,754,773,792,812,832,853,872,892,913,933,953,973,993,1012,1033,1053,1073,1093,1112,1133,1154,1172,1193,1212,1232,1253,1272,1293,1313,1332,1353,1372,1392,1413,1433,1452,1473,1493,1512,1532,1552,1572],"xSR":741.5,"ySR":501.8,"xT1":424.9,"yT1":0,"xT2":1058.1,"yT2":0,"toosoon":0,"cond_shown":"Incongruent","ratio_trial":300,"L_num":1,"L_den":2,"R_num":2,"R_den":10,"correct_side":1,"subjID":"Alejandra Caycedo Moreno 24","gender":null,"school":null,"age":null},{"start_time":1552074700697,"click_time":1552074702067,"finger_time":1552074701547,"fix_duration":688.165175362148,"trial":6,"RT":850,"MT":520,"sideResp":1,"stimulus":[],"xmouse":[781,781,781,781,781,781,781,781,781,781,781,781,781,781,781,781,781,781,781,781,781,781,781,781,781,781,781,782,785,787,788,788,788,788,788,788,788,788,788,785,777,754,690,644,600,571,548,515,504,496,488,481,443,424,416,416,418,438,453,463,469,470,470,469,468,468,468,467,476],"ymouse":[541,541,541,541,541,541,541,541,541,541,541,541,541,541,541,541,541,541,541,541,541,541,541,541,541,541,539,536,530,527,525,525,525,525,525,525,525,525,525,523,520,513,492,473,450,433,416,385,371,359,340,326,287,271,262,258,251,235,227,223,220,215,208,204,199,192,167,118,94],"timestamp_mouse":[14,41,49,70,90,109,130,150,170,190,209,229,249,269,289,309,329,350,369,390,409,430,450,470,490,509,529,549,569,589,610,629,650,669,690,709,730,750,769,790,810,829,850,870,889,909,928,949,970,990,1010,1029,1050,1071,1089,1109,1129,1150,1169,1190,1210,1230,1250,1270,1290,1310,1329,1350,1369],"xSR":741.5,"ySR":501.8,"xT1":424.9,"yT1":0,"xT2":1058.1,"yT2":0,"toosoon":0,"cond_shown":"Congruent","ratio_trial":200,"L_num":8,"L_den":15,"R_num":3,"R_den":9,"correct_side":1,"subjID":"Alejandra Caycedo Moreno 24","gender":null,"school":null,"age":null},{"start_time":1552074703259,"click_time":1552074705006,"finger_time":1552074703826,"fix_duration":250,"trial":7,"RT":567,"MT":1180,"sideResp":1,"stimulus":[],"xmouse":[823,823,823,822,822,822,822,822,822,822,822,822,822,822,822,822,822,822,822,822,822,823,826,828,830,832,836,841,847,863,873,882,894,896,897,897,897,897,897,897,897,897,897,897,897,896,896,896,894,881,875,868,863,851,792,732,651,560,456,274,148,124,101,101,101,101,101,101,101,101,101,101,101,205,216,220,227,242,266,308,322,323,323,326,353,379,417,466],"ymouse":[532,532,532,533,533,533,533,533,533,533,533,533,533,533,533,533,533,533,533,533,534,533,528,526,521,519,512,502,486,450,433,417,401,397,395,395,395,395,394,394,394,394,394,393,387,385,381,379,375,369,369,368,368,368,363,353,331,294,243,134,55,31,3,3,3,3,3,3,3,3,3,3,3,6,9,12,15,21,28,35,36,36,36,36,36,39,45,53],"timestamp_mouse":[14,38,47,67,87,108,127,147,167,187,207,228,248,267,288,308,328,347,368,388,408,427,448,468,487,508,526,548,567,588,607,627,648,667,687,708,727,748,766,787,807,827,848,867,887,908,927,948,967,987,1007,1027,1048,1067,1087,1107,1128,1148,1167,1187,1207,1226,1248,1267,1287,1308,1327,1348,1366,1388,1407,1427,1448,1467,1488,1507,1528,1548,1567,1588,1606,1628,1646,1668,1688,1707,1727,1747],"xSR":741.5,"ySR":501.8,"xT1":424.9,"yT1":0,"xT2":1058.1,"yT2":0,"toosoon":0,"cond_shown":"Congruent","ratio_trial":100,"L_num":10,"L_den":25,"R_num":3,"R_den":10,"correct_side":1,"subjID":"Alejandra Caycedo Moreno 24","gender":null,"school":null,"age":null},{"start_time":1552074706379,"click_time":1552074707466,"finger_time":1552074706887,"fix_duration":250,"trial":8,"RT":508,"MT":579,"sideResp":2,"stimulus":[],"xmouse":[788,788,788,788,788,788,788,788,788,788,788,788,788,788,788,788,788,787,787,786,786,786,786,786,800,817,839,868,893,922,928,931,933,935,944,948,956,961,967,971,976,981,987,990,997,998,999,999,999,1001,1006,1015,1033,1050,1098],"ymouse":[574,574,574,574,574,574,574,574,574,574,574,574,574,574,574,574,574,572,571,569,567,566,564,557,504,464,412,364,319,261,240,224,212,190,153,144,133,126,119,116,113,110,108,107,103,103,101,101,100,100,96,88,74,61,26],"timestamp_mouse":[13,37,48,68,86,108,128,147,168,188,207,227,248,266,287,308,328,347,368,387,408,427,447,467,488,508,528,548,568,588,607,627,648,667,687,708,728,748,769,787,807,827,848,867,888,907,927,947,968,987,1007,1027,1047,1067,1087],"xSR":741.5,"ySR":501.8,"xT1":424.9,"yT1":0,"xT2":1058.1,"yT2":0,"toosoon":0,"cond_shown":"Congruent","ratio_trial":300,"L_num":1,"L_den":5,"R_num":6,"R_den":12,"correct_side":2,"subjID":"Alejandra Caycedo Moreno 24","gender":null,"school":null,"age":null},{"start_time":1552074709951,"click_time":1552074711167,"finger_time":1552074710466,"fix_duration":1182.266727516482,"trial":9,"RT":515,"MT":701,"sideResp":2,"stimulus":[],"xmouse":[773,771,771,771,771,771,771,771,771,771,771,771,770,769,769,768,768,768,768,768,768,768,766,765,762,759,759,759,760,762,769,777,800,814,836,877,887,897,897,897,897,897,897,897,897,897,897,897,897,897,897,1024,1032,1037,1038,1038,1038,1038,1040,1049,1065],"ymouse":[544,542,542,542,542,542,542,542,542,542,542,542,541,541,540,539,539,539,539,539,539,539,537,533,522,500,490,481,473,468,452,439,396,367,301,112,46,6,6,6,6,6,6,6,6,6,6,6,6,6,6,0,6,10,10,10,10,11,12,20,30],"timestamp_mouse":[16,39,55,75,95,115,135,156,174,195,216,236,255,275,296,316,335,355,376,396,416,436,456,476,495,515,535,556,576,595,616,636,656,676,696,715,735,755,775,796,816,835,856,875,895,915,936,956,976,996,1017,1034,1056,1075,1095,1116,1136,1155,1176,1196,1216],"xSR":741.5,"ySR":501.8,"xT1":424.9,"yT1":0,"xT2":1058.1,"yT2":0,"toosoon":0,"cond_shown":"Incongruent","ratio_trial":200,"L_num":7,"L_den":10,"R_num":8,"R_den":16,"correct_side":1,"subjID":"Alejandra Caycedo Moreno 24","gender":null,"school":null,"age":null},{"start_time":1552074715748,"click_time":1552074717228,"finger_time":1552074716268,"fix_duration":1000.995262474114,"trial":10,"RT":520,"MT":960,"sideResp":2,"stimulus":[],"xmouse":[759,760,760,761,761,760,760,760,760,760,760,760,760,760,760,760,760,760,761,761,764,769,770,771,771,773,775,775,775,775,775,775,775,776,776,776,777,778,778,778,778,778,778,778,778,779,779,779,779,779,789,798,808,818,832,850,899,918,938,951,964,970,974,978,985,993,1008,1014,1019,1022,1032,1047,1053,1062],"ymouse":[522,522,522,522,522,526,526,526,527,527,527,527,527,527,527,527,527,527,524,522,519,509,509,507,504,499,497,496,496,496,496,496,496,495,495,494,492,491,488,484,481,480,480,480,480,480,480,480,478,477,467,458,449,437,420,395,321,294,266,245,218,186,171,156,141,127,99,85,70,58,44,34,32,28],"timestamp_mouse":[20,41,60,79,100,120,140,160,179,199,220,239,259,280,300,319,339,360,380,398,419,440,459,480,499,520,539,560,580,599,619,639,660,679,699,719,740,759,779,800,820,839,859,879,900,919,939,959,978,999,1020,1039,1059,1080,1099,1118,1139,1160,1179,1200,1219,1240,1259,1279,1299,1319,1339,1360,1379,1400,1419,1439,1459,1479],"xSR":741.5,"ySR":501.8,"xT1":424.9,"yT1":0,"xT2":1058.1,"yT2":0,"toosoon":0,"cond_shown":"Incongruent","ratio_trial":200,"L_num":7,"L_den":15,"R_num":6,"R_den":9,"correct_side":2,"subjID":"Alejandra Caycedo Moreno 24","gender":null,"school":null,"age":null},{"start_time":1552074718939,"click_time":1552074720487,"finger_time":1552074719528,"fix_duration":250,"trial":11,"RT":589,"MT":959,"sideResp":1,"stimulus":[],"xmouse":[811,811,811,811,811,810,803,790,787,787,787,786,785,785,784,784,784,784,784,784,784,784,784,784,784,783,782,776,767,740,729,702,648,589,570,561,557,554,551,548,541,531,524,519,514,506,493,479,469,469,471,473,474,474,474,474,474,476,479,483,485,485,469,451,441,437,436,430,421,409,396,395,395,395,398,407,414,428],"ymouse":[555,555,555,555,555,555,555,555,555,555,555,555,556,556,557,557,557,557,557,557,557,557,557,557,557,557,557,553,549,538,533,519,491,457,444,434,428,418,408,396,381,356,312,288,261,238,219,203,194,194,192,191,187,182,177,173,170,167,164,162,160,157,148,144,140,138,137,133,129,123,111,109,105,102,97,92,87,66],"timestamp_mouse":[12,29,47,68,88,108,129,148,168,187,208,228,249,268,289,309,329,348,369,388,409,429,448,468,488,508,529,547,569,589,609,629,648,668,689,709,728,749,769,789,808,828,848,868,889,908,929,948,968,989,1009,1029,1048,1068,1088,1108,1129,1148,1169,1189,1209,1228,1248,1269,1288,1309,1329,1348,1368,1389,1409,1429,1448,1469,1489,1508,1528,1548],"xSR":741.5,"ySR":501.8,"xT1":424.9,"yT1":0,"xT2":1058.1,"yT2":0,"toosoon":0,"cond_shown":"Congruent","ratio_trial":300,"L_num":24,"L_den":30,"R_num":8,"R_den":16,"correct_side":1,"subjID":"Alejandra Caycedo Moreno 24","gender":null,"school":null,"age":null},{"start_time":1552074724870,"click_time":1552074726207,"finger_time":1552074725408,"fix_duration":701.373050005926,"trial":12,"RT":538,"MT":799,"sideResp":1,"stimulus":[],"xmouse":[773,773,773,773,773,773,773,773,773,773,773,773,773,773,773,773,773,773,773,773,773,773,775,779,787,797,812,817,819,820,818,805,785,760,733,693,683,672,661,649,635,590,561,509,441,378,317,308,305,305,331,341,346,348,350,356,390,423,461,499,531,536,536,534,522,501,482],"ymouse":[526,526,526,526,526,526,526,526,526,526,526,526,526,526,526,526,526,526,526,526,526,526,526,526,521,514,501,495,489,486,477,474,473,471,471,470,468,464,455,442,425,387,371,347,314,281,238,224,211,204,165,147,134,129,127,127,131,140,145,150,152,152,152,144,126,111,99],"timestamp_mouse":[17,39,57,78,97,117,138,156,178,198,217,238,258,278,297,316,338,358,377,398,416,437,457,476,498,518,538,557,577,598,618,638,657,677,697,718,736,757,778,797,816,836,857,877,897,918,937,957,978,998,1018,1037,1057,1078,1097,1117,1137,1157,1177,1198,1216,1238,1257,1277,1297,1317,1337],"xSR":741.5,"ySR":501.8,"xT1":424.9,"yT1":0,"xT2":1058.1,"yT2":0,"toosoon":0,"cond_shown":"Incongruent","ratio_trial":200,"L_num":7,"L_den":15,"R_num":6,"R_den":9,"correct_side":2,"subjID":"Alejandra Caycedo Moreno 24","gender":null,"school":null,"age":null},{"start_time":1552074732710,"click_time":1552074733627,"finger_time":1552074732948,"fix_duration":1042.8424091656793,"trial":13,"RT":238,"MT":679,"sideResp":2,"stimulus":[],"xmouse":[788,788,788,788,788,788,790,794,799,805,818,822,823,824,825,827,831,834,838,848,852,856,861,866,875,881,887,895,906,917,936,945,952,957,965,977,981,985,992,1002,1029,1039,1045,1050,1054,1062],"ymouse":[532,532,532,532,531,528,525,522,518,513,503,500,498,498,497,494,487,482,475,459,449,440,430,418,401,387,377,364,348,328,291,270,250,233,217,196,188,181,172,161,132,118,105,94,83,67],"timestamp_mouse":[17,37,58,76,98,117,138,158,176,197,217,238,257,277,298,317,336,357,378,399,417,438,458,478,498,517,538,557,578,597,617,638,658,678,699,717,737,757,777,797,816,836,857,876,898,917],"xSR":741.5,"ySR":501.8,"xT1":424.9,"yT1":0,"xT2":1058.1,"yT2":0,"toosoon":0,"cond_shown":"Incongruent","ratio_trial":300,"L_num":1,"L_den":2,"R_num":2,"R_den":10,"correct_side":1,"subjID":"Alejandra Caycedo Moreno 24","gender":null,"school":null,"age":null},{"start_time":1552074736410,"click_time":1552074737627,"finger_time":1552074737128,"fix_duration":861.1814670461342,"trial":14,"RT":718,"MT":499,"sideResp":2,"stimulus":[],"xmouse":[796,800,800,801,801,801,801,801,801,801,801,801,801,801,801,801,801,801,801,801,801,801,801,801,801,801,803,804,804,807,810,816,827,837,862,872,877,882,897,924,937,945,953,958,971,979,987,995,1007,1020,1024,1029,1032,1035,1039,1042,1049,1056,1064,1080],"ymouse":[559,572,574,575,575,575,575,575,575,575,575,575,575,575,575,575,575,575,575,575,575,575,575,575,575,575,569,566,565,554,548,540,527,514,491,480,471,460,436,403,389,377,364,351,317,296,281,262,238,207,193,181,173,166,159,154,144,132,120,97],"timestamp_mouse":[40,57,77,98,117,138,158,178,197,218,238,256,278,298,318,338,357,378,398,417,437,458,476,498,518,537,558,577,598,617,638,657,677,697,718,736,758,777,798,817,837,857,878,898,917,937,957,977,996,1018,1037,1057,1078,1097,1117,1138,1158,1177,1197,1217],"xSR":741.5,"ySR":501.8,"xT1":424.9,"yT1":0,"xT2":1058.1,"yT2":0,"toosoon":0,"cond_shown":"Incongruent","ratio_trial":100,"L_num":3,"L_den":9,"R_num":7,"R_den":30,"correct_side":1,"subjID":"Alejandra Caycedo Moreno 24","gender":null,"school":null,"age":null},{"start_time":1552074744220,"click_time":1552074745467,"finger_time":1552074745227,"fix_duration":250,"trial":15,"RT":1007,"MT":240,"sideResp":2,"stimulus":[],"xmouse":[787,788,788,788,788,788,788,788,788,788,788,788,788,788,788,788,788,788,788,788,788,788,788,788,788,788,788,788,788,788,788,788,788,788,788,788,789,790,794,796,798,799,800,800,800,800,800,800,801,809,816,832,840,847,873,902,968,996,1020,1041,1055,1070,1074],"ymouse":[559,560,560,560,560,560,560,560,560,560,560,560,560,560,560,560,560,560,560,560,560,560,560,560,560,560,560,560,560,560,560,560,560,560,560,560,560,557,552,549,547,545,545,545,545,545,545,544,537,519,500,464,446,426,361,317,244,217,192,168,150,112,96],"timestamp_mouse":[7,27,51,66,88,107,126,147,168,187,207,227,248,268,286,307,327,347,368,387,408,427,448,467,487,508,526,547,566,588,607,627,647,668,688,707,727,748,768,788,807,828,848,867,886,906,928,947,968,988,1007,1027,1047,1067,1088,1108,1128,1147,1166,1187,1206,1227,1247],"xSR":741.5,"ySR":501.8,"xT1":424.9,"yT1":0,"xT2":1058.1,"yT2":0,"toosoon":0,"cond_shown":"Congruent","ratio_trial":100,"L_num":15,"L_den":25,"R_num":13,"R_den":26,"correct_side":1,"subjID":"Alejandra Caycedo Moreno 24","gender":null,"school":null,"age":null},{"start_time":1552074748374,"click_time":1552074749288,"finger_time":1552074748627,"fix_duration":845.1453815324242,"trial":16,"RT":253,"MT":661,"sideResp":1,"stimulus":[],"xmouse":[764,764,764,764,764,764,764,764,764,760,754,744,734,717,705,703,696,690,673,655,626,584,551,531,520,520,520,520,517,511,505,498,491,486,486,486,486,486,486,486,486,486,486,486,482,473],"ymouse":[557,557,557,557,557,557,557,557,557,555,549,541,534,518,502,499,491,484,461,440,416,387,364,350,337,329,321,310,283,266,253,236,222,204,196,181,170,161,145,140,137,136,133,129,108,88],"timestamp_mouse":[16,42,54,73,94,112,134,153,173,194,214,234,253,274,293,313,334,354,374,393,413,434,452,474,493,513,532,552,574,592,613,633,653,675,693,713,733,754,774,793,813,833,852,874,892,913],"xSR":741.5,"ySR":501.8,"xT1":424.9,"yT1":0,"xT2":1058.1,"yT2":0,"toosoon":0,"cond_shown":"Incongruent","ratio_trial":200,"L_num":4,"L_den":6,"R_num":14,"R_den":30,"correct_side":1,"subjID":"Alejandra Caycedo Moreno 24","gender":null,"school":null,"age":null},{"start_time":1552074753766,"click_time":1552074754867,"finger_time":1552074754267,"fix_duration":1418.619116372912,"trial":17,"RT":501,"MT":600,"sideResp":2,"stimulus":[],"xmouse":[790,790,790,789,789,789,789,789,789,789,789,789,789,789,789,789,789,791,792,794,797,799,803,816,824,853,865,876,886,894,910,918,924,934,941,954,960,967,974,988,1025,1045,1063,1082,1093,1108,1112,1115,1116,1116,1116,1116,1117,1118,1119,1119],"ymouse":[536,536,536,536,536,536,536,536,536,536,536,536,536,536,536,536,536,533,532,529,526,525,521,509,502,468,450,433,414,399,371,362,353,338,331,321,316,311,302,286,242,214,190,161,146,125,119,115,114,114,114,114,113,109,102,92],"timestamp_mouse":[11,37,42,61,81,101,122,141,162,181,202,222,242,261,281,302,322,341,361,382,401,421,442,462,481,500,521,541,561,581,602,621,642,661,682,701,721,742,761,781,801,820,842,861,881,902,921,941,961,982,1001,1022,1041,1062,1082,1101],"xSR":741.5,"ySR":501.8,"xT1":424.9,"yT1":0,"xT2":1058.1,"yT2":0,"toosoon":0,"cond_shown":"Congruent","ratio_trial":200,"L_num":6,"L_den":12,"R_num":7,"R_den":10,"correct_side":2,"subjID":"Alejandra Caycedo Moreno 24","gender":null,"school":null,"age":null},{"start_time":1552074758291,"click_time":1552074759786,"finger_time":1552074758707,"fix_duration":402.51387497797117,"trial":18,"RT":416,"MT":1079,"sideResp":1,"stimulus":[],"xmouse":[798,798,798,798,798,798,798,797,796,795,794,794,792,790,789,787,786,783,777,770,759,746,728,692,678,670,659,648,640,639,639,637,636,625,608,595,584,567,540,537,535,528,518,508,508,508,508,508,508,508,508,507,507,507,507,507,507,507,507,507,507,507,507,507,504,504,504,504,504,504,504,504,504,504,492],"ymouse":[568,568,568,568,568,565,564,562,561,558,558,555,553,546,543,537,534,528,515,504,489,473,455,426,411,400,385,373,359,355,351,348,346,318,291,268,246,220,180,168,158,147,133,120,120,120,120,120,117,114,111,109,108,108,108,108,108,108,108,108,108,108,108,108,100,100,100,100,100,100,100,100,100,100,74],"timestamp_mouse":[16,45,56,77,97,117,136,156,176,197,216,236,256,277,296,316,335,357,377,397,416,437,456,477,496,517,536,556,577,596,615,636,656,678,696,716,736,756,777,796,817,836,857,877,896,917,936,957,978,996,1016,1035,1056,1077,1097,1116,1137,1156,1176,1195,1216,1237,1257,1276,1296,1316,1337,1357,1376,1397,1416,1436,1457,1476,1495],"xSR":741.5,"ySR":501.8,"xT1":424.9,"yT1":0,"xT2":1058.1,"yT2":0,"toosoon":0,"cond_shown":"Congruent","ratio_trial":100,"L_num":2,"L_den":5,"R_num":6,"R_den":12,"correct_side":2,"subjID":"Alejandra Caycedo Moreno 24","gender":null,"school":null,"age":null},{"start_time":1552074761903,"click_time":1552074762888,"finger_time":1552074762327,"fix_duration":915.922312954543,"trial":19,"RT":424,"MT":561,"sideResp":2,"stimulus":[],"xmouse":[794,792,792,791,788,787,786,786,786,786,786,786,786,786,786,786,786,786,786,789,799,807,814,822,842,854,864,872,882,896,900,906,911,920,934,942,951,958,968,988,998,1009,1014,1029,1038,1040,1041,1042,1043,1068],"ymouse":[523,521,521,519,516,514,513,513,513,513,513,513,513,513,513,513,513,513,513,509,505,500,494,482,455,437,415,390,364,308,282,258,237,214,185,170,152,135,117,84,70,55,50,39,34,33,33,33,33,38],"timestamp_mouse":[4,42,43,65,85,103,125,144,164,184,205,224,245,264,285,304,325,345,365,384,404,424,444,465,484,505,524,544,564,584,604,624,645,664,684,704,725,743,765,784,804,824,844,865,884,904,925,944,964,985],"xSR":741.5,"ySR":501.8,"xT1":424.9,"yT1":0,"xT2":1058.1,"yT2":0,"toosoon":0,"cond_shown":"Incongruent","ratio_trial":300,"L_num":8,"L_den":10,"R_num":14,"R_den":28,"correct_side":1,"subjID":"Alejandra Caycedo Moreno 24","gender":null,"school":null,"age":null},{"start_time":1552074768858,"click_time":1552074769368,"finger_time":1552074769128,"fix_duration":250,"trial":20,"RT":270,"MT":240,"sideResp":2,"stimulus":[],"xmouse":[817,817,817,817,817,817,817,817,817,817,818,822,835,847,865,886,911,994,1036,1062,1082,1093,1109,1114,1117,1117],"ymouse":[584,584,584,582,582,582,582,582,582,581,580,577,569,562,555,544,534,486,451,415,369,311,161,129,106,98],"timestamp_mouse":[11,39,49,69,88,110,129,150,170,189,209,230,250,270,290,309,329,350,370,389,410,429,449,468,489,510],"xSR":741.5,"ySR":501.8,"xT1":424.9,"yT1":0,"xT2":1058.1,"yT2":0,"toosoon":0,"cond_shown":"Congruent","ratio_trial":200,"L_num":3,"L_den":10,"R_num":7,"R_den":14,"correct_side":2,"subjID":"Alejandra Caycedo Moreno 24","gender":null,"school":null,"age":null},{"start_time":1552074771399,"click_time":1552074773788,"finger_time":1552074771668,"fix_duration":250,"trial":21,"RT":269,"MT":2120,"sideResp":2,"stimulus":[],"xmouse":[785,785,785,785,783,779,777,777,776,775,772,767,751,732,707,579,475,384,334,308,276,275,278,281,281,336,472,668,859,1004,1181,1236,1299,1331,1358,1381,1387,1395,1400,1405,1411,1412,1412,1412,1412,1401,1394,1387,1368,1322,1132,1025,947,834,770,728,720,708,692,664,544,471,424,408,408,407,406,406,409,409,379,328,252,240,240,240,240,250,277,329,444,476,493,503,512,556,618,678,733,762,782,782,782,782,782,782,782,782,877,934,1034,1082,1157,1198,1230,1283,1297,1308,1313,1313,1313,1310,1310,1310,1310,1310,1310,1310,1167,1138],"ymouse":[531,531,531,531,532,534,535,536,537,537,538,539,539,539,535,484,429,378,340,297,173,139,126,120,120,118,123,143,166,180,184,184,184,183,174,148,136,124,119,113,104,99,93,89,86,84,84,84,86,94,121,143,162,191,206,224,229,232,235,239,255,265,273,278,278,277,257,229,191,162,119,96,77,76,76,76,76,85,98,114,130,130,128,121,117,107,98,90,74,58,10,10,10,10,10,10,10,10,8,56,133,151,162,157,141,97,79,62,48,38,15,4,4,4,4,4,4,4,42,67],"timestamp_mouse":[12,33,48,68,89,107,128,148,167,189,208,228,248,269,288,307,328,348,369,388,408,428,449,468,489,508,528,548,567,589,608,627,648,667,689,707,728,747,768,789,808,828,849,869,888,908,929,949,969,989,1009,1027,1048,1068,1089,1108,1129,1148,1169,1187,1209,1227,1248,1268,1289,1308,1328,1349,1369,1402,1408,1428,1448,1469,1488,1508,1528,1549,1569,1589,1608,1628,1649,1668,1689,1707,1728,1747,1769,1788,1808,1829,1848,1869,1887,1908,1929,1948,1968,1989,2008,2028,2048,2067,2089,2108,2128,2149,2168,2189,2208,2229,2249,2267,2288,2308,2328,2348,2369,2389],"xSR":741.5,"ySR":501.8,"xT1":424.9,"yT1":0,"xT2":1058.1,"yT2":0,"toosoon":0,"cond_shown":"Incongruent","ratio_trial":100,"L_num":3,"L_den":6,"R_num":4,"R_den":10,"correct_side":1,"subjID":"Alejandra Caycedo Moreno 24","gender":null,"school":null,"age":null},{"start_time":1552074778897,"click_time":1552074779669,"finger_time":1552074779227,"fix_duration":1446.6480026383595,"trial":22,"RT":330,"MT":442,"sideResp":2,"stimulus":[],"xmouse":[764,764,764,764,764,764,764,764,764,764,764,764,764,764,764,764,720,594,391,143,0,0,0,0,0,0,0,4,20,46,96,237,327,423,524,676,850,961,1114],"ymouse":[552,552,552,552,552,552,552,552,552,552,552,552,552,552,552,552,543,514,482,443,406,349,300,235,184,129,82,72,66,63,66,86,98,107,107,93,78,78,78],"timestamp_mouse":[15,46,52,72,90,111,131,151,172,190,211,232,251,272,292,310,330,352,371,391,411,431,452,470,491,510,531,550,571,591,610,631,650,670,692,711,730,751,772],"xSR":741.5,"ySR":501.8,"xT1":424.9,"yT1":0,"xT2":1058.1,"yT2":0,"toosoon":0,"cond_shown":"Congruent","ratio_trial":200,"L_num":15,"L_den":25,"R_num":4,"R_den":10,"correct_side":1,"subjID":"Alejandra Caycedo Moreno 24","gender":null,"school":null,"age":null},{"start_time":1552074782321,"click_time":1552074783609,"finger_time":1552074783248,"fix_duration":372.7972345152883,"trial":23,"RT":927,"MT":361,"sideResp":2,"stimulus":[],"xmouse":[753,753,753,753,753,753,753,753,753,755,758,758,758,758,758,758,758,758,758,758,758,758,758,758,758,758,758,758,758,758,758,758,758,758,758,758,758,758,758,758,758,758,763,777,795,838,859,883,919,948,989,1002,1019,1028,1039,1061,1074,1085,1093,1102,1109,1122,1131,1137,1145],"ymouse":[554,554,554,554,554,554,554,554,554,553,553,553,553,553,553,553,553,553,553,553,553,553,553,553,553,553,553,553,553,553,553,553,553,553,553,553,553,553,553,553,553,553,552,550,546,533,517,495,458,419,365,350,336,330,322,304,294,278,262,242,222,176,142,118,98],"timestamp_mouse":[15,37,46,68,86,107,128,148,167,187,207,228,247,268,287,307,328,347,367,387,406,428,447,468,487,507,527,547,568,587,607,628,648,668,687,707,726,748,766,788,807,828,846,868,888,907,927,947,967,987,1009,1026,1048,1067,1088,1108,1127,1147,1168,1188,1208,1226,1247,1268,1288],"xSR":741.5,"ySR":501.8,"xT1":424.9,"yT1":0,"xT2":1058.1,"yT2":0,"toosoon":0,"cond_shown":"Incongruent","ratio_trial":200,"L_num":3,"L_den":4,"R_num":11,"R_den":20,"correct_side":1,"subjID":"Alejandra Caycedo Moreno 24","gender":null,"school":null,"age":null},{"start_time":1552074785478,"click_time":1552074787088,"finger_time":1552074785948,"fix_duration":387.8267784315438,"trial":24,"RT":470,"MT":1140,"sideResp":2,"stimulus":[],"xmouse":[796,796,796,796,796,796,796,796,796,796,796,796,794,787,784,783,781,775,768,762,757,749,742,727,717,703,681,577,477,331,150,0,0,0,0,0,0,0,0,1,2,2,0,0,0,5,9,16,34,72,170,214,500,642,772,882,952,1002,1010,1018,1027,1036,1048,1051,1051,1051,1051,1170,1190,1203,1216,1223,1225,1225,1225,1225,1225,1225,1225,1203,1109],"ymouse":[600,600,600,600,600,600,600,600,600,600,600,596,592,582,578,578,577,572,569,567,566,564,563,562,562,562,561,545,532,509,482,458,446,435,434,428,422,407,399,389,375,358,322,272,252,239,234,233,238,248,260,260,248,219,183,138,108,62,46,35,22,13,1,0,0,0,0,1,10,14,19,21,22,22,22,22,22,22,22,22,22],"timestamp_mouse":[10,36,50,71,90,110,131,150,171,190,209,231,250,270,290,311,330,351,370,389,409,429,449,470,491,509,530,551,571,590,610,631,650,671,690,711,729,752,769,791,811,831,850,870,890,910,930,952,970,990,1010,1031,1051,1069,1091,1110,1130,1152,1171,1189,1210,1230,1249,1271,1290,1310,1330,1350,1370,1389,1410,1430,1451,1469,1489,1509,1530,1550,1570,1591,1610],"xSR":741.5,"ySR":501.8,"xT1":424.9,"yT1":0,"xT2":1058.1,"yT2":0,"toosoon":0,"cond_shown":"Incongruent","ratio_trial":100,"L_num":10,"L_den":25,"R_num":8,"R_den":16,"correct_side":2,"subjID":"Alejandra Caycedo Moreno 24","gender":null,"school":null,"age":null},{"start_time":1552074789643,"click_time":1552074791549,"finger_time":1552074789708,"fix_duration":1193.2841618789719,"trial":25,"RT":65,"MT":1841,"sideResp":2,"stimulus":[],"xmouse":[777,769,755,732,710,707,707,707,707,707,707,706,704,704,704,704,704,702,700,684,572,486,391,263,197,149,143,143,143,143,143,143,143,143,143,143,143,143,143,143,143,143,143,143,143,143,143,143,143,143,143,143,143,143,143,96,93,92,92,93,111,188,280,403,557,923,1118,1300,1459,1459,1459,1459,1459,1459,1459,1459,1459,1459,1459,1459,1459,1459,1459,1459,1459,1459,1459,1459,1459,1459,1459,1459,1459,1459,1459,1065],"ymouse":[566,564,560,554,548,546,546,546,546,546,546,546,546,546,546,546,546,546,546,534,467,414,345,236,158,48,13,13,13,13,13,13,13,13,13,13,13,13,13,13,13,13,13,13,13,13,13,13,13,13,13,13,13,13,13,2,5,8,11,14,18,36,61,92,113,129,129,117,93,93,93,93,93,93,93,93,93,93,93,93,93,93,93,93,93,93,93,93,93,93,93,93,93,93,93,6],"timestamp_mouse":[5,27,45,65,85,105,125,144,164,186,206,225,245,265,284,305,325,346,366,386,405,425,445,465,485,505,525,544,565,586,606,625,646,664,685,705,725,746,765,784,805,824,845,864,885,905,925,945,965,984,1005,1024,1045,1065,1085,1105,1124,1145,1165,1184,1205,1226,1245,1265,1284,1305,1325,1346,1366,1386,1405,1425,1445,1466,1485,1504,1524,1544,1565,1585,1605,1625,1645,1666,1686,1706,1726,1745,1766,1785,1805,1824,1845,1865,1885,1906],"xSR":741.5,"ySR":501.8,"xT1":424.9,"yT1":0,"xT2":1058.1,"yT2":0,"toosoon":0,"cond_shown":"Incongruent","ratio_trial":300,"L_num":4,"L_den":20,"R_num":2,"R_den":4,"correct_side":2,"subjID":"Alejandra Caycedo Moreno 24","gender":null,"school":null,"age":null},{"start_time":1552074793361,"click_time":1552074793808,"finger_time":1552074793568,"fix_duration":250,"trial":26,"RT":207,"MT":240,"sideResp":1,"stimulus":[],"xmouse":[776,776,776,776,776,776,776,776,773,752,735,721,713,709,706,681,646,580,502,403,395,413,425],"ymouse":[541,541,541,541,541,541,541,541,541,541,541,541,541,541,539,517,483,408,309,114,57,18,5],"timestamp_mouse":[13,39,48,68,87,108,126,146,167,187,207,227,248,267,288,307,327,347,367,389,407,427,446],"xSR":741.5,"ySR":501.8,"xT1":424.9,"yT1":0,"xT2":1058.1,"yT2":0,"toosoon":0,"cond_shown":"Incongruent","ratio_trial":200,"L_num":1,"L_den":2,"R_num":3,"R_den":10,"correct_side":1,"subjID":"Alejandra Caycedo Moreno 24","gender":null,"school":null,"age":null},{"start_time":1552074805605,"click_time":1552074807708,"finger_time":1552074806088,"fix_duration":1014.6952702349802,"trial":27,"RT":483,"MT":1620,"sideResp":2,"stimulus":[],"xmouse":[789,789,789,789,789,789,789,789,789,789,789,789,789,789,789,789,789,789,789,789,790,797,805,814,852,899,983,1076,1172,1331,1331,1331,1331,1331,1331,1331,1331,1331,1331,1331,958,735,531,355,220,214,209,193,171,114,83,55,31,13,4,4,4,5,17,91,154,209,246,260,264,266,266,266,263,255,255,255,259,264,282,304,344,460,544,695,730,746,753,753,753,753,753,753,753,753,753,903,976,995,1029,1052,1062,1092,1108,1114,1117,1123,1129,1138,1150,1153],"ymouse":[562,562,562,562,562,562,561,561,561,561,561,561,561,561,561,561,561,561,561,561,559,551,544,537,519,492,439,362,261,34,34,34,34,34,34,34,34,34,34,34,58,144,231,317,425,459,487,513,525,550,559,563,564,564,564,564,564,561,546,494,453,412,377,344,298,274,246,220,209,197,197,197,197,197,197,198,203,208,208,158,108,51,22,22,22,22,22,22,22,22,22,10,64,90,139,166,174,190,195,195,192,179,166,148,112,95],"timestamp_mouse":[4,38,43,63,83,103,124,143,163,183,203,223,244,263,283,303,322,342,364,382,402,423,444,463,483,503,522,543,564,583,603,624,644,663,683,704,722,743,762,784,803,824,843,864,883,903,923,944,963,982,1003,1023,1044,1063,1082,1102,1123,1143,1163,1182,1204,1224,1243,1263,1284,1304,1324,1343,1362,1382,1404,1424,1442,1463,1483,1503,1522,1542,1562,1583,1603,1623,1643,1663,1683,1702,1723,1744,1763,1783,1803,1824,1843,1863,1882,1904,1923,1943,1963,1983,2002,2023,2043,2062,2083,2103],"xSR":741.5,"ySR":501.8,"xT1":424.9,"yT1":0,"xT2":1058.1,"yT2":0,"toosoon":0,"cond_shown":"Incongruent","ratio_trial":300,"L_num":13,"L_den":26,"R_num":12,"R_den":15,"correct_side":2,"subjID":"Alejandra Caycedo Moreno 24","gender":null,"school":null,"age":null},{"start_time":1552074810120,"click_time":1552074818810,"finger_time":1552074810948,"fix_duration":870.1462020029866,"trial":28,"RT":828,"MT":7862,"sideResp":2,"stimulus":[],"xmouse":[806,806,806,806,806,806,806,806,806,806,806,806,806,806,806,805,805,804,804,803,803,803,803,803,803,803,803,803,803,803,803,803,803,803,803,803,803,803,804,813,819,827,833,841,843,845,849,851,851,851,851,851,851,851,848,844,842,841,841,841,840,840,839,837,833,829,824,820,819,816,816,816,813,812,812,812,812,812,812,812,812,812,811,808,804,802,801,800,798,786,776,767,758,750,746,743,739,736,727,724,720,717,715,711,709,706,704,703,702,701,700,699,699,697,696,696,696,693,689,688,688,688,688,688,687,687,685,684,683,683,683,683,683,683,683,683,683,683,683,680,680,680,680,680,680,680,679,679,677,671,666,662,659,658,658,658,658,658,658,658,658,658,658,658,658,658,658,660,661,662,662,662,662,662,662,662,662,662,663,664,664,664,664,664,664,664,664,664,665,665,665,665,665,665,665,665,665,665,665,665,665,665,665,665,665,665,665,665,665,665,665,665,665,665,665,665,665,665,665,668,672,674,677,679,680,680,680,680,680,680,680,680,680,680,680,680,680,680,680,680,680,680,680,680,680,680,680,680,680,677,677,677,677,677,677,677,677,677,677,677,677,677,677,677,677,677,677,677,677,677,677,677,677,676,664,651,634,631,625,624,623,623,623,623,623,623,623,623,623,621,619,617,616,615,615,615,615,615,613,611,611,603,590,580,575,575,575,575,575,575,575,575,575,575,575,575,575,575,575,575,575,575,575,578,595,611,630,642,648,658,665,670,677,687,689,689,689,689,689,688,680,674,673,673,678,688,691,703,710,714,715,718,722,726,732,734,735,736,738,738,739,739,740,741,748,754,756,761,761,761,761,762,763,764,767,767,768,768,769,770,772,776,781,785,803,815,830,836,842,860,871,882,896,914,956,984,1004,1022,1036,1051,1054,1057,1060,1068,1085,1098,1118,1132,1145,1155,1171,1181,1199,1227,1321,1385,1403,1411,1416,1423,1426,1428,1428,1428,1419,1396,1363,1324,1291,1252,1242,1230,1217,1187,1086],"ymouse":[514,514,514,514,514,514,514,514,514,514,515,515,515,515,515,518,520,521,522,524,524,525,526,526,526,526,526,526,526,526,526,526,526,526,526,526,526,526,526,518,510,499,489,459,440,413,382,345,298,284,282,280,280,274,267,258,252,249,249,249,249,249,249,249,249,249,249,249,249,249,249,249,249,249,249,249,249,249,249,249,249,249,249,249,249,249,249,249,249,258,264,272,279,289,293,297,301,305,322,329,335,341,344,351,353,357,359,360,361,361,361,361,361,361,361,361,361,360,351,350,350,350,350,350,349,349,349,349,349,349,349,349,349,349,349,349,349,349,349,349,349,349,349,349,349,349,349,349,349,344,339,334,330,328,328,328,331,340,350,365,369,371,371,371,371,372,372,373,373,373,373,373,373,373,373,373,373,373,373,373,373,373,373,373,373,373,373,373,374,374,374,374,374,374,374,374,374,374,374,374,374,374,375,375,375,375,375,375,375,375,375,375,375,375,375,375,375,375,375,373,366,359,350,342,325,319,316,315,315,315,315,315,315,315,315,315,315,315,315,315,315,314,313,313,313,313,313,311,305,294,293,293,293,293,293,293,293,293,293,293,293,293,293,293,293,293,293,293,293,293,293,293,293,292,292,292,292,294,297,300,301,301,301,301,301,301,301,301,303,306,310,312,314,314,314,314,314,314,314,314,314,314,317,320,321,321,321,321,321,321,322,324,327,328,331,331,331,331,331,332,332,332,332,345,367,382,393,403,406,410,413,414,417,420,422,422,422,422,422,423,427,433,443,458,494,521,528,546,552,553,552,541,532,521,513,513,513,513,514,517,524,526,531,539,567,582,584,589,589,589,589,585,582,580,575,574,574,574,574,574,574,574,574,574,575,576,576,576,572,557,544,529,514,499,467,445,428,413,399,381,375,371,366,358,339,326,302,286,274,266,255,247,238,226,188,156,143,134,124,101,89,76,64,54,32,20,11,9,9,9,10,15,22,37,88],"timestamp_mouse":[11,42,49,69,87,107,129,148,168,188,209,228,249,269,288,308,328,349,368,389,408,428,448,468,489,508,528,549,568,589,608,627,649,668,689,707,728,749,768,789,807,828,848,869,888,909,928,947,970,987,1007,1029,1047,1069,1088,1108,1128,1148,1169,1188,1208,1229,1248,1269,1288,1309,1328,1348,1368,1389,1408,1428,1449,1469,1488,1507,1527,1549,1568,1588,1608,1629,1648,1670,1688,1708,1728,1748,1769,1788,1808,1829,1848,1870,1888,1909,1929,1948,1970,1988,2008,2028,2049,2070,2088,2109,2128,2149,2169,2189,2207,2229,2247,2268,2288,2308,2328,2348,2370,2388,2408,2428,2447,2469,2488,2509,2529,2548,2569,2588,2608,2629,2649,2669,2689,2708,2728,2748,2769,2787,2809,2829,2849,2869,2889,2909,2928,2949,2968,2988,3008,3028,3049,3068,3088,3108,3128,3147,3167,3187,3208,3228,3249,3268,3288,3309,3328,3348,3368,3388,3408,3428,3449,3467,3487,3509,3529,3549,3568,3588,3609,3628,3647,3668,3689,3708,3727,3748,3768,3789,3808,3828,3849,3868,3887,3908,3928,3949,3969,3988,4009,4029,4047,4069,4088,4109,4128,4148,4168,4188,4209,4229,4249,4268,4288,4308,4329,4348,4368,4388,4408,4429,4448,4467,4488,4509,4527,4549,4568,4588,4608,4628,4649,4669,4688,4708,4728,4749,4769,4787,4807,4828,4848,4868,4888,4908,4928,4949,4969,4988,5009,5029,5048,5068,5088,5109,5129,5149,5168,5188,5208,5229,5249,5268,5288,5308,5328,5348,5367,5388,5409,5429,5448,5469,5488,5508,5528,5549,5568,5588,5608,5628,5649,5667,5688,5708,5729,5749,5768,5788,5808,5829,5848,5868,5888,5908,5928,5948,5968,5988,6007,6028,6048,6069,6088,6109,6128,6148,6168,6188,6207,6227,6247,6268,6288,6307,6328,6349,6368,6389,6409,6428,6448,6469,6489,6509,6528,6547,6568,6588,6608,6628,6648,6669,6688,6708,6728,6748,6768,6788,6807,6828,6848,6868,6888,6908,6927,6947,6967,6988,7008,7027,7048,7069,7088,7109,7128,7148,7168,7188,7208,7229,7248,7268,7289,7308,7327,7348,7369,7389,7407,7428,7448,7467,7488,7508,7529,7549,7568,7588,7608,7628,7648,7668,7688,7708,7728,7747,7768,7788,7808,7828,7848,7867,7887,7908,7928,7948,7968,7989,8008,8028,8047,8068,8089,8107,8129,8149,8169,8188,8208,8229,8248,8267,8289,8308,8328,8349,8368,8389,8408,8427,8447,8468,8489,8508,8528,8548,8569,8589,8608,8628,8648,8667,8689],"xSR":741.5,"ySR":501.8,"xT1":424.9,"yT1":0,"xT2":1058.1,"yT2":0,"toosoon":0,"cond_shown":"Incongruent","ratio_trial":200,"L_num":11,"L_den":20,"R_num":3,"R_den":4,"correct_side":2,"subjID":"Alejandra Caycedo Moreno 24","gender":null,"school":null,"age":null},{"start_time":1552074827683,"click_time":1552074829509,"finger_time":1552074828368,"fix_duration":393.6926461725736,"trial":29,"RT":685,"MT":1141,"sideResp":1,"stimulus":[],"xmouse":[795,795,798,802,803,803,803,803,803,803,803,803,803,803,803,803,803,803,803,804,804,804,804,804,804,804,804,804,804,805,807,809,811,813,813,814,817,826,831,838,846,857,894,969,1038,1109,1150,1197,1219,1219,1219,1219,1219,1219,1219,1219,1219,1219,1219,1219,1219,1219,1219,941,893,857,837,821,812,807,799,785,723,696,673,656,641,621,550,524,510,508,508,508,508,508,508,508,508,508,512,512],"ymouse":[542,542,542,542,542,542,542,542,542,542,542,542,542,542,542,542,542,542,542,542,542,541,540,536,534,533,531,527,527,525,523,519,516,506,496,481,468,446,441,433,427,422,400,365,325,276,230,100,31,31,31,31,31,31,31,31,31,31,31,31,31,31,31,74,113,161,200,247,262,267,268,268,261,256,253,248,242,234,205,193,188,187,187,185,181,178,172,159,148,133,115,90],"timestamp_mouse":[15,25,45,66,85,106,126,145,165,186,205,226,245,266,286,306,325,345,365,385,405,425,445,465,485,505,525,545,565,586,605,624,646,666,685,704,725,746,765,785,806,825,845,865,884,904,925,946,965,985,1004,1025,1045,1065,1086,1104,1126,1146,1166,1186,1205,1225,1246,1265,1285,1306,1325,1348,1365,1385,1405,1425,1448,1465,1485,1505,1525,1545,1565,1586,1605,1624,1645,1664,1685,1705,1726,1747,1764,1786,1805,1826],"xSR":741.5,"ySR":501.8,"xT1":424.9,"yT1":0,"xT2":1058.1,"yT2":0,"toosoon":0,"cond_shown":"Incongruent","ratio_trial":100,"L_num":6,"L_den":10,"R_num":7,"R_den":14,"correct_side":1,"subjID":"Alejandra Caycedo Moreno 24","gender":null,"school":null,"age":null},{"start_time":1552074837951,"click_time":1552074839169,"finger_time":1552074838669,"fix_duration":499.32510579720577,"trial":30,"RT":718,"MT":500,"sideResp":2,"stimulus":[],"xmouse":[763,763,763,763,763,763,763,763,763,763,763,763,763,763,763,763,763,763,763,763,763,763,763,763,763,763,763,763,763,763,763,763,763,763,763,770,860,928,990,1041,1167,1232,1296,1358,1403,1430,1463,1463,1461,1446,1411,1411,1411,1411,1411,1411,1411,1411,1411,1411,1411,1077],"ymouse":[570,570,570,570,570,570,570,570,570,570,570,570,570,570,570,570,570,570,570,570,570,570,570,570,570,570,570,570,570,570,570,570,570,570,570,570,570,570,565,553,499,471,446,408,368,323,182,146,111,73,17,17,17,17,17,17,17,17,17,17,17,3],"timestamp_mouse":[1,18,38,58,77,97,119,137,159,178,197,218,238,257,279,298,319,337,359,377,397,417,438,458,479,498,519,539,558,578,598,619,637,657,678,698,718,738,757,777,799,817,838,858,877,898,917,937,957,977,999,1017,1039,1058,1077,1098,1119,1138,1158,1177,1199,1217],"xSR":741.5,"ySR":501.8,"xT1":424.9,"yT1":0,"xT2":1058.1,"yT2":0,"toosoon":0,"cond_shown":"Incongruent","ratio_trial":200,"L_num":7,"L_den":10,"R_num":12,"R_den":24,"correct_side":1,"subjID":"Alejandra Caycedo Moreno 24","gender":null,"school":null,"age":null},{"start_time":1552074843421,"click_time":1552074844949,"finger_time":1552074843768,"fix_duration":250,"trial":31,"RT":347,"MT":1181,"sideResp":1,"stimulus":[],"xmouse":[792,792,792,792,792,792,792,792,791,790,789,789,788,787,786,785,780,737,687,607,565,537,512,504,499,495,495,495,495,496,497,497,497,497,497,495,492,485,467,451,436,421,409,392,377,359,342,321,274,200,126,44,0,0,0,0,0,0,6,14,23,38,63,116,138,155,163,172,174,179,187,198,246,284,336,389,434],"ymouse":[540,540,540,540,540,540,540,540,543,544,544,544,544,544,544,544,544,514,477,418,378,341,290,272,259,249,243,235,212,202,196,190,184,181,177,172,167,161,152,146,141,136,133,126,122,119,116,113,107,97,82,70,50,48,48,48,48,48,47,47,47,48,55,69,75,77,78,78,78,77,75,71,66,66,66,64,60],"timestamp_mouse":[13,36,47,67,87,109,128,147,167,188,208,227,248,268,289,309,328,347,368,389,409,428,448,468,488,508,528,548,567,587,609,628,647,668,687,707,728,748,769,787,807,828,848,867,888,907,927,948,968,987,1009,1028,1048,1067,1088,1108,1128,1147,1167,1187,1207,1228,1248,1267,1288,1307,1328,1348,1368,1387,1407,1428,1448,1467,1488,1508,1528],"xSR":741.5,"ySR":501.8,"xT1":424.9,"yT1":0,"xT2":1058.1,"yT2":0,"toosoon":0,"cond_shown":"Incongruent","ratio_trial":200,"L_num":14,"L_den":30,"R_num":6,"R_den":9,"correct_side":2,"subjID":"Alejandra Caycedo Moreno 24","gender":null,"school":null,"age":null},{"start_time":1552074847225,"click_time":1552074848029,"finger_time":1552074847288,"fix_duration":453.8039617818912,"trial":32,"RT":63,"MT":741,"sideResp":1,"stimulus":[],"xmouse":[796,816,816,1017,1133,1258,1382,1522,1565,1565,1565,1565,1565,1565,1565,1582,1566,1559,1497,1423,1363,1287,1051,889,764,681,641,629,643,646,646,646,646,646,646,646,646,641,595,548,478],"ymouse":[558,565,565,593,605,607,607,589,570,570,570,570,570,570,570,176,146,140,106,95,94,102,138,164,203,253,301,342,402,410,412,412,412,412,407,391,374,341,212,117,29],"timestamp_mouse":[4,38,43,63,83,103,124,144,163,184,203,223,245,264,284,303,323,343,363,384,404,424,446,463,483,504,523,543,563,583,604,624,645,665,683,703,724,744,764,784,804],"xSR":741.5,"ySR":501.8,"xT1":424.9,"yT1":0,"xT2":1058.1,"yT2":0,"toosoon":0,"cond_shown":"Incongruent","ratio_trial":200,"L_num":7,"L_den":10,"R_num":8,"R_den":16,"correct_side":1,"subjID":"Alejandra Caycedo Moreno 24","gender":null,"school":null,"age":null},{"start_time":1552074852570,"click_time":1552074854669,"finger_time":1552074852989,"fix_duration":1481.8844976488992,"trial":33,"RT":419,"MT":1680,"sideResp":2,"stimulus":[],"xmouse":[795,795,794,794,794,794,794,794,794,794,794,794,794,794,794,794,794,796,808,826,862,875,885,900,921,1003,1078,1122,1168,1203,1251,1267,1272,1276,1276,1273,1267,1232,1232,1232,1232,1232,1232,1232,1232,1232,968,926,900,895,895,904,905,905,905,898,884,865,840,810,778,689,625,544,421,150,0,0,0,0,0,0,0,2,11,157,346,505,676,814,996,1009,1010,1009,1009,1009,1009,1010,1010,1010,1010,1008,1004,1002,1002,1004,1023,1025,1025,1025,1026,1031,1039,1051,1075],"ymouse":[529,529,530,530,530,530,530,530,530,530,530,530,530,530,530,530,530,530,527,522,510,506,504,503,500,490,473,452,420,384,280,225,190,164,142,103,77,4,4,4,4,4,4,4,4,4,128,230,338,431,491,535,537,537,537,522,503,486,462,435,409,342,305,255,207,120,90,83,81,81,81,81,81,81,81,114,146,159,168,172,167,162,160,153,150,142,139,137,136,135,132,129,123,116,107,87,53,50,50,50,49,49,49,56,70],"timestamp_mouse":[19,38,59,79,100,120,139,158,178,198,218,240,258,279,300,318,338,359,378,400,419,439,458,479,499,519,539,558,579,599,619,638,658,678,698,720,739,759,779,800,819,839,858,879,898,920,940,958,978,999,1019,1038,1058,1080,1100,1120,1140,1159,1178,1199,1219,1238,1260,1279,1300,1320,1338,1359,1379,1400,1419,1439,1459,1478,1499,1520,1538,1558,1580,1599,1620,1638,1660,1679,1698,1718,1739,1760,1779,1800,1819,1838,1859,1878,1899,1919,1939,1959,1979,1998,2018,2039,2059,2079,2098],"xSR":741.5,"ySR":501.8,"xT1":424.9,"yT1":0,"xT2":1058.1,"yT2":0,"toosoon":0,"cond_shown":"Congruent","ratio_trial":100,"L_num":3,"L_den":6,"R_num":2,"R_den":5,"correct_side":1,"subjID":"Alejandra Caycedo Moreno 24","gender":null,"school":null,"age":null},{"start_time":1552074858925,"click_time":1552074860368,"finger_time":1552074859508,"fix_duration":395.60132203603473,"trial":34,"RT":583,"MT":860,"sideResp":1,"stimulus":[],"xmouse":[790,792,792,792,792,792,792,792,792,792,792,792,792,792,792,792,792,792,792,792,792,792,792,792,792,792,792,786,777,689,624,553,496,461,441,441,440,439,439,438,438,438,438,440,444,445,445,445,443,433,426,421,418,416,414,414,414,414,414,416,421,429,438,450,472,478,482,482,482,483,484,484,484],"ymouse":[542,542,542,542,542,542,542,542,542,542,542,542,542,542,542,542,542,542,542,542,542,542,542,542,542,542,542,542,540,509,488,467,451,440,429,425,418,410,407,400,395,391,386,380,368,361,352,346,336,319,311,303,298,295,291,283,274,259,244,222,213,204,200,193,177,166,149,140,132,116,110,103,96],"timestamp_mouse":[4,40,43,64,84,105,125,145,164,184,204,225,244,264,284,303,324,344,364,383,403,423,444,463,484,503,524,543,564,583,604,624,645,664,685,704,723,743,763,784,803,824,843,863,883,905,924,944,965,984,1003,1023,1043,1064,1084,1103,1123,1143,1163,1183,1204,1223,1243,1263,1284,1304,1323,1345,1364,1384,1403,1423,1443],"xSR":741.5,"ySR":501.8,"xT1":424.9,"yT1":0,"xT2":1058.1,"yT2":0,"toosoon":0,"cond_shown":"Incongruent","ratio_trial":300,"L_num":8,"L_den":10,"R_num":14,"R_den":28,"correct_side":1,"subjID":"Alejandra Caycedo Moreno 24","gender":null,"school":null,"age":null},{"start_time":1552074862116,"click_time":1552074863209,"finger_time":1552074862609,"fix_duration":484.8864148627431,"trial":35,"RT":493,"MT":600,"sideResp":2,"stimulus":[],"xmouse":[801,801,801,801,801,801,801,801,801,801,801,801,801,801,801,801,802,805,807,807,809,810,813,821,845,868,881,891,900,912,933,940,945,952,956,958,959,961,961,963,963,966,970,973,978,989,996,1001,1006,1013,1024,1031,1040,1051,1060],"ymouse":[550,550,550,550,550,550,550,550,550,550,550,550,550,550,550,550,550,549,549,549,549,549,549,541,515,495,480,460,436,407,368,354,344,330,309,295,286,279,268,250,241,232,223,213,205,186,177,169,163,152,118,102,82,62,48],"timestamp_mouse":[13,38,54,72,93,113,132,153,172,194,213,234,254,274,293,314,333,353,373,393,412,434,453,473,493,512,533,552,572,592,612,633,653,672,692,712,732,752,773,794,813,833,853,872,893,913,932,953,973,993,1012,1033,1053,1072,1092],"xSR":741.5,"ySR":501.8,"xT1":424.9,"yT1":0,"xT2":1058.1,"yT2":0,"toosoon":0,"cond_shown":"Congruent","ratio_trial":300,"L_num":4,"L_den":20,"R_num":13,"R_den":26,"correct_side":2,"subjID":"Alejandra Caycedo Moreno 24","gender":null,"school":null,"age":null},{"start_time":1552074865894,"click_time":1552074867248,"finger_time":1552074866410,"fix_duration":1144.6635998672962,"trial":36,"RT":516,"MT":838,"sideResp":2,"stimulus":[],"xmouse":[769,769,769,769,769,769,769,769,769,769,769,769,769,769,769,772,810,823,825,825,825,825,825,827,833,843,869,885,898,914,941,989,1000,1008,1013,1013,1013,1013,1013,1013,1013,1013,1013,1013,1013,1013,1013,1013,1013,1013,1013,1013,1013,1013,1013,1013,1013,1013,1013,1013,1013,1013,1013,1013,1013,1013,1058,1063],"ymouse":[564,564,564,564,564,564,564,564,564,564,564,564,564,564,564,564,550,543,540,535,530,525,522,517,507,494,470,455,438,407,350,227,181,122,7,7,7,7,7,7,7,7,7,7,7,7,7,7,7,7,7,7,7,7,7,7,7,7,7,7,7,7,7,7,7,7,7,15],"timestamp_mouse":[27,43,55,74,95,114,134,154,174,194,214,235,255,275,295,315,336,355,374,395,414,434,455,474,494,516,535,555,575,594,615,634,655,676,695,715,734,754,775,795,815,835,856,875,895,914,934,954,975,994,1016,1035,1055,1075,1095,1114,1134,1156,1176,1194,1214,1235,1254,1274,1294,1314,1334,1354],"xSR":741.5,"ySR":501.8,"xT1":424.9,"yT1":0,"xT2":1058.1,"yT2":0,"toosoon":0,"cond_shown":"Incongruent","ratio_trial":300,"L_num":1,"L_den":2,"R_num":3,"R_den":15,"correct_side":1,"subjID":"Alejandra Caycedo Moreno 24","gender":null,"school":null,"age":null},{"start_time":1552074870125,"click_time":1552074871230,"finger_time":1552074870569,"fix_duration":694.4435661104524,"trial":37,"RT":444,"MT":661,"sideResp":2,"stimulus":[],"xmouse":[764,764,764,764,764,764,764,764,764,764,764,764,764,764,764,764,764,764,764,764,763,762,762,762,761,762,765,767,769,771,771,771,771,770,770,769,769,769,769,769,769,775,786,798,818,873,910,934,957,976,1008,1030,1043,1054,1057,1060],"ymouse":[511,511,511,511,511,511,511,511,511,511,511,511,511,511,511,511,511,511,511,511,510,504,498,487,474,437,421,406,392,380,364,359,356,355,355,354,354,351,349,347,337,321,309,300,289,252,229,210,192,175,143,115,96,78,61,21],"timestamp_mouse":[14,35,44,64,84,103,124,145,165,183,203,223,245,264,283,305,324,344,364,383,404,423,444,464,485,504,524,543,563,585,605,623,643,663,684,704,724,743,764,783,804,823,844,863,883,904,923,944,964,983,1006,1023,1043,1064,1083,1104],"xSR":741.5,"ySR":501.8,"xT1":424.9,"yT1":0,"xT2":1058.1,"yT2":0,"toosoon":0,"cond_shown":"Congruent","ratio_trial":100,"L_num":11,"L_den":22,"R_num":6,"R_den":15,"correct_side":1,"subjID":"Alejandra Caycedo Moreno 24","gender":null,"school":null,"age":null},{"start_time":1552074874617,"click_time":1552074877028,"finger_time":1552074876208,"fix_duration":1487.09415463555,"trial":38,"RT":1591,"MT":820,"sideResp":1,"stimulus":[],"xmouse":[778,778,778,778,778,778,778,778,778,778,778,778,778,778,778,778,778,778,778,778,778,778,778,778,778,778,778,778,778,778,778,778,779,779,780,780,781,781,781,781,782,783,784,784,784,784,784,784,784,784,784,784,784,784,784,784,784,784,784,784,783,783,782,782,782,782,781,781,781,781,781,781,781,781,781,781,781,781,772,731,667,525,478,459,459,457,450,447,444,440,427,422,424,425,428,430,433,434,434,435,436,437,438,438,439,442,445,445,445,445,445,445,445,446,451,451,451,451,451,453,458],"ymouse":[528,528,528,528,528,528,528,528,528,528,528,528,528,528,528,528,528,528,528,528,528,528,528,528,527,527,527,527,527,527,527,527,526,526,526,525,522,520,518,516,515,511,510,509,508,508,508,508,508,508,508,508,508,508,507,507,507,507,507,507,507,507,507,507,507,507,507,507,508,508,510,510,511,512,512,512,512,513,513,501,489,454,446,441,441,439,418,403,377,334,281,216,198,195,189,186,185,185,185,184,183,182,181,180,178,175,167,167,167,167,151,127,118,116,112,112,112,112,112,110,99],"timestamp_mouse":[13,44,52,72,92,112,132,153,172,193,211,231,253,273,292,312,332,352,373,392,411,433,452,471,493,512,531,551,572,593,613,632,652,671,692,713,733,752,771,792,811,832,852,872,891,911,933,951,973,991,1011,1031,1051,1071,1092,1111,1131,1152,1172,1192,1212,1232,1251,1273,1291,1312,1332,1351,1372,1391,1412,1431,1452,1472,1493,1513,1532,1552,1572,1591,1611,1632,1652,1671,1691,1712,1731,1751,1772,1792,1812,1831,1851,1872,1891,1912,1932,1951,1971,1992,2011,2031,2052,2072,2091,2112,2131,2152,2172,2191,2211,2231,2251,2271,2291,2311,2331,2351,2373,2391,2411],"xSR":741.5,"ySR":501.8,"xT1":424.9,"yT1":0,"xT2":1058.1,"yT2":0,"toosoon":0,"cond_shown":"Congruent","ratio_trial":300,"L_num":1,"L_den":5,"R_num":3,"R_den":6,"correct_side":2,"subjID":"Alejandra Caycedo Moreno 24","gender":null,"school":null,"age":null},{"start_time":1552074879207,"click_time":1552074881369,"finger_time":1552074880670,"fix_duration":657.4534146246463,"trial":39,"RT":1463,"MT":699,"sideResp":2,"stimulus":[],"xmouse":[786,786,786,786,786,786,786,786,786,786,786,786,786,784,784,784,784,784,784,784,784,784,784,784,784,784,784,784,784,784,784,784,784,784,784,782,782,782,781,781,781,781,781,781,781,781,781,781,781,781,781,781,781,781,781,781,781,781,781,781,781,781,785,790,794,802,813,824,831,831,831,831,831,835,837,838,839,844,850,858,865,865,866,872,875,881,886,893,896,899,900,905,909,914,915,920,926,937,961,970,976,979,981,985,985,988,999,1038,1061],"ymouse":[587,587,587,587,587,587,587,587,587,587,587,587,587,587,587,586,586,586,586,586,586,586,586,586,586,586,586,586,586,586,586,586,586,586,586,585,585,584,584,584,584,584,584,584,584,584,584,584,584,584,584,584,584,584,584,584,584,584,583,580,579,576,567,556,547,536,525,512,504,504,504,504,504,484,479,474,471,451,429,408,386,381,374,314,290,256,226,171,146,126,106,90,78,71,71,70,70,70,71,71,71,71,69,67,66,66,64,61,59],"timestamp_mouse":[1,35,41,62,81,102,122,142,162,181,201,223,242,261,282,302,321,341,363,382,401,422,442,461,482,503,521,542,563,582,603,621,643,663,683,702,722,742,762,782,801,821,842,861,882,903,921,941,962,982,1003,1021,1041,1061,1081,1101,1122,1141,1161,1182,1201,1221,1242,1263,1281,1301,1321,1341,1363,1382,1402,1421,1441,1463,1481,1501,1521,1543,1562,1581,1603,1622,1643,1661,1681,1702,1722,1742,1761,1782,1801,1823,1842,1862,1881,1901,1922,1941,1961,1981,2002,2022,2042,2062,2081,2102,2122,2143,2162],"xSR":741.5,"ySR":501.8,"xT1":424.9,"yT1":0,"xT2":1058.1,"yT2":0,"toosoon":0,"cond_shown":"Congruent","ratio_trial":200,"L_num":6,"L_den":12,"R_num":7,"R_den":10,"correct_side":2,"subjID":"Alejandra Caycedo Moreno 24","gender":null,"school":null,"age":null},{"start_time":1552074883566,"click_time":1552074886749,"finger_time":1552074884768,"fix_duration":335.2737497206445,"trial":40,"RT":1202,"MT":1981,"sideResp":2,"stimulus":[],"xmouse":[767,767,767,767,767,767,767,767,767,767,767,766,766,766,765,764,764,764,764,764,764,764,764,764,764,764,764,764,764,764,764,764,764,764,764,764,764,762,762,762,762,761,761,761,761,760,759,758,758,758,758,758,758,758,758,758,758,758,758,758,766,772,781,794,804,812,812,812,815,822,831,831,833,836,840,844,844,844,844,855,885,901,913,922,924,926,926,926,926,926,923,921,921,922,923,926,927,928,928,929,938,947,948,948,948,948,950,957,964,969,977,983,987,987,987,987,987,987,987,987,987,987,987,987,987,987,987,991,991,991,991,995,996,996,996,998,1002,1005,1008,1010,1013,1015,1018,1026,1032,1039,1040,1041,1041,1041,1041,1041,1041,1041,1041,1041,1041,1043,1051,1062],"ymouse":[553,553,553,553,553,553,553,553,553,553,553,552,552,552,552,552,552,552,552,552,552,552,552,552,552,552,552,552,552,552,552,552,552,552,552,552,552,552,552,551,551,551,551,551,550,549,548,547,547,547,547,547,547,546,545,543,538,532,523,513,494,488,480,461,437,417,417,417,413,401,363,363,360,344,334,325,325,325,325,319,305,296,286,273,270,261,248,234,221,207,178,159,154,140,130,113,104,100,100,98,83,68,64,64,64,64,62,57,55,54,54,54,54,54,54,54,54,54,54,54,54,54,54,54,54,54,54,53,53,53,53,53,53,53,53,53,53,53,53,53,53,52,52,51,51,51,51,51,51,51,51,51,51,51,51,51,51,51,51,50],"timestamp_mouse":[11,37,42,63,82,104,124,143,164,184,203,223,242,263,284,302,322,344,362,382,403,422,442,464,482,503,522,542,564,582,603,624,644,663,682,703,723,744,762,783,804,824,843,863,882,902,923,942,963,982,1004,1023,1043,1064,1082,1102,1123,1142,1163,1182,1202,1222,1243,1262,1282,1303,1323,1344,1363,1383,1402,1422,1443,1463,1482,1502,1523,1542,1564,1583,1603,1622,1642,1662,1683,1702,1723,1744,1763,1783,1802,1822,1842,1863,1883,1903,1922,1943,1962,1982,2002,2022,2043,2063,2084,2102,2122,2142,2163,2183,2203,2222,2243,2263,2283,2302,2323,2343,2363,2383,2403,2422,2443,2463,2482,2502,2522,2543,2564,2584,2602,2623,2642,2663,2682,2703,2722,2742,2763,2784,2803,2824,2844,2863,2883,2903,2922,2943,2962,2983,3003,3022,3042,3062,3082,3103,3123,3142,3163,3183],"xSR":741.5,"ySR":501.8,"xT1":424.9,"yT1":0,"xT2":1058.1,"yT2":0,"toosoon":0,"cond_shown":"Congruent","ratio_trial":300,"L_num":3,"L_den":12,"R_num":11,"R_den":20,"correct_side":2,"subjID":"Alejandra Caycedo Moreno 24","gender":null,"school":null,"age":null},{"start_time":1552074891182,"click_time":1552074894768,"finger_time":1552074892830,"fix_duration":250,"trial":41,"RT":1648,"MT":1938,"sideResp":1,"stimulus":[],"xmouse":[815,815,815,815,815,815,815,815,815,815,815,815,815,814,813,813,813,812,812,812,812,812,812,812,812,812,812,812,812,812,812,812,812,811,810,810,809,809,809,809,809,809,809,809,809,809,809,809,809,809,809,809,809,809,809,809,809,809,809,809,809,809,809,809,809,809,809,809,809,809,811,811,811,811,811,811,811,811,810,806,789,768,717,618,481,202,53,0,0,0,0,0,0,1,5,19,30,49,63,73,87,93,100,118,149,303,397,468,511,512,499,470,393,337,337,337,337,337,337,337,337,337,337,337,337,337,337,337,337,337,337,337,337,337,337,337,337,337,337,337,337,337,340,363,383,401,402,402,402,402,402,402,402,402,402,402,402,402,405,410,417,418,418,418,418,418,418,418,418,418,418,418,419,420,422,424,424,424,424,425],"ymouse":[524,524,524,524,524,524,524,524,524,524,524,524,524,524,524,524,524,525,525,525,525,525,525,525,525,525,525,525,525,525,525,525,525,525,524,523,523,523,523,523,523,523,523,523,523,523,523,523,523,523,523,523,523,523,523,523,523,523,523,522,522,521,521,521,520,519,519,518,516,515,512,511,510,509,507,507,506,505,504,504,503,503,503,496,477,452,430,407,364,341,319,305,299,293,276,245,228,206,195,188,181,179,178,178,178,186,194,194,194,192,168,133,51,0,0,0,0,0,0,0,0,0,0,0,0,0,0,0,0,0,0,0,0,0,0,0,0,0,0,0,0,0,4,13,19,25,25,25,25,25,25,25,25,25,25,25,25,25,25,26,30,30,30,30,30,30,30,30,30,30,30,30,30,30,30,31,31,31,31,31],"timestamp_mouse":[15,39,46,67,86,108,126,146,167,186,207,226,247,267,287,307,327,347,366,387,407,427,447,466,487,507,527,546,568,586,608,626,647,666,686,706,726,747,766,787,806,827,848,866,886,906,927,947,967,986,1007,1027,1046,1068,1088,1107,1127,1148,1166,1187,1207,1227,1247,1266,1286,1307,1328,1347,1367,1387,1408,1427,1447,1467,1487,1507,1526,1548,1567,1587,1606,1626,1648,1666,1687,1706,1726,1746,1767,1786,1806,1827,1846,1866,1887,1906,1927,1947,1967,1986,2006,2027,2047,2066,2086,2107,2126,2147,2166,2186,2206,2227,2247,2266,2287,2306,2327,2346,2367,2386,2408,2428,2448,2467,2489,2506,2527,2546,2567,2586,2606,2626,2646,2667,2686,2706,2726,2748,2768,2787,2808,2826,2847,2866,2886,2907,2927,2946,2966,2987,3007,3027,3046,3066,3086,3107,3127,3146,3166,3187,3206,3226,3248,3268,3287,3307,3327,3348,3366,3386,3407,3426,3446,3467,3488,3507,3526,3547,3567,3586],"xSR":741.5,"ySR":501.8,"xT1":424.9,"yT1":0,"xT2":1058.1,"yT2":0,"toosoon":0,"cond_shown":"Incongruent","ratio_trial":300,"L_num":4,"L_den":5,"R_num":8,"R_den":16,"correct_side":1,"subjID":"Alejandra Caycedo Moreno 24","gender":null,"school":null,"age":null},{"start_time":1552074897192,"click_time":1552074901809,"finger_time":1552074898289,"fix_duration":601.6596229003283,"trial":42,"RT":1097,"MT":3520,"sideResp":1,"stimulus":[],"xmouse":[780,780,780,780,780,780,780,780,780,780,780,780,780,780,780,780,780,780,780,780,780,780,780,780,780,780,780,780,780,780,780,776,772,759,749,745,745,745,745,745,745,745,745,745,745,745,745,745,745,745,745,745,745,744,730,725,675,616,562,524,503,503,503,502,500,487,482,482,482,482,474,468,463,460,457,453,453,453,449,440,439,436,432,426,426,424,422,420,418,417,414,412,411,411,409,409,411,411,411,411,411,411,411,411,411,411,411,411,411,411,411,411,411,411,411,411,411,411,411,411,411,411,411,411,411,411,411,411,411,411,411,411,411,411,411,411,411,411,411,411,411,411,411,411,411,411,411,411,411,411,411,411,411,411,411,411,411,411,411,411,411,411,411,411,411,411,411,411,411,411,411,411,411,411,411,411,411,411,391,254,254,254,254,254,254,254,254,254,254,254,254,254,254,254,254,254,254,254,254,254,254,254,254,254,254,254,254,254,254,254,254,254,254,254,254,254,254,254,254,254,254,647,643,624,614,589,578,565,558,547,522],"ymouse":[538,538,538,538,538,538,538,538,538,538,538,538,538,538,538,538,538,538,538,538,538,538,538,538,538,538,538,538,538,538,538,534,534,530,527,526,526,526,526,526,526,526,526,526,526,526,526,526,526,526,526,526,526,525,521,520,512,508,501,498,494,494,494,493,491,474,466,466,466,466,451,439,429,418,406,385,383,382,372,353,350,342,334,323,320,311,307,300,292,288,279,270,266,260,248,231,222,220,220,220,220,220,220,220,220,220,220,220,220,220,220,220,220,220,220,220,219,217,217,217,217,217,217,217,217,217,217,217,217,217,217,217,217,217,217,217,217,217,217,217,217,217,217,217,217,217,217,217,217,217,217,217,217,217,217,217,217,217,217,217,217,217,217,217,217,217,217,217,217,217,217,217,217,217,217,217,217,217,187,27,27,27,27,27,27,27,27,27,27,27,27,27,27,27,27,27,27,27,27,27,27,27,27,27,27,27,27,27,27,27,27,27,27,27,27,27,27,27,27,27,27,1,3,12,15,23,27,31,32,32,29],"timestamp_mouse":[17,48,57,76,97,118,137,158,176,196,218,237,257,277,297,318,338,356,378,398,417,438,457,478,497,517,538,558,577,598,618,637,656,678,697,718,738,757,777,797,817,838,857,878,897,917,938,957,977,997,1017,1038,1057,1077,1097,1118,1137,1157,1176,1198,1217,1237,1257,1277,1298,1317,1337,1358,1377,1397,1417,1437,1457,1477,1497,1517,1538,1557,1577,1599,1616,1637,1658,1678,1697,1718,1736,1757,1778,1799,1817,1837,1857,1878,1898,1918,1938,1957,1977,1996,2016,2037,2058,2078,2097,2118,2137,2158,2178,2199,2217,2238,2257,2276,2298,2317,2337,2358,2377,2398,2416,2438,2458,2478,2497,2518,2537,2558,2577,2598,2617,2637,2657,2677,2698,2717,2738,2758,2778,2797,2818,2837,2857,2878,2897,2918,2938,2957,2977,2998,3017,3038,3058,3078,3098,3118,3137,3158,3176,3198,3217,3238,3258,3278,3298,3317,3337,3357,3378,3398,3417,3437,3456,3477,3498,3517,3538,3558,3577,3597,3617,3637,3657,3677,3697,3717,3738,3758,3777,3797,3817,3836,3856,3878,3898,3918,3938,3957,3977,3998,4018,4037,4057,4078,4097,4117,4137,4157,4177,4197,4217,4237,4256,4278,4298,4317,4337,4357,4377,4398,4418,4437,4458,4478,4497,4518,4537,4557,4577,4598,4617],"xSR":741.5,"ySR":501.8,"xT1":424.9,"yT1":0,"xT2":1058.1,"yT2":0,"toosoon":0,"cond_shown":"Incongruent","ratio_trial":300,"L_num":2,"L_den":4,"R_num":6,"R_den":30,"correct_side":1,"subjID":"Alejandra Caycedo Moreno 24","gender":null,"school":null,"age":null},{"start_time":1552074903879,"click_time":1552074905449,"finger_time":1552074904789,"fix_duration":447.73169958828527,"trial":43,"RT":910,"MT":660,"sideResp":1,"stimulus":[],"xmouse":[752,752,752,752,752,752,752,752,752,752,752,752,752,752,752,752,752,752,752,752,752,752,752,752,752,751,751,749,748,748,748,748,748,747,747,747,747,747,747,747,747,747,747,747,747,737,656,514,455,433,431,431,436,440,442,448,455,460,466,471,477,485,485,485,485,485,485,485,485,485,485,485,486,487,488,491,502,512,520],"ymouse":[559,559,559,559,559,559,559,559,559,559,559,559,559,559,559,559,559,559,559,559,559,559,559,559,558,557,554,549,546,544,544,544,544,543,542,541,541,541,541,541,541,541,541,541,541,539,503,452,429,413,406,384,372,363,353,344,332,323,314,302,285,244,222,199,178,162,147,146,145,145,145,142,141,139,135,131,112,102,96],"timestamp_mouse":[10,32,51,70,90,109,131,150,171,190,211,230,250,271,291,311,331,351,370,391,409,430,450,471,490,511,529,550,570,591,611,631,650,671,691,710,730,750,770,791,811,831,850,871,890,910,931,950,970,990,1011,1029,1050,1070,1090,1111,1131,1149,1170,1190,1210,1231,1250,1270,1290,1310,1330,1350,1370,1391,1410,1431,1449,1470,1490,1511,1531,1551,1570],"xSR":741.5,"ySR":501.8,"xT1":424.9,"yT1":0,"xT2":1058.1,"yT2":0,"toosoon":0,"cond_shown":"Congruent","ratio_trial":200,"L_num":3,"L_den":12,"R_num":9,"R_den":20,"correct_side":2,"subjID":"Alejandra Caycedo Moreno 24","gender":null,"school":null,"age":null},{"start_time":1552074906970,"click_time":1552074909049,"finger_time":1552074908410,"fix_duration":358.14376350965074,"trial":44,"RT":1440,"MT":639,"sideResp":2,"stimulus":[],"xmouse":[774,774,774,774,774,774,774,774,774,774,774,774,774,774,774,774,774,774,774,774,774,774,774,774,774,774,774,774,774,774,774,774,774,774,774,774,774,775,775,775,775,775,775,775,775,775,775,775,775,775,775,775,775,775,775,775,775,775,775,775,775,775,778,778,779,780,780,782,783,787,787,787,806,823,832,840,848,860,861,865,868,875,883,895,902,918,930,940,957,962,969,984,1002,1005,1007,1007,1007,1007,1007,1011,1016,1021,1044,1054,1068],"ymouse":[555,555,555,555,555,555,555,555,555,555,555,555,555,555,555,555,555,555,555,555,555,555,555,555,555,555,553,551,549,549,549,549,549,549,549,549,549,548,547,545,545,544,544,543,542,541,541,540,538,537,535,535,535,535,535,535,535,535,535,535,535,532,526,521,519,517,514,512,509,507,507,507,487,471,459,448,436,421,417,410,403,377,321,213,190,150,126,111,92,86,80,70,59,57,55,55,55,55,55,54,54,54,55,58,62],"timestamp_mouse":[7,29,42,60,78,99,120,138,160,180,198,219,238,260,279,300,318,339,359,379,400,420,438,460,480,498,519,540,560,580,598,620,639,659,680,700,718,740,759,779,799,819,839,859,879,900,919,939,960,979,1000,1020,1040,1058,1080,1100,1120,1139,1160,1178,1198,1219,1240,1260,1279,1299,1320,1340,1359,1380,1398,1420,1440,1459,1479,1499,1519,1540,1560,1579,1599,1619,1639,1659,1679,1699,1720,1739,1759,1779,1800,1819,1841,1859,1880,1898,1920,1939,1959,1979,1999,2019,2041,2058,2079],"xSR":741.5,"ySR":501.8,"xT1":424.9,"yT1":0,"xT2":1058.1,"yT2":0,"toosoon":0,"cond_shown":"Congruent","ratio_trial":300,"L_num":20,"L_den":25,"R_num":13,"R_den":26,"correct_side":1,"subjID":"Alejandra Caycedo Moreno 24","gender":null,"school":null,"age":null},{"start_time":1552074911051,"click_time":1552074913349,"finger_time":1552074912528,"fix_duration":521.1866788003884,"trial":45,"RT":1477,"MT":821,"sideResp":2,"stimulus":[],"xmouse":[796,796,796,796,796,796,795,792,786,786,786,786,786,786,786,786,786,786,786,786,786,786,786,786,786,786,786,786,786,786,786,785,785,785,785,785,785,785,790,795,796,797,800,802,803,805,805,806,806,806,806,806,806,806,806,806,806,806,806,806,806,806,806,806,806,806,806,806,806,806,810,812,818,843,863,887,915,933,961,971,979,986,993,994,996,998,1001,1001,1004,1004,1006,1008,1009,1012,1012,1012,1015,1017,1020,1024,1026,1027,1029,1029,1035,1039,1040,1042,1044,1044,1044,1044,1044,1051,1072],"ymouse":[565,565,565,565,565,565,565,564,563,563,563,563,563,563,563,563,563,563,563,563,563,563,563,563,563,563,563,563,563,563,563,563,563,563,563,563,563,563,554,546,544,539,531,527,525,523,523,522,522,522,522,522,522,522,522,522,522,522,522,522,522,522,522,522,522,522,522,522,522,522,518,514,504,477,466,451,430,415,383,368,349,327,306,299,289,276,270,266,259,254,249,243,236,222,205,191,177,167,157,132,118,107,96,85,64,51,46,40,34,34,34,34,34,34,34],"timestamp_mouse":[18,41,58,79,99,119,139,159,178,199,219,239,258,279,298,318,338,359,379,397,419,439,459,479,497,519,538,558,579,598,619,638,659,679,698,719,739,758,778,798,818,837,859,878,898,917,938,959,979,997,1018,1038,1058,1079,1098,1118,1139,1159,1178,1198,1218,1239,1257,1278,1299,1318,1338,1359,1377,1399,1418,1438,1458,1477,1498,1519,1539,1559,1578,1598,1618,1638,1658,1678,1698,1718,1738,1759,1778,1798,1818,1839,1859,1878,1898,1917,1937,1958,1978,1998,2019,2039,2058,2078,2099,2118,2138,2158,2178,2198,2219,2238,2257,2279,2298],"xSR":741.5,"ySR":501.8,"xT1":424.9,"yT1":0,"xT2":1058.1,"yT2":0,"toosoon":0,"cond_shown":"Incongruent","ratio_trial":200,"L_num":11,"L_den":20,"R_num":3,"R_den":4,"correct_side":2,"subjID":"Alejandra Caycedo Moreno 24","gender":null,"school":null,"age":null},{"start_time":1552074916417,"click_time":1552074918190,"finger_time":1552074917849,"fix_duration":1465.6567497698165,"trial":46,"RT":1432,"MT":341,"sideResp":1,"stimulus":[],"xmouse":[789,789,789,789,789,789,788,788,788,788,788,788,788,787,787,786,786,786,786,786,786,786,786,786,786,786,786,785,785,784,780,778,776,774,773,772,772,772,772,772,772,772,772,772,772,772,772,772,772,772,772,772,772,772,772,772,772,772,772,772,772,772,772,772,772,772,772,772,772,772,766,744,736,687,578,502,433,429,429,431,436,448,455,461,462,462,457,457,457],"ymouse":[536,536,536,536,536,536,534,534,534,534,533,533,533,533,533,532,532,531,531,531,531,531,531,531,531,531,531,530,528,527,521,519,516,514,513,513,513,513,513,513,513,513,513,513,513,513,513,513,513,513,513,513,513,513,513,513,513,513,513,513,513,513,513,513,513,513,513,513,513,513,511,501,496,477,432,395,352,342,335,327,321,303,284,261,238,187,128,111,97],"timestamp_mouse":[11,35,53,72,93,112,132,153,173,193,213,232,253,272,291,313,333,352,372,392,413,433,453,472,493,512,533,551,573,592,613,632,652,672,692,713,732,752,772,793,813,831,852,872,893,912,932,953,972,991,1012,1033,1053,1073,1092,1113,1133,1152,1172,1192,1212,1233,1251,1272,1292,1312,1333,1352,1373,1393,1413,1432,1452,1473,1492,1512,1532,1552,1572,1592,1613,1632,1652,1672,1692,1712,1732,1753,1773],"xSR":741.5,"ySR":501.8,"xT1":424.9,"yT1":0,"xT2":1058.1,"yT2":0,"toosoon":0,"cond_shown":"Incongruent","ratio_trial":100,"L_num":4,"L_den":8,"R_num":8,"R_den":20,"correct_side":1,"subjID":"Alejandra Caycedo Moreno 24","gender":null,"school":null,"age":null},{"start_time":1552074923100,"click_time":1552074925009,"finger_time":1552074924249,"fix_duration":250,"trial":47,"RT":1149,"MT":760,"sideResp":2,"stimulus":[],"xmouse":[782,782,782,782,782,782,782,782,782,782,782,782,782,782,782,782,782,782,782,782,782,782,782,782,782,782,782,782,782,782,782,782,782,782,782,782,782,782,782,781,780,780,780,779,778,776,775,773,771,771,771,771,771,771,771,772,774,780,786,789,795,801,807,819,826,832,838,844,858,863,865,869,874,874,874,874,875,882,896,906,919,931,944,970,981,990,997,1002,1009,1011,1012,1014,1014,1029,1048,1072],"ymouse":[551,551,551,551,551,551,551,551,551,551,551,551,551,551,551,551,551,551,551,551,551,551,551,551,551,551,551,551,551,551,551,551,551,551,551,551,551,551,551,550,549,548,547,544,542,538,536,531,526,526,526,526,526,526,523,520,514,501,489,478,460,443,429,404,393,383,372,360,332,322,319,312,282,267,250,235,222,203,175,161,143,126,109,79,68,60,56,53,49,49,48,48,48,48,48,56],"timestamp_mouse":[22,43,49,70,89,109,130,150,169,190,209,228,249,269,290,310,329,349,369,388,410,429,449,470,489,509,529,549,569,590,609,629,650,670,689,709,729,749,769,789,810,829,849,869,890,909,930,949,969,990,1008,1029,1050,1069,1090,1110,1130,1149,1168,1189,1209,1229,1250,1269,1289,1309,1330,1349,1369,1388,1408,1428,1450,1470,1489,1509,1529,1549,1569,1590,1609,1629,1650,1669,1689,1709,1729,1749,1769,1790,1809,1829,1849,1868,1889,1909],"xSR":741.5,"ySR":501.8,"xT1":424.9,"yT1":0,"xT2":1058.1,"yT2":0,"toosoon":0,"cond_shown":"Congruent","ratio_trial":300,"L_num":5,"L_den":25,"R_num":6,"R_den":12,"correct_side":2,"subjID":"Alejandra Caycedo Moreno 24","gender":null,"school":null,"age":null},{"start_time":1552074928334,"click_time":1552074930430,"finger_time":1552074929709,"fix_duration":1443.0129139796295,"trial":48,"RT":1375,"MT":721,"sideResp":1,"stimulus":[],"xmouse":[788,787,787,784,782,781,777,776,775,774,773,771,769,768,768,768,768,768,768,768,768,768,768,768,768,768,768,768,768,768,768,768,768,768,768,768,768,768,769,769,770,771,771,771,771,771,771,771,771,771,771,771,771,771,771,771,771,771,771,771,771,771,771,771,771,770,765,753,740,730,719,709,702,687,683,679,652,625,603,588,580,576,570,565,559,556,538,527,523,519,518,516,515,512,512,509,509,509,509,509,507,503,501,496,491],"ymouse":[557,557,557,559,560,561,563,565,566,567,568,572,573,575,575,575,575,575,575,575,575,575,575,575,575,575,575,575,575,575,575,575,575,575,575,575,575,573,571,570,569,568,568,567,567,567,567,567,567,567,567,567,567,567,567,567,567,567,567,567,567,565,562,560,555,552,542,531,524,519,515,508,501,485,481,477,457,437,419,401,387,373,335,315,300,286,243,223,208,193,183,173,159,147,142,137,135,135,135,135,133,125,117,108,99],"timestamp_mouse":[15,44,55,75,94,115,135,155,175,196,216,235,255,275,296,315,336,355,376,395,415,436,456,476,496,515,535,556,575,595,615,635,656,675,696,715,736,755,775,795,816,836,855,874,896,916,936,955,976,996,1015,1035,1055,1076,1096,1116,1134,1154,1176,1195,1215,1235,1255,1275,1295,1315,1335,1355,1375,1395,1415,1436,1454,1475,1495,1514,1536,1555,1576,1596,1616,1635,1655,1675,1695,1715,1735,1754,1776,1795,1814,1835,1856,1875,1896,1915,1935,1955,1976,1995,2016,2036,2054,2075,2096],"xSR":741.5,"ySR":501.8,"xT1":424.9,"yT1":0,"xT2":1058.1,"yT2":0,"toosoon":0,"cond_shown":"Incongruent","ratio_trial":200,"L_num":1,"L_den":3,"R_num":2,"R_den":15,"correct_side":1,"subjID":"Alejandra Caycedo Moreno 24","gender":null,"school":null,"age":null},{"start_time":1552074932037,"click_time":1552074934730,"finger_time":1552074932669,"fix_duration":486.87256502076957,"trial":49,"RT":632,"MT":2061,"sideResp":2,"stimulus":[],"xmouse":[807,807,806,806,806,806,806,806,806,806,806,806,806,806,806,806,806,806,806,806,806,805,805,805,805,805,805,809,814,818,821,826,830,833,833,833,838,858,867,886,895,902,902,908,921,921,921,921,921,921,921,921,921,921,921,921,921,921,921,921,921,921,921,921,921,921,921,921,921,921,921,921,921,921,921,921,921,921,921,921,921,921,921,921,921,921,921,921,921,921,921,921,921,921,921,921,906,906,902,893,876,857,844,843,843,843,843,843,843,843,843,843,843,843,843,843,843,843,843,843,843,843,843,843,843,843,843,843,843,843,843,843,843,843,1061],"ymouse":[583,583,583,582,582,582,582,582,582,582,582,582,582,582,582,582,582,582,582,582,582,581,581,581,580,578,572,555,542,530,513,494,484,476,476,476,472,450,443,429,420,414,414,409,398,398,398,398,398,398,398,398,398,398,398,398,398,398,398,398,398,398,398,398,398,398,398,398,398,398,398,398,398,398,398,398,398,398,398,398,398,398,398,398,398,398,398,398,398,398,398,398,398,398,398,391,388,385,363,307,242,182,77,22,5,5,5,5,5,5,5,5,5,5,5,5,5,5,5,5,5,5,5,5,5,5,5,5,5,5,5,5,5,5,2],"timestamp_mouse":[14,36,53,73,92,113,132,152,172,193,213,232,253,272,292,313,333,352,373,393,411,433,453,472,493,513,532,553,572,591,612,632,652,672,692,713,733,751,773,792,812,833,852,872,892,912,932,952,972,992,1012,1032,1052,1073,1093,1113,1132,1153,1173,1193,1211,1233,1252,1272,1293,1312,1333,1352,1373,1392,1412,1433,1453,1473,1492,1512,1533,1552,1571,1592,1612,1633,1652,1672,1691,1713,1733,1752,1772,1792,1813,1833,1852,1872,1891,1911,1933,1951,1972,1993,2012,2033,2051,2072,2092,2112,2133,2151,2172,2193,2212,2232,2253,2273,2293,2311,2333,2353,2372,2392,2413,2432,2452,2472,2492,2512,2532,2552,2572,2593,2612,2633,2651,2672,2692],"xSR":741.5,"ySR":501.8,"xT1":424.9,"yT1":0,"xT2":1058.1,"yT2":0,"toosoon":0,"cond_shown":"Incongruent","ratio_trial":300,"L_num":4,"L_den":20,"R_num":2,"R_den":4,"correct_side":2,"subjID":"Alejandra Caycedo Moreno 24","gender":null,"school":null,"age":null},{"start_time":1552074937487,"click_time":1552074939430,"finger_time":1552074938529,"fix_duration":896.9913546085827,"trial":50,"RT":1042,"MT":901,"sideResp":1,"stimulus":[],"xmouse":[784,784,784,784,784,784,784,784,781,780,779,779,779,779,779,779,779,779,779,779,779,779,779,778,778,777,777,776,775,775,775,775,775,775,775,775,775,775,775,775,775,775,775,775,775,774,774,773,773,773,767,753,720,693,667,638,620,615,588,566,518,493,471,452,426,376,370,359,359,359,359,359,359,359,359,359,359,359,359,646,649,647,644,644,644,644,644,644,644,644,644,644,644,644,629,566,542,516],"ymouse":[548,548,548,548,548,548,548,548,548,548,548,548,548,548,548,548,548,548,548,548,548,548,548,547,546,541,538,536,534,534,534,534,534,534,534,534,534,534,534,534,534,534,534,534,534,532,531,530,530,530,524,514,491,473,452,421,399,393,368,348,294,272,247,220,179,77,58,14,14,14,14,14,14,14,14,14,14,14,14,13,20,25,32,34,34,34,34,34,34,34,34,34,34,34,31,22,16,13],"timestamp_mouse":[13,37,42,63,82,101,123,143,162,183,202,222,243,262,283,301,323,342,363,382,402,423,442,461,483,502,522,541,563,582,602,622,642,662,682,703,722,743,762,783,801,821,843,862,883,902,922,943,963,982,1003,1023,1042,1063,1083,1102,1122,1142,1163,1182,1203,1221,1242,1263,1282,1302,1322,1342,1362,1382,1402,1421,1442,1463,1482,1503,1523,1543,1562,1582,1603,1622,1642,1663,1682,1702,1722,1742,1762,1782,1803,1822,1843,1863,1882,1901,1922,1943],"xSR":741.5,"ySR":501.8,"xT1":424.9,"yT1":0,"xT2":1058.1,"yT2":0,"toosoon":0,"cond_shown":"Incongruent","ratio_trial":200,"L_num":1,"L_den":2,"R_num":3,"R_den":10,"correct_side":1,"subjID":"Alejandra Caycedo Moreno 24","gender":null,"school":null,"age":null},{"start_time":1552074941162,"click_time":1552074942350,"finger_time":1552074941889,"fix_duration":250,"trial":51,"RT":727,"MT":461,"sideResp":1,"stimulus":[],"xmouse":[806,806,806,806,806,806,806,806,806,806,806,806,806,806,806,806,806,806,806,806,806,806,806,806,806,806,806,806,806,804,801,798,798,792,778,762,724,718,698,696,696,681,673,668,664,655,616,598,579,556,533,510,486,480,472,462,444,439,435,432],"ymouse":[562,562,562,562,562,562,562,562,562,562,562,562,562,562,562,562,562,562,562,562,562,562,562,562,562,562,562,562,561,560,558,555,555,550,542,532,513,508,495,494,494,485,479,474,470,456,420,402,383,359,325,288,240,221,199,178,129,115,100,89],"timestamp_mouse":[14,29,47,67,87,107,127,147,166,186,210,227,246,267,287,308,327,347,367,387,408,428,447,467,487,507,526,547,567,586,607,628,647,666,688,707,727,747,767,788,806,828,847,868,887,907,928,947,967,986,1008,1027,1046,1066,1087,1108,1128,1147,1167,1188],"xSR":741.5,"ySR":501.8,"xT1":424.9,"yT1":0,"xT2":1058.1,"yT2":0,"toosoon":0,"cond_shown":"Incongruent","ratio_trial":100,"L_num":1,"L_den":2,"R_num":8,"R_den":20,"correct_side":1,"subjID":"Alejandra Caycedo Moreno 24","gender":null,"school":null,"age":null},{"start_time":1552074943940,"click_time":1552074946650,"finger_time":1552074944849,"fix_duration":250,"trial":52,"RT":909,"MT":1801,"sideResp":2,"stimulus":[],"xmouse":[766,766,766,766,766,766,766,766,766,766,766,766,766,766