[{"start_time":1552073730641,"click_time":1552073733757,"finger_time":1552073733656,"fix_duration":638.984355078082,"trial":0,"RT":3015,"MT":101,"sideResp":2,"stimulus":[],"xmouse":[788,788,788,788,788,788,788,788,788,788,788,788,788,788,788,788,788,788,788,788,788,788,788,788,788,788,788,788,788,788,788,788,788,788,788,788,788,788,788,788,788,788,788,788,788,788,788,788,788,788,788,788,788,788,788,788,788,788,788,788,788,788,788,788,788,788,788,788,788,788,788,788,788,788,788,788,788,788,788,788,788,788,788,788,788,788,788,788,785,785,785,785,785,785,785,785,785,785,785,785,785,787,789,789,789,789,789,789,789,789,789,789,789,789,789,789,789,789,789,789,789,789,789,789,790,785,781,781,781,781,781,781,781,781,781,781,781,781,781,781,781,781,781,781,782,783,786,786,789,794,804,862,937,984,1023,1052,1087],"ymouse":[550,550,550,550,550,550,550,550,550,550,550,550,550,550,550,550,550,550,550,550,550,550,550,550,550,550,550,550,550,550,550,550,550,550,550,550,550,550,550,550,550,550,550,550,550,550,550,550,550,550,550,550,550,550,550,550,550,550,550,550,550,550,550,550,550,550,550,550,550,550,550,550,550,550,550,550,549,548,547,546,546,546,546,546,546,546,546,545,545,546,546,546,546,546,546,546,546,546,546,546,545,539,535,532,532,532,532,532,532,532,532,532,532,532,532,532,532,532,532,532,532,532,532,532,531,531,532,532,532,532,532,532,532,532,532,532,532,532,532,532,532,532,532,532,532,531,525,523,517,506,490,419,322,247,175,113,45],"timestamp_mouse":[1,16,45,56,75,96,115,137,156,176,196,215,237,255,275,297,316,336,355,376,397,416,435,456,476,495,515,535,555,575,595,616,635,655,677,695,717,735,755,776,795,815,836,857,877,895,917,935,955,977,996,1015,1035,1056,1076,1095,1116,1136,1155,1176,1195,1217,1235,1257,1276,1295,1317,1336,1356,1377,1395,1417,1437,1456,1476,1495,1516,1535,1557,1575,1595,1615,1635,1657,1676,1697,1716,1735,1756,1776,1796,1816,1836,1856,1875,1895,1916,1936,1957,1976,1995,2015,2036,2056,2076,2095,2117,2135,2156,2175,2195,2216,2235,2255,2276,2296,2315,2335,2356,2375,2395,2416,2437,2455,2476,2496,2515,2537,2555,2575,2596,2616,2636,2655,2675,2696,2717,2736,2756,2776,2795,2816,2836,2857,2876,2896,2915,2935,2957,2976,2996,3015,3035,3056,3076,3097,3116],"xSR":741.5,"ySR":501.8,"xT1":424.9,"yT1":0,"xT2":1058.1,"yT2":0,"toosoon":0,"cond_shown":"Incongruent","ratio_trial":100,"L_num":6,"L_den":10,"R_num":7,"R_den":14,"correct_side":1,"subjID":"Alejandra Caycedo Moreno23","gender":"1","age":"9","school":"4","test":{"fix_dur":[250,1500],"timestim":1000,"targets_dim":[100,100],"targets_relative_coord":[0.3,0.7],"size_stim":[880,420],"start_dim":[100,100],"size_start":[300,300],"size_fix":60,"samplingrate":20,"img_types":["Congruent","Incongruent"],"ratios":[100,200,300],"rep_conds":19,"nTrials":120,"trials_to_rest":500,"Trials_order":[37,57,82,117,38,112,23,61,90,77,34,65,25,26,79,107,11,102,39,44,36,70,47,52,3,14,74,116,42,114,35,31,22,16,94,49,68,46,60,15,45,33,6,62,51,24,101,110,27,1,99,108,32,55,118,12,115,86,71,113,67,7,95,106,5,54,29,21,87,59,69,63,8,103,2,80,40,97,91,28,58,53,78,13,9,66,0,73,96,109,19,88,100,18,89,111,43,17,64,76,10,56,72,4,92,50,98,20,81,104,85,105,41,119,84,48,75,93,83,30],"cond_shown":["Incongruent","Incongruent","Congruent","Incongruent","Congruent","Congruent","Incongruent","Incongruent","Congruent","Incongruent","Congruent","Incongruent","Incongruent","Congruent","Incongruent","Incongruent","Incongruent","Congruent","Incongruent","Congruent","Congruent","Congruent","Incongruent","Congruent","Incongruent","Congruent","Congruent","Congruent","Congruent","Congruent","Incongruent","Incongruent","Congruent","Congruent","Congruent","Incongruent","Congruent","Congruent","Congruent","Incongruent","Incongruent","Incongruent","Congruent","Congruent","Incongruent","Congruent","Incongruent","Congruent","Incongruent","Incongruent","Incongruent","Congruent","Congruent","Incongruent","Congruent","Congruent","Incongruent","Congruent","Incongruent","Incongruent","Incongruent","Incongruent","Incongruent","Congruent","Incongruent","Congruent","Incongruent","Incongruent","Incongruent","Incongruent","Incongruent","Incongruent","Congruent","Incongruent","Congruent","Congruent","Congruent","Incongruent","Incongruent","Congruent","Congruent","Incongruent","Congruent","Incongruent","Incongruent","Congruent","Congruent","Incongruent","Congruent","Incongruent","Incongruent","Congruent","Congruent","Congruent","Incongruent","Incongruent","Incongruent","Incongruent","Congruent","Congruent","Congruent","Congruent","Congruent","Congruent","Congruent","Congruent","Congruent","Congruent","Incongruent","Congruent","Incongruent","Incongruent","Incongruent","Incongruent","Congruent","Congruent","Incongruent","Incongruent","Incongruent","Congruent"],"ratio_trial":[100,200,300,200,200,300,300,100,100,300,300,300,100,200,100,300,300,100,200,200,100,300,300,300,200,200,200,200,100,100,300,100,300,300,300,100,200,300,100,200,200,200,100,200,200,100,300,200,200,100,200,100,200,100,300,100,100,200,300,300,100,100,300,300,300,100,300,200,200,300,200,200,200,100,200,200,300,100,100,300,300,300,100,100,200,100,100,100,100,100,100,300,300,100,300,200,100,300,300,300,300,200,100,300,200,200,200,200,200,200,100,200,300,300,100,100,200,200,300,100],"left_num":[6,1,5,3,6,1,8,13,15,4,5,4,3,6,12,3,4,11,14,3,7,20,13,4,7,3,6,9,1,4,13,3,12,7,20,8,6,1,7,4,7,1,11,13,14,12,13,5,1,6,7,7,9,10,8,12,3,15,13,2,8,10,4,1,4,6,4,1,1,13,3,4,3,9,9,16,8,12,6,20,4,2,3,2,1,11,6,9,15,2,3,7,20,6,13,4,10,13,2,8,18,8,4,1,16,6,4,1,6,9,9,4,4,4,4,1,3,7,4,1],"right_num":[7,3,6,11,11,6,14,6,13,2,7,2,7,11,2,4,2,4,6,14,15,5,12,2,6,14,7,4,3,15,12,8,2,20,14,6,11,8,15,6,12,3,6,14,12,13,12,14,2,3,4,9,13,8,1,13,8,4,12,6,1,9,6,7,8,15,2,3,2,12,1,14,14,6,4,9,10,9,7,13,1,6,4,8,2,6,15,20,13,8,11,20,9,15,12,14,8,12,10,10,9,2,15,6,12,3,3,21,3,13,13,14,2,8,6,3,11,12,6,18],"left_den":[10,2,25,4,20,5,10,26,25,20,25,20,9,20,30,6,20,22,30,6,14,25,26,5,15,10,12,20,2,10,26,5,24,14,25,16,20,30,14,5,10,2,22,26,30,30,26,10,3,12,15,14,30,25,16,30,5,25,26,4,20,25,5,20,5,12,20,2,3,26,10,6,10,18,20,30,15,24,10,25,10,4,20,4,3,22,12,10,25,4,5,14,25,12,26,6,25,26,20,15,20,15,10,5,20,15,10,2,20,30,15,6,20,5,8,2,4,10,5,2],"right_den":[14,10,12,20,22,12,28,10,26,4,14,4,30,22,4,20,4,10,9,20,25,10,15,4,9,28,10,16,5,30,15,16,10,25,28,10,22,24,25,10,24,10,15,20,18,26,15,20,15,5,6,15,26,16,5,26,16,10,15,30,2,18,12,20,16,25,4,10,15,15,2,30,28,10,16,27,12,15,14,26,10,30,16,20,15,15,25,25,26,20,22,25,18,25,15,30,16,15,25,12,15,6,30,12,20,15,15,30,6,26,26,30,4,16,10,5,20,24,12,30],"correct_side":[1,1,2,1,2,2,1,2,1,2,2,2,1,2,2,1,2,1,2,2,2,1,2,1,2,2,2,1,2,2,2,1,1,2,1,2,2,2,2,1,1,1,1,2,2,2,2,2,1,2,2,2,2,2,1,2,1,1,2,1,2,2,1,2,1,2,2,1,1,2,2,1,2,2,1,1,2,2,1,1,1,1,2,1,1,1,2,1,1,1,1,2,1,2,2,1,2,2,2,2,1,1,2,2,1,1,1,2,2,2,1,1,2,1,2,2,1,1,1,2],"img_shown":["img2/100/Incongruent/L/I_Dist_100_LN_6_LD_10_RN_7_RD_14_0.png","img2/200/Incongruent/L/I_Dist_200_LN_1_LD_2_RN_3_RD_10_0.png","img2/300/Congruent/R/C_Dist_300_LN_5_LD_25_RN_6_RD_12_1.png","img2/200/Incongruent/L/I_Dist_200_LN_3_LD_4_RN_11_RD_20_0.png","img2/200/Congruent/R/C_Dist_200_LN_6_LD_20_RN_11_RD_22_1.png","img2/300/Congruent/R/C_Dist_300_LN_1_LD_5_RN_6_RD_12_1.png","img2/300/Incongruent/L/I_Dist_300_LN_8_LD_10_RN_14_RD_28_0.png","img2/100/Incongruent/R/I_Dist_100_LN_13_LD_26_RN_6_RD_10_1.png","img2/100/Congruent/L/C_Dist_100_LN_15_LD_25_RN_13_RD_26_0.png","img2/300/Incongruent/R/I_Dist_300_LN_4_LD_20_RN_2_RD_4_1.png","img2/300/Congruent/R/C_Dist_300_LN_5_LD_25_RN_7_RD_14_1.png","img2/300/Incongruent/R/I_Dist_300_LN_4_LD_20_RN_2_RD_4_1.png","img2/100/Incongruent/L/I_Dist_100_LN_3_LD_9_RN_7_RD_30_0.png","img2/200/Congruent/R/C_Dist_200_LN_6_LD_20_RN_11_RD_22_1.png","img2/100/Incongruent/R/I_Dist_100_LN_12_LD_30_RN_2_RD_4_1.png","img2/300/Incongruent/L/I_Dist_300_LN_3_LD_6_RN_4_RD_20_0.png","img2/300/Incongruent/R/I_Dist_300_LN_4_LD_20_RN_2_RD_4_1.png","img2/100/Congruent/L/C_Dist_100_LN_11_LD_22_RN_4_RD_10_0.png","img2/200/Incongruent/R/I_Dist_200_LN_14_LD_30_RN_6_RD_9_1.png","img2/200/Congruent/R/C_Dist_200_LN_3_LD_6_RN_14_RD_20_1.png","img2/100/Congruent/R/C_Dist_100_LN_7_LD_14_RN_15_RD_25_1.png","img2/300/Congruent/L/C_Dist_300_LN_20_LD_25_RN_5_RD_10_0.png","img2/300/Incongruent/R/I_Dist_300_LN_13_LD_26_RN_12_RD_15_1.png","img2/300/Congruent/L/C_Dist_300_LN_4_LD_5_RN_2_RD_4_0.png","img2/200/Incongruent/R/I_Dist_200_LN_7_LD_15_RN_6_RD_9_1.png","img2/200/Congruent/R/C_Dist_200_LN_3_LD_10_RN_14_RD_28_1.png","img2/200/Congruent/R/C_Dist_200_LN_6_LD_12_RN_7_RD_10_1.png","img2/200/Congruent/L/C_Dist_200_LN_9_LD_20_RN_4_RD_16_0.png","img2/100/Congruent/R/C_Dist_100_LN_1_LD_2_RN_3_RD_5_1.png","img2/100/Congruent/R/C_Dist_100_LN_4_LD_10_RN_15_RD_30_1.png","img2/300/Incongruent/R/I_Dist_300_LN_13_LD_26_RN_12_RD_15_1.png","img2/100/Incongruent/L/I_Dist_100_LN_3_LD_5_RN_8_RD_16_0.png","img2/300/Congruent/L/C_Dist_300_LN_12_LD_24_RN_2_RD_10_0.png","img2/300/Congruent/R/C_Dist_300_LN_7_LD_14_RN_20_RD_25_1.png","img2/300/Congruent/L/C_Dist_300_LN_20_LD_25_RN_14_RD_28_0.png","img2/100/Incongruent/R/I_Dist_100_LN_8_LD_16_RN_6_RD_10_1.png","img2/200/Congruent/R/C_Dist_200_LN_6_LD_20_RN_11_RD_22_1.png","img2/300/Congruent/R/C_Dist_300_LN_1_LD_30_RN_8_RD_24_1.png","img2/100/Congruent/R/C_Dist_100_LN_7_LD_14_RN_15_RD_25_1.png","img2/200/Incongruent/L/I_Dist_200_LN_4_LD_5_RN_6_RD_10_0.png","img2/200/Incongruent/L/I_Dist_200_LN_7_LD_10_RN_12_RD_24_0.png","img2/200/Incongruent/L/I_Dist_200_LN_1_LD_2_RN_3_RD_10_0.png","img2/100/Congruent/L/C_Dist_100_LN_11_LD_22_RN_6_RD_15_0.png","img2/200/Congruent/R/C_Dist_200_LN_13_LD_26_RN_14_RD_20_1.png","img2/200/Incongruent/R/I_Dist_200_LN_14_LD_30_RN_12_RD_18_1.png","img2/100/Congruent/R/C_Dist_100_LN_12_LD_30_RN_13_RD_26_1.png","img2/300/Incongruent/R/I_Dist_300_LN_13_LD_26_RN_12_RD_15_1.png","img2/200/Congruent/R/C_Dist_200_LN_5_LD_10_RN_14_RD_20_1.png","img2/200/Incongruent/L/I_Dist_200_LN_1_LD_3_RN_2_RD_15_0.png","img2/100/Incongruent/R/I_Dist_100_LN_6_LD_12_RN_3_RD_5_1.png","img2/200/Incongruent/R/I_Dist_200_LN_7_LD_15_RN_4_RD_6_1.png","img2/100/Congruent/R/C_Dist_100_LN_7_LD_14_RN_9_RD_15_1.png","img2/200/Congruent/R/C_Dist_200_LN_9_LD_30_RN_13_RD_26_1.png","img2/100/Incongruent/R/I_Dist_100_LN_10_LD_25_RN_8_RD_16_1.png","img2/300/Congruent/L/C_Dist_300_LN_8_LD_16_RN_1_RD_5_0.png","img2/100/Congruent/R/C_Dist_100_LN_12_LD_30_RN_13_RD_26_1.png","img2/100/Incongruent/L/I_Dist_100_LN_3_LD_5_RN_8_RD_16_0.png","img2/200/Congruent/L/C_Dist_200_LN_15_LD_25_RN_4_RD_10_0.png","img2/300/Incongruent/R/I_Dist_300_LN_13_LD_26_RN_12_RD_15_1.png","img2/300/Incongruent/L/I_Dist_300_LN_2_LD_4_RN_6_RD_30_0.png","img2/100/Incongruent/R/I_Dist_100_LN_8_LD_20_RN_1_RD_2_1.png","img2/100/Incongruent/R/I_Dist_100_LN_10_LD_25_RN_9_RD_18_1.png","img2/300/Incongruent/L/I_Dist_300_LN_4_LD_5_RN_6_RD_12_0.png","img2/300/Congruent/R/C_Dist_300_LN_1_LD_20_RN_7_RD_20_1.png","img2/300/Incongruent/L/I_Dist_300_LN_4_LD_5_RN_8_RD_16_0.png","img2/100/Congruent/R/C_Dist_100_LN_6_LD_12_RN_15_RD_25_1.png","img2/300/Incongruent/R/I_Dist_300_LN_4_LD_20_RN_2_RD_4_1.png","img2/200/Incongruent/L/I_Dist_200_LN_1_LD_2_RN_3_RD_10_0.png","img2/200/Incongruent/L/I_Dist_200_LN_1_LD_3_RN_2_RD_15_0.png","img2/300/Incongruent/R/I_Dist_300_LN_13_LD_26_RN_12_RD_15_1.png","img2/200/Incongruent/R/I_Dist_200_LN_3_LD_10_RN_1_RD_2_1.png","img2/200/Incongruent/L/I_Dist_200_LN_4_LD_6_RN_14_RD_30_0.png","img2/200/Congruent/R/C_Dist_200_LN_3_LD_10_RN_14_RD_28_1.png","img2/100/Incongruent/R/I_Dist_100_LN_9_LD_18_RN_6_RD_10_1.png","img2/200/Congruent/L/C_Dist_200_LN_9_LD_20_RN_4_RD_16_0.png","img2/200/Congruent/L/C_Dist_200_LN_16_LD_30_RN_9_RD_27_0.png","img2/300/Congruent/R/C_Dist_300_LN_8_LD_15_RN_10_RD_12_1.png","img2/100/Incongruent/R/I_Dist_100_LN_12_LD_24_RN_9_RD_15_1.png","img2/100/Incongruent/L/I_Dist_100_LN_6_LD_10_RN_7_RD_14_0.png","img2/300/Congruent/L/C_Dist_300_LN_20_LD_25_RN_13_RD_26_0.png","img2/300/Congruent/L/C_Dist_300_LN_4_LD_10_RN_1_RD_10_0.png","img2/300/Incongruent/L/I_Dist_300_LN_2_LD_4_RN_6_RD_30_0.png","img2/100/Congruent/R/C_Dist_100_LN_3_LD_20_RN_4_RD_16_1.png","img2/100/Incongruent/L/I_Dist_100_LN_2_LD_4_RN_8_RD_20_0.png","img2/200/Incongruent/L/I_Dist_200_LN_1_LD_3_RN_2_RD_15_0.png","img2/100/Congruent/L/C_Dist_100_LN_11_LD_22_RN_6_RD_15_0.png","img2/100/Congruent/R/C_Dist_100_LN_6_LD_12_RN_15_RD_25_1.png","img2/100/Incongruent/L/I_Dist_100_LN_9_LD_10_RN_20_RD_25_0.png","img2/100/Congruent/L/C_Dist_100_LN_15_LD_25_RN_13_RD_26_0.png","img2/100/Incongruent/L/I_Dist_100_LN_2_LD_4_RN_8_RD_20_0.png","img2/100/Incongruent/L/I_Dist_100_LN_3_LD_5_RN_11_RD_22_0.png","img2/300/Congruent/R/C_Dist_300_LN_7_LD_14_RN_20_RD_25_1.png","img2/300/Congruent/L/C_Dist_300_LN_20_LD_25_RN_9_RD_18_0.png","img2/100/Congruent/R/C_Dist_100_LN_6_LD_12_RN_15_RD_25_1.png","img2/300/Incongruent/R/I_Dist_300_LN_13_LD_26_RN_12_RD_15_1.png","img2/200/Incongruent/L/I_Dist_200_LN_4_LD_6_RN_14_RD_30_0.png","img2/100/Incongruent/R/I_Dist_100_LN_10_LD_25_RN_8_RD_16_1.png","img2/300/Incongruent/R/I_Dist_300_LN_13_LD_26_RN_12_RD_15_1.png","img2/300/Congruent/R/C_Dist_300_LN_2_LD_20_RN_10_RD_25_1.png","img2/300/Congruent/R/C_Dist_300_LN_8_LD_15_RN_10_RD_12_1.png","img2/300/Congruent/L/C_Dist_300_LN_18_LD_20_RN_9_RD_15_0.png","img2/200/Congruent/L/C_Dist_200_LN_8_LD_15_RN_2_RD_6_0.png","img2/100/Congruent/R/C_Dist_100_LN_4_LD_10_RN_15_RD_30_1.png","img2/300/Congruent/R/C_Dist_300_LN_1_LD_5_RN_6_RD_12_1.png","img2/200/Congruent/L/C_Dist_200_LN_16_LD_20_RN_12_RD_20_0.png","img2/200/Congruent/L/C_Dist_200_LN_6_LD_15_RN_3_RD_15_0.png","img2/200/Congruent/L/C_Dist_200_LN_4_LD_10_RN_3_RD_15_0.png","img2/200/Congruent/R/C_Dist_200_LN_1_LD_2_RN_21_RD_30_1.png","img2/200/Incongruent/R/I_Dist_200_LN_6_LD_20_RN_3_RD_6_1.png","img2/200/Congruent/R/C_Dist_200_LN_9_LD_30_RN_13_RD_26_1.png","img2/100/Incongruent/L/I_Dist_100_LN_9_LD_15_RN_13_RD_26_0.png","img2/200/Incongruent/L/I_Dist_200_LN_4_LD_6_RN_14_RD_30_0.png","img2/300/Incongruent/R/I_Dist_300_LN_4_LD_20_RN_2_RD_4_1.png","img2/300/Incongruent/L/I_Dist_300_LN_4_LD_5_RN_8_RD_16_0.png","img2/100/Congruent/R/C_Dist_100_LN_4_LD_8_RN_6_RD_10_1.png","img2/100/Congruent/R/C_Dist_100_LN_1_LD_2_RN_3_RD_5_1.png","img2/200/Incongruent/L/I_Dist_200_LN_3_LD_4_RN_11_RD_20_0.png","img2/200/Incongruent/L/I_Dist_200_LN_7_LD_10_RN_12_RD_24_0.png","img2/300/Incongruent/L/I_Dist_300_LN_4_LD_5_RN_6_RD_12_0.png","img2/100/Congruent/R/C_Dist_100_LN_1_LD_2_RN_18_RD_30_1.png"],"dist100_C":[["C_Dist_100_LN_10_LD_25_RN_3_RD_10_0.png","C_Dist_100_LN_11_LD_22_RN_4_RD_10_0.png","C_Dist_100_LN_11_LD_22_RN_6_RD_15_0.png","C_Dist_100_LN_15_LD_25_RN_13_RD_26_0.png","C_Dist_100_LN_3_LD_6_RN_2_RD_5_0.png","C_Dist_100_LN_6_LD_20_RN_5_RD_25_0.png","C_Dist_100_LN_8_LD_16_RN_2_RD_5_0.png","C_Dist_100_LN_9_LD_15_RN_8_RD_16_0.png"],["C_Dist_100_LN_1_LD_2_RN_18_RD_30_1.png","C_Dist_100_LN_1_LD_2_RN_3_RD_5_1.png","C_Dist_100_LN_12_LD_30_RN_13_RD_26_1.png","C_Dist_100_LN_2_LD_5_RN_11_RD_22_1.png","C_Dist_100_LN_2_LD_5_RN_6_RD_12_1.png","C_Dist_100_LN_3_LD_20_RN_4_RD_16_1.png","C_Dist_100_LN_4_LD_10_RN_15_RD_30_1.png","C_Dist_100_LN_4_LD_8_RN_6_RD_10_1.png","C_Dist_100_LN_6_LD_12_RN_15_RD_25_1.png","C_Dist_100_LN_7_LD_14_RN_15_RD_25_1.png","C_Dist_100_LN_7_LD_14_RN_9_RD_15_1.png"]],"dist100_I":[["I_Dist_100_LN_1_LD_2_RN_8_RD_20_0.png","I_Dist_100_LN_2_LD_4_RN_6_RD_15_0.png","I_Dist_100_LN_2_LD_4_RN_8_RD_20_0.png","I_Dist_100_LN_3_LD_5_RN_11_RD_22_0.png","I_Dist_100_LN_3_LD_5_RN_8_RD_16_0.png","I_Dist_100_LN_3_LD_6_RN_4_RD_10_0.png","I_Dist_100_LN_3_LD_9_RN_7_RD_30_0.png","I_Dist_100_LN_4_LD_8_RN_8_RD_20_0.png","I_Dist_100_LN_6_LD_10_RN_11_RD_22_0.png","I_Dist_100_LN_6_LD_10_RN_13_RD_26_0.png","I_Dist_100_LN_6_LD_10_RN_7_RD_14_0.png","I_Dist_100_LN_9_LD_10_RN_20_RD_25_0.png","I_Dist_100_LN_9_LD_15_RN_13_RD_26_0.png","I_Dist_100_LN_9_LD_15_RN_14_RD_28_0.png"],["I_Dist_100_LN_10_LD_25_RN_8_RD_16_1.png","I_Dist_100_LN_10_LD_25_RN_9_RD_18_1.png","I_Dist_100_LN_11_LD_22_RN_9_RD_15_1.png","I_Dist_100_LN_12_LD_24_RN_9_RD_15_1.png","I_Dist_100_LN_12_LD_30_RN_2_RD_4_1.png","I_Dist_100_LN_13_LD_26_RN_12_RD_20_1.png","I_Dist_100_LN_13_LD_26_RN_6_RD_10_1.png","I_Dist_100_LN_17_LD_30_RN_10_RD_15_1.png","I_Dist_100_LN_6_LD_12_RN_3_RD_5_1.png","I_Dist_100_LN_8_LD_16_RN_6_RD_10_1.png","I_Dist_100_LN_8_LD_20_RN_1_RD_2_1.png","I_Dist_100_LN_9_LD_18_RN_6_RD_10_1.png"]],"dist100_S":[["E_Dist_100_LN_2_LD_12_RN_2_RD_30_0.png","E_Dist_100_LN_6_LD_10_RN_6_RD_12_0.png"],["E_Dist_100_LN_6_LD_12_RN_6_RD_10_1.png"]],"dist200_C":[["C_Dist_200_LN_11_LD_22_RN_3_RD_10_0.png","C_Dist_200_LN_12_LD_15_RN_6_RD_10_0.png","C_Dist_200_LN_12_LD_20_RN_6_RD_15_0.png","C_Dist_200_LN_14_LD_28_RN_6_RD_20_0.png","C_Dist_200_LN_15_LD_25_RN_4_RD_10_0.png","C_Dist_200_LN_16_LD_20_RN_12_RD_20_0.png","C_Dist_200_LN_16_LD_30_RN_9_RD_27_0.png","C_Dist_200_LN_20_LD_25_RN_9_RD_15_0.png","C_Dist_200_LN_21_LD_30_RN_2_RD_4_0.png","C_Dist_200_LN_4_LD_10_RN_3_RD_15_0.png","C_Dist_200_LN_4_LD_8_RN_3_RD_10_0.png","C_Dist_200_LN_6_LD_15_RN_3_RD_15_0.png","C_Dist_200_LN_7_LD_21_RN_2_RD_15_0.png","C_Dist_200_LN_8_LD_15_RN_2_RD_6_0.png","C_Dist_200_LN_8_LD_15_RN_3_RD_9_0.png","C_Dist_200_LN_8_LD_15_RN_7_RD_21_0.png","C_Dist_200_LN_9_LD_20_RN_4_RD_16_0.png"],["C_Dist_200_LN_1_LD_2_RN_21_RD_30_1.png","C_Dist_200_LN_13_LD_26_RN_14_RD_20_1.png","C_Dist_200_LN_3_LD_10_RN_11_RD_22_1.png","C_Dist_200_LN_3_LD_10_RN_14_RD_28_1.png","C_Dist_200_LN_3_LD_10_RN_7_RD_14_1.png","C_Dist_200_LN_3_LD_12_RN_9_RD_20_1.png","C_Dist_200_LN_3_LD_6_RN_14_RD_20_1.png","C_Dist_200_LN_5_LD_10_RN_14_RD_20_1.png","C_Dist_200_LN_6_LD_12_RN_7_RD_10_1.png","C_Dist_200_LN_6_LD_20_RN_11_RD_22_1.png","C_Dist_200_LN_7_LD_15_RN_18_RD_27_1.png","C_Dist_200_LN_9_LD_30_RN_13_RD_26_1.png"]],"dist200_I":[["I_Dist_200_LN_1_LD_2_RN_3_RD_10_0.png","I_Dist_200_LN_1_LD_3_RN_2_RD_15_0.png","I_Dist_200_LN_3_LD_4_RN_11_RD_20_0.png","I_Dist_200_LN_4_LD_5_RN_6_RD_10_0.png","I_Dist_200_LN_4_LD_6_RN_14_RD_30_0.png","I_Dist_200_LN_7_LD_10_RN_12_RD_24_0.png","I_Dist_200_LN_7_LD_10_RN_14_RD_28_0.png","I_Dist_200_LN_7_LD_10_RN_8_RD_16_0.png"],["I_Dist_200_LN_11_LD_20_RN_3_RD_4_1.png","I_Dist_200_LN_14_LD_30_RN_12_RD_18_1.png","I_Dist_200_LN_14_LD_30_RN_6_RD_9_1.png","I_Dist_200_LN_3_LD_10_RN_1_RD_2_1.png","I_Dist_200_LN_4_LD_30_RN_1_RD_3_1.png","I_Dist_200_LN_6_LD_20_RN_3_RD_6_1.png","I_Dist_200_LN_7_LD_15_RN_4_RD_6_1.png","I_Dist_200_LN_7_LD_15_RN_6_RD_9_1.png","I_Dist_200_LN_9_LD_15_RN_8_RD_10_1.png"]],"dist200_S":[["E_Dist_200_LN_3_LD_6_RN_3_RD_10_0.png"],["E_Dist_200_LN_3_LD_10_RN_3_RD_6_1.png"]],"dist300_C":[["C_Dist_300_LN_11_LD_22_RN_1_RD_5_0.png","C_Dist_300_LN_11_LD_22_RN_2_RD_10_0.png","C_Dist_300_LN_11_LD_22_RN_4_RD_20_0.png","C_Dist_300_LN_12_LD_24_RN_2_RD_10_0.png","C_Dist_300_LN_18_LD_20_RN_9_RD_15_0.png","C_Dist_300_LN_20_LD_25_RN_13_RD_26_0.png","C_Dist_300_LN_20_LD_25_RN_14_RD_28_0.png","C_Dist_300_LN_20_LD_25_RN_5_RD_10_0.png","C_Dist_300_LN_20_LD_25_RN_8_RD_16_0.png","C_Dist_300_LN_20_LD_25_RN_9_RD_18_0.png","C_Dist_300_LN_24_LD_30_RN_2_RD_4_0.png","C_Dist_300_LN_24_LD_30_RN_8_RD_16_0.png","C_Dist_300_LN_3_LD_6_RN_2_RD_10_0.png","C_Dist_300_LN_4_LD_10_RN_1_RD_10_0.png","C_Dist_300_LN_4_LD_5_RN_2_RD_4_0.png","C_Dist_300_LN_8_LD_16_RN_1_RD_5_0.png","C_Dist_300_LN_9_LD_10_RN_3_RD_5_0.png"],["C_Dist_300_LN_1_LD_20_RN_7_RD_20_1.png","C_Dist_300_LN_1_LD_3_RN_19_RD_30_1.png","C_Dist_300_LN_1_LD_30_RN_8_RD_24_1.png","C_Dist_300_LN_1_LD_5_RN_11_RD_22_1.png","C_Dist_300_LN_1_LD_5_RN_3_RD_6_1.png","C_Dist_300_LN_1_LD_5_RN_6_RD_12_1.png","C_Dist_300_LN_2_LD_10_RN_12_RD_24_1.png","C_Dist_300_LN_2_LD_20_RN_10_RD_25_1.png","C_Dist_300_LN_3_LD_12_RN_11_RD_20_1.png","C_Dist_300_LN_3_LD_6_RN_4_RD_5_1.png","C_Dist_300_LN_4_LD_20_RN_13_RD_26_1.png","C_Dist_300_LN_5_LD_25_RN_6_RD_12_1.png","C_Dist_300_LN_5_LD_25_RN_7_RD_14_1.png","C_Dist_300_LN_7_LD_14_RN_20_RD_25_1.png","C_Dist_300_LN_8_LD_15_RN_10_RD_12_1.png"]],"dist300_I":[["I_Dist_300_LN_1_LD_2_RN_2_RD_10_0.png","I_Dist_300_LN_1_LD_2_RN_3_RD_15_0.png","I_Dist_300_LN_2_LD_4_RN_6_RD_30_0.png","I_Dist_300_LN_3_LD_6_RN_4_RD_20_0.png","I_Dist_300_LN_4_LD_5_RN_6_RD_12_0.png","I_Dist_300_LN_4_LD_5_RN_8_RD_16_0.png","I_Dist_300_LN_7_LD_10_RN_8_RD_20_0.png","I_Dist_300_LN_8_LD_10_RN_14_RD_28_0.png","I_Dist_300_LN_8_LD_10_RN_9_RD_18_0.png"],["I_Dist_300_LN_13_LD_26_RN_12_RD_15_1.png","I_Dist_300_LN_4_LD_20_RN_2_RD_4_1.png"]],"dist300_S":[["E_Dist_300_LN_9_LD_12_RN_9_RD_20_0.png"],["E_Dist_300_LN_18_LD_30_RN_18_RD_20_1.png","E_Dist_300_LN_3_LD_10_RN_3_RD_5_1.png","E_Dist_300_LN_9_LD_20_RN_9_RD_12_1.png"]],"dist500_C":[["C_Dist_500_LN_10_LD_13_RN_7_RD_26_0.png","C_Dist_500_LN_10_LD_15_RN_4_RD_24_0.png","C_Dist_500_LN_12_LD_16_RN_3_RD_12_0.png","C_Dist_500_LN_12_LD_18_RN_4_RD_24_0.png","C_Dist_500_LN_15_LD_18_RN_5_RD_15_0.png","C_Dist_500_LN_15_LD_20_RN_1_RD_4_0.png","C_Dist_500_LN_18_LD_27_RN_1_RD_6_0.png","C_Dist_500_LN_20_LD_24_RN_1_RD_3_0.png","C_Dist_500_LN_20_LD_24_RN_3_RD_9_0.png","C_Dist_500_LN_20_LD_24_RN_7_RD_21_0.png","C_Dist_500_LN_20_LD_28_RN_3_RD_14_0.png","C_Dist_500_LN_21_LD_28_RN_6_RD_24_0.png","C_Dist_500_LN_22_LD_28_RN_2_RD_7_0.png","C_Dist_500_LN_25_LD_30_RN_9_RD_27_0.png","C_Dist_500_LN_4_LD_6_RN_1_RD_6_0.png","C_Dist_500_LN_5_LD_6_RN_2_RD_6_0.png","C_Dist_500_LN_6_LD_9_RN_1_RD_6_0.png","C_Dist_500_LN_7_LD_10_RN_1_RD_5_0.png","C_Dist_500_LN_8_LD_12_RN_1_RD_6_0.png","C_Dist_500_LN_8_LD_12_RN_4_RD_24_0.png"],["C_Dist_500_LN_1_LD_4_RN_12_RD_16_1.png","C_Dist_500_LN_1_LD_4_RN_9_RD_12_1.png","C_Dist_500_LN_1_LD_9_RN_11_RD_18_1.png","C_Dist_500_LN_10_LD_24_RN_22_RD_24_1.png","C_Dist_500_LN_2_LD_12_RN_10_RD_15_1.png","C_Dist_500_LN_2_LD_12_RN_12_RD_18_1.png","C_Dist_500_LN_2_LD_12_RN_4_RD_6_1.png","C_Dist_500_LN_2_LD_24_RN_7_RD_12_1.png","C_Dist_500_LN_2_LD_5_RN_18_RD_20_1.png","C_Dist_500_LN_2_LD_5_RN_9_RD_10_1.png","C_Dist_500_LN_2_LD_8_RN_12_RD_16_1.png","C_Dist_500_LN_2_LD_8_RN_21_RD_28_1.png","C_Dist_500_LN_3_LD_10_RN_4_RD_5_1.png","C_Dist_500_LN_3_LD_12_RN_15_RD_20_1.png","C_Dist_500_LN_3_LD_30_RN_6_RD_10_1.png","C_Dist_500_LN_3_LD_8_RN_14_RD_16_1.png","C_Dist_500_LN_4_LD_16_RN_15_RD_20_1.png","C_Dist_500_LN_4_LD_24_RN_12_RD_18_1.png","C_Dist_500_LN_5_LD_14_RN_6_RD_7_1.png","C_Dist_500_LN_7_LD_21_RN_20_RD_24_1.png","C_Dist_500_LN_7_LD_28_RN_12_RD_16_1.png","C_Dist_500_LN_7_LD_28_RN_9_RD_12_1.png","C_Dist_500_LN_9_LD_27_RN_20_RD_24_1.png"]],"dist500_I":[["I_Dist_500_LN_2_LD_3_RN_4_RD_24_0.png","I_Dist_500_LN_5_LD_6_RN_6_RD_18_0.png","I_Dist_500_LN_7_LD_8_RN_9_RD_24_0.png"],["I_Dist_500_LN_7_LD_21_RN_5_RD_6_1.png"]],"dist500_S":[["E_Dist_500_LN_6_LD_8_RN_6_RD_24_0.png"],["E_Dist_500_LN_2_LD_12_RN_2_RD_3_1.png","E_Dist_500_LN_6_LD_24_RN_6_RD_8_1.png"]]}},{"start_time":1552073738870,"click_time":1552073740078,"finger_time":1552073739976,"fix_duration":831.0806084306871,"trial":1,"RT":1106,"MT":102,"sideResp":2,"stimulus":[],"xmouse":[797,797,797,797,797,797,797,797,797,797,797,797,797,797,797,797,797,797,797,797,797,797,797,797,797,798,799,799,799,799,799,799,799,799,799,799,799,798,796,795,795,795,795,795,795,795,795,795,795,796,803,808,812,818,824,843,863,905,979,1115,1153],"ymouse":[510,510,510,510,510,510,510,510,510,510,510,510,510,510,510,510,510,510,510,510,510,510,510,510,510,510,508,507,507,507,507,507,507,507,507,507,507,506,506,506,506,506,506,506,506,506,506,506,506,506,501,499,495,493,491,490,485,454,368,127,32],"timestamp_mouse":[13,35,47,67,87,106,127,147,167,186,207,226,247,266,287,308,326,347,367,386,407,428,447,467,486,506,528,548,567,587,606,628,648,667,687,707,728,746,767,786,807,826,848,867,887,906,927,947,968,986,1006,1026,1047,1066,1086,1106,1127,1147,1167,1187,1207],"xSR":741.5,"ySR":469.95,"xT1":424.9,"yT1":0,"xT2":1058.1,"yT2":0,"toosoon":0,"cond_shown":"Incongruent","ratio_trial":200,"L_num":1,"L_den":2,"R_num":3,"R_den":10,"correct_side":1,"subjID":"Alejandra Caycedo Moreno23","gender":"1","school":"4","age":"9"},{"start_time":1552073743879,"click_time":1552073745696,"finger_time":1552073745077,"fix_duration":461.61166061015393,"trial":2,"RT":1198,"MT":619,"sideResp":1,"stimulus":[],"xmouse":[804,803,802,801,797,796,795,795,795,795,795,795,795,795,795,794,793,792,791,788,785,783,782,781,781,781,781,781,781,781,781,781,781,781,781,781,781,781,781,781,781,781,781,781,779,774,773,772,772,772,772,772,772,772,772,771,767,759,748,725,719,718,718,716,714,711,703,689,669,616,599,588,582,575,568,564,563,563,563,562,562,562,557,552,543,542,540,531,513,492,446],"ymouse":[515,514,512,511,509,509,509,509,509,509,509,509,509,509,509,509,509,509,509,509,509,509,509,509,509,509,509,509,509,509,509,509,509,509,509,509,509,509,509,509,509,509,509,509,509,510,511,511,511,511,511,511,511,511,511,511,511,511,511,510,509,509,509,508,504,500,491,480,465,425,406,386,361,335,288,270,268,268,267,262,255,243,222,200,168,166,163,157,141,116,71],"timestamp_mouse":[18,45,57,78,97,117,138,157,178,197,218,238,258,279,297,318,337,359,378,397,417,438,457,478,498,519,538,557,579,599,618,637,658,679,697,717,738,759,778,797,817,838,858,878,897,918,937,959,978,997,1018,1037,1058,1078,1097,1118,1137,1157,1177,1198,1217,1238,1258,1277,1299,1317,1338,1358,1378,1398,1417,1438,1458,1477,1498,1517,1538,1557,1577,1599,1617,1637,1658,1679,1698,1717,1737,1757,1777,1797,1817],"xSR":741.5,"ySR":469.95,"xT1":424.9,"yT1":0,"xT2":1058.1,"yT2":0,"toosoon":0,"cond_shown":"Congruent","ratio_trial":300,"L_num":5,"L_den":25,"R_num":6,"R_den":12,"correct_side":2,"subjID":"Alejandra Caycedo Moreno23","gender":"1","school":"4","age":"9"},{"start_time":1552073749520,"click_time":1552073750777,"finger_time":1552073750196,"fix_duration":460.7329825991747,"trial":3,"RT":676,"MT":581,"sideResp":2,"stimulus":[],"xmouse":[770,770,770,770,770,770,770,770,770,770,770,770,770,770,770,770,770,770,770,770,770,770,770,770,770,770,770,770,770,770,771,779,787,827,853,878,896,910,935,943,948,949,949,949,949,949,949,949,949,949,950,952,956,985,1003,1014,1018,1021,1027,1036,1047,1059,1073],"ymouse":[508,508,508,508,508,508,508,508,508,508,508,508,508,508,508,508,508,508,508,508,508,508,508,508,508,508,508,508,508,508,505,495,482,422,390,363,342,326,289,273,259,238,229,220,219,219,219,219,217,212,208,202,196,180,170,160,150,142,133,126,117,102,77],"timestamp_mouse":[17,39,56,77,96,116,136,157,177,197,216,237,256,276,296,316,338,356,377,397,416,438,456,477,496,516,538,557,576,596,616,636,656,676,696,716,737,756,777,796,816,836,856,876,896,916,936,957,976,997,1016,1036,1056,1076,1096,1117,1137,1157,1176,1197,1217,1236,1257],"xSR":741.5,"ySR":469.95,"xT1":424.9,"yT1":0,"xT2":1058.1,"yT2":0,"toosoon":0,"cond_shown":"Incongruent","ratio_trial":200,"L_num":3,"L_den":4,"R_num":11,"R_den":20,"correct_side":1,"subjID":"Alejandra Caycedo Moreno23","gender":"1","school":"4","age":"9"},{"start_time":1552073754969,"click_time":1552073756878,"finger_time":1552073756377,"fix_duration":250,"trial":4,"RT":1408,"MT":501,"sideResp":2,"stimulus":[],"xmouse":[770,770,770,770,770,770,770,770,770,770,770,770,770,770,770,770,770,770,770,770,770,770,770,770,770,770,770,770,770,770,770,770,770,770,770,770,770,770,770,770,770,770,770,770,770,770,770,770,770,770,770,770,770,770,770,770,770,770,770,770,770,770,770,770,770,772,783,793,803,815,833,860,872,886,910,919,945,967,976,982,988,994,1007,1012,1015,1020,1027,1038,1041,1045,1047,1049,1054,1057,1057,1064],"ymouse":[540,540,540,540,540,540,540,540,540,540,540,540,540,540,540,540,540,540,540,540,540,540,540,540,540,540,540,540,540,540,540,540,540,540,540,540,540,540,540,540,540,540,540,540,540,540,540,540,540,540,540,540,540,540,540,540,540,540,540,540,540,540,540,540,540,540,525,510,493,471,442,395,375,358,334,326,296,249,232,217,204,191,161,140,104,81,65,46,43,42,42,42,42,42,42,42],"timestamp_mouse":[12,28,47,69,87,107,127,147,169,188,208,228,248,267,288,308,329,348,368,387,408,428,448,468,488,508,528,547,568,587,607,628,647,667,688,707,728,749,767,788,808,827,847,868,888,908,928,947,969,987,1008,1028,1048,1068,1087,1107,1127,1147,1168,1188,1209,1228,1247,1267,1287,1308,1328,1349,1367,1388,1407,1429,1447,1469,1487,1508,1528,1547,1567,1587,1607,1629,1647,1668,1687,1708,1729,1748,1768,1788,1807,1827,1847,1867,1888,1909],"xSR":741.5,"ySR":469.95,"xT1":424.9,"yT1":0,"xT2":1058.1,"yT2":0,"toosoon":0,"cond_shown":"Congruent","ratio_trial":200,"L_num":6,"L_den":20,"R_num":11,"R_den":22,"correct_side":2,"subjID":"Alejandra Caycedo Moreno23","gender":"1","school":"4","age":"9"},{"start_time":1552073759014,"click_time":1552073760018,"finger_time":1552073759856,"fix_duration":295.6878451681231,"trial":5,"RT":842,"MT":162,"sideResp":2,"stimulus":[],"xmouse":[792,792,792,792,792,792,792,792,792,792,792,792,792,792,792,792,792,792,792,792,792,792,792,792,792,792,792,792,792,792,792,792,792,792,792,792,792,792,792,795,802,816,855,884,916,971,994,1012,1029,1047,1094],"ymouse":[513,513,513,513,513,513,513,513,513,513,513,513,513,513,513,513,513,513,513,513,513,513,513,513,513,513,513,513,513,513,513,513,513,513,513,513,513,513,513,511,502,486,432,384,326,225,188,168,149,127,61],"timestamp_mouse":[13,31,42,63,82,103,123,143,162,182,203,224,242,263,283,303,323,342,364,383,404,423,443,463,482,502,522,544,563,583,604,622,643,662,683,702,724,742,762,783,802,823,842,863,883,902,922,942,963,982,1004],"xSR":741.5,"ySR":469.95,"xT1":424.9,"yT1":0,"xT2":1058.1,"yT2":0,"toosoon":0,"cond_shown":"Congruent","ratio_trial":300,"L_num":1,"L_den":5,"R_num":6,"R_den":12,"correct_side":2,"subjID":"Alejandra Caycedo Moreno23","gender":"1","school":"4","age":"9"},{"start_time":1552073763654,"click_time":1552073764558,"finger_time":1552073764077,"fix_duration":1175.212742803851,"trial":6,"RT":423,"MT":481,"sideResp":2,"stimulus":[],"xmouse":[787,787,787,787,787,787,787,787,787,787,787,787,787,787,787,789,791,795,798,807,816,830,850,888,960,987,1004,1013,1018,1021,1021,1021,1023,1023,1023,1023,1023,1023,1023,1024,1024,1028,1033,1050,1055,1059],"ymouse":[514,514,514,514,514,514,514,514,514,514,514,514,514,514,514,512,510,506,502,491,480,465,445,413,351,325,293,261,228,217,213,210,208,208,208,208,208,205,199,179,162,136,103,48,29,3],"timestamp_mouse":[9,39,42,64,84,102,122,143,163,182,203,224,242,264,283,303,323,343,362,383,402,423,442,462,482,503,522,543,562,582,602,622,643,664,682,704,724,743,762,782,803,822,842,863,882,903],"xSR":741.5,"ySR":469.95,"xT1":424.9,"yT1":0,"xT2":1058.1,"yT2":0,"toosoon":0,"cond_shown":"Incongruent","ratio_trial":300,"L_num":8,"L_den":10,"R_num":14,"R_den":28,"correct_side":1,"subjID":"Alejandra Caycedo Moreno23","gender":"1","school":"4","age":"9"},{"start_time":1552073771462,"click_time":1552073773038,"finger_time":1552073771997,"fix_duration":323.0098326766526,"trial":7,"RT":535,"MT":1041,"sideResp":1,"stimulus":[],"xmouse":[768,768,768,768,768,768,768,768,768,768,768,768,768,768,768,768,768,768,769,772,775,778,780,781,784,786,788,789,789,789,789,789,775,750,646,565,485,425,389,388,388,386,378,341,330,329,328,328,333,354,362,368,369,370,376,385,398,408,417,417,417,416,416,416,418,421,423,423,423,423,423,423,423,423,423,423,423,424,426],"ymouse":[513,512,512,512,512,512,512,512,512,512,512,512,512,512,512,512,512,512,510,507,501,497,491,483,474,471,467,464,463,463,463,463,458,450,417,379,335,295,256,252,246,237,222,162,148,142,137,134,132,125,123,119,116,115,112,111,109,105,98,95,93,92,92,92,74,57,35,15,5,5,5,5,5,5,5,5,5,5,5],"timestamp_mouse":[16,35,56,75,95,114,134,154,174,196,215,236,254,275,294,314,335,356,374,394,415,435,455,475,495,514,535,554,575,595,614,635,655,675,696,715,736,755,775,794,815,834,855,876,894,914,935,954,974,994,1015,1034,1055,1074,1094,1115,1134,1154,1176,1194,1214,1239,1254,1276,1294,1315,1334,1355,1376,1394,1415,1435,1455,1474,1495,1515,1534,1554,1575],"xSR":741.5,"ySR":469.95,"xT1":424.9,"yT1":0,"xT2":1058.1,"yT2":0,"toosoon":0,"cond_shown":"Incongruent","ratio_trial":100,"L_num":13,"L_den":26,"R_num":6,"R_den":10,"correct_side":2,"subjID":"Alejandra Caycedo Moreno23","gender":"1","school":"4","age":"9"},{"start_time":1552073777629,"click_time":1552073779136,"finger_time":1552073778657,"fix_duration":250,"trial":8,"RT":1028,"MT":479,"sideResp":1,"stimulus":[],"xmouse":[792,792,792,792,792,792,791,791,791,791,791,790,790,790,790,790,790,790,790,790,790,790,790,790,790,790,790,790,790,790,790,790,790,790,790,790,790,790,790,790,789,783,773,765,761,758,754,752,750,748,743,717,684,665,647,631,596,587,573,560,550,544,544,544,548,555,560,556,542,536,536,536,514,513,510,505],"ymouse":[551,551,551,551,551,551,550,550,549,546,545,544,543,543,543,543,543,543,543,543,543,543,543,543,543,543,543,543,543,543,543,543,543,543,543,543,543,543,543,543,541,535,530,524,521,519,517,517,516,515,513,498,478,463,445,419,338,300,253,212,185,167,167,165,157,140,67,32,9,3,3,3,0,0,0,3],"timestamp_mouse":[9,35,49,68,88,107,129,148,168,187,207,227,247,267,287,307,327,347,367,387,408,427,447,467,487,508,527,547,569,588,608,627,648,669,688,707,727,748,768,789,808,827,848,867,887,907,927,947,968,987,1008,1028,1047,1068,1087,1107,1128,1147,1167,1188,1209,1227,1248,1267,1288,1307,1328,1347,1367,1387,1408,1427,1448,1467,1489,1507],"xSR":741.5,"ySR":469.95,"xT1":424.9,"yT1":0,"xT2":1058.1,"yT2":0,"toosoon":0,"cond_shown":"Congruent","ratio_trial":100,"L_num":15,"L_den":25,"R_num":13,"R_den":26,"correct_side":1,"subjID":"Alejandra Caycedo Moreno23","gender":"1","school":"4","age":"9"},{"start_time":1552073780939,"click_time":1552073781976,"finger_time":1552073781576,"fix_duration":500.7353999955387,"trial":9,"RT":637,"MT":400,"sideResp":2,"stimulus":[],"xmouse":[774,774,774,774,774,774,774,774,774,774,774,774,774,774,774,774,774,774,774,774,774,774,774,774,774,774,774,774,780,787,828,865,899,930,952,981,985,989,992,996,1006,1010,1012,1013,1013,1014,1019,1024,1034,1046,1054,1067],"ymouse":[509,509,509,509,509,509,509,509,509,509,509,509,509,509,509,509,509,509,509,509,509,509,509,509,509,509,509,509,507,504,474,435,382,324,275,181,162,148,139,130,116,111,108,107,107,106,106,106,106,106,104,85],"timestamp_mouse":[18,38,57,78,97,118,138,157,178,198,217,239,258,278,299,318,338,357,378,398,418,437,457,479,497,517,537,558,577,598,618,637,657,677,699,719,737,758,777,797,818,837,857,878,898,917,939,957,978,997,1019,1037],"xSR":741.5,"ySR":469.95,"xT1":424.9,"yT1":0,"xT2":1058.1,"yT2":0,"toosoon":0,"cond_shown":"Incongruent","ratio_trial":300,"L_num":4,"L_den":20,"R_num":2,"R_den":4,"correct_side":2,"subjID":"Alejandra Caycedo Moreno23","gender":"1","school":"4","age":"9"},{"start_time":1552073784450,"click_time":1552073785236,"finger_time":1552073784917,"fix_duration":1191.786217088421,"trial":10,"RT":467,"MT":319,"sideResp":2,"stimulus":[],"xmouse":[778,778,778,778,778,778,778,778,778,778,778,780,781,783,784,786,791,793,794,798,801,818,834,851,868,886,915,928,942,961,973,997,1009,1022,1033,1040,1050,1054,1058,1065],"ymouse":[529,529,529,529,529,529,529,529,529,529,529,529,529,529,529,528,526,524,523,519,515,497,479,457,432,406,360,337,316,283,260,218,200,181,167,155,131,118,104,85],"timestamp_mouse":[13,42,46,66,86,106,128,147,166,187,206,227,246,267,286,306,326,347,366,387,407,426,446,467,487,506,526,546,567,587,607,627,646,667,687,707,726,746,766,786],"xSR":741.5,"ySR":469.95,"xT1":424.9,"yT1":0,"xT2":1058.1,"yT2":0,"toosoon":0,"cond_shown":"Congruent","ratio_trial":300,"L_num":5,"L_den":25,"R_num":7,"R_den":14,"correct_side":2,"subjID":"Alejandra Caycedo Moreno23","gender":"1","school":"4","age":"9"},{"start_time":1552073789831,"click_time":1552073790257,"finger_time":1552073790036,"fix_duration":1433.931898722372,"trial":11,"RT":205,"MT":221,"sideResp":2,"stimulus":[],"xmouse":[777,777,778,778,779,779,780,781,784,786,788,791,798,801,801,801,801,801,841,926,1024,1144],"ymouse":[492,492,491,490,489,489,487,486,478,473,469,463,449,441,439,439,439,439,397,312,197,31],"timestamp_mouse":[12,34,47,66,85,105,125,145,165,185,205,225,247,269,285,305,325,345,365,385,405,426],"xSR":741.5,"ySR":469.95,"xT1":424.9,"yT1":0,"xT2":1058.1,"yT2":0,"toosoon":0,"cond_shown":"Incongruent","ratio_trial":300,"L_num":4,"L_den":20,"R_num":2,"R_den":4,"correct_side":2,"subjID":"Alejandra Caycedo Moreno23","gender":"1","school":"4","age":"9"},{"start_time":1552073792392,"click_time":1552073793897,"finger_time":1552073792637,"fix_duration":994.5180466539816,"trial":12,"RT":245,"MT":1260,"sideResp":2,"stimulus":[],"xmouse":[805,805,805,805,805,805,805,805,805,806,810,811,814,818,823,832,840,843,855,861,880,889,901,912,922,936,942,945,947,948,953,958,961,965,970,992,1013,1043,1043,1043,1043,1043,1043,1043,1043,1043,1043,1043,1043,1043,1043,1043,1043,1043,1043,1043,1043,1043,1043,1043,1043,1043,1043,1043,1043,1043,1043,1043,1043,1043,1043,1043,1043,1043,1043,1083],"ymouse":[496,496,496,495,494,492,490,487,484,482,475,471,466,459,453,444,436,432,420,410,385,372,354,338,321,294,283,275,264,257,239,232,223,216,206,158,92,12,12,12,12,12,12,12,12,12,12,12,12,12,12,12,12,12,12,12,12,12,12,12,12,12,12,12,12,12,12,12,12,12,12,12,12,12,12,11],"timestamp_mouse":[10,39,45,64,84,104,124,144,166,184,205,224,245,264,284,304,325,344,365,384,404,424,445,464,484,504,524,544,564,584,605,624,644,664,685,705,725,744,765,784,804,825,845,864,885,904,924,945,964,984,1005,1025,1045,1065,1084,1105,1124,1145,1164,1186,1205,1224,1244,1264,1284,1305,1324,1345,1364,1386,1404,1424,1444,1464,1486,1504],"xSR":741.5,"ySR":469.95,"xT1":424.9,"yT1":0,"xT2":1058.1,"yT2":0,"toosoon":0,"cond_shown":"Incongruent","ratio_trial":100,"L_num":3,"L_den":9,"R_num":7,"R_den":30,"correct_side":1,"subjID":"Alejandra Caycedo Moreno23","gender":"1","school":"4","age":"9"},{"start_time":1552073799468,"click_time":1552073800537,"finger_time":1552073800136,"fix_duration":250,"trial":13,"RT":668,"MT":401,"sideResp":2,"stimulus":[],"xmouse":[775,775,775,775,775,775,775,775,775,775,775,775,775,775,775,775,775,775,775,775,775,775,775,775,775,775,775,775,775,775,775,775,781,787,796,809,827,870,900,959,973,996,1006,1017,1031,1040,1043,1043,1041,1039,1039,1039,1059,1068],"ymouse":[511,511,511,511,511,511,511,511,511,511,511,511,511,511,511,511,511,511,511,511,511,511,511,511,511,511,511,511,511,511,509,502,482,467,450,432,414,379,359,326,314,280,243,222,202,185,171,153,149,148,147,137,108,91],"timestamp_mouse":[14,28,48,68,89,108,129,150,168,189,209,229,249,269,289,309,329,349,369,389,409,429,449,470,488,509,529,548,568,588,609,629,648,668,689,708,728,749,768,788,809,829,848,868,889,909,929,948,970,989,1008,1028,1048,1068],"xSR":741.5,"ySR":469.95,"xT1":424.9,"yT1":0,"xT2":1058.1,"yT2":0,"toosoon":0,"cond_shown":"Congruent","ratio_trial":200,"L_num":6,"L_den":20,"R_num":11,"R_den":22,"correct_side":2,"subjID":"Alejandra Caycedo Moreno23","gender":"1","school":"4","age":"9"},{"start_time":1552073803209,"click_time":1552073805917,"finger_time":1552073805336,"fix_duration":250,"trial":14,"RT":2127,"MT":581,"sideResp":1,"stimulus":[],"xmouse":[754,754,754,754,754,754,754,754,754,754,754,754,754,754,754,754,754,754,754,754,754,754,754,754,754,754,754,754,754,754,754,754,754,754,754,754,754,754,754,754,754,754,754,754,754,754,754,754,754,754,754,754,754,754,754,754,754,754,754,754,754,754,754,754,754,754,754,754,754,754,754,755,757,758,758,760,761,762,762,763,764,766,767,767,767,767,767,768,768,768,768,768,768,768,768,768,768,768,768,768,768,768,768,768,768,768,768,768,768,768,765,750,724,695,673,632,613,587,553,514,470,466,466,467,473,482,483,483,483,483,483,490,498,504,505,504],"ymouse":[545,545,545,545,545,545,545,545,545,545,545,545,545,545,545,545,545,545,545,545,545,545,545,545,545,545,545,545,545,545,545,545,545,545,545,545,545,545,545,545,545,545,545,545,545,545,545,545,545,545,545,545,545,545,545,545,545,545,545,545,545,545,545,545,545,545,545,545,545,543,540,535,531,529,528,525,524,522,522,521,521,520,520,520,520,520,520,519,519,519,519,519,519,519,519,519,519,519,519,519,519,519,519,515,506,481,469,462,457,454,433,407,377,351,334,308,297,283,264,245,214,204,198,193,187,179,174,167,160,153,146,136,130,119,106,88],"timestamp_mouse":[10,27,47,67,88,107,127,148,167,187,207,227,247,267,287,307,327,347,367,389,408,429,447,468,488,508,529,547,567,588,607,627,647,668,688,707,729,747,768,787,807,827,847,867,888,908,928,948,968,988,1008,1027,1048,1068,1088,1108,1127,1147,1168,1188,1208,1228,1247,1267,1288,1308,1327,1349,1367,1387,1407,1428,1447,1468,1488,1507,1527,1547,1567,1588,1607,1627,1647,1668,1687,1708,1728,1747,1768,1787,1807,1827,1847,1867,1887,1908,1927,1948,1967,1988,2007,2027,2047,2067,2087,2107,2127,2149,2168,2188,2209,2229,2247,2268,2287,2308,2327,2347,2368,2388,2408,2427,2447,2467,2487,2508,2527,2547,2567,2588,2608,2627,2647,2668,2687,2707],"xSR":741.5,"ySR":469.95,"xT1":424.9,"yT1":0,"xT2":1058.1,"yT2":0,"toosoon":0,"cond_shown":"Incongruent","ratio_trial":100,"L_num":12,"L_den":30,"R_num":2,"R_den":4,"correct_side":2,"subjID":"Alejandra Caycedo Moreno23","gender":"1","school":"4","age":"9"},{"start_time":1552073809738,"click_time":1552073810737,"finger_time":1552073810296,"fix_duration":1180.5382412848883,"trial":15,"RT":558,"MT":441,"sideResp":1,"stimulus":[],"xmouse":[773,773,773,773,773,773,773,773,773,773,773,773,773,773,773,773,773,773,773,773,773,773,772,772,770,764,751,727,681,503,414,370,357,355,347,321,306,306,306,306,306,306,306,306,306,306,306,378,400,429],"ymouse":[522,522,522,522,522,522,522,522,522,522,522,522,522,522,522,522,522,522,522,522,522,522,522,521,516,511,503,495,476,411,375,344,303,218,93,31,5,5,5,5,5,5,5,5,5,5,5,9,24,43],"timestamp_mouse":[18,45,58,79,98,119,139,158,179,198,220,239,260,279,298,318,338,358,378,399,418,439,458,478,498,518,539,558,579,598,619,638,658,678,698,719,738,759,778,798,818,838,858,878,898,918,939,958,978,998],"xSR":741.5,"ySR":469.95,"xT1":424.9,"yT1":0,"xT2":1058.1,"yT2":0,"toosoon":0,"cond_shown":"Incongruent","ratio_trial":300,"L_num":3,"L_den":6,"R_num":4,"R_den":20,"correct_side":1,"subjID":"Alejandra Caycedo Moreno23","gender":"1","school":"4","age":"9"},{"start_time":1552073812521,"click_time":1552073813637,"finger_time":1552073813096,"fix_duration":423.5897416746611,"trial":16,"RT":575,"MT":541,"sideResp":2,"stimulus":[],"xmouse":[784,784,784,784,784,784,784,784,784,784,784,784,784,784,784,784,784,782,780,776,761,753,751,750,750,750,750,757,767,778,804,810,827,838,852,886,899,908,914,920,930,941,950,959,968,991,1005,1017,1026,1033,1047,1053,1055,1057,1058,1062],"ymouse":[528,528,528,528,528,528,528,528,528,528,528,528,528,528,528,528,528,525,521,515,495,485,482,479,478,477,475,472,469,463,436,428,410,399,384,348,326,300,274,254,226,212,199,183,163,121,105,92,82,74,64,60,58,56,56,56],"timestamp_mouse":[16,37,56,75,96,115,136,156,175,196,215,236,257,275,296,317,336,356,375,395,415,435,455,476,495,515,535,555,575,595,616,635,655,676,697,715,735,755,775,797,815,835,855,875,896,915,935,956,976,995,1016,1035,1055,1075,1096,1116],"xSR":741.5,"ySR":469.95,"xT1":424.9,"yT1":0,"xT2":1058.1,"yT2":0,"toosoon":0,"cond_shown":"Incongruent","ratio_trial":300,"L_num":4,"L_den":20,"R_num":2,"R_den":4,"correct_side":2,"subjID":"Alejandra Caycedo Moreno23","gender":"1","school":"4","age":"9"},{"start_time":1552073815228,"click_time":1552073816657,"finger_time":1552073815716,"fix_duration":250,"trial":17,"RT":488,"MT":941,"sideResp":2,"stimulus":[],"xmouse":[779,779,778,778,778,778,778,778,778,778,778,778,778,778,778,778,778,777,776,776,775,775,776,778,779,781,802,814,826,843,864,904,918,926,935,968,985,1002,1012,1018,1020,1020,1025,1025,1025,1025,1025,1025,1025,1025,1025,1025,1025,1025,1025,1025,1025,1025,1025,1025,1025,1025,1025,1025,1025,1025,1025,1025,1025,1025,1062,1064],"ymouse":[520,520,521,521,521,521,521,521,521,521,521,521,521,521,521,521,518,516,511,507,502,487,478,472,468,464,442,430,411,387,361,319,305,297,286,242,222,203,186,164,135,56,18,18,18,18,18,18,18,18,18,18,18,18,18,18,18,18,18,18,18,18,18,18,18,18,18,18,18,18,0,14],"timestamp_mouse":[20,38,48,68,88,108,128,150,169,190,208,228,248,269,288,308,328,348,368,389,408,428,449,468,488,508,530,548,568,589,609,628,648,668,689,726,728,748,768,788,808,828,850,869,890,909,930,950,968,988,1019,1029,1048,1068,1088,1108,1128,1149,1168,1188,1209,1229,1249,1268,1289,1309,1328,1349,1369,1388,1408,1428],"xSR":741.5,"ySR":469.95,"xT1":424.9,"yT1":0,"xT2":1058.1,"yT2":0,"toosoon":0,"cond_shown":"Congruent","ratio_trial":100,"L_num":11,"L_den":22,"R_num":4,"R_den":10,"correct_side":1,"subjID":"Alejandra Caycedo Moreno23","gender":"1","school":"4","age":"9"},{"start_time":1552073824927,"click_time":1552073825856,"finger_time":1552073825436,"fix_duration":948.1578780036853,"trial":18,"RT":509,"MT":420,"sideResp":2,"stimulus":[],"xmouse":[771,771,771,771,771,771,771,771,771,771,771,771,771,771,771,771,771,771,771,771,771,771,774,780,786,795,816,860,882,895,904,916,920,930,934,939,945,952,957,960,965,984,1002,1022,1041,1048,1066],"ymouse":[493,493,493,493,493,493,493,493,493,493,493,493,493,493,493,493,493,493,493,493,493,493,488,480,470,459,442,411,393,373,355,312,288,260,233,213,189,170,165,161,159,153,148,138,114,103,72],"timestamp_mouse":[10,40,49,69,89,110,129,149,169,190,209,229,249,269,290,310,329,349,371,389,410,429,449,470,489,509,529,550,569,590,609,631,650,669,690,709,729,749,769,789,809,831,849,870,890,910,929],"xSR":741.5,"ySR":469.95,"xT1":424.9,"yT1":0,"xT2":1058.1,"yT2":0,"toosoon":0,"cond_shown":"Incongruent","ratio_trial":200,"L_num":14,"L_den":30,"R_num":6,"R_den":9,"correct_side":2,"subjID":"Alejandra Caycedo Moreno23","gender":"1","school":"4","age":"9"},{"start_time":1552073828303,"click_time":1552073828998,"finger_time":1552073828636,"fix_duration":1244.5238545695365,"trial":19,"RT":333,"MT":362,"sideResp":1,"stimulus":[],"xmouse":[782,782,782,782,782,782,782,782,782,782,782,782,782,782,777,753,718,682,644,635,624,610,597,569,559,548,544,544,542,541,538,534,527,506,497],"ymouse":[517,517,517,517,517,517,517,517,517,517,517,517,517,517,514,495,466,433,378,356,331,299,267,215,196,182,178,177,170,165,160,151,141,112,97],"timestamp_mouse":[14,36,53,73,93,113,134,153,173,194,213,234,254,274,293,313,333,353,374,393,414,433,453,474,493,513,534,553,573,593,615,634,653,673,694],"xSR":741.5,"ySR":469.95,"xT1":424.9,"yT1":0,"xT2":1058.1,"yT2":0,"toosoon":0,"cond_shown":"Congruent","ratio_trial":200,"L_num":3,"L_den":6,"R_num":14,"R_den":20,"correct_side":2,"subjID":"Alejandra Caycedo Moreno23","gender":"1","school":"4","age":"9"},{"start_time":1552073831269,"click_time":1552073835157,"finger_time":1552073832176,"fix_duration":1231.966791649899,"trial":20,"RT":907,"MT":2981,"sideResp":1,"stimulus":[],"xmouse":[770,770,770,770,770,770,769,769,769,769,769,769,769,769,769,769,769,769,769,768,768,768,767,767,767,767,767,767,767,766,766,765,765,764,764,762,762,761,760,760,758,755,753,751,747,732,727,723,719,715,708,706,705,703,702,694,690,688,686,686,685,685,685,685,685,685,685,685,685,687,700,709,715,718,720,722,722,722,722,717,714,714,714,714,714,727,727,727,727,727,730,732,734,735,736,741,744,747,751,754,755,757,759,761,762,762,762,763,764,764,764,764,764,764,765,768,769,769,771,772,774,776,776,776,776,776,776,776,776,776,776,776,776,776,776,776,776,776,776,776,776,776,776,776,776,776,776,776,776,776,776,776,776,776,776,776,776,776,776,776,776,775,769,767,764,764,752,732,712,699,681,670,657,647,639,620,614,612,610,609,606,594,588,581,579,577,569,557,540,518,494,481,481,481,481],"ymouse":[503,503,503,503,503,503,503,502,502,502,502,502,502,502,502,502,502,502,502,502,500,498,498,496,496,495,495,495,494,494,493,492,490,489,489,486,485,484,483,482,480,479,477,475,473,463,460,457,453,447,437,433,430,425,423,410,404,400,397,396,395,394,394,394,394,394,394,394,397,405,430,441,448,451,453,454,454,454,454,454,454,454,454,454,454,459,459,459,459,459,462,463,463,465,465,469,471,475,479,482,484,488,490,492,494,494,494,495,495,495,495,495,495,496,497,498,499,499,500,502,504,505,506,506,506,506,506,506,506,506,506,506,506,506,506,506,506,506,506,506,506,506,506,506,506,506,506,506,506,506,506,506,506,506,506,506,506,506,506,506,506,506,506,506,505,504,494,476,457,442,413,393,369,351,332,294,285,279,275,270,263,243,240,238,238,238,227,210,189,159,130,106,102,100,98],"timestamp_mouse":[16,45,47,67,87,107,128,147,167,188,207,227,249,267,287,307,328,347,368,387,407,428,448,468,488,507,527,547,567,589,608,627,647,667,687,708,728,747,767,788,807,828,848,868,888,907,928,947,967,987,1009,1027,1047,1067,1088,1108,1127,1147,1169,1188,1208,1228,1247,1267,1287,1307,1327,1347,1368,1388,1408,1427,1448,1467,1489,1508,1528,1547,1568,1587,1608,1628,1647,1667,1687,1707,1727,1748,1768,1787,1807,1827,1848,1867,1888,1908,1927,1947,1967,1989,2007,2027,2048,2067,2087,2107,2128,2148,2168,2187,2207,2228,2248,2267,2287,2307,2328,2347,2368,2387,2407,2428,2448,2468,2488,2507,2527,2549,2568,2587,2608,2628,2648,2668,2688,2707,2728,2748,2767,2788,2808,2828,2847,2867,2888,2907,2928,2947,2967,2988,3008,3027,3048,3068,3088,3109,3128,3148,3168,3188,3207,3227,3248,3267,3288,3307,3327,3347,3368,3387,3409,3427,3448,3467,3488,3508,3527,3547,3567,3588,3609,3627,3648,3667,3687,3707,3727,3747,3768,3787,3807,3827,3847,3868,3887],"xSR":741.5,"ySR":469.95,"xT1":424.9,"yT1":0,"xT2":1058.1,"yT2":0,"toosoon":0,"cond_shown":"Congruent","ratio_trial":100,"L_num":7,"L_den":14,"R_num":15,"R_den":25,"correct_side":2,"subjID":"Alejandra Caycedo Moreno23","gender":"1","school":"4","age":"9"},{"start_time":1552073839699,"click_time":1552073840757,"finger_time":1552073840256,"fix_duration":841.7591817371475,"trial":21,"RT":557,"MT":501,"sideResp":2,"stimulus":[],"xmouse":[766,766,766,766,766,766,766,766,766,766,766,766,766,766,766,766,766,766,766,766,766,766,770,775,791,806,827,850,876,947,964,978,988,992,1001,1006,1012,1016,1022,1027,1029,1031,1033,1035,1040,1042,1044,1045,1047,1048,1053,1057,1064],"ymouse":[520,520,520,520,520,520,520,520,520,520,520,520,520,520,520,520,520,520,520,520,520,519,519,519,513,502,482,455,419,320,292,264,240,213,170,149,130,110,89,52,41,32,25,21,17,16,16,16,16,16,21,26,35],"timestamp_mouse":[18,37,57,77,97,117,138,157,178,197,218,238,259,278,298,324,338,358,378,397,417,437,457,478,497,517,538,557,577,598,619,637,657,677,697,717,738,757,777,798,817,837,857,879,898,918,937,958,977,997,1017,1037,1058],"xSR":741.5,"ySR":469.95,"xT1":424.9,"yT1":0,"xT2":1058.1,"yT2":0,"toosoon":0,"cond_shown":"Congruent","ratio_trial":300,"L_num":20,"L_den":25,"R_num":5,"R_den":10,"correct_side":1,"subjID":"Alejandra Caycedo Moreno23","gender":"1","school":"4","age":"9"},{"start_time":1552073843106,"click_time":1552073848796,"finger_time":1552073843197,"fix_duration":648.3936667807865,"trial":22,"RT":91,"MT":5599,"sideResp":1,"stimulus":[],"xmouse":[776,776,776,776,778,779,779,779,779,779,779,779,779,779,779,779,779,779,779,779,779,779,779,779,779,779,779,779,779,779,779,779,779,779,779,779,779,779,779,779,779,779,779,779,779,779,779,779,779,779,779,779,779,779,779,779,779,779,779,779,779,779,779,779,779,779,779,779,780,780,780,780,780,780,780,780,780,782,783,786,788,788,788,788,788,788,788,788,788,788,788,788,788,788,788,786,785,785,785,785,785,785,785,785,785,785,785,785,785,785,785,785,785,785,781,777,775,774,772,771,768,768,768,768,766,763,760,750,743,733,719,718,718,717,715,715,715,715,715,715,715,715,714,712,709,704,704,704,704,704,704,704,704,704,704,704,728,752,767,773,794,811,828,844,850,851,851,851,842,825,785,775,771,770,770,769,769,769,769,769,769,771,777,780,781,781,781,781,781,781,781,781,781,781,781,781,781,781,781,781,781,781,780,779,776,772,772,770,770,769,769,768,767,765,763,755,752,750,749,749,749,749,749,748,747,746,746,745,745,745,745,745,745,745,745,745,745,745,746,746,746,746,746,746,742,713,684,660,641,631,624,620,617,611,603,587,579,577,576,575,568,562,555,548,542,533,527,521,514,500,488,479,479,480,483,488,489,489,489,489,489,489,488,488,486],"ymouse":[474,474,474,474,468,465,465,465,465,465,465,465,465,465,465,465,465,465,465,465,465,465,465,465,465,465,465,465,465,462,462,462,462,462,462,462,462,462,462,462,462,462,462,462,445,430,416,397,386,375,359,358,358,358,358,358,358,358,357,354,354,354,354,354,354,354,354,355,357,357,357,357,357,357,357,357,357,357,357,357,357,357,357,357,357,357,357,357,357,357,357,357,357,359,360,362,364,364,364,364,364,364,364,364,364,364,364,364,364,364,364,364,364,365,365,366,367,368,370,372,373,373,373,373,374,379,387,409,423,434,441,441,441,441,443,444,445,447,449,451,455,456,457,461,465,474,475,475,475,475,475,475,475,475,475,476,491,505,516,526,552,565,574,579,581,581,582,582,578,571,554,548,545,545,544,542,542,542,542,542,542,541,541,541,541,541,541,541,541,541,541,541,541,541,541,541,541,541,541,540,538,537,534,532,529,525,524,523,522,521,520,519,517,514,511,503,500,498,497,497,497,497,497,497,496,495,495,494,494,494,494,494,494,494,494,494,494,494,494,494,494,494,494,494,494,480,463,450,438,430,421,414,405,392,374,335,314,302,295,287,265,253,244,234,228,221,216,211,205,195,183,172,167,162,157,143,133,129,124,121,113,110,106,104,97],"timestamp_mouse":[12,42,51,70,91,110,130,151,170,190,210,232,251,270,291,310,331,351,370,392,411,431,451,470,491,510,530,550,571,591,610,630,650,672,691,710,730,752,772,790,810,830,850,870,892,910,931,950,970,990,1011,1030,1050,1070,1090,1111,1131,1151,1170,1190,1210,1231,1251,1271,1291,1310,1331,1351,1371,1391,1411,1431,1450,1470,1491,1510,1530,1550,1570,1590,1611,1631,1650,1671,1692,1710,1731,1751,1771,1790,1811,1831,1850,1870,1890,1910,1930,1950,1970,1991,2011,2031,2052,2072,2091,2110,2130,2150,2171,2190,2210,2230,2251,2271,2291,2310,2331,2351,2371,2390,2411,2431,2450,2471,2491,2510,2530,2550,2570,2590,2610,2630,2651,2670,2691,2710,2730,2750,2770,2790,2810,2830,2850,2871,2891,2911,2931,2950,2970,2990,3011,3031,3050,3070,3091,3110,3130,3150,3170,3190,3210,3230,3251,3270,3291,3310,3332,3350,3371,3390,3410,3430,3450,3470,3490,3510,3531,3550,3571,3591,3610,3630,3651,3670,3690,3710,3731,3751,3772,3792,3810,3830,3852,3871,3890,3911,3931,3950,3972,3990,4010,4031,4050,4071,4091,4110,4131,4150,4171,4190,4211,4230,4250,4270,4290,4310,4331,4350,4371,4390,4412,4431,4451,4471,4490,4512,4530,4552,4571,4591,4611,4630,4652,4672,4690,4710,4730,4750,4770,4791,4810,4831,4850,4870,4890,4910,4931,4950,4971,4990,5010,5030,5050,5070,5091,5110,5131,5150,5171,5191,5211,5230,5250,5270,5291,5311,5331,5350,5370,5390,5410,5430,5451,5470,5491,5510,5530,5550,5571,5590,5610,5630,5650,5671,5690],"xSR":741.5,"ySR":469.95,"xT1":424.9,"yT1":0,"xT2":1058.1,"yT2":0,"toosoon":0,"cond_shown":"Incongruent","ratio_trial":300,"L_num":13,"L_den":26,"R_num":12,"R_den":15,"correct_side":2,"subjID":"Alejandra Caycedo Moreno23","gender":"1","school":"4","age":"9"},{"start_time":1552073861549,"click_time":1552073862037,"finger_time":1552073861837,"fix_duration":1230.2492006925568,"trial":23,"RT":288,"MT":200,"sideResp":2,"stimulus":[],"xmouse":[779,780,780,780,780,780,780,781,781,781,783,783,784,785,788,806,822,850,883,936,993,1019,1045,1074,1102],"ymouse":[483,482,481,481,481,481,481,480,480,478,476,475,473,471,467,446,426,393,349,282,204,174,142,107,71],"timestamp_mouse":[16,36,47,67,88,108,128,148,168,188,209,227,248,268,288,307,328,348,368,387,407,427,448,468,488],"xSR":741.5,"ySR":469.95,"xT1":424.9,"yT1":0,"xT2":1058.1,"yT2":0,"toosoon":0,"cond_shown":"Congruent","ratio_trial":300,"L_num":4,"L_den":5,"R_num":2,"R_den":4,"correct_side":1,"subjID":"Alejandra Caycedo Moreno23","gender":"1","school":"4","age":"9"},{"start_time":1552073865248,"click_time":1552073865958,"finger_time":1552073865617,"fix_duration":1190.6855919528934,"trial":24,"RT":369,"MT":341,"sideResp":2,"stimulus":[],"xmouse":[793,793,793,793,793,793,793,793,793,793,793,793,793,793,793,793,796,803,810,816,836,858,876,890,900,910,917,932,950,965,972,973,982,996,1028,1115],"ymouse":[500,500,500,500,500,500,500,500,500,500,500,500,500,500,500,498,488,475,458,443,415,406,399,393,384,371,368,363,358,348,310,293,272,247,202,70],"timestamp_mouse":[13,41,49,69,88,110,128,148,170,190,208,229,249,268,290,309,329,348,369,389,410,428,448,469,489,508,528,548,568,589,609,628,648,670,689,709],"xSR":741.5,"ySR":469.95,"xT1":424.9,"yT1":0,"xT2":1058.1,"yT2":0,"toosoon":0,"cond_shown":"Incongruent","ratio_trial":200,"L_num":7,"L_den":15,"R_num":6,"R_den":9,"correct_side":2,"subjID":"Alejandra Caycedo Moreno23","gender":"1","school":"4","age":"9"},{"start_time":1552073868889,"click_time":1552073871416,"finger_time":1552073868957,"fix_duration":250,"trial":25,"RT":68,"MT":2459,"sideResp":1,"stimulus":[],"xmouse":[752,748,748,741,737,736,736,736,736,736,736,735,734,731,731,731,731,731,731,731,731,731,731,731,731,731,731,731,731,731,731,731,733,750,770,792,824,836,841,842,842,842,842,842,842,842,842,842,842,842,842,842,834,811,797,788,786,786,786,786,786,786,786,786,785,785,784,783,779,763,755,751,750,749,749,749,748,748,748,748,748,748,748,748,748,748,748,748,748,748,748,748,748,748,748,748,748,748,745,711,683,656,622,577,569,564,561,557,552,551,551,551,551,545,534,520,504,488,486,486,486,486,486,486,486,486,486],"ymouse":[481,478,478,478,478,478,478,478,478,478,478,478,478,478,478,478,478,478,478,478,478,478,478,478,478,478,478,478,478,478,478,478,479,487,496,505,518,523,526,526,526,526,526,526,526,526,526,526,526,526,526,526,526,524,522,521,521,521,521,521,521,521,521,521,521,521,521,520,519,508,500,496,494,493,493,493,492,492,492,492,492,492,492,492,492,492,492,492,492,492,492,492,492,492,492,492,492,492,488,453,426,398,355,287,265,243,223,191,173,158,155,152,149,138,130,121,114,105,104,104,104,104,104,104,104,104,98],"timestamp_mouse":[13,37,49,68,88,107,129,148,167,187,209,227,248,269,287,307,327,348,369,389,408,428,448,468,487,508,529,548,568,587,607,628,648,668,688,709,728,749,767,789,809,829,848,868,887,908,927,948,968,987,1008,1029,1048,1069,1088,1108,1128,1148,1168,1187,1209,1227,1248,1269,1288,1309,1327,1347,1367,1389,1407,1428,1449,1469,1487,1509,1528,1548,1567,1588,1608,1628,1648,1668,1687,1707,1729,1749,1768,1787,1809,1828,1849,1869,1888,1908,1927,1949,1968,1988,2007,2028,2048,2070,2088,2108,2128,2148,2168,2188,2208,2229,2248,2269,2288,2309,2328,2347,2368,2388,2408,2429,2448,2469,2488,2508,2527],"xSR":741.5,"ySR":469.95,"xT1":424.9,"yT1":0,"xT2":1058.1,"yT2":0,"toosoon":0,"cond_shown":"Congruent","ratio_trial":200,"L_num":3,"L_den":10,"R_num":14,"R_den":28,"correct_side":2,"subjID":"Alejandra Caycedo Moreno23","gender":"1","school":"4","age":"9"},{"start_time":1552073873190,"click_time":1552073875378,"finger_time":1552073874777,"fix_duration":250,"trial":26,"RT":1587,"MT":601,"sideResp":2,"stimulus":[],"xmouse":[796,796,796,796,796,796,793,792,792,792,791,790,786,782,776,775,774,774,774,774,774,774,774,774,774,773,771,771,771,771,771,771,771,771,771,771,771,771,771,771,771,771,771,771,771,771,771,771,771,771,771,771,771,771,771,771,771,771,771,771,771,771,771,771,771,771,771,771,771,771,771,771,771,771,771,771,781,790,811,861,872,876,878,879,882,888,896,904,909,910,910,912,917,921,932,957,964,970,974,986,995,1003,1012,1025,1034,1034,1034,1038,1044,1060],"ymouse":[508,508,508,508,508,508,508,508,508,508,508,508,509,510,511,511,511,511,511,511,511,511,511,511,511,511,511,511,511,511,511,511,511,511,511,511,511,511,511,511,511,511,511,511,511,511,511,511,511,511,511,511,511,511,511,511,511,511,511,511,511,511,511,511,511,511,511,511,511,511,511,511,511,511,511,511,509,507,501,486,479,475,469,463,452,443,430,417,402,368,349,339,325,313,298,273,257,244,230,205,195,184,170,152,105,80,65,54,43,27],"timestamp_mouse":[12,34,47,68,86,106,128,148,166,186,206,227,247,267,286,306,327,347,368,388,408,427,446,468,486,506,527,547,567,586,607,628,647,667,686,706,727,746,768,788,807,828,846,867,888,908,926,946,966,988,1007,1028,1047,1067,1086,1108,1126,1147,1167,1188,1207,1228,1247,1266,1286,1308,1328,1347,1367,1387,1407,1428,1447,1466,1486,1507,1528,1547,1568,1587,1608,1626,1646,1667,1688,1708,1727,1747,1767,1787,1806,1826,1847,1866,1887,1907,1928,1948,1967,1987,2006,2027,2047,2068,2087,2106,2126,2146,2166,2187],"xSR":741.5,"ySR":469.95,"xT1":424.9,"yT1":0,"xT2":1058.1,"yT2":0,"toosoon":0,"cond_shown":"Congruent","ratio_trial":200,"L_num":6,"L_den":12,"R_num":7,"R_den":10,"correct_side":2,"subjID":"Alejandra Caycedo Moreno23","gender":"1","school":"4","age":"9"},{"start_time":1552073877110,"click_time":1552073877777,"finger_time":1552073877597,"fix_duration":250,"trial":27,"RT":487,"MT":180,"sideResp":2,"stimulus":[],"xmouse":[778,778,778,778,778,778,778,778,778,778,778,778,778,778,778,778,778,778,778,782,789,797,799,805,819,831,848,868,929,962,997,1030,1052,1072],"ymouse":[525,525,525,525,525,525,525,525,525,525,525,525,525,525,525,525,525,525,523,515,504,492,489,480,461,445,420,392,295,234,166,100,51,5],"timestamp_mouse":[10,36,48,67,87,107,126,147,167,188,207,226,247,268,288,308,327,348,367,386,407,427,447,466,487,506,527,546,568,586,607,627,647,667],"xSR":741.5,"ySR":469.95,"xT1":424.9,"yT1":0,"xT2":1058.1,"yT2":0,"toosoon":0,"cond_shown":"Congruent","ratio_trial":200,"L_num":9,"L_den":20,"R_num":4,"R_den":16,"correct_side":1,"subjID":"Alejandra Caycedo Moreno23","gender":"1","school":"4","age":"9"},{"start_time":1552073880978,"click_time":1552073882097,"finger_time":1552073881398,"fix_duration":1078.9253030089599,"trial":28,"RT":420,"MT":699,"sideResp":2,"stimulus":[],"xmouse":[799,799,799,799,799,799,799,799,799,799,799,799,799,799,799,799,799,799,802,806,825,915,980,1044,1098,1137,1189,1189,1189,1189,1189,1189,1189,1189,1189,1189,1189,1189,1189,1189,1189,1189,1189,1189,1189,1189,1189,1189,1189,1189,1189,1207,1197,1189,1182,1175,1146],"ymouse":[511,511,511,511,511,511,511,511,511,511,511,511,511,511,511,511,511,511,507,502,483,411,349,274,190,114,11,11,11,11,11,11,11,11,11,11,11,11,11,11,11,11,11,11,11,11,11,11,11,11,11,3,10,16,19,21,24],"timestamp_mouse":[1,37,38,60,79,99,120,139,158,180,199,220,239,259,278,299,319,339,359,380,399,420,439,459,478,498,519,539,559,578,600,619,639,659,678,700,718,739,758,779,800,819,839,858,879,899,918,938,959,980,998,1019,1039,1060,1079,1100,1119],"xSR":741.5,"ySR":469.95,"xT1":424.9,"yT1":0,"xT2":1058.1,"yT2":0,"toosoon":0,"cond_shown":"Congruent","ratio_trial":100,"L_num":1,"L_den":2,"R_num":3,"R_den":5,"correct_side":2,"subjID":"Alejandra Caycedo Moreno23","gender":"1","school":"4","age":"9"},{"start_time":1552073884280,"click_time":1552073885398,"finger_time":1552073884617,"fix_duration":1182.825443875787,"trial":29,"RT":337,"MT":781,"sideResp":2,"stimulus":[],"xmouse":[801,801,801,801,800,800,800,800,800,800,800,800,800,799,798,797,792,791,790,790,790,790,792,796,798,802,804,807,809,810,810,811,811,812,814,823,836,853,883,928,983,1001,1021,1034,1042,1046,1046,1046,1046,1046,1046,1047,1047,1050,1055,1061],"ymouse":[486,485,485,485,484,484,484,484,482,482,482,482,482,480,478,473,463,461,459,457,457,456,456,453,451,441,432,426,422,420,418,418,416,415,413,405,395,383,361,312,224,176,130,98,75,54,52,51,51,51,51,50,50,50,50,50],"timestamp_mouse":[16,50,57,77,98,118,137,157,176,197,218,238,257,278,297,316,337,358,377,398,417,437,456,478,497,517,537,557,576,596,616,638,658,676,696,717,737,758,777,798,817,836,856,878,898,918,936,957,978,997,1017,1037,1057,1078,1097,1117],"xSR":741.5,"ySR":469.95,"xT1":424.9,"yT1":0,"xT2":1058.1,"yT2":0,"toosoon":0,"cond_shown":"Congruent","ratio_trial":100,"L_num":4,"L_den":10,"R_num":15,"R_den":30,"correct_side":2,"subjID":"Alejandra Caycedo Moreno23","gender":"1","school":"4","age":"9"},{"start_time":1552073887969,"click_time":1552073888856,"finger_time":1552073888316,"fix_duration":1250.9164171114915,"trial":30,"RT":347,"MT":540,"sideResp":2,"stimulus":[],"xmouse":[809,810,811,811,811,811,811,811,811,812,814,817,821,828,833,837,852,861,875,891,912,943,958,967,973,979,989,990,991,991,991,994,1000,1002,1006,1010,1020,1025,1028,1030,1033,1045,1054,1067],"ymouse":[518,518,516,516,516,516,516,516,515,515,511,508,501,490,480,474,456,445,430,413,397,361,335,316,302,288,267,263,262,262,262,255,245,242,233,225,209,201,195,188,179,151,128,81],"timestamp_mouse":[14,47,69,88,107,127,148,169,189,208,229,247,268,288,309,327,347,368,388,407,428,447,469,487,507,527,548,567,588,608,628,648,669,688,708,728,747,767,788,808,829,847,868,887],"xSR":741.5,"ySR":469.95,"xT1":424.9,"yT1":0,"xT2":1058.1,"yT2":0,"toosoon":0,"cond_shown":"Incongruent","ratio_trial":300,"L_num":13,"L_den":26,"R_num":12,"R_den":15,"correct_side":2,"subjID":"Alejandra Caycedo Moreno23","gender":"1","school":"4","age":"9"},{"start_time":1552073891788,"click_time":1552073892757,"finger_time":1552073892317,"fix_duration":250,"trial":31,"RT":529,"MT":440,"sideResp":2,"stimulus":[],"xmouse":[779,778,775,774,773,772,771,771,771,771,771,771,771,771,771,771,771,771,771,771,771,771,777,790,806,827,881,931,987,1018,1028,1028,1000,992,989,989,989,989,990,992,997,1011,1015,1018,1021,1024,1039,1052,1060],"ymouse":[536,536,534,532,529,527,526,526,526,526,526,526,526,526,526,526,526,526,526,526,526,525,521,512,502,487,433,385,327,264,201,155,67,50,43,41,40,40,38,37,36,32,31,30,29,29,30,34,36],"timestamp_mouse":[9,34,50,69,89,110,128,148,170,189,208,228,249,269,289,308,328,350,370,389,410,429,449,468,489,509,529,548,569,588,609,628,648,668,688,710,728,750,770,790,809,829,849,869,889,910,929,949,969],"xSR":741.5,"ySR":469.95,"xT1":424.9,"yT1":0,"xT2":1058.1,"yT2":0,"toosoon":0,"cond_shown":"Incongruent","ratio_trial":100,"L_num":3,"L_den":5,"R_num":8,"R_den":16,"correct_side":1,"subjID":"Alejandra Caycedo Moreno23","gender":"1","school":"4","age":"9"},{"start_time":1552073897299,"click_time":1552073898837,"finger_time":1552073897977,"fix_duration":360.5546756082069,"trial":32,"RT":678,"MT":860,"sideResp":2,"stimulus":[],"xmouse":[786,786,786,786,786,786,786,786,786,786,786,786,786,786,786,786,786,786,786,786,786,786,786,787,787,790,794,795,798,801,804,822,827,842,853,864,885,892,896,903,911,924,933,939,945,950,960,966,970,973,978,992,997,1005,1012,1021,1038,1044,1045,1046,1046,1048,1050,1052,1054,1055,1055,1056,1056,1056,1056,1056,1056,1056,1056,1056,1060],"ymouse":[532,532,532,532,532,532,532,532,532,532,532,532,532,532,532,532,532,532,532,532,531,531,531,530,530,530,528,528,526,524,521,494,486,459,440,426,399,388,382,375,369,354,336,323,307,294,266,249,227,207,185,132,114,96,80,64,44,37,36,36,36,36,40,46,50,52,56,56,57,57,57,57,57,57,57,57,57],"timestamp_mouse":[19,38,59,77,97,119,139,158,177,198,217,239,259,278,299,317,338,358,378,397,419,438,458,478,498,517,539,558,578,598,618,637,657,678,698,718,738,757,778,798,818,837,858,878,898,918,937,957,977,997,1017,1037,1058,1079,1099,1118,1137,1158,1177,1197,1217,1237,1258,1279,1298,1317,1337,1357,1379,1398,1418,1437,1457,1478,1498,1518,1538],"xSR":741.5,"ySR":469.95,"xT1":424.9,"yT1":0,"xT2":1058.1,"yT2":0,"toosoon":0,"cond_shown":"Congruent","ratio_trial":300,"L_num":12,"L_den":24,"R_num":2,"R_den":10,"correct_side":1,"subjID":"Alejandra Caycedo Moreno23","gender":"1","school":"4","age":"9"},{"start_time":1552073901933,"click_time":1552073902797,"finger_time":1552073902397,"fix_duration":1034.4340527655822,"trial":33,"RT":464,"MT":400,"sideResp":2,"stimulus":[],"xmouse":[777,777,777,777,777,777,777,777,777,777,777,777,777,776,776,776,776,777,780,783,796,804,815,828,843,859,891,910,928,941,955,966,976,988,998,1013,1021,1028,1035,1044,1066,1080,1105,1136],"ymouse":[515,515,515,515,515,515,515,515,515,515,515,515,515,515,515,514,512,508,503,497,483,478,474,468,460,451,424,406,389,369,324,292,275,260,249,228,219,212,205,194,171,150,114,56],"timestamp_mouse":[10,32,43,63,84,105,124,143,165,183,203,224,245,265,285,304,323,344,363,384,404,425,444,464,484,504,524,543,563,584,604,624,644,663,684,704,723,744,764,785,804,824,843,864],"xSR":741.5,"ySR":469.95,"xT1":424.9,"yT1":0,"xT2":1058.1,"yT2":0,"toosoon":0,"cond_shown":"Congruent","ratio_trial":300,"L_num":7,"L_den":14,"R_num":20,"R_den":25,"correct_side":2,"subjID":"Alejandra Caycedo Moreno23","gender":"1","school":"4","age":"9"},{"start_time":1552073906209,"click_time":1552073907257,"finger_time":1552073906757,"fix_duration":250,"trial":34,"RT":548,"MT":500,"sideResp":2,"stimulus":[],"xmouse":[780,780,780,780,780,780,780,780,780,781,781,782,782,782,782,782,783,783,783,784,785,785,789,793,799,805,812,831,843,854,864,876,900,912,931,945,959,988,999,1006,1008,1009,1010,1010,1011,1013,1016,1027,1032,1039,1048,1055,1059],"ymouse":[555,555,554,554,553,552,551,550,548,547,546,545,543,542,541,540,538,534,533,531,528,526,521,515,502,491,479,449,430,411,395,376,342,327,303,287,267,220,196,181,173,169,168,167,162,157,152,135,128,120,111,102,85],"timestamp_mouse":[11,28,63,67,88,108,127,148,167,187,208,228,248,268,287,308,327,347,368,388,408,428,447,467,487,509,529,548,569,588,608,628,648,667,687,707,727,748,768,787,807,829,848,868,888,909,927,947,968,988,1009,1027,1048],"xSR":741.5,"ySR":469.95,"xT1":424.9,"yT1":0,"xT2":1058.1,"yT2":0,"toosoon":0,"cond_shown":"Congruent","ratio_trial":300,"L_num":20,"L_den":25,"R_num":14,"R_den":28,"correct_side":1,"subjID":"Alejandra Caycedo Moreno23","gender":"1","school":"4","age":"9"},{"start_time":1552073910564,"click_time":1552073911437,"finger_time":1552073911296,"fix_duration":1465.0141156573761,"trial":35,"RT":732,"MT":141,"sideResp":1,"stimulus":[],"xmouse":[769,769,769,769,769,769,769,769,769,769,769,769,769,769,769,769,769,769,769,769,769,769,769,769,769,769,769,769,769,769,768,765,759,749,744,743,737,726,711,640,599,562,531,504],"ymouse":[490,490,490,490,490,490,490,490,490,490,490,490,490,490,490,490,490,490,490,490,490,490,490,490,490,490,490,490,490,490,490,490,490,488,485,483,475,458,428,298,226,162,111,63],"timestamp_mouse":[20,40,54,72,92,112,134,153,174,192,213,233,253,272,293,312,333,352,373,393,413,432,454,473,493,513,532,552,572,593,613,632,653,673,693,713,732,753,772,793,813,833,852,873],"xSR":741.5,"ySR":469.95,"xT1":424.9,"yT1":0,"xT2":1058.1,"yT2":0,"toosoon":0,"cond_shown":"Incongruent","ratio_trial":100,"L_num":8,"L_den":16,"R_num":6,"R_den":10,"correct_side":2,"subjID":"Alejandra Caycedo Moreno23","gender":"1","school":"4","age":"9"},{"start_time":1552073916446,"click_time":1552073917298,"finger_time":1552073916838,"fix_duration":1085.9245765144215,"trial":36,"RT":392,"MT":460,"sideResp":2,"stimulus":[],"xmouse":[806,806,806,806,806,806,806,806,806,806,806,806,806,805,805,806,815,825,833,843,855,880,894,909,921,931,946,954,960,964,965,969,975,982,997,1012,1045,1053,1061,1067,1070,1078,1084],"ymouse":[529,529,529,529,529,529,529,529,529,529,529,529,529,528,527,524,515,505,496,486,472,434,410,384,363,343,310,293,285,281,280,279,274,265,247,227,183,168,155,144,139,113,95],"timestamp_mouse":[15,39,52,71,93,112,132,152,172,192,212,232,252,272,292,312,331,351,373,392,411,431,453,472,492,513,531,551,571,592,612,632,651,672,692,713,732,751,771,792,812,831,852],"xSR":741.5,"ySR":469.95,"xT1":424.9,"yT1":0,"xT2":1058.1,"yT2":0,"toosoon":0,"cond_shown":"Congruent","ratio_trial":200,"L_num":6,"L_den":20,"R_num":11,"R_den":22,"correct_side":2,"subjID":"Alejandra Caycedo Moreno23","gender":"1","school":"4","age":"9"},{"start_time":1552073921349,"click_time":1552073923858,"finger_time":1552073922057,"fix_duration":250,"trial":37,"RT":708,"MT":1801,"sideResp":2,"stimulus":[],"xmouse":[771,771,771,771,771,771,771,771,771,771,771,771,771,771,771,771,771,771,771,771,771,771,774,777,782,785,787,789,789,790,790,791,800,805,809,810,810,810,810,810,810,810,810,810,810,809,808,808,808,807,806,803,799,797,795,794,793,793,793,792,792,792,792,792,792,792,792,792,792,792,792,792,792,792,792,795,797,798,798,798,798,798,798,798,798,798,798,800,804,815,838,855,892,908,916,922,925,926,927,929,938,947,957,961,963,965,969,982,998,1011,1022,1030,1036,1039,1041,1043,1046,1055,1057,1057,1057,1057,1057,1057,1057,1059],"ymouse":[533,532,531,529,529,529,528,528,528,528,528,528,528,527,527,527,525,524,523,522,521,520,514,511,508,505,503,501,500,500,499,497,486,479,473,468,465,465,465,465,464,464,464,464,464,464,464,464,464,464,465,467,473,478,483,488,496,498,499,500,500,500,500,500,500,500,500,500,500,500,500,500,500,500,500,500,498,496,495,495,495,495,495,495,495,495,495,494,493,487,468,453,414,398,386,378,375,374,372,370,354,340,309,294,284,276,268,249,228,207,185,164,125,106,88,73,57,21,4,4,4,4,4,4,4,5],"timestamp_mouse":[8,29,48,69,89,108,128,150,170,189,208,229,249,269,288,309,329,349,369,390,409,428,448,468,489,510,528,550,569,590,609,628,650,670,689,708,730,748,769,789,809,829,849,869,889,908,930,948,969,989,1008,1028,1048,1068,1089,1108,1129,1149,1169,1188,1209,1230,1248,1268,1290,1310,1330,1350,1368,1388,1409,1429,1449,1468,1490,1509,1530,1550,1569,1590,1609,1628,1649,1670,1689,1708,1729,1748,1770,1789,1809,1828,1848,1868,1888,1908,1929,1948,1969,1989,2010,2028,2048,2069,2088,2109,2130,2148,2169,2189,2210,2229,2248,2269,2289,2309,2329,2348,2368,2389,2409,2428,2448,2468,2488,2509],"xSR":741.5,"ySR":469.95,"xT1":424.9,"yT1":0,"xT2":1058.1,"yT2":0,"toosoon":0,"cond_shown":"Congruent","ratio_trial":300,"L_num":1,"L_den":30,"R_num":8,"R_den":24,"correct_side":2,"subjID":"Alejandra Caycedo Moreno23","gender":"1","school":"4","age":"9"},{"start_time":1552073926402,"click_time":1552073928418,"finger_time":1552073928018,"fix_duration":1304.8393357158761,"trial":38,"RT":1616,"MT":400,"sideResp":2,"stimulus":[],"xmouse":[791,791,791,791,790,789,789,788,787,787,787,787,787,787,786,786,786,786,786,786,786,786,786,786,786,786,786,786,786,786,786,786,786,786,786,786,786,786,786,786,786,786,786,786,786,786,786,786,786,786,786,786,786,786,786,786,786,786,786,786,786,786,786,786,786,786,786,786,786,786,787,788,789,789,789,797,802,807,812,826,837,856,882,914,970,981,986,991,995,1000,1003,1004,1007,1010,1024,1030,1035,1041,1045,1053,1061],"ymouse":[502,502,502,502,500,499,498,497,495,495,494,494,494,493,493,493,493,493,493,493,493,493,493,493,492,492,491,491,491,490,490,490,490,490,490,490,490,490,490,490,490,490,490,490,490,490,490,490,490,490,490,490,490,490,490,490,490,490,490,490,490,490,490,490,490,490,490,490,490,490,489,488,488,488,488,486,484,483,481,473,463,448,426,396,291,253,232,213,202,190,185,182,178,173,153,145,138,130,125,110,96],"timestamp_mouse":[15,46,55,76,96,116,136,156,177,195,216,237,256,275,295,316,336,355,377,396,415,436,456,476,496,516,537,556,575,595,617,637,656,677,695,715,736,757,775,795,816,835,856,877,897,916,936,956,976,997,1016,1035,1056,1077,1097,1115,1137,1156,1177,1197,1216,1236,1256,1276,1297,1315,1336,1356,1377,1396,1415,1436,1455,1475,1496,1515,1535,1556,1575,1595,1616,1636,1657,1676,1696,1715,1736,1757,1775,1796,1815,1836,1856,1876,1896,1915,1935,1955,1976,1996,2016],"xSR":741.5,"ySR":469.95,"xT1":424.9,"yT1":0,"xT2":1058.1,"yT2":0,"toosoon":0,"cond_shown":"Congruent","ratio_trial":100,"L_num":7,"L_den":14,"R_num":15,"R_den":25,"correct_side":2,"subjID":"Alejandra Caycedo Moreno23","gender":"1","school":"4","age":"9"},{"start_time":1552073933799,"click_time":1552073935818,"finger_time":1552073935158,"fix_duration":1219.2625735041322,"trial":39,"RT":1359,"MT":660,"sideResp":1,"stimulus":[],"xmouse":[787,787,787,787,787,787,787,787,787,787,787,787,787,787,787,787,787,787,787,787,787,787,787,787,787,787,787,787,787,787,787,787,787,787,787,787,787,787,787,787,787,787,787,787,787,787,787,787,787,787,787,787,787,787,787,787,786,786,785,785,785,785,783,781,776,760,746,731,719,708,688,678,670,662,658,653,651,649,646,645,631,618,606,593,584,568,558,543,525,508,494,494,496,499,500,502,502,502,502,500,496],"ymouse":[494,494,494,494,494,494,494,494,494,494,494,494,494,494,494,494,494,494,494,494,494,494,494,494,494,494,494,494,494,494,494,494,494,494,494,494,494,494,494,494,494,494,494,494,494,494,494,494,494,494,494,494,494,494,494,495,495,495,495,495,495,495,495,495,495,495,495,494,492,489,475,465,447,420,395,356,344,335,326,319,288,263,234,200,179,148,137,130,122,115,105,103,102,101,100,100,100,100,100,100,96],"timestamp_mouse":[18,38,59,79,99,120,138,159,180,198,219,238,259,280,299,319,339,360,379,400,420,438,459,478,500,520,539,559,580,599,618,638,659,679,699,720,739,759,778,798,818,839,860,879,899,918,938,959,980,1000,1019,1040,1058,1079,1099,1120,1138,1159,1179,1199,1220,1239,1259,1279,1298,1318,1338,1359,1379,1398,1419,1439,1458,1478,1498,1519,1538,1558,1579,1600,1619,1638,1658,1678,1698,1719,1740,1760,1779,1799,1820,1839,1858,1879,1899,1919,1939,1959,1979,1998,2018],"xSR":741.5,"ySR":469.95,"xT1":424.9,"yT1":0,"xT2":1058.1,"yT2":0,"toosoon":0,"cond_shown":"Incongruent","ratio_trial":200,"L_num":4,"L_den":5,"R_num":6,"R_den":10,"correct_side":1,"subjID":"Alejandra Caycedo Moreno23","gender":"1","school":"4","age":"9"},{"start_time":1552073939510,"click_time":1552073941399,"finger_time":1552073940998,"fix_duration":1031.9925758496404,"trial":40,"RT":1488,"MT":401,"sideResp":1,"stimulus":[],"xmouse":[785,785,785,785,785,785,785,785,785,785,785,785,785,785,785,785,785,785,785,785,785,785,784,784,783,783,783,783,783,782,782,782,782,782,782,782,782,782,782,782,782,782,782,782,782,782,782,782,782,782,782,782,782,782,782,782,782,782,782,782,782,782,782,782,782,782,782,782,782,782,782,782,780,770,754,736,691,665,633,603,591,587,587,587,586,581,548,527,519,515,515,511,506,500,494],"ymouse":[518,518,518,518,518,518,518,518,518,518,518,518,518,518,518,518,518,518,518,518,518,518,517,515,514,511,510,510,510,508,508,508,508,508,508,508,508,508,508,508,508,508,508,508,508,508,508,508,508,508,508,508,508,508,508,508,508,508,508,508,508,508,508,508,508,508,508,508,508,508,508,508,508,504,496,482,419,376,318,267,235,195,182,178,176,176,162,153,147,142,129,120,110,103,95],"timestamp_mouse":[15,43,47,68,88,107,128,148,167,188,209,228,248,269,288,308,328,347,369,388,407,427,448,467,487,508,528,548,568,588,609,628,648,667,688,708,729,747,768,789,809,828,847,869,888,909,928,948,968,988,1009,1027,1049,1068,1087,1108,1129,1147,1167,1187,1208,1227,1248,1269,1288,1307,1329,1348,1368,1388,1407,1428,1448,1467,1488,1507,1527,1547,1568,1588,1608,1627,1648,1668,1688,1707,1727,1748,1768,1788,1809,1828,1849,1868,1889],"xSR":741.5,"ySR":469.95,"xT1":424.9,"yT1":0,"xT2":1058.1,"yT2":0,"toosoon":0,"cond_shown":"Incongruent","ratio_trial":200,"L_num":7,"L_den":10,"R_num":12,"R_den":24,"correct_side":1,"subjID":"Alejandra Caycedo Moreno23","gender":"1","school":"4","age":"9"},{"start_time":1552073953611,"click_time":1552073955458,"finger_time":1552073954799,"fix_duration":270.50905915332834,"trial":41,"RT":1188,"MT":659,"sideResp":2,"stimulus":[],"xmouse":[769,769,769,769,769,769,769,769,769,769,768,768,768,769,770,770,770,770,770,770,770,770,770,770,770,770,770,770,770,770,770,770,770,770,770,770,770,770,770,770,770,770,770,770,770,771,771,771,772,772,774,774,777,780,782,784,790,809,827,854,895,940,1000,1071,1106,1134,1167,1222,1243,1257,1262,1262,1262,1262,1262,1262,1262,1262,1262,1262,1262,1262,1262,1262,1262,1262,1262,1202,1194,1185,1176,1166,1157],"ymouse":[567,567,567,567,567,567,567,567,567,567,567,567,567,566,566,566,566,566,566,566,566,566,566,566,566,566,566,566,566,566,566,566,565,565,564,564,564,564,564,564,564,564,564,564,563,562,562,562,560,560,558,557,555,551,550,547,541,525,510,491,462,429,376,292,243,204,160,75,45,15,0,0,0,0,0,0,0,0,0,0,0,0,0,0,0,0,0,3,15,22,25,28,30],"timestamp_mouse":[13,27,47,66,87,108,126,146,167,187,207,226,247,268,286,307,326,346,367,388,407,426,448,467,486,507,528,546,567,588,607,626,647,667,687,707,726,746,767,788,807,827,846,866,888,907,926,947,968,987,1006,1027,1046,1066,1086,1106,1126,1146,1166,1188,1206,1227,1246,1267,1286,1306,1326,1347,1367,1387,1407,1428,1448,1468,1487,1507,1528,1548,1567,1587,1608,1627,1647,1667,1687,1708,1727,1749,1766,1786,1807,1826,1846],"xSR":741.5,"ySR":501.8,"xT1":424.9,"yT1":0,"xT2":1058.1,"yT2":0,"toosoon":0,"cond_shown":"Incongruent","ratio_trial":200,"L_num":1,"L_den":2,"R_num":3,"R_den":10,"correct_side":1,"subjID":"Alejandra Caycedo Moreno23","gender":"1","school":"4","age":"9"},{"start_time":1552073960163,"click_time":1552073961098,"finger_time":1552073960718,"fix_duration":783.5828855361789,"trial":42,"RT":555,"MT":380,"sideResp":1,"stimulus":[],"xmouse":[778,778,778,778,778,778,778,778,778,778,778,778,778,778,779,779,779,780,780,780,781,781,782,783,786,796,808,825,841,854,863,863,857,841,824,809,790,778,762,743,691,670,661,651,638,567,509],"ymouse":[581,581,581,581,581,581,581,581,581,581,581,581,581,580,578,574,573,569,567,565,562,558,556,553,547,532,517,498,477,455,424,413,408,405,403,402,397,389,375,356,287,244,220,198,176,113,80],"timestamp_mouse":[27,38,55,74,94,116,135,156,175,195,215,235,255,275,295,315,334,354,375,395,415,434,454,476,495,514,534,555,574,595,615,636,655,676,696,714,734,755,774,794,815,836,854,875,894,915,935],"xSR":741.5,"ySR":501.8,"xT1":424.9,"yT1":0,"xT2":1058.1,"yT2":0,"toosoon":0,"cond_shown":"Congruent","ratio_trial":100,"L_num":11,"L_den":22,"R_num":6,"R_den":15,"correct_side":1,"subjID":"Alejandra Caycedo Moreno23","gender":"1","school":"4","age":"9"},{"start_time":1552073966889,"click_time":1552073967619,"finger_time":1552073967218,"fix_duration":1048.984160692835,"trial":43,"RT":329,"MT":401,"sideResp":2,"stimulus":[],"xmouse":[796,796,796,796,796,796,796,796,796,796,796,796,796,796,796,799,806,818,835,853,895,898,912,925,948,990,1000,1002,1002,1002,1003,1003,1004,1017,1026,1056,1072],"ymouse":[532,532,532,532,532,532,532,532,532,532,532,532,531,530,528,511,497,479,454,425,336,323,272,228,177,91,65,50,45,43,41,41,42,52,55,54,48],"timestamp_mouse":[14,38,49,70,88,108,128,150,169,189,210,228,249,268,288,308,329,350,370,388,409,428,449,469,488,509,528,549,568,589,609,630,649,670,689,709,730],"xSR":741.5,"ySR":501.8,"xT1":424.9,"yT1":0,"xT2":1058.1,"yT2":0,"toosoon":0,"cond_shown":"Congruent","ratio_trial":200,"L_num":13,"L_den":26,"R_num":14,"R_den":20,"correct_side":2,"subjID":"Alejandra Caycedo Moreno23","gender":"1","school":"4","age":"9"},{"start_time":1552073969766,"click_time":1552073971398,"finger_time":1552073970898,"fix_duration":367.7399460204822,"trial":44,"RT":1132,"MT":500,"sideResp":2,"stimulus":[],"xmouse":[776,776,776,776,776,776,776,776,776,776,777,780,780,781,782,783,783,783,783,783,783,783,783,783,783,783,783,783,783,783,783,783,783,783,783,783,783,783,783,783,783,783,783,783,783,783,783,783,783,783,783,786,803,814,823,834,857,875,898,915,927,942,950,959,967,972,979,984,987,990,993,994,995,998,1005,1018,1043,1045,1049,1051,1054,1066],"ymouse":[564,564,564,564,564,564,564,563,563,563,561,559,558,557,557,557,557,557,557,557,557,557,557,557,557,557,557,557,557,557,557,557,557,557,557,557,557,557,557,557,557,557,557,557,557,557,557,557,557,557,557,554,539,529,521,507,478,459,435,415,396,359,340,318,294,269,230,191,170,150,132,125,121,119,115,110,90,82,76,73,69,65],"timestamp_mouse":[14,34,51,72,91,112,132,151,172,191,213,231,251,271,291,311,332,353,372,392,412,432,452,472,491,513,531,551,571,591,612,631,652,673,693,712,731,751,772,793,812,833,853,872,891,911,933,952,973,991,1012,1031,1051,1072,1091,1112,1132,1151,1172,1193,1213,1231,1251,1271,1291,1311,1332,1353,1371,1393,1411,1431,1451,1471,1491,1512,1532,1551,1571,1593,1613,1632],"xSR":741.5,"ySR":501.8,"xT1":424.9,"yT1":0,"xT2":1058.1,"yT2":0,"toosoon":0,"cond_shown":"Incongruent","ratio_trial":200,"L_num":14,"L_den":30,"R_num":12,"R_den":18,"correct_side":2,"subjID":"Alejandra Caycedo Moreno23","gender":"1","school":"4","age":"9"},{"start_time":1552073973237,"click_time":1552073973777,"finger_time":1552073973659,"fix_duration":1118.6482071738706,"trial":45,"RT":422,"MT":118,"sideResp":1,"stimulus":[],"xmouse":[780,780,780,780,780,780,780,780,780,780,780,780,780,780,780,780,780,780,775,765,754,730,712,641,588,534,491,442],"ymouse":[533,533,533,533,533,533,533,533,533,533,533,533,533,533,533,533,533,533,531,526,523,510,498,422,344,250,161,31],"timestamp_mouse":[10,21,44,62,80,101,121,140,160,180,200,220,241,262,282,300,322,341,361,380,401,422,440,462,481,500,520,540],"xSR":741.5,"ySR":501.8,"xT1":424.9,"yT1":0,"xT2":1058.1,"yT2":0,"toosoon":0,"cond_shown":"Congruent","ratio_trial":100,"L_num":12,"L_den":30,"R_num":13,"R_den":26,"correct_side":2,"subjID":"Alejandra Caycedo Moreno23","gender":"1","school":"4","age":"9"},{"start_time":1552073976592,"click_time":1552073977478,"finger_time":1552073977079,"fix_duration":412.7813771035612,"trial":46,"RT":487,"MT":399,"sideResp":2,"stimulus":[],"xmouse":[799,799,799,799,799,799,799,799,799,799,799,799,799,799,799,799,799,799,799,799,799,800,803,813,836,881,1011,1062,1099,1131,1163,1205,1214,1216,1218,1218,1218,1218,1218,1218,1216,1201,1184,1171,1156],"ymouse":[521,521,521,521,521,521,521,521,521,521,521,521,521,521,521,521,521,521,521,521,521,521,521,514,494,458,358,303,251,205,158,86,51,37,32,32,32,32,32,32,31,31,31,38,48],"timestamp_mouse":[13,42,46,67,87,106,127,146,167,185,206,226,247,265,287,307,327,345,366,387,406,426,445,465,487,508,526,545,566,586,606,626,646,665,686,706,726,747,767,786,806,826,846,866,886],"xSR":741.5,"ySR":501.8,"xT1":424.9,"yT1":0,"xT2":1058.1,"yT2":0,"toosoon":0,"cond_shown":"Incongruent","ratio_trial":300,"L_num":13,"L_den":26,"R_num":12,"R_den":15,"correct_side":2,"subjID":"Alejandra Caycedo Moreno23","gender":"1","school":"4","age":"9"},{"start_time":1552073980708,"click_time":1552073981938,"finger_time":1552073980857,"fix_duration":288.2674809108681,"trial":47,"RT":149,"MT":1081,"sideResp":2,"stimulus":[],"xmouse":[797,795,795,791,790,787,787,786,785,784,783,777,774,773,771,769,769,769,769,769,769,769,769,769,769,767,765,765,764,764,764,764,765,765,768,771,772,773,775,779,784,785,786,786,786,786,786,786,786,786,786,787,790,803,821,891,934,973,1001,1023,1046,1066],"ymouse":[556,565,565,579,583,594,597,603,608,616,625,644,652,659,664,670,671,671,672,672,672,672,672,672,669,660,647,642,639,636,633,632,630,627,619,600,589,578,564,553,538,535,533,533,533,532,530,528,527,526,523,522,517,502,482,382,310,236,171,120,66,2],"timestamp_mouse":[10,46,50,71,90,110,130,149,170,189,211,229,249,269,289,310,329,351,370,390,411,430,451,470,490,511,530,549,570,591,611,630,650,671,690,711,730,751,770,789,809,831,851,871,889,910,930,951,969,991,1011,1030,1051,1070,1090,1111,1129,1151,1170,1189,1209,1230],"xSR":741.5,"ySR":501.8,"xT1":424.9,"yT1":0,"xT2":1058.1,"yT2":0,"toosoon":0,"cond_shown":"Congruent","ratio_trial":200,"L_num":5,"L_den":10,"R_num":14,"R_den":20,"correct_side":2,"subjID":"Alejandra Caycedo Moreno23","gender":"1","school":"4","age":"9"},{"start_time":1552073986790,"click_time":1552073988638,"finger_time":1552073988219,"fix_duration":250,"trial":48,"RT":1429,"MT":419,"sideResp":2,"stimulus":[],"xmouse":[784,784,784,783,783,783,783,783,783,783,783,783,782,780,780,780,779,778,778,778,778,778,778,777,777,776,775,775,775,775,775,775,775,775,775,775,775,775,775,775,775,775,775,775,775,775,775,775,775,775,775,775,774,774,773,771,769,766,765,765,765,765,765,765,765,765,765,765,765,765,768,776,808,841,878,914,929,950,956,961,967,972,985,989,995,998,1002,1012,1018,1022,1025,1026,1035],"ymouse":[526,526,526,526,526,526,526,526,526,526,526,526,526,526,526,526,526,526,526,526,526,526,526,526,526,525,524,522,522,522,522,522,522,522,522,522,522,522,522,522,522,522,522,522,522,522,522,522,522,522,522,521,520,518,515,512,509,505,503,503,503,502,500,498,496,495,494,494,491,489,483,472,438,410,378,346,322,267,247,236,221,207,179,162,144,126,103,76,65,60,55,48,21],"timestamp_mouse":[10,37,47,68,88,109,129,147,168,189,209,229,247,267,289,309,328,348,369,389,409,427,449,468,488,509,528,548,569,588,608,629,648,668,688,709,728,748,769,788,807,829,849,869,888,909,929,948,968,988,1008,1029,1048,1068,1089,1109,1128,1148,1168,1188,1209,1227,1248,1269,1287,1308,1329,1347,1368,1388,1407,1429,1448,1469,1487,1508,1528,1548,1568,1589,1608,1629,1648,1667,1688,1708,1728,1748,1768,1789,1808,1829,1847],"xSR":723.5,"ySR":475.15000000000003,"xT1":414.09999999999997,"yT1":0,"xT2":1032.8999999999999,"yT2":0,"toosoon":0,"cond_shown":"Incongruent","ratio_trial":200,"L_num":1,"L_den":3,"R_num":2,"R_den":15,"correct_side":1,"subjID":"Alejandra Caycedo Moreno23","gender":"1","school":"4","age":"9"},{"start_time":1552073993716,"click_time":1552073995698,"finger_time":1552073994778,"fix_duration":354.2568401670374,"trial":49,"RT":1062,"MT":920,"sideResp":1,"stimulus":[],"xmouse":[761,761,761,761,761,762,762,762,762,762,762,762,762,762,762,762,762,762,762,762,762,762,762,762,762,762,762,762,762,762,762,762,762,762,762,762,762,762,762,762,762,762,762,760,757,756,756,756,756,756,755,755,748,741,731,719,713,708,704,700,695,690,684,682,678,674,670,662,637,627,617,609,600,596,594,588,581,566,559,556,554,552,547,544,541,539,536,529,525,524,523,522,518,512,509,508,507,507,507,506],"ymouse":[527,527,527,525,524,524,524,524,524,524,524,524,524,524,524,524,524,524,524,524,524,524,524,524,524,524,524,524,524,524,524,524,524,524,524,524,524,524,524,524,524,524,523,523,523,523,523,523,523,523,522,522,515,507,500,491,485,471,450,437,424,412,398,389,380,369,357,344,310,298,287,277,262,254,247,235,226,203,184,176,166,157,140,136,132,130,127,122,120,118,117,115,113,111,111,110,109,104,100,95],"timestamp_mouse":[12,23,42,62,82,103,122,142,163,183,203,223,243,263,283,301,323,342,363,381,402,423,443,462,482,502,522,543,563,583,602,623,643,663,683,703,722,742,763,782,801,823,842,862,882,903,923,943,963,983,1002,1021,1042,1062,1082,1101,1122,1142,1162,1182,1203,1221,1241,1262,1282,1301,1323,1342,1363,1382,1403,1423,1442,1462,1481,1501,1522,1541,1562,1582,1603,1623,1642,1662,1682,1703,1722,1742,1762,1782,1802,1822,1843,1862,1882,1903,1922,1942,1961,1981],"xSR":723.5,"ySR":475.15000000000003,"xT1":414.09999999999997,"yT1":0,"xT2":1032.8999999999999,"yT2":0,"toosoon":0,"cond_shown":"Incongruent","ratio_trial":100,"L_num":6,"L_den":12,"R_num":3,"R_den":5,"correct_side":2,"subjID":"Alejandra Caycedo Moreno23","gender":"1","school":"4","age":"9"},{"start_time":1552074000354,"click_time":1552074001518,"finger_time":1552074001097,"fix_duration":1314.718006216595,"trial":50,"RT":743,"MT":421,"sideResp":2,"stimulus":[],"xmouse":[765,765,765,765,765,765,765,765,765,765,765,765,765,765,765,765,765,765,765,765,765,765,765,765,765,765,765,765,765,765,765,765,765,765,765,766,785,803,835,872,909,981,1008,1017,1022,1024,1029,1032,1036,1041,1047,1054,1055,1055,1055,1055,1055,1056,1061],"ymouse":[543,543,543,543,543,543,543,543,543,543,543,543,543,543,543,543,543,543,543,543,543,543,543,543,543,543,543,543,543,543,543,543,543,543,543,543,518,494,448,403,360,299,273,256,240,224,198,189,181,173,161,136,119,103,92,90,86,79,70],"timestamp_mouse":[10,39,44,65,83,103,125,145,164,184,203,225,245,264,284,304,324,344,365,385,403,424,444,465,485,504,524,545,564,584,604,625,644,665,684,704,725,743,763,785,806,824,845,864,883,904,924,944,964,985,1006,1023,1043,1064,1084,1103,1124,1145,1164],"xSR":741.5,"ySR":501.8,"xT1":424.9,"yT1":0,"xT2":1058.1,"yT2":0,"toosoon":0,"cond_shown":"Incongruent","ratio_trial":200,"L_num":7,"L_den":15,"R_num":4,"R_den":6,"correct_side":2,"subjID":"Alejandra Caycedo Moreno23","gender":"1","school":"4","age":"9"},{"start_time":1552074005252,"click_time":1552074006300,"finger_time":1552074005778,"fix_duration":273.18852199905484,"trial":51,"RT":526,"MT":522,"sideResp":2,"stimulus":[],"xmouse":[797,797,797,797,797,797,797,797,797,797,797,797,797,797,797,797,797,797,797,797,797,796,796,796,796,798,804,810,817,824,832,850,867,887,910,931,937,948,951,956,967,994,1004,1010,1012,1012,1012,1012,1030,1036,1040,1055,1061],"ymouse":[521,521,521,521,521,521,521,521,519,517,516,516,516,516,516,516,516,516,516,516,514,513,512,510,509,503,486,474,457,438,413,350,300,251,200,143,128,89,81,71,60,33,17,4,0,0,0,0,0,3,7,18,22],"timestamp_mouse":[13,26,45,66,86,107,126,146,166,186,205,227,245,266,287,305,326,346,367,386,407,425,447,467,486,507,526,546,565,585,606,626,647,666,687,706,726,746,767,786,806,827,847,866,886,906,926,946,966,985,1007,1027,1047],"xSR":741.5,"ySR":501.8,"xT1":424.9,"yT1":0,"xT2":1058.1,"yT2":0,"toosoon":0,"cond_shown":"Congruent","ratio_trial":100,"L_num":7,"L_den":14,"R_num":9,"R_den":15,"correct_side":2,"subjID":"Alejandra Caycedo Moreno23","gender":"1","school":"4","age":"9"},{"start_time":1552074009126,"click_time":1552074010037,"finger_time":1552074009519,"fix_duration":1365.4210846635926,"trial":52,"RT":393,"MT":518,"sideResp":1,"stimulus":[],"xmouse":[777,777,777,777,777,777,777,777,777,777,777,777,777,777,777,774,768,759,744,741,738,734,727,719,711,700,688,674,666,662,654,647,639,635,633,630,625,616,584,565,550,533,528,524,520,511],"ymouse":[559,559,559,559,559,559,559,558,558,557,557,557,557,556,553,548,540,528,510,506,496,487,465,447,424,398,369,325,297,281,267,253,243,235,231,226,219,210,180,164,151,135,127,115,106,92],"timestamp_mouse":[12,39,52,73,93,112,132,152,172,192,213,232,251,273,292,311,332,353,372,393,412,433,454,472,492,511,531,553,572,593,612,632,651,672,692,712,732,751,772,792,813,832,852,873,892,911],"xSR":741.5,"ySR":501.8,"xT1":424.9,"yT1":0,"xT2":1058.1,"yT2":0,"toosoon":0,"cond_shown":"Congruent","ratio_trial":200,"L_num":9,"L_den":30,"R_num":13,"R_den":26,"correct_side":2,"subjID":"Alejandra Caycedo Moreno23","gender":"1","school":"4","age":"9"},{"start_time":1552074011684,"click_time":1552074012798,"finger_time":1552074012379,"fix_duration":484.93258654849683,"trial":53,"RT":695,"MT":419,"sideResp":1,"stimulus":[],"xmouse":[810,810,809,809,809,809,809,809,809,809,809,809,809,809,809,809,809,816,818,820,822,822,822,822,822,822,822,822,822,822,822,821,809,782,738,620,578,562,559,554,525,498,476,463,458,464,473,479,480,480,480,480,480,481,484,484],"ymouse":[568,568,568,568,568,568,568,568,568,568,568,568,568,568,568,568,568,567,567,566,565,565,565,565,565,565,565,565,565,565,565,564,560,553,540,509,496,487,481,464,388,341,301,269,237,172,149,134,128,123,123,123,121,119,114,99],"timestamp_mouse":[14,36,54,74,95,115,134,154,174,194,214,234,255,273,294,314,333,355,375,394,414,435,455,473,494,515,534,554,573,594,615,634,654,674,695,713,733,755,774,794,813,835,854,874,895,914,934,953,974,994,1014,1034,1054,1074,1095,1114],"xSR":741.5,"ySR":501.8,"xT1":424.9,"yT1":0,"xT2":1058.1,"yT2":0,"toosoon":0,"cond_shown":"Incongruent","ratio_trial":100,"L_num":10,"L_den":25,"R_num":8,"R_den":16,"correct_side":2,"subjID":"Alejandra Caycedo Moreno23","gender":"1","school":"4","age":"9"},{"start_time":1552074014390,"click_time":1552074015499,"finger_time":1552074015119,"fix_duration":250,"trial":54,"RT":729,"MT":380,"sideResp":1,"stimulus":[],"xmouse":[767,768,769,769,769,769,769,769,769,769,769,769,769,769,769,769,770,771,771,771,771,771,771,771,771,771,771,771,771,771,771,771,771,771,771,757,729,694,673,661,658,656,652,648,638,580,546,533,532,532,532,532,533,532,527,518],"ymouse":[560,560,560,560,560,560,560,560,560,560,560,560,560,560,560,560,560,560,560,560,560,560,560,560,560,560,560,560,560,560,560,560,560,560,560,548,532,513,500,490,477,466,449,427,394,227,144,90,66,50,41,41,40,40,40,40],"timestamp_mouse":[14,29,58,68,87,108,129,149,168,188,207,229,248,267,288,309,328,348,369,387,407,429,448,468,489,507,527,549,568,588,609,627,649,669,689,708,729,748,767,788,809,828,849,868,888,908,928,948,968,989,1010,1027,1047,1068,1088,1109],"xSR":741.5,"ySR":501.8,"xT1":424.9,"yT1":0,"xT2":1058.1,"yT2":0,"toosoon":0,"cond_shown":"Congruent","ratio_trial":300,"L_num":8,"L_den":16,"R_num":1,"R_den":5,"correct_side":1,"subjID":"Alejandra Caycedo Moreno23","gender":"1","school":"4","age":"9"},{"start_time":1552074017529,"click_time":1552074018617,"finger_time":1552074018099,"fix_duration":869.893473664197,"trial":55,"RT":570,"MT":518,"sideResp":2,"stimulus":[],"xmouse":[796,796,796,796,796,796,796,796,796,796,796,796,796,796,796,796,796,796,796,796,796,796,796,796,796,805,815,826,845,853,863,878,894,917,956,972,976,977,979,987,990,995,1000,1004,1007,1009,1014,1019,1027,1040,1045,1047,1049,1053,1060],"ymouse":[538,538,538,538,538,538,538,538,538,538,538,538,538,538,538,538,538,538,538,538,538,538,538,538,538,530,519,504,466,448,431,416,402,384,352,327,307,291,279,264,261,257,254,249,233,221,204,192,179,154,133,108,81,61,42],"timestamp_mouse":[12,36,49,69,89,110,130,150,169,189,209,230,250,269,289,310,330,350,369,389,409,430,450,468,490,510,530,549,570,589,610,630,649,670,689,710,729,749,771,789,808,828,849,868,889,909,930,950,970,988,1009,1029,1048,1069,1088],"xSR":741.5,"ySR":501.8,"xT1":424.9,"yT1":0,"xT2":1058.1,"yT2":0,"toosoon":0,"cond_shown":"Congruent","ratio_trial":100,"L_num":12,"L_den":30,"R_num":13,"R_den":26,"correct_side":2,"subjID":"Alejandra Caycedo Moreno23","gender":"1","school":"4","age":"9"},{"start_time":1552074020874,"click_time":1552074022418,"finger_time":1552074021578,"fix_duration":1294.2056196764472,"trial":56,"RT":704,"MT":840,"sideResp":2,"stimulus":[],"xmouse":[780,780,780,780,780,780,780,780,780,780,780,780,780,780,780,780,780,780,780,780,780,780,780,780,780,780,780,780,780,780,780,781,795,811,831,847,860,875,886,896,908,918,942,953,964,975,980,987,990,990,991,994,1003,1007,1012,1019,1022,1032,1037,1039,1042,1045,1051,1053,1053,1053,1053,1053,1053,1053,1053,1053,1054,1055,1056,1057,1058,1061],"ymouse":[546,546,546,546,546,546,546,546,546,546,546,546,546,546,546,546,546,546,546,546,546,546,546,546,546,546,546,546,546,546,546,546,539,527,510,493,475,445,424,408,393,378,341,322,306,290,279,264,256,250,243,231,206,188,169,147,130,86,72,60,46,33,13,5,2,1,1,1,5,10,14,18,26,30,34,37,40,44],"timestamp_mouse":[19,42,43,64,84,104,124,143,164,184,204,225,245,265,284,304,325,344,365,385,405,424,444,464,485,504,524,545,565,584,604,624,644,664,683,704,724,743,763,785,804,824,844,865,883,905,924,944,964,984,1004,1024,1044,1063,1084,1105,1125,1144,1164,1184,1204,1224,1244,1265,1285,1304,1325,1344,1364,1384,1404,1425,1444,1463,1485,1504,1524,1544],"xSR":741.5,"ySR":501.8,"xT1":424.9,"yT1":0,"xT2":1058.1,"yT2":0,"toosoon":0,"cond_shown":"Incongruent","ratio_trial":100,"L_num":3,"L_den":5,"R_num":8,"R_den":16,"correct_side":1,"subjID":"Alejandra Caycedo Moreno23","gender":"1","school":"4","age":"9"},{"start_time":1552074025604,"click_time":1552074026719,"finger_time":1552074026078,"fix_duration":1444.8101059591434,"trial":57,"RT":474,"MT":641,"sideResp":1,"stimulus":[],"xmouse":[786,786,786,786,786,786,786,786,786,786,786,786,786,786,786,786,786,784,784,781,779,770,763,751,731,691,580,528,456,416,385,347,333,326,323,322,322,322,322,322,326,355,376,389,393,394,394,394,395,396,403,407,411,415,422,454],"ymouse":[562,562,562,562,562,562,562,562,562,562,562,562,562,562,562,562,562,560,555,550,541,520,504,486,459,417,330,293,241,207,178,124,103,85,76,73,73,73,73,73,73,74,77,77,77,77,77,77,77,77,74,70,68,66,65,65],"timestamp_mouse":[14,35,54,74,94,115,134,154,174,194,215,234,255,275,295,314,335,354,374,394,413,434,454,474,494,515,534,555,574,594,615,635,654,674,694,714,734,754,774,794,814,834,854,874,894,914,935,954,974,995,1016,1034,1054,1075,1094,1115],"xSR":741.5,"ySR":501.8,"xT1":424.9,"yT1":0,"xT2":1058.1,"yT2":0,"toosoon":0,"cond_shown":"Congruent","ratio_trial":200,"L_num":15,"L_den":25,"R_num":4,"R_den":10,"correct_side":1,"subjID":"Alejandra Caycedo Moreno23","gender":"1","school":"4","age":"9"},{"start_time":1552074028410,"click_time":1552074029719,"finger_time":1552074029119,"fix_duration":450.5296470085338,"trial":58,"RT":709,"MT":600,"sideResp":2,"stimulus":[],"xmouse":[775,775,775,775,775,775,775,775,773,770,768,768,768,768,767,767,764,764,763,761,760,756,755,755,755,755,752,752,749,747,746,743,742,742,742,744,747,755,763,774,789,828,855,892,935,983,1046,1046,1046,1046,1046,1046,1046,1046,1046,1046,1046,1046,1046,1046,1046,1046,1046,1046,1046,1109],"ymouse":[558,558,558,558,558,558,558,558,557,557,557,557,557,557,557,557,557,557,557,557,557,557,557,557,557,557,557,556,549,545,540,529,522,515,507,496,489,476,464,446,422,367,328,276,211,143,20,20,20,20,20,20,20,20,20,20,20,20,20,20,20,20,20,20,20,3],"timestamp_mouse":[13,44,49,68,88,108,128,148,168,188,208,229,248,267,289,309,328,348,369,389,408,428,449,469,488,508,528,548,568,588,609,629,649,668,687,709,727,747,768,787,808,828,848,868,888,908,929,948,968,988,1007,1027,1048,1069,1089,1108,1128,1148,1168,1188,1212,1228,1248,1269,1289,1309],"xSR":741.5,"ySR":501.8,"xT1":424.9,"yT1":0,"xT2":1058.1,"yT2":0,"toosoon":0,"cond_shown":"Incongruent","ratio_trial":300,"L_num":13,"L_den":26,"R_num":12,"R_den":15,"correct_side":2,"subjID":"Alejandra Caycedo Moreno23","gender":"1","school":"4","age":"9"},{"start_time":1552074032730,"click_time":1552074034799,"finger_time":1552074033318,"fix_duration":1430.2477788424994,"trial":59,"RT":588,"MT":1481,"sideResp":2,"stimulus":[],"xmouse":[791,791,791,791,791,791,791,791,791,791,791,791,791,791,790,789,789,788,788,788,788,788,788,788,788,788,788,789,792,805,848,859,867,872,876,877,877,877,877,877,876,876,876,875,875,875,875,874,873,869,867,8