[{"start_time":1552308734733,"click_time":1552308737346,"finger_time":1552308736365,"fix_duration":1484.7215033615548,"trial":0,"RT":1632,"MT":981,"sideResp":2,"stimulus":[],"xmouse":[782,782,782,782,782,782,782,782,782,782,782,782,782,782,782,782,782,782,782,782,782,782,782,782,782,782,782,782,782,782,782,782,782,782,782,782,782,782,782,782,782,782,782,782,782,782,782,782,782,786,808,809,810,811,812,813,813,813,814,819,823,825,827,828,828,828,829,830,830,830,830,830,830,830,830,830,830,831,833,840,846,852,863,875,914,938,957,965,974,999,1018,1040,1063,1085,1115,1122,1127,1128,1132,1147,1157,1161,1162,1163,1163,1163,1168,1171,1173,1173,1167,1163,1156,1146,1134,1134,1134,1134,1134,1134,1134,1134,1134,1134,1134,1134,1134,1134,1134,1134],"ymouse":[551,551,551,551,551,551,551,551,551,551,551,551,551,551,551,551,551,551,551,551,551,551,551,551,551,551,551,551,551,551,551,551,551,551,551,551,551,551,551,551,551,551,551,551,551,551,551,551,551,551,555,555,555,555,555,555,555,555,554,547,540,535,530,524,515,509,506,502,500,499,499,499,499,499,499,499,499,499,499,497,493,486,473,462,460,460,461,462,462,462,462,461,454,446,425,415,400,383,357,281,248,235,231,230,230,228,221,210,199,184,153,143,134,124,113,113,113,113,113,113,113,113,113,113,113,112,108,104,101,98],"timestamp_mouse":[10,57,71,91,112,131,151,172,191,212,232,251,271,292,311,331,351,372,392,411,432,451,471,492,511,530,552,571,591,611,631,652,670,691,711,731,752,772,791,812,830,852,872,890,912,931,951,970,991,1011,1031,1051,1071,1092,1112,1132,1152,1172,1192,1212,1232,1251,1272,1291,1311,1332,1351,1372,1391,1410,1432,1452,1470,1491,1512,1531,1551,1572,1591,1611,1632,1650,1672,1691,1712,1731,1751,1772,1791,1812,1831,1851,1872,1892,1912,1931,1952,1972,1992,2012,2031,2051,2072,2091,2111,2130,2152,2171,2191,2211,2232,2252,2271,2291,2312,2330,2352,2372,2392,2411,2431,2452,2471,2491,2511,2532,2551,2571,2590,2612],"xSR":741.5,"ySR":500.5,"xT1":424.9,"yT1":0,"xT2":1058.1,"yT2":0,"toosoon":0,"cond_shown":"Congruent","ratio_trial":200,"L_num":8,"L_den":15,"R_num":3,"R_den":9,"correct_side":1,"subjID":"gabrielpizzamendez6","gender":"0","age":"9","school":"4","test":{"fix_dur":[250,1500],"timestim":1000,"targets_dim":[100,100],"targets_relative_coord":[0.3,0.7],"size_stim":[880,420],"start_dim":[100,100],"size_start":[300,300],"size_fix":60,"samplingrate":20,"img_types":["Congruent","Incongruent"],"ratios":[100,200,300],"rep_conds":19,"nTrials":120,"trials_to_rest":500,"Trials_order":[92,20,22,100,47,67,62,80,9,17,46,98,118,64,73,70,59,110,105,40,116,63,25,54,21,90,78,87,31,32,35,18,11,13,57,49,39,93,37,81,91,60,102,24,30,117,75,48,3,2,10,94,114,0,97,71,27,12,103,53,82,108,7,65,111,8,1,6,15,42,43,61,55,28,104,5,79,115,83,66,95,106,58,96,36,38,23,69,14,101,84,51,16,50,113,119,4,44,34,85,41,76,26,56,45,86,88,89,29,33,112,52,77,99,74,68,107,109,72,19],"cond_shown":["Congruent","Congruent","Congruent","Congruent","Incongruent","Incongruent","Congruent","Congruent","Incongruent","Incongruent","Congruent","Congruent","Congruent","Congruent","Incongruent","Congruent","Incongruent","Congruent","Incongruent","Congruent","Congruent","Incongruent","Incongruent","Congruent","Incongruent","Congruent","Congruent","Incongruent","Incongruent","Congruent","Incongruent","Congruent","Incongruent","Incongruent","Incongruent","Incongruent","Incongruent","Incongruent","Incongruent","Incongruent","Incongruent","Congruent","Congruent","Congruent","Congruent","Incongruent","Incongruent","Congruent","Incongruent","Congruent","Congruent","Congruent","Congruent","Congruent","Incongruent","Incongruent","Incongruent","Congruent","Incongruent","Incongruent","Congruent","Congruent","Incongruent","Incongruent","Incongruent","Congruent","Incongruent","Congruent","Incongruent","Congruent","Incongruent","Incongruent","Incongruent","Congruent","Congruent","Incongruent","Incongruent","Incongruent","Incongruent","Congruent","Incongruent","Congruent","Congruent","Congruent","Congruent","Congruent","Incongruent","Incongruent","Congruent","Incongruent","Congruent","Incongruent","Congruent","Congruent","Incongruent","Incongruent","Congruent","Congruent","Congruent","Incongruent","Incongruent","Congruent","Congruent","Congruent","Incongruent","Congruent","Congruent","Incongruent","Incongruent","Incongruent","Congruent","Congruent","Incongruent","Incongruent","Congruent","Congruent","Incongruent","Incongruent","Congruent","Incongruent"],"ratio_trial":[200,200,300,300,300,100,200,200,200,300,300,200,300,300,100,300,300,200,200,300,200,200,100,100,200,100,100,200,100,200,300,100,300,100,200,100,200,200,100,200,100,100,100,100,100,200,200,100,200,200,300,300,100,100,100,300,200,100,100,300,300,100,100,300,200,200,100,100,200,100,100,100,100,300,200,300,100,100,300,100,300,300,300,100,100,200,300,200,200,300,100,200,300,200,300,300,300,200,300,100,300,300,200,200,200,200,300,300,300,200,300,300,300,200,200,200,300,100,100,100],"left_num":[8,5,1,24,4,10,6,4,14,7,2,12,1,2,9,20,13,6,3,1,4,6,9,1,9,9,7,1,12,9,7,8,4,4,7,9,7,14,6,14,4,3,4,11,4,4,9,8,7,16,11,3,1,1,10,1,14,2,8,7,1,11,8,13,7,1,6,11,4,7,1,6,12,3,16,1,2,6,1,10,13,1,20,1,15,6,1,14,4,13,7,7,24,6,3,4,4,20,24,3,7,12,11,14,11,16,11,13,4,1,20,11,1,3,13,6,1,3,6,6],"right_num":[3,14,11,8,2,8,11,3,6,8,12,6,11,12,13,14,12,7,11,7,3,3,13,18,8,8,9,2,2,13,8,2,2,8,8,13,8,12,13,6,8,2,6,6,15,1,8,2,8,12,4,11,18,18,8,2,12,11,6,8,3,6,1,12,4,21,3,4,1,9,8,11,9,11,12,2,6,3,2,3,12,6,9,3,13,11,2,12,3,12,9,14,8,11,4,2,13,9,2,7,8,2,3,6,3,12,4,12,8,3,8,4,2,1,14,11,2,4,15,11],"left_den":[15,10,5,30,20,25,20,8,30,10,10,20,5,10,15,25,26,12,4,20,10,20,15,2,15,15,14,3,30,30,10,16,20,8,10,15,10,30,10,30,8,6,8,22,10,30,15,16,10,20,22,12,2,2,25,2,30,5,16,10,5,22,20,26,15,2,12,22,30,14,2,10,24,12,20,2,4,12,2,25,26,5,25,2,25,20,2,30,8,26,14,10,30,20,6,20,20,25,30,9,10,24,22,28,20,20,22,26,5,2,25,22,2,10,26,20,2,6,12,10],"right_den":[9,20,22,16,4,16,22,10,9,20,24,15,22,24,26,28,15,10,20,20,15,6,26,30,10,16,15,15,4,26,20,5,4,20,16,26,16,18,26,9,20,5,10,15,30,3,10,5,16,20,20,20,30,30,16,10,18,22,10,20,6,15,2,15,6,30,5,10,3,15,20,22,15,20,20,10,15,5,10,10,15,12,18,5,26,22,10,18,10,15,15,28,16,22,20,4,26,15,4,30,20,10,10,20,4,20,20,15,16,10,16,20,10,2,20,22,10,10,25,22],"correct_side":[1,2,2,1,2,2,2,1,2,1,2,1,2,2,1,1,2,2,1,2,1,2,1,2,2,1,2,1,2,2,1,1,2,1,1,1,1,2,1,2,1,1,2,1,2,2,2,1,1,1,1,2,2,2,2,1,2,2,2,1,2,1,2,2,2,2,2,1,2,2,1,1,2,2,1,1,1,2,1,1,2,2,1,2,1,2,1,2,1,2,2,1,1,2,1,2,2,1,1,1,1,1,1,1,2,1,1,2,1,1,1,1,1,2,2,2,1,1,2,1],"img_shown":["img2/200/Congruent/L/C_Dist_200_LN_8_LD_15_RN_3_RD_9_0.png","img2/200/Congruent/R/C_Dist_200_LN_5_LD_10_RN_14_RD_20_1.png","img2/300/Congruent/R/C_Dist_300_LN_1_LD_5_RN_11_RD_22_1.png","img2/300/Congruent/L/C_Dist_300_LN_24_LD_30_RN_8_RD_16_0.png","img2/300/Incongruent/R/I_Dist_300_LN_4_LD_20_RN_2_RD_4_1.png","img2/100/Incongruent/R/I_Dist_100_LN_10_LD_25_RN_8_RD_16_1.png","img2/200/Congruent/R/C_Dist_200_LN_6_LD_20_RN_11_RD_22_1.png","img2/200/Congruent/L/C_Dist_200_LN_4_LD_8_RN_3_RD_10_0.png","img2/200/Incongruent/R/I_Dist_200_LN_14_LD_30_RN_6_RD_9_1.png","img2/300/Incongruent/L/I_Dist_300_LN_7_LD_10_RN_8_RD_20_0.png","img2/300/Congruent/R/C_Dist_300_LN_2_LD_10_RN_12_RD_24_1.png","img2/200/Congruent/L/C_Dist_200_LN_12_LD_20_RN_6_RD_15_0.png","img2/300/Congruent/R/C_Dist_300_LN_1_LD_5_RN_11_RD_22_1.png","img2/300/Congruent/R/C_Dist_300_LN_2_LD_10_RN_12_RD_24_1.png","img2/100/Incongruent/L/I_Dist_100_LN_9_LD_15_RN_13_RD_26_0.png","img2/300/Congruent/L/C_Dist_300_LN_20_LD_25_RN_14_RD_28_0.png","img2/300/Incongruent/R/I_Dist_300_LN_13_LD_26_RN_12_RD_15_1.png","img2/200/Congruent/R/C_Dist_200_LN_6_LD_12_RN_7_RD_10_1.png","img2/200/Incongruent/L/I_Dist_200_LN_3_LD_4_RN_11_RD_20_0.png","img2/300/Congruent/R/C_Dist_300_LN_1_LD_20_RN_7_RD_20_1.png","img2/200/Congruent/L/C_Dist_200_LN_4_LD_10_RN_3_RD_15_0.png","img2/200/Incongruent/R/I_Dist_200_LN_6_LD_20_RN_3_RD_6_1.png","img2/100/Incongruent/L/I_Dist_100_LN_9_LD_15_RN_13_RD_26_0.png","img2/100/Congruent/R/C_Dist_100_LN_1_LD_2_RN_18_RD_30_1.png","img2/200/Incongruent/R/I_Dist_200_LN_9_LD_15_RN_8_RD_10_1.png","img2/100/Congruent/L/C_Dist_100_LN_9_LD_15_RN_8_RD_16_0.png","img2/100/Congruent/R/C_Dist_100_LN_7_LD_14_RN_9_RD_15_1.png","img2/200/Incongruent/L/I_Dist_200_LN_1_LD_3_RN_2_RD_15_0.png","img2/100/Incongruent/R/I_Dist_100_LN_12_LD_30_RN_2_RD_4_1.png","img2/200/Congruent/R/C_Dist_200_LN_9_LD_30_RN_13_RD_26_1.png","img2/300/Incongruent/L/I_Dist_300_LN_7_LD_10_RN_8_RD_20_0.png","img2/100/Congruent/L/C_Dist_100_LN_8_LD_16_RN_2_RD_5_0.png","img2/300/Incongruent/R/I_Dist_300_LN_4_LD_20_RN_2_RD_4_1.png","img2/100/Incongruent/L/I_Dist_100_LN_4_LD_8_RN_8_RD_20_0.png","img2/200/Incongruent/L/I_Dist_200_LN_7_LD_10_RN_8_RD_16_0.png","img2/100/Incongruent/L/I_Dist_100_LN_9_LD_15_RN_13_RD_26_0.png","img2/200/Incongruent/L/I_Dist_200_LN_7_LD_10_RN_8_RD_16_0.png","img2/200/Incongruent/R/I_Dist_200_LN_14_LD_30_RN_12_RD_18_1.png","img2/100/Incongruent/L/I_Dist_100_LN_6_LD_10_RN_13_RD_26_0.png","img2/200/Incongruent/R/I_Dist_200_LN_14_LD_30_RN_6_RD_9_1.png","img2/100/Incongruent/L/I_Dist_100_LN_4_LD_8_RN_8_RD_20_0.png","img2/100/Congruent/L/C_Dist_100_LN_3_LD_6_RN_2_RD_5_0.png","img2/100/Congruent/R/C_Dist_100_LN_4_LD_8_RN_6_RD_10_1.png","img2/100/Congruent/L/C_Dist_100_LN_11_LD_22_RN_6_RD_15_0.png","img2/100/Congruent/R/C_Dist_100_LN_4_LD_10_RN_15_RD_30_1.png","img2/200/Incongruent/R/I_Dist_200_LN_4_LD_30_RN_1_RD_3_1.png","img2/200/Incongruent/R/I_Dist_200_LN_9_LD_15_RN_8_RD_10_1.png","img2/100/Congruent/L/C_Dist_100_LN_8_LD_16_RN_2_RD_5_0.png","img2/200/Incongruent/L/I_Dist_200_LN_7_LD_10_RN_8_RD_16_0.png","img2/200/Congruent/L/C_Dist_200_LN_16_LD_20_RN_12_RD_20_0.png","img2/300/Congruent/L/C_Dist_300_LN_11_LD_22_RN_4_RD_20_0.png","img2/300/Congruent/R/C_Dist_300_LN_3_LD_12_RN_11_RD_20_1.png","img2/100/Congruent/R/C_Dist_100_LN_1_LD_2_RN_18_RD_30_1.png","img2/100/Congruent/R/C_Dist_100_LN_1_LD_2_RN_18_RD_30_1.png","img2/100/Incongruent/R/I_Dist_100_LN_10_LD_25_RN_8_RD_16_1.png","img2/300/Incongruent/L/I_Dist_300_LN_1_LD_2_RN_2_RD_10_0.png","img2/200/Incongruent/R/I_Dist_200_LN_14_LD_30_RN_12_RD_18_1.png","img2/100/Congruent/R/C_Dist_100_LN_2_LD_5_RN_11_RD_22_1.png","img2/100/Incongruent/R/I_Dist_100_LN_8_LD_16_RN_6_RD_10_1.png","img2/300/Incongruent/L/I_Dist_300_LN_7_LD_10_RN_8_RD_20_0.png","img2/300/Congruent/R/C_Dist_300_LN_1_LD_5_RN_3_RD_6_1.png","img2/100/Congruent/L/C_Dist_100_LN_11_LD_22_RN_6_RD_15_0.png","img2/100/Incongruent/R/I_Dist_100_LN_8_LD_20_RN_1_RD_2_1.png","img2/300/Incongruent/R/I_Dist_300_LN_13_LD_26_RN_12_RD_15_1.png","img2/200/Incongruent/R/I_Dist_200_LN_7_LD_15_RN_4_RD_6_1.png","img2/200/Congruent/R/C_Dist_200_LN_1_LD_2_RN_21_RD_30_1.png","img2/100/Incongruent/R/I_Dist_100_LN_6_LD_12_RN_3_RD_5_1.png","img2/100/Congruent/L/C_Dist_100_LN_11_LD_22_RN_4_RD_10_0.png","img2/200/Incongruent/R/I_Dist_200_LN_4_LD_30_RN_1_RD_3_1.png","img2/100/Congruent/R/C_Dist_100_LN_7_LD_14_RN_9_RD_15_1.png","img2/100/Incongruent/L/I_Dist_100_LN_1_LD_2_RN_8_RD_20_0.png","img2/100/Incongruent/L/I_Dist_100_LN_6_LD_10_RN_11_RD_22_0.png","img2/100/Incongruent/R/I_Dist_100_LN_12_LD_24_RN_9_RD_15_1.png","img2/300/Congruent/R/C_Dist_300_LN_3_LD_12_RN_11_RD_20_1.png","img2/200/Congruent/L/C_Dist_200_LN_16_LD_20_RN_12_RD_20_0.png","img2/300/Incongruent/L/I_Dist_300_LN_1_LD_2_RN_2_RD_10_0.png","img2/100/Incongruent/L/I_Dist_100_LN_2_LD_4_RN_6_RD_15_0.png","img2/100/Incongruent/R/I_Dist_100_LN_6_LD_12_RN_3_RD_5_1.png","img2/300/Incongruent/L/I_Dist_300_LN_1_LD_2_RN_2_RD_10_0.png","img2/100/Congruent/L/C_Dist_100_LN_10_LD_25_RN_3_RD_10_0.png","img2/300/Incongruent/R/I_Dist_300_LN_13_LD_26_RN_12_RD_15_1.png","img2/300/Congruent/R/C_Dist_300_LN_1_LD_5_RN_6_RD_12_1.png","img2/300/Congruent/L/C_Dist_300_LN_20_LD_25_RN_9_RD_18_0.png","img2/100/Congruent/R/C_Dist_100_LN_1_LD_2_RN_3_RD_5_1.png","img2/100/Congruent/L/C_Dist_100_LN_15_LD_25_RN_13_RD_26_0.png","img2/200/Congruent/R/C_Dist_200_LN_6_LD_20_RN_11_RD_22_1.png","img2/300/Incongruent/L/I_Dist_300_LN_1_LD_2_RN_2_RD_10_0.png","img2/200/Incongruent/R/I_Dist_200_LN_14_LD_30_RN_12_RD_18_1.png","img2/200/Congruent/L/C_Dist_200_LN_4_LD_8_RN_3_RD_10_0.png","img2/300/Incongruent/R/I_Dist_300_LN_13_LD_26_RN_12_RD_15_1.png","img2/100/Congruent/R/C_Dist_100_LN_7_LD_14_RN_9_RD_15_1.png","img2/200/Incongruent/L/I_Dist_200_LN_7_LD_10_RN_14_RD_28_0.png","img2/300/Congruent/L/C_Dist_300_LN_24_LD_30_RN_8_RD_16_0.png","img2/200/Congruent/R/C_Dist_200_LN_6_LD_20_RN_11_RD_22_1.png","img2/300/Incongruent/L/I_Dist_300_LN_3_LD_6_RN_4_RD_20_0.png","img2/300/Incongruent/R/I_Dist_300_LN_4_LD_20_RN_2_RD_4_1.png","img2/300/Congruent/R/C_Dist_300_LN_4_LD_20_RN_13_RD_26_1.png","img2/200/Congruent/L/C_Dist_200_LN_20_LD_25_RN_9_RD_15_0.png","img2/300/Congruent/L/C_Dist_300_LN_24_LD_30_RN_2_RD_4_0.png","img2/100/Incongruent/L/I_Dist_100_LN_3_LD_9_RN_7_RD_30_0.png","img2/300/Incongruent/L/I_Dist_300_LN_7_LD_10_RN_8_RD_20_0.png","img2/300/Congruent/L/C_Dist_300_LN_12_LD_24_RN_2_RD_10_0.png","img2/200/Congruent/L/C_Dist_200_LN_11_LD_22_RN_3_RD_10_0.png","img2/200/Congruent/L/C_Dist_200_LN_14_LD_28_RN_6_RD_20_0.png","img2/200/Incongruent/R/I_Dist_200_LN_11_LD_20_RN_3_RD_4_1.png","img2/200/Congruent/L/C_Dist_200_LN_16_LD_20_RN_12_RD_20_0.png","img2/300/Congruent/L/C_Dist_300_LN_11_LD_22_RN_4_RD_20_0.png","img2/300/Incongruent/R/I_Dist_300_LN_13_LD_26_RN_12_RD_15_1.png","img2/300/Incongruent/L/I_Dist_300_LN_4_LD_5_RN_8_RD_16_0.png","img2/200/Incongruent/L/I_Dist_200_LN_1_LD_2_RN_3_RD_10_0.png","img2/300/Congruent/L/C_Dist_300_LN_20_LD_25_RN_8_RD_16_0.png","img2/300/Congruent/L/C_Dist_300_LN_11_LD_22_RN_4_RD_20_0.png","img2/300/Incongruent/L/I_Dist_300_LN_1_LD_2_RN_2_RD_10_0.png","img2/200/Incongruent/R/I_Dist_200_LN_3_LD_10_RN_1_RD_2_1.png","img2/200/Congruent/R/C_Dist_200_LN_13_LD_26_RN_14_RD_20_1.png","img2/200/Congruent/R/C_Dist_200_LN_6_LD_20_RN_11_RD_22_1.png","img2/300/Incongruent/L/I_Dist_300_LN_1_LD_2_RN_2_RD_10_0.png","img2/100/Incongruent/L/I_Dist_100_LN_3_LD_6_RN_4_RD_10_0.png","img2/100/Congruent/R/C_Dist_100_LN_6_LD_12_RN_15_RD_25_1.png","img2/100/Incongruent/L/I_Dist_100_LN_6_LD_10_RN_11_RD_22_0.png"],"dist100_C":[["C_Dist_100_LN_10_LD_25_RN_3_RD_10_0.png","C_Dist_100_LN_11_LD_22_RN_4_RD_10_0.png","C_Dist_100_LN_11_LD_22_RN_6_RD_15_0.png","C_Dist_100_LN_15_LD_25_RN_13_RD_26_0.png","C_Dist_100_LN_3_LD_6_RN_2_RD_5_0.png","C_Dist_100_LN_6_LD_20_RN_5_RD_25_0.png","C_Dist_100_LN_8_LD_16_RN_2_RD_5_0.png","C_Dist_100_LN_9_LD_15_RN_8_RD_16_0.png"],["C_Dist_100_LN_1_LD_2_RN_18_RD_30_1.png","C_Dist_100_LN_1_LD_2_RN_3_RD_5_1.png","C_Dist_100_LN_12_LD_30_RN_13_RD_26_1.png","C_Dist_100_LN_2_LD_5_RN_11_RD_22_1.png","C_Dist_100_LN_2_LD_5_RN_6_RD_12_1.png","C_Dist_100_LN_3_LD_20_RN_4_RD_16_1.png","C_Dist_100_LN_4_LD_10_RN_15_RD_30_1.png","C_Dist_100_LN_4_LD_8_RN_6_RD_10_1.png","C_Dist_100_LN_6_LD_12_RN_15_RD_25_1.png","C_Dist_100_LN_7_LD_14_RN_15_RD_25_1.png","C_Dist_100_LN_7_LD_14_RN_9_RD_15_1.png"]],"dist100_I":[["I_Dist_100_LN_1_LD_2_RN_8_RD_20_0.png","I_Dist_100_LN_2_LD_4_RN_6_RD_15_0.png","I_Dist_100_LN_2_LD_4_RN_8_RD_20_0.png","I_Dist_100_LN_3_LD_5_RN_11_RD_22_0.png","I_Dist_100_LN_3_LD_5_RN_8_RD_16_0.png","I_Dist_100_LN_3_LD_6_RN_4_RD_10_0.png","I_Dist_100_LN_3_LD_9_RN_7_RD_30_0.png","I_Dist_100_LN_4_LD_8_RN_8_RD_20_0.png","I_Dist_100_LN_6_LD_10_RN_11_RD_22_0.png","I_Dist_100_LN_6_LD_10_RN_13_RD_26_0.png","I_Dist_100_LN_6_LD_10_RN_7_RD_14_0.png","I_Dist_100_LN_9_LD_10_RN_20_RD_25_0.png","I_Dist_100_LN_9_LD_15_RN_13_RD_26_0.png","I_Dist_100_LN_9_LD_15_RN_14_RD_28_0.png"],["I_Dist_100_LN_10_LD_25_RN_8_RD_16_1.png","I_Dist_100_LN_10_LD_25_RN_9_RD_18_1.png","I_Dist_100_LN_11_LD_22_RN_9_RD_15_1.png","I_Dist_100_LN_12_LD_24_RN_9_RD_15_1.png","I_Dist_100_LN_12_LD_30_RN_2_RD_4_1.png","I_Dist_100_LN_13_LD_26_RN_12_RD_20_1.png","I_Dist_100_LN_13_LD_26_RN_6_RD_10_1.png","I_Dist_100_LN_17_LD_30_RN_10_RD_15_1.png","I_Dist_100_LN_6_LD_12_RN_3_RD_5_1.png","I_Dist_100_LN_8_LD_16_RN_6_RD_10_1.png","I_Dist_100_LN_8_LD_20_RN_1_RD_2_1.png","I_Dist_100_LN_9_LD_18_RN_6_RD_10_1.png"]],"dist100_S":[["E_Dist_100_LN_2_LD_12_RN_2_RD_30_0.png","E_Dist_100_LN_6_LD_10_RN_6_RD_12_0.png"],["E_Dist_100_LN_6_LD_12_RN_6_RD_10_1.png"]],"dist200_C":[["C_Dist_200_LN_11_LD_22_RN_3_RD_10_0.png","C_Dist_200_LN_12_LD_15_RN_6_RD_10_0.png","C_Dist_200_LN_12_LD_20_RN_6_RD_15_0.png","C_Dist_200_LN_14_LD_28_RN_6_RD_20_0.png","C_Dist_200_LN_15_LD_25_RN_4_RD_10_0.png","C_Dist_200_LN_16_LD_20_RN_12_RD_20_0.png","C_Dist_200_LN_16_LD_30_RN_9_RD_27_0.png","C_Dist_200_LN_20_LD_25_RN_9_RD_15_0.png","C_Dist_200_LN_21_LD_30_RN_2_RD_4_0.png","C_Dist_200_LN_4_LD_10_RN_3_RD_15_0.png","C_Dist_200_LN_4_LD_8_RN_3_RD_10_0.png","C_Dist_200_LN_6_LD_15_RN_3_RD_15_0.png","C_Dist_200_LN_7_LD_21_RN_2_RD_15_0.png","C_Dist_200_LN_8_LD_15_RN_2_RD_6_0.png","C_Dist_200_LN_8_LD_15_RN_3_RD_9_0.png","C_Dist_200_LN_8_LD_15_RN_7_RD_21_0.png","C_Dist_200_LN_9_LD_20_RN_4_RD_16_0.png"],["C_Dist_200_LN_1_LD_2_RN_21_RD_30_1.png","C_Dist_200_LN_13_LD_26_RN_14_RD_20_1.png","C_Dist_200_LN_3_LD_10_RN_11_RD_22_1.png","C_Dist_200_LN_3_LD_10_RN_14_RD_28_1.png","C_Dist_200_LN_3_LD_10_RN_7_RD_14_1.png","C_Dist_200_LN_3_LD_12_RN_9_RD_20_1.png","C_Dist_200_LN_3_LD_6_RN_14_RD_20_1.png","C_Dist_200_LN_5_LD_10_RN_14_RD_20_1.png","C_Dist_200_LN_6_LD_12_RN_7_RD_10_1.png","C_Dist_200_LN_6_LD_20_RN_11_RD_22_1.png","C_Dist_200_LN_7_LD_15_RN_18_RD_27_1.png","C_Dist_200_LN_9_LD_30_RN_13_RD_26_1.png"]],"dist200_I":[["I_Dist_200_LN_1_LD_2_RN_3_RD_10_0.png","I_Dist_200_LN_1_LD_3_RN_2_RD_15_0.png","I_Dist_200_LN_3_LD_4_RN_11_RD_20_0.png","I_Dist_200_LN_4_LD_5_RN_6_RD_10_0.png","I_Dist_200_LN_4_LD_6_RN_14_RD_30_0.png","I_Dist_200_LN_7_LD_10_RN_12_RD_24_0.png","I_Dist_200_LN_7_LD_10_RN_14_RD_28_0.png","I_Dist_200_LN_7_LD_10_RN_8_RD_16_0.png"],["I_Dist_200_LN_11_LD_20_RN_3_RD_4_1.png","I_Dist_200_LN_14_LD_30_RN_12_RD_18_1.png","I_Dist_200_LN_14_LD_30_RN_6_RD_9_1.png","I_Dist_200_LN_3_LD_10_RN_1_RD_2_1.png","I_Dist_200_LN_4_LD_30_RN_1_RD_3_1.png","I_Dist_200_LN_6_LD_20_RN_3_RD_6_1.png","I_Dist_200_LN_7_LD_15_RN_4_RD_6_1.png","I_Dist_200_LN_7_LD_15_RN_6_RD_9_1.png","I_Dist_200_LN_9_LD_15_RN_8_RD_10_1.png"]],"dist200_S":[["E_Dist_200_LN_3_LD_6_RN_3_RD_10_0.png"],["E_Dist_200_LN_3_LD_10_RN_3_RD_6_1.png"]],"dist300_C":[["C_Dist_300_LN_11_LD_22_RN_1_RD_5_0.png","C_Dist_300_LN_11_LD_22_RN_2_RD_10_0.png","C_Dist_300_LN_11_LD_22_RN_4_RD_20_0.png","C_Dist_300_LN_12_LD_24_RN_2_RD_10_0.png","C_Dist_300_LN_18_LD_20_RN_9_RD_15_0.png","C_Dist_300_LN_20_LD_25_RN_13_RD_26_0.png","C_Dist_300_LN_20_LD_25_RN_14_RD_28_0.png","C_Dist_300_LN_20_LD_25_RN_5_RD_10_0.png","C_Dist_300_LN_20_LD_25_RN_8_RD_16_0.png","C_Dist_300_LN_20_LD_25_RN_9_RD_18_0.png","C_Dist_300_LN_24_LD_30_RN_2_RD_4_0.png","C_Dist_300_LN_24_LD_30_RN_8_RD_16_0.png","C_Dist_300_LN_3_LD_6_RN_2_RD_10_0.png","C_Dist_300_LN_4_LD_10_RN_1_RD_10_0.png","C_Dist_300_LN_4_LD_5_RN_2_RD_4_0.png","C_Dist_300_LN_8_LD_16_RN_1_RD_5_0.png","C_Dist_300_LN_9_LD_10_RN_3_RD_5_0.png"],["C_Dist_300_LN_1_LD_20_RN_7_RD_20_1.png","C_Dist_300_LN_1_LD_3_RN_19_RD_30_1.png","C_Dist_300_LN_1_LD_30_RN_8_RD_24_1.png","C_Dist_300_LN_1_LD_5_RN_11_RD_22_1.png","C_Dist_300_LN_1_LD_5_RN_3_RD_6_1.png","C_Dist_300_LN_1_LD_5_RN_6_RD_12_1.png","C_Dist_300_LN_2_LD_10_RN_12_RD_24_1.png","C_Dist_300_LN_2_LD_20_RN_10_RD_25_1.png","C_Dist_300_LN_3_LD_12_RN_11_RD_20_1.png","C_Dist_300_LN_3_LD_6_RN_4_RD_5_1.png","C_Dist_300_LN_4_LD_20_RN_13_RD_26_1.png","C_Dist_300_LN_5_LD_25_RN_6_RD_12_1.png","C_Dist_300_LN_5_LD_25_RN_7_RD_14_1.png","C_Dist_300_LN_7_LD_14_RN_20_RD_25_1.png","C_Dist_300_LN_8_LD_15_RN_10_RD_12_1.png"]],"dist300_I":[["I_Dist_300_LN_1_LD_2_RN_2_RD_10_0.png","I_Dist_300_LN_1_LD_2_RN_3_RD_15_0.png","I_Dist_300_LN_2_LD_4_RN_6_RD_30_0.png","I_Dist_300_LN_3_LD_6_RN_4_RD_20_0.png","I_Dist_300_LN_4_LD_5_RN_6_RD_12_0.png","I_Dist_300_LN_4_LD_5_RN_8_RD_16_0.png","I_Dist_300_LN_7_LD_10_RN_8_RD_20_0.png","I_Dist_300_LN_8_LD_10_RN_14_RD_28_0.png","I_Dist_300_LN_8_LD_10_RN_9_RD_18_0.png"],["I_Dist_300_LN_13_LD_26_RN_12_RD_15_1.png","I_Dist_300_LN_4_LD_20_RN_2_RD_4_1.png"]],"dist300_S":[["E_Dist_300_LN_9_LD_12_RN_9_RD_20_0.png"],["E_Dist_300_LN_18_LD_30_RN_18_RD_20_1.png","E_Dist_300_LN_3_LD_10_RN_3_RD_5_1.png","E_Dist_300_LN_9_LD_20_RN_9_RD_12_1.png"]],"dist500_C":[["C_Dist_500_LN_10_LD_13_RN_7_RD_26_0.png","C_Dist_500_LN_10_LD_15_RN_4_RD_24_0.png","C_Dist_500_LN_12_LD_16_RN_3_RD_12_0.png","C_Dist_500_LN_12_LD_18_RN_4_RD_24_0.png","C_Dist_500_LN_15_LD_18_RN_5_RD_15_0.png","C_Dist_500_LN_15_LD_20_RN_1_RD_4_0.png","C_Dist_500_LN_18_LD_27_RN_1_RD_6_0.png","C_Dist_500_LN_20_LD_24_RN_1_RD_3_0.png","C_Dist_500_LN_20_LD_24_RN_3_RD_9_0.png","C_Dist_500_LN_20_LD_24_RN_7_RD_21_0.png","C_Dist_500_LN_20_LD_28_RN_3_RD_14_0.png","C_Dist_500_LN_21_LD_28_RN_6_RD_24_0.png","C_Dist_500_LN_22_LD_28_RN_2_RD_7_0.png","C_Dist_500_LN_25_LD_30_RN_9_RD_27_0.png","C_Dist_500_LN_4_LD_6_RN_1_RD_6_0.png","C_Dist_500_LN_5_LD_6_RN_2_RD_6_0.png","C_Dist_500_LN_6_LD_9_RN_1_RD_6_0.png","C_Dist_500_LN_7_LD_10_RN_1_RD_5_0.png","C_Dist_500_LN_8_LD_12_RN_1_RD_6_0.png","C_Dist_500_LN_8_LD_12_RN_4_RD_24_0.png"],["C_Dist_500_LN_1_LD_4_RN_12_RD_16_1.png","C_Dist_500_LN_1_LD_4_RN_9_RD_12_1.png","C_Dist_500_LN_1_LD_9_RN_11_RD_18_1.png","C_Dist_500_LN_10_LD_24_RN_22_RD_24_1.png","C_Dist_500_LN_2_LD_12_RN_10_RD_15_1.png","C_Dist_500_LN_2_LD_12_RN_12_RD_18_1.png","C_Dist_500_LN_2_LD_12_RN_4_RD_6_1.png","C_Dist_500_LN_2_LD_24_RN_7_RD_12_1.png","C_Dist_500_LN_2_LD_5_RN_18_RD_20_1.png","C_Dist_500_LN_2_LD_5_RN_9_RD_10_1.png","C_Dist_500_LN_2_LD_8_RN_12_RD_16_1.png","C_Dist_500_LN_2_LD_8_RN_21_RD_28_1.png","C_Dist_500_LN_3_LD_10_RN_4_RD_5_1.png","C_Dist_500_LN_3_LD_12_RN_15_RD_20_1.png","C_Dist_500_LN_3_LD_30_RN_6_RD_10_1.png","C_Dist_500_LN_3_LD_8_RN_14_RD_16_1.png","C_Dist_500_LN_4_LD_16_RN_15_RD_20_1.png","C_Dist_500_LN_4_LD_24_RN_12_RD_18_1.png","C_Dist_500_LN_5_LD_14_RN_6_RD_7_1.png","C_Dist_500_LN_7_LD_21_RN_20_RD_24_1.png","C_Dist_500_LN_7_LD_28_RN_12_RD_16_1.png","C_Dist_500_LN_7_LD_28_RN_9_RD_12_1.png","C_Dist_500_LN_9_LD_27_RN_20_RD_24_1.png"]],"dist500_I":[["I_Dist_500_LN_2_LD_3_RN_4_RD_24_0.png","I_Dist_500_LN_5_LD_6_RN_6_RD_18_0.png","I_Dist_500_LN_7_LD_8_RN_9_RD_24_0.png"],["I_Dist_500_LN_7_LD_21_RN_5_RD_6_1.png"]],"dist500_S":[["E_Dist_500_LN_6_LD_8_RN_6_RD_24_0.png"],["E_Dist_500_LN_2_LD_12_RN_2_RD_3_1.png","E_Dist_500_LN_6_LD_24_RN_6_RD_8_1.png"]]}},{"start_time":1552308740504,"click_time":1552308741746,"finger_time":1552308741344,"fix_duration":1457.6246803688343,"trial":1,"RT":840,"MT":402,"sideResp":2,"stimulus":[],"xmouse":[797,797,797,797,797,797,797,797,797,797,797,797,797,797,797,797,797,797,797,797,797,797,797,797,797,797,797,797,797,797,797,797,797,797,797,797,797,797,797,797,799,814,857,964,998,1037,1060,1086,1089,1093,1101,1104,1111,1136,1140,1141,1142,1142,1141,1139,1136,1133,1103],"ymouse":[499,499,499,499,499,499,499,499,499,499,499,499,499,499,499,499,499,499,499,499,499,499,499,499,499,499,499,499,499,499,499,499,499,499,499,499,499,499,499,497,493,485,479,426,402,380,371,355,351,343,323,315,293,238,227,220,210,191,184,171,149,122,21],"timestamp_mouse":[10,21,40,59,80,101,121,140,160,180,201,220,240,261,280,301,321,340,361,381,400,420,440,462,480,500,520,540,561,581,601,619,640,659,680,701,721,741,760,780,801,821,840,860,880,901,921,941,960,980,1000,1020,1040,1061,1080,1101,1121,1141,1160,1180,1200,1220,1241],"xSR":741.5,"ySR":469.95,"xT1":424.9,"yT1":0,"xT2":1058.1,"yT2":0,"toosoon":0,"cond_shown":"Congruent","ratio_trial":200,"L_num":5,"L_den":10,"R_num":14,"R_den":20,"correct_side":2,"subjID":"gabrielpizzamendez6","gender":"0","school":"4","age":"9"},{"start_time":1552308744650,"click_time":1552308745845,"finger_time":1552308745285,"fix_duration":744.6639202851082,"trial":2,"RT":635,"MT":560,"sideResp":2,"stimulus":[],"xmouse":[796,796,796,796,796,796,796,796,796,796,796,796,796,796,796,796,796,796,796,796,796,796,796,796,796,796,796,796,796,801,829,866,953,984,1022,1030,1036,1043,1048,1058,1066,1086,1098,1109,1116,1122,1122,1122,1122,1122,1122,1122,1122,1122,1122,1122,1124,1124,1127,1138],"ymouse":[508,508,508,508,508,508,508,508,508,508,508,508,508,508,508,508,508,508,508,508,508,508,508,508,508,508,508,508,508,508,508,486,416,374,303,283,268,256,249,234,221,187,167,148,134,125,125,125,125,125,125,125,125,125,125,124,121,115,107,70],"timestamp_mouse":[14,48,54,75,94,114,135,155,173,194,214,235,254,274,294,315,334,355,374,394,415,435,455,473,495,515,535,554,575,595,615,635,654,674,695,714,735,754,774,795,814,834,854,873,895,914,934,955,975,995,1014,1034,1054,1075,1094,1113,1134,1154,1174,1195],"xSR":741.5,"ySR":469.95,"xT1":424.9,"yT1":0,"xT2":1058.1,"yT2":0,"toosoon":0,"cond_shown":"Congruent","ratio_trial":300,"L_num":1,"L_den":5,"R_num":11,"R_den":22,"correct_side":2,"subjID":"gabrielpizzamendez6","gender":"0","school":"4","age":"9"},{"start_time":1552308747869,"click_time":1552308748925,"finger_time":1552308748465,"fix_duration":1102.9984177495824,"trial":3,"RT":596,"MT":460,"sideResp":1,"stimulus":[],"xmouse":[765,765,765,765,765,765,765,765,765,765,765,765,765,765,765,765,765,765,765,765,765,765,765,765,765,765,764,763,745,729,709,683,668,644,634,621,609,595,561,552,546,540,540,540,540,540,540,540,540,540,540,540,520],"ymouse":[520,520,520,520,520,520,520,520,520,520,520,520,520,520,520,520,520,520,520,520,520,520,520,520,520,520,519,518,493,472,448,421,406,365,324,280,240,183,65,42,25,2,2,2,2,2,2,2,2,2,2,2,2],"timestamp_mouse":[16,47,55,76,96,116,135,156,175,195,215,236,255,275,295,316,336,356,375,396,415,435,456,476,496,515,535,554,576,596,616,634,656,677,695,715,736,755,776,795,815,836,854,874,895,915,935,955,975,996,1016,1035,1056],"xSR":741.5,"ySR":469.95,"xT1":424.9,"yT1":0,"xT2":1058.1,"yT2":0,"toosoon":0,"cond_shown":"Congruent","ratio_trial":300,"L_num":24,"L_den":30,"R_num":8,"R_den":16,"correct_side":1,"subjID":"gabrielpizzamendez6","gender":"0","school":"4","age":"9"},{"start_time":1552308752298,"click_time":1552308753905,"finger_time":1552308753825,"fix_duration":871.6017487538487,"trial":4,"RT":1527,"MT":80,"sideResp":1,"stimulus":[],"xmouse":[809,809,809,809,809,809,809,809,809,809,809,809,809,809,809,809,809,809,809,809,809,809,809,809,809,809,809,809,809,809,809,809,809,809,809,809,809,809,809,809,809,809,809,809,809,809,809,809,809,809,809,809,809,809,809,809,809,809,809,809,809,809,809,809,809,809,809,809,809,809,809,809,809,809,804,789,768,735,638,554,509],"ymouse":[536,536,536,536,536,536,536,536,536,536,536,536,536,536,536,536,536,536,536,536,536,536,536,536,536,536,536,536,536,536,536,536,536,536,536,536,536,536,536,536,536,536,536,536,536,536,536,536,536,536,536,536,536,536,536,536,536,536,536,536,536,536,536,536,536,536,536,536,536,536,536,536,536,535,517,487,446,385,229,112,49],"timestamp_mouse":[14,28,49,67,86,106,126,146,167,186,206,227,246,266,287,305,326,346,366,386,406,427,446,467,487,505,527,547,565,587,607,627,646,665,687,706,726,746,766,787,807,825,846,866,887,906,927,945,966,986,1007,1027,1046,1067,1086,1106,1125,1146,1167,1187,1207,1226,1246,1266,1286,1307,1327,1347,1367,1386,1406,1427,1447,1466,1487,1507,1527,1546,1566,1586,1607],"xSR":741.5,"ySR":469.95,"xT1":424.9,"yT1":0,"xT2":1058.1,"yT2":0,"toosoon":0,"cond_shown":"Incongruent","ratio_trial":300,"L_num":4,"L_den":20,"R_num":2,"R_den":4,"correct_side":2,"subjID":"gabrielpizzamendez6","gender":"0","school":"4","age":"9"},{"start_time":1552308755713,"click_time":1552308757324,"finger_time":1552308757185,"fix_duration":706.7128122289082,"trial":5,"RT":1472,"MT":139,"sideResp":1,"stimulus":[],"xmouse":[790,790,790,790,790,790,790,790,790,790,790,790,790,790,790,790,790,790,790,790,790,790,790,790,790,790,790,790,790,790,790,790,790,790,790,790,790,790,790,790,790,790,790,790,790,790,790,790,790,790,790,790,790,790,790,790,790,790,790,790,790,790,790,790,790,790,790,790,790,790,790,787,780,764,742,712,641,610,579,540,510],"ymouse":[550,550,550,550,550,550,550,550,550,550,550,550,550,550,550,550,550,550,550,550,550,550,550,550,550,550,550,550,550,550,550,550,550,550,550,550,550,550,550,550,550,550,550,550,550,550,550,550,550,550,550,550,550,550,550,550,550,550,550,550,550,550,550,550,550,550,550,550,550,550,549,520,477,420,361,308,207,169,138,106,85],"timestamp_mouse":[10,42,51,72,92,112,131,151,172,192,212,231,250,271,292,312,331,352,371,391,411,431,450,472,491,512,531,551,570,592,611,632,651,672,692,711,730,751,772,792,812,830,852,872,891,911,932,951,971,991,1011,1031,1051,1072,1092,1112,1131,1152,1172,1192,1212,1231,1251,1270,1291,1311,1332,1352,1371,1391,1411,1432,1452,1472,1491,1512,1532,1550,1572,1591,1611],"xSR":741.5,"ySR":469.95,"xT1":424.9,"yT1":0,"xT2":1058.1,"yT2":0,"toosoon":0,"cond_shown":"Incongruent","ratio_trial":100,"L_num":10,"L_den":25,"R_num":8,"R_den":16,"correct_side":2,"subjID":"gabrielpizzamendez6","gender":"0","school":"4","age":"9"},{"start_time":1552308759119,"click_time":1552308760945,"finger_time":1552308759925,"fix_duration":851.7484345969626,"trial":6,"RT":806,"MT":1020,"sideResp":2,"stimulus":[],"xmouse":[797,797,797,797,797,797,797,797,797,797,797,797,797,797,797,797,797,797,797,797,797,797,797,797,797,797,797,797,797,797,797,797,797,797,797,797,797,797,807,822,839,877,893,907,914,918,929,941,944,949,954,957,968,975,982,992,1011,1019,1029,1033,1036,1039,1041,1043,1044,1045,1046,1048,1055,1068,1085,1103,1141,1147,1148,1150,1150,1150,1150,1150,1150,1150,1150,1150,1150,1150,1149,1149,1148,1148,1147,1138],"ymouse":[512,512,512,512,512,512,512,512,512,512,512,512,512,512,512,512,512,512,512,512,512,512,512,512,512,512,512,512,512,512,512,512,512,512,512,512,512,510,496,481,467,442,430,419,410,406,393,366,359,346,333,320,294,279,265,251,229,219,209,204,199,190,187,183,179,176,173,169,161,154,145,141,136,134,134,133,133,133,133,133,133,132,131,129,127,125,120,117,115,114,110,99],"timestamp_mouse":[10,25,61,65,86,105,126,146,165,185,205,225,244,266,286,306,325,345,366,386,405,426,445,465,486,506,526,545,566,586,606,625,645,666,686,706,724,745,764,785,806,825,844,866,885,905,926,944,965,985,1006,1025,1046,1065,1086,1105,1126,1145,1166,1185,1204,1226,1244,1265,1286,1306,1326,1345,1365,1386,1405,1425,1445,1466,1486,1505,1525,1545,1566,1586,1604,1625,1646,1664,1686,1706,1726,1745,1765,1785,1806,1826],"xSR":741.5,"ySR":469.95,"xT1":424.9,"yT1":0,"xT2":1058.1,"yT2":0,"toosoon":0,"cond_shown":"Congruent","ratio_trial":200,"L_num":6,"L_den":20,"R_num":11,"R_den":22,"correct_side":2,"subjID":"gabrielpizzamendez6","gender":"0","school":"4","age":"9"},{"start_time":1552308762436,"click_time":1552308764984,"finger_time":1552308764184,"fix_duration":250,"trial":7,"RT":1748,"MT":800,"sideResp":1,"stimulus":[],"xmouse":[761,761,761,761,761,761,761,761,761,761,761,761,761,761,761,761,761,761,761,761,761,761,761,761,761,761,761,761,761,761,761,761,761,761,761,761,761,761,761,761,761,761,761,761,761,761,761,761,761,761,761,761,761,761,761,761,761,761,761,761,761,761,761,761,761,761,761,761,761,761,761,761,761,761,761,761,761,761,761,761,761,761,761,761,761,760,756,749,735,724,717,714,711,706,700,688,654,636,619,601,573,555,544,534,527,525,525,525,525,525,525,525,525,525,525,525,525,525,525,525,525,525,525,525,525,525,525,523],"ymouse":[516,516,516,516,516,516,516,516,516,516,516,516,516,516,516,516,516,516,516,516,516,516,516,516,516,516,516,516,516,516,516,516,516,516,516,516,516,516,516,516,516,516,516,516,516,516,516,516,516,516,516,516,516,516,516,516,516,516,516,516,516,516,516,516,516,516,516,516,516,516,516,516,516,516,516,516,516,516,516,516,516,516,516,516,516,516,494,447,381,317,268,256,247,231,218,200,159,141,123,107,86,72,63,56,52,51,51,51,51,51,51,51,51,51,51,51,51,51,51,51,51,51,51,51,51,51,51,50],"timestamp_mouse":[10,27,51,67,88,108,129,149,169,189,209,228,248,269,289,309,328,348,369,389,409,428,449,469,489,509,529,549,569,588,609,628,649,669,689,709,728,748,768,789,807,829,848,867,889,907,929,948,969,989,1009,1028,1048,1069,1089,1107,1128,1149,1169,1189,1208,1229,1248,1269,1288,1307,1328,1349,1368,1388,1409,1428,1448,1468,1488,1509,1528,1548,1568,1588,1609,1628,1649,1668,1689,1708,1729,1748,1769,1788,1809,1828,1848,1869,1889,1908,1927,1947,1967,1988,2009,2028,2048,2068,2088,2108,2127,2149,2168,2188,2208,2228,2248,2268,2288,2309,2328,2348,2368,2388,2409,2427,2447,2468,2489,2509,2529,2548],"xSR":741.5,"ySR":469.95,"xT1":424.9,"yT1":0,"xT2":1058.1,"yT2":0,"toosoon":0,"cond_shown":"Congruent","ratio_trial":200,"L_num":4,"L_den":8,"R_num":3,"R_den":10,"correct_side":1,"subjID":"gabrielpizzamendez6","gender":"0","school":"4","age":"9"},{"start_time":1552308768149,"click_time":1552308770765,"finger_time":1552308770625,"fix_duration":664.8980931386589,"trial":8,"RT":2476,"MT":140,"sideResp":2,"stimulus":[],"xmouse":[792,792,792,792,792,792,792,792,792,792,792,792,792,792,792,792,792,792,792,792,792,792,792,792,792,792,792,792,792,792,792,792,792,792,792,792,792,792,792,792,792,792,792,792,792,792,792,792,792,792,792,792,792,792,792,792,792,792,792,792,792,792,792,792,792,792,792,792,792,792,792,792,792,792,792,792,792,792,792,792,792,792,792,792,792,792,792,792,792,792,792,792,792,792,792,792,792,792,792,792,792,792,792,792,792,792,792,792,792,792,792,792,792,792,792,792,792,792,792,794,800,811,826,842,884,908,958,993,1039,1074,1127],"ymouse":[546,546,546,546,546,546,546,546,546,546,546,546,546,546,546,546,546,546,546,546,546,546,546,546,546,546,546,546,546,546,546,546,546,546,546,546,546,546,546,546,546,546,546,546,546,546,546,546,546,546,546,546,546,546,546,546,546,546,546,546,546,546,546,546,546,546,546,546,546,546,546,546,546,546,546,546,546,546,546,546,546,546,546,546,546,546,546,546,546,546,546,546,546,546,546,546,546,546,546,546,546,546,546,546,546,546,546,546,546,546,546,546,546,546,546,546,546,546,546,546,543,537,529,517,475,428,313,235,155,103,49],"timestamp_mouse":[15,43,55,76,95,115,135,156,174,196,215,236,254,275,294,316,336,355,376,394,415,436,454,476,495,516,534,554,576,594,616,636,656,676,696,715,734,756,776,794,816,836,856,875,896,915,936,956,975,995,1015,1036,1055,1076,1096,1115,1136,1155,1175,1195,1216,1235,1256,1275,1295,1316,1334,1356,1375,1395,1414,1435,1456,1476,1495,1516,1536,1556,1574,1596,1616,1636,1655,1675,1696,1715,1736,1755,1776,1796,1816,1836,1856,1876,1895,1916,1936,1955,1976,1995,2016,2036,2054,2076,2096,2115,2136,2155,2176,2195,2215,2235,2256,2276,2295,2315,2335,2355,2376,2396,2416,2435,2455,2476,2496,2515,2535,2555,2575,2596,2616],"xSR":741.5,"ySR":469.95,"xT1":424.9,"yT1":0,"xT2":1058.1,"yT2":0,"toosoon":0,"cond_shown":"Incongruent","ratio_trial":200,"L_num":14,"L_den":30,"R_num":6,"R_den":9,"correct_side":2,"subjID":"gabrielpizzamendez6","gender":"0","school":"4","age":"9"},{"start_time":1552308774782,"click_time":1552308777024,"finger_time":1552308776485,"fix_duration":535.6741836668217,"trial":9,"RT":1703,"MT":539,"sideResp":1,"stimulus":[],"xmouse":[799,799,799,799,799,799,799,799,799,799,799,799,799,799,799,799,799,799,799,799,799,799,799,799,799,799,799,799,799,799,799,799,799,799,799,799,799,799,799,799,799,799,799,799,799,799,799,799,799,799,799,799,799,799,799,799,799,799,799,799,799,799,799,799,799,799,799,799,799,799,799,799,799,799,799,798,797,794,781,774,765,759,757,757,756,755,752,749,741,737,731,725,717,692,675,648,632,613,580,567,556,544,537,529,529,529,528,527,524,523,520,517,512],"ymouse":[531,531,531,531,531,531,531,531,531,531,531,531,531,531,531,531,531,531,531,531,531,531,531,531,531,531,531,531,531,531,531,531,531,531,531,531,531,531,531,531,531,531,531,531,531,531,531,531,531,531,531,531,531,531,531,531,531,531,531,531,531,531,531,531,531,531,531,531,531,531,531,531,531,531,531,531,531,529,514,503,492,485,481,478,472,466,457,447,416,404,388,374,357,320,301,272,254,239,208,192,176,163,154,147,146,144,141,138,129,124,116,108,99],"timestamp_mouse":[9,22,42,62,82,103,123,141,163,183,203,223,242,262,282,303,321,342,363,382,402,421,443,462,482,503,523,542,562,583,603,623,643,662,682,703,723,741,763,782,802,822,842,863,882,902,923,943,963,983,1002,1022,1043,1062,1082,1103,1121,1143,1162,1183,1203,1221,1242,1263,1282,1303,1323,1343,1363,1381,1402,1423,1443,1462,1483,1502,1523,1542,1563,1583,1601,1622,1642,1662,1683,1703,1722,1741,1763,1781,1802,1823,1842,1863,1882,1901,1921,1942,1963,1981,2002,2023,2043,2063,2081,2102,2122,2143,2163,2182,2202,2223,2242],"xSR":741.5,"ySR":469.95,"xT1":424.9,"yT1":0,"xT2":1058.1,"yT2":0,"toosoon":0,"cond_shown":"Incongruent","ratio_trial":300,"L_num":7,"L_den":10,"R_num":8,"R_den":20,"correct_side":1,"subjID":"gabrielpizzamendez6","gender":"0","school":"4","age":"9"},{"start_time":1552308779308,"click_time":1552308780964,"finger_time":1552308780665,"fix_duration":1102.1454138782215,"trial":10,"RT":1357,"MT":299,"sideResp":2,"stimulus":[],"xmouse":[777,777,777,777,777,777,777,777,777,777,777,778,779,779,779,779,779,779,779,779,779,779,779,779,779,779,779,779,779,779,779,779,779,779,780,780,780,780,780,780,780,780,780,780,780,780,780,780,780,780,780,780,780,783,787,792,803,807,811,815,816,817,817,819,821,824,841,871,883,948,993,1033,1117,1142,1152,1155,1156,1158,1158,1158,1158,1158,1158],"ymouse":[526,526,526,526,526,526,526,526,526,526,525,525,524,524,524,524,524,524,524,524,524,524,524,524,524,524,524,524,524,524,524,524,524,524,524,524,524,524,524,524,524,524,524,524,524,524,524,524,524,524,524,524,524,524,524,525,526,526,526,526,526,526,526,525,524,522,508,486,480,416,362,326,254,233,224,220,213,206,188,173,148,108,93],"timestamp_mouse":[17,36,56,77,96,117,137,155,177,196,216,237,256,276,295,316,336,357,375,397,417,436,456,476,495,517,536,556,577,595,617,637,657,677,697,716,736,757,777,796,815,837,857,875,897,915,936,957,975,997,1016,1037,1057,1077,1097,1117,1136,1156,1176,1197,1216,1236,1255,1277,1297,1317,1336,1357,1377,1395,1416,1437,1456,1477,1495,1515,1537,1556,1576,1597,1616,1637,1656],"xSR":741.5,"ySR":469.95,"xT1":424.9,"yT1":0,"xT2":1058.1,"yT2":0,"toosoon":0,"cond_shown":"Congruent","ratio_trial":300,"L_num":2,"L_den":10,"R_num":12,"R_den":24,"correct_side":2,"subjID":"gabrielpizzamendez6","gender":"0","school":"4","age":"9"},{"start_time":1552308783504,"click_time":1552308785085,"finger_time":1552308784624,"fix_duration":1157.2475081395937,"trial":11,"RT":1120,"MT":461,"sideResp":1,"stimulus":[],"xmouse":[764,764,764,764,764,764,764,764,764,764,764,764,764,764,764,764,764,764,764,764,764,764,764,764,764,764,764,764,764,764,764,764,764,764,764,764,764,764,764,764,764,764,764,764,764,764,764,764,764,764,764,764,764,762,755,745,738,727,706,685,671,661,650,649,649,648,646,632,619,611,607,605,603,601,598,589,577,562,535,514],"ymouse":[530,530,530,530,530,530,530,530,530,530,530,530,530,530,530,530,530,530,530,530,530,530,530,530,530,530,530,530,530,530,530,530,530,530,530,530,530,530,530,530,530,530,530,530,530,530,530,530,530,530,530,530,530,530,529,527,525,516,457,373,322,288,249,235,223,211,193,152,128,117,113,110,109,108,106,99,92,84,72,64],"timestamp_mouse":[10,20,45,60,81,100,121,140,161,181,200,220,241,260,281,300,321,341,361,380,400,421,439,461,480,501,521,541,561,580,600,621,640,661,680,700,720,740,759,780,801,819,841,860,881,900,920,941,959,979,1001,1021,1040,1060,1081,1100,1120,1141,1159,1180,1200,1220,1240,1259,1281,1300,1320,1341,1359,1380,1400,1421,1441,1459,1480,1500,1520,1541,1561,1581],"xSR":741.5,"ySR":469.95,"xT1":424.9,"yT1":0,"xT2":1058.1,"yT2":0,"toosoon":0,"cond_shown":"Congruent","ratio_trial":200,"L_num":12,"L_den":20,"R_num":6,"R_den":15,"correct_side":1,"subjID":"gabrielpizzamendez6","gender":"0","school":"4","age":"9"},{"start_time":1552308788646,"click_time":1552308789865,"finger_time":1552308789485,"fix_duration":920.5390319777961,"trial":12,"RT":839,"MT":380,"sideResp":2,"stimulus":[],"xmouse":[821,821,821,821,821,821,821,821,821,821,821,821,821,821,821,821,821,821,821,821,821,821,821,821,821,821,821,821,821,821,821,821,821,821,821,821,821,821,821,822,831,849,891,924,970,989,1003,1016,1030,1053,1064,1070,1074,1076,1081,1082,1084,1084,1084,1084,1088],"ymouse":[524,524,524,524,524,524,524,524,524,524,524,524,524,524,524,524,524,524,524,524,524,524,524,524,524,524,524,524,524,524,524,524,524,524,524,524,524,524,524,522,512,488,447,422,390,373,357,333,305,265,242,232,222,211,189,175,159,144,131,120,89],"timestamp_mouse":[20,42,58,78,98,118,138,159,177,198,218,238,258,278,299,319,338,358,379,399,417,437,458,479,498,517,538,559,578,598,617,638,659,679,698,719,739,759,777,799,819,839,859,877,898,917,938,959,978,999,1018,1038,1058,1079,1098,1119,1138,1158,1178,1199,1219],"xSR":741.5,"ySR":469.95,"xT1":424.9,"yT1":0,"xT2":1058.1,"yT2":0,"toosoon":0,"cond_shown":"Congruent","ratio_trial":300,"L_num":1,"L_den":5,"R_num":11,"R_den":22,"correct_side":2,"subjID":"gabrielpizzamendez6","gender":"0","school":"4","age":"9"},{"start_time":1552308791276,"click_time":1552308792245,"finger_time":1552308792084,"fix_duration":250,"trial":13,"RT":808,"MT":161,"sideResp":2,"stimulus":[],"xmouse":[778,778,778,778,778,777,777,776,776,776,776,776,776,776,776,776,776,776,776,776,776,776,776,776,776,776,776,776,776,776,776,776,776,776,776,775,775,776,792,811,847,885,932,983,1081,1111,1128,1134,1137],"ymouse":[532,532,532,531,531,530,530,530,530,530,530,530,530,530,530,530,530,530,530,530,530,530,530,530,530,530,530,530,530,530,530,530,530,530,530,530,529,526,509,496,475,449,415,360,228,180,144,122,99],"timestamp_mouse":[13,39,48,68,88,108,128,148,168,188,209,228,249,268,289,309,328,349,368,389,409,427,449,469,488,509,529,548,568,588,608,628,648,668,689,708,729,748,768,788,808,829,849,868,889,908,929,948,969],"xSR":741.5,"ySR":469.95,"xT1":424.9,"yT1":0,"xT2":1058.1,"yT2":0,"toosoon":0,"cond_shown":"Congruent","ratio_trial":300,"L_num":2,"L_den":10,"R_num":12,"R_den":24,"correct_side":2,"subjID":"gabrielpizzamendez6","gender":"0","school":"4","age":"9"},{"start_time":1552308796165,"click_time":1552308797545,"finger_time":1552308797284,"fix_duration":1118.3784107990555,"trial":14,"RT":1119,"MT":261,"sideResp":1,"stimulus":[],"xmouse":[775,775,775,775,775,775,775,775,775,775,775,775,776,776,776,776,777,777,777,777,777,777,777,777,777,777,777,777,777,777,777,777,777,777,777,777,777,777,777,777,777,777,777,777,777,777,777,777,777,777,777,777,777,778,780,781,783,783,781,771,740,720,702,687,660,636,591,561,533,511],"ymouse":[493,493,493,493,493,493,493,493,493,493,493,493,493,493,493,493,493,493,493,493,493,493,493,493,493,493,493,493,493,493,493,493,493,493,493,493,493,493,493,493,493,493,493,493,493,493,493,493,493,493,493,493,493,492,484,474,456,440,421,403,357,333,311,289,241,189,114,71,34,4],"timestamp_mouse":[6,22,40,59,79,100,120,140,160,178,199,220,239,258,278,298,319,338,358,379,400,418,440,459,480,499,519,539,560,580,600,619,638,660,679,698,719,738,760,778,800,818,838,859,880,900,920,940,960,980,998,1019,1040,1060,1080,1099,1119,1140,1159,1180,1199,1219,1240,1259,1280,1299,1320,1339,1359,1380],"xSR":741.5,"ySR":469.95,"xT1":424.9,"yT1":0,"xT2":1058.1,"yT2":0,"toosoon":0,"cond_shown":"Incongruent","ratio_trial":100,"L_num":9,"L_den":15,"R_num":13,"R_den":26,"correct_side":1,"subjID":"gabrielpizzamendez6","gender":"0","school":"4","age":"9"},{"start_time":1552308798904,"click_time":1552308800064,"finger_time":1552308799604,"fix_duration":738.3172133831062,"trial":15,"RT":700,"MT":460,"sideResp":1,"stimulus":[],"xmouse":[758,758,758,758,758,758,758,758,758,758,758,758,758,758,758,758,758,758,758,758,758,758,758,758,758,758,758,758,758,758,758,758,758,758,758,757,752,738,727,720,713,703,692,662,648,630,610,568,554,540,538,537,537,534,531,528,528,526,524],"ymouse":[530,530,530,530,530,530,530,530,530,530,530,530,530,530,530,530,530,530,530,530,530,530,530,530,530,530,530,530,530,530,530,530,524,510,490,468,439,391,363,350,339,327,314,275,256,233,205,151,132,114,110,109,105,99,90,85,82,79,77],"timestamp_mouse":[2,20,46,60,81,101,121,141,159,181,201,220,240,261,280,301,321,341,360,381,400,420,441,460,481,501,520,541,560,580,601,621,640,660,681,700,721,741,760,781,800,819,841,861,880,901,919,941,960,980,1001,1021,1041,1059,1080,1100,1120,1141,1160],"xSR":741.5,"ySR":469.95,"xT1":424.9,"yT1":0,"xT2":1058.1,"yT2":0,"toosoon":0,"cond_shown":"Congruent","ratio_trial":300,"L_num":20,"L_den":25,"R_num":14,"R_den":28,"correct_side":1,"subjID":"gabrielpizzamendez6","gender":"0","school":"4","age":"9"},{"start_time":1552308801462,"click_time":1552308802545,"finger_time":1552308802063,"fix_duration":636.9523115141725,"trial":16,"RT":601,"MT":482,"sideResp":2,"stimulus":[],"xmouse":[789,789,789,789,789,789,789,789,789,789,789,789,789,789,789,789,789,789,789,789,789,790,790,790,791,792,795,802,811,828,843,858,877,914,971,1054,1072,1082,1086,1087,1087,1087,1087,1086,1085,1085,1085,1085,1085,1085,1085,1085,1085,1085,1086],"ymouse":[547,547,547,547,547,547,547,547,547,547,547,547,547,547,547,547,547,547,547,547,547,547,547,547,547,544,540,533,526,515,505,495,478,455,419,318,263,230,208,188,154,135,129,116,107,104,104,103,103,103,103,103,103,103,99],"timestamp_mouse":[10,22,42,62,82,101,123,143,163,182,202,223,243,262,281,301,322,341,363,382,403,422,442,462,483,503,522,542,562,582,601,622,643,662,682,702,722,743,762,782,803,823,842,861,883,901,922,943,962,982,1002,1022,1042,1062,1083],"xSR":741.5,"ySR":469.95,"xT1":424.9,"yT1":0,"xT2":1058.1,"yT2":0,"toosoon":0,"cond_shown":"Incongruent","ratio_trial":300,"L_num":13,"L_den":26,"R_num":12,"R_den":15,"correct_side":2,"subjID":"gabrielpizzamendez6","gender":"0","school":"4","age":"9"},{"start_time":1552308803777,"click_time":1552308805164,"finger_time":1552308804825,"fix_duration":470.8402400530018,"trial":17,"RT":1048,"MT":339,"sideResp":2,"stimulus":[],"xmouse":[793,793,793,793,793,793,793,793,793,793,793,793,793,793,793,793,793,793,793,793,793,793,793,793,793,793,793,793,793,793,793,793,793,793,793,793,793,793,792,792,793,794,796,799,801,803,805,806,810,815,819,824,828,831,837,843,851,857,876,885,891,901,908,924,934,950,961,976,1044,1065],"ymouse":[505,505,505,505,505,505,505,505,505,505,505,505,505,505,505,505,505,505,505,505,505,505,505,505,505,505,505,505,505,505,505,505,505,505,505,505,505,505,504,502,502,500,498,494,492,490,489,488,485,480,475,471,469,466,461,454,444,435,402,385,372,354,336,297,276,242,222,196,112,85],"timestamp_mouse":[9,27,47,68,87,108,128,147,166,186,208,228,246,267,288,308,326,347,368,388,408,427,447,467,488,507,528,547,568,588,607,628,647,667,687,708,728,747,766,787,808,828,847,868,887,906,928,947,967,987,1007,1028,1048,1066,1087,1106,1126,1147,1167,1186,1208,1227,1247,1268,1287,1307,1327,1348,1368,1386],"xSR":741.5,"ySR":469.95,"xT1":424.9,"yT1":0,"xT2":1058.1,"yT2":0,"toosoon":0,"cond_shown":"Congruent","ratio_trial":200,"L_num":6,"L_den":12,"R_num":7,"R_den":10,"correct_side":2,"subjID":"gabrielpizzamendez6","gender":"0","school":"4","age":"9"},{"start_time":1552308806318,"click_time":1552308808523,"finger_time":1552308807444,"fix_duration":430.76392269306893,"trial":18,"RT":1126,"MT":1079,"sideResp":2,"stimulus":[],"xmouse":[761,761,761,761,761,762,762,762,762,762,762,762,762,762,762,762,762,762,762,762,762,762,762,762,762,762,762,762,762,762,762,762,762,762,762,762,762,762,763,763,763,763,763,763,763,763,763,763,763,763,763,763,766,781,799,820,863,894,900,916,922,940,951,959,967,973,985,989,992,994,996,1002,1006,1010,1014,1019,1023,1032,1038,1040,1043,1052,1054,1055,1055,1055,1055,1056,1065,1086,1116,1171,1180,1186,1186,1187,1187,1187,1187,1187,1187,1187,1187,1187,1187,1186,1186,1184,1178,1170,1158],"ymouse":[555,555,555,555,555,554,554,554,554,554,554,554,554,554,554,554,554,554,554,554,554,554,554,554,554,554,554,554,554,554,554,554,554,554,554,554,554,554,553,553,553,553,553,553,553,553,553,553,553,553,553,553,550,544,535,526,508,492,488,480,475,452,431,414,395,380,345,329,304,290,277,249,235,219,204,187,176,162,153,150,146,132,129,128,128,128,128,126,119,111,102,87,81,73,69,67,65,64,64,64,64,64,64,64,64,64,64,64,65,65,65],"timestamp_mouse":[9,25,54,67,87,106,127,146,167,187,206,226,246,267,287,305,326,346,366,386,406,427,446,466,487,505,526,547,566,585,607,627,646,665,686,707,726,746,767,787,807,827,846,865,886,906,926,946,966,987,1006,1025,1046,1066,1086,1106,1126,1146,1166,1185,1205,1226,1245,1267,1287,1306,1327,1345,1366,1386,1406,1427,1445,1466,1487,1505,1526,1547,1567,1587,1607,1627,1646,1666,1687,1706,1726,1745,1767,1786,1807,1826,1847,1866,1886,1906,1926,1947,1967,1986,2006,2026,2046,2067,2087,2107,2126,2146,2166,2186,2205],"xSR":741.5,"ySR":469.95,"xT1":424.9,"yT1":0,"xT2":1058.1,"yT2":0,"toosoon":0,"cond_shown":"Incongruent","ratio_trial":200,"L_num":3,"L_den":4,"R_num":11,"R_den":20,"correct_side":1,"subjID":"gabrielpizzamendez6","gender":"0","school":"4","age":"9"},{"start_time":1552308811993,"click_time":1552308813045,"finger_time":1552308812664,"fix_duration":1126.9189270669808,"trial":19,"RT":671,"MT":381,"sideResp":2,"stimulus":[],"xmouse":[794,794,794,795,795,795,795,794,791,786,784,782,779,778,777,776,776,776,776,776,776,776,779,781,781,782,782,782,782,782,782,786,821,863,930,968,1008,1059,1072,1079,1086,1090,1096,1098,1098,1098,1098,1098,1098,1098,1097,1097,1097],"ymouse":[523,523,523,523,523,523,523,524,524,524,524,524,524,524,524,525,525,525,525,525,522,521,515,512,510,510,510,510,510,509,508,504,470,420,360,326,292,256,246,238,223,206,165,149,137,134,132,132,132,127,120,111,99],"timestamp_mouse":[11,41,51,71,91,112,130,151,172,192,212,231,251,271,291,311,330,352,372,391,411,431,452,472,492,511,531,551,570,591,612,632,651,671,691,711,731,751,771,791,812,832,852,870,891,912,932,950,971,991,1012,1031,1051],"xSR":741.5,"ySR":469.95,"xT1":424.9,"yT1":0,"xT2":1058.1,"yT2":0,"toosoon":0,"cond_shown":"Congruent","ratio_trial":300,"L_num":1,"L_den":20,"R_num":7,"R_den":20,"correct_side":2,"subjID":"gabrielpizzamendez6","gender":"0","school":"4","age":"9"},{"start_time":1552308814668,"click_time":1552308816465,"finger_time":1552308816064,"fix_duration":703.2622141949939,"trial":20,"RT":1396,"MT":401,"sideResp":1,"stimulus":[],"xmouse":[762,762,762,762,762,762,762,762,762,762,762,762,762,762,762,762,762,762,762,762,762,762,762,763,764,765,765,765,765,765,765,766,768,774,774,774,774,774,774,774,774,774,774,774,774,774,774,774,774,774,774,774,774,774,774,774,774,774,774,774,774,774,774,774,774,774,770,766,758,732,698,671,642,586,567,556,547,543,537,534,530,528,528,528,528,528,528,528,515,513],"ymouse":[509,509,509,509,509,509,509,509,509,509,509,509,509,509,509,509,509,509,509,509,509,509,509,509,509,509,509,509,509,509,509,510,511,516,516,516,516,516,516,516,516,516,516,516,516,516,516,516,516,516,516,516,516,516,516,516,516,516,516,516,516,516,516,516,516,516,515,512,495,421,339,282,232,126,92,71,57,44,27,15,8,3,3,3,3,3,3,3,0,5],"timestamp_mouse":[16,45,56,76,96,117,136,155,177,196,217,236,256,277,297,316,337,357,377,397,417,437,456,475,497,517,537,555,577,597,616,637,657,675,697,717,737,757,777,796,815,835,855,876,897,916,937,957,976,996,1016,1035,1057,1077,1096,1117,1136,1156,1177,1197,1217,1237,1256,1276,1296,1316,1336,1357,1376,1396,1416,1437,1457,1477,1495,1515,1535,1557,1577,1595,1616,1637,1656,1677,1697,1715,1735,1755,1777,1797],"xSR":741.5,"ySR":469.95,"xT1":424.9,"yT1":0,"xT2":1058.1,"yT2":0,"toosoon":0,"cond_shown":"Congruent","ratio_trial":200,"L_num":4,"L_den":10,"R_num":3,"R_den":15,"correct_side":1,"subjID":"gabrielpizzamendez6","gender":"0","school":"4","age":"9"},{"start_time":1552308818743,"click_time":1552308821665,"finger_time":1552308821423,"fix_duration":1316.8881560535747,"trial":21,"RT":2680,"MT":242,"sideResp":2,"stimulus":[],"xmouse":[801,801,801,801,801,801,801,801,801,801,801,801,801,801,801,801,801,801,801,801,800,800,800,800,800,800,800,800,800,800,800,800,800,800,800,800,800,800,800,800,800,800,800,800,800,800,800,800,800,800,800,800,800,800,800,800,800,800,800,800,800,800,800,800,800,800,800,800,800,800,798,796,796,796,796,796,796,796,796,796,796,796,796,796,796,796,796,796,796,796,796,796,796,796,796,796,796,796,796,796,796,796,796,796,796,796,796,796,796,796,796,796,796,796,796,796,796,796,796,796,796,796,796,796,796,796,796,796,796,796,796,796,798,804,817,838,880,901,940,964,982,1008,1019,1028,1040,1052,1084],"ymouse":[490,490,490,490,490,490,490,490,490,490,490,490,490,490,490,490,490,490,491,492,493,493,493,493,493,493,493,493,493,493,493,493,493,493,493,493,493,493,493,493,493,493,493,493,493,493,493,493,493,493,493,493,493,493,493,493,493,493,493,493,493,493,493,493,493,493,493,493,493,493,493,494,494,494,494,494,494,494,494,494,494,494,494,494,494,494,494,494,494,494,494,494,494,494,494,494,494,494,494,494,494,494,494,494,494,494,494,494,494,494,494,494,494,494,494,494,494,494,494,494,494,494,494,494,494,494,494,494,494,494,493,492,487,473,446,409,337,302,242,209,187,161,150,142,131,121,98],"timestamp_mouse":[9,20,42,61,81,101,121,142,161,181,201,221,240,262,282,302,321,342,362,381,400,422,440,461,482,502,522,542,562,582,602,621,642,661,682,702,721,742,762,780,802,821,840,860,880,902,922,941,962,980,1002,1021,1041,1061,1082,1101,1122,1141,1162,1181,1201,1221,1241,1262,1281,1302,1321,1342,1362,1382,1402,1421,1442,1462,1482,1501,1522,1542,1561,1581,1602,1622,1642,1660,1682,1701,1721,1741,1762,1781,1800,1821,1840,1862,1882,1902,1921,1941,1962,1982,2002,2021,2041,2062,2081,2101,2122,2142,2161,2182,2202,2222,2241,2262,2281,2301,2322,2342,2361,2381,2402,2422,2442,2462,2482,2501,2521,2541,2562,2581,2601,2621,2642,2662,2680,2701,2722,2742,2760,2781,2801,2821,2842,2861,2881,2902,2922],"xSR":741.5,"ySR":469.95,"xT1":424.9,"yT1":0,"xT2":1058.1,"yT2":0,"toosoon":0,"cond_shown":"Incongruent","ratio_trial":200,"L_num":6,"L_den":20,"R_num":3,"R_den":6,"correct_side":2,"subjID":"gabrielpizzamendez6","gender":"0","school":"4","age":"9"},{"start_time":1552308824241,"click_time":1552308826463,"finger_time":1552308825742,"fix_duration":276.4674117220004,"trial":22,"RT":1501,"MT":721,"sideResp":1,"stimulus":[],"xmouse":[811,811,811,811,811,812,812,814,814,815,815,815,815,815,816,817,817,819,820,820,820,820,820,820,820,820,820,820,820,818,813,811,810,808,806,802,798,796,793,792,792,792,792,792,792,792,792,792,792,792,792,792,792,792,792,792,792,792,792,792,792,792,792,791,791,791,791,791,791,791,791,791,791,791,791,789,786,781,776,769,754,745,734,713,696,663,655,650,646,644,640,621,605,594,589,574,564,555,548,545,544,543,543,542,541,539,539,538,537,535,529,513],"ymouse":[560,560,560,559,559,559,558,557,557,556,556,555,555,554,551,544,540,536,531,527,522,521,519,518,518,518,518,518,518,518,518,518,518,518,518,518,515,514,510,509,509,509,509,509,509,509,509,509,509,509,509,509,509,509,509,509,509,509,509,509,508,506,505,504,504,504,504,502,502,499,497,495,493,489,484,469,457,440,423,403,357,335,312,276,257,224,219,215,212,210,205,183,167,157,152,123,96,75,54,44,41,41,41,41,41,41,41,41,42,43,44,46],"timestamp_mouse":[10,38,41,62,82,101,122,141,161,181,201,221,241,262,281,301,322,342,362,382,402,422,442,462,481,501,522,543,562,581,602,622,641,662,681,702,722,742,762,783,801,821,841,861,881,901,921,941,961,983,1001,1022,1043,1061,1082,1101,1122,1142,1162,1182,1202,1222,1242,1262,1281,1302,1321,1343,1361,1381,1402,1422,1442,1462,1481,1501,1521,1541,1562,1582,1603,1621,1642,1663,1681,1702,1721,1741,1761,1781,1802,1822,1842,1862,1882,1902,1921,1941,1961,1982,2002,2022,2041,2062,2082,2102,2121,2143,2161,2182,2202,2222],"xSR":741.5,"ySR":469.95,"xT1":424.9,"yT1":0,"xT2":1058.1,"yT2":0,"toosoon":0,"cond_shown":"Incongruent","ratio_trial":100,"L_num":9,"L_den":15,"R_num":13,"R_den":26,"correct_side":1,"subjID":"gabrielpizzamendez6","gender":"0","school":"4","age":"9"},{"start_time":1552308829531,"click_time":1552308830822,"finger_time":1552308830403,"fix_duration":766.5424061198291,"trial":23,"RT":872,"MT":419,"sideResp":2,"stimulus":[],"xmouse":[779,779,779,779,779,779,779,779,779,779,779,779,779,779,779,779,779,779,779,779,779,779,779,779,779,779,779,779,779,779,779,779,779,779,779,779,779,779,779,779,779,779,785,802,818,834,892,951,983,1000,1023,1029,1038,1050,1060,1070,1084,1089,1090,1093,1096,1097,1099,1100,1104],"ymouse":[478,478,478,478,478,478,478,478,478,478,478,478,478,478,478,478,478,478,478,478,478,478,478,478,478,478,478,478,478,478,478,478,478,478,478,478,478,478,478,478,478,478,470,452,432,412,336,279,255,237,214,204,192,177,166,154,137,130,127,123,117,115,111,107,99],"timestamp_mouse":[11,31,51,71,92,113,132,151,172,192,212,231,251,272,293,311,332,353,372,392,412,433,451,472,492,513,533,552,572,593,611,632,653,672,692,711,732,752,772,792,811,832,852,872,891,912,932,951,971,992,1014,1031,1051,1071,1091,1112,1131,1151,1171,1191,1212,1232,1251,1272,1291],"xSR":741.5,"ySR":469.95,"xT1":424.9,"yT1":0,"xT2":1058.1,"yT2":0,"toosoon":0,"cond_shown":"Congruent","ratio_trial":100,"L_num":1,"L_den":2,"R_num":18,"R_den":30,"correct_side":2,"subjID":"gabrielpizzamendez6","gender":"0","school":"4","age":"9"},{"start_time":1552308832615,"click_time":1552308834002,"finger_time":1552308833422,"fix_duration":1071.4744284621204,"trial":24,"RT":807,"MT":580,"sideResp":2,"stimulus":[],"xmouse":[782,782,782,782,782,782,782,782,782,782,782,782,782,782,782,782,782,782,782,782,782,782,782,782,782,782,782,782,782,782,782,782,782,782,784,785,788,799,811,828,852,879,931,968,988,1006,1038,1054,1068,1080,1091,1099,1118,1141,1163,1188,1221,1231,1237,1237,1237,1237,1237,1237,1237,1222,1211,1184,1168,1155],"ymouse":[529,529,529,529,529,529,529,529,529,529,529,529,529,529,529,529,529,529,529,529,529,529,529,529,529,529,529,529,529,529,529,529,529,529,527,525,522,508,495,474,445,412,353,313,294,278,253,240,227,213,200,184,153,124,98,71,32,15,3,3,3,3,3,3,3,1,11,33,45,53],"timestamp_mouse":[9,28,47,67,88,108,127,147,168,187,208,229,247,267,289,307,327,347,367,389,408,429,447,468,488,507,527,547,568,589,608,629,649,668,688,707,727,748,768,787,807,829,848,867,887,908,929,947,967,989,1007,1028,1047,1067,1087,1107,1128,1148,1168,1188,1209,1228,1248,1267,1287,1307,1328,1347,1367,1387],"xSR":741.5,"ySR":469.95,"xT1":424.9,"yT1":0,"xT2":1058.1,"yT2":0,"toosoon":0,"cond_shown":"Incongruent","ratio_trial":200,"L_num":9,"L_den":15,"R_num":8,"R_den":10,"correct_side":2,"subjID":"gabrielpizzamendez6","gender":"0","school":"4","age":"9"},{"start_time":1552308835851,"click_time":1552308837182,"finger_time":1552308836763,"fix_duration":906.019034808227,"trial":25,"RT":912,"MT":419,"sideResp":1,"stimulus":[],"xmouse":[772,772,772,772,772,772,772,772,772,772,772,772,772,772,772,772,772,772,772,772,772,772,772,772,772,772,772,772,772,772,772,773,772,771,769,768,768,767,767,765,765,765,764,759,750,721,705,686,667,649,639,637,630,630,630,630,630,630,630,630,630,630,630,630,630,630,507],"ymouse":[520,520,520,520,520,520,520,520,520,520,520,520,520,520,520,520,520,520,520,520,520,520,520,520,520,520,520,520,520,520,520,519,518,517,516,515,514,514,514,513,513,513,511,503,484,389,327,261,196,87,34,22,2,2,2,2,2,2,2,2,2,2,2,2,2,2,10],"timestamp_mouse":[11,41,52,71,91,112,132,152,172,193,212,232,251,272,292,311,332,353,372,392,411,433,452,472,491,512,533,553,572,592,612,632,652,671,692,711,731,751,773,792,812,832,851,871,891,912,931,952,972,993,1013,1032,1053,1072,1092,1112,1131,1151,1172,1192,1212,1232,1253,1272,1293,1312,1331],"xSR":741.5,"ySR":469.95,"xT1":424.9,"yT1":0,"xT2":1058.1,"yT2":0,"toosoon":0,"cond_shown":"Congruent","ratio_trial":100,"L_num":9,"L_den":15,"R_num":8,"R_den":16,"correct_side":1,"subjID":"gabrielpizzamendez6","gender":"0","school":"4","age":"9"},{"start_time":1552308838454,"click_time":1552308839603,"finger_time":1552308839383,"fix_duration":250,"trial":26,"RT":929,"MT":220,"sideResp":2,"stimulus":[],"xmouse":[764,764,764,764,764,764,764,764,764,764,764,764,764,764,764,764,764,764,764,764,764,764,764,764,764,764,764,764,764,764,764,764,764,764,764,764,764,764,764,764,764,764,764,764,774,797,844,892,939,1005,1022,1024,1033,1035,1039,1050,1056,1060],"ymouse":[552,552,552,552,552,552,552,552,552,552,552,552,552,552,552,552,552,552,552,552,552,552,552,552,552,552,552,552,552,552,552,552,552,552,552,552,552,552,552,552,552,552,551,550,538,510,449,378,305,184,136,126,100,89,80,52,38,28],"timestamp_mouse":[8,28,50,69,89,108,130,149,168,189,209,229,248,269,288,309,329,349,368,389,410,429,449,469,489,509,529,548,568,590,609,629,649,669,690,709,729,748,768,790,810,828,848,869,889,909,929,948,968,989,1009,1028,1048,1068,1088,1108,1128,1149],"xSR":741.5,"ySR":469.95,"xT1":424.9,"yT1":0,"xT2":1058.1,"yT2":0,"toosoon":0,"cond_shown":"Congruent","ratio_trial":100,"L_num":7,"L_den":14,"R_num":9,"R_den":15,"correct_side":2,"subjID":"gabrielpizzamendez6","gender":"0","school":"4","age":"9"},{"start_time":1552308841977,"click_time":1552308844043,"finger_time":1552308843542,"fix_duration":1172.93202649902,"trial":27,"RT":1565,"MT":501,"sideResp":2,"stimulus":[],"xmouse":[770,770,770,770,770,770,770,770,770,770,770,770,770,770,770,770,770,770,770,770,770,770,770,770,770,770,770,770,770,770,770,770,770,770,770,770,770,770,770,770,770,770,770,770,770,770,770,770,770,770,770,770,770,770,770,770,770,770,770,770,770,770,770,770,770,770,770,770,770,770,770,770,770,770,770,770,770,771,833,913,1021,1131,1230,1334,1351,1358,1362,1362,1362,1350,1338,1325,1312,1292,1280,1270,1258,1243,1228,1192,1178,1171,1160,1148],"ymouse":[490,490,490,490,490,490,490,490,490,490,490,490,490,490,490,490,490,490,490,490,490,490,490,490,490,490,490,490,490,490,490,490,490,490,490,490,490,490,490,490,490,490,490,490,490,490,490,490,490,490,490,490,490,490,490,490,490,490,490,490,490,490,490,490,490,490,490,490,490,490,490,490,490,490,490,490,490,490,465,431,386,342,298,256,241,229,215,203,185,130,94,64,43,18,12,12,12,12,12,18,20,21,25,28],"timestamp_mouse":[14,27,45,66,86,105,126,146,165,186,206,225,246,267,287,306,326,346,366,386,405,426,445,467,485,505,526,546,565,586,605,626,645,666,685,705,726,747,767,786,806,826,845,866,886,905,927,946,966,986,1005,1025,1045,1066,1087,1106,1125,1145,1165,1186,1207,1226,1246,1267,1286,1307,1325,1346,1366,1386,1407,1425,1445,1466,1485,1507,1526,1545,1565,1586,1606,1625,1645,1666,1685,1705,1726,1745,1765,1785,1805,1825,1845,1866,1885,1906,1926,1945,1965,1985,2005,2026,2046,2066],"xSR":741.5,"ySR":469.95,"xT1":424.9,"yT1":0,"xT2":1058.1,"yT2":0,"toosoon":0,"cond_shown":"Incongruent","ratio_trial":200,"L_num":1,"L_den":3,"R_num":2,"R_den":15,"correct_side":1,"subjID":"gabrielpizzamendez6","gender":"0","school":"4","age":"9"},{"start_time":1552308845641,"click_time":1552308848003,"finger_time":1552308847443,"fix_duration":456.86182749973193,"trial":28,"RT":1802,"MT":560,"sideResp":1,"stimulus":[],"xmouse":[796,796,796,796,796,796,796,796,796,796,796,796,796,796,796,796,796,796,796,796,796,796,796,796,796,796,796,796,796,796,796,796,796,796,796,796,796,796,796,796,796,796,796,796,796,796,796,796,796,796,796,796,796,796,796,796,796,796,796,796,796,796,796,796,796,796,796,796,796,796,796,796,796,796,796,796,796,796,796,796,796,796,796,796,796,796,795,789,780,768,731,704,697,677,665,639,627,617,611,608,603,599,584,567,559,559,559,559,559,559,559,559,559,559,559,559,559,559,513],"ymouse":[488,488,488,488,488,488,488,488,488,488,488,488,488,488,488,488,488,488,488,488,488,488,488,488,488,488,488,488,488,488,488,488,488,488,488,488,488,488,488,488,488,488,488,488,488,488,488,488,488,488,488,488,488,488,488,488,488,488,488,488,488,488,488,488,488,488,488,488,488,488,488,488,488,488,488,488,488,488,488,488,488,488,488,488,488,488,488,488,482,470,430,400,392,364,340,281,251,229,216,207,196,181,122,58,23,23,23,23,23,23,23,23,23,23,23,23,23,23,4],"timestamp_mouse":[9,21,42,69,83,102,121,142,161,181,201,221,241,261,281,302,322,341,361,382,402,422,443,463,482,502,522,542,561,582,601,623,643,662,682,703,723,743,762,781,803,822,842,862,881,903,921,942,962,981,1001,1022,1041,1063,1081,1101,1121,1143,1162,1182,1203,1222,1241,1262,1282,1303,1321,1342,1361,1381,1402,1422,1441,1461,1482,1502,1522,1542,1562,1583,1601,1622,1642,1662,1681,1702,1722,1741,1762,1782,1802,1821,1842,1863,1882,1903,1921,1941,1961,1981,2002,2021,2042,2062,2082,2103,2123,2142,2163,2182,2202,2222,2242,2261,2281,2301,2322,2341,2362],"xSR":741.5,"ySR":469.95,"xT1":424.9,"yT1":0,"xT2":1058.1,"yT2":0,"toosoon":0,"cond_shown":"Incongruent","ratio_trial":100,"L_num":12,"L_den":30,"R_num":2,"R_den":4,"correct_side":2,"subjID":"gabrielpizzamendez6","gender":"0","school":"4","age":"9"},{"start_time":1552308852236,"click_time":1552308853843,"finger_time":1552308853502,"fix_duration":913.8785339111478,"trial":29,"RT":1266,"MT":341,"sideResp":2,"stimulus":[],"xmouse":[798,798,798,798,798,798,798,798,798,798,798,798,798,798,798,798,798,798,798,798,798,798,798,798,798,798,798,798,798,798,798,798,798,798,798,798,798,798,798,798,798,798,798,798,798,798,798,798,798,798,798,798,798,798,798,798,798,798,798,798,798,804,834,885,946,1066,1122,1163,1189,1200,1209,1210,1210,1204,1198,1181,1172,1165,1162,1160,1158],"ymouse":[522,522,522,522,522,522,522,522,522,522,522,522,522,522,522,522,522,522,522,522,522,522,522,522,522,522,522,522,522,522,522,522,522,522,522,522,522,522,522,522,522,522,522,522,522,522,522,522,522,522,522,522,522,522,522,522,522,522,522,522,522,515,488,446,393,299,253,215,188,171,150,143,130,111,88,43,27,16,14,13,13],"timestamp_mouse":[9,27,46,66,86,106,128,146,167,188,206,228,248,267,286,306,326,347,367,388,407,427,446,466,488,507,526,547,566,587,606,627,646,668,687,706,727,747,766,786,806,827,846,868,888,907,927,948,966,986,1006,1027,1047,1068,1088,1108,1127,1147,1168,1187,1207,1228,1247,1266,1286,1307,1326,1346,1368,1388,1408,1426,1447,1467,1487,1508,1526,1547,1567,1587,1607],"xSR":741.5,"ySR":469.95,"xT1":424.9,"yT1":0,"xT2":1058.1,"yT2":0,"toosoon":0,"cond_shown":"Congruent","ratio_trial":200,"L_num":9,"L_den":30,"R_num":13,"R_den":26,"correct_side":2,"subjID":"gabrielpizzamendez6","gender":"0","school":"4","age":"9"},{"start_time":1552308855284,"click_time":1552308857224,"finger_time":1552308856883,"fix_duration":439.42543740567976,"trial":30,"RT":1599,"MT":341,"sideResp":1,"stimulus":[],"xmouse":[758,758,757,756,756,756,756,756,756,756,756,756,756,756,756,756,756,756,756,756,756,756,756,756,756,756,756,756,756,756,756,756,756,756,756,756,756,756,756,756,756,756,756,756,756,756,756,756,756,756,756,756,756,756,756,756,756,756,756,756,756,756,756,756,756,756,756,756,756,756,756,756,756,756,756,756,756,756,748,739,730,721,700,692,682,675,670,658,647,635,624,613,585,565,548,531,518],"ymouse":[512,512,513,513,513,513,513,513,513,513,513,513,513,513,513,513,513,513,513,513,513,513,513,513,513,513,513,513,513,513,513,513,513,513,513,513,513,513,513,513,513,513,513,513,513,513,513,513,513,513,513,513,513,513,513,513,513,513,513,513,513,513,513,513,513,513,513,513,513,513,513,513,513,513,513,513,513,513,506,486,456,422,366,347,331,319,313,298,287,276,261,245,187,141,101,70,44],"timestamp_mouse":[19,42,59,79,98,119,138,160,179,199,219,239,259,279,298,319,340,359,378,399,420,439,459,479,500,518,539,558,578,600,620,639,658,679,699,719,739,759,779,798,819,838,859,879,899,919,938,959,979,998,1019,1038,1058,1079,1098,1119,1138,1159,1178,1200,1220,1240,1260,1278,1299,1319,1338,1358,1378,1400,1419,1439,1459,1478,1500,1519,1539,1558,1578,1599,1619,1638,1659,1679,1699,1720,1738,1759,1778,1799,1820,1840,1859,1879,1898,1919,1940],"xSR":741.5,"ySR":469.95,"xT1":424.9,"yT1":0,"xT2":1058.1,"yT2":0,"toosoon":0,"cond_shown":"Incongruent","ratio_trial":300,"L_num":7,"L_den":10,"R_num":8,"R_den":20,"correct_side":1,"subjID":"gabrielpizzamendez6","gender":"0","school":"4","age":"9"},{"start_time":1552308859867,"click_time":1552308861162,"finger_time":1552308860763,"fix_duration":282.4236255657017,"trial":31,"RT":896,"MT":399,"sideResp":1,"stimulus":[],"xmouse":[771,771,771,771,771,771,771,771,771,771,771,771,771,771,771,771,771,771,771,771,771,771,771,771,771,771,771,771,771,771,771,771,771,771,771,771,771,771,771,771,771,771,772,764,747,725,704,688,678,667,660,653,646,623,612,601,592,585,578,575,572,567,557,546,524],"ymouse":[510,510,510,510,510,510,510,510,510,510,510,510,510,510,510,510,510,510,510,510,510,510,510,510,510,510,510,510,510,510,510,510,510,510,510,510,510,510,510,510,510,510,510,470,425,376,342,319,304,288,275,265,253,223,212,201,192,186,179,176,171,158,141,121,87],"timestamp_mouse":[17,35,55,76,96,117,136,155,175,195,217,236,255,276,295,316,335,357,377,396,416,437,455,475,496,515,535,557,576,596,616,637,656,676,696,716,735,755,775,795,815,836,856,876,896,916,937,955,976,995,1016,1035,1055,1076,1096,1115,1136,1155,1176,1195,1216,1235,1256,1275,1295],"xSR":741.5,"ySR":469.95,"xT1":424.9,"yT1":0,"xT2":1058.1,"yT2":0,"toosoon":0,"cond_shown":"Congruent","ratio_trial":100,"L_num":8,"L_den":16,"R_num":2,"R_den":5,"correct_side":1,"subjID":"gabrielpizzamendez6","gender":"0","school":"4","age":"9"},{"start_time":1552308862238,"click_time":1552308863262,"finger_time":1552308862903,"fix_duration":254.0223615346706,"trial":32,"RT":665,"MT":359,"sideResp":2,"stimulus":[],"xmouse":[797,797,797,797,797,797,797,797,797,797,797,797,797,797,797,797,797,797,797,797,797,797,797,797,797,797,797,797,797,798,803,817,826,847,863,880,914,928,945,961,988,1013,1027,1042,1057,1078,1083,1089,1096,1104,1112,1124],"ymouse":[508,508,508,508,508,508,508,508,508,508,508,508,508,508,508,508,508,508,508,508,508,508,508,508,508,508,508,508,508,508,504,488,482,465,452,437,395,374,353,336,305,276,256,235,214,185,175,166,154,135,111,64],"timestamp_mouse":[13,39,45,65,85,104,125,144,165,186,204,224,245,265,286,305,324,345,366,384,405,425,444,465,485,504,526,544,565,585,604,625,646,665,685,705,724,745,765,784,805,824,845,865,884,905,924,945,965,984,1005,1024],"xSR":741.5,"ySR":469.95,"xT1":424.9,"yT1":0,"xT2":1058.1,"yT2":0,"toosoon":0,"cond_shown":"Incongruent","ratio_trial":300,"L_num":4,"L_den":20,"R_num":2,"R_den":4,"correct_side":2,"subjID":"gabrielpizzamendez6","gender":"0","school":"4","age":"9"},{"start_time":1552308865054,"click_time":1552308866763,"finger_time":1552308866362,"fix_duration":250,"trial":33,"RT":1308,"MT":401,"sideResp":2,"stimulus":[],"xmouse":[788,788,788,788,788,788,788,788,788,788,788,788,788,788,788,788,788,788,788,788,788,788,788,788,788,788,788,788,788,788,788,788,788,788,788,788,788,788,788,788,788,788,788,788,788,788,788,788,788,788,788,788,788,788,788,788,788,788,788,788,788,788,791,798,809,848,880,933,986,1083,1113,1141,1151,1156,1160,1160,1161,1161,1161,1161,1161,1161,1161,1161,1161,1129],"ymouse":[484,484,484,484,484,484,484,484,484,484,484,484,484,484,484,484,484,484,484,484,484,484,484,484,484,484,484,484,484,484,484,484,484,484,484,484,484,484,484,484,484,484,484,484,484,484,484,484,484,484,484,484,484,484,484,484,484,484,484,484,484,484,485,485,484,478,464,436,395,293,235,173,143,117,90,35,4,4,4,4,4,4,4,4,4,27],"timestamp_mouse":[13,28,49,69,89,108,128,148,168,188,210,228,250,270,290,309,328,348,369,388,410,429,450,470,488,510,529,549,568,588,608,628,649,669,690,709,730,749,769,788,808,830,848,868,888,909,930,948,969,988,1008,1029,1048,1068,1088,1110,1128,1148,1169,1189,1208,1229,1249,1269,1288,1308,1328,1348,1368,1390,1408,1428,1449,1470,1488,1508,1529,1549,1568,1589,1609,1629,1650,1669,1689,1709],"xSR":741.5,"ySR":469.95,"xT1":424.9,"yT1":0,"xT2":1058.1,"yT2":0,"toosoon":0,"cond_shown":"Incongruent","ratio_trial":100,"L_num":4,"L_den":8,"R_num":8,"R_den":20,"correct_side":1,"subjID":"gabrielpizzamendez6","gender":"0","school":"4","age":"9"},{"start_time":1552308868016,"click_time":1552308869903,"finger_time":1552308869503,"fix_duration":250,"trial":34,"RT":1487,"MT":400,"sideResp":2,"stimulus":[],"xmouse":[800,799,799,799,799,799,799,799,799,799,799,799,799,799,799,799,799,799,799,799,799,801,801,801,801,801,801,801,801,801,801,801,801,801,801,801,801,801,801,801,801,801,801,801,801,801,801,801,801,801,801,801,801,801,801,801,802,804,805,809,812,823,826,827,827,827,827,827,827,827,827,827,829,839,860,899,990,1039,1091,1133,1160,1174,1187,1191,1194,1197,1202,1202,1202,1202,1202,1202,1202,1202,1144],"ymouse":[537,538,539,539,539,539,539,539,539,539,539,539,539,539,539,539,538,537,535,534,532,527,525,525,525,525,525,525,525,525,525,525,525,525,525,525,525,525,525,525,525,525,525,525,525,525,525,525,525,525,525,525,525,525,525,524,523,522,521,520,518,514,512,511,511,511,511,511,511,511,511,511,511,504,487,457,378,335,278,227,186,160,114,83,61,37,10,10,10,10,10,10,10,10,12],"timestamp_mouse":[7,27,60,66,86,106,128,148,166,186,206,226,246,266,287,308,327,347,367,387,407,426,446,468,487,506,526,546,566,586,608,627,646,668,687,706,728,746,766,787,807,826,847,867,886,907,926,946,968,987,1008,1026,1047,1066,1087,1106,1126,1146,1167,1186,1207,1227,1247,1267,1287,1306,1326,1346,1366,1387,1408,1427,1446,1466,1487,1507,1528,1546,1567,1587,1607,1627,1646,1666,1686,1707,1726,1747,1766,1787,1807,1826,1846,1867,1887],"xSR":741.5,"ySR":469.95,"xT1":424.9,"yT1":0,"xT2":1058.1,"yT2":0,"toosoon":0,"cond_shown":"Incongruent","ratio_trial":200,"L_num":7,"L_den":10,"R_num":8,"R_den":16,"correct_side":1,"subjID":"gabrielpizzamendez6","gender":"0","school":"4","age":"9"},{"start_time":1552308871813,"click_time":1552308872644,"finger_time":1552308872163,"fix_duration":1048.8255343519816,"trial":35,"RT":350,"MT":481,"sideResp":1,"stimulus":[],"xmouse":[760,760,760,760,760,760,760,760,760,760,760,760,759,758,757,754,750,735,728,717,707,694,658,637,613,598,579,572,566,560,553,544,527,521,514,512,511,511,511,511,511,509],"ymouse":[514,514,514,514,514,514,514,514,514,514,513,513,511,507,505,501,496,476,467,451,439,424,395,380,358,343,319,306,295,285,270,253,202,157,127,111,100,100,100,100,100,97],"timestamp_mouse":[12,35,50,70,89,111,129,149,170,190,209,230,249,269,289,310,329,350,370,389,409,430,449,471,491,511,530,549,569,589,610,630,650,669,689,710,731,750,771,790,810,830],"xSR":741.5,"ySR":469.95,"xT1":424.9,"yT1":0,"xT2":1058.1,"yT2":0,"toosoon":0,"cond_shown":"Incongruent","ratio_trial":100,"L_num":9,"L_den":15,"R_num":13,"R_den":26,"correct_side":1,"subjID":"gabrielpizzamendez6","gender":"0","school":"4","age":"9"},{"start_time":1552308873632,"click_time":1552308876744,"finger_time":1552308876183,"fix_duration":307.1316516873949,"trial":36,"RT":2551,"MT":561,"sideResp":1,"stimulus":[],"xmouse":[805,805,805,805,805,805,805,805,805,805,805,805,805,805,805,805,805,805,805,805,805,805,805,805,805,805,805,805,805,805,805,805,805,805,805,805,805,805,805,805,805,805,805,805,805,805,805,805,805,805,805,805,805,805,805,805,805,805,805,805,805,805,805,805,805,805,805,805,805,805,805,805,805,805,805,805,805,805,805,805,805,805,805,805,805,805,805,805,805,805,805,805,805,805,805,805,805,805,805,805,805,805,805,805,805,805,805,805,805,805,805,805,805,805,805,805,805,805,805,805,805,805,805,805,803,784,766,748,734,722,715,711,710,700,687,673,642,628,615,598,567,557,545,540,537,534,533,533,531,528,525,522,519,512,505,480],"ymouse":[507,507,507,507,507,507,507,507,507,507,507,507,507,507,507,507,507,507,507,507,507,507,507,507,507,507,507,507,507,507,507,507,507,507,507,507,507,507,507,507,507,507,507,507,507,507,507,507,507,507,507,507,507,507,507,507,507,507,507,507,507,507,507,507,507,507,507,507,507,507,507,507,507,507,507,507,507,507,507,507,507,507,507,507,507,507,507,507,507,507,507,507,507,507,507,507,507,507,507,507,507,507,507,507,507,507,507,507,507,507,507,507,507,507,507,507,507,507,507,507,507,507,507,507,505,490,477,461,447,433,425,422,420,408,395,380,347,330,314,296,258,245,224,211,199,185,179,171,160,145,127,121,118,111,103,70],"timestamp_mouse":[12,31,50,71,91,110,131,150,171,190,211,231,252,271,290,311,331,352,370,390,412,430,451,471,492,512,531,551,570,590,612,630,651,671,690,710,731,750,771,791,811,831,851,871,892,910,931,951,971,992,1011,1030,1050,1071,1092,1110,1131,1151,1172,1192,1211,1231,1251,1272,1290,1311,1330,1350,1371,1390,1412,1431,1451,1471,1491,1511,1531,1552,1572,1592,1612,1631,1650,1671,1690,1711,1732,1751,1770,1791,1810,1831,1851,1870,1892,1911,1931,1951,1972,1991,2011,2030,2050,2072,2091,2111,2130,2150,2171,2192,2212,2231,2250,2270,2291,2310,2330,2352,2370,2390,2410,2431,2452,2471,2491,2511,2531,2551,2570,2591,2611,2630,2651,2671,2690,2711,2731,2750,2771,2790,2812,2830,2850,2870,2890,2912,2931,2950,2971,2990,3011,3030,3052,3071,3091,3112],"xSR":741.5,"ySR":469.95,"xT1":424.9,"yT1":0,"xT2":1058.1,"yT2":0,"toosoon":0,"cond_shown":"Incongruent","ratio_trial":200,"L_num":7,"L_den":10,"R_num":8,"R_den":16,"correct_side":1,"subjID":"gabrielpizzamendez6","gender":"0","school":"4","age":"9"},{"start_time":1552308879434,"click_time":1552308880602,"finger_time":1552308880183,"fix_duration":309.0012878906487,"trial":37,"RT":749,"MT":419,"sideResp":2,"stimulus":[],"xmouse":[776,776,776,776,776,776,776,776,776,776,776,776,776,776,776,776,776,776,773,771,768,766,766,766,766,766,766,766,766,766,766,766,766,766,766,769,810,879,958,1024,1097,1108,1111,1111,1111,1111,1111,1111,1111,1111,1110,1108,1106,1105,1105,1105,1111,1123,1150],"ymouse":[508,508,508,508,508,508,508,508,508,508,508,508,508,508,508,508,508,508,510,511,514,516,516,516,516,516,516,516,516,516,516,516,516,516,516,512,477,427,367,319,257,240,233,232,232,232,232,232,232,231,223,208,194,184,172,142,122,101,59],"timestamp_mouse":[9,45,50,69,88,108,130,149,169,189,210,230,249,269,289,308,329,348,369,389,409,429,448,470,489,508,528,548,569,590,609,629,648,670,689,709,729,749,769,788,809,828,849,869,889,909,928,948,969,989,1011,1028,1049,1069,1090,1110,1129,1148,1168],"xSR":741.5,"ySR":469.95,"xT1":424.9,"yT1":0,"xT2":1058.1,"yT2":0,"toosoon":0,"cond_shown":"Incongruent","ratio_trial":200,"L_num":14,"L_den":30,"R_num":12,"R_den":18,"correct_side":2,"subjID":"gabrielpizzamendez6","gender":"0","school":"4","age":"9"},{"start_time":1552308882538,"click_time":1552308885302,"finger_time":1552308884663,"fix_duration":593.2229399440503,"trial":38,"RT":2125,"MT":639,"sideResp":2,"stimulus":[],"xmouse":[779,779,779,779,779,779,779,779,779,779,779,779,779,779,779,779,779,779,779,779,779,779,779,779,779,779,779,779,779,779,779,779,779,779,779,779,779,779,779,779,779,779,779,779,779,779,779,779,779,779,779,779,779,779,778,777,776,775,775,774,774,773,773,771,771,771,771,771,771,771,771,771,771,771,771,771,771,771,771,771,771,771,771,771,771,771,771,771,771,771,771,771,771,771,771,771,771,771,771,771,771,771,771,771,770,779,794,806,817,824,834,836,840,844,850,863,869,879,884,890,901,907,911,914,918,936,952,963,970,979,990,996,999,1003,1006,1031,1045,1081,1129],"ymouse":[495,495,495,495,495,495,495,495,495,495,495,495,495,495,495,495,495,495,495,495,495,495,495,495,495,495,495,495,495,495,495,495,495,495,495,495,495,495,495,495,495,495,495,495,495,495,495,495,495,495,495,495,495,495,493,492,491,489,489,488,488,488,488,487,486,486,486,486,486,486,486,486,486,486,486,486,486,486,486,486,486,486,486,486,486,486,486,486,486,486,486,486,486,486,486,486,486,486,486,486,486,486,486,486,486,478,465,456,448,442,435,433,429,421,414,387,365,343,329,317,300,293,287,282,277,266,255,249,245,240,233,229,227,223,220,188,171,113,27],"timestamp_mouse":[9,40,44,64,85,104,124,146,164,184,204,226,244,265,284,306,324,345,365,384,404,424,446,464,484,504,525,546,565,585,605,624,646,664,685,705,726,746,765,785,804,825,845,864,885,904,926,945,964,985,1006,1026,1044,1064,1084,1105,1125,1145,1165,1185,1206,1226,1245,1265,1285,1305,1325,1344,1364,1384,1404,1425,1445,1465,1484,1504,1524,1544,1566,1584,1604,1624,1645,1665,1684,1704,1724,1744,1765,1784,1805,1824,1844,1866,1885,1904,1924,1945,1965,1984,2005,2024,2045,2065,2085,2105,2125,2144,2164,2184,2205,2224,2244,2265,2284,2305,2324,2344,2364,2384,2404,2424,2444,2465,2484,2505,2524,2545,2565,2585,2605,2624,2644,2665,2684,2704,2724,2744,2764],"xSR":741.5,"ySR":469.95,"xT1":424.9,"yT1":0,"xT2":1058.1,"yT2":0,"toosoon":0,"cond_shown":"Incongruent","ratio_trial":100,"L_num":6,"L_den":10,"R_num":13,"R_den":26,"correct_side":1,"subjID":"gabrielpizzamendez6","gender":"0","school":"4","age":"9"},{"start_time":1552308887438,"click_time":1552308889103,"finger_time":1552308888882,"fix_duration":592.0442113660449,"trial":39,"RT":1444,"MT":221,"sideResp":2,"stimulus":[],"xmouse":[811,811,811,811,811,811,811,811,811,811,811,811,811,811,811,811,811,811,811,811,811,811,811,811,811,811,811,811,811,811,811,811,811,811,811,811,811,811,811,811,811,811,811,811,811,811,811,811,811,811,811,811,811,811,811,811,811,811,811,811,811,811,811,811,812,812,813,814,816,820,829,837,853,881,916,993,1011,1024,1029,1033,1036,1045,1053,1069],"ymouse":[525,525,525,525,525,525,525,525,525,525,525,525,525,525,525,525,525,525,525,525,525,525,525,525,525,525,525,525,525,525,525,525,525,525,525,525,525,525,525,525,525,525,525,525,525,525,525,525,525,525,525,525,525,525,525,525,525,525,525,525,525,525,525,526,526,525,524,523,521,516,507,497,463,408,349,231,195,174,162,154,150,137,124,97],"timestamp_mouse":[13,37,44,65,85,104,126,145,165,184,205,226,244,265,285,304,324,344,365,384,405,425,445,465,485,504,524,544,564,585,605,624,644,664,684,705,724,744,764,784,804,823,845,863,885,905,924,945,965,985,1005,1025,1044,1064,1084,1104,1125,1145,1164,1185,1204,1224,1245,1264,1290,1304,1325,1344,1365,1384,1404,1425,1444,1464,1484,1505,1524,1544,1565,1584,1605,1624,1645,1664],"xSR":741.5,"ySR":469.95,"xT1":424.9,"yT1":0,"xT2":1058.1,"yT2":0,"toosoon":0,"cond_shown":"Incongruent","ratio_trial":200,"L_num":14,"L_den":30,"R_num":6,"R_den":9,"correct_side":2,"subjID":"gabrielpizzamendez6","gender":"0","school":"4","age":"9"},{"start_time":1552308890336,"click_time":1552308893582,"finger_time":1552308891963,"fix_duration":512.4967111728135,"trial":40,"RT":1627,"MT":1619,"sideResp":1,"stimulus":[],"xmouse":[757,758,758,759,759,759,759,759,759,759,759,759,759,759,759,759,759,759,759,759,759,759,759,759,759,759,759,759,759,759,759,759,759,759,759,759,759,759,759,759,759,759,759,759,759,759,759,759,759,759,759,759,759,759,759,759,759,759,759,759,759,759,759,759,759,759,759,759,759,759,759,759,759,759,759,759,759,759,758,754,750,732,720,712,707,705,705,705,705,705,705,705,705,705,705,705,705,705,705,705,705,705,705,705,705,705,705,705,705,705,711,724,739,755,769,781,789,790,790,790,790,790,790,790,790,790,790,790,790,790,788,779,767,745,716,686,649,645,644,644,644,636,614,575,525,485,456,452,451,451,451,451,451,451,451,451,451,451,451,451,451,451,451],"ymouse":[524,524,524,524,524,524,524,524,524,524,524,524,524,524,524,524,524,524,524,524,524,524,524,524,524,524,524,524,524,524,524,524,524,524,524,524,524,524,524,524,524,524,524,524,524,524,524,524,524,524,524,524,524,524,524,524,524,524,524,524,524,524,524,524,524,524,524,524,524,524,524,524,524,524,524,524,524,524,524,524,524,510,500,492,488,486,486,486,486,486,486,486,486,486,486,486,486,486,486,486,486,486,486,486,486,486,486,486,486,486,490,500,513,528,541,549,554,554,554,554,554,554,554,554,554,554,554,554,554,554,550,533,504,455,383,311,228,219,217,217,217,213,203,185,161,137,119,117,116,116,116,116,116,116,116,115,114,111,110,108,104,101,99],"timestamp_mouse":[12,40,46,66,86,107,126,147,166,186,206,226,247,267,287,306,327,346,366,387,406,426,447,467,487,506,527,546,566,586,607,626,646,667,687,707,727,747,766,786,806,826,846,866,886,907,926,946,967,987,1006,1027,1047,1067,1086,1107,1126,1146,1166,1187,1207,1227,1247,1267,1287,1307,1326,1346,1366,1386,1407,1427,1447,1467,1487,1506,1526,1546,1567,1587,1606,1627,1646,1667,1687,1706,1726,1746,1767,1786,1806,1826,1846,1867,1886,1907,1926,1947,1967,1986,2007,2027,2046,2066,2086,2106,2126,2147,2166,2187,2207,2226,2247,2266,2287,2307,2326,2346,2367,2387,2406,2427,2447,2466,2488,2506,2527,2546,2566,2587,2606,2627,2646,2667,2686,2707,2726,2747,2767,2786,2807,2827,2846,2867,2886,2907,2926,2947,2967,2987,3007,3027,3046,3067,3086,3107,3127,3147,3167,3187,3206,3226,3246],"xSR":741.5,"ySR":469.95,"xT1":424.9,"yT1":0,"xT2":1058.1,"yT2":0,"toosoon":0,"cond_shown":"Incongruent","ratio_trial":100,"L_num":4,"L_den":8,"R_num":8,"R_den":20,"correct_side":1,"subjID":"gabrielpizzamendez6","gender":"0","school":"4","age":"9"},{"start_time":1552308895263,"click_time":1552308896643,"finger_time":1552308896523,"fix_duration":318.4796004691024,"trial":41,"RT":1260,"MT":120,"sideResp":1,"stimulus":[],"xmouse":[763,763,763,763,763,763,763,763,763,763,763,763,763,763,764,765,765,765,765,765,765,765,765,765,765,765,765,765,765,765,765,765,765,765,765,765,765,765,765,765,765,765,765,765,765,765,765,765,765,765,765,765,765,765,765,765,765,765,765,765,764,756,742,719,654,613,573,532,504,451],"ymouse":[499,499,499,499,499,499,499,499,499,499,499,499,499,499,499,498,498,498,498,498,498,498,498,498,498,498,498,498,498,498,498,498,498,498,498,498,498,498,498,498,498,498,498,498,498,498,498,498,498,498,498,498,498,498,498,498,498,498,498,498,498,494,485,468,392,337,277,224,172,95],"timestamp_mouse":[2,19,39,59,80,99,119,140,160,180,199,220,240,259,280,299,320,339,359,379,399,419,439,459,479,499,519,539,559,579,599,619,639,659,679,699,719,740,759,780,799,819,840,859,879,899,919,940,959,979,999,1020,1039,1059,1079,1099,1119,1140,1160,1179,1200,1219,1240,1260,1280,1299,1319,1340,1360,1380],"xSR":741.5,"ySR":469.95,"xT1":424.9,"yT1":0,"xT2":1058.1,"yT2":0,"toosoon":0,"cond_shown":"Congruent","ratio_trial":100,"L_num":3,"L_den":6,"R_num":2,"R_den":5,"correct_side":1,"subjID":"gabrielpizzamendez6","gender":"0","school":"4","age":"9"},{"start_time":1552308897895,"click_time":1552308898662,"finger_time":1552308898543,"fix_duration":250,"trial":42,"RT":648,"MT":119,"sideResp":2,"stimulus":[],"xmouse":[781,781,781,781,781,781,781,781,781,781,781,781,781,781,781,781,781,781,781,781,781,781,781,781,781,781,781,781,785,793,817,838,869,953,1012,1073,1117,1146,1148],"ymouse":[536,536,536,536,536,536,536,536,536,536,536,536,536,536,536,536,536,536,536,536,536,536,536,536,536,536,536,536,536,533,522,511,490,402,315,231,175,113,98],"timestamp_mouse":[13,28,47,68,87,108,127,147,167,187,207,227,247,267,288,308,327,347,368,387,407,428,447,467,488,508,527,548,568,588,607,627,648,667,688,708,728,748,767],"xSR":741.5,"ySR":469.95,"xT1":424.9,"yT1":0,"xT2":1058.1,"yT2":0,"toosoon":0,"cond_shown":"Congruent","ratio_trial":100,"L_num":4,"L_den":8,"R_num":6,"R_den":10,"correct_side":2,"subjID":"gabrielpizzamendez6","gender":"0","school":"4","age":"9"},{"start_time":1552308900031,"click_time":1552308901623,"finger_time":1552308901442,"fix_duration":345.3292399745219,"trial":43,"RT":1411,"MT":181,"sideResp":2,"stimulus":[],"xmouse":[789,789,789,789,789,789,789,789,789,789,789,789,789,789,789,789,789,789,789,789,789,789,789,789,789,789,789,789,789,789,789,789,789,789,789,789,789,789,789,789,789,789,789,789,789,789,789,789,789,789,789,789,789,789,789,789,789,789,789,789,789,789,789,789,789,791,797,809,824,838,851,884,930,971,1005,1048,1059,1064,1066,1067],"ymouse":[504,504,504,504,504,504,504,504,504,504,504,504,504,504,504,504,504,504,504,504,504,504,504,504,504,504,504,504,504,504,504,504,504,504,504,504,504,504,504,504,504,504,504,504,504,504,504,504,504,504,504,504,504,504,504,504,504,504,504,504,504,504,504,504,504,504,504,504,501,496,490,463,414,354,298,205,169,139,113,91],"timestamp_mouse":[11,31,52,72,91,111,132,152,172,192,211,231,251,272,291,311,332,351,372,391,411,431,452,471,492,511,531,552,572,591,612,631,651,671,692,711,731,752,773,792,812,831,852,872,892,911,932,951,971,992,1012,1031,1051,1072,1092,1111,1131,1151,1172,1191,1212,1231,1251,1272,1291,1312,1331,1352,1371,1392,1411,1431,1451,1471,1491,1512,1531,1552,1572,1592],"xSR":741.5,"ySR":469.95,"xT1":424.9,"yT1":0,"xT2":1058.1,"yT2":0,"toosoon":0,"cond_shown":"Congruent","ratio_trial":100,"L_num":11,"L_den":22,"R_num":6,"R_den":15,"correct_side":1,"subjID":"gabrielpizzamendez6","gender":"0","school":"4","age":"9"},{"start_time":1552308902736,"click_time":1552308903722,"finger_time":1552308903563,"fix_duration":391.43199599811385,"trial":44,"RT":827,"MT":159,"sideResp":2,"stimulus":[],"xmouse":[766,766,766,766,766,766,766,766,766,765,765,764,763,762,762,762,762,762,762,762,762,762,762,762,762,762,762,762,762,762,762,762,762,762,762,762,762,763,768,781,806,899,943,986,1020,1080,1102,1119,1124,1128],"ymouse":[516,516,516,516,516,516,516,516,516,516,516,517,517,517,517,517,517,517,517,517,517,517,517,517,517,517,517,517,517,517,517,517,517,517,517,517,517,517,517,517,510,471,442,405,356,250,201,141,120,97],"timestamp_mouse":[10,26,46,67,87,107,127,147,166,186,206,227,247,267,286,308,327,347,366,387,407,426,447,466,487,506,526,547,566,586,606,626,646,667,686,706,727,746,767,787,806,827,846,866,887,907,926,946,967,986],"xSR":741.5,"ySR":469.95,"xT1":424.9,"yT1":0,"xT2":1058.1,"yT2":0,"toosoon":0,"cond_shown":"Congruent","ratio_trial":100,"L_num":4,"L_den":10,"R_num":15,"R_den":30,"correct_side":2,"subjID":"gabrielpizzamendez6","gender":"0","school":"4","age":"9"},{"start_time":1552308905658,"click_time":1552308907542,"finger_time":1552308907322,"fix_duration":893.978275841567,"trial":45,"RT":1664,"MT":220,"sideResp":1,"stimulus":[],"xmouse":[784,784,784,784,784,784,784,784,784,784,784,784,784,784,784,784,784,784,784,784,784,784,784,784,784,784,784,784,784,784,784,784,784,784,784,784,784,784,784,784,784,784,784,784,784,784,784,784,784,784,784,784,784,784,784,784,784,784,784,784,784,784,784,784,784,784,784,784,784,784,784,784,784,784,784,784,784,784,784,784,781,768,748,729,677,658,643,631,620,597,584,569,533,513,498],"ymouse":[541,541,541,541,541,541,541,541,541,541,541,541,541,541,541,541,541,541,541,541,541,541,541,541,541,541,541,541,541,541,541,541,541,541,541,541,541,541,541,541,541,541,541,541,541,541,541,541,541,541,541,541,541,541,541,541,541,541,541,541,541,541,541,541,541,541,541,541,541,541,541,541,541,541,541,541,541,541,541,541,529,510,484,459,401,384,371,356,339,298,278,247,150,109,69],"timestamp_mouse":[10,24,47,65,85,104,125,145,164,184,204,225,244,265,284,305,325,344,364,385,405,424,445,464,485,504,525,544,564,584,605,625,645,664,684,705,725,744,764,786,805,825,845,865,884,904,925,944,965,984,1004,1025,1044,1065,1084,1104,1125,1145,1165,1185,1205,1225,1245,1264,1284,1305,1325,1344,1365,1384,1405,1425,1445,1465,1484,1504,1525,1545,1565,1584,1604,1625,1645,1664,1685,1704,1724,1745,1765,1785,1804,1825,1845,1865,1884],"xSR":741.5,"ySR":469.95,"xT1":424.9,"yT1":0,"xT2":1058.1,"yT2":0,"toosoon":0,"cond_shown":"Incongruent","ratio_trial":200,"L_num":4,"L_den":30,"R_num":1,"R_den":3,"correct_side":2,"subjID":"gabrielpizzamendez6","gender":"0","school":"4","age":"9"},{"start_time":1552308910137,"click_time":1552308911343,"finger_time":1552308910822,"fix_duration":1452.377410722885,"trial":46,"RT":685,"MT":521,"sideResp":2,"stimulus":[],"xmouse":[809,809,809,809,808,808,808,808,808,808,808,808,808,808,807,807,805,805,804,804,804,804,804,804,804,804,804,804,804,804,812,818,822,832,844,856,907,945,953,958,970,979,988,998,1004,1010,1013,1016,1021,1030,1041,1052,1054,1054,1054,1054,1055,1059,1066,1071,1075],"ymouse":[527,527,527,527,528,529,530,530,530,530,530,530,530,530,531,531,532,534,534,535,535,535,535,535,535,535,535,535,535,534,524,517,512,505,498,489,438,408,402,396,376,366,357,348,342,333,329,321,310,284,248,201,192,184,182,181,178,161,141,119,35],"timestamp_mouse":[13,39,46,65,85,106,126,146,166,187,206,225,245,265,285,306,326,346,366,387,406,425,446,465,485,506,526,545,565,586,605,626,645,666,685,706,726,746,766,786,806,826,845,866,885,906,925,945,966,986,1005,1026,1045,1065,1085,1105,1125,1146,1165,1186,1206],"xSR":741.5,"ySR":469.95,"xT1":424.9,"yT1":0,"xT2":1058.1,"yT2":0,"toosoon":0,"cond_shown":"Incongruent","ratio_trial":200,"L_num":9,"L_den":15,"R_num":8,"R_den":10,"correct_side":2,"subjID":"gabrielpizzamendez6","gender":"0","school":"4","age":"9"},{"start_time":1552308913289,"click_time":1552308914882,"finger_time":1552308914522,"fix_duration":904.252759962758,"trial":47,"RT":1233,"MT":360,"sideResp":1,"stimulus":[],"xmouse":[770,766,757,755,755,755,755,755,755,755,755,755,755,755,755,755,755,755,755,755,755,755,755,755,755,755,755,755,755,755,755,755,755,755,755,755,755,755,755,755,755,755,755,755,755,755,755,755,755,755,755,755,755,755,755,755,755,755,755,753,743,728,672,640,605,579,561,537,531,530,528,528,527,527,529,532,533,531,523,510],"ymouse":[541,541,541,541,541,541,541,541,541,541,541,541,541,541,541,541,541,541,541,541,541,541,541,541,541,541,541,541,541,541,541,541,541,541,541,541,541,541,541,541,541,541,541,541,541,541,541,541,541,541,541,541,541,541,541,541,541,541,541,541,531,512,454,423,392,364,341,304,290,277,270,264,255,249,236,222,204,148,110,64],"timestamp_mouse":[15,38,53,73,93,114,133,153,173,194,214,233,254,273,294,314,334,354,372,394,413,433,454,473,494,515,534,554,573,594,614,634,654,673,695,714,734,753,773,794,814,834,854,874,893,913,933,954,973,994,1013,1034,1053,1075,1094,1113,1134,1153,1174,1193,1214,1233,1253,1273,1293,1314,1334,1355,1373,1393,1414,1433,1454,1473,1494,1513,1533,1554,1573,1593],"xSR":741.5,"ySR":469.95,"xT1":424.9,"yT1":0,"xT2":1058.1,"yT2":0,"toosoon":0,"cond_shown":"Congruent","ratio_trial":100,"L_num":8,"L_den":16,"R_num":2,"R_den":5,"correct_side":1,"subjID":"gabrielpizzamendez6","gender":"0","school":"4","age":"9"},{"start_time":1552308917943,"click_time":1552308919443,"finger_time":1552308918742,"fix_duration":838.5136619297137,"trial":48,"RT":799,"MT":701,"sideResp":2,"stimulus":[],"xmouse":[782,782,782,782,782,782,782,782,782,782,782,782,782,782,782,782,782,782,782,782,782,782,782,782,782,782,782,782,782,782,782,782,782,782,782,782,782,786,796,810,858,896,930,958,976,996,999,1000,1003,1006,1013,1015,1018,1021,1023,1027,1032,1036,1039,1042,1050,1055,1059,1061,1063,1066,1067,1067,1067,1067,1067,1069,1072,1078,1094,1132],"ymouse":[514,514,514,514,514,514,514,514,514,514,514,514,514,514,514,514,514,514,514,514,514,514,514,514,514,514,514,514,514,514,514,514,514,514,514,514,513,512,510,507,475,427,381,335,301,232,215,205,196,187,170,162,156,151,149,148,145,141,138,136,132,130,129,129,129,129,129,126,125,124,124,122,118,111,103,94],"timestamp_mouse":[1,35,39,60,80,99,119,139,160,180,200,220,240,260,280,300,319,340,360,380,399,420,439,459,480,499,520,539,559,580,599,619,639,659,680,700,720,740,759,780,799,819,839,859,879,900,919,941,960,979,1001,1019,1039,1060,1079,1099,1119,1140,1159,1179,1200,1220,1239,1259,1280,1300,1321,1340,1360,1379,1400,1420,1440,1460,1479,1500],"xSR":741.5,"ySR":469.95,"xT1":424.9,"yT1":0,"xT2":1058.1,"yT2":0,"toosoon":0,"cond_shown":"Incongruent","ratio_trial":200,"L_num":7,"L_den":10,"R_num":8,"R_den":16,"correct_side":1,"subjID":"gabrielpizzamendez6","gender":"0","school":"4","age":"9"},{"start_time":1552308921436,"click_time":1552308922543,"finger_time":1552308922143,"fix_duration":892.6749707117975,"trial":49,"RT":707,"MT":400,"sideResp":1,"stimulus":[],"xmouse":[770,770,770,770,770,770,770,770,770,770,770,770,770,770,770,770,770,770,770,770,770,770,770,770,770,770,770,770,770,770,770,770,770,769,762,732,711,674,636,613,597,595,595,602,610,613,613,612,608,606,604,595,580,565,549,504],"ymouse":[534,534,534,534,534,534,534,534,534,534,534,534,534,534,534,534,534,534,534,534,534,534,534,534,534,534,534,534,534,534,534,534,534,531,514,440,387,321,254,216,184,178,171,158,137,118,87,76,68,65,63,62,62,62,62,62],"timestamp_mouse":[10,26,46,66,86,107,127,146,166,186,206,226,246,266,286,307,327,347,366,387,406,426,446,466,486,507,526,546,567,586,606,626,647,667,686,707,726,747,767,786,807,826,847,867,887,907,927,947,966,986,1007,1026,1046,1067,1087,1106],"xSR":741.5,"ySR":469.95,"xT1":424.9,"yT1":0,"xT2":1058.1,"yT2":0,"toosoon":0,"cond_shown":"Congruent","ratio_trial":200,"L_num":16,"L_den":20,"R_num":12,"R_den":20,"correct_side":1,"subjID":"gabrielpizzamendez6","gender":"0","school":"4","age":"9"},{"start_time":1552308926688,"click_time":1552308927623,"finger_time":1552308927522,"fix_duration":1003.1906066037229,"trial":50,"RT":834,"MT":101,"sideResp":1,"stimulus":[],"xmouse":[774,774,774,774,774,774,774,774,774,774,774,774,774,774,774,774,774,774,774,774,774,774,774,774,774,774,774,774,774,774,774,774,774,774,774,774,774,774,772,764,755,738,714,611,590,539,502],"ymouse":[507,507,507,507,507,507,507,507,507,507,507,507,507,507,507,507,507,507,507,507,507,507,507,507,507,507,507,507,507,507,507,507,507,507,507,507,507,507,504,493,479,455,413,227,182,94,42],"timestamp_mouse":[14,47,54,75,94,115,134,155,174,195,215,235,254,274,295,315,334,354,375,395,414,435,454,475,494,514,534,554,574,594,614,635,655,675,694,715,736,755,775,795,815,834,854,882,894,915,934],"xSR":741.5,"ySR":469.95,"xT1":424.9,"yT1":0,"xT2":1058.1,"yT2":0,"toosoon":0,"cond_shown":"Congruent","ratio_trial":300,"L_num":11,"L_den":22,"R_num":4,"R_den":20,"correct_side":1,"subjID":"gabrielpizzamendez6","gender":"0","school":"4","age":"9"},{"start_time":1552308930145,"click_time":1552308931563,"finger_time":1552308930842,"fix_duration":1460.643968595409,"trial":51,"RT":697,"MT":721,"sideResp":2,"stimulus":[],"xmouse":[783,783,783,783,783,783,783,783,783,783,783,783,783,783,783,783,783,783,783,783,783,783,783,783,783,783,783,783,783,783,783,787,794,812,915,974,1019,1033,1042,1050,1053,1054,1056,1058,1058,1061,1063,1064,1064,1068,1070,1072,1072,1074,1079,1081,1085,1086,1087,1087,1087,1087,1087,1087,1087,1087,1087,1089,1092,1095,1111],"ymouse":[499,499,499,500,501,501,501,501,501,501,501,501,501,501,501,501,501,501,501,501,501,501,501,501,501,501,501,501,501,501,501,501,496,479,362,303,265,256,245,222,214,210,205,202,197,187,181,172,167,151,146,142,137,134,120,114,107,105,104,104,104,104,104,104,104,104,104,104,104,102,93],"timestamp_mouse":[17,38,57,77,98,117,138,157,178,197,217,238,258,277,298,317,338,357,377,398,417,437,458,477,497,517,538,558,579,598,617,637,658,677,697,718,737,757,777,798,817,838,857,877,897,917,938,958,977,998,1017,1038,1057,1076,1098,1118,1137,1157,1177,1197,1217,1238,1257,1278,1297,1317,1337,1357,1377,1398,1418],"xSR":741.5,"ySR":469.95,"xT1":424.9,"yT1":0,"xT2":1058.1,"yT2":0,"toosoon":0,"cond_shown":"Congruent","ratio_trial":300,"L_num":3,"L_den":12,"R_num":11,"R_den":20,"correct_side":2,"subjID":"gabrielpizzamendez6","gender":"0","school":"4","age":"9"},{"start_time":1552308932995,"click_time":1552308934363,"finger_time":1552308933883,"fix_duration":610.9214235834879,"trial":52,"RT":888,"MT":480,"sideResp":2,"stimulus":[],"xmouse":[791,791,791,791,791,791,791,791,791,791,791,791,791,791,791,791,791,791,791,791,791,791,791,791,791,791,791,791,791,791,791,791,791,791,791,791,791,791,791,792,793,794,796,810,853,904,979,1137,1174,1195,1203,1205,1206,1206,1206,1206,1206,1204,1203,1203,1203,1203,1203,1203,1202,1191,1184,1171,1135],"ymouse":[525,525,525,525,525,525,525,525,525,525,525,525,525,525,525,525,525,525,525,525,525,525,525,525,525,525,525,525,525,525,525,525,525,525,525,525,525,526,526,526,525,524,522,508,472,434,389,231,183,148,127,110,87,73,65,58,53,49,47,47,47,47,47,47,46,43,41,37,29],"timestamp_mouse":[12,37,48,68,88,107,127,148,167,187,207,227,247,268,287,308,327,347,367,388,408,427,448,467,487,507,528,547,568,587,607,627,647,668,688,707,727,747,768,788,808,828,848,868,888,908,928,948,967,988,1008,1027,1047,1068,1087,1107,1128,1148,1167,1187,1208,1228,1247,1267,1287,1308,1328,1347,1368],"xSR":741.5,"ySR":469.95,"xT1":424.9,"yT1":0,"xT2":1058.1,"yT2":0,"toosoon":0,"cond_shown":"Congruent","ratio_trial":100,"L_num":1,"L_den":2,"R_num":18,"R_den":30,"correct_side":2,"subjID":"gabrielpizzamendez6","gender":"0","school":"4","age":"9"},{"start_time":1552308935936,"click_time":1552308937102,"finger_time":1552308936622,"fix_duration":250,"trial":53,"RT":686,"MT":480,"sideResp":2,"stimulus":[],"xmouse":[797,797,797,797,797,797,797,797,797,797,797,797,797,797,797,797,797,797,797,797,797,797,797,797,797,797,797,797,797,797,800,807,817,828,842,859,911,941,951,959,989,1003,1020,1029,1039,1048,1051,1053,1054,1054,1054,1054,1054,1054,1054,1054,1054,1054,1082],"ymouse":[547,547,547,547,547,547,547,547,547,547,547,547,547,547,547,547,547,547,547,547,547,547,547,547,547,547,547,547,547,547,544,536,526,512,496,477,382,317,290,261,160,106,71,50,33,18,10,4,2,2,2,2,2,2,2,2,2,2,9],"timestamp_mouse":[12,27,46,67,86,106,126,147,167,187,207,227,247,266,287,306,326,346,366,386,407,426,447,466,487,507,527,547,567,587,607,626,647,667,686,707,727,746,767,786,807,826,846,868,886,907,926,947,967,986,1007,1026,1046,1067,1087,1106,1126,1146,1166],"xSR":741.5,"ySR":469.95,"xT1":424.9,"yT1":0,"xT2":1058.1,"yT2":0,"toosoon":0,"cond_shown":"Congruent","ratio_trial":100,"L_num":1,"L_den":2,"R_num":18,"R_den":30,"correct_side":2,"subjID":"gabrielpizzamendez6","gender":"0","school":"4","age":"9"},{"start_time":1552308939471,"click_time":1552308940603,"finger_time":1552308940103,"fix_duration":1148.5951355322532,"trial":54,"RT":632,"MT":500,"sideResp":1,"stimulus":[],"xmouse":[795,795,795,795,795,795,795,795,795