[{"start_time":1552309299276,"click_time":1552309301121,"finger_time":1552309300961,"fix_duration":1449.2769458848572,"trial":0,"RT":1685,"MT":160,"sideResp":2,"stimulus":"img/500/randomdotsizeEA/R/15_Ratio_500_L_1_R_2.png","xmouse":[772,772,772,772,772,772,772,772,772,772,772,772,772,772,772,772,772,772,772,772,772,772,772,772,772,772,772,772,772,772,772,772,772,772,772,772,772,772,772,772,772,772,772,772,772,772,772,772,772,772,772,772,772,772,772,772,772,772,772,772,772,772,772,772,772,772,772,772,772,772,772,772,772,772,772,772,772,772,772,772,772,772,782,790,844,880,894,894,895,921,960,998,1059],"ymouse":[547,547,547,547,547,547,547,547,547,547,547,547,547,547,547,547,547,547,547,547,547,547,547,547,547,547,547,547,547,547,547,547,547,547,547,547,547,547,547,547,547,547,547,547,547,547,547,547,547,547,547,547,547,547,547,547,547,547,547,547,547,547,547,547,547,547,547,547,547,547,547,547,547,547,547,547,547,547,547,547,547,547,547,547,585,597,598,584,554,382,239,155,96],"timestamp_mouse":[11,41,46,67,86,106,126,146,165,186,206,226,245,266,286,305,326,346,365,386,406,426,447,466,485,506,526,545,566,585,607,626,646,665,685,706,726,747,765,786,806,825,846,866,886,906,925,946,966,985,1006,1026,1046,1065,1087,1105,1125,1146,1166,1185,1206,1226,1247,1265,1285,1306,1327,1346,1366,1385,1405,1427,1446,1465,1486,1505,1526,1547,1567,1586,1606,1626,1646,1665,1685,1705,1725,1745,1765,1786,1805,1825,1845],"xSR":741.5,"ySR":501.8,"xT1":424.9,"yT1":0,"xT2":1058.1,"yT2":0,"toosoon":0,"cond_shown":"randomdotsizeEA","ratio_trial":500,"smaller_num":"1","larger_num":"2","correct_side":2,"subjID":"gabrielpizzamendez6","gender":"0","age":"9","school":"4","test":{"fix_dur":[250,1500],"timestim":300,"targets_dim":[100,100],"targets_relative_coord":[0.3,0.7],"size_stim":[880,420],"start_dim":[100,100],"size_start":[300,300],"size_fix":60,"samplingrate":20,"img_types":["equaldotsize","equaldotanddens","randomdotsizeEA"],"ratios":[250,500,750,900],"rep_conds":9,"nTrials":120,"trials_to_rest":500,"Trials_order":[77,13,116,44,37,109,80,101,24,62,48,113,56,51,70,60,96,119,3,34,65,42,10,16,106,26,99,86,82,68,67,88,35,9,89,20,64,55,115,19,23,111,57,53,94,112,97,15,25,71,61,8,31,46,30,69,114,83,33,45,7,85,54,4,41,118,87,2,104,6,66,72,28,107,32,76,49,73,74,18,79,12,11,102,92,117,50,81,100,84,39,43,5,75,52,63,29,38,90,91,105,58,98,22,59,0,17,78,27,95,103,40,93,21,47,36,14,110,1,108],"cond_shown":["randomdotsizeEA","equaldotanddens","randomdotsizeEA","randomdotsizeEA","equaldotanddens","equaldotanddens","randomdotsizeEA","randomdotsizeEA","equaldotsize","randomdotsizeEA","equaldotsize","randomdotsizeEA","randomdotsizeEA","equaldotsize","equaldotanddens","equaldotsize","equaldotsize","randomdotsizeEA","equaldotsize","equaldotanddens","randomdotsizeEA","equaldotsize","equaldotanddens","equaldotanddens","equaldotanddens","randomdotsizeEA","equaldotsize","randomdotsizeEA","equaldotanddens","randomdotsizeEA","equaldotanddens","equaldotanddens","randomdotsizeEA","equaldotsize","randomdotsizeEA","randomdotsizeEA","equaldotanddens","equaldotanddens","equaldotanddens","equaldotanddens","randomdotsizeEA","equaldotsize","equaldotsize","randomdotsizeEA","equaldotanddens","equaldotanddens","equaldotanddens","equaldotsize","equaldotanddens","randomdotsizeEA","equaldotanddens","randomdotsizeEA","equaldotanddens","equaldotanddens","equaldotsize","equaldotsize","equaldotsize","randomdotsizeEA","equaldotsize","equaldotsize","equaldotanddens","equaldotanddens","equaldotsize","equaldotanddens","randomdotsizeEA","equaldotanddens","equaldotsize","randomdotsizeEA","randomdotsizeEA","equaldotsize","equaldotsize","equaldotsize","equaldotanddens","randomdotsizeEA","randomdotsizeEA","equaldotanddens","equaldotanddens","equaldotanddens","randomdotsizeEA","equaldotsize","equaldotanddens","equaldotsize","randomdotsizeEA","equaldotsize","randomdotsizeEA","equaldotsize","randomdotsizeEA","equaldotsize","equaldotanddens","equaldotsize","equaldotsize","equaldotanddens","randomdotsizeEA","equaldotsize","equaldotanddens","equaldotsize","randomdotsizeEA","randomdotsizeEA","equaldotsize","equaldotanddens","equaldotsize","equaldotanddens","randomdotsizeEA","equaldotanddens","randomdotsizeEA","equaldotsize","randomdotsizeEA","equaldotsize","equaldotsize","randomdotsizeEA","equaldotanddens","equaldotanddens","equaldotsize","equaldotsize","randomdotsizeEA","equaldotsize","randomdotsizeEA","randomdotsizeEA","equaldotanddens","equaldotsize"],"ratio_trial":[500,250,750,750,250,250,750,500,250,250,250,500,750,500,900,250,250,900,500,900,500,750,900,500,900,250,500,250,900,750,750,500,900,900,500,750,500,750,750,750,900,500,900,500,900,500,250,500,250,900,250,750,750,900,750,900,750,900,900,900,750,250,750,500,500,900,500,250,750,750,750,250,500,900,750,500,250,250,250,750,750,250,900,750,750,900,250,900,500,250,500,750,500,500,500,500,500,250,750,750,900,900,250,900,900,250,500,750,500,900,750,500,900,900,900,250,250,250,250,250],"smaller_num":["1","3","15","3","4","2","3","4","2","3","2","6","6","6","9","5","3","18","2","18","1","3","18","6","9","4","3","2","18","3","6","2","9","18","2","6","5","3","15","6","18","4","9","5","18","10","3","9","1","9","3","9","12","18","6","18","9","18","18","18","3","3","15","6","1","18","5","2","6","15","15","1","4","18","18","4","6","5","3","6","3","6","18","3","15","18","6","18","5","2","6","15","5","9","3","1","6","2","3","15","18","9","2","18","9","1","5","15","6","18","18","1","18","18","18","2","3","3","2","3"],"larger_num":["2","12","20","4","16","8","4","8","8","12","8","12","8","12","10","20","12","20","4","20","2","4","20","12","10","16","6","8","20","4","8","4","10","20","4","8","10","4","20","8","20","8","10","10","20","20","12","18","4","10","12","12","16","20","8","20","12","20","20","20","4","12","20","12","2","20","10","8","8","20","20","4","8","20","24","8","24","20","12","8","4","24","20","4","20","20","24","20","10","8","12","20","10","18","6","2","12","8","4","20","20","10","8","20","10","4","10","20","12","20","24","2","20","20","20","8","12","12","8","12"],"correct_side":[2,1,2,2,2,2,2,1,1,2,2,1,1,1,1,2,1,1,1,1,2,2,1,1,2,1,2,1,1,1,1,2,2,1,1,1,2,2,2,1,1,1,2,2,1,2,2,2,2,1,2,2,2,2,1,1,2,2,1,1,1,1,2,1,2,1,1,1,1,2,2,2,1,2,1,1,1,2,1,2,2,1,2,1,2,1,1,2,2,2,1,1,2,1,2,2,1,1,2,1,1,2,1,2,2,2,1,1,1,1,1,2,1,1,2,1,1,2,2,2],"img_shown":["img/500/randomdotsizeEA/R/15_Ratio_500_L_1_R_2.png","img/250/equaldotanddens/L/15_Ratio_250_L_12_R_3.png","img/750/randomdotsizeEA/R/5_Ratio_750_L_15_R_20.png","img/750/randomdotsizeEA/R/12_Ratio_750_L_3_R_4.png","img/250/equaldotanddens/R/10_Ratio_250_L_4_R_16.png","img/250/equaldotanddens/R/13_Ratio_250_L_2_R_8.png","img/750/randomdotsizeEA/R/7_Ratio_750_L_3_R_4.png","img/500/randomdotsizeEA/L/8_Ratio_500_L_8_R_4.png","img/250/equaldotsize/L/1_Ratio_250_L_8_R_2.png","img/250/randomdotsizeEA/R/9_Ratio_250_L_3_R_12.png","img/250/equaldotsize/R/13_Ratio_250_L_2_R_8.png","img/500/randomdotsizeEA/L/13_Ratio_500_L_12_R_6.png","img/750/randomdotsizeEA/L/14_Ratio_750_L_8_R_6.png","img/500/equaldotsize/L/11_Ratio_500_L_12_R_6.png","img/900/equaldotanddens/L/1_Ratio_900_L_10_R_9.png","img/250/equaldotsize/R/12_Ratio_250_L_5_R_20.png","img/250/equaldotsize/L/15_Ratio_250_L_12_R_3.png","img/900/randomdotsizeEA/L/2_Ratio_900_L_20_R_18.png","img/500/equaldotsize/L/10_Ratio_500_L_4_R_2.png","img/900/equaldotanddens/L/8_Ratio_900_L_20_R_18.png","img/500/randomdotsizeEA/R/15_Ratio_500_L_1_R_2.png","img/750/equaldotsize/R/12_Ratio_750_L_3_R_4.png","img/900/equaldotanddens/L/2_Ratio_900_L_20_R_18.png","img/500/equaldotanddens/L/11_Ratio_500_L_12_R_6.png","img/900/equaldotanddens/R/15_Ratio_900_L_9_R_10.png","img/250/randomdotsizeEA/L/2_Ratio_250_L_16_R_4.png","img/500/equaldotsize/R/2_Ratio_500_L_3_R_6.png","img/250/randomdotsizeEA/L/3_Ratio_250_L_8_R_2.png","img/900/equaldotanddens/L/8_Ratio_900_L_20_R_18.png","img/750/randomdotsizeEA/L/10_Ratio_750_L_4_R_3.png","img/750/equaldotanddens/L/14_Ratio_750_L_8_R_6.png","img/500/equaldotanddens/R/9_Ratio_500_L_2_R_4.png","img/900/randomdotsizeEA/R/3_Ratio_900_L_9_R_10.png","img/900/equaldotsize/L/2_Ratio_900_L_20_R_18.png","img/500/randomdotsizeEA/L/5_Ratio_500_L_4_R_2.png","img/750/randomdotsizeEA/L/13_Ratio_750_L_8_R_6.png","img/500/equaldotanddens/R/14_Ratio_500_L_5_R_10.png","img/750/equaldotanddens/R/7_Ratio_750_L_3_R_4.png","img/750/equaldotanddens/R/3_Ratio_750_L_15_R_20.png","img/750/equaldotanddens/L/14_Ratio_750_L_8_R_6.png","img/900/randomdotsizeEA/L/10_Ratio_900_L_20_R_18.png","img/500/equaldotsize/L/8_Ratio_500_L_8_R_4.png","img/900/equaldotsize/R/5_Ratio_900_L_9_R_10.png","img/500/randomdotsizeEA/R/14_Ratio_500_L_5_R_10.png","img/900/equaldotanddens/L/4_Ratio_900_L_20_R_18.png","img/500/equaldotanddens/R/3_Ratio_500_L_10_R_20.png","img/250/equaldotanddens/R/9_Ratio_250_L_3_R_12.png","img/500/equaldotsize/R/1_Ratio_500_L_9_R_18.png","img/250/equaldotanddens/R/8_Ratio_250_L_1_R_4.png","img/900/randomdotsizeEA/L/1_Ratio_900_L_10_R_9.png","img/250/equaldotanddens/R/4_Ratio_250_L_3_R_12.png","img/750/randomdotsizeEA/R/15_Ratio_750_L_9_R_12.png","img/750/equaldotanddens/R/11_Ratio_750_L_12_R_16.png","img/900/equaldotanddens/R/11_Ratio_900_L_18_R_20.png","img/750/equaldotsize/L/14_Ratio_750_L_8_R_6.png","img/900/equaldotsize/L/4_Ratio_900_L_20_R_18.png","img/750/equaldotsize/R/15_Ratio_750_L_9_R_12.png","img/900/randomdotsizeEA/R/9_Ratio_900_L_18_R_20.png","img/900/equaldotsize/L/2_Ratio_900_L_20_R_18.png","img/900/equaldotsize/L/8_Ratio_900_L_20_R_18.png","img/750/equaldotanddens/L/8_Ratio_750_L_4_R_3.png","img/250/equaldotanddens/L/14_Ratio_250_L_12_R_3.png","img/750/equaldotsize/R/3_Ratio_750_L_15_R_20.png","img/500/equaldotanddens/L/13_Ratio_500_L_12_R_6.png","img/500/randomdotsizeEA/R/15_Ratio_500_L_1_R_2.png","img/900/equaldotanddens/L/2_Ratio_900_L_20_R_18.png","img/500/equaldotsize/L/7_Ratio_500_L_10_R_5.png","img/250/randomdotsizeEA/L/7_Ratio_250_L_8_R_2.png","img/750/randomdotsizeEA/L/13_Ratio_750_L_8_R_6.png","img/750/equaldotsize/R/5_Ratio_750_L_15_R_20.png","img/750/equaldotsize/R/3_Ratio_750_L_15_R_20.png","img/250/equaldotsize/R/8_Ratio_250_L_1_R_4.png","img/500/equaldotanddens/L/8_Ratio_500_L_8_R_4.png","img/900/randomdotsizeEA/R/12_Ratio_900_L_18_R_20.png","img/750/randomdotsizeEA/L/6_Ratio_750_L_24_R_18.png","img/500/equaldotanddens/L/8_Ratio_500_L_8_R_4.png","img/250/equaldotanddens/L/5_Ratio_250_L_24_R_6.png","img/250/equaldotanddens/R/12_Ratio_250_L_5_R_20.png","img/250/randomdotsizeEA/L/15_Ratio_250_L_12_R_3.png","img/750/equaldotsize/R/2_Ratio_750_L_6_R_8.png","img/750/equaldotanddens/R/12_Ratio_750_L_3_R_4.png","img/250/equaldotsize/L/5_Ratio_250_L_24_R_6.png","img/900/randomdotsizeEA/R/13_Ratio_900_L_18_R_20.png","img/750/equaldotsize/L/10_Ratio_750_L_4_R_3.png","img/750/randomdotsizeEA/R/3_Ratio_750_L_15_R_20.png","img/900/equaldotsize/L/4_Ratio_900_L_20_R_18.png","img/250/randomdotsizeEA/L/5_Ratio_250_L_24_R_6.png","img/900/equaldotsize/R/12_Ratio_900_L_18_R_20.png","img/500/equaldotanddens/R/14_Ratio_500_L_5_R_10.png","img/250/equaldotsize/R/13_Ratio_250_L_2_R_8.png","img/500/equaldotsize/L/13_Ratio_500_L_12_R_6.png","img/750/equaldotanddens/L/1_Ratio_750_L_20_R_15.png","img/500/randomdotsizeEA/R/14_Ratio_500_L_5_R_10.png","img/500/equaldotsize/L/4_Ratio_500_L_18_R_9.png","img/500/equaldotanddens/R/2_Ratio_500_L_3_R_6.png","img/500/equaldotsize/R/12_Ratio_500_L_1_R_2.png","img/500/randomdotsizeEA/L/13_Ratio_500_L_12_R_6.png","img/250/randomdotsizeEA/L/3_Ratio_250_L_8_R_2.png","img/750/equaldotsize/R/7_Ratio_750_L_3_R_4.png","img/750/equaldotanddens/L/1_Ratio_750_L_20_R_15.png","img/900/equaldotsize/L/4_Ratio_900_L_20_R_18.png","img/900/equaldotanddens/R/3_Ratio_900_L_9_R_10.png","img/250/randomdotsizeEA/L/7_Ratio_250_L_8_R_2.png","img/900/equaldotanddens/R/13_Ratio_900_L_18_R_20.png","img/900/randomdotsizeEA/R/15_Ratio_900_L_9_R_10.png","img/250/equaldotsize/R/8_Ratio_250_L_1_R_4.png","img/500/randomdotsizeEA/L/7_Ratio_500_L_10_R_5.png","img/750/equaldotsize/L/1_Ratio_750_L_20_R_15.png","img/500/equaldotsize/L/11_Ratio_500_L_12_R_6.png","img/900/randomdotsizeEA/L/4_Ratio_900_L_20_R_18.png","img/750/equaldotanddens/L/6_Ratio_750_L_24_R_18.png","img/500/equaldotanddens/R/12_Ratio_500_L_1_R_2.png","img/900/equaldotsize/L/8_Ratio_900_L_20_R_18.png","img/900/equaldotsize/L/4_Ratio_900_L_20_R_18.png","img/900/randomdotsizeEA/R/11_Ratio_900_L_18_R_20.png","img/250/equaldotsize/L/7_Ratio_250_L_8_R_2.png","img/250/randomdotsizeEA/L/14_Ratio_250_L_12_R_3.png","img/250/randomdotsizeEA/R/11_Ratio_250_L_3_R_12.png","img/250/equaldotanddens/R/13_Ratio_250_L_2_R_8.png","img/250/equaldotsize/R/11_Ratio_250_L_3_R_12.png"],"Rat0":[["12_Ratio_0_L_9_R_0.png","13_Ratio_0_L_6_R_0.png","5_Ratio_0_L_2_R_0.png","6_Ratio_0_L_4_R_0.png","8_Ratio_0_L_6_R_0.png"],["1_Ratio_0_L_0_R_17.png","10_Ratio_0_L_0_R_22.png","11_Ratio_0_L_0_R_1.png","14_Ratio_0_L_0_R_24.png","15_Ratio_0_L_0_R_4.png","2_Ratio_0_L_0_R_5.png","3_Ratio_0_L_0_R_17.png","4_Ratio_0_L_0_R_7.png","7_Ratio_0_L_0_R_19.png","9_Ratio_0_L_0_R_15.png"]],"Rat250":[["1_Ratio_250_L_8_R_2.png","14_Ratio_250_L_12_R_3.png","15_Ratio_250_L_12_R_3.png","2_Ratio_250_L_16_R_4.png","3_Ratio_250_L_8_R_2.png","5_Ratio_250_L_24_R_6.png","7_Ratio_250_L_8_R_2.png"],["10_Ratio_250_L_4_R_16.png","11_Ratio_250_L_3_R_12.png","12_Ratio_250_L_5_R_20.png","13_Ratio_250_L_2_R_8.png","4_Ratio_250_L_3_R_12.png","6_Ratio_250_L_6_R_24.png","8_Ratio_250_L_1_R_4.png","9_Ratio_250_L_3_R_12.png"]],"Rat500":[["10_Ratio_500_L_4_R_2.png","11_Ratio_500_L_12_R_6.png","13_Ratio_500_L_12_R_6.png","4_Ratio_500_L_18_R_9.png","5_Ratio_500_L_4_R_2.png","7_Ratio_500_L_10_R_5.png","8_Ratio_500_L_8_R_4.png"],["1_Ratio_500_L_9_R_18.png","12_Ratio_500_L_1_R_2.png","14_Ratio_500_L_5_R_10.png","15_Ratio_500_L_1_R_2.png","2_Ratio_500_L_3_R_6.png","3_Ratio_500_L_10_R_20.png","6_Ratio_500_L_9_R_18.png","9_Ratio_500_L_2_R_4.png"]],"Rat750":[["1_Ratio_750_L_20_R_15.png","10_Ratio_750_L_4_R_3.png","13_Ratio_750_L_8_R_6.png","14_Ratio_750_L_8_R_6.png","6_Ratio_750_L_24_R_18.png","8_Ratio_750_L_4_R_3.png","9_Ratio_750_L_4_R_3.png"],["11_Ratio_750_L_12_R_16.png","12_Ratio_750_L_3_R_4.png","15_Ratio_750_L_9_R_12.png","2_Ratio_750_L_6_R_8.png","3_Ratio_750_L_15_R_20.png","4_Ratio_750_L_15_R_20.png","5_Ratio_750_L_15_R_20.png","7_Ratio_750_L_3_R_4.png"]],"Rat900":[["1_Ratio_900_L_10_R_9.png","10_Ratio_900_L_20_R_18.png","2_Ratio_900_L_20_R_18.png","4_Ratio_900_L_20_R_18.png","8_Ratio_900_L_20_R_18.png"],["11_Ratio_900_L_18_R_20.png","12_Ratio_900_L_18_R_20.png","13_Ratio_900_L_18_R_20.png","14_Ratio_900_L_18_R_20.png","15_Ratio_900_L_9_R_10.png","3_Ratio_900_L_9_R_10.png","5_Ratio_900_L_9_R_10.png","6_Ratio_900_L_9_R_10.png","7_Ratio_900_L_9_R_10.png","9_Ratio_900_L_18_R_20.png"]],"Rat1000":[["10_Ratio_1000_L_16_R_16.png","11_Ratio_1000_L_6_R_6.png","12_Ratio_1000_L_14_R_14.png","13_Ratio_1000_L_20_R_20.png","15_Ratio_1000_L_15_R_15.png","2_Ratio_1000_L_17_R_17.png","4_Ratio_1000_L_9_R_9.png","5_Ratio_1000_L_6_R_6.png","6_Ratio_1000_L_19_R_19.png","8_Ratio_1000_L_14_R_14.png","9_Ratio_1000_L_25_R_25.png"],["1_Ratio_1000_L_1_R_1.png","14_Ratio_1000_L_17_R_17.png","3_Ratio_1000_L_17_R_17.png","7_Ratio_1000_L_6_R_6.png"]]}},{"start_time":1552309304375,"click_time":1552309305621,"finger_time":1552309305101,"fix_duration":1450.9277583283153,"trial":1,"RT":726,"MT":520,"sideResp":1,"stimulus":"img/250/equaldotanddens/L/15_Ratio_250_L_12_R_3.png","xmouse":[749,749,754,754,764,766,769,773,775,776,776,776,776,776,776,776,776,776,776,776,776,776,776,776,776,776,776,776,776,776,776,776,776,776,774,754,734,714,696,679,675,672,671,668,658,649,642,636,630,615,602,586,569,555,514,493,474,465,460,459,459,459,459],"ymouse":[551,551,551,551,545,543,539,535,533,530,530,530,530,530,530,530,530,530,530,530,530,530,530,530,530,530,530,530,530,530,530,530,530,530,530,530,530,523,520,518,516,511,499,484,445,405,378,355,335,294,272,251,232,216,180,164,149,138,127,112,105,101,98],"timestamp_mouse":[10,26,52,67,86,107,126,147,166,186,207,227,247,266,286,306,326,346,368,387,407,427,447,466,487,506,526,547,566,586,606,627,647,666,686,707,726,746,766,786,806,827,846,867,887,906,926,947,966,986,1006,1028,1047,1067,1087,1108,1126,1147,1167,1186,1206,1226,1246],"xSR":741.5,"ySR":469.95,"xT1":424.9,"yT1":0,"xT2":1058.1,"yT2":0,"toosoon":0,"cond_shown":"equaldotanddens","ratio_trial":250,"smaller_num":"3","larger_num":"12","correct_side":1,"subjID":"gabrielpizzamendez6","gender":"0","age":"9","school":"4"},{"start_time":1552309307452,"click_time":1552309308822,"finger_time":1552309308461,"fix_duration":768.672737184352,"trial":2,"RT":1009,"MT":361,"sideResp":2,"stimulus":"img/750/randomdotsizeEA/R/5_Ratio_750_L_15_R_20.png","xmouse":[760,760,756,756,753,752,752,752,752,752,752,752,752,752,752,752,752,752,752,752,752,752,752,752,752,752,752,752,752,752,752,752,752,752,752,752,752,752,752,752,752,752,752,752,752,752,752,757,769,815,972,1024,1073,1101,1125,1152,1160,1166,1169,1171,1173,1172,1170,1167,1163,1157,1155,1155,1153],"ymouse":[561,561,561,561,561,561,561,561,561,561,561,561,561,561,561,561,561,561,561,561,561,561,561,561,561,561,561,561,561,561,561,561,561,561,561,561,561,561,561,561,561,561,561,561,561,561,561,559,547,495,364,316,268,236,205,166,153,145,137,131,122,120,119,117,115,110,107,102,96],"timestamp_mouse":[24,30,61,70,91,110,129,151,170,189,210,230,249,270,289,309,330,349,370,389,411,430,450,469,489,510,529,549,570,589,609,630,649,669,689,709,731,750,770,790,809,831,849,870,890,910,930,950,969,990,1009,1029,1049,1070,1090,1109,1129,1150,1169,1190,1209,1229,1249,1269,1289,1310,1329,1350,1370],"xSR":741.5,"ySR":469.95,"xT1":424.9,"yT1":0,"xT2":1058.1,"yT2":0,"toosoon":0,"cond_shown":"randomdotsizeEA","ratio_trial":750,"smaller_num":"15","larger_num":"20","correct_side":2,"subjID":"gabrielpizzamendez6","gender":"0","age":"9","school":"4"},{"start_time":1552309309913,"click_time":1552309312262,"finger_time":1552309311861,"fix_duration":250,"trial":3,"RT":1948,"MT":401,"sideResp":1,"stimulus":"img/750/randomdotsizeEA/R/12_Ratio_750_L_3_R_4.png","xmouse":[781,781,781,781,781,780,779,777,773,770,767,765,763,763,763,763,763,763,763,763,763,763,763,763,763,763,763,763,763,763,763,763,763,763,763,763,763,763,763,763,763,763,763,763,763,763,763,763,763,763,763,764,767,769,772,775,778,781,782,782,783,783,784,785,785,785,786,786,787,789,790,790,791,792,792,792,792,792,792,792,792,793,794,794,794,794,795,795,795,797,797,797,797,797,791,786,779,768,702,647,625,611,600,597,594,590,586,579,576,569,561,551,542,522,511,503,498,490],"ymouse":[529,529,529,529,529,530,531,533,536,538,541,542,544,544,544,544,544,544,544,544,544,544,544,544,544,544,544,544,544,544,544,544,544,544,544,544,544,544,544,544,544,544,544,544,544,544,544,544,544,544,544,544,544,544,544,544,543,543,543,543,542,541,541,540,540,539,539,537,537,534,532,531,531,530,529,529,529,529,529,529,529,528,527,526,526,525,524,524,522,519,518,517,515,512,506,497,480,457,379,327,305,288,270,264,257,250,242,231,225,213,199,184,170,137,121,110,103,95],"timestamp_mouse":[10,39,49,70,90,109,128,148,169,188,209,228,249,270,288,309,330,348,368,390,408,429,448,469,488,508,529,548,569,589,609,628,648,669,689,709,729,748,770,788,809,829,850,870,889,908,929,948,969,989,1009,1029,1048,1068,1089,1108,1130,1148,1169,1188,1209,1229,1249,1268,1288,1309,1330,1348,1368,1389,1409,1428,1448,1470,1488,1510,1528,1548,1568,1589,1609,1629,1649,1668,1689,1709,1729,1748,1768,1788,1808,1830,1848,1868,1888,1908,1928,1948,1969,1988,2009,2028,2049,2068,2089,2108,2128,2149,2168,2188,2209,2228,2248,2268,2289,2309,2329,2349],"xSR":741.5,"ySR":469.95,"xT1":424.9,"yT1":0,"xT2":1058.1,"yT2":0,"toosoon":0,"cond_shown":"randomdotsizeEA","ratio_trial":750,"smaller_num":"3","larger_num":"4","correct_side":2,"subjID":"gabrielpizzamendez6","gender":"0","age":"9","school":"4"},{"start_time":1552309315273,"click_time":1552309316081,"finger_time":1552309315861,"fix_duration":250,"trial":4,"RT":588,"MT":220,"sideResp":2,"stimulus":"img/250/equaldotanddens/R/10_Ratio_250_L_4_R_16.png","xmouse":[772,772,772,772,772,772,772,772,772,772,772,772,772,772,772,772,772,772,772,772,772,772,772,772,772,774,781,795,815,899,934,968,997,1022,1052,1063,1071,1078,1082,1099,1104],"ymouse":[529,529,529,529,529,529,529,529,529,529,529,529,529,529,529,529,529,529,529,529,529,529,529,529,529,529,526,516,503,432,399,352,304,257,201,183,168,154,143,104,88],"timestamp_mouse":[12,28,48,68,88,110,128,148,168,190,209,228,250,268,288,309,329,348,368,390,409,429,448,469,489,508,528,549,569,588,608,628,648,668,689,708,728,748,768,789,808],"xSR":741.5,"ySR":469.95,"xT1":424.9,"yT1":0,"xT2":1058.1,"yT2":0,"toosoon":0,"cond_shown":"equaldotanddens","ratio_trial":250,"smaller_num":"4","larger_num":"16","correct_side":2,"subjID":"gabrielpizzamendez6","gender":"0","age":"9","school":"4"},{"start_time":1552309317156,"click_time":1552309318101,"finger_time":1552309317741,"fix_duration":452.82162627564804,"trial":5,"RT":585,"MT":360,"sideResp":2,"stimulus":"img/250/equaldotanddens/R/13_Ratio_250_L_2_R_8.png","xmouse":[774,774,774,774,774,774,774,774,774,774,774,774,774,774,774,774,774,774,774,774,774,774,774,774,774,775,785,794,808,834,897,935,956,969,979,992,1002,1006,1011,1015,1025,1035,1044,1049,1051,1057,1061,1067],"ymouse":[527,527,527,527,527,527,527,527,527,527,527,527,527,527,527,527,527,527,527,527,527,527,527,527,527,527,521,513,497,466,398,357,333,312,292,250,217,200,185,171,139,122,109,105,105,102,101,98],"timestamp_mouse":[6,34,47,65,86,106,125,146,166,185,206,225,245,267,285,305,327,346,366,386,406,425,446,467,486,505,525,546,566,585,606,625,646,666,685,706,725,745,766,785,806,825,845,865,886,905,927,945],"xSR":741.5,"ySR":469.95,"xT1":424.9,"yT1":0,"xT2":1058.1,"yT2":0,"toosoon":0,"cond_shown":"equaldotanddens","ratio_trial":250,"smaller_num":"2","larger_num":"8","correct_side":2,"subjID":"gabrielpizzamendez6","gender":"0","age":"9","school":"4"},{"start_time":1552309320181,"click_time":1552309321602,"finger_time":1552309321001,"fix_duration":1358.0794353266724,"trial":6,"RT":820,"MT":601,"sideResp":1,"stimulus":"img/750/randomdotsizeEA/R/7_Ratio_750_L_3_R_4.png","xmouse":[797,797,797,797,797,797,798,798,799,802,804,807,808,809,809,809,809,806,804,804,804,804,804,804,805,805,804,802,800,797,796,793,787,779,763,762,762,762,762,761,758,752,745,730,699,687,683,678,671,653,644,635,624,609,572,543,525,510,504,502,501,500,498,496,496,496,496,496,496,496,494,484],"ymouse":[531,529,529,529,529,529,528,526,524,512,508,503,501,500,500,500,500,500,501,501,502,501,500,498,498,498,499,501,501,502,502,502,500,493,478,476,475,475,475,473,470,464,458,445,407,371,348,327,309,279,269,259,252,242,215,193,179,170,167,165,163,158,147,133,122,110,110,109,109,109,104,95],"timestamp_mouse":[1,21,49,61,80,100,120,141,160,180,201,220,240,261,281,300,322,340,360,382,400,420,440,461,482,501,520,540,561,581,600,621,641,660,680,700,721,741,761,780,800,820,840,860,881,901,920,941,961,980,1002,1022,1041,1061,1081,1100,1120,1140,1160,1181,1200,1220,1241,1260,1280,1301,1320,1340,1360,1380,1400,1421],"xSR":741.5,"ySR":469.95,"xT1":424.9,"yT1":0,"xT2":1058.1,"yT2":0,"toosoon":0,"cond_shown":"randomdotsizeEA","ratio_trial":750,"smaller_num":"3","larger_num":"4","correct_side":2,"subjID":"gabrielpizzamendez6","gender":"0","age":"9","school":"4"},{"start_time":1552309326354,"click_time":1552309328222,"finger_time":1552309327581,"fix_duration":1050.0760027982856,"trial":7,"RT":1227,"MT":641,"sideResp":1,"stimulus":"img/500/randomdotsizeEA/L/8_Ratio_500_L_8_R_4.png","xmouse":[756,756,756,756,756,756,756,756,756,756,756,756,756,756,756,756,756,756,756,756,756,756,756,756,756,756,756,756,756,756,756,756,756,756,756,756,756,756,756,756,756,756,756,756,756,756,756,756,756,756,756,756,756,756,756,756,756,756,756,753,745,740,734,728,722,716,691,679,664,650,619,603,588,576,565,548,539,532,527,522,512,504,494,489,486,486,486,486,487,487,488,490,490,490],"ymouse":[539,539,539,539,539,539,539,539,539,539,539,539,539,539,539,539,539,539,539,539,539,539,539,539,539,539,539,539,539,539,539,539,539,539,539,539,539,539,539,539,539,539,539,539,539,539,539,539,539,539,539,539,539,538,538,535,533,530,526,522,510,503,494,484,472,455,405,386,366,348,311,291,269,242,220,186,163,153,144,139,132,129,123,119,117,116,115,113,111,111,108,103,100,96],"timestamp_mouse":[9,28,48,67,87,107,129,148,168,188,208,227,247,268,287,308,328,348,367,388,408,427,448,468,488,508,528,548,569,589,608,628,648,667,687,708,728,747,768,787,807,828,847,869,888,909,928,948,969,988,1009,1027,1048,1068,1088,1107,1128,1147,1168,1187,1207,1227,1248,1268,1287,1307,1327,1347,1367,1387,1408,1427,1447,1468,1489,1508,1527,1547,1567,1587,1607,1627,1647,1667,1688,1708,1728,1747,1767,1787,1808,1827,1847,1868],"xSR":741.5,"ySR":469.95,"xT1":424.9,"yT1":0,"xT2":1058.1,"yT2":0,"toosoon":0,"cond_shown":"randomdotsizeEA","ratio_trial":500,"smaller_num":"4","larger_num":"8","correct_side":1,"subjID":"gabrielpizzamendez6","gender":"0","age":"9","school":"4"},{"start_time":1552309331810,"click_time":1552309332721,"finger_time":1552309332461,"fix_duration":946.5008967200299,"trial":8,"RT":651,"MT":260,"sideResp":1,"stimulus":"img/250/equaldotsize/L/1_Ratio_250_L_8_R_2.png","xmouse":[796,796,796,796,796,796,796,795,795,795,795,795,795,795,795,795,795,795,795,795,795,795,794,792,791,791,791,791,791,784,780,761,694,667,648,640,638,638,629,622,612,598,570,547,534,522],"ymouse":[539,539,539,539,539,539,539,539,539,539,539,539,539,539,539,539,539,539,539,539,539,539,540,540,540,540,540,540,540,539,535,520,442,385,320,265,240,225,198,181,162,138,93,65,55,47],"timestamp_mouse":[11,33,56,73,92,111,132,152,173,192,211,231,251,272,291,312,331,351,372,391,412,433,451,472,492,511,531,551,571,592,611,632,651,671,691,712,731,751,771,791,812,833,852,872,891,911],"xSR":741.5,"ySR":469.95,"xT1":424.9,"yT1":0,"xT2":1058.1,"yT2":0,"toosoon":0,"cond_shown":"equaldotsize","ratio_trial":250,"smaller_num":"2","larger_num":"8","correct_side":1,"subjID":"gabrielpizzamendez6","gender":"0","age":"9","school":"4"},{"start_time":1552309333687,"click_time":1552309334819,"finger_time":1552309334359,"fix_duration":326.0457831704595,"trial":9,"RT":672,"MT":460,"sideResp":2,"stimulus":"img/250/randomdotsizeEA/R/9_Ratio_250_L_3_R_12.png","xmouse":[780,780,780,780,781,781,781,781,781,783,783,783,784,784,784,784,785,785,785,785,785,785,785,785,785,785,785,785,785,785,788,793,807,846,881,933,985,1027,1060,1100,1111,1123,1135,1154,1165,1169,1169,1169,1169,1169,1169,1169,1169,1169,1169,1158,1155],"ymouse":[535,535,535,532,532,532,532,531,529,527,526,526,525,525,524,524,523,523,523,523,523,523,523,523,523,523,523,523,523,523,521,515,506,474,445,394,337,286,256,227,218,207,191,144,99,48,10,10,10,10,10,10,10,10,10,0,17],"timestamp_mouse":[14,47,53,72,94,114,132,154,172,193,212,232,253,272,293,312,333,353,374,392,413,434,454,473,493,513,533,553,572,594,613,633,652,672,692,712,732,752,772,793,813,833,853,873,892,912,933,952,973,992,1012,1032,1052,1073,1092,1112,1132],"xSR":741.5,"ySR":469.95,"xT1":424.9,"yT1":0,"xT2":1058.1,"yT2":0,"toosoon":0,"cond_shown":"randomdotsizeEA","ratio_trial":250,"smaller_num":"3","larger_num":"12","correct_side":2,"subjID":"gabrielpizzamendez6","gender":"0","age":"9","school":"4"},{"start_time":1552309336146,"click_time":1552309337039,"finger_time":1552309336840,"fix_duration":585.4318070499357,"trial":10,"RT":694,"MT":199,"sideResp":2,"stimulus":"img/250/equaldotsize/R/13_Ratio_250_L_2_R_8.png","xmouse":[793,793,793,793,793,793,793,793,793,793,793,793,793,793,793,793,793,793,793,793,793,793,793,793,793,793,793,793,793,793,793,797,799,812,831,971,1029,1073,1104,1118,1140,1144,1148,1151,1153],"ymouse":[501,501,501,501,501,501,501,501,501,501,501,501,501,501,501,501,501,501,501,501,501,501,501,501,501,501,501,501,501,501,501,499,496,483,466,363,315,269,227,199,152,133,118,107,90],"timestamp_mouse":[14,38,55,74,93,114,133,153,173,194,214,233,254,273,294,313,334,353,373,393,414,433,454,474,493,513,533,555,574,594,614,633,653,674,694,714,734,753,773,794,813,834,854,874,893],"xSR":741.5,"ySR":469.95,"xT1":424.9,"yT1":0,"xT2":1058.1,"yT2":0,"toosoon":0,"cond_shown":"equaldotsize","ratio_trial":250,"smaller_num":"2","larger_num":"8","correct_side":2,"subjID":"gabrielpizzamendez6","gender":"0","age":"9","school":"4"},{"start_time":1552309338287,"click_time":1552309339299,"finger_time":1552309339059,"fix_duration":326.92147292862415,"trial":11,"RT":772,"MT":240,"sideResp":1,"stimulus":"img/500/randomdotsizeEA/L/13_Ratio_500_L_12_R_6.png","xmouse":[781,782,783,785,785,786,786,786,786,786,786,786,786,786,786,786,786,786,786,786,786,786,786,786,786,786,786,786,786,786,786,786,786,786,785,784,781,780,772,766,758,747,727,670,638,612,592,574,541,524,488],"ymouse":[496,496,494,492,491,490,490,490,490,490,490,490,490,490,490,490,490,490,490,490,490,490,490,490,490,490,490,490,490,490,490,490,487,486,484,479,474,470,454,444,429,408,375,293,253,221,195,170,125,102,61],"timestamp_mouse":[13,33,53,73,92,113,132,152,172,192,213,232,253,273,293,312,332,354,373,393,413,434,454,473,493,512,533,552,574,593,612,632,652,672,693,712,732,752,772,794,812,832,852,873,892,912,932,953,973,993,1012],"xSR":741.5,"ySR":469.95,"xT1":424.9,"yT1":0,"xT2":1058.1,"yT2":0,"toosoon":0,"cond_shown":"randomdotsizeEA","ratio_trial":500,"smaller_num":"6","larger_num":"12","correct_side":1,"subjID":"gabrielpizzamendez6","gender":"0","age":"9","school":"4"},{"start_time":1552309340616,"click_time":1552309342019,"finger_time":1552309341580,"fix_duration":354.01268137230926,"trial":12,"RT":964,"MT":439,"sideResp":2,"stimulus":"img/750/randomdotsizeEA/L/14_Ratio_750_L_8_R_6.png","xmouse":[763,763,763,763,763,763,763,763,763,763,763,763,763,763,763,763,763,763,763,763,763,763,763,763,763,763,763,763,763,763,763,763,763,763,762,762,762,762,762,762,762,762,762,762,762,762,763,769,812,843,897,958,1066,1091,1109,1124,1136,1157,1169,1180,1190,1198,1204,1203,1202,1202,1202,1189,1177,1164,1148],"ymouse":[497,497,497,497,497,497,497,497,497,497,497,497,497,497,497,497,497,497,497,497,497,497,497,497,497,497,496,496,495,495,494,494,493,493,490,490,490,489,489,489,489,489,489,489,488,486,481,473,428,402,364,320,238,217,194,174,155,121,101,83,63,44,8,3,1,1,1,5,17,28,46],"timestamp_mouse":[10,23,43,65,85,103,124,144,165,184,204,224,245,265,284,303,324,343,363,385,404,423,443,464,483,503,523,544,565,584,604,623,643,663,683,704,725,743,763,784,803,823,843,864,883,904,923,943,964,985,1005,1024,1044,1063,1083,1104,1123,1143,1163,1183,1204,1224,1243,1264,1283,1303,1323,1344,1363,1383,1403],"xSR":741.5,"ySR":469.95,"xT1":424.9,"yT1":0,"xT2":1058.1,"yT2":0,"toosoon":0,"cond_shown":"randomdotsizeEA","ratio_trial":750,"smaller_num":"6","larger_num":"8","correct_side":1,"subjID":"gabrielpizzamendez6","gender":"0","age":"9","school":"4"},{"start_time":1552309343446,"click_time":1552309344399,"finger_time":1552309344121,"fix_duration":565.4143848493237,"trial":13,"RT":675,"MT":278,"sideResp":1,"stimulus":"img/500/equaldotsize/L/11_Ratio_500_L_12_R_6.png","xmouse":[763,763,763,761,760,759,759,759,759,759,759,759,759,759,759,759,759,759,759,759,759,759,759,759,759,759,758,756,755,754,751,747,742,730,716,681,662,645,628,613,593,567,550,533,517,483,471,459],"ymouse":[491,491,491,494,495,496,496,496,496,496,496,496,496,496,496,496,496,496,496,495,495,495,495,495,495,494,492,490,489,488,484,481,477,466,446,375,347,328,310,295,271,238,218,197,176,133,114,90],"timestamp_mouse":[21,48,53,74,94,114,134,154,174,194,213,234,254,273,294,313,335,353,373,393,414,434,454,475,494,514,533,555,575,593,613,634,653,675,694,713,733,753,773,794,813,833,853,874,893,913,933,953],"xSR":741.5,"ySR":469.95,"xT1":424.9,"yT1":0,"xT2":1058.1,"yT2":0,"toosoon":0,"cond_shown":"equaldotsize","ratio_trial":500,"smaller_num":"6","larger_num":"12","correct_side":1,"subjID":"gabrielpizzamendez6","gender":"0","age":"9","school":"4"},{"start_time":1552309346235,"click_time":1552309347500,"finger_time":1552309347081,"fix_duration":1154.4861670887249,"trial":14,"RT":846,"MT":419,"sideResp":2,"stimulus":"img/900/equaldotanddens/L/1_Ratio_900_L_10_R_9.png","xmouse":[772,772,772,772,772,772,772,772,772,772,772,772,772,772,772,772,772,772,772,772,772,772,772,772,772,773,773,773,773,774,775,775,775,775,775,776,778,785,789,791,794,827,853,882,901,914,930,938,944,948,956,969,978,986,986,986,986,986,986,986,986,986,986,1071],"ymouse":[528,528,528,528,528,528,528,528,528,528,528,528,528,528,528,528,528,528,528,528,528,528,528,528,528,528,528,528,528,527,527,527,526,526,526,526,526,522,519,518,513,475,443,408,385,366,330,301,263,225,181,88,34,6,6,6,6,6,6,6,6,6,6,6],"timestamp_mouse":[11,34,44,65,84,104,125,146,166,186,204,224,245,264,286,305,326,345,365,384,404,426,446,465,484,505,524,546,565,585,605,625,645,665,685,704,724,744,765,785,805,824,846,864,884,904,925,944,965,984,1006,1025,1044,1065,1084,1104,1124,1145,1164,1184,1204,1224,1244,1265],"xSR":741.5,"ySR":469.95,"xT1":424.9,"yT1":0,"xT2":1058.1,"yT2":0,"toosoon":0,"cond_shown":"equaldotanddens","ratio_trial":900,"smaller_num":"9","larger_num":"10","correct_side":1,"subjID":"gabrielpizzamendez6","gender":"0","age":"9","school":"4"},{"start_time":1552309349259,"click_time":1552309350460,"finger_time":1552309349939,"fix_duration":1038.9307878599743,"trial":15,"RT":680,"MT":521,"sideResp":2,"stimulus":"img/250/equaldotsize/R/12_Ratio_250_L_5_R_20.png","xmouse":[799,799,799,799,799,799,799,799,799,799,799,799,799,799,799,799,799,799,799,799,799,802,803,804,805,805,805,805,805,805,806,808,816,835,868,999,1062,1112,1152,1180,1220,1225,1229,1231,1231,1231,1229,1227,1226,1225,1223,1221,1218,1216,1214,1206,1201,1196,1186,1173,1135],"ymouse":[493,493,493,493,493,493,493,493,493,493,493,493,493,493,493,493,493,493,493,493,494,499,502,503,503,503,503,503,503,503,503,503,502,499,493,438,395,347,295,242,159,143,125,108,91,56,42,34,31,29,29,29,29,29,29,28,27,27,23,19,8],"timestamp_mouse":[4,22,41,60,80,101,122,140,161,182,202,221,241,262,282,300,321,340,360,382,400,420,440,462,480,501,520,540,560,580,601,620,640,661,680,701,720,740,760,780,800,821,840,861,881,901,920,941,960,980,1000,1022,1040,1060,1080,1100,1120,1140,1161,1182,1201],"xSR":741.5,"ySR":469.95,"xT1":424.9,"yT1":0,"xT2":1058.1,"yT2":0,"toosoon":0,"cond_shown":"equaldotsize","ratio_trial":250,"smaller_num":"5","larger_num":"20","correct_side":2,"subjID":"gabrielpizzamendez6","gender":"0","age":"9","school":"4"},{"start_time":1552309351473,"click_time":1552309352500,"finger_time":1552309352160,"fix_duration":291.89806076872594,"trial":16,"RT":687,"MT":340,"sideResp":1,"stimulus":"img/250/equaldotsize/L/15_Ratio_250_L_12_R_3.png","xmouse":[823,823,823,823,823,823,823,823,823,823,823,823,823,823,823,823,823,823,824,824,824,824,824,824,824,824,824,824,824,824,824,819,813,804,785,772,764,753,738,703,675,649,622,601,571,563,558,553,547,531,525,523],"ymouse":[513,513,513,513,513,513,513,513,513,513,513,513,513,513,513,513,513,513,512,512,512,511,511,511,511,511,511,511,511,510,506,500,493,486,468,457,447,436,421,383,350,318,290,273,244,230,213,193,168,114,100,95],"timestamp_mouse":[6,43,47,66,87,107,127,147,167,187,206,227,246,268,287,306,326,347,366,387,406,427,447,467,486,507,527,546,567,587,607,626,647,666,687,707,727,747,766,787,806,826,846,867,886,906,927,948,968,986,1006,1027],"xSR":741.5,"ySR":469.95,"xT1":424.9,"yT1":0,"xT2":1058.1,"yT2":0,"toosoon":0,"cond_shown":"equaldotsize","ratio_trial":250,"smaller_num":"3","larger_num":"12","correct_side":1,"subjID":"gabrielpizzamendez6","gender":"0","age":"9","school":"4"},{"start_time":1552309353494,"click_time":1552309354579,"finger_time":1552309354219,"fix_duration":250,"trial":17,"RT":725,"MT":360,"sideResp":2,"stimulus":"img/900/randomdotsizeEA/L/2_Ratio_900_L_20_R_18.png","xmouse":[823,823,823,823,823,823,823,823,823,823,823,823,823,823,823,823,823,823,823,823,823,823,823,823,823,823,823,823,823,823,823,823,823,826,830,836,843,848,870,893,914,933,944,955,957,958,959,964,969,996,1009,1020,1030,1041,1059],"ymouse":[495,495,495,495,495,495,495,495,495,495,495,495,495,495,495,495,495,495,495,495,495,495,495,495,495,495,495,495,495,495,495,495,495,491,487,481,469,460,427,381,341,302,273,233,220,210,200,186,172,131,119,109,102,95,85],"timestamp_mouse":[6,26,45,65,85,105,126,145,165,186,207,225,246,267,285,305,327,347,366,386,405,425,445,465,486,505,527,546,565,586,605,625,645,666,685,705,725,747,766,785,806,827,845,865,886,906,925,946,965,985,1005,1025,1046,1065,1085],"xSR":741.5,"ySR":469.95,"xT1":424.9,"yT1":0,"xT2":1058.1,"yT2":0,"toosoon":0,"cond_shown":"randomdotsizeEA","ratio_trial":900,"smaller_num":"18","larger_num":"20","correct_side":1,"subjID":"gabrielpizzamendez6","gender":"0","age":"9","school":"4"},{"start_time":1552309356483,"click_time":1552309357600,"finger_time":1552309357281,"fix_duration":882.1046448694615,"trial":18,"RT":798,"MT":319,"sideResp":1,"stimulus":"img/500/equaldotsize/L/10_Ratio_500_L_4_R_2.png","xmouse":[779,779,779,779,779,779,779,779,779,779,779,779,779,779,779,779,779,779,779,779,779,779,779,779,779,779,779,779,779,779,779,779,779,779,778,777,776,775,769,762,751,743,732,704,687,673,656,641,600,585,566,548,527,486,460,434],"ymouse":[505,505,505,505,505,505,505,505,505,505,505,505,505,505,505,505,505,505,505,505,505,505,505,505,505,505,505,505,505,505,505,505,505,504,501,499,495,488,474,465,450,440,426,390,371,355,340,326,284,263,240,218,196,155,125,87],"timestamp_mouse":[17,39,56,76,96,117,136,156,176,196,216,237,256,276,297,318,336,356,376,397,416,436,456,477,496,517,537,557,578,597,617,636,658,677,696,716,736,757,777,798,816,836,856,876,897,916,936,956,977,996,1016,1037,1056,1077,1097,1117],"xSR":741.5,"ySR":469.95,"xT1":424.9,"yT1":0,"xT2":1058.1,"yT2":0,"toosoon":0,"cond_shown":"equaldotsize","ratio_trial":500,"smaller_num":"2","larger_num":"4","correct_side":1,"subjID":"gabrielpizzamendez6","gender":"0","age":"9","school":"4"},{"start_time":1552309360664,"click_time":1552309363779,"finger_time":1552309363399,"fix_duration":801.4806955780467,"trial":19,"RT":2735,"MT":380,"sideResp":1,"stimulus":"img/900/equaldotanddens/L/8_Ratio_900_L_20_R_18.png","xmouse":[784,784,784,784,784,784,784,784,784,784,784,784,784,784,784,784,784,784,784,784,784,785,786,786,786,786,786,786,786,786,786,786,786,786,786,786,786,786,786,786,786,787,787,788,789,789,789,789,789,789,789,789,788,786,783,783,783,783,783,783,783,783,783,783,783,783,783,783,783,783,783,783,783,783,783,783,783,783,783,783,783,782,782,782,782,782,782,782,782,782,782,782,782,782,782,782,782,782,782,782,782,782,782,783,783,783,783,784,785,787,789,793,798,805,811,815,815,815,815,815,815,815,815,815,815,815,815,815,815,815,815,815,814,814,812,810,803,795,781,745,730,715,703,688,660,648,640,628,614,573,557,538,519,502,476,467],"ymouse":[552,552,552,552,552,552,552,552,552,552,552,552,552,552,552,552,552,552,552,552,552,551,551,551,551,551,551,551,551,551,551,551,551,551,551,551,551,551,551,551,550,549,548,548,547,547,547,547,547,547,547,547,547,547,547,547,547,547,547,547,547,547,547,547,547,547,547,547,547,547,547,547,547,547,547,547,547,547,547,547,547,547,547,547,547,547,547,547,547,547,547,547,547,547,547,547,547,547,547,547,547,547,547,547,547,547,547,547,547,547,547,545,542,538,535,533,533,533,533,534,534,534,534,534,534,534,534,534,534,533,528,524,519,515,499,484,463,441,420,371,354,336,322,307,287,280,275,266,257,217,197,170,146,126,100,90],"timestamp_mouse":[15,43,55,75,95,117,136,156,176,195,215,237,255,275,296,316,336,356,376,395,416,435,456,477,497,515,536,555,576,597,616,637,657,676,695,715,736,755,775,795,817,837,855,876,896,915,936,956,975,996,1016,1036,1056,1075,1095,1116,1137,1156,1175,1195,1217,1235,1255,1277,1295,1315,1335,1355,1375,1396,1415,1436,1455,1476,1496,1516,1536,1557,1575,1596,1616,1636,1655,1675,1695,1716,1735,1757,1776,1796,1816,1835,1856,1877,1897,1916,1936,1956,1975,1996,2015,2035,2057,2075,2096,2116,2137,2155,2175,2195,2215,2235,2256,2275,2295,2315,2337,2355,2377,2396,2415,2436,2455,2476,2495,2515,2536,2556,2576,2596,2616,2636,2656,2675,2695,2716,2735,2755,2776,2796,2817,2835,2855,2875,2896,2915,2935,2955,2977,2995,3015,3035,3055,3075,3097,3115],"xSR":741.5,"ySR":469.95,"xT1":424.9,"yT1":0,"xT2":1058.1,"yT2":0,"toosoon":0,"cond_shown":"equaldotanddens","ratio_trial":900,"smaller_num":"18","larger_num":"20","correct_side":1,"subjID":"gabrielpizzamendez6","gender":"0","age":"9","school":"4"},{"start_time":1552309367051,"click_time":1552309368580,"finger_time":1552309367779,"fix_duration":1150.5421062781527,"trial":20,"RT":728,"MT":801,"sideResp":2,"stimulus":"img/500/randomdotsizeEA/R/15_Ratio_500_L_1_R_2.png","xmouse":[816,816,816,816,816,816,816,816,816,816,816,816,816,816,816,816,816,816,815,814,813,811,810,809,808,806,804,804,803,802,800,799,798,799,805,826,860,874,889,914,952,969,976,981,986,995,999,1002,1006,1011,1016,1017,1017,1020,1022,1027,1034,1042,1050,1059,1080,1092,1096,1097,1097,1098,1098,1098,1098,1098,1098,1098,1098,1098,1099,1100,1101],"ymouse":[535,535,535,535,535,535,535,535,535,535,535,535,535,535,535,535,535,535,535,535,535,536,537,537,537,535,534,533,532,532,531,530,529,527,523,511,496,485,461,426,358,310,295,282,270,247,233,215,200,183,159,154,150,147,145,138,133,129,124,120,110,106,105,104,104,104,104,104,104,104,104,104,104,104,103,101,98],"timestamp_mouse":[13,42,49,69,89,108,130,149,168,188,210,229,248,268,288,308,330,348,368,390,408,429,449,469,488,508,529,550,568,589,609,629,650,669,688,708,728,749,770,789,809,829,848,869,888,909,928,948,968,989,1009,1029,1048,1068,1089,1108,1128,1149,1168,1188,1208,1230,1248,1269,1289,1309,1329,1349,1369,1389,1410,1430,1450,1470,1489,1508,1528],"xSR":741.5,"ySR":469.95,"xT1":424.9,"yT1":0,"xT2":1058.1,"yT2":0,"toosoon":0,"cond_shown":"randomdotsizeEA","ratio_trial":500,"smaller_num":"1","larger_num":"2","correct_side":2,"subjID":"gabrielpizzamendez6","gender":"0","age":"9","school":"4"},{"start_time":1552309370473,"click_time":1552309372460,"finger_time":1552309372241,"fix_duration":1011.0778072454482,"trial":21,"RT":1768,"MT":219,"sideResp":1,"stimulus":"img/750/equaldotsize/R/12_Ratio_750_L_3_R_4.png","xmouse":[812,812,812,812,812,812,812,812,812,813,813,814,814,814,814,814,814,815,815,815,815,815,815,815,815,817,819,820,821,823,824,824,825,826,827,827,827,827,827,823,823,823,823,823,823,823,823,823,823,823,823,823,823,823,823,823,823,823,823,823,823,822,822,822,824,825,825,825,825,825,825,825,825,826,826,826,826,826,826,826,826,826,826,826,826,827,827,827,823,806,771,726,680,638,582,564,552,544,536,507],"ymouse":[515,515,515,515,515,515,515,515,515,515,515,515,515,515,515,515,515,515,515,515,515,515,515,515,515,515,513,512,511,509,509,508,507,507,506,505,505,505,505,505,505,505,505,505,505,505,505,505,505,505,505,505,505,505,505,505,505,505,505,505,505,505,505,504,503,503,503,503,503,503,503,503,503,502,502,502,502,502,501,499,495,494,494,491,488,484,478,471,455,411,359,305,238,182,124,111,101,93,85,51],"timestamp_mouse":[12,27,46,68,87,106,126,147,168,187,207,226,246,266,287,307,327,346,367,387,407,426,447,466,487,506,526,546,568,586,606,626,648,666,686,708,726,746,766,786,806,827,847,868,887,907,926,947,968,987,1008,1026,1047,1066,1086,1108,1127,1147,1168,1187,1206,1226,1246,1266,1286,1306,1327,1346,1367,1386,1406,1426,1446,1467,1486,1507,1528,1546,1567,1586,1607,1627,1646,1666,1687,1706,1727,1746,1768,1787,1806,1826,1846,1867,1886,1906,1927,1947,1967,1987],"xSR":741.5,"ySR":469.95,"xT1":424.9,"yT1":0,"xT2":1058.1,"yT2":0,"toosoon":0,"cond_shown":"equaldotsize","ratio_trial":750,"smaller_num":"3","larger_num":"4","correct_side":2,"subjID":"gabrielpizzamendez6","gender":"0","age":"9","school":"4"},{"start_time":1552309374677,"click_time":1552309375841,"finger_time":1552309375499,"fix_duration":1496.224807265333,"trial":22,"RT":822,"MT":342,"sideResp":1,"stimulus":"img/900/equaldotanddens/L/2_Ratio_900_L_20_R_18.png","xmouse":[806,806,806,806,806,806,806,806,806,806,806,806,806,806,806,806,806,806,806,806,807,807,807,807,807,807,807,807,806,806,805,805,805,805,805,805,805,805,805,805,802,793,776,755,699,667,635,608,585,574,556,550,546,542,536,532,526,520,512],"ymouse":[535,535,535,535,535,535,535,535,535,535,535,535,535,535,534,534,534,534,533,533,532,531,529,527,523,522,521,520,519,518,517,516,516,515,511,509,506,504,502,499,480,462,438,407,343,311,283,260,242,231,205,195,185,175,153,144,132,113,87],"timestamp_mouse":[9,22,43,62,82,102,122,143,164,183,203,223,243,264,283,302,323,343,363,383,403,422,443,462,482,502,524,542,563,583,602,623,643,662,682,702,723,744,762,782,803,822,843,862,883,903,923,942,962,983,1002,1022,1042,1063,1083,1103,1123,1142,1163],"xSR":741.5,"ySR":469.95,"xT1":424.9,"yT1":0,"xT2":1058.1,"yT2":0,"toosoon":0,"cond_shown":"equaldotanddens","ratio_trial":900,"smaller_num":"18","larger_num":"20","correct_side":1,"subjID":"gabrielpizzamendez6","gender":"0","age":"9","school":"4"},{"start_time":1552309378192,"click_time":1552309379379,"finger_time":1552309378979,"fix_duration":250,"trial":23,"RT":787,"MT":400,"sideResp":1,"stimulus":"img/500/equaldotanddens/L/11_Ratio_500_L_12_R_6.png","xmouse":[790,790,790,790,790,790,790,790,790,790,790,790,790,790,790,790,790,790,790,790,790,790,790,790,790,790,790,789,787,784,783,781,780,781,783,783,777,770,762,739,727,713,699,668,656,643,634,630,622,617,613,608,601,581,562,551,540,538,531,524],"ymouse":[557,557,557,557,557,557,557,557,557,557,557,557,557,557,557,557,557,557,557,557,557,557,557,557,557,557,557,556,556,556,555,554,553,537,524,513,501,488,472,437,421,406,393,358,332,298,269,245,199,181,165,154,142,113,79,58,45,43,42,42],"timestamp_mouse":[13,29,48,69,89,108,127,149,167,188,208,227,247,267,288,308,327,348,367,387,407,427,448,467,488,508,527,548,567,587,607,628,648,667,688,707,728,747,767,787,808,827,848,868,888,907,929,948,967,987,1007,1028,1049,1068,1087,1125,1127,1147,1168,1187],"xSR":741.5,"ySR":469.95,"xT1":424.9,"yT1":0,"xT2":1058.1,"yT2":0,"toosoon":0,"cond_shown":"equaldotanddens","ratio_trial":500,"smaller_num":"6","larger_num":"12","correct_side":1,"subjID":"gabrielpizzamendez6","gender":"0","age":"9","school":"4"},{"start_time":1552309380493,"click_time":1552309381660,"finger_time":1552309381241,"fix_duration":250,"trial":24,"RT":748,"MT":419,"sideResp":2,"stimulus":"img/900/equaldotanddens/R/15_Ratio_900_L_9_R_10.png","xmouse":[800,800,800,800,800,800,800,800,800,800,800,800,800,800,800,800,800,800,800,800,800,800,800,800,800,800,800,800,800,800,800,800,802,804,808,816,834,860,921,962,981,995,1003,1017,1024,1033,1040,1045,1059,1066,1067,1067,1067,1068,1069,1073,1078,1088,1106],"ymouse":[547,547,547,547,547,547,547,547,547,547,547,547,547,547,547,547,547,547,547,547,547,547,547,547,547,547,547,547,547,547,547,547,547,545,542,537,523,505,449,404,379,359,340,310,292,273,256,242,210,182,172,166,161,152,148,142,132,116,82],"timestamp_mouse":[14,37,46,68,86,106,127,147,166,188,207,227,246,266,286,307,326,346,367,386,406,426,446,466,486,507,528,548,567,586,608,626,647,666,686,707,727,748,767,786,806,826,846,866,886,907,926,948,966,988,1006,1027,1046,1066,1087,1107,1126,1148,1167],"xSR":741.5,"ySR":469.95,"xT1":424.9,"yT1":0,"xT2":1058.1,"yT2":0,"toosoon":0,"cond_shown":"equaldotanddens","ratio_trial":900,"smaller_num":"9","larger_num":"10","correct_side":2,"subjID":"gabrielpizzamendez6","gender":"0","age":"9","school":"4"},{"start_time":1552309382796,"click_time":1552309383980,"finger_time":1552309383479,"fix_duration":336.4110977318051,"trial":25,"RT":683,"MT":501,"sideResp":1,"stimulus":"img/250/randomdotsizeEA/L/2_Ratio_250_L_16_R_4.png","xmouse":[753,753,753,753,753,753,753,753,753,753,753,753,753,753,753,753,753,753,753,753,753,754,754,755,756,756,757,758,758,758,758,757,756,755,746,738,729,721,701,692,685,674,663,643,629,619,609,599,588,572,565,561,558,556,554,552,547,540,524,517],"ymouse":[532,532,532,532,532,532,532,532,532,532,532,532,532,532,532,532,532,532,532,532,532,532,532,532,530,529,528,527,527,526,524,519,514,504,459,436,413,387,345,334,327,318,310,294,281,270,258,244,227,185,168,157,154,149,147,144,137,127,107,99],"timestamp_mouse":[9,24,44,64,83,105,124,143,163,184,205,223,244,265,283,303,323,343,364,384,403,424,443,464,484,503,524,545,563,583,603,624,644,663,683,703,725,743,763,783,803,823,844,864,883,903,923,944,964,983,1003,1023,1044,1064,1083,1104,1123,1143,1164,1184],"xSR":741.5,"ySR":469.95,"xT1":424.9,"yT1":0,"xT2":1058.1,"yT2":0,"toosoon":0,"cond_shown":"randomdotsizeEA","ratio_trial":250,"smaller_num":"4","larger_num":"16","correct_side":1,"subjID":"gabrielpizzamendez6","gender":"0","age":"9","school":"4"},{"start_time":1552309387273,"click_time":1552309388260,"finger_time":1552309387939,"fix_duration":891.5165037442363,"trial":26,"RT":666,"MT":321,"sideResp":2,"stimulus":"img/500/equaldotsize/R/2_Ratio_500_L_3_R_6.png","xmouse":[781,781,781,781,781,781,781,781,781,782,783,783,784,784,784,785,786,786,786,786,786,786,786,786,786,786,786,786,787,792,804,821,839,863,927,951,970,989,1008,1043,1051,1056,1059,1060,1060,1060,1063,1065,1068,1076],"ymouse":[521,521,521,521,521,521,521,521,520,520,519,519,519,519,519,518,518,518,518,518,518,518,518,518,518,518,518,518,518,515,510,502,492,476,431,409,384,349,308,222,197,177,165,154,142,136,128,119,112,95],"timestamp_mouse":[10,33,48,66,86,106,126,147,166,186,207,227,246,267,288,308,327,346,366,387,408,427,446,466,488,506,527,548,567,586,607,626,646,666,686,706,726,746,767,787,807,826,847,866,887,908,926,946,967,987],"xSR":741.5,"ySR":469.95,"xT1":424.9,"yT1":0,"xT2":1058.1,"yT2":0,"toosoon":0,"cond_shown":"equaldotsize","ratio_trial":500,"smaller_num":"3","larger_num":"6","correct_side":2,"subjID":"gabrielpizzamendez6","gender":"0","age":"9","school":"4"},{"start_time":1552309391076,"click_time":1552309392179,"finger_time":1552309391801,"fix_duration":1295.90343094183,"trial":27,"RT":725,"MT":378,"sideResp":1,"stimulus":"img/250/randomdotsizeEA/L/3_Ratio_250_L_8_R_2.png","xmouse":[800,798,797,797,797,797,797,797,797,797,797,797,797,797,797,797,797,797,797,797,797,797,797,797,797,797,797,797,797,797,797,797,797,796,787,777,763,744,721,684,668,662,659,656,656,653,649,641,629,598,583,575,563,550,529,519],"ymouse":[535,534,534,534,534,534,534,534,534,534,534,534,534,534,534,534,534,534,534,534,534,534,534,534,534,534,534,534,534,534,534,534,532,527,500,478,452,421,384,316,282,268,261,257,256,255,253,247,238,213,197,186,171,152,114,95],"timestamp_mouse":[3,24,44,63,84,105,123,143,164,184,204,223,244,263,284,303,324,345,364,384,403,423,445,465,484,504,524,543,564,584,604,624,643,663,683,703,725,745,763,784,803,823,844,863,883,903,924,943,963,984,1003,1023,1043,1064,1083,1103],"xSR":741.5,"ySR":469.95,"xT1":424.9,"yT1":0,"xT2":1058.1,"yT2":0,"toosoon":0,"cond_shown":"randomdotsizeEA","ratio_trial":250,"smaller_num":"2","larger_num":"8","correct_side":1,"subjID":"gabrielpizzamendez6","gender":"0","age":"9","school":"4"},{"start_time":1552309395737,"click_time":1552309396799,"finger_time":1552309396600,"fix_duration":1337.4720643426228,"trial":28,"RT":863,"MT":199,"sideResp":1,"stimulus":"img/900/equaldotanddens/L/8_Ratio_900_L_20_R_18.png","xmouse":[785,785,785,785,785,785,785,785,785,785,785,785,785,785,785,785,785,785,785,785,785,785,785,785,785,785,785,785,785,785,785,785,785,785,786,790,799,800,802,803,803,803,802,795,781,748,607,555,529,517,514,508,502,494],"ymouse":[524,524,524,524,524,524,524,524,524,524,524,524,524,524,524,524,524,524,524,524,524,524,524,524,524,524,524,524,524,524,524,524,524,524,524,524,517,506,498,489,483,476,471,459,439,397,201,152,131,121,118,112,104,95],"timestamp_mouse":[2,22,42,63,81,102,122,141,162,181,203,221,241,262,281,302,322,342,362,382,402,421,442,462,482,501,523,542,562,583,601,622,641,662,682,703,722,741,762,783,802,822,842,863,882,902,922,942,961,983,1002,1022,1042,1062],"xSR":741.5,"ySR":469.95,"xT1":424.9,"yT1":0,"xT2":1058.1,"yT2":0,"toosoon":0,"cond_shown":"equaldotanddens","ratio_trial":900,"smaller_num":"18","larger_num":"20","correct_side":1,"subjID":"gabrielpizzamendez6","gender":"0","age":"9","school":"4"},{"start_time":1552309398072,"click_time":1552309399459,"finger_time":1552309398959,"fix_duration":250,"trial":29,"RT":887,"MT":500,"sideResp":2,"stimulus":"img/750/randomdotsizeEA/L/10_Ratio_750_L_4_R_3.png","xmouse":[782,782,782,782,782,782,782,782,781,781,781,781,781,781,781,781,781,781,781,781,781,781,781,781,781,781,781,781,781,781,781,781,781,781,781,781,781,781,781,784,795,804,818,833,861,871,882,892,900,912,919,924,927,931,938,943,947,953,958,976,984,993,1004,1012,1032,1042,1051,1055,1058,1065],"ymouse":[529,530,530,530,530,530,530,530,530,530,530,530,530,530,530,530,530,530,530,530,530,530,530,530,530,530,530,530,530,530,530,530,530,530,530,530,530,530,530,528,522,517,509,501,482,474,461,448,433,404,381,368,357,345,320,302,283,265,247,200,183,166,151,137,109,96,87,80,74,59],"timestamp_mouse":[10,26,50,67,86,106,128,147,167,187,207,228,247,268,287,306,327,347,368,388,407,426,446,468,488,507,527,547,568,587,607,628,646,668,687,707,726,747,768,786,808,827,847,866,887,907,927,947,968,987,1007,1026,1047,1067,1087,1106,1126,1146,1168,1187,1208,1227,1246,1266,1287,1308,1327,1347,1367,1387],"xSR":741.5,"ySR":469.95,"xT1":424.9,"yT1":0,"xT2":1058.1,"yT2":0,"toosoon":0,"cond_shown":"randomdotsizeEA","ratio_trial":750,"smaller_num":"3","larger_num":"4","correct_side":1,"subjID":"gabrielpizzamendez6","gender":"0","age":"9","school":"4"},{"start_time":1552309401329,"click_time":1552309402360,"finger_time":1552309402080,"fix_duration":1068.9949939014964,"trial":30,"RT":751,"MT":280,"sideResp":1,"stimulus":"img/750/equaldotanddens/L/14_Ratio_750_L_8_R_6.png","xmouse":[789,789,789,789,789,789,789,789,789,789,789,789,789,789,789,789,789,789,789,789,789,789,789,789,789,789,789,789,789,789,789,789,789,789,788,782,745,716,690,673,660,648,643,639,635,629,619,608,598,585,565,523],"ymouse":[543,543,543,543,543,543,543,543,543,543,543,543,543,543,543,543,543,543,543,543,543,543,543,543,543,543,543,543,543,543,543,543,543,543,542,536,496,461,429,402,377,333,318,302,287,270,234,200,177,153,124,76],"timestamp_mouse":[15,41,51,71,91,111,130,150,170,191,211,229,251,271,290,311,330,349,370,390,410,431,451,471,490,509,531,551,571,589,610,630,651,670,690,710,730,751,770,790,811,830,851,870,890,910,930,950,969,991,1010,1030],"xSR":741.5,"ySR":469.95,"xT1":424.9,"yT1":0,"xT2":1058.1,"yT2":0,"toosoon":0,"cond_shown":"equaldotanddens","ratio_trial":750,"smaller_num":"6","larger_num":"8","correct_side":1,"subjID":"gabrielpizzamendez6","gender":"0","age":"9","school":"4"},{"start_time":1552309403321,"click_time":1552309405139,"finger_time":1552309403919,"fix_duration":259.9898322305743,"trial":31,"RT":598,"MT":1220,"sideResp":2,"stimulus":"img/500/equaldotanddens/R/9_Ratio_500_L_2_R_4.png","xmouse":[797,797,796,795,793,793,793,793,793,793,793,793,793,793,793,793,792,790,789,788,788,787,787,787,787,787,787,795,814,849,888,949,968,982,988,990,1000,1010,1016,1022,1028,1035,1038,1039,1039,1039,1039,1039,1041,1042,1043,1043,1043,1043,1043,1044,1045,1046,1046,1046,1046,1046,1046,1046,1046,1046,1046,1046,1046,1046,1046,1046,1046,1046,1049,1051,1052,1052,1053,1053,1053,1052,1051,1051,1051,1051,1051,1052,1054,1058,1060],"ymouse":[522,522,523,523,524,524,524,524,524,524,524,524,524,524,524,524,524,524,524,524,524,524,524,524,524,524,524,512,488,447,410,358,342,329,322,317,301,283,271,261,246,214,195,178,164,151,131,117,107,101,98,94,93,93,93,92,87,86,86,86,86,86,86,86,86,86,86,86,86,86,88,89,91,92,95,97,98,98,99,99,100,102,103,104,104,104,104,104,104,102,96],"timestamp_mouse":[18,38,59,79,99,117,139,158,179,198,219,238,258,279,297,318,338,359,378,398,417,438,458,478,498,519,538,558,578,598,618,638,657,677,698,718,738,758,777,798,818,838,858,879,898,919,938,957,977,998,1018,1038,1058,1079,1098,1118,1137,1158,1178,1198,1219,1239,1258,1279,1298,1317,1338,1359,1378,1399,1418,1438,1458,1478,1499,1518,1538,1558,1577,1599,1618,1638,1658,1678,1699,1718,1739,1758,1778,1798,1817],"xSR":741.5,"ySR":469.95,"xT1":424.9,"yT1":0,"xT2":1058.1,"yT2":0,"toosoon":0,"cond_shown":"equaldotanddens","ratio_trial":500,"smaller_num":"2","larger_num":"4","correct_side":2,"subjID":"gabrielpizzamendez6","gender":"0","age":"9","school":"4"},{"start_time":1552309407130,"click_time":1552309408199,"finger_time":1552309407958,"fix_duration":1068.928451452672,"trial":32,"RT":828,"MT":241,"sideResp":2,"stimulus":"img/900/randomdotsizeEA/R/3_Ratio_900_L_9_R_10.png","xmouse":[801,801,801,801,801,801,801,801,801,801,801,801,801,801,801,801,801,801,801,801,801,801,801,801,801,801,801,801,801,801,801,801,801,801,801,801,805,807,811,819,830,864,896,930,970,1006,1057,1076,1088,1098,1105,1115,1121,1127],"ymouse":[501,501,501,501,501,501,501,501,501,501,501,501,501,501,501,501,501,501,501,501,501,501,501,501,501,501,501,501,501,501,501,501,501,501,501,501,498,496,492,487,482,456,429,395,352,311,250,223,204,183,163,124,105,87],"timestamp_mouse":[8,29,49,81,89,110,129,149,170,190,209,228,250,268,289,308,329,349,370,388,409,429,448,469,490,510,529,549,570,590,610,629,650,669,690,708,729,749,769,789,809,828,848,870,889,910,929,950,968,989,1009,1029,1049,1069],"xSR":741.5,"ySR":469.95,"xT1":424.9,"yT1":0,"xT2":1058.1,"yT2":0,"toosoon":0,"cond_shown":"randomdotsizeEA","ratio_trial":900,"smaller_num":"9","larger_num":"10","correct_side":2,"subjID":"gabrielpizzamendez6","gender":"0","age":"9","school":"4"},{"start_time":1552309412542,"click_time":1552309413639,"finger_time":1552309413299,"fix_duration":1401.0752847872209,"trial":33,"RT":757,"MT":340,"sideResp":1,"stimulus":"img/900/equaldotsize/L/2_Ratio_900_L_20_R_18.png","xmouse":[811,811,811,811,811,811,811,812,812,813,813,813,813,813,813,813,813,813,813,813,813,813,813,811,811,811,811,811,811,811,811,811,811,810,809,806,802,796,789,779,751,735,722,708,695,665,642,630,616,604,575,560,546,530,515],"ymouse":[491,491,491,491,491,491,491,491,490,488,487,487,487,487,487,487,487,487,487,487,487,487,487,487,487,487,487,487,487,487,487,487,487,487,487,481,475,468,459,443,368,332,300,270,238,183,144,121,98,80,53,46,43,39,36],"timestamp_mouse":[17,39,58,76,97,118,138,158,178,197,217,237,258,277,298,317,337,358,377,396,417,438,457,477,496,516,538,558,577,597,618,637,657,678,697,716,737,757,777,797,817,836,857,878,897,917,938,956,978,997,1017,1037,1057,1076,1097],"xSR":741.5,"ySR":469.95,"xT1":424.9,"yT1":0,"xT2":1058.1,"yT2":0,"toosoon":0,"cond_shown":"equaldotsize","ratio_trial":900,"smaller_num":"18","larger_num":"20","correct_side":1,"subjID":"gabrielpizzamendez6","gender":"0","age":"9","school":"4"},{"start_time":1552309415595,"click_time":1552309416859,"finger_time":1552309416599,"fix_duration":1414.0678584360062,"trial":34,"RT":1004,"MT":260,"sideResp":1,"stimulus":"img/500/randomdotsizeEA/L/5_Ratio_500_L_4_R_2.png","xmouse":[809,809,809,809,809,809,809,809,809,809,809,809,809,809,809,809,809,809,809,809,809,809,809,809,809,809,809,809,809,809,809,809,809,809,809,809,809,809,809,810,810,810,810,810,810,810,810,810,795,787,779,771,760,692,656,622,601,585,564,556,549,542,535,518],"ymouse":[521,521,521,521,521,521,521,521,521,521,521,521,521,521,521,521,521,521,521,521,521,521,521,521,521,521,521,521,521,521,521,521,521,521,521,521,521,522,522,522,522,522,522,522,522,522,522,521,501,484,466,449,430,351,311,271,240,220,189,178,170,158,143,93],"timestamp_mouse":[10,24,44,63,84,105,124,143,164,185,205,224,243,264,285,305,324,345,364,384,405,425,445,464,483,504,524,544,564,585,605,623,645,664,685,705,731,744,763,784,804,824,844,863,884,904,924,944,964,984,1004,1024,1044,1064,1085,1104,1124,1143,1164,1183,1203,1223,1244,1264],"xSR":741.5,"ySR":469.95,"xT1":424.9,"yT1":0,"xT2":1058.1,"yT2":0,"toosoon":0,"cond_shown":"randomdotsizeEA","ratio_trial":500,"smaller_num":"2","larger_num":"4","correct_side":1,"subjID":"gabrielpizzamendez6","gender":"0","age":"9","school":"4"},{"start_time":1552309418864,"click_time":1552309420119,"finger_time":1552309419799,"fix_duration":1283.1959310347268,"trial":35,"RT":935,"MT":320,"sideResp":1,"stimulus":"img/750/randomdotsizeEA/L/13_Ratio_750_L_8_R_6.png","xmouse":[799,799,799,803,803,803,803,803,803,803,803,804,804,804,804,804,804,804,804,804,804,804,804,804,804,804,804,804,804,804,804,804,804,804,804,804,804,804,804,804,804,799,794,787,769,755,741,727,711,678,659,648,639,630,621,610,603,599,595,571,550,536,522],"ymouse":[540,540,540,539,539,539,539,539,539,539,539,538,538,538,538,538,538,538,538,538,538,538,538,538,538,538,538,538,538,538,538,538,538,538,538,538,538,538,538,538,532,524,517,506,485,470,452,436,413,359,328,310,291,274,254,229,215,204,191,153,117,97,78],"timestamp_mouse":[18,47,56,76,95,114,136,155,176,195,216,236,255,274,296,315,335,355,376,396,414,436,456,475,496,516,535,556,575,596,615,636,655,675,694,715,736,756,776,796,816,835,855,874,895,915,935,955,975,995,1016,1035,1055,1075,1095,1115,1135,1155,1175,1195,1215,1234,1255],"xSR":741.5,"ySR":469.95,"xT1":424.9,"yT1":0,"xT2":1058.1,"yT2":0,"toosoon":0,"cond_shown":"randomdotsizeEA","ratio_trial":750,"smaller_num":"6","larger_num":"8","correct_side":1,"subjID":"gabrielpizzamendez6","gender":"0","age":"9","school":"4"},{"start_time":1552309421404,"click_time":1552309422320,"finger_time":1552309422019,"fix_duration":343.36764821963715,"trial":36,"RT":615,"MT":301,"sideResp":2,"stimulus":"img/500/equaldotanddens/R/14_Ratio_500_L_5_R_10.png","xmouse":[809,810,810,810,810,810,810,810,810,810,810,810,810,810,810,810,810,810,810,810,810,810,812,813,813,813,813,814,817,823,834,853,906,956,979,994,1005,1040,1059,1076,1092,1106,1123,1132,1137,1144],"ymouse":[505,505,505,505,505,505,505,505,505,505,505,505,505,505,505,505,505,505,505,505,505,505,505,503,503,503,503,501,495,483,465,438,370,316,296,280,266,227,208,190,176,162,137,122,109,93],"timestamp_mouse":[16,35,54,76,95,115,135,156,175,196,216,234,255,275,294,315,336,356,375,396,416,435,455,476,495,515,535,554,574,595,615,636,655,675,694,715,734,755,775,795,815,835,855,876,894,916],"xSR":741.5,"ySR":469.95,"xT1":424.9,"yT1":0,"xT2":1058.1,"yT2":0,"toosoon":0,"cond_shown":"equaldotanddens","ratio_trial":500,"smaller_num":"5","larger_num":"10","correct_side":2,"subjID":"gabrielpizzamendez6","gender":"0","age":"9","school":"4"},{"start_time":1552309423391,"click_time":1552309424759,"finger_time":1552309424179,"fix_duration":250,"trial":37,"RT":788,"MT":580,"sideResp":2,"stimulus":"img/750/equaldotanddens/R/7_Ratio_750_L_3_R_4.png","xmouse":[805,805,805,805,805,805,805,805,805,805,805,805,804,800,799,798,798,798,798,798,798,797,797,796,796,796,796,796,796,796,796,796,796,796,797,799,803,815,833,904,954,1010,1055,1123,1136,1149,1160,1173,1196,1205,1213,1217,1220,1220,1218,1216,1215,1213,1207,1202,1195,1190,1184,1169,1164,1163,1162,1159,1151],"ymouse":[547,547,547,547,547,547,547,547,547,547,547,548,549,552,554,555,555,555,555,555,555,552,550,547,547,545,544,542,540,538,538,538,537,537,535,531,525,509,484,421,383,349,324,278,266,251,237,218,181,161,145,120,100,74,62,59,55,53,46,43,40,39,37,34,34,34,34,34,35],"timestamp_mouse":[10,33,47,68,89,109,129,148,168,188,208,229,249,268,287,308,329,347,368,388,408,428,449,467,489,507,528,548,568,589,607,628,649,668,687,708,727,748,768,788,808,827,848,868,889,907,928,949,968,988,1008,1028,1048,1068,1087,1108,1128,1148,1167,1187,1208,1228,1248,1268,1287,1309,1328,1349,1368],"xSR":741.5,"ySR":469.95,"xT1":424.9,"yT1":0,"xT2":1058.1,"yT2":0,"toosoon":0,"cond_shown":"equaldotanddens","ratio_trial":750,"smaller_num":"3","larger_num":"4","correct_side":2,"subjID":"gabrielpizzamendez6","gender":"0","age":"9","school":"4"},{"start_time":1552309426395,"click_time":1552309427778,"finger_time":1552309427260,"fix_duration":695.4135342137267,"trial":38,"RT":865,"MT":518,"sideResp":1,"stimulus":"img/750/equaldotanddens/R/3_Ratio_750_L_15_R_20.png","xmouse":[786,786,786,786,786,786,786,786,786,786,786,786,786,786,786,786,786,786,786,786,786,786,786,786,786,786,786,786,786,786,786,787,788,790,791,791,791,791,791,791,791,791,789,770,761,749,736,723,712,690,680,668,654,631,617,611,602,588,553,542,534,528,523,513,512,510,509,508,507,492],"ymouse":[512,512,512,512,512,512,512,512,512,512,512,512,512,512,512,512,512,512,512,512,512,512,512,512,512,512,512,512,512,512,512,511,510,508,507,507,507,507,507,507,507,506,503,469,455,440,424,405,388,357,345,330,315,289,273,264,251,228,182,166,153,142,130,108,105,103,102,101,101,85],"timestamp_mouse":[9,24,45,65,83,104,125,144,165,185,203,225,244,265,283,303,324,344,365,385,403,424,443,464,484,505,523,543,564,583,603,624,645,663,684,705,723,744,765,783,803,824,845,865,883,903,924,943,964,984,1005,1024,1046,1064,1084,1104,1125,1144,1164,1183,1204,1223,1243,1264,1283,1303,1323,1343,1364,1383],"xSR":741.5,"ySR":469.95,"xT1":424.9,"yT1":0,"xT2":1058.1,"yT2":0,"toosoon":0,"cond_shown":"equaldotanddens","ratio_trial":750,"smaller_num":"15","larger_num":"20","correct_side":2,"subjID":"gabrielpizzamendez6","gender":"0","age":"9","school":"4"},{"start_time":1552309430148,"click_time":1552309431160,"finger_time":1552309430858,"fix_duration":1489.531449370726,"trial":39,"RT":710,"MT":302,"sideResp":1,"stimulus":"img/750/equaldotanddens/L/14_Ratio_750_L_8_R_6.png","xmouse":[767,765,765,765,765,765,765,765,765,765,765,765,765,765,765,765,765,765,765,765,765,765,765,765,765,765,765,765,765,765,765,765,765,764,764,743,724,700,685,673,645,638,633,628,620,598,588,572,552,518,488],"ymouse":[494,492,492,492,492,492,492,492,492,492,492,492,492,492,492,492,492,492,492,492,492,492,492,492,492,492,492,492,492,492,492,492,492,492,488,449,422,395,381,367,332,320,312,304,289,249,228,202,163,116,70],"timestamp_mouse":[13,41,50,71,91,110,132,151,171,191,211,232,250,271,292,311,331,351,372,392,412,430,451,471,490,512,532,551,570,591,611,632,652,671,692,710,732,751,771,791,811,830,851,870,892,911,932,951,971,990,1011],"xSR":741.5,"ySR":469.95,"xT1":424.9,"yT1":0,"xT2":1058.1,"yT2":0,"toosoon":0,"cond_shown":"equaldotanddens","ratio_trial":750,"smaller_num":"6","larger_num":"8","correct_side":1,"subjID":"gabrielpizzamendez6","gender":"0","age":"9","school":"4"},{"start_time":1552309432446,"click_time":1552309434059,"finger_time":1552309433659,"fix_duration":465.7328332993107,"trial":40,"RT":1213,"MT":400,"sideResp":1,"stimulus":"img/900/randomdotsizeEA/L/10_Ratio_900_L_20_R_18.png","xmouse":[795,795,795,795,795,795,795,795,795,796,797,798,798,798,799,799,800,800,800,800,800,800,800,800,800,800,800,800,800,800,800,800,800,803,804,811,815,817,819,819,821,821,821,821,821,821,821,821,821,821,821,822,822,822,822,822,822,822,822,821,820,812,805,795,781,750,733,716,703,692,669,653,638,623,604,550,533,519,511,506,498],"ymouse":[528,528,528,528,528,528,528,528,529,529,528,527,527,527,526,526,524,524,524,524,524,524,524,524,524,524,524,524,524,524,524,524,524,523,522,512,505,501,497,495,492,491,489,488,486,484,483,483,483,483,483,483,483,483,483,483,482,480,475,470,465,437,422,402,380,329,307,285,270,260,242,228,219,208,194,159,146,133,124,116,95],"timestamp_mouse":[12,51,53,73,94,113,134,154,173,193,213,233,254,272,294,313,333,353,373,394,413,434,452,473,494,514,533,554,574,592,613,633,653,672,692,713,733,753,773,794,813,834,852,874,892,913,932,953,974,993,1012,1033,1054,1073,1093,1113,1133,1153,1172,1194,1213,1233,1252,1273,1292,1313,1333,1353,1373,1394,1413,1433,1452,1474,1493,1513,1533,1554,1573,1593,1613],"xSR":741.5,"ySR":469.95,"xT1":424.9,"yT1":0,"xT2":1058.1,"yT2":0,"toosoon":0,"cond_shown":"randomdotsizeEA","ratio_trial":900,"smaller_num":"18","larger_num":"20","correct_side":1,"subjID":"gabrielpizzamendez6","gender":"0","age":"9","school":"4"},{"start_time":1552309436042,"click_time":1552309437139,"finger_time":1552309436900,"fix_duration":1200.4910393097848,"trial":41,"RT":858,"MT":239,"sideResp":1,"stimulus":"img/500/equaldotsize/L/8_Ratio_500_L_8_R_4.png","xmouse":[808,808,808,808,808,808,808,808,808,808,808,808,808,808,808,808,808,808,808,808,808,808,808,808,808,808,808,808,808,808,808,808,808,808,807,803,798,793,786,780,777,765,759,754,748,726,710,690,664,638,576,555,541,529,524],"ymouse":[547,547,547,547,547,547,547,547,547,547,547,547,547,547,547,547,547,547,547,547,547,547,547,547,547,547,547,547,547,547,547,547,547,547,546,542,535,529,519,511,499,471,455,439,418,371,346,320,282,246,159,127,105,87,80],"timestamp_mouse":[17,42,57,78,98,118,137,157,178,197,218,238,257,277,296,317,337,358,376,397,418,437,457,477,497,518,537,557,578,597,617,637,658,678,697,717,738,758,776,797,817,837,858,877,897,917,938,957,978,997,1017,1037,1058,1077,1096],"xSR":741.5,"ySR":469.95,"xT1":424.9,"yT1":0,"xT2":1058.1,"yT2":0,"toosoon":0,"cond_shown":"equaldotsize","ratio_trial":500,"smaller_num":"4","larger_num":"8","correct_side":1,"subjID":"gabrielpizzamendez6","gender":"0","age":"9","school":"4"},{"start_time":1552309438685,"click_time":1552309439719,"finger_time":1552309439419,"fix_duration":903.7469208507508,"trial":42,"RT":734,"MT":300,"sideResp":2,"stimulus":"img/900/equaldotsize/R/5_Ratio_900_L_9_R_10.png","xmouse":[815,815,815,815,815,815,815,815,815,815,815,815,815,815,815,815,815,815,815,815,815,815,815,815,815,815,815,815,815,815,815,815,815,815,815,831,848,902,1028,1080,1098,1109,1113,1118,1120,1121,1121,1121,1121,1121,1119,1118],"ymouse":[515,515,515,515,515,515,515,515,515,515,515,515,515,515,515,515,515,515,515,515,515,515,515,515,515,515,515,515,515,515,515,515,515,515,516,504,491,455,368,309,275,251,234,204,187,172,160,147,114,107,101,97],"timestamp_mouse":[15,38,55,74,95,114,134,153,173,194,215,233,255,274,294,315,335,353,374,394,414,433,455,474,494,513,534,555,574,595,614,635,654,674,695,714,734,755,774,794,813,834,853,874,895,915,935,953,974,995,1014,1034],"xSR":741.5,"ySR":469.95,"xT1":424.9,"yT1":0,"xT2":1058.1,"yT2":0,"toosoon":0,"cond_shown":"equaldotsize","ratio_trial":900,"smaller_num":"9","larger_num":"10","correct_side":2,"subjID":"gabrielpizzamendez6","gender":"0","age":"9","school":"4"},{"start_time":1552309441283,"click_time":1552309442659,"finger_time":1552309442480,"fix_duration":702.6704781683479,"trial":43,"RT":1197,"MT":179,"sideResp":2,"stimulus":"img/500/randomdotsizeEA/R/14_Ratio_500_L_5_R_10.png","xmouse":[822,822,822,822,822,822,822,822,822,822,822,822,822,822,822,822,822,822,822,822,822,822,822,822,822,822,822,822,822,822,822,822,822,822,822,822,821,820,815,811,810,809,809,809,809,809,809,809,809,809,809,809,809,809,809,809,810,813,833,890,938,987,1006,1059,1079,1094,1102,1108,1123],"ymouse":[540,540,540,540,540,540,540,540,540,540,540,540,540,540,540,540,540,540,540,540,540,540,540,540,540,540,540,540,540,540,540,540,540,540,540,540,540,540,537,534,534,534,534,534,534,534,534,534,534,534,534,534,534,534,534,534,532,528,508,450,401,353,332,261,228,200,175,151,93],"timestamp_mouse":[17,38,57,76,96,115,137,156,176,195,217,236,257,275,297,317,336,357,376,396,416,435,455,477,497,515,536,557,576,596,615,636,657,676,696,716,736,757,776,796,816,836,855,876,897,916,937,956,976,996,1016,1036,1057,1075,1097,1115,1135,1155,1176,1197,1215,1236,1256,1275,1296,1316,1335,1357,1376],"xSR":741.5,"ySR":469.95,"xT1":424.9,"yT1":0,"xT2":1058.1,"yT2":0,"toosoon":0,"cond_shown":"randomdotsizeEA","ratio_trial":500,"smaller_num":"5","larger_num":"10","correct_side":2,"subjID":"gabrielpizzamendez6","gender":"0","age":"9","school":"4"},{"start_time":1552309444596,"click_time":1552309445879,"finger_time":1552309445619,"fix_duration":1295.731042241487,"trial":44,"RT":1023,"MT":260,"sideResp":1,"stimulus":"img/900/equaldotanddens/L/4_Ratio_900_L_20_R_18.png","xmouse":[763,763,763,763,763,763,763,763,763,763,763,763,765,766,766,766,766,766,766,766,766,766,766,766,766,766,766,766,766,766,766,766,766,766,766,766,766,766,766,766,766,767,767,767,767,767,766,765,759,754,747,736,726,706,696,685,669,654,627,614,599,581,562,524,514],"ymouse":[559,559,559,559,559,559,559,559,559,559,559,559,560,560,560,560,560,560,560,560,560,560,560,560,560,560,560,560,560,560,560,560,560,560,560,560,560,560,560,560,560,560,559,548,544,540,536,533,521,506,486,462,437,392,370,345,317,293,250,229,205,181,156,109,97],"timestamp_mouse":[8,23,42,63,84,103,122,144,164,183,204,224,242,264,284,303,324,342,362,384,404,423,443,464,484,504,523,543,564,584,603,623,643,664,683,703,724,744,764,784,803,823,844,863,883,903,923,943,963,983,1003,1023,1043,1063,1083,1102,1122,1142,1163,1183,1203,1223,1242,1263,1283],"xSR":741.5,"ySR":469.95,"xT1":424.9,"yT1":0,"xT2":1058.1,"yT2":0,"toosoon":0,"cond_shown":"equaldotanddens","ratio_trial":900,"smaller_num":"18","larger_num":"20","correct_side":1,"subjID":"gabrielpizzamendez6","gender":"0","age":"9","school":"4"},{"start_time":1552309447318,"click_time":1552309448479,"finger_time":1552309448019,"fix_duration":456.5759723569235,"trial":45,"RT":701,"MT":460,"sideResp":2,"stimulus":"img/500/equaldotanddens/R/3_Ratio_500_L_10_R_20.png","xmouse":[792,792,792,792,792,792,792,792,792,792,792,792,792,792,792,792,792,792,792,792,792,792,792,792,792,792,792,792,792,792,792,792,792,804,820,842,863,909,939,953,967,978,990,993,996,999,1001,1002,1003,1008,1014,1021,1036,1041,1047,1055,1062,1080,1095],"ymouse":[516,516,516,516,516,516,516,516,516,516,516,516,516,516,516,516,516,516,516,516,516,516,516,516,516,516,516,516,516,516,516,516,516,508,496,482,469,439,415,400,383,364,331,317,303,289,273,239,208,188,172,162,147,142,137,129,123,104,75],"timestamp_mouse":[9,22,41,62,82,101,120,142,161,182,202,221,242,262,281,300,321,341,362,382,401,422,441,461,482,502,521,542,562,581,600,622,641,661,681,701,722,741,760,780,800,821,841,860,881,901,921,941,962,981,1001,1021,1041,1061,1081,1101,1122,1141,1161],"xSR":741.5,"ySR":469.95,"xT1":424.9,"yT1":0,"xT2":1058.1,"yT2":0,"toosoon":0,"cond_shown":"equaldotanddens","ratio_trial":500,"smaller_num":"10","larger_num":"20","correct_side":2,"subjID":"gabrielpizzamendez6","gender":"0","age":"9","school":"4"},{"start_time":1552309450048,"click_time":1552309451179,"finger_time":1552309450759,"fix_duration":787.7492467476224,"trial":46,"RT":711,"MT":420,"sideResp":2,"stimulus":"img/250/equaldotanddens/R/9_Ratio_250_L_3_R_12.png","xmouse":[780,780,780,780,780,780,780,780,780,780,780,780,780,780,780,780,780,780,780,780,780,780,780,780,780,780,780,780,780,780,780,780,780,783,789,822,847,886,921,953,994,1015,1026,1034,1041,1045,1056,1061,1062,1062,1062,1063,1065,1066,1069,1075,1077],"ymouse":[488,488,488,488,488,488,488,488,488,488,488,488,488,488,488,488,488,488,488,488,488,488,488,488,488,488,488,488,488,488,488,488,488,488,484,459,439,411,380,356,317,289,270,251,236,224,198,183,171,149,144,128,125,122,116,104,98],"timestamp_mouse":[11,30,54,72,91,110,132,151,170,192,211,232,252,272,291,311,331,350,372,391,410,431,450,471,490,510,530,550,571,590,611,631,652,672,690,711,730,751,772,791,811,830,850,871,891,911,932,951,972,990,1011,1032,1050,1072,1090,1111,1131],"xSR":741.5,"ySR":469.95,"xT1":424.9,"yT1":0,"xT2":1058.1,"yT2":0,"toosoon":0,"cond_shown":"equaldotanddens","ratio_trial":250,"smaller_num":"3","larger_num":"12","correct_side":2,"subjID":"gabrielpizzamendez6","gender":"0","age":"9","school":"4"},{"start_time":1552309452394,"click_time":1552309453479,"finger_time":1552309453259,"fix_duration":453.344558434349,"trial":47,"RT":865,"MT":220,"sideResp":2,"stimulus":"img/500/equaldotsize/R/1_Ratio_500_L_9_R_18.png","xmouse":[781,781,781,781,781,781,781,781,781,781,781,781,781,781,781,781,781,781,781,781,781,781,781,781,781,781,781,781,781,781,781,781,781,781,781,781,781,781,781,781,788,791,801,850,875,902,933,966,1017,1045,1077,1107,1128,1151,1156],"ymouse":[518,518,518,518,518,518,518,518,518,518,518,518,518,518,518,518,518,518,518,518,518,518,518,518,518,518,518,518,518,518,518,518,518,518,518,518,518,518,518,518,516,515,511,490,479,466,450,428,371,328,279,223,175,114,96],"timestamp_mouse":[13,25,45,65,86,104,125,146,165,186,206,224,245,266,286,305,325,345,365,385,404,426,445,465,484,504,526,546,564,584,605,626,645,664,686,704,726,745,765,786,805,825,845,864,885,905,926,944,965,985,1005,1024,1044,1065,1085],"xSR":741.5,"ySR":469.95,"xT1":424.9,"yT1":0,"xT2":1058.1,"yT2":0,"toosoon":0,"cond_shown":"equaldotsize","ratio_trial":500,"smaller_num":"9","larger_num":"18","correct_side":2,"subjID":"gabrielpizzamendez6","gender":"0","age":"9","school":"4"},{"start_time":1552309455459,"click_time":1552309456378,"finger_time":1552309456157,"fix_duration":1099.5409082618535,"trial":48,"RT":698,"MT":221,"sideResp":2,"stimulus":"img/250/equaldotanddens/R/8_Ratio_250_L_1_R_4.png","xmouse":[809,809,809,809,809,809,809,809,809,809,809,809,809,809,809,814,815,817,818,818,818,818,818,818,818,818,818,818,818,818,818,818,819,823,829,851,864,881,896,912,961,999,1029,1055,1072,1089,1094],"ymouse":[493,493,493,493,493,493,493,493,493,493,493,493,493,493,494,494,494,494,494,494,494,494,494,494,494,494,494,494,494,494,494,494,494,494,492,474,462,445,427,405,333,269,223,183,149,100,73],"timestamp_mouse":[1,20,41,58,79,99,119,140,159,179,199,219,240,258,279,299,319,339,359,378,400,418,440,460,479,498,519,540,559,578,600,620,638,658,678,698,719,738,758,779,799,820,838,859,878,899,919],"xSR":741.5,"ySR":469.95,"xT1":424.9,"yT1":0,"xT2":1058.1,"yT2":0,"toosoon":0,"cond_shown":"equaldotanddens","ratio_trial":250,"smaller_num":"1","larger_num":"4","correct_side":2,"subjID":"gabrielpizzamendez6","gender":"0","age":"9","school":"4"},{"start_time":1552309457609,"click_time":1552309459018,"finger_time":1552309458638,"fix_duration":250,"trial":49,"RT":1029,"MT":380,"sideResp":1,"stimulus":"img/900/randomdotsizeEA/L/1_Ratio_900_L_10_R_9.png","xmouse":[818,818,818,818,818,818,818,818,818,818,818,818,818,818,818,818,818,818,818,818,818,818,818,818,818,818,818,818,818,818,818,818,818,818,818,818,818,818,818,818,818,818,818,818,818,818,818,818,818,809,803,788,748,739,738,736,731,708,692,668,648,626,581,565,552,539,526,512,493,487,482],"ymouse":[496,496,496,496,496,496,496,496,496,496,496,496,496,496,496,496,496,496,496,496,496,496,496,496,496,496,496,496,496,496,496,496,496,496,496,496,496,496,496,496,496,496,496,496,496,496,496,496,496,489,483,469,442,434,433,432,426,400,381,357,332,307,252,233,215,198,178,157,119,104,93],"timestamp_mouse":[9,37,49,70,88,108,128,150,169,190,209,228,248,268,289,308,328,349,370,390,409,428,448,470,490,508,530,549,569,589,609,630,649,668,689,708,728,749,769,788,810,828,848,869,890,908,930,949,968,989,1008,1029,1049,1069,1089,1110,1129,1148,1169,1190,1210,1229,1248,1268,1288,1309,1328,1348,1368,1389,1409],"xSR":741.5,"ySR":469.95,"xT1":424.9,"yT1":0,"xT2":1058.1,"yT2":0,"toosoon":0,"cond_shown":"randomdotsizeEA","ratio_trial":900,"smaller_num":"9","larger_num":"10","correct_side":1,"subjID":"gabrielpizzamendez6","gender":"0","age":"9","school":"4"},{"start_time":1552309459890,"click_time":1552309460897,"finger_time":1552309460557,"fix_duration":250,"trial":50,"RT":667,"MT":340,"sideResp":2,"stimulus":"img/250/equaldotanddens/R/4_Ratio_250_L_3_R_12.png","xmouse":[782,782,782,782,782,782,782,782,782,782,782,782,782,782,782,782,782,782,782,782,782,782,782,782,782,782,782,782,782,782,782,782,784,834,896,958,1016,1065,1128,1146,1152,1155,1157,1162,1165,1166,1166,1166,1162,1159,1156],"ymouse":[508,508,508,509,509,509,509,509,509,509,509,509,509,509,509,509,509,509,509,509,509,509,509,509,509,509,509,509,509,509,509,509,507,441,373,320,286,264,218,197,186,177,167,140,126,115,105,96,85,83,80],"timestamp_mouse":[7,28,47,68,87,107,127,148,169,187,208,229,248,269,288,308,328,348,368,387,409,429,448,469,487,508,528,547,569,588,608,627,648,667,689,707,727,749,768,788,808,827,847,867,887,909,929,948,968,987,1007],"xSR":741.5,"ySR":469.95,"xT1":424.9,"yT1":0,"xT2":1058.1,"yT2":0,"toosoon":0,"cond_shown":"equaldotanddens","ratio_trial":250,"smaller_num":"3","larger_num":"12","correct_side":2,"subjID":"gabrielpizzamendez6","gender":"0","age":"9","school":"4"},{"start_time":1552309462892,"click_time":1552309463999,"finger_time":1552309463658,"fix_duration":932.4443101870328,"trial":51,"RT":766,"MT":341,"sideResp":1,"stimulus":"img/750/randomdotsizeEA/R/15_Ratio_750_L_9_R_12.png","xmouse":[783,783,783,783,783,783,783,783,783,783,783,783,783,783,783,783,783,783,783,783,783,783,783,783,783,783,783,783,783,783,783,783,783,783,783,783,783,782,770,757,745,732,719,693,678,664,648,632,593,560,535,509,493,480,463,461],"ymouse":[498,498,498,498,498,498,498,498,498,498,498,498,498,498,498,498,498,498,498,498,498,498,498,498,498,498,498,498,498,498,498,498,498,498,498,498,498,495,461,437,416,397,378,342,321,302,281,261,222,195,177,158,141,125,100,95],"timestamp_mouse":[9,27,45,69,86,105,126,147,167,187,205,226,245,267,287,305,326,346,367,385,407,427,447,465,486,507,526,546,567,586,606,627,646,665,687,705,725,745,766,785,805,825,845,866,885,907,926,947,966,985,1005,1026,1045,1065,1086,1106],"xSR":741.5,"ySR":469.95,"xT1":424.9,"yT1":0,"xT2":1058.1,"yT2":0,"toosoon":0,"cond_shown":"randomdotsizeEA","ratio_trial":750,"smaller_num":"9","larger_num":"12","correct_side":2,"subjID":"gabrielpizzamendez6","gender":"0","age":"9","school":"4"},{"start_time":1552309466245,"click_time":1552309467478,"finger_time":1552309466998,"fix_duration":1365.090514912766,"trial":52,"RT":753,"MT":480,"sideResp":2,"stimulus":"img/750/equaldotanddens/R/11_Ratio_750_L_12_R_16.png","xmouse":[780,780,780,780,780,780,780,780,780,780,780,780,780,780,780,780,780,780,780,780,780,780,780,780,780,780,780,780,780,780,780,780,780,780,780,785,793,803,818,840,909,930,944,956,967,989,999,1009,1022,1033,1044,1045,1046,1046,1047,1052,1055,1057,1060,1061,1070,1078],"ymouse":[501,501,501,501,501,501,501,501,501,501,501,501,501,501,501,501,501,501,501,501,501,501,501,501,501,501,501,501,501,501,501,501,501,501,501,496,483,469,448,415,319,288,267,250,234,196,180,167,151,138,121,119,118,117,116,114,112,112,110,109,104,99],"timestamp_mouse":[14,32,57,72,93,112,134,152,173,192,212,233,254,272,292,313,333,352,374,392,413,432,453,474,493,514,533,554,572,593,612,634,653,674,693,713,733,753,774,794,813,832,852,872,892,913,932,952,972,992,1014,1032,1053,1072,1093,1113,1132,1153,1173,1194,1212,1232],"xSR":741.5,"ySR":469.95,"xT1":424.9,"yT1":0,"xT2":1058.1,"yT2":0,"toosoon":0,"cond_shown":"equaldotanddens","ratio_trial":750,"smaller_num":"12","larger_num":"16","correct_side":2,"subjID":"gabrielpizzamendez6","gender":"0","age":"9","school":"4"},{"start_time":1552309469491,"click_time":1552309470638,"finger_time":1552309470377,"fix_duration":931.5041739917463,"trial":53,"RT":886,"MT":261,"sideResp":1,"stimulus":"img/900/equaldotanddens/R/11_Ratio_900_L_18_R_20.png","xmouse":[764,764,764,764,764,764,764,764,764,764,764,764,764,764,764,764,764,764,764,764,764,764,764,764,764,764,764,764,764,764,764,764,764,764,764,764,764,764,764,764,765,764,762,762,760,760,758,753,731,714,693,672,647,595,570,547,530,517],"ymouse":[511,511,511,511,511,511,511,511,511,511,511,511,511,511,511,511,511,511,511,511,511,511,511,511,511,511,511,511,511,511,511,511,511,511,511,511,511,511,511,511,510,505,495,491,468,453,436,419,351,313,271,234,198,126,92,66,45,30],"timestamp_mouse":[10,36,46,66,87,106,128,147,167,186,207,228,246,267,288,307,327,346,366,388,406,427,448,467,488,506,526,548,568,588,606,628,647,668,686,707,728,748,767,787,807,828,846,866,886,906,926,946,967,987,1006,1028,1047,1067,1087,1107,1127,1147],"xSR":741.5,"ySR":469.95,"xT1":424.9,"yT1":0,"xT2":1058.1,"yT2":0,"toosoon":0,"cond_shown":"equaldotanddens","ratio_trial":900,"smaller_num":"18","larger_num":"20","correct_side":2,"subjID":"gabrielpizzamendez6","gender":"0","age":"9","school":"4"},{"start_time":1552309473066,"click_time":1552309474858,"finger_time":1552309473657,"fix_duration":1385.42007267027,"trial":54,"RT":591,"MT":1201,"sideResp":1,"stimulus":"img/750/equaldotsize/L/14_Ratio_750_L_8_R_6.png","xmouse":[786,786,786,786,786,786,786,786,786,786,786,786,786,786,786,786,786,786,786,786,786,786,786,786,788,792,796,803,813,845,858,864,870,873,883,893,902,914,927,961,975,991,1014,1050,1096,1112,1120,1127,1132,1140,1140,1140,1140,1140,1139,1138,1137,1136,1134,1133,1133,1130,1128,1125,1123,1123,1123,1123,1123,1123,1123,1123,1123,1121,1114,1106,1090,1073,1052,965,903,843,783,720,638,602,571,546,527,507],"ymouse":[533,533,533,533,533,533,533,533,533,533,533,533,533,533,533,533,533,533,533,533,533,533,533,532,525,520,516,508,496,466,456,451,447,444,431,419,407,392,377,335,315,293,266,231,196,178,162,153,144,132,132,132,131,127,118,116,114,114,114,113,113,113,115,117,121,121,121,121,121,126,130,133,135,139,148,155,161,165,171,175,160,142,123,105,92,92,90,86,82,78],"timestamp_mouse":[11,35,51,71,92,112,132,151,172,193,213,233,252,271,292,312,333,352,371,391,412,433,453,472,491,512,532,552,573,591,612,632,653,671,692,711,731,751,773,792,811,831,852,873,892,911,931,951,971,991,1012,1031,1052,1071,1092,1111,1133,1152,1173,1191,1212,1232,1252,1271,1292,1320,1332,1352,1371,1391,1412,1433,1453,1473,1492,1511,1531,1551,1572,1592,1611,1631,1652,1671,1692,1712,1732,1753,1772,1792],"xSR":741.5,"ySR":469.95,"xT1":424.9,"yT1":0,"xT2":1058.1,"yT2":0,"toosoon":0,"cond_shown":"equaldotsize","ratio_trial":750,"smaller_num":"6","larger_num":"8","correct_side":1,"subjID":"gabrielpizzamendez6","gender":"0","age":"9","school":"4"},{"start_time":1552309479531,"click_time":1552309481097,"finger_time":1552309480919,"fix_duration":250,"trial":55,"RT":1388,"MT":178,"sideResp":1,"stimulus":"img/900/equaldotsize/L/4_Ratio_900_L_20_R_18.png","xmouse":[775,775,775,775,775,775,775,775,775,775,775,775,775,775,775,775,775,775,775,775,775,775,775,775,775,775,775,775,775,775,775,775,775,775,775,775,775,775,775,775,775,775,775,775,775,775,775,775,775,775,775,775,775,775,775,775,775,775,775,775,775,775,775,775,775,775,775,768,754,735,702,627,591,565,534,514,469,457,444],"ymouse":[506,506,506,506,506,506,506,506,506,506,506,506,506,506,506,506,506,506,506,506,506,506,506,506,506,506,506,506,506,506,506,506,506,506,507,507,507,507,507,507,507,507,507,507,507,507,507,507,507,507,507,507,507,507,507,507,507,507,507,507,507,507,507,507,507,507,507,497,478,451,409,309,268,236,201,177,122,108,96],"timestamp_mouse":[9,27,46,67,86,107,128,147,167,188,207,227,247,268,288,307,327,347,366,386,407,428,447,467,488,508,527,546,567,588,607,628,648,668,687,707,726,748,768,788,808,827,847,867,886,907,928,947,968,988,1008,1026,1047,1068,1088,1108,1127,1146,1166,1187,1208,1227,1248,1268,1287,1306,1326,1347,1366,1388,1407,1427,1446,1466,1486,1506,1527,1547,1566],"xSR":741.5,"ySR":469.95,"xT1":424.9,"yT1":0,"xT2":1058.1,"yT2":0,"toosoon":0,"cond_shown":"equaldotsize","ratio_trial":900,"smaller_num":"18","larger_num":"20","correct_side":1,"subjID":"gabrielpizzamendez6","gender":"0","age":"9","school":"4"},{"start_time":1552309483090,"click_time":1552309484118,"finger_time":1552309483919,"fix_duration":1030.86131361516,"trial":56,"RT":829,"MT":199,"sideResp":1,"stimulus":"img/750/equaldotsize/R/15_Ratio_750_L_9_R_12.png","xmouse":[774,774,774,774,774,774,774,774,774,774,774,774,774,774,774,774,774,774,774,775,775,775,775,775,775,775,775,775,775,775,775,775,775,775,775,775,775,775,775,775,770,765,748,718,707,689,665,629,598,504,487,474],"ymouse":[478,478,478,478,478,478,478,478,478,478,478,478,478,478,478,478,478,478,478,478,478,478,478,478,478,478,478,478,478,478,478,478,478,478,478,478,478,478,478,478,472,465,446,401,380,351,309,261,226,123,108,99],"timestamp_mouse":[9,27,47,68,88,109,127,147,168,187,208,229,247,269,289,307,327,348,369,388,407,428,448,468,489,508,527,548,568,588,607,627,649,669,689,709,728,749,768,788,809,829,849,867,889,908,927,948,967,987,1008,1028],"xSR":741.5,"ySR":469.95,"xT1":424.9,"yT1":0,"xT2":1058.1,"yT2":0,"toosoon":0,"cond_shown":"equaldotsize","ratio_trial":750,"smaller_num":"9","larger_num":"12","correct_side":2,"subjID":"gabrielpizzamendez6","gender":"0","age":"9","school":"4"},{"start_time":1552309485220,"click_time":1552309489117,"finger_time":1552309488897,"fix_duration":381.4151088360456,"trial":57,"RT":3677,"MT":220,"sideResp":1,"stimulus":"img/900/randomdotsizeEA/R/9_Ratio_900_L_18_R_20.png","xmouse":[785,785,785,785,785,785,785,785,785,785,785,785,785,785,785,785,785,785,785,785,785,785,785,785,785,785,785,785,785,785,785,785,785,785,785,785,785,785,785,785,785,785,785,785,785,785,785,785,785,785,785,785,785,785,785,785,785,785,785,785,785,785,785,785,785,785,785,785,785,785,785,785,785,785,785,785,785,785,785,785,785,785,785,785,785,785,785,785,785,785,785,785,785,785,785,785,785,785,785,785,785,785,785,785,785,785,785,785,785,785,785,785,785,785,785,785,785,785,785,787,788,793,796,800,801,801,801,801,801,801,801,801,801,801,801,801,801,801,801,801,801,801,801,801,801,801,801,801,801,801,801,801,801,801,801,801,801,801,801,801,801,801,801,801,801,801,801,801,801,802,802,812,817,818,818,818,818,818,818,819,820,818,802,779,733,692,620,598,584,572,562,539,522,511,499],"ymouse":[503,503,503,503,503,503,503,503,503,503,503,503,503,503,503,503,503,503,503,503,503,503,503,503,503,503,503,503,503,503,503,503,503,503,503,503,503,503,503,503,503,503,503,503,503,503,503,503,503,503,503,503,503,503,503,503,503,503,503,503,503,503,503,503,503,503,503,503,503,503,503,503,503,503,503,503,503,503,503,503,503,503,503,503,503,503,503,503,503,503,503,503,503,503,503,503,503,503,503,503,503,503,503,503,503,503,503,503,503,503,503,503,503,503,503,503,503,503,503,503,503,503,504,505,505,505,505,505,505,505,505,505,505,505,505,505,505,505,505,505,505,505,505,505,505,505,505,505,505,505,505,505,505,505,505,505,505,505,505,505,505,505,505,505,505,505,505,505,505,505,505,505,505,505,505,505,505,505,505,505,504,490,472,448,407,361,282,251,223,200,180,141,119,107,98],"timestamp_mouse":[25,38,57,78,98,117,139,157,177,197,217,238,259,277,297,319,338,358,378,398,418,439,458,478,498,518,538,558,578,597,619,639,657,679,699,719,737,757,779,799,818,838,858,879,897,918,938,959,979,999,1018,1037,1058,1078,1098,1118,1137,1158,1179,1198,1217,1238,1257,1279,1299,1318,1337,1359,1377,1398,1419,1437,1457,1479,1497,1517,1538,1557,1579,1598,1619,1638,1657,1679,1699,1718,1738,1759,1778,1798,1819,1837,1859,1877,1899,1919,1939,1958,1978,1999,2018,2039,2058,2079,2098,2119,2139,2158,2177,2199,2218,2238,2257,2279,2299,2318,2338,2357,2379,2398,2418,2438,2457,2478,2499,2519,2538,2557,2578,2598,2619,2638,2659,2678,2697,2718,2738,2759,2779,2799,2818,2838,2858,2879,2899,2918,2938,2958,2978,2998,3017,3038,3058,3077,3097,3119,3138,3157,3178,3197,3219,3239,3258,3279,3298,3318,3338,3357,3377,3398,3419,3437,3458,3478,3497,3519,3538,3559,3579,3597,3617,3637,3658,3677,3699,3718,3738,3757,3778,3798,3818,3838,3857,3877,3897],"xSR":741.5,"ySR":469.95,"xT1":424.9,"yT1":0,"xT2":1058.1,"yT2":0,"toosoon":0,"cond_shown":"randomdotsizeEA","ratio_trial":900,"smaller_num":"18","larger_num":"20","correct_side":2,"subjID":"gabrielpizzamendez6","gender":"0","age":"9","school":"4"},{"start_time":1552309490108,"click_time":1552309491258,"finger_time":1552309490857,"fix_duration":250,"trial":58,"RT":749,"MT":401,"sideResp":1,"stimulus":"img/900/equaldotsize/L/2_Ratio_900_L_20_R_18.png","xmouse":[817,817,817,817,817,817,814,808,808,808,808,807,807,807,807,807,806,801,800,800,800,800,811,820,824,825,824,822,821,821,821,820,813,807,799,795,793,793,792,787,780,772,748,731,712,696,685,665,655,642,623,605,574,559,550,541,534,519],"ymouse":[561,561,561,559,559,558,558,557,557,557,557,557,557,556,556,555,555,555,555,555,555,552,536,520,511,506,506,506,506,506,506,505,497,491,484,479,476,468,465,457,444,425,379,353,325,303,288,260,249,237,220,204,167,150,135,123,115,92],"timestamp_mouse":[10,36,51,71,90,109,130,150,171,189,210,230,250,271,289,309,329,349,371,391,410,429,450,470,489,511,531,550,571,591,611,629,650,670,689,709,731,749,771,790,810,831,850,870,889,909,930,949,970,989,1009,1030,1049,1070,1090,1111,1130,1150],"xSR":741.5,"ySR":469.95,"xT1":424.9,"yT1":0,"xT2":1058.1,"yT2":0,"toosoon":0,"cond_shown":"equaldotsize","ratio_trial":900,"smaller_num":"18","larger_num":"20","correct_side":1,"subjID":"gabrielpizzamendez6","gender":"0","age":"9","school":"4"},{"start_time":1552309492469,"click_time":1552309493619,"finger_time":1552309493178,"fix_duration":250,"trial":59,"RT":709,"MT":441,"sideResp":2,"stimulus":"img/900/equaldotsize/L/8_Ratio_900_L_20_R_18.png","xmouse":[764,764,764,764,764,764,764,764,764,764,764,764,764,764,764,764,764,764,764,764,764,764,764,764,764,764,764,764,764,764,764,766,773,790,831,853,873,889,899,918,921,924,926,927,931,932,939,944,948,954,957,960,964,972,1001,1025,1054,1076],"ymouse":[517,517,517,517,517,517,517,517,517,517,517,517,517,517,517,517,517,517,517,517,517,517,517,517,517,517,517,517,517,517,517,517,515,504,474,455,436,416,397,357,345,335,330,324,312,310,302,291,282,269,262,255,246,232,187,147,92,29],"timestamp_mouse":[8,36,49,68,88,109,129,149,168,188,209,230,248,270,289,310,329,349,368,389,409,428,448,469,489,509,530,549,569,589,609,629,648,668,688,709,729,749,768,789,808,829,850,869,895,908,929,949,969,989,1008,1028,1048,1069,1089,1109,1129,1150],"xSR":741.5,"ySR":469.95,"xT1":424.9,"yT1":0,"xT2":1058.1,"yT2":0,"toosoon":0,"cond_shown":"equaldotsize","ratio_trial":900,"smaller_num":"18","larger_num":"20","correct_side":1,"subjID":"gabrielpizzamendez6","gender":"0","age":"9","school":"4"},{"start_time":1552309495509,"click_time":1552309496637,"finger_time":1552309496299,"fix_duration":1050.6020549242053,"trial":60,"RT":790,"MT":338,"sideResp":1,"stimulus":"img/750/equaldotanddens/L/8_Ratio_750_L_4_R_3.png","xmouse":[781,781,781,781,781,781,781,781,781,781,781,781,781,781,781,781,781,781,781,781,781,781,781,781,781,781,781,781,781,781,781,781,781,781,781,780,778,760,745,734,723,708,672,656,634,609,582,540,529,521,517,511,496,484,474,468,463],"ymouse":[513,513,513,513,513,513,513,513,513,513,513,513,513,513,513,513,513,513,513,513,513,513,513,513,513,513,513,513,513,513,513,513,513,513,513,513,513,506,492,479,463,445,406,387,359,325,293,238,224,211,200,188,153,137,119,104,91],"timestamp_mouse":[9,29,50,69,88,108,130,150,169,189,210,228,249,270,289,309,330,348,369,390,409,429,449,470,490,509,529,549,569,589,609,629,649,669,689,709,730,749,770,790,810,830,848,869,890,909,930,948,969,989,1009,1028,1049,1068,1088,1108,1128],"xSR":741.5,"ySR":469.95,"xT1":424.9,"yT1":0,"xT2":1058.1,"yT2":0,"toosoon":0,"cond_shown":"equaldotanddens","ratio_trial":750,"smaller_num":"3","larger_num":"4","correct_side":1,"subjID":"gabrielpizzamendez6","gender":"0","age":"9","school":"4"},{"start_time":1552309498092,"click_time":1552309499137,"finger_time":1552309498778,"fix_duration":632.9916303394706,"trial":61,"RT":686,"MT":359,"sideResp":1,"stimulus":"img/250/equaldotanddens/L/14_Ratio_250_L_12_R_3.png","xmouse":[773,773,773,773,773,773,773,773,773,773,773,773,773,773,773,773,773,773,773,773,773,773,773,773,773,773,773,773,773,773,773,773,774,774,770,762,752,740,707,693,683,678,672,654,645,633,619,603,571,540,522,504,493],"ymouse":[495,495,495,495,495,495,495,495,495,495,495,495,495,495,495,495,495,495,495,495,495,495,495,495,495,495,495,495,495,495,495,495,494,474,461,445,428,411,361,341,328,317,307,284,272,257,238,221,182,153,134,115,96],"timestamp_mouse":[9,26,46,66,87,105,125,147,165,186,205,227,247,266,286,306,326,346,365,386,405,426,446,467,487,506,527,546,566,586,607,627,645,666,686,706,726,746,766,786,805,826,845,866,885,905,925,947,966,987,1005,1025,1045],"xSR":741.5,"ySR":469.95,"xT1":424.9,"yT1":0,"xT2":1058.1,"yT2":0,"toosoon":0,"cond_shown":"equaldotanddens","ratio_trial":250,"smaller_num":"3","larger_num":"12","correct_side":1,"subjID":"gabrielpizzamendez6","gender":"0","age":"9","school":"4"},{"start_time":1552309500979,"click_time":1552309501958,"finger_time":1552309501598,"fix_duration":719.0136280734948,"trial":62,"RT":619,"MT":360,"sideResp":2,"stimulus":"img/750/equaldotsize/R/3_Ratio_750_L_15_R_20.png","xmouse":[823,823,823,823,823,823,823,823,823,823,823,823,823,823,823,823,823,823,823,823,823,823,823,823,823,823,823,823,823,827,836,847,863,877,912,920,925,933,935,947,953,959,966,973,977,987,995,1011,1036,1113],"ymouse":[531,531,531,531,531,531,531,531,531,531,531,531,531,531,531,531,531,531,531,531,531,531,531,531,531,531,531,531,531,525,517,508,494,476,399,365,345,326,313,293,285,279,273,263,255,225,199,130,89,18],"timestamp_mouse":[6,25,48,59,80,100,118,140,160,178,198,218,240,258,279,298,320,339,359,378,398,418,439,459,480,498,520,539,558,579,598,619,639,659,679,698,718,739,758,779,800,819,838,858,878,898,919,938,959,979],"xSR":741.5,"ySR":469.95,"xT1":424.9,"yT1":0,"xT2":1058.1,"yT2":0,"toosoon":0,"cond_shown":"equaldotsize","ratio_trial":750,"smaller_num":"15","larger_num":"20","correct_side":2,"subjID":"gabrielpizzamendez6","gender":"0","age":"9","school":"4"},{"start_time":1552309503811,"click_time":1552309504979,"finger_time":1552309504497,"fix_duration":772.4467963414625,"trial":63,"RT":686,"MT":482,"sideResp":1,"stimulus":"img/500/equaldotanddens/L/13_Ratio_500_L_12_R_6.png","xmouse":[791,791,791,791,791,791,791,791,791,791,791,791,791,791,791,791,791,791,791,791,791,791,791,791,791,791,789,786,783,779,774,769,756,745,738,728,720,701,693,683,668,648,604,575,556,541,526,494,476,460,441,429,420,420,420,423,429,441,445],"ymouse":[541,541,541,541,541,541,541,541,541,541,541,541,541,541,541,541,541,541,541,541,541,541,541,541,541,541,541,541,541,541,540,539,527,510,496,476,456,414,392,367,335,305,253,224,211,202,193,173,160,147,133,125,118,118,118,115,112,103,99],"timestamp_mouse":[9,35,46,67,88,108,127,147,168,187,207,226,247,268,288,307,327,347,366,386,408,428,447,467,487,508,527,547,566,586,607,627,647,667,686,706,726,747,766,787,807,827,846,868,886,906,926,947,967,986,1006,1026,1047,1066,1086,1107,1128,1147,1167],"xSR":741.5,"ySR":469.95,"xT1":424.9,"yT1":0,"xT2":1058.1,"yT2":0,"toosoon":0,"cond_shown":"equaldotanddens","ratio_trial":500,"smaller_num":"6","larger_num":"12","correct_side":1,"subjID":"gabrielpizzamendez6","gender":"0","age":"9","school":"4"},{"start_time":1552309506921,"click_time":1552309508299,"finger_time":1552309507758,"fix_duration":781.7599447702438,"trial":64,"RT":837,"MT":541,"sideResp":2,"stimulus":"img/500/randomdotsizeEA/R/15_Ratio_500_L_1_R_2.png","xmouse":[820,820,820,820,820,820,820,820,820,820,820,820,820,820,820,820,820,820,820,820,820,820,820,820,820,820,820,820,820,820,820,820,820,820,820,820,821,824,825,828,830,836,839,846,853,860,883,896,916,935,957,991,1005,1015,1023,1031,1041,1045,1047,1049,1052,1054,1055,1055,1055,1055,1056,1057,1059],"ymouse":[503,503,503,503,503,503,503,503,503,503,503,503,503,503,503,503,503,503,503,503,503,503,503,503,503,503,503,503,503,503,503,503,503,503,503,503,502,496,493,485,479,466,458,447,437,423,387,368,340,313,280,218,187,164,141,120,90,81,75,70,65,59,59,59,59,59,57,56,55],"timestamp_mouse":[17,37,58,77,98,116,137,157,178,197,218,236,257,278,298,317,336,357,378,398,416,436,458,476,496,518,538,557,578,597,616,638,657,677,696,718,736,757,776,796,817,837,858,877,896,916,937,958,977,996,1016,1037,1056,1077,1096,1116,1137,1157,1176,1198,1218,1236,1256,1277,1297,1316,1337,1356,1377],"xSR":741.5,"ySR":469.95,"xT1":424.9,"yT1":0,"xT2":1058.1,"yT2":0,"toosoon":0,"cond_shown":"randomdotsizeEA","ratio_trial":500,"smaller_num":"1","larger_num":"2","correct_side":2,"subjID":"gabrielpizzamendez6","gender":"0","age":"9","school":"4"},{"start_time":1552309509922,"click_time":1552309511777,"finger_time":1552309511598,"fix_duration":462.68539709160683,"trial":65,"RT":1676,"MT":179,"sideResp":1,"stimulus":"img/900/equaldotanddens/L/2_Ratio_900_L_20_R_18.png","xmouse":[782,782,782,782,782,782,782,782,782,782,782,782,782,782,782,782,782,782,782,782,782,782,782,782,782,782,782,782,782,782,782,782,782,782,782,782,782,782,782,782,782,782,782,782,782,782,782,782,782,782,782,782,782,782,782,782,782,782,782,782,782,782,782,782,782,782,782,782,782,782,782,782,782,782,782,782,782,782,782,782,781,775,766,753,736,717,678,645,623,595,565,530,449],"ymouse":[497,497,497,497,497,497,497,497,497,497,497,497,497,497,497,497,497,497,497,497,497,497,497,497,497,497,497,497,497,497,497,497,497,497,497,497,497,497,497,497,497,497,497,497,497,497,497,497,497,497,497,497,497,497,497,497,497,497,497,497,497,497,497,497,497,497,497,497,497,497,497,497,497,497,497,497,497,497,497,497,495,485,474,458,440,421,389,357,332,299,260,211,98],"timestamp_mouse":[16,37,56,77,96,116,136,155,176,197,215,235,256,276,295,315,336,355,377,396,415,436,457,476,497,516,536,555,577,597,616,635,656,677,695,717,736,757,777,796,816,836,856,877,897,916,936,955,977,996,1016,1036,1056,1077,1096,1