[{"start_time":1552313020487,"click_time":1552313027655,"finger_time":1552313024174,"fix_duration":308.9197538697759,"trial":0,"RT":3687,"MT":3481,"sideResp":2,"stimulus":[],"xmouse":[783,783,783,783,783,783,783,783,783,783,783,783,783,783,783,783,783,783,783,783,783,783,783,783,783,783,783,783,783,783,783,783,783,783,783,783,783,783,783,783,783,783,783,783,783,783,783,783,783,783,783,783,783,783,783,783,783,783,783,783,783,783,783,783,783,783,783,783,783,783,783,783,783,783,783,783,783,783,783,783,783,783,783,783,783,783,783,783,783,783,783,783,783,783,783,783,783,783,783,783,783,783,783,783,783,783,783,783,783,783,783,783,783,783,783,783,783,783,783,783,783,783,783,783,783,783,783,783,783,783,783,783,783,783,783,783,783,783,783,783,783,783,783,783,783,783,783,783,783,783,783,783,783,783,783,783,783,783,783,783,783,783,783,783,783,783,783,783,783,783,783,783,783,783,783,783,783,783,783,783,783,788,805,839,898,929,1006,1058,1081,1104,1135,1210,1210,1210,1210,1210,1262,1257,1243,1234,1226,1215,1208,1205,1203,1200,1198,1198,1197,1197,1197,1193,1176,1150,1100,1062,1025,993,960,919,892,853,845,840,834,826,813,806,792,781,776,764,764,764,764,764,764,764,764,764,764,764,764,764,764,764,764,764,764,764,764,764,764,764,764,764,764,764,764,764,764,764,764,764,764,764,764,764,764,764,764,764,764,764,764,764,764,764,765,765,765,766,766,766,766,767,767,768,769,769,769,769,769,769,769,770,771,773,776,782,789,806,811,818,830,844,876,886,896,906,913,937,973,1032,1109,1193,1372,1451,1520,1535,1535,1535,1535,1535,1531,1525,1505,1494,1473,1454,1436,1424,1413,1404,1402,1400,1383,1370,1364,1353,1345,1327,1319,1308,1297,1284,1266,1263,1260,1259,1258,1255,1252,1248,1240,1226,1189,1161,1143],"ymouse":[524,524,524,524,524,524,524,524,524,524,524,524,524,524,524,524,524,524,524,524,524,524,524,524,524,524,524,524,524,524,524,524,524,524,524,524,524,524,524,524,524,524,524,524,524,524,524,524,524,524,524,524,524,524,524,524,524,524,524,524,524,524,524,524,524,524,524,524,524,524,524,524,524,524,524,524,524,524,524,524,524,524,524,524,524,524,524,524,524,524,524,524,524,524,524,524,524,524,524,524,524,524,524,524,524,524,524,524,524,524,524,524,524,524,524,524,524,524,524,524,524,524,524,524,524,524,524,524,524,524,524,524,524,524,524,524,524,524,524,524,524,524,524,524,524,524,524,524,524,524,524,524,524,524,524,524,524,524,524,524,524,524,524,524,524,524,524,524,524,524,524,524,524,524,524,524,524,524,524,524,524,524,524,528,535,535,535,548,565,594,638,715,715,715,715,715,716,704,683,672,663,651,644,640,637,634,630,629,629,629,629,629,629,629,626,621,606,590,576,559,552,541,537,535,533,532,528,525,520,513,507,498,498,498,498,498,498,498,498,498,498,498,498,498,498,498,498,498,498,498,498,498,498,498,498,498,498,498,498,498,498,498,498,498,498,498,498,498,498,498,498,498,498,498,498,498,498,498,498,498,498,498,498,498,498,498,498,498,499,499,499,499,499,499,499,499,499,500,500,500,500,501,504,505,512,518,534,539,544,547,549,556,566,581,597,608,634,645,655,657,657,657,657,656,651,640,606,589,558,522,488,438,409,388,371,360,328,307,291,275,263,237,223,211,198,185,163,157,152,149,146,141,138,135,130,121,106,98,94],"timestamp_mouse":[8,45,49,68,88,109,127,148,168,188,209,228,248,269,288,308,327,349,368,388,408,427,448,469,488,507,528,549,569,589,609,627,649,669,689,707,727,749,769,789,808,828,848,868,889,908,928,949,969,989,1009,1029,1047,1070,1088,1108,1127,1148,1169,1189,1208,1228,1248,1269,1289,1308,1328,1349,1368,1389,1409,1428,1448,1467,1487,1507,1527,1547,1567,1588,1608,1628,1648,1669,1689,1708,1728,1749,1769,1788,1808,1828,1847,1869,1888,1909,1928,1949,1969,1989,2008,2029,2049,2068,2088,2109,2129,2149,2169,2189,2208,2228,2248,2269,2289,2309,2328,2348,2369,2389,2408,2428,2449,2469,2488,2508,2527,2549,2569,2589,2608,2628,2648,2669,2688,2708,2728,2748,2769,2789,2808,2828,2849,2868,2888,2908,2928,2948,2969,2989,3008,3028,3049,3068,3088,3109,3128,3149,3169,3187,3209,3228,3248,3268,3289,3308,3328,3348,3368,3389,3409,3428,3448,3468,3489,3509,3528,3548,3569,3589,3609,3628,3648,3668,3687,3709,3728,3748,3767,3788,3808,3828,3847,3868,3888,3908,3929,3947,3968,3987,4008,4028,4048,4069,4089,4108,4128,4149,4168,4188,4208,4229,4247,4268,4288,4308,4328,4349,4369,4388,4408,4428,4447,4469,4488,4508,4528,4549,4569,4589,4609,4628,4649,4668,4688,4708,4728,4748,4768,4788,4808,4828,4848,4868,4889,4908,4928,4949,4969,4989,5008,5028,5048,5069,5089,5108,5128,5147,5169,5188,5208,5228,5248,5268,5287,5308,5327,5349,5368,5389,5407,5429,5449,5469,5489,5508,5529,5548,5569,5588,5609,5629,5647,5669,5688,5709,5727,5749,5769,5789,5809,5828,5849,5869,5888,5908,5928,5949,5968,5988,6008,6028,6048,6068,6088,6108,6129,6149,6168,6187,6207,6228,6248,6269,6288,6309,6328,6348,6368,6388,6409,6428,6448,6468,6488,6507,6528,6548,6568,6588,6608,6629,6648,6668,6688,6708,6728,6749,6768,6788,6809,6827,6849,6868,6889,6909,6928,6948,6967,6988,7009,7028,7049,7069,7088,7109,7128,7148,7167],"xSR":741.5,"ySR":500.5,"xT1":424.9,"yT1":0,"xT2":1058.1,"yT2":0,"toosoon":0,"cond_shown":"Incongruent","ratio_trial":300,"L_num":13,"L_den":26,"R_num":12,"R_den":15,"correct_side":2,"subjID":"gabrielpeña30","gender":"0","age":"9","school":"4","test":{"fix_dur":[250,1500],"timestim":1000,"targets_dim":[100,100],"targets_relative_coord":[0.3,0.7],"size_stim":[880,420],"start_dim":[100,100],"size_start":[300,300],"size_fix":60,"samplingrate":20,"img_types":["Congruent","Incongruent"],"ratios":[100,200,300],"rep_conds":19,"nTrials":120,"trials_to_rest":500,"Trials_order":[5,97,39,18,78,6,62,53,17,96,37,60,104,27,98,99,24,77,29,15,114,19,118,71,109,92,73,106,101,108,56,48,16,41,51,110,67,80,12,3,95,82,90,33,50,83,30,23,112,26,91,111,28,116,49,105,9,72,70,8,35,11,45,75,69,68,1,87,74,58,21,38,76,34,93,81,61,63,7,57,103,119,79,47,13,66,14,43,102,107,42,86,55,94,40,0,64,115,2,89,65,113,20,54,32,25,117,85,31,36,4,10,59,84,46,88,100,22,44,52],"cond_shown":["Incongruent","Incongruent","Incongruent","Congruent","Congruent","Congruent","Congruent","Incongruent","Incongruent","Congruent","Incongruent","Congruent","Congruent","Incongruent","Congruent","Incongruent","Congruent","Incongruent","Incongruent","Incongruent","Congruent","Incongruent","Congruent","Incongruent","Incongruent","Congruent","Incongruent","Congruent","Incongruent","Congruent","Congruent","Congruent","Congruent","Incongruent","Incongruent","Congruent","Incongruent","Congruent","Congruent","Incongruent","Incongruent","Congruent","Congruent","Incongruent","Congruent","Incongruent","Congruent","Incongruent","Congruent","Congruent","Incongruent","Incongruent","Congruent","Congruent","Incongruent","Incongruent","Incongruent","Congruent","Congruent","Congruent","Incongruent","Incongruent","Incongruent","Incongruent","Incongruent","Congruent","Incongruent","Incongruent","Congruent","Congruent","Incongruent","Congruent","Congruent","Congruent","Incongruent","Incongruent","Incongruent","Incongruent","Incongruent","Incongruent","Incongruent","Incongruent","Incongruent","Incongruent","Incongruent","Congruent","Congruent","Incongruent","Congruent","Incongruent","Congruent","Congruent","Incongruent","Congruent","Congruent","Congruent","Congruent","Incongruent","Congruent","Incongruent","Incongruent","Incongruent","Congruent","Congruent","Congruent","Incongruent","Incongruent","Incongruent","Incongruent","Congruent","Congruent","Congruent","Incongruent","Congruent","Congruent","Congruent","Congruent","Congruent","Congruent","Congruent"],"ratio_trial":[300,100,200,100,100,100,200,300,300,100,100,100,200,200,200,200,100,300,300,200,100,100,300,300,100,200,100,300,300,100,200,100,300,300,200,200,100,200,100,200,300,300,100,200,200,300,100,300,300,200,100,200,300,200,100,200,200,100,300,200,300,300,200,200,200,200,100,200,200,300,200,200,300,300,200,200,100,200,100,200,100,300,100,300,100,100,200,100,100,300,100,200,100,300,300,100,300,100,200,300,300,300,200,100,200,100,200,100,100,100,300,300,300,100,300,300,300,300,200,300],"left_num":[13,10,14,1,1,11,8,1,1,2,9,6,3,7,8,7,4,4,4,4,3,10,2,1,13,6,17,2,4,6,1,2,11,7,7,3,4,8,12,9,4,20,12,3,1,4,8,4,7,1,8,1,24,13,1,7,3,3,1,12,13,4,4,9,4,3,9,9,3,8,4,12,1,24,7,3,3,4,2,6,3,1,6,4,17,12,6,9,4,4,7,7,6,7,3,7,20,12,16,4,2,1,20,15,7,12,3,11,17,6,3,12,1,3,1,4,20,4,9,4],"right_num":[12,9,6,3,18,6,3,2,3,11,13,5,9,14,2,14,6,2,6,14,2,8,12,2,6,3,10,12,8,15,21,11,2,8,14,11,8,3,13,8,8,13,13,11,21,2,2,8,20,21,6,3,2,14,8,14,1,2,19,6,12,2,14,8,1,9,13,8,9,10,1,6,7,8,12,1,7,1,6,3,4,2,3,6,10,13,7,6,6,6,9,18,11,20,4,9,5,2,12,8,6,2,9,13,2,2,11,9,10,5,11,2,2,2,19,2,14,13,13,13],"left_den":[26,25,30,2,2,22,15,2,2,5,15,20,12,10,15,10,8,20,5,6,6,25,10,2,26,15,30,10,5,12,2,5,22,10,10,10,8,15,30,15,5,25,30,4,2,20,16,5,14,2,16,2,30,26,2,10,10,6,3,20,26,20,6,15,30,12,15,15,12,15,30,15,20,30,10,10,9,30,4,20,6,2,12,5,30,30,12,18,8,5,14,15,10,14,6,14,25,30,20,5,4,2,25,25,21,30,4,22,30,20,12,24,2,6,3,5,25,20,30,20],"right_den":[15,18,9,5,30,15,9,10,15,22,26,25,20,28,6,28,10,4,12,30,5,16,24,10,10,15,15,24,16,25,30,22,10,20,28,22,20,9,26,10,16,26,26,20,30,4,5,16,25,30,10,10,4,20,20,28,2,5,30,15,15,4,30,10,3,20,26,10,20,12,3,10,20,16,24,2,30,3,15,6,10,10,5,12,15,26,10,10,10,12,15,27,22,25,5,15,10,4,20,16,30,10,15,26,15,4,20,15,15,25,20,10,10,5,30,4,28,26,26,26],"correct_side":[2,2,2,2,2,1,1,1,1,2,1,1,2,1,1,1,2,2,1,1,1,2,2,1,2,1,2,2,1,2,2,2,1,1,1,2,1,1,2,2,1,1,2,1,2,2,1,1,2,2,2,1,1,2,1,1,2,1,2,1,2,2,1,2,2,2,1,2,2,2,2,1,2,1,1,2,1,2,1,2,1,1,2,1,2,2,2,2,2,1,2,2,1,2,2,2,1,2,1,1,1,1,1,1,1,2,1,2,2,1,2,1,1,1,2,1,1,2,2,2],"img_shown":["img2/300/Incongruent/R/I_Dist_300_LN_13_LD_26_RN_12_RD_15_1.png","img2/100/Incongruent/R/I_Dist_100_LN_10_LD_25_RN_9_RD_18_1.png","img2/200/Incongruent/R/I_Dist_200_LN_14_LD_30_RN_6_RD_9_1.png","img2/100/Congruent/R/C_Dist_100_LN_1_LD_2_RN_3_RD_5_1.png","img2/100/Congruent/R/C_Dist_100_LN_1_LD_2_RN_18_RD_30_1.png","img2/100/Congruent/L/C_Dist_100_LN_11_LD_22_RN_6_RD_15_0.png","img2/200/Congruent/L/C_Dist_200_LN_8_LD_15_RN_3_RD_9_0.png","img2/300/Incongruent/L/I_Dist_300_LN_1_LD_2_RN_2_RD_10_0.png","img2/300/Incongruent/L/I_Dist_300_LN_1_LD_2_RN_3_RD_15_0.png","img2/100/Congruent/R/C_Dist_100_LN_2_LD_5_RN_11_RD_22_1.png","img2/100/Incongruent/L/I_Dist_100_LN_9_LD_15_RN_13_RD_26_0.png","img2/100/Congruent/L/C_Dist_100_LN_6_LD_20_RN_5_RD_25_0.png","img2/200/Congruent/R/C_Dist_200_LN_3_LD_12_RN_9_RD_20_1.png","img2/200/Incongruent/L/I_Dist_200_LN_7_LD_10_RN_14_RD_28_0.png","img2/200/Congruent/L/C_Dist_200_LN_8_LD_15_RN_2_RD_6_0.png","img2/200/Incongruent/L/I_Dist_200_LN_7_LD_10_RN_14_RD_28_0.png","img2/100/Congruent/R/C_Dist_100_LN_4_LD_8_RN_6_RD_10_1.png","img2/300/Incongruent/R/I_Dist_300_LN_4_LD_20_RN_2_RD_4_1.png","img2/300/Incongruent/L/I_Dist_300_LN_4_LD_5_RN_6_RD_12_0.png","img2/200/Incongruent/L/I_Dist_200_LN_4_LD_6_RN_14_RD_30_0.png","img2/100/Congruent/L/C_Dist_100_LN_3_LD_6_RN_2_RD_5_0.png","img2/100/Incongruent/R/I_Dist_100_LN_10_LD_25_RN_8_RD_16_1.png","img2/300/Congruent/R/C_Dist_300_LN_2_LD_10_RN_12_RD_24_1.png","img2/300/Incongruent/L/I_Dist_300_LN_1_LD_2_RN_2_RD_10_0.png","img2/100/Incongruent/R/I_Dist_100_LN_13_LD_26_RN_6_RD_10_1.png","img2/200/Congruent/L/C_Dist_200_LN_6_LD_15_RN_3_RD_15_0.png","img2/100/Incongruent/R/I_Dist_100_LN_17_LD_30_RN_10_RD_15_1.png","img2/300/Congruent/R/C_Dist_300_LN_2_LD_10_RN_12_RD_24_1.png","img2/300/Incongruent/L/I_Dist_300_LN_4_LD_5_RN_8_RD_16_0.png","img2/100/Congruent/R/C_Dist_100_LN_6_LD_12_RN_15_RD_25_1.png","img2/200/Congruent/R/C_Dist_200_LN_1_LD_2_RN_21_RD_30_1.png","img2/100/Congruent/R/C_Dist_100_LN_2_LD_5_RN_11_RD_22_1.png","img2/300/Congruent/L/C_Dist_300_LN_11_LD_22_RN_2_RD_10_0.png","img2/300/Incongruent/L/I_Dist_300_LN_7_LD_10_RN_8_RD_20_0.png","img2/200/Incongruent/L/I_Dist_200_LN_7_LD_10_RN_14_RD_28_0.png","img2/200/Congruent/R/C_Dist_200_LN_3_LD_10_RN_11_RD_22_1.png","img2/100/Incongruent/L/I_Dist_100_LN_4_LD_8_RN_8_RD_20_0.png","img2/200/Congruent/L/C_Dist_200_LN_8_LD_15_RN_3_RD_9_0.png","img2/100/Congruent/R/C_Dist_100_LN_12_LD_30_RN_13_RD_26_1.png","img2/200/Incongruent/R/I_Dist_200_LN_9_LD_15_RN_8_RD_10_1.png","img2/300/Incongruent/L/I_Dist_300_LN_4_LD_5_RN_8_RD_16_0.png","img2/300/Congruent/L/C_Dist_300_LN_20_LD_25_RN_13_RD_26_0.png","img2/100/Congruent/R/C_Dist_100_LN_12_LD_30_RN_13_RD_26_1.png","img2/200/Incongruent/L/I_Dist_200_LN_3_LD_4_RN_11_RD_20_0.png","img2/200/Congruent/R/C_Dist_200_LN_1_LD_2_RN_21_RD_30_1.png","img2/300/Incongruent/R/I_Dist_300_LN_4_LD_20_RN_2_RD_4_1.png","img2/100/Congruent/L/C_Dist_100_LN_8_LD_16_RN_2_RD_5_0.png","img2/300/Incongruent/L/I_Dist_300_LN_4_LD_5_RN_8_RD_16_0.png","img2/300/Congruent/R/C_Dist_300_LN_7_LD_14_RN_20_RD_25_1.png","img2/200/Congruent/R/C_Dist_200_LN_1_LD_2_RN_21_RD_30_1.png","img2/100/Incongruent/R/I_Dist_100_LN_8_LD_16_RN_6_RD_10_1.png","img2/200/Incongruent/L/I_Dist_200_LN_1_LD_2_RN_3_RD_10_0.png","img2/300/Congruent/L/C_Dist_300_LN_24_LD_30_RN_2_RD_4_0.png","img2/200/Congruent/R/C_Dist_200_LN_13_LD_26_RN_14_RD_20_1.png","img2/100/Incongruent/L/I_Dist_100_LN_1_LD_2_RN_8_RD_20_0.png","img2/200/Incongruent/L/I_Dist_200_LN_7_LD_10_RN_14_RD_28_0.png","img2/200/Incongruent/R/I_Dist_200_LN_3_LD_10_RN_1_RD_2_1.png","img2/100/Congruent/L/C_Dist_100_LN_3_LD_6_RN_2_RD_5_0.png","img2/300/Congruent/R/C_Dist_300_LN_1_LD_3_RN_19_RD_30_1.png","img2/200/Congruent/L/C_Dist_200_LN_12_LD_20_RN_6_RD_15_0.png","img2/300/Incongruent/R/I_Dist_300_LN_13_LD_26_RN_12_RD_15_1.png","img2/300/Incongruent/R/I_Dist_300_LN_4_LD_20_RN_2_RD_4_1.png","img2/200/Incongruent/L/I_Dist_200_LN_4_LD_6_RN_14_RD_30_0.png","img2/200/Incongruent/R/I_Dist_200_LN_9_LD_15_RN_8_RD_10_1.png","img2/200/Incongruent/R/I_Dist_200_LN_4_LD_30_RN_1_RD_3_1.png","img2/200/Congruent/R/C_Dist_200_LN_3_LD_12_RN_9_RD_20_1.png","img2/100/Incongruent/L/I_Dist_100_LN_9_LD_15_RN_13_RD_26_0.png","img2/200/Incongruent/R/I_Dist_200_LN_9_LD_15_RN_8_RD_10_1.png","img2/200/Congruent/R/C_Dist_200_LN_3_LD_12_RN_9_RD_20_1.png","img2/300/Congruent/R/C_Dist_300_LN_8_LD_15_RN_10_RD_12_1.png","img2/200/Incongruent/R/I_Dist_200_LN_4_LD_30_RN_1_RD_3_1.png","img2/200/Congruent/L/C_Dist_200_LN_12_LD_15_RN_6_RD_10_0.png","img2/300/Congruent/R/C_Dist_300_LN_1_LD_20_RN_7_RD_20_1.png","img2/300/Congruent/L/C_Dist_300_LN_24_LD_30_RN_8_RD_16_0.png","img2/200/Incongruent/L/I_Dist_200_LN_7_LD_10_RN_12_RD_24_0.png","img2/200/Incongruent/R/I_Dist_200_LN_3_LD_10_RN_1_RD_2_1.png","img2/100/Incongruent/L/I_Dist_100_LN_3_LD_9_RN_7_RD_30_0.png","img2/200/Incongruent/R/I_Dist_200_LN_4_LD_30_RN_1_RD_3_1.png","img2/100/Incongruent/L/I_Dist_100_LN_2_LD_4_RN_6_RD_15_0.png","img2/200/Incongruent/R/I_Dist_200_LN_6_LD_20_RN_3_RD_6_1.png","img2/100/Incongruent/L/I_Dist_100_LN_3_LD_6_RN_4_RD_10_0.png","img2/300/Incongruent/L/I_Dist_300_LN_1_LD_2_RN_2_RD_10_0.png","img2/100/Incongruent/R/I_Dist_100_LN_6_LD_12_RN_3_RD_5_1.png","img2/300/Incongruent/L/I_Dist_300_LN_4_LD_5_RN_6_RD_12_0.png","img2/100/Incongruent/R/I_Dist_100_LN_17_LD_30_RN_10_RD_15_1.png","img2/100/Congruent/R/C_Dist_100_LN_12_LD_30_RN_13_RD_26_1.png","img2/200/Congruent/R/C_Dist_200_LN_6_LD_12_RN_7_RD_10_1.png","img2/100/Incongruent/R/I_Dist_100_LN_9_LD_18_RN_6_RD_10_1.png","img2/100/Congruent/R/C_Dist_100_LN_4_LD_8_RN_6_RD_10_1.png","img2/300/Incongruent/L/I_Dist_300_LN_4_LD_5_RN_6_RD_12_0.png","img2/100/Congruent/R/C_Dist_100_LN_7_LD_14_RN_9_RD_15_1.png","img2/200/Congruent/R/C_Dist_200_LN_7_LD_15_RN_18_RD_27_1.png","img2/100/Incongruent/L/I_Dist_100_LN_6_LD_10_RN_11_RD_22_0.png","img2/300/Congruent/R/C_Dist_300_LN_7_LD_14_RN_20_RD_25_1.png","img2/300/Congruent/R/C_Dist_300_LN_3_LD_6_RN_4_RD_5_1.png","img2/100/Congruent/R/C_Dist_100_LN_7_LD_14_RN_9_RD_15_1.png","img2/300/Congruent/L/C_Dist_300_LN_20_LD_25_RN_5_RD_10_0.png","img2/100/Incongruent/R/I_Dist_100_LN_12_LD_30_RN_2_RD_4_1.png","img2/200/Congruent/L/C_Dist_200_LN_16_LD_20_RN_12_RD_20_0.png","img2/300/Incongruent/L/I_Dist_300_LN_4_LD_5_RN_8_RD_16_0.png","img2/300/Incongruent/L/I_Dist_300_LN_2_LD_4_RN_6_RD_30_0.png","img2/300/Incongruent/L/I_Dist_300_LN_1_LD_2_RN_2_RD_10_0.png","img2/200/Congruent/L/C_Dist_200_LN_20_LD_25_RN_9_RD_15_0.png","img2/100/Congruent/L/C_Dist_100_LN_15_LD_25_RN_13_RD_26_0.png","img2/200/Congruent/L/C_Dist_200_LN_7_LD_21_RN_2_RD_15_0.png","img2/100/Incongruent/R/I_Dist_100_LN_12_LD_30_RN_2_RD_4_1.png","img2/200/Incongruent/L/I_Dist_200_LN_3_LD_4_RN_11_RD_20_0.png","img2/100/Incongruent/R/I_Dist_100_LN_11_LD_22_RN_9_RD_15_1.png","img2/100/Incongruent/R/I_Dist_100_LN_17_LD_30_RN_10_RD_15_1.png","img2/100/Congruent/L/C_Dist_100_LN_6_LD_20_RN_5_RD_25_0.png","img2/300/Congruent/R/C_Dist_300_LN_3_LD_12_RN_11_RD_20_1.png","img2/300/Congruent/L/C_Dist_300_LN_12_LD_24_RN_2_RD_10_0.png","img2/300/Incongruent/L/I_Dist_300_LN_1_LD_2_RN_2_RD_10_0.png","img2/100/Congruent/L/C_Dist_100_LN_3_LD_6_RN_2_RD_5_0.png","img2/300/Congruent/R/C_Dist_300_LN_1_LD_3_RN_19_RD_30_1.png","img2/300/Congruent/L/C_Dist_300_LN_4_LD_5_RN_2_RD_4_0.png","img2/300/Congruent/L/C_Dist_300_LN_20_LD_25_RN_14_RD_28_0.png","img2/300/Congruent/R/C_Dist_300_LN_4_LD_20_RN_13_RD_26_1.png","img2/200/Congruent/R/C_Dist_200_LN_9_LD_30_RN_13_RD_26_1.png","img2/300/Congruent/R/C_Dist_300_LN_4_LD_20_RN_13_RD_26_1.png"],"dist100_C":[["C_Dist_100_LN_10_LD_25_RN_3_RD_10_0.png","C_Dist_100_LN_11_LD_22_RN_4_RD_10_0.png","C_Dist_100_LN_11_LD_22_RN_6_RD_15_0.png","C_Dist_100_LN_15_LD_25_RN_13_RD_26_0.png","C_Dist_100_LN_3_LD_6_RN_2_RD_5_0.png","C_Dist_100_LN_6_LD_20_RN_5_RD_25_0.png","C_Dist_100_LN_8_LD_16_RN_2_RD_5_0.png","C_Dist_100_LN_9_LD_15_RN_8_RD_16_0.png"],["C_Dist_100_LN_1_LD_2_RN_18_RD_30_1.png","C_Dist_100_LN_1_LD_2_RN_3_RD_5_1.png","C_Dist_100_LN_12_LD_30_RN_13_RD_26_1.png","C_Dist_100_LN_2_LD_5_RN_11_RD_22_1.png","C_Dist_100_LN_2_LD_5_RN_6_RD_12_1.png","C_Dist_100_LN_3_LD_20_RN_4_RD_16_1.png","C_Dist_100_LN_4_LD_10_RN_15_RD_30_1.png","C_Dist_100_LN_4_LD_8_RN_6_RD_10_1.png","C_Dist_100_LN_6_LD_12_RN_15_RD_25_1.png","C_Dist_100_LN_7_LD_14_RN_15_RD_25_1.png","C_Dist_100_LN_7_LD_14_RN_9_RD_15_1.png"]],"dist100_I":[["I_Dist_100_LN_1_LD_2_RN_8_RD_20_0.png","I_Dist_100_LN_2_LD_4_RN_6_RD_15_0.png","I_Dist_100_LN_2_LD_4_RN_8_RD_20_0.png","I_Dist_100_LN_3_LD_5_RN_11_RD_22_0.png","I_Dist_100_LN_3_LD_5_RN_8_RD_16_0.png","I_Dist_100_LN_3_LD_6_RN_4_RD_10_0.png","I_Dist_100_LN_3_LD_9_RN_7_RD_30_0.png","I_Dist_100_LN_4_LD_8_RN_8_RD_20_0.png","I_Dist_100_LN_6_LD_10_RN_11_RD_22_0.png","I_Dist_100_LN_6_LD_10_RN_13_RD_26_0.png","I_Dist_100_LN_6_LD_10_RN_7_RD_14_0.png","I_Dist_100_LN_9_LD_10_RN_20_RD_25_0.png","I_Dist_100_LN_9_LD_15_RN_13_RD_26_0.png","I_Dist_100_LN_9_LD_15_RN_14_RD_28_0.png"],["I_Dist_100_LN_10_LD_25_RN_8_RD_16_1.png","I_Dist_100_LN_10_LD_25_RN_9_RD_18_1.png","I_Dist_100_LN_11_LD_22_RN_9_RD_15_1.png","I_Dist_100_LN_12_LD_24_RN_9_RD_15_1.png","I_Dist_100_LN_12_LD_30_RN_2_RD_4_1.png","I_Dist_100_LN_13_LD_26_RN_12_RD_20_1.png","I_Dist_100_LN_13_LD_26_RN_6_RD_10_1.png","I_Dist_100_LN_17_LD_30_RN_10_RD_15_1.png","I_Dist_100_LN_6_LD_12_RN_3_RD_5_1.png","I_Dist_100_LN_8_LD_16_RN_6_RD_10_1.png","I_Dist_100_LN_8_LD_20_RN_1_RD_2_1.png","I_Dist_100_LN_9_LD_18_RN_6_RD_10_1.png"]],"dist100_S":[["E_Dist_100_LN_2_LD_12_RN_2_RD_30_0.png","E_Dist_100_LN_6_LD_10_RN_6_RD_12_0.png"],["E_Dist_100_LN_6_LD_12_RN_6_RD_10_1.png"]],"dist200_C":[["C_Dist_200_LN_11_LD_22_RN_3_RD_10_0.png","C_Dist_200_LN_12_LD_15_RN_6_RD_10_0.png","C_Dist_200_LN_12_LD_20_RN_6_RD_15_0.png","C_Dist_200_LN_14_LD_28_RN_6_RD_20_0.png","C_Dist_200_LN_15_LD_25_RN_4_RD_10_0.png","C_Dist_200_LN_16_LD_20_RN_12_RD_20_0.png","C_Dist_200_LN_16_LD_30_RN_9_RD_27_0.png","C_Dist_200_LN_20_LD_25_RN_9_RD_15_0.png","C_Dist_200_LN_21_LD_30_RN_2_RD_4_0.png","C_Dist_200_LN_4_LD_10_RN_3_RD_15_0.png","C_Dist_200_LN_4_LD_8_RN_3_RD_10_0.png","C_Dist_200_LN_6_LD_15_RN_3_RD_15_0.png","C_Dist_200_LN_7_LD_21_RN_2_RD_15_0.png","C_Dist_200_LN_8_LD_15_RN_2_RD_6_0.png","C_Dist_200_LN_8_LD_15_RN_3_RD_9_0.png","C_Dist_200_LN_8_LD_15_RN_7_RD_21_0.png","C_Dist_200_LN_9_LD_20_RN_4_RD_16_0.png"],["C_Dist_200_LN_1_LD_2_RN_21_RD_30_1.png","C_Dist_200_LN_13_LD_26_RN_14_RD_20_1.png","C_Dist_200_LN_3_LD_10_RN_11_RD_22_1.png","C_Dist_200_LN_3_LD_10_RN_14_RD_28_1.png","C_Dist_200_LN_3_LD_10_RN_7_RD_14_1.png","C_Dist_200_LN_3_LD_12_RN_9_RD_20_1.png","C_Dist_200_LN_3_LD_6_RN_14_RD_20_1.png","C_Dist_200_LN_5_LD_10_RN_14_RD_20_1.png","C_Dist_200_LN_6_LD_12_RN_7_RD_10_1.png","C_Dist_200_LN_6_LD_20_RN_11_RD_22_1.png","C_Dist_200_LN_7_LD_15_RN_18_RD_27_1.png","C_Dist_200_LN_9_LD_30_RN_13_RD_26_1.png"]],"dist200_I":[["I_Dist_200_LN_1_LD_2_RN_3_RD_10_0.png","I_Dist_200_LN_1_LD_3_RN_2_RD_15_0.png","I_Dist_200_LN_3_LD_4_RN_11_RD_20_0.png","I_Dist_200_LN_4_LD_5_RN_6_RD_10_0.png","I_Dist_200_LN_4_LD_6_RN_14_RD_30_0.png","I_Dist_200_LN_7_LD_10_RN_12_RD_24_0.png","I_Dist_200_LN_7_LD_10_RN_14_RD_28_0.png","I_Dist_200_LN_7_LD_10_RN_8_RD_16_0.png"],["I_Dist_200_LN_11_LD_20_RN_3_RD_4_1.png","I_Dist_200_LN_14_LD_30_RN_12_RD_18_1.png","I_Dist_200_LN_14_LD_30_RN_6_RD_9_1.png","I_Dist_200_LN_3_LD_10_RN_1_RD_2_1.png","I_Dist_200_LN_4_LD_30_RN_1_RD_3_1.png","I_Dist_200_LN_6_LD_20_RN_3_RD_6_1.png","I_Dist_200_LN_7_LD_15_RN_4_RD_6_1.png","I_Dist_200_LN_7_LD_15_RN_6_RD_9_1.png","I_Dist_200_LN_9_LD_15_RN_8_RD_10_1.png"]],"dist200_S":[["E_Dist_200_LN_3_LD_6_RN_3_RD_10_0.png"],["E_Dist_200_LN_3_LD_10_RN_3_RD_6_1.png"]],"dist300_C":[["C_Dist_300_LN_11_LD_22_RN_1_RD_5_0.png","C_Dist_300_LN_11_LD_22_RN_2_RD_10_0.png","C_Dist_300_LN_11_LD_22_RN_4_RD_20_0.png","C_Dist_300_LN_12_LD_24_RN_2_RD_10_0.png","C_Dist_300_LN_18_LD_20_RN_9_RD_15_0.png","C_Dist_300_LN_20_LD_25_RN_13_RD_26_0.png","C_Dist_300_LN_20_LD_25_RN_14_RD_28_0.png","C_Dist_300_LN_20_LD_25_RN_5_RD_10_0.png","C_Dist_300_LN_20_LD_25_RN_8_RD_16_0.png","C_Dist_300_LN_20_LD_25_RN_9_RD_18_0.png","C_Dist_300_LN_24_LD_30_RN_2_RD_4_0.png","C_Dist_300_LN_24_LD_30_RN_8_RD_16_0.png","C_Dist_300_LN_3_LD_6_RN_2_RD_10_0.png","C_Dist_300_LN_4_LD_10_RN_1_RD_10_0.png","C_Dist_300_LN_4_LD_5_RN_2_RD_4_0.png","C_Dist_300_LN_8_LD_16_RN_1_RD_5_0.png","C_Dist_300_LN_9_LD_10_RN_3_RD_5_0.png"],["C_Dist_300_LN_1_LD_20_RN_7_RD_20_1.png","C_Dist_300_LN_1_LD_3_RN_19_RD_30_1.png","C_Dist_300_LN_1_LD_30_RN_8_RD_24_1.png","C_Dist_300_LN_1_LD_5_RN_11_RD_22_1.png","C_Dist_300_LN_1_LD_5_RN_3_RD_6_1.png","C_Dist_300_LN_1_LD_5_RN_6_RD_12_1.png","C_Dist_300_LN_2_LD_10_RN_12_RD_24_1.png","C_Dist_300_LN_2_LD_20_RN_10_RD_25_1.png","C_Dist_300_LN_3_LD_12_RN_11_RD_20_1.png","C_Dist_300_LN_3_LD_6_RN_4_RD_5_1.png","C_Dist_300_LN_4_LD_20_RN_13_RD_26_1.png","C_Dist_300_LN_5_LD_25_RN_6_RD_12_1.png","C_Dist_300_LN_5_LD_25_RN_7_RD_14_1.png","C_Dist_300_LN_7_LD_14_RN_20_RD_25_1.png","C_Dist_300_LN_8_LD_15_RN_10_RD_12_1.png"]],"dist300_I":[["I_Dist_300_LN_1_LD_2_RN_2_RD_10_0.png","I_Dist_300_LN_1_LD_2_RN_3_RD_15_0.png","I_Dist_300_LN_2_LD_4_RN_6_RD_30_0.png","I_Dist_300_LN_3_LD_6_RN_4_RD_20_0.png","I_Dist_300_LN_4_LD_5_RN_6_RD_12_0.png","I_Dist_300_LN_4_LD_5_RN_8_RD_16_0.png","I_Dist_300_LN_7_LD_10_RN_8_RD_20_0.png","I_Dist_300_LN_8_LD_10_RN_14_RD_28_0.png","I_Dist_300_LN_8_LD_10_RN_9_RD_18_0.png"],["I_Dist_300_LN_13_LD_26_RN_12_RD_15_1.png","I_Dist_300_LN_4_LD_20_RN_2_RD_4_1.png"]],"dist300_S":[["E_Dist_300_LN_9_LD_12_RN_9_RD_20_0.png"],["E_Dist_300_LN_18_LD_30_RN_18_RD_20_1.png","E_Dist_300_LN_3_LD_10_RN_3_RD_5_1.png","E_Dist_300_LN_9_LD_20_RN_9_RD_12_1.png"]],"dist500_C":[["C_Dist_500_LN_10_LD_13_RN_7_RD_26_0.png","C_Dist_500_LN_10_LD_15_RN_4_RD_24_0.png","C_Dist_500_LN_12_LD_16_RN_3_RD_12_0.png","C_Dist_500_LN_12_LD_18_RN_4_RD_24_0.png","C_Dist_500_LN_15_LD_18_RN_5_RD_15_0.png","C_Dist_500_LN_15_LD_20_RN_1_RD_4_0.png","C_Dist_500_LN_18_LD_27_RN_1_RD_6_0.png","C_Dist_500_LN_20_LD_24_RN_1_RD_3_0.png","C_Dist_500_LN_20_LD_24_RN_3_RD_9_0.png","C_Dist_500_LN_20_LD_24_RN_7_RD_21_0.png","C_Dist_500_LN_20_LD_28_RN_3_RD_14_0.png","C_Dist_500_LN_21_LD_28_RN_6_RD_24_0.png","C_Dist_500_LN_22_LD_28_RN_2_RD_7_0.png","C_Dist_500_LN_25_LD_30_RN_9_RD_27_0.png","C_Dist_500_LN_4_LD_6_RN_1_RD_6_0.png","C_Dist_500_LN_5_LD_6_RN_2_RD_6_0.png","C_Dist_500_LN_6_LD_9_RN_1_RD_6_0.png","C_Dist_500_LN_7_LD_10_RN_1_RD_5_0.png","C_Dist_500_LN_8_LD_12_RN_1_RD_6_0.png","C_Dist_500_LN_8_LD_12_RN_4_RD_24_0.png"],["C_Dist_500_LN_1_LD_4_RN_12_RD_16_1.png","C_Dist_500_LN_1_LD_4_RN_9_RD_12_1.png","C_Dist_500_LN_1_LD_9_RN_11_RD_18_1.png","C_Dist_500_LN_10_LD_24_RN_22_RD_24_1.png","C_Dist_500_LN_2_LD_12_RN_10_RD_15_1.png","C_Dist_500_LN_2_LD_12_RN_12_RD_18_1.png","C_Dist_500_LN_2_LD_12_RN_4_RD_6_1.png","C_Dist_500_LN_2_LD_24_RN_7_RD_12_1.png","C_Dist_500_LN_2_LD_5_RN_18_RD_20_1.png","C_Dist_500_LN_2_LD_5_RN_9_RD_10_1.png","C_Dist_500_LN_2_LD_8_RN_12_RD_16_1.png","C_Dist_500_LN_2_LD_8_RN_21_RD_28_1.png","C_Dist_500_LN_3_LD_10_RN_4_RD_5_1.png","C_Dist_500_LN_3_LD_12_RN_15_RD_20_1.png","C_Dist_500_LN_3_LD_30_RN_6_RD_10_1.png","C_Dist_500_LN_3_LD_8_RN_14_RD_16_1.png","C_Dist_500_LN_4_LD_16_RN_15_RD_20_1.png","C_Dist_500_LN_4_LD_24_RN_12_RD_18_1.png","C_Dist_500_LN_5_LD_14_RN_6_RD_7_1.png","C_Dist_500_LN_7_LD_21_RN_20_RD_24_1.png","C_Dist_500_LN_7_LD_28_RN_12_RD_16_1.png","C_Dist_500_LN_7_LD_28_RN_9_RD_12_1.png","C_Dist_500_LN_9_LD_27_RN_20_RD_24_1.png"]],"dist500_I":[["I_Dist_500_LN_2_LD_3_RN_4_RD_24_0.png","I_Dist_500_LN_5_LD_6_RN_6_RD_18_0.png","I_Dist_500_LN_7_LD_8_RN_9_RD_24_0.png"],["I_Dist_500_LN_7_LD_21_RN_5_RD_6_1.png"]],"dist500_S":[["E_Dist_500_LN_6_LD_8_RN_6_RD_24_0.png"],["E_Dist_500_LN_2_LD_12_RN_2_RD_3_1.png","E_Dist_500_LN_6_LD_24_RN_6_RD_8_1.png"]]}},{"start_time":1552313029594,"click_time":1552313032677,"finger_time":1552313032095,"fix_duration":958.0579949512445,"trial":1,"RT":2501,"MT":582,"sideResp":2,"stimulus":[],"xmouse":[763,763,763,763,763,763,763,763,763,763,763,763,763,763,763,763,763,763,763,763,763,763,763,763,763,764,764,764,764,764,764,764,764,764,764,764,764,764,764,764,764,764,764,764,764,764,764,764,764,764,764,764,764,764,764,764,764,764,764,764,764,764,764,764,764,764,764,764,764,765,765,765,766,766,766,766,766,766,766,766,766,766,766,766,766,766,766,766,766,766,766,766,766,766,766,766,766,766,766,766,766,766,766,766,766,766,766,766,766,766,766,766,766,766,766,766,766,766,766,766,766,771,786,800,817,837,895,941,992,1033,1048,1055,1057,1058,1058,1058,1058,1058,1058,1059,1063,1075,1080,1083,1083,1082,1082,1082,1082,1083,1083,1084,1087,1092,1096],"ymouse":[531,531,531,531,531,531,531,531,531,531,531,531,531,531,531,531,531,531,531,531,531,531,531,531,531,531,531,530,530,530,530,530,530,530,530,530,530,530,530,530,530,530,530,530,530,530,530,530,530,530,530,530,530,530,530,530,530,530,530,530,530,530,530,530,530,530,530,529,528,527,526,526,525,525,525,525,525,525,525,525,525,525,525,525,525,525,525,525,525,525,525,525,525,525,525,525,525,525,525,525,525,525,525,525,525,525,525,525,525,525,525,525,525,525,525,525,525,525,525,525,525,519,504,492,479,464,414,373,327,283,255,222,216,214,214,214,214,214,214,214,209,185,168,151,133,123,114,112,111,110,110,110,108,103,97],"timestamp_mouse":[10,21,41,62,81,100,122,142,162,181,202,222,241,262,282,301,322,340,362,381,402,421,441,461,482,501,521,540,561,582,601,621,642,662,682,701,721,742,762,781,801,821,842,862,882,901,921,941,962,981,1002,1021,1042,1060,1082,1101,1121,1141,1161,1181,1201,1221,1242,1262,1282,1301,1321,1341,1362,1381,1401,1422,1441,1462,1481,1501,1520,1541,1562,1581,1601,1620,1641,1662,1682,1700,1722,1741,1761,1782,1802,1821,1842,1861,1882,1901,1921,1940,1962,1982,2002,2021,2041,2062,2082,2102,2121,2142,2161,2182,2201,2221,2241,2260,2281,2301,2321,2342,2362,2381,2401,2421,2442,2461,2482,2501,2521,2541,2561,2581,2601,2621,2641,2662,2680,2701,2721,2742,2761,2781,2802,2821,2842,2861,2881,2902,2921,2942,2962,2981,3002,3021,3042,3061,3082],"xSR":741.5,"ySR":469.95,"xT1":424.9,"yT1":0,"xT2":1058.1,"yT2":0,"toosoon":0,"cond_shown":"Incongruent","ratio_trial":100,"L_num":10,"L_den":25,"R_num":9,"R_den":18,"correct_side":2,"subjID":"gabrielpeña30","gender":"0","school":"4","age":"9"},{"start_time":1552313034313,"click_time":1552313036655,"finger_time":1552313036076,"fix_duration":714.9034607356183,"trial":2,"RT":1763,"MT":579,"sideResp":2,"stimulus":[],"xmouse":[809,809,809,809,809,809,809,809,809,809,809,809,809,809,809,809,809,809,809,809,809,809,809,809,809,809,809,809,809,809,809,809,809,809,809,809,809,809,809,809,809,807,807,806,805,804,803,803,803,803,803,803,803,803,803,803,803,803,803,803,803,803,803,803,803,803,803,803,803,803,803,803,803,803,803,803,803,803,803,803,803,803,803,803,803,803,803,815,829,844,888,919,944,967,989,1011,1017,1022,1025,1025,1029,1033,1037,1042,1043,1043,1043,1043,1045,1046,1050,1052,1053,1053,1053,1053,1056,1059],"ymouse":[499,499,499,499,499,499,499,499,499,499,499,499,499,499,499,499,499,499,499,499,499,499,499,499,499,499,499,499,499,499,499,499,499,499,499,499,499,499,499,499,499,499,499,499,498,498,498,497,497,497,497,497,497,497,497,497,497,497,497,497,497,497,497,497,497,497,497,497,497,497,497,497,497,497,497,497,497,497,497,497,497,497,497,497,497,497,494,480,466,449,389,341,287,233,181,116,95,82,77,74,68,64,60,57,57,57,57,57,57,57,56,56,55,55,55,55,55,54],"timestamp_mouse":[13,27,42,74,83,102,122,143,162,182,202,222,241,263,282,301,323,342,362,381,402,422,441,462,482,502,523,542,563,583,603,622,642,663,682,701,722,743,763,783,803,822,843,861,882,902,923,943,963,982,1001,1023,1043,1062,1082,1102,1123,1142,1162,1183,1202,1222,1241,1263,1283,1302,1322,1341,1362,1382,1402,1422,1442,1462,1483,1502,1522,1542,1563,1582,1602,1623,1642,1663,1682,1702,1722,1742,1763,1782,1802,1822,1842,1862,1883,1902,1921,1942,1963,1982,2002,2022,2042,2062,2081,2102,2123,2142,2162,2182,2202,2222,2242,2262,2282,2302,2322,2342],"xSR":741.5,"ySR":469.95,"xT1":424.9,"yT1":0,"xT2":1058.1,"yT2":0,"toosoon":0,"cond_shown":"Incongruent","ratio_trial":200,"L_num":14,"L_den":30,"R_num":6,"R_den":9,"correct_side":2,"subjID":"gabrielpeña30","gender":"0","school":"4","age":"9"},{"start_time":1552313038965,"click_time":1552313040575,"finger_time":1552313040215,"fix_duration":1489.7101799105885,"trial":3,"RT":1250,"MT":360,"sideResp":2,"stimulus":[],"xmouse":[816,816,816,816,816,816,816,816,816,816,816,816,816,816,816,816,816,816,816,816,816,816,816,816,816,816,816,816,816,816,816,816,816,816,816,816,816,816,816,816,816,816,816,816,816,816,816,816,816,816,816,816,816,816,816,816,817,822,825,827,830,834,842,846,849,852,862,889,907,925,938,945,951,959,969,979,990,1033,1062,1087,1104],"ymouse":[539,539,539,539,539,539,539,539,539,539,539,539,539,539,539,539,539,539,539,539,539,539,539,539,539,539,539,539,539,539,539,539,539,539,539,539,539,539,539,539,539,539,539,539,539,539,539,539,539,539,539,539,539,539,538,536,534,528,525,522,518,515,506,499,496,489,475,435,410,388,375,365,358,344,326,309,286,210,166,122,86],"timestamp_mouse":[10,36,51,70,91,109,130,151,171,190,211,231,250,271,291,311,331,351,370,391,410,430,450,470,491,511,530,551,570,589,610,630,651,671,691,710,731,751,771,790,811,830,850,871,890,911,930,951,970,991,1010,1031,1051,1071,1089,1111,1130,1150,1170,1191,1210,1230,1250,1271,1291,1310,1330,1350,1370,1389,1410,1430,1450,1470,1490,1510,1530,1550,1571,1590,1610],"xSR":741.5,"ySR":469.95,"xT1":424.9,"yT1":0,"xT2":1058.1,"yT2":0,"toosoon":0,"cond_shown":"Congruent","ratio_trial":100,"L_num":1,"L_den":2,"R_num":3,"R_den":5,"correct_side":2,"subjID":"gabrielpeña30","gender":"0","school":"4","age":"9"},{"start_time":1552313042816,"click_time":1552313044635,"finger_time":1552313044175,"fix_duration":1179.0896596126126,"trial":4,"RT":1359,"MT":460,"sideResp":2,"stimulus":[],"xmouse":[814,814,814,814,814,814,814,814,814,814,814,814,814,814,814,814,814,814,814,814,814,814,814,814,814,814,814,814,814,814,814,814,814,814,814,814,814,814,814,814,814,814,814,814,814,814,814,814,814,814,814,814,814,814,814,814,814,814,814,814,814,814,814,814,814,814,814,826,842,881,897,913,921,928,943,957,972,989,1003,1024,1032,1040,1043,1045,1047,1048,1049,1050,1052,1058,1064],"ymouse":[489,489,489,489,489,489,489,489,489,489,489,489,489,489,489,489,489,489,489,489,489,489,489,489,489,489,489,489,489,489,489,489,489,489,489,489,489,489,489,489,489,489,489,489,489,489,489,489,489,489,489,489,489,489,489,489,489,489,489,489,489,489,489,489,489,489,483,462,434,359,330,301,291,282,267,263,257,245,233,204,189,170,162,155,145,142,138,134,126,107,95],"timestamp_mouse":[19,39,59,79,100,119,138,158,180,200,218,242,259,279,298,319,339,360,379,399,420,439,460,479,499,519,540,560,580,599,619,640,660,679,699,719,740,759,780,799,819,840,860,880,900,920,939,960,979,998,1020,1039,1059,1080,1099,1119,1140,1160,1179,1200,1220,1240,1259,1279,1299,1319,1340,1359,1378,1399,1420,1438,1459,1479,1499,1520,1539,1559,1579,1599,1619,1638,1659,1679,1700,1719,1739,1759,1780,1798,1819],"xSR":741.5,"ySR":469.95,"xT1":424.9,"yT1":0,"xT2":1058.1,"yT2":0,"toosoon":0,"cond_shown":"Congruent","ratio_trial":100,"L_num":1,"L_den":2,"R_num":18,"R_den":30,"correct_side":2,"subjID":"gabrielpeña30","gender":"0","school":"4","age":"9"},{"start_time":1552313048113,"click_time":1552313050275,"finger_time":1552313049715,"fix_duration":1316.9361776716216,"trial":5,"RT":1602,"MT":560,"sideResp":1,"stimulus":[],"xmouse":[774,774,774,774,774,774,774,774,774,774,774,774,774,774,774,774,774,774,774,774,774,774,774,774,774,774,774,774,774,774,774,774,774,774,774,774,774,774,774,774,774,774,774,774,774,774,774,774,774,774,774,774,774,774,774,774,774,774,774,774,774,774,774,774,774,774,774,774,774,774,774,774,774,774,774,774,775,783,793,801,815,818,819,819,819,819,819,819,819,819,802,781,751,701,638,517,462,442,431,427,425,424,423,421,418,418,419,421,425],"ymouse":[515,515,515,515,515,515,515,515,515,515,515,515,515,515,515,515,515,515,515,515,515,515,515,515,515,515,515,515,515,515,515,515,515,515,515,515,515,515,515,515,515,515,515,515,515,515,515,515,515,515,515,515,515,515,515,515,515,515,515,515,515,515,515,515,515,515,515,515,515,515,515,515,515,515,515,515,511,503,496,487,468,463,461,461,461,461,454,444,424,397,328,298,272,252,235,220,218,218,218,218,217,212,202,184,164,123,96,81,73],"timestamp_mouse":[10,38,43,63,82,103,122,143,163,182,202,223,243,262,283,303,321,343,363,383,402,423,442,463,483,503,522,543,563,582,603,622,643,661,683,702,722,743,762,782,802,822,843,863,883,902,922,943,962,983,1002,1023,1043,1063,1082,1101,1123,1143,1163,1181,1202,1223,1242,1263,1281,1302,1322,1343,1363,1382,1402,1422,1442,1462,1483,1502,1522,1542,1563,1582,1602,1622,1642,1662,1682,1702,1723,1742,1762,1782,1803,1822,1842,1862,1883,1902,1923,1942,1961,1982,2001,2022,2042,2062,2081,2102,2123,2143,2162],"xSR":741.5,"ySR":469.95,"xT1":424.9,"yT1":0,"xT2":1058.1,"yT2":0,"toosoon":0,"cond_shown":"Congruent","ratio_trial":100,"L_num":11,"L_den":22,"R_num":6,"R_den":15,"correct_side":1,"subjID":"gabrielpeña30","gender":"0","school":"4","age":"9"},{"start_time":1552313053688,"click_time":1552313055375,"finger_time":1552313054935,"fix_duration":250,"trial":6,"RT":1247,"MT":440,"sideResp":1,"stimulus":[],"xmouse":[760,760,760,760,760,760,760,761,761,761,762,766,768,768,768,768,768,768,768,768,768,768,768,768,768,768,768,768,768,768,768,768,768,768,768,768,768,768,768,768,768,768,768,768,768,768,768,768,768,768,768,768,768,768,768,768,768,768,768,768,768,761,750,736,722,704,644,616,592,571,556,543,541,541,541,541,544,544,544,542,533,505,490,476,461],"ymouse":[497,497,497,497,497,497,497,496,496,496,496,496,496,496,496,496,496,496,496,496,496,496,496,496,496,496,496,496,496,496,496,496,496,496,496,496,496,496,496,496,496,496,496,496,496,496,496,496,496,496,496,496,496,496,496,496,496,496,496,496,495,477,460,442,423,405,348,323,301,278,258,224,211,205,200,196,186,176,167,159,147,127,114,104,93],"timestamp_mouse":[10,45,47,67,87,107,128,148,168,187,207,227,247,268,287,307,327,347,368,387,407,428,447,468,487,506,527,548,566,588,607,627,648,667,687,707,727,747,767,787,808,827,847,867,888,908,928,946,967,988,1007,1027,1048,1067,1088,1107,1126,1147,1167,1187,1206,1227,1247,1268,1287,1307,1327,1347,1367,1387,1407,1427,1447,1467,1487,1507,1527,1547,1567,1587,1606,1628,1648,1667,1687],"xSR":741.5,"ySR":469.95,"xT1":424.9,"yT1":0,"xT2":1058.1,"yT2":0,"toosoon":0,"cond_shown":"Congruent","ratio_trial":200,"L_num":8,"L_den":15,"R_num":3,"R_den":9,"correct_side":1,"subjID":"gabrielpeña30","gender":"0","school":"4","age":"9"},{"start_time":1552313058895,"click_time":1552313060475,"finger_time":1552313060215,"fix_duration":1378.0952855546113,"trial":7,"RT":1320,"MT":260,"sideResp":2,"stimulus":[],"xmouse":[787,787,787,787,787,787,787,787,787,787,787,787,787,787,787,787,787,787,787,787,787,787,787,787,787,787,787,787,787,787,787,787,787,787,787,787,787,787,787,787,787,787,787,787,787,787,787,787,787,787,787,787,787,787,787,787,787,787,787,789,791,794,794,795,797,801,867,967,1033,1068,1087,1104,1124,1131,1131,1133,1137,1138,1138,1136],"ymouse":[523,523,523,523,523,523,523,523,523,523,523,523,523,523,523,523,523,523,523,523,523,523,523,523,523,523,523,523,523,523,523,523,523,523,523,523,523,523,523,523,523,523,523,523,523,523,523,523,523,523,523,523,523,523,523,523,523,523,523,523,523,529,529,530,529,523,460,433,423,419,414,381,295,217,168,150,135,127,112,96],"timestamp_mouse":[10,20,40,60,80,100,119,140,161,180,201,220,240,261,280,301,319,341,360,381,400,421,442,461,481,500,520,540,561,580,599,621,640,661,679,701,720,740,761,779,800,820,841,861,879,901,920,941,960,981,999,1020,1040,1060,1080,1101,1119,1140,1161,1181,1200,1220,1241,1261,1280,1300,1320,1341,1360,1380,1400,1420,1441,1460,1480,1501,1520,1540,1560,1580],"xSR":741.5,"ySR":469.95,"xT1":424.9,"yT1":0,"xT2":1058.1,"yT2":0,"toosoon":0,"cond_shown":"Incongruent","ratio_trial":300,"L_num":1,"L_den":2,"R_num":2,"R_den":10,"correct_side":1,"subjID":"gabrielpeña30","gender":"0","school":"4","age":"9"},{"start_time":1552313062729,"click_time":1552313064856,"finger_time":1552313064636,"fix_duration":1012.7729584054042,"trial":8,"RT":1907,"MT":220,"sideResp":1,"stimulus":[],"xmouse":[835,835,835,835,835,835,835,835,835,835,835,832,831,825,808,798,789,787,787,787,787,787,787,787,787,787,787,787,787,787,787,787,787,787,787,787,787,787,787,787,787,787,787,787,787,787,787,787,787,787,787,787,787,787,787,787,787,787,787,787,787,787,787,787,787,787,787,787,787,787,787,787,787,787,787,787,787,787,787,787,787,787,787,787,787,787,787,787,787,787,787,786,786,783,771,747,712,656,599,531,510,493,478,469,463,459,454],"ymouse":[518,518,518,518,518,518,518,518,518,518,518,518,518,519,521,522,522,522,522,522,522,522,522,522,522,522,522,522,522,522,522,522,522,522,522,522,522,522,522,522,522,522,522,522,522,522,522,522,522,522,522,522,522,522,522,522,522,522,522,522,522,522,522,522,522,522,522,522,522,522,522,522,522,522,522,522,522,522,522,522,522,522,522,522,522,522,522,522,522,522,522,521,519,511,488,457,405,338,264,181,160,146,136,128,121,107,93],"timestamp_mouse":[13,38,48,66,87,108,128,147,168,187,207,228,247,267,287,307,326,348,368,387,407,428,447,468,487,508,527,547,568,587,607,628,648,668,687,708,728,747,767,787,808,828,847,866,886,908,928,947,967,987,1008,1028,1046,1067,1087,1107,1127,1148,1167,1187,1207,1227,1246,1267,1287,1307,1326,1348,1366,1387,1407,1426,1448,1467,1487,1507,1527,1546,1568,1588,1606,1628,1647,1667,1688,1706,1726,1748,1768,1788,1806,1828,1847,1868,1887,1907,1926,1947,1967,1986,2008,2027,2047,2068,2087,2107,2126],"xSR":741.5,"ySR":469.95,"xT1":424.9,"yT1":0,"xT2":1058.1,"yT2":0,"toosoon":0,"cond_shown":"Incongruent","ratio_trial":300,"L_num":1,"L_den":2,"R_num":3,"R_den":15,"correct_side":1,"subjID":"gabrielpeña30","gender":"0","school":"4","age":"9"},{"start_time":1552313069942,"click_time":1552313071316,"finger_time":1552313070936,"fix_duration":884.2167051148932,"trial":9,"RT":994,"MT":380,"sideResp":2,"stimulus":[],"xmouse":[805,805,805,805,805,805,805,805,805,805,805,805,805,805,805,805,805,805,805,805,805,805,805,805,805,805,805,805,805,805,805,805,805,805,805,805,805,805,805,805,805,805,805,805,805,805,807,810,834,845,860,888,920,1021,1057,1084,1106,1119,1138,1143,1145,1145,1145,1142,1139,1138,1137,1136,1134],"ymouse":[523,523,523,523,523,523,523,523,523,523,523,523,523,523,523,523,523,523,523,523,523,523,523,523,523,523,523,523,523,523,523,523,523,523,523,523,523,523,523,523,523,523,523,523,523,523,523,521,501,484,461,428,392,303,269,237,208,187,147,133,120,112,108,104,104,104,104,103,99],"timestamp_mouse":[14,33,55,75,93,114,135,154,175,195,215,234,255,275,294,315,334,354,375,395,413,433,453,475,494,515,535,554,574,593,614,634,653,673,693,713,733,753,773,794,813,834,855,874,895,913,934,954,974,994,1014,1034,1054,1074,1094,1113,1134,1153,1173,1194,1214,1233,1254,1274,1294,1314,1334,1354,1373],"xSR":741.5,"ySR":469.95,"xT1":424.9,"yT1":0,"xT2":1058.1,"yT2":0,"toosoon":0,"cond_shown":"Congruent","ratio_trial":100,"L_num":2,"L_den":5,"R_num":11,"R_den":22,"correct_side":2,"subjID":"gabrielpeña30","gender":"0","school":"4","age":"9"},{"start_time":1552313073333,"click_time":1552313075136,"finger_time":1552313074336,"fix_duration":1036.3811008653838,"trial":10,"RT":1003,"MT":800,"sideResp":1,"stimulus":[],"xmouse":[822,822,822,822,822,822,822,822,822,822,822,822,822,822,822,822,822,822,822,822,822,822,822,822,822,822,822,822,822,822,822,822,822,822,822,822,822,822,822,822,822,822,822,822,822,822,822,822,823,823,823,823,820,816,810,807,806,806,806,806,806,806,806,806,806,806,805,803,797,789,787,785,760,725,644,590,552,552,552,552,552,552,552,552,552,552,552,552,552,552,498],"ymouse":[500,500,500,500,500,500,500,500,500,500,500,500,500,500,500,500,500,500,500,500,500,500,500,500,500,500,500,500,500,500,500,500,500,500,500,500,500,500,500,500,500,500,500,500,500,500,500,500,500,483,454,435,427,424,422,421,421,421,421,421,421,421,421,421,421,421,421,421,421,420,412,383,314,240,111,39,2,2,2,2,2,2,2,2,2,2,2,2,2,2,2],"timestamp_mouse":[9,37,43,63,84,103,123,144,164,184,202,222,243,263,284,303,324,342,363,384,403,424,444,464,482,504,523,544,563,583,603,622,644,664,683,703,724,742,763,782,803,824,844,863,882,903,923,943,963,982,1003,1023,1043,1064,1083,1102,1123,1143,1162,1182,1203,1223,1243,1264,1283,1303,1322,1344,1364,1383,1403,1423,1443,1463,1482,1504,1523,1543,1563,1583,1603,1624,1644,1663,1684,1703,1723,1743,1763,1782,1803],"xSR":741.5,"ySR":469.95,"xT1":424.9,"yT1":0,"xT2":1058.1,"yT2":0,"toosoon":0,"cond_shown":"Incongruent","ratio_trial":100,"L_num":9,"L_den":15,"R_num":13,"R_den":26,"correct_side":1,"subjID":"gabrielpeña30","gender":"0","school":"4","age":"9"},{"start_time":1552313076807,"click_time":1552313078816,"finger_time":1552313078416,"fix_duration":250,"trial":11,"RT":1609,"MT":400,"sideResp":2,"stimulus":[],"xmouse":[757,759,760,763,765,766,766,766,766,766,766,766,766,766,766,766,766,766,766,766,766,766,766,766,766,766,766,766,766,766,766,766,766,766,766,766,766,766,766,766,766,766,766,766,766,766,766,766,766,766,766,766,766,766,766,766,766,766,766,766,766,766,766,766,766,766,766,766,766,766,766,766,766,766,766,766,774,778,790,807,880,905,1000,1051,1091,1125,1133,1140,1147,1155,1178,1192,1202,1206,1206,1205,1199,1190,1179,1169,1154],"ymouse":[489,490,491,492,493,493,493,493,493,493,493,493,493,493,493,493,493,493,493,493,493,493,493,493,493,493,493,493,493,493,493,493,493,493,493,493,493,493,493,493,493,493,493,493,493,493,493,493,493,493,493,493,493,493,493,493,493,493,493,493,493,493,493,493,493,493,493,493,493,493,493,493,493,493,493,493,492,489,483,476,433,416,350,317,293,268,258,248,237,224,188,169,149,140,136,130,127,121,112,101,77],"timestamp_mouse":[9,36,50,70,89,109,129,148,169,188,210,228,248,269,288,309,330,349,368,389,408,429,450,468,488,510,529,548,570,588,609,628,649,670,688,708,728,750,769,789,809,828,848,869,888,909,930,950,969,989,1009,1029,1049,1070,1090,1110,1129,1149,1170,1190,1210,1230,1248,1269,1290,1310,1329,1349,1368,1388,1409,1429,1450,1470,1489,1508,1528,1550,1568,1590,1609,1629,1648,1668,1689,1708,1728,1750,1769,1789,1809,1829,1848,1868,1888,1909,1929,1949,1969,1989,2009],"xSR":741.5,"ySR":469.95,"xT1":424.9,"yT1":0,"xT2":1058.1,"yT2":0,"toosoon":0,"cond_shown":"Congruent","ratio_trial":100,"L_num":6,"L_den":20,"R_num":5,"R_den":25,"correct_side":1,"subjID":"gabrielpeña30","gender":"0","school":"4","age":"9"},{"start_time":1552313081875,"click_time":1552313083356,"finger_time":1552313082957,"fix_duration":516.5123952891115,"trial":12,"RT":1082,"MT":399,"sideResp":2,"stimulus":[],"xmouse":[832,832,832,832,832,832,832,832,832,832,832,832,832,832,832,832,832,832,832,832,832,832,832,832,832,832,832,832,832,832,832,832,832,832,832,832,831,830,830,830,830,830,830,830,830,830,830,830,830,830,830,830,831,835,843,856,872,913,938,949,955,958,962,969,979,998,1014,1050,1054,1054,1053,1053,1053,1056,1060],"ymouse":[525,525,525,525,525,525,525,524,524,523,522,521,521,521,521,521,521,521,521,521,521,521,521,521,521,521,521,521,521,521,521,521,521,521,521,521,521,521,521,521,521,521,521,521,521,521,519,515,509,506,506,505,503,496,484,469,452,417,396,387,381,378,373,362,338,293,233,135,96,81,78,78,76,73,71],"timestamp_mouse":[9,22,44,62,81,101,121,142,161,181,201,221,241,262,281,300,322,341,361,382,401,422,442,462,481,500,520,541,562,581,601,622,641,662,680,702,721,741,760,780,801,821,841,861,881,900,920,941,962,981,1001,1021,1040,1060,1082,1101,1121,1141,1161,1180,1202,1221,1240,1260,1281,1300,1321,1340,1360,1380,1401,1422,1441,1461,1480],"xSR":741.5,"ySR":469.95,"xT1":424.9,"yT1":0,"xT2":1058.1,"yT2":0,"toosoon":0,"cond_shown":"Congruent","ratio_trial":200,"L_num":3,"L_den":12,"R_num":9,"R_den":20,"correct_side":2,"subjID":"gabrielpeña30","gender":"0","school":"4","age":"9"},{"start_time":1552313084774,"click_time":1552313085816,"finger_time":1552313085315,"fix_duration":477.3123224771001,"trial":13,"RT":541,"MT":501,"sideResp":2,"stimulus":[],"xmouse":[770,770,770,770,770,770,770,770,770,770,770,770,770,770,770,770,770,770,770,770,770,770,770,770,770,772,778,849,886,916,932,953,1001,1024,1048,1065,1076,1079,1079,1079,1079,1079,1079,1079,1079,1079,1079,1078,1077,1077,1077,1083,1103],"ymouse":[497,497,497,497,497,497,497,497,497,497,497,497,497,497,497,497,497,497,497,497,497,497,497,497,497,493,486,399,347,301,272,244,195,180,165,153,145,143,143,143,143,143,143,143,143,143,142,132,128,122,114,104,75],"timestamp_mouse":[10,22,42,61,82,102,122,141,162,181,202,222,242,262,283,302,322,342,362,381,402,423,442,462,483,503,521,541,562,583,602,623,641,663,682,702,723,742,762,781,802,822,842,862,882,903,921,942,962,983,1002,1022,1041],"xSR":741.5,"ySR":469.95,"xT1":424.9,"yT1":0,"xT2":1058.1,"yT2":0,"toosoon":0,"cond_shown":"Incongruent","ratio_trial":200,"L_num":7,"L_den":10,"R_num":14,"R_den":28,"correct_side":1,"subjID":"gabrielpeña30","gender":"0","school":"4","age":"9"},{"start_time":1552313087296,"click_time":1552313088436,"finger_time":1552313088016,"fix_duration":578.0804911421891,"trial":14,"RT":720,"MT":420,"sideResp":1,"stimulus":[],"xmouse":[766,766,766,766,766,766,766,766,766,766,766,766,766,766,766,766,766,766,766,766,766,766,766,766,766,766,766,766,767,769,769,769,769,769,769,769,768,765,765,763,761,744,728,712,697,682,658,647,638,632,626,608,594,580,567,559,540,524],"ymouse":[523,523,523,523,523,523,523,523,523,523,523,523,523,523,523,523,523,523,523,523,523,523,523,523,523,523,523,522,519,515,515,515,515,515,513,507,455,397,356,319,291,243,224,201,183,171,156,151,148,147,147,147,147,145,136,129,111,91],"timestamp_mouse":[2,21,40,60,80,101,121,140,160,179,200,221,239,260,281,300,320,339,361,381,401,420,440,459,480,500,520,540,560,581,600,620,640,661,680,700,720,739,760,781,799,820,840,859,880,901,919,940,959,980,999,1019,1040,1060,1081,1100,1119,1140],"xSR":741.5,"ySR":469.95,"xT1":424.9,"yT1":0,"xT2":1058.1,"yT2":0,"toosoon":0,"cond_shown":"Congruent","ratio_trial":200,"L_num":8,"L_den":15,"R_num":2,"R_den":6,"correct_side":1,"subjID":"gabrielpeña30","gender":"0","school":"4","age":"9"},{"start_time":1552313089769,"click_time":1552313092716,"finger_time":1552313091756,"fix_duration":250,"trial":15,"RT":1987,"MT":960,"sideResp":2,"stimulus":[],"xmouse":[763,763,763,763,763,763,763,763,763,763,763,763,763,763,763,763,763,763,763,763,763,763,763,763,763,763,763,763,763,763,763,763,763,763,763,763,763,763,763,763,763,763,763,763,763,763,763,763,763,763,763,763,763,763,763,763,763,763,763,763,763,763,763,763,763,763,763,763,763,763,763,763,763,763,763,763,763,763,763,763,763,763,763,763,763,763,763,763,763,763,763,763,763,763,763,763,765,772,782,797,825,863,989,1047,1067,1075,1075,1064,1049,1029,1006,983,942,918,910,903,896,881,873,865,859,852,840,831,821,817,815,822,848,899,966,1040,1156,1227,1258,1279,1284,1285,1285,1284,1281,1275,1256,1240,1205,1183,1167,1148],"ymouse":[492,492,492,492,492,492,492,492,492,492,492,492,492,492,492,492,492,492,492,492,492,492,492,492,492,492,492,492,492,492,492,492,492,492,492,492,492,492,492,492,492,492,492,492,492,492,492,492,492,492,492,492,492,492,492,492,492,492,492,492,492,492,492,492,492,492,492,492,492,492,492,492,492,492,492,492,492,492,492,492,492,492,492,492,492,492,492,492,492,492,492,492,492,492,492,492,494,519,541,571,603,628,669,673,670,659,645,617,604,592,587,582,565,554,552,551,551,551,551,551,550,549,547,546,545,544,543,526,490,424,341,258,129,67,36,15,7,6,6,6,6,7,13,16,19,19,19,19],"timestamp_mouse":[10,28,46,67,88,108,128,146,166,186,208,227,247,268,288,308,327,348,368,387,407,427,447,466,488,506,527,547,566,588,608,626,647,668,687,707,726,747,768,788,806,828,847,868,886,908,927,947,968,986,1007,1028,1048,1067,1087,1108,1127,1146,1166,1186,1207,1226,1246,1267,1288,1308,1327,1347,1367,1387,1407,1427,1447,1467,1488,1506,1527,1547,1568,1587,1608,1627,1647,1667,1688,1707,1727,1747,1767,1787,1807,1828,1847,1867,1888,1907,1926,1946,1966,1987,2007,2028,2047,2067,2087,2107,2126,2147,2166,2187,2207,2227,2247,2268,2287,2307,2327,2347,2367,2387,2406,2428,2447,2467,2486,2506,2527,2547,2567,2587,2607,2626,2647,2666,2686,2707,2727,2747,2767,2786,2807,2827,2847,2867,2886,2908,2927,2947],"xSR":741.5,"ySR":469.95,"xT1":424.9,"yT1":0,"xT2":1058.1,"yT2":0,"toosoon":0,"cond_shown":"Incongruent","ratio_trial":200,"L_num":7,"L_den":10,"R_num":14,"R_den":28,"correct_side":1,"subjID":"gabrielpeña30","gender":"0","school":"4","age":"9"},{"start_time":1552313094360,"click_time":1552313096215,"finger_time":1552313095656,"fix_duration":562.6199673270411,"trial":16,"RT":1296,"MT":559,"sideResp":2,"stimulus":[],"xmouse":[814,814,814,814,814,814,814,814,814,814,814,814,814,814,814,814,814,814,814,814,814,814,814,814,814,814,814,814,814,814,815,815,815,815,815,815,815,815,815,815,815,815,815,815,815,815,815,815,815,815,815,815,815,815,815,815,815,815,815,815,815,815,815,820,831,860,904,1019,1062,1092,1121,1136,1172,1196,1206,1206,1206,1206,1206,1206,1206,1206,1206,1209,1209,1208,1207,1205,1203,1200,1193,1185,1155],"ymouse":[481,481,481,481,481,481,481,481,481,481,481,481,481,481,481,481,481,481,481,481,481,481,481,481,481,481,481,481,481,481,481,481,481,481,481,481,481,481,481,481,481,481,481,481,481,481,481,481,481,481,481,481,481,481,481,481,481,481,481,481,481,481,481,479,469,448,419,363,334,301,253,199,58,6,0,0,0,0,0,0,0,0,0,0,0,1,7,27,33,41,50,60,78],"timestamp_mouse":[17,36,56,75,97,115,137,157,175,197,215,237,255,277,297,315,337,357,376,395,415,435,457,477,495,517,537,555,576,597,616,636,655,676,696,715,737,756,775,796,815,836,856,876,896,917,936,955,976,997,1017,1037,1056,1076,1096,1115,1136,1155,1177,1196,1215,1235,1256,1277,1296,1316,1336,1356,1376,1396,1416,1436,1456,1476,1495,1516,1536,1555,1576,1596,1616,1636,1656,1677,1696,1717,1736,1756,1775,1797,1817,1837,1855],"xSR":741.5,"ySR":469.95,"xT1":424.9,"yT1":0,"xT2":1058.1,"yT2":0,"toosoon":0,"cond_shown":"Congruent","ratio_trial":100,"L_num":4,"L_den":8,"R_num":6,"R_den":10,"correct_side":2,"subjID":"gabrielpeña30","gender":"0","school":"4","age":"9"},{"start_time":1552313098884,"click_time":1552313101055,"finger_time":1552313100656,"fix_duration":1267.6124574563369,"trial":17,"RT":1772,"MT":399,"sideResp":2,"stimulus":[],"xmouse":[748,748,748,748,748,748,748,748,748,748,748,748,748,748,748,748,748,748,748,748,748,748,748,748,748,748,748,748,748,748,748,748,748,748,748,748,748,748,748,748,748,748,748,748,748,748,748,748,748,748,748,748,748,748,748,748,748,748,748,748,748,748,748,748,748,748,748,748,748,748,748,748,748,748,748,748,748,748,747,748,751,753,753,753,754,754,755,777,883,956,1015,1096,1124,1143,1156,1166,1174,1175,1175,1176,1177,1177,1175,1172,1170,1165,1157,1151,1140],"ymouse":[519,519,519,519,519,519,519,519,519,519,519,519,519,519,519,519,519,519,519,519,519,519,519,519,519,519,519,519,519,519,519,519,519,519,519,519,519,519,519,519,519,519,519,519,519,519,519,519,519,519,519,519,519,519,519,519,519,519,519,519,519,519,519,519,519,519,519,519,519,519,519,519,519,519,519,519,519,519,519,518,517,517,517,517,517,517,517,496,411,365,324,267,244,232,222,213,200,198,196,191,177,161,157,151,146,136,117,107,84],"timestamp_mouse":[11,37,52,73,91,111,133,153,172,192,212,232,252,272,292,312,332,352,373,393,412,432,451,473,492,511,531,553,573,591,613,631,653,673,691,712,733,753,772,793,812,831,853,873,891,913,932,952,972,993,1012,1032,1052,1073,1091,1112,1131,1152,1173,1193,1212,1232,1252,1273,1292,1313,1332,1353,1373,1392,1411,1431,1452,1472,1492,1512,1532,1552,1572,1592,1613,1632,1653,1671,1693,1712,1731,1752,1772,1793,1813,1831,1851,1871,1892,1913,1932,1951,1971,1992,2011,2031,2051,2072,2091,2111,2131,2152,2171],"xSR":741.5,"ySR":469.95,"xT1":424.9,"yT1":0,"xT2":1058.1,"yT2":0,"toosoon":0,"cond_shown":"Incongruent","ratio_trial":300,"L_num":4,"L_den":20,"R_num":2,"R_den":4,"correct_side":2,"subjID":"gabrielpeña30","gender":"0","school":"4","age":"9"},{"start_time":1552313103639,"click_time":1552313105016,"finger_time":1552313104816,"fix_duration":1161.4362884256814,"trial":18,"RT":1177,"MT":200,"sideResp":1,"stimulus":[],"xmouse":[798,798,798,798,798,798,798,798,798,798,798,798,798,798,798,798,798,798,798,798,798,798,798,798,798,798,798,798,798,798,798,798,798,798,798,798,798,798,798,798,798,798,798,798,798,798,798,798,798,798,798,798,798,798,798,798,793,784,723,714,719,731,742,755,739,695,646,599,504],"ymouse":[499,499,499,499,499,499,499,499,499,499,499,499,499,499,499,499,499,499,499,499,499,499,499,499,499,499,499,499,499,499,499,499,499,499,499,499,499,499,499,499,499,499,499,499,499,499,499,499,499,499,499,499,499,499,499,499,500,497,456,443,439,433,424,391,351,296,232,172,66],"timestamp_mouse":[18,40,58,78,97,117,136,157,177,198,218,236,256,278,298,318,337,356,378,398,418,438,458,477,497,518,537,556,577,597,618,638,657,676,698,718,738,757,776,797,818,837,857,877,897,917,938,957,976,997,1017,1038,1056,1078,1097,1116,1136,1157,1177,1196,1216,1236,1256,1277,1297,1317,1337,1358,1376],"xSR":741.5,"ySR":469.95,"xT1":424.9,"yT1":0,"xT2":1058.1,"yT2":0,"toosoon":0,"cond_shown":"Incongruent","ratio_trial":300,"L_num":4,"L_den":5,"R_num":6,"R_den":12,"correct_side":1,"subjID":"gabrielpeña30","gender":"0","school":"4","age":"9"},{"start_time":1552313108177,"click_time":1552313110416,"finger_time":1552313109677,"fix_duration":860.8120824017506,"trial":19,"RT":1500,"MT":739,"sideResp":2,"stimulus":[],"xmouse":[781,781,781,781,781,781,781,781,781,781,781,781,781,781,781,781,781,781,781,781,781,781,781,781,781,781,781,781,781,781,781,781,781,781,781,781,781,781,781,781,781,781,781,781,781,781,781,781,781,781,781,781,781,781,781,781,781,781,781,781,781,781,781,781,781,781,781,781,781,781,781,781,782,785,825,902,1082,1149,1179,1191,1195,1199,1196,1192,1190,1190,1182,1175,1167,1161,1159,1158,1158,1166,1170,1175,1180,1182,1183,1183,1182,1180,1180,1180,1180,1180,1172,1168,1165,1163,1161,1157],"ymouse":[525,525,525,525,525,525,525,525,525,525,525,525,525,525,525,525,525,525,525,525,525,525,525,525,525,525,525,525,525,525,525,525,525,525,525,525,525,525,525,525,525,525,525,525,525,525,525,525,525,525,525,525,525,525,525,525,525,525,525,525,525,525,525,525,525,525,525,525,525,525,525,525,525,483,404,344,284,278,273,268,264,234,214,198,186,180,166,158,153,150,149,148,143,121,105,88,58,40,25,14,7,0,0,0,4,16,39,47,55,60,65,75],"timestamp_mouse":[19,41,60,80,99,119,140,160,178,199,220,239,258,280,299,320,338,359,379,398,420,438,460,479,499,519,539,559,579,599,619,640,659,680,700,719,739,760,780,799,818,839,858,880,900,918,940,959,979,999,1020,1038,1059,1080,1100,1119,1140,1159,1180,1199,1219,1239,1259,1279,1300,1319,1338,1360,1378,1400,1418,1438,1460,1479,1500,1519,1539,1559,1579,1599,1620,1639,1658,1679,1700,1719,1739,1760,1780,1799,1819,1838,1859,1878,1899,1918,1938,1959,1979,1999,2019,2039,2058,2079,2099,2118,2138,2159,2179,2198,2220,2239],"xSR":741.5,"ySR":469.95,"xT1":424.9,"yT1":0,"xT2":1058.1,"yT2":0,"toosoon":0,"cond_shown":"Incongruent","ratio_trial":200,"L_num":4,"L_den":6,"R_num":14,"R_den":30,"correct_side":1,"subjID":"gabrielpeña30","gender":"0","school":"4","age":"9"},{"start_time":1552313113916,"click_time":1552313116256,"finger_time":1552313114176,"fix_duration":1059.3254685199709,"trial":20,"RT":260,"MT":2080,"sideResp":2,"stimulus":[],"xmouse":[762,751,750,750,752,754,754,754,754,755,758,772,807,853,904,982,999,999,999,999,983,974,967,958,949,934,927,914,905,897,865,849,836,827,824,823,823,823,823,823,823,823,823,823,823,823,823,823,823,823,823,823,823,823,823,823,823,823,823,823,823,822,821,821,820,820,820,818,818,815,814,813,813,813,813,813,812,811,810,810,809,808,808,806,805,805,805,808,815,824,849,861,870,880,901,1043,1205,1291,1354,1385,1393,1392,1385,1367,1348,1314,1298,1294,1291,1289,1284,1279,1274,1262,1249,1196,1173,1153],"ymouse":[492,486,486,486,482,481,481,481,481,481,481,489,511,543,573,612,616,616,616,615,590,582,577,570,563,556,554,552,552,552,551,549,548,547,546,545,545,545,545,545,545,544,544,543,543,542,539,538,536,535,534,533,533,533,533,533,533,533,533,533,533,532,531,531,530,530,530,528,528,526,526,526,526,526,526,526,525,525,524,524,524,524,524,523,523,523,516,505,489,467,414,388,363,340,308,228,167,144,136,130,126,126,126,129,130,127,118,115,113,111,108,106,104,99,92,71,63,58],"timestamp_mouse":[1,26,50,59,79,100,120,139,159,180,199,219,240,260,280,299,320,340,360,380,400,428,440,459,481,499,521,539,560,581,600,620,640,660,679,699,721,740,760,780,800,820,840,859,880,899,919,940,960,981,1001,1020,1040,1060,1080,1099,1120,1141,1161,1180,1200,1219,1240,1259,1279,1300,1320,1339,1360,1379,1400,1420,1440,1460,1480,1499,1520,1539,1561,1580,1599,1619,1641,1661,1680,1700,1719,1739,1760,1780,1800,1819,1839,1859,1879,1900,1920,1939,1959,1979,1999,2021,2041,2061,2082,2100,2120,2140,2160,2181,2199,2220,2240,2261,2280,2300,2320,2340],"xSR":741.5,"ySR":469.95,"xT1":424.9,"yT1":0,"xT2":1058.1,"yT2":0,"toosoon":0,"cond_shown":"Congruent","ratio_trial":100,"L_num":3,"L_den":6,"R_num":2,"R_den":5,"correct_side":1,"subjID":"gabrielpeña30","gender":"0","school":"4","age":"9"},{"start_time":1552313120229,"click_time":1552313121776,"finger_time":1552313121695,"fix_duration":1131.9153628198028,"trial":21,"RT":1466,"MT":81,"sideResp":2,"stimulus":[],"xmouse":[756,756,756,756,756,756,756,756,756,756,756,756,756,756,756,756,756,756,756,756,756,756,756,756,756,756,756,756,756,756,756,756,756,756,756,756,756,756,756,756,756,756,756,756,756,756,756,756,756,756,756,756,756,756,756,756,756,756,756,756,756,756,756,756,756,756,758,766,780,803,819,827,838,856,942,1016,1074,1131],"ymouse":[533,533,533,533,533,533,533,533,533,533,533,533,533,533,533,533,533,533,533,533,533,533,533,533,533,533,533,533,533,533,533,533,533,533,533,533,533,533,533,533,533,533,533,533,533,533,533,533,533,533,533,533,533,533,533,533,533,533,533,533,533,533,533,533,533,533,530,525,517,499,488,483,473,455,327,221,117,26],"timestamp_mouse":[10,44,46,66,88,108,127,146,168,188,208,227,247,267,287,308,328,347,368,387,406,428,446,468,487,507,528,547,566,586,606,626,646,666,688,707,726,747,768,787,808,827,847,866,886,907,928,948,967,987,1007,1027,1047,1067,1086,1106,1126,1148,1167,1187,1208,1227,1246,1266,1287,1307,1326,1347,1366,1387,1406,1427,1448,1466,1487,1507,1526,1546],"xSR":741.5,"ySR":469.95,"xT1":424.9,"yT1":0,"xT2":1058.1,"yT2":0,"toosoon":0,"cond_shown":"Incongruent","ratio_trial":100,"L_num":10,"L_den":25,"R_num":8,"R_den":16,"correct_side":2,"subjID":"gabrielpeña30","gender":"0","school":"4","age":"9"},{"start_time":1552313123928,"click_time":1552313125976,"finger_time":1552313125336,"fix_duration":1109.9573746270903,"trial":22,"RT":1408,"MT":640,"sideResp":2,"stimulus":[],"xmouse":[816,816,816,816,816,816,816,816,816,816,816,816,816,816,816,816,816,816,816,816,816,816,816,816,816,816,816,816,816,816,816,816,816,816,816,816,816,816,816,816,816,816,816,816,816,816,816,816,816,816,816,816,816,816,816,816,816,816,816,816,816,816,816,816,816,816,816,816,816,817,823,835,844,848,846,843,837,837,838,847,849,853,855,857,872,891,904,915,929,955,969,976,980,984,989,991,992,992,992,1008,1025,1046,1074],"ymouse":[487,487,487,487,487,487,487,487,487,487,487,487,487,487,487,487,487,487,487,487,487,487,487,487,487,487,487,487,487,487,487,487,487,487,487,487,487,487,487,487,487,487,487,487,487,487,487,487,487,487,487,487,487,487,487,487,487,487,487,487,487,487,487,487,487,487,487,487,487,479,456,423,388,361,309,272,209,174,150,120,111,107,104,103,103,104,104,104,101,86,77,71,63,55,45,39,36,35,35,36,38,38,37],"timestamp_mouse":[15,30,48,68,88,108,130,149,169,188,208,229,249,268,288,308,328,348,369,389,408,429,448,469,488,508,529,550,570,588,608,629,648,668,688,708,729,749,769,788,808,829,848,868,888,909,928,949,970,988,1009,1028,1049,1069,1089,1109,1128,1148,1170,1188,1209,1229,1248,1268,1288,1309,1328,1349,1369,1388,1408,1428,1449,1469,1488,1508,1528,1549,1568,1589,1609,1629,1648,1669,1688,1709,1728,1748,1768,1789,1808,1829,1848,1868,1888,1908,1928,1949,1968,1988,2008,2029,2048],"xSR":741.5,"ySR":469.95,"xT1":424.9,"yT1":0,"xT2":1058.1,"yT2":0,"toosoon":0,"cond_shown":"Congruent","ratio_trial":300,"L_num":2,"L_den":10,"R_num":12,"R_den":24,"correct_side":2,"subjID":"gabrielpeña30","gender":"0","school":"4","age":"9"},{"start_time":1552313129466,"click_time":1552313131537,"finger_time":1552313130556,"fix_duration":1349.481809596377,"trial":23,"RT":1090,"MT":981,"sideResp":1,"stimulus":[],"xmouse":[771,771,771,771,771,771,771,771,771,771,771,771,771,771,771,771,771,771,771,771,771,771,771,771,771,771,771,771,771,771,771,771,771,771,771,771,771,771,771,771,771,771,771,771,771,771,771,771,771,777,790,804,825,836,851,870,892,940,953,968,976,980,983,983,983,983,983,983,978,969,958,943,882,823,747,660,557,382,302,280,271,270,270,270,270,270,270,270,270,270,393,399,403,405,409,414,416,420,424,424,424,424,424,427],"ymouse":[537,537,537,537,537,537,537,537,537,537,537,537,537,537,537,537,537,537,537,537,537,537,537,537,537,537,537,537,537,537,537,537,537,537,537,537,537,537,537,537,537,537,537,537,537,537,537,537,537,537,537,537,537,537,537,537,537,537,537,537,537,537,537,537,537,537,537,537,537,537,537,537,503,466,411,347,280,151,71,36,12,1,1,1,1,1,1,1,1,1,3,5,11,13,15,16,16,17,18,18,18,18,19,21],"timestamp_mouse":[12,36,50,70,90,111,130,150,170,190,210,231,251,270,291,311,331,350,370,392,411,431,450,471,491,511,530,551,570,592,611,631,651,671,690,711,731,750,771,790,810,830,850,870,892,911,930,950,970,990,1010,1030,1050,1070,1090,1111,1131,1150,1170,1190,1211,1231,1251,1271,1291,1310,1330,1350,1370,1390,1410,1431,1450,1470,1490,1511,1531,1550,1571,1590,1611,1630,1650,1670,1691,1710,1731,1750,1770,1790,1811,1831,1850,1870,1890,1911,1931,1950,1970,1990,2011,2031,2050,2070],"xSR":741.5,"ySR":469.95,"xT1":424.9,"yT1":0,"xT2":1058.1,"yT2":0,"toosoon":0,"cond_shown":"Incongruent","ratio_trial":300,"L_num":1,"L_den":2,"R_num":2,"R_den":10,"correct_side":1,"subjID":"gabrielpeña30","gender":"0","school":"4","age":"9"},{"start_time":1552313133340,"click_time":1552313136016,"finger_time":1552313135656,"fix_duration":522.4456121273555,"trial":24,"RT":2316,"MT":360,"sideResp":2,"stimulus":[],"xmouse":[809,809,809,809,809,809,809,809,809,809,809,809,809,809,809,809,809,809,809,809,809,809,809,809,809,809,809,809,809,809,809,809,809,809,809,809,809,809,809,809,809,809,809,809,809,809,809,809,809,809,809,809,809,809,809,809,809,809,809,809,809,810,814,825,834,836,838,838,838,838,838,838,838,838,838,838,838,838,837,836,835,835,834,833,830,828,827,826,826,826,826,826,825,825,824,822,822,821,821,821,821,821,821,821,821,821,821,821,821,821,821,821,821,821,823,827,839,863,936,968,994,1008,1013,1014,1014,1019,1026,1035,1044,1045,1048,1050,1054,1063],"ymouse":[531,531,531,531,531,531,531,531,531,531,531,531,531,531,531,531,531,531,531,531,531,531,531,531,531,531,531,531,531,531,531,531,531,531,531,531,531,531,531,531,531,531,531,531,531,531,531,531,531,531,531,531,531,531,531,531,529,526,519,519,519,518,524,543,559,562,566,566,566,566,566,566,566,566,566,566,566,563,562,561,559,559,558,557,553,551,550,550,550,550,550,550,549,546,542,536,531,529,528,528,528,528,528,528,528,528,528,528,528,528,528,528,527,515,489,464,415,351,223,172,136,115,103,98,96,89,80,70,58,54,51,47,43,32],"timestamp_mouse":[16,40,56,77,97,117,136,157,176,196,217,237,257,277,297,316,336,357,376,397,416,437,456,477,497,518,537,556,576,596,616,636,657,676,696,717,737,757,777,796,817,837,856,876,897,917,937,956,976,996,1017,1036,1057,1076,1096,1117,1137,1156,1176,1197,1216,1236,1257,1276,1296,1316,1336,1357,1378,1396,1416,1436,1456,1476,1496,1516,1537,1556,1576,1596,1616,1637,1656,1676,1696,1717,1737,1756,1776,1796,1816,1837,1857,1876,1897,1916,1937,1958,1976,1997,2017,2036,2056,2076,2096,2118,2137,2157,2176,2197,2217,2237,2256,2277,2297,2316,2337,2357,2376,2396,2416,2436,2456,2476,2496,2516,2536,2556,2576,2597,2616,2636,2656,2676],"xSR":741.5,"ySR":469.95,"xT1":424.9,"yT1":0,"xT2":1058.1,"yT2":0,"toosoon":0,"cond_shown":"Incongruent","ratio_trial":100,"L_num":13,"L_den":26,"R_num":6,"R_den":10,"correct_side":2,"subjID":"gabrielpeña30","gender":"0","school":"4","age":"9"},{"start_time":1552313137302,"click_time":1552313139599,"finger_time":1552313138716,"fix_duration":365.38294044392296,"trial":25,"RT":1414,"MT":883,"sideResp":1,"stimulus":[],"xmouse":[790,790,790,790,790,790,790,790,790,790,790,790,790,790,790,790,790,790,790,790,790,790,790,790,790,790,790,790,790,790,790,790,790,790,790,790,790,790,790,790,790,790,790,790,790,790,790,790,790,790,790,790,790,790,790,790,790,790,790,790,790,790,790,790,790,790,790,790,790,795,831,860,888,909,924,941,942,942,942,942,942,942,942,938,931,902,876,859,843,832,810,800,794,793,791,781,761,716,681,655,613,600,594,592,592,589,587,584,578,575,560,550,541,527,513],"ymouse":[493,493,493,493,493,493,493,493,493,493,493,493,493,493,493,493,493,493,493,493,493,493,493,493,493,493,493,493,493,493,493,493,493,493,493,493,493,493,493,493,493,493,493,493,493,493,493,493,493,493,493,493,493,493,493,493,493,493,493,493,493,493,493,493,493,493,493,493,490,471,378,311,265,235,216,198,196,196,196,196,196,196,197,202,209,233,253,270,287,301,332,346,353,353,353,297,224,135,84,57,29,22,18,16,16,16,16,16,22,33,44,44,44,45,48],"timestamp_mouse":[14,35,54,74,95,114,134,154,175,195,215,234,255,275,295,315,335,354,375,394,414,434,455,474,495,514,535,554,574,595,614,635,655,674,694,714,734,754,775,794,814,835,854,876,894,914,934,955,974,995,1014,1035,1054,1075,1095,1115,1134,1155,1174,1195,1214,1235,1254,1274,1294,1315,1334,1354,1374,1394,1414,1434,1454,1474,1494,1514,1534,1554,1574,1595,1615,1635,1655,1674,1694,1714,1734,1754,1774,1794,1814,1835,1854,1875,1894,1914,1934,1954,1974,1994,2015,2034,2054,2075,2096,2114,2134,2154,2174,2195,2214,2235,2254,2275,2296],"xSR":741.5,"ySR":469.95,"xT1":424.9,"yT1":0,"xT2":1058.1,"yT2":0,"toosoon":0,"cond_shown":"Congruent","ratio_trial":200,"L_num":6,"L_den":15,"R_num":3,"R_den":15,"correct_side":1,"subjID":"gabrielpeña30","gender":"0","school":"4","age":"9"},{"start_time":1552313141130,"click_time":1552313143136,"finger_time":1552313141216,"fix_duration":512.5510432144746,"trial":26,"RT":86,"MT":1920,"sideResp":1,"stimulus":[],"xmouse":[756,756,756,745,716,700,666,644,625,600,597,596,596,596,596,596,596,596,596,596,596,596,596,596,596,596,598,605,611,638,652,666,677,687,702,710,716,721,723,726,728,729,730,733,736,739,741,747,754,771,775,778,778,778,778,778,778,778,778,778,778,778,779,779,779,778,768,749,720,657,623,597,578,563,546,545,549,572,615,689,703,717,725,734,747,749,749,749,749,744,734,721,703,674,571,525,480,450,437,434,434],"ymouse":[513,513,513,513,509,506,499,494,491,488,487,487,486,486,486,486,486,486,486,486,486,486,486,486,486,486,487,488,491,501,505,509,512,513,514,514,510,508,505,505,505,505,505,505,505,506,507,511,515,521,521,522,522,522,522,522,522,522,522,522,522,522,522,522,522,522,524,529,542,578,596,603,606,606,605,604,599,585,567,540,536,532,531,526,517,513,512,511,510,508,502,494,479,462,336,258,193,147,125,102,91],"timestamp_mouse":[20,37,47,68,86,106,126,147,167,186,206,226,247,268,286,307,326,346,366,386,407,426,446,468,486,506,527,548,566,586,606,627,646,666,686,706,726,746,766,786,807,826,846,867,886,906,926,946,967,986,1007,1027,1046,1066,1086,1107,1127,1146,1166,1186,1208,1226,1246,1266,1287,1307,1326,1346,1368,1387,1406,1426,1447,1467,1487,1507,1526,1547,1567,1586,1606,1627,1646,1666,1686,1706,1726,1747,1767,1787,1807,1826,1846,1866,1886,1906,1926,1947,1966,1986,2006],"xSR":741.5,"ySR":469.95,"xT1":424.9,"yT1":0,"xT2":1058.1,"yT2":0,"toosoon":0,"cond_shown":"Incongruent","ratio_trial":100,"L_num":17,"L_den":30,"R_num":10,"R_den":15,"correct_side":2,"subjID":"gabrielpeña30","gender":"0","school":"4","age":"9"},{"start_time":1552313146768,"click_time":1552313148077,"finger_time":1552313147537,"fix_duration":250,"trial":27,"RT":769,"MT":540,"sideResp":2,"stimulus":[],"xmouse":[803,803,803,803,803,803,803,803,803,803,803,803,803,803,803,803,803,803,803,803,803,803,803,803,803,803,803,803,803,803,803,803,803,803,803,803,804,820,842,865,884,896,953,1017,1042,1061,1072,1087,1087,1080,1069,1053,1016,988,974,969,967,969,973,975,977,980,1001,1031,1050,1063],"ymouse":[517,517,517,517,517,517,517,517,517,517,517,517,517,517,517,517,517,517,517,517,517,517,517,517,517,517,517,517,517,517,517,517,517,517,517,517,517,517,511,503,492,476,388,314,284,261,245,204,186,164,149,137,117,104,95,87,81,67,62,60,59,59,57,46,43,43],"timestamp_mouse":[13,35,48,69,89,108,128,149,168,188,208,229,248,268,288,309,328,348,369,390,408,428,448,468,489,508,529,549,569,589,608,628,650,669,689,709,728,748,769,788,808,829,848,868,888,909,928,948,968,988,1009,1028,1049,1069,1089,1108,1128,1148,1169,1189,1208,1229,1248,1269,1288,1309],"xSR":741.5,"ySR":469.95,"xT1":424.9,"yT1":0,"xT2":1058.1,"yT2":0,"toosoon":0,"cond_shown":"Congruent","ratio_trial":300,"L_num":2,"L_den":10,"R_num":12,"R_den":24,"correct_side":2,"subjID":"gabrielpeña30","gender":"0","school":"4","age":"9"},{"start_time":1552313149289,"click_time":1552313150916,"finger_time":1552313150536,"fix_duration":250,"trial":28,"RT":1247,"MT":380,"sideResp":1,"stimulus":[],"xmouse":[798,798,799,799,799,800,800,800,800,800,800,800,801,801,802,802,802,802,802,802,802,802,802,802,802,802,802,802,803,803,803,803,803,803,803,803,803,803,803,803,803,803,803,803,803,803,803,803,803,803,803,803,803,803,803,803,804,804,804,802,794,771,757,744,732,724,711,702,682,660,629,590,581,577,575,574,566,553,544,537,532,517],"ymouse":[525,525,524,524,524,524,524,524,524,524,524,524,524,524,524,524,524,524,524,524,524,524,524,524,524,524,524,524,524,524,524,524,524,524,524,524,524,524,524,524,524,524,524,524,524,524,524,524,524,524,524,524,524,524,524,524,524,524,524,516,503,471,453,436,421,408,369,341,296,249,201,151,137,125,120,117,113,107,105,102,100,91],"timestamp_mouse":[7,27,47,67,88,108,128,148,168,188,207,228,247,268,288,308,328,347,368,388,409,429,448,468,488,507,527,548,568,587,608,627,649,667,688,708,727,747,767,788,807,827,848,869,887,907,927,948,968,988,1008,1027,1047,1067,1087,1108,1127,1147,1167,1187,1207,1227,1247,1268,1287,1307,1327,1347,1367,1388,1407,1428,1447,1467,1487,1507,1527,1548,1567,1588,1607,1627],"xSR":741.5,"ySR":469.95,"xT1":424.9,"yT1":0,"xT2":1058.1,"yT2":0,"toosoon":0,"cond_shown":"Incongruent","ratio_trial":300,"L_num":4,"L_den":5,"R_num":8,"R_den":16,"correct_side":1,"subjID":"gabrielpeña30","gender":"0","school":"4","age":"9"},{"start_time":1552313152668,"click_time":1552313154616,"finger_time":1552313154116,"fix_duration":751.1355659147529,"trial":29,"RT":1448,"MT":500,"sideResp":2,"stimulus":[],"xmouse":[773,773,773,773,773,773,773,773,773,773,773,773,773,773,773,773,773,773,773,773,773,773,773,773,773,773,773,773,773,773,773,773,773,773,773,773,773,773,773,773,773,773,773,773,773,773,773,773,773,773,773,773,773,773,773,773,773,773,773,773,773,773,773,773,773,773,773,773,773,774,777,794,843,883,925,959,980,1011,1025,1034,1044,1052,1066,1069,1071,1069,1068,1072,1076,1078,1079,1080,1082,1083,1084,1084,1086,1088],"ymouse":[510,510,510,510,510,510,510,510,510,510,510,510,510,510,510,510,510,510,510,510,510,510,510,510,510,510,510,510,510,510,510,510,510,510,510,510,510,510,510,510,510,510,510,510,510,510,510,510,510,510,510,510,510,510,510,510,510,510,510,510,510,510,510,510,510,510,510,510,510,510,510,501,479,457,433,407,383,318,288,273,260,249,222,206,182,162,145,126,124,124,124,123,119,118,115,112,109,96],"timestamp_mouse":[9,38,48,68,88,108,129,149,169,189,209,229,248,269,288,309,330,349,369,389,408,428,449,468,489,508,528,548,568,589,609,628,648,668,688,708,729,748,768,788,808,828,848,868,888,908,929,948,969,990,1009,1029,1048,1069,1088,1108,1128,1148,1169,1188,1208,1229,1248,1268,1288,1309,1329,1348,1368,1388,1409,1428,1448,1469,1488,1508,1528,1548,1569,1588,1608,1628,1648,1669,1688,1709,1730,1748,1769,1788,1808,1829,1848,1868,1890,1910,1928,1948],"xSR":741.5,"ySR":469.95,"xT1":424.9,"yT1":0,"xT2":1058.1,"yT2":0,"toosoon":0,"cond_shown":"Congruent","ratio_trial":100,"L_num":6,"L_den":12,"R_num":15,"R_den":25,"correct_side":2,"subjID":"gabrielpeña30","gender":"0","school":"4","age":"9"},{"start_time":1552313156036,"click_time":1552313158396,"finger_time":1552313157857,"fix_duration":556.2899303812145,"trial":30,"RT":1821,"MT":539,"sideResp":1,"stimulus":[],"xmouse":[794,794,794,794,794,794,794,794,794,794,794,794,794,794,794,794,794,794,794,793,793,792,792,792,792,792,791,791,791,791,791,791,791,791,791,791,791,791,791,791,791,791,791,791,791,791,791,792,793,793,793,793,793,793,793,793,793,793,793,793,793,793,793,795,804,810,813,814,814,814,814,814,814,815,815,815,815,815,815,815,815,815,815,815,815,815,815,815,815,815,812,784,735,663,491,418,387,387,387,387,387,387,387,387,387,387,387,387,387,341,354,361,371,376,387,392,401,411,425],"ymouse":[532,532,532,532,532,532,532,532,532,532,532,532,532,532,532,532,532,532,532,532,532,532,532,532,532,532,531,531,531,531,531,531,531,531,531,531,531,531,531,531,531,531,531,531,531,531,531,530,529,529,529,529,529,529,529,529,529,529,529,529,529,529,529,527,520,516,514,513,513,513,513,513,513,512,504,501,500,499,499,499,499,499,499,499,499,499,499,499,499,498,494,457,405,342,162,69,30,30,30,30,30,30,30,30,30,30,30,30,30,3,19,26,31,32,32,32,32,32,32],"timestamp_mouse":[11,20,48,61,81,101,121,140,161,181,200,221,240,261,281,301,321,341,360,381,400,421,441,461,481,500,520,541,560,582,600,620,640,660,680,700,721,740,760,780,800,822,841,861,880,901,922,941,961,980,1000,1020,1041,1061,1080,1102,1121,1141,1160,1180,1200,1220,1241,1261,1280,1302,1321,1341,1361,1380,1400,1420,1442,1460,1480,1500,1520,1541,1561,1580,1600,1621,1640,1661,1680,1700,1722,1741,1760,1780,1800,1821,1840,1860,1880,1901,1921,1941,1961,1980,2002,2021,2041,2062,2081,2100,2121,2140,2160,2181,2200,2221,2240,2262,2281,2300,2321,2340,2360],"xSR":741.5,"ySR":469.95,"xT1":424.9,"yT1":0,"xT2":1058.1,"yT2":0,"toosoon":0,"cond_shown":"Congruent","ratio_trial":200,"L_num":1,"L_den":2,"R_num":21,"R_den":30,"correct_side":2,"subjID":"gabrielpeña30","gender":"0","school":"4","age":"9"},{"start_time":1552313160147,"click_time":1552313162096,"finger_time":1552313161616,"fix_duration":250,"trial":31,"RT":1469,"MT":480,"sideResp":2,"stimulus":[],"xmouse":[756,756,756,756,756,756,756,756,756,756,756,756,756,756,756,756,756,757,757,757,757,757,757,757,757,757,757,757,757,757,757,757,757,757,757,757,757,757,757,757,757,757,757,757,757,757,757,757,757,757,757,757,757,757,757,757,757,757,757,757,757,757,757,757,757,757,757,757,757,758,762,779,799,843,850,861,866,873,887,897,905,916,931,970,989,998,1006,1012,1021,1026,1032,1040,1044,1044,1045,1047,1053,1063],"ymouse":[535,535,535,535,535,535,535,535,535,535,535,535,535,535,535,535,535,535,535,535,535,535,535,535,535,535,535,535,535,535,535,535,535,535,535,535,535,535,535,535,535,535,535,535,535,535,535,535,535,535,535,535,535,535,535,535,535,535,535,535,535,535,535,535,535,535,535,535,535,535,535,527,513,463,452,427,414,399,362,340,322,302,279,213,163,141,121,100,69,60,52,48,47,47,47,48,51,55],"timestamp_mouse":[12,36,50,69,89,109,129,150,169,189,209,229,250,269,289,309,329,350,369,389,409,430,449,469,489,510,530,550,571,590,610,629,649,669,690,710,730,749,769,789,809,829,850,869,890,911,929,950,969,990,1010,1029,1050,1069,1089,1109,1129,1149,1170,1191,1209,1230,1249,1270,1289,1309,1329,1349,1369,1389,1410,1429,1449,1469,1489,1509,1530,1549,1570,1589,1609,1629,1649,1669,1690,1709,1729,1750,1769,1791,1811,1830,1849,1870,1889,1909,1929,1949],"xSR":741.5,"ySR":469.95,"xT1":424.9,"yT1":0,"xT2":1058.1,"yT2":0,"toosoon":0,"cond_shown":"Congruent","ratio_trial":100,"L_num":2,"L_den":5,"R_num":11,"R_den":22,"correct_side":2,"subjID":"gabrielpeña30","gender":"0","school":"4","age":"9"},{"start_time":1552313164257,"click_time":1552313165376,"finger_time":1552313164877,"fix_duration":1158.0186593957949,"trial":32,"RT":620,"MT":499,"sideResp":1,"stimulus":[],"xmouse":[772,772,772,772,772,772,772,772,772,772,772,772,772,772,772,772,772,772,772,772,772,772,772,772,772,772,772,772,772,772,800,853,877,890,890,889,874,847,744,685,664,651,637,600,577,559,545,539,537,536,536,536,536,533,531,528,522],"ymouse":[499,499,499,499,499,499,499,499,499,499,499,499,499,499,499,499,499,499,499,499,499,499,499,499,499,499,499,499,499,499,493,483,479,463,446,423,391,350,230,150,108,83,64,44,39,38,37,37,37,37,37,40,44,51,53,59,62],"timestamp_mouse":[1,19,40,60,79,99,119,139,159,179,200,220,239,260,279,300,319,340,360,380,399,420,440,459,480,499,520,539,560,580,599,620,639,660,679,700,719,739,759,780,799,819,839,860,880,899,920,939,960,980,999,1020,1039,1059,1080,1100,1119],"xSR":741.5,"ySR":469.95,"xT1":424.9,"yT1":0,"xT2":1058.1,"yT2":0,"toosoon":0,"cond_shown":"Congruent","ratio_trial":300,"L_num":11,"L_den":22,"R_num":2,"R_den":10,"correct_side":1,"subjID":"gabrielpeña30","gender":"0","school":"4","age":"9"},{"start_time":1552313166869,"click_time":1552313168917,"finger_time":1552313168496,"fix_duration":689.8152651473584,"trial":33,"RT":1627,"MT":421,"sideResp":1,"stimulus":[],"xmouse":[765,765,765,765,765,765,765,765,765,765,765,765,765,765,765,765,765,765,765,765,765,765,765,765,765,765,765,765,765,765,765,765,765,765,765,765,765,765,765,765,765,765,765,765,765,765,765,765,765,765,765,765,765,765,765,765,765,765,765,765,765,765,765,765,765,765,765,765,765,765,765,765,765,765,765,765,765,764,761,755,746,734,704,687,667,650,627,588,564,552,546,545,547,550,550,550,550,548,546,543,538,533,515],"ymouse":[533,533,533,533,533,533,533,533,533,533,533,533,533,533,533,533,533,533,533,533,533,533,533,533,533,533,533,533,533,533,533,533,533,533,533,533,533,533,533,533,533,533,533,533,533,533,533,533,533,533,533,533,533,533,533,533,533,533,533,533,533,533,533,533,533,533,533,533,533,533,533,533,533,533,533,533,533,530,519,506,487,466,419,396,369,344,309,253,217,193,172,155,136,129,125,121,114,102,98,94,92,90,83],"timestamp_mouse":[10,28,47,67,87,107,127,147,168,187,207,227,247,267,288,308,329,347,368,387,409,428,447,468,487,508,529,547,568,588,608,627,647,668,688,708,727,747,768,788,808,828,849,868,888,909,927,947,968,987,1008,1028,1047,1067,1087,1107,1128,1147,1167,1187,1208,1227,1247,1267,1288,1308,1327,1347,1367,1388,1407,1428,1447,1467,1488,1508,1527,1547,1567,1587,1608,1627,1648,1667,1687,1707,1728,1747,1768,1787,1807,1827,1847,1868,1887,1907,1927,1947,1969,1988,2009,2027,2047],"xSR":741.5,"ySR":469.95,"xT1":424.9,"yT1":0,"xT2":1058.1,"yT2":0,"toosoon":0,"cond_shown":"Incongruent","ratio_trial":300,"L_num":7,"L_den":10,"R_num":8,"R_den":20,"correct_side":1,"subjID":"gabrielpeña30","gender":"0","school":"4","age":"9"},{"start_time":1552313169807,"click_time":1552313171156,"finger_time":1552313170797,"fix_duration":250,"trial":34,"RT":990,"MT":359,"sideResp":1,"stimulus":[],"xmouse":[840,840,840,840,840,840,837,833,827,824,824,824,824,824,824,824,824,824,824,824,824,824,824,824,824,824,824,824,824,824,824,824,824,824,824,823,823,823,823,823,823,823,822,821,821,811,801,781,749,717,665,650,634,627,612,593,588,584,581,576,565,562,560,558,555,538,528,521],"ymouse":[549,549,549,549,549,549,549,547,544,543,543,543,543,543,543,543,543,543,543,543,543,543,543,543,543,543,543,543,543,543,543,543,543,543,543,542,542,542,542,542,541,540,539,538,537,524,511,495,471,447,390,352,297,270,235,201,192,178,159,136,107,103,102,101,101,95,93,88],"timestamp_mouse":[10,40,49,71,89,110,129,149,169,190,210,229,249,270,290,310,329,350,370,390,409,430,450,470,489,510,530,550,569,590,610,629,650,670,690,709,729,750,771,790,809,829,850,869,889,909,931,949,969,990,1010,1030,1049,1069,1089,1110,1129,1149,1170,1189,1209,1229,1249,1269,1290,1310,1329,1349],"xSR":741.5,"ySR":469.95,"xT1":424.9,"yT1":0,"xT2":1058.1,"yT2":0,"toosoon":0,"cond_shown":"Incongruent","ratio_trial":200,"L_num":7,"L_den":10,"R_num":14,"R_den":28,"correct_side":1,"subjID":"gabrielpeña30","gender":"0","school":"4","age":"9"},{"start_time":1552313172829,"click_time":1552313174437,"finger_time":1552313174116,"fix_duration":931.3053051374814,"trial":35,"RT":1287,"MT":321,"sideResp":2,"stimulus":[],"xmouse":[782,782,782,782,782,782,782,782,782,782,782,782,782,782,782,782,782,782,782,782,782,782,782,782,782,782,782,782,782,782,782,782,782,782,782,782,782,782,782,784,786,786,786,786,787,789,793,795,796,796,796,796,796,796,796,796,796,796,796,796,796,799,802,814,864,900,935,965,980,1003,1017,1025,1035,1042,1047,1048,1049,1049,1050,1055,1059],"ymouse":[507,507,507,507,507,507,507,507,507,507,507,507,507,507,507,507,507,507,507,507,507,507,507,507,507,507,507,507,507,507,507,507,507,507,507,507,507,507,507,507,507,507,507,507,506,505,503,501,501,501,501,501,501,501,501,501,501,501,501,501,501,499,491,470,384,318,257,201,170,117,85,69,52,44,39,38,38,38,38,38,38],"timestamp_mouse":[17,41,48,67,87,108,128,148,167,188,207,227,249,268,287,307,327,347,368,387,407,428,447,468,488,507,528,547,567,587,607,628,647,667,688,708,727,747,767,787,808,829,848,868,887,909,928,948,967,988,1007,1027,1047,1067,1087,1108,1127,1147,1168,1187,1207,1227,1248,1267,1287,1307,1328,1347,1367,1387,1408,1428,1447,1467,1487,1508,1528,1547,1567,1587,1608],"xSR":741.5,"ySR":469.95,"xT1":424.9,"yT1":0,"xT2":1058.1,"yT2":0,"toosoon":0,"cond_shown":"Congruent","ratio_trial":200,"L_num":3,"L_den":10,"R_num":11,"R_den":22,"correct_side":2,"subjID":"gabrielpeña30","gender":"0","school":"4","age":"9"},{"start_time":1552313175930,"click_time":1552313178076,"finger_time":1552313178018,"fix_duration":612.5879038578565,"trial":36,"RT":2088,"MT":58,"sideResp":1,"stimulus":[],"xmouse":[819,819,819,819,819,819,819,819,819,819,819,819,819,819,819,819,819,819,819,819,819,819,819,819,819,819,819,819,819,819,819,819,819,819,819,819,819,819,819,819,819,819,819,819,819,819,819,819,819,819,819,819,819,819,819,819,819,819,819,819,819,819,819,819,819,819,819,819,819,819,819,819,819,819,819,819,819,819,819,819,819,819,819,819,819,819,819,819,819,819,819,819,819,819,819,819,819,819,817,811,802,787,776,760,665,558,489,431],"ymouse":[537,537,537,537,537,537,537,537,537,537,537,537,537,537,537,537,537,537,537,537,537,537,537,537,537,537,537,537,537,537,537,537,537,537,537,537,537,537,537,537,537,537,537,537,537,537,537,537,537,537,537,537,537,537,537,537,537,537,537,537,537,537,537,537,537,537,537,537,537,537,537,537,537,537,537,537,537,537,537,537,537,537,537,537,537,537,537,537,537,537,537,537,537,537,537,537,537,537,537,537,537,534,526,503,360,237,157,85],"timestamp_mouse":[10,33,47,66,87,107,126,146,166,186,206,227,248,267,287,307,326,346,366,388,406,427,448,466,486,506,528,547,567,587,607,627,647,666,686,707,728,747,766,786,806,826,847,866,886,906,926,946,966,986,1006,1026,1046,1067,1087,1107,1127,1147,1166,1186,1207,1227,1248,1267,1287,1307,1326,1346,1366,1386,1406,1427,1446,1467,1486,1506,1527,1547,1567,1586,1606,1627,1647,1666,1688,1707,1726,1747,1766,1786,1806,1827,1847,1866,1886,1906,1927,1946,1966,1986,2006,2026,2046,2066,2088,2106,2126,2146],"xSR":741.5,"ySR":469.95,"xT1":424.9,"yT1":0,"xT2":1058.1,"yT2":0,"toosoon":0,"cond_shown":"Incongruent","ratio_trial":100,"L_num":4,"L_den":8,"R_num":8,"R_den":20,"correct_side":1,"subjID":"gabrielpeña30","gender":"0","school":"4","age":"9"},{"start_time":1552313180590,"click_time":1552313182658,"finger_time":1552313182356,"fix_duration":1253.5148511477205,"trial":37,"RT":1766,"MT":302,"sideResp":1,"stimulus":[],"xmouse":[776,776,776,776,776,776,776,776,776,776,776,776,776,776,776,776,776,776,776,776,776,776,776,776,776,776,776,776,776,776,776,776,776,776,776,776,776,776,776,776,776,776,776,776,776,776,776,776,776,776,776,776,776,776,776,776,776,776,776,776,776,776,776,776,776,776,776,776,776,776,776,776,776,776,776,776,776,776,776,776,776,776,776,776,776,777,775,768,753,727,708,681,669,658,640,622,580,562,548,540,539,535,528,522],"ymouse":[538,538,538,538,538,538,538,538,538,538,538,538,538,538,538,538,538,538,538,538,538,538,538,538,538,538,538,538,538,538,538,538,538,538,538,538,538,538,538,538,538,538,538,538,538,538,538,538,538,538,538,538,538,538,538,538,538,538,538,538,538,538,538,538,538,538,538,538,538,538,538,538,538,538,538,538,538,538,538,538,538,538,538,538,538,536,520,497,445,381,313,232,195,171,144,123,102,96,93,90,90,88,87,86],"timestamp_mouse":[13,41,48,68,87,106,126,147,167,187,206,226,247,267,287,306,326,347,367,387,406,426,446,467,487,506,526,547,567,587,607,626,646,666,686,707,726,746,766,786,807,826,848,867,887,906,926,947,966,987,1006,1026,1046,1066,1088,1107,1126,1146,1167,1187,1207,1226,1246,1266,1287,1306,1326,1346,1367,1387,1406,1426,1448,1467,1486,1506,1526,1547,1567,1586,1607,1626,1646,1668,1687,1707,1726,1746,1766,1787,1806,1826,1847,1866,1887,1908,1927,1946,1968,1986,2007,2026,2060,2068],"xSR":741.5,"ySR":469.95,"xT1":424.9,"yT1":0,"xT2":1058.1,"yT2":0,"toosoon":0,"cond_shown":"Congruent","ratio_trial":200,"L_num":8,"L_den":15,"R_num":3,"R_den":9,"correct_side":1,"subjID":"gabrielpeña30","gender":"0","school":"4","age":"9"},{"start_time":1552313183529,"click_time":1552313185257,"finger_time":1552313184916,"fix_duration":250,"trial":38,"RT":1387,"MT":341,"sideResp":1,"stimulus":[],"xmouse":[821,821,821,821,821,821,821,821,821,821,821,821,821,821,821,821,821,821,821,821,821,821,821,821,821,821,821,821,821,821,821,821,821,821,821,821,821,821,821,821,821,821,821,821,821,821,821,821,821,821,821,821,821,821,821,821,821,821,821,821,821,821,821,821,821,821,821,819,811,760,714,675,653,632,599,587,570,556,541,516,510,508,508,512,518,519,519],"ymouse":[534,534,534,534,534,534,534,534,534,534,534,534,534,534,534,534,534,534,534,534,534,534,534,534,534,534,534,534,534,534,534,534,534,534,534,534,534,534,534,534,534,534,534,534,534,534,534,534,534,534,534,534,534,534,534,534,534,534,534,534,534,534,534,534,534,534,534,531,517,421,369,341,318,291,252,233,211,197,182,162,155,146,138,127,105,102,94],"timestamp_mouse":[10,32,48,67,87,108,129,148,168,188,207,228,247,268,287,307,328,347,368,388,408,429,449,468,487,507,529,548,567,588,608,629,648,667,689,707,727,748,769,787,807,829,849,868,888,908,928,948,968,987,1008,1027,1048,1068,1087,1108,1128,1149,1168,1187,1207,1228,1248,1267,1287,1307,1329,1348,1367,1387,1407,1427,1447,1468,1487,1507,1527,1549,1569,1588,1607,1627,1647,1668,1688,1707,1727],"xSR":741.5,"ySR":469.95,"xT1":424.9,"yT1":0,"xT2":1058.1,"yT2":0,"toosoon":0,"cond_shown":"Congruent","ratio_trial":100,"L_num":12,"L_den":30,"R_num":13,"R_den":26,"correct_side":2,"subjID":"gabrielpeña30","gender":"0","school":"4","age":"9"},{"start_time":1552313189030,"click_time":1552313190716,"finger_time":1552313190317,"fix_duration":1432.468634700248,"trial":39,"RT":1287,"MT":399,"sideResp":2,"stimulus":[],"xmouse":[816,816,816,816,816,816,816,816,816,816,816,816,816,816,816,816,816,816,816,816,816,816,816,816,816,816,816,816,816,816,815,814,814,814,814,814,814,814,814,814,814,814,814,814,814,814,814,814,814,814,814,814,815,816,818,818,818,820,821,823,824,828,832,838,869,908,966,1025,1084,1169,1199,1224,1237,1242,1250,1251,1252,1252,1252,1251,1236,1217,1194,1168,1109],"ymouse":[526,526,526,526,526,526,526,526,526,526,526,526,526,526,526,526,526,526,526,526,526,526,526,526,526,526,526,526,526,526,528,528,529,529,529,529,529,529,529,529,529,529,529,529,529,529,529,529,529,529,529,529,529,528,527,526,526,524,524,520,519,517,515,513,492,454,387,314,242,141,101,72,56,46,34,30,28,28,28,27,29,31,31,31,31],"timestamp_mouse":[10,39,47,66,86,108,126,147,166,186,206,228,247,266,286,307,326,348,367,387,407,427,448,467,487,507,527,546,566,586,606,627,647,666,687,707,727,748,767,786,807,827,846,867,886,907,927,948,967,987,1007,1027,1047,1068,1086,1106,1127,1146,1168,1186,1207,1226,1247,1266,1287,1307,1327,1346,1367,1386,1406,1426,1448,1466,1486,1507,1527,1546,1567,1586,1608,1627,1647,1667,1686],"xSR":741.5,"ySR":469.95,"xT1":424.9,"yT1":0,"xT2":1058.1,"yT2":0,"toosoon":0,"cond_shown":"Incongruent","ratio_trial":200,"L_num":9,"L_den":15,"R_num":8,"R_den":10,"correct_side":2,"subjID":"gabrielpeña30","gender":"0","school":"4","age":"9"},{"start_time":1552313192237,"click_time":1552313193197,"finger_time":1552313193016,"fix_duration":798.275721025259,"trial":40,"RT":779,"MT":181,"sideResp":1,"stimulus":[],"xmouse":[745,745,745,745,745,745,745,745,745,745,745,745,745,745,745,745,745,745,745,745,745,745,745,745,745,745,745,745,745,745,745,745,745,745,745,745,745,745,745,739,737,731,728,725,698,661,607,540,481],"ymouse":[550,550,550,550,550,550,550,550,550,550,550,550,550,550,550,550,550,550,550,550,550,550,550,550,550,550,550,550,550,550,550,550,550,550,550,550,550,550,550,530,520,490,473,454,367,294,195,98,32],"timestamp_mouse":[6,21,43,59,80,101,119,140,160,180,199,219,241,259,280,299,320,340,359,379,400,419,439,460,479,500,519,539,559,579,600,619,641,659,679,700,719,739,759,779,799,819,839,861,880,900,920,940,960],"xSR":741.5,"ySR":469.95,"xT1":424.9,"yT1":0,"xT2":1058.1,"yT2":0,"toosoon":0,"cond_shown":"Incongruent","ratio_trial":300,"L_num":4,"L_den":5,"R_num":8,"R_den":16,"correct_side":1,"subjID":"gabrielpeña30","gender":"0","school":"4","age":"9"},{"start_time":1552313194812,"click_time":1552313196437,"finger_time":1552313196216,"fix_duration":453.31213327440355,"trial":41,"RT":1404,"MT":221,"sideResp":1,"stimulus":[],"xmouse":[757,757,757,757,757,757,757,757,757,757,757,757,757,757,757,757,757,757,757,757,757,757,757,757,757,757,757,757,757,757,757,757,757,757,757,757,757,757,757,757,757,757,757,757,757,757,757,757,757,757,757,757,757,757,757,757,757,757,757,757,757,757,757,757,757,757,757,757,757,757,741,734,694,656,623,576,563,552,544,537,521,504],"ymouse":[512,512,512,512,512,512,512,512,512,512,512,512,512,512,512,512,512,512,512,512,512,512,512,512,512,512,512,512,512,512,512,512,512,512,512,512,512,512,512,512,512,512,512,512,512,512,512,512,512,512,512,512,512,512,512,512,512,512,512,512,512,512,512,512,512,512,512,512,512,506,467,452,374,303,244,179,163,151,140,130,109,88],"timestamp_mouse":[9,42,45,66,84,105,125,144,164,184,204,224,245,264,284,305,326,345,365,385,405,426,445,464,484,504,524,545,564,586,606,625,645,665,685,704,725,746,766,785,805,825,845,865,884,905,925,945,964,984,1005,1025,1044,1065,1084,1106,1125,1145,1165,1184,1205,1224,1244,1264,1284,1304,1326,1345,1365,1386,1404,1424,1445,1464,1484,1504,1525,1544,1564,1585,1604,1625],"xSR":741.5,"ySR":469.95,"xT1":424.9,"yT1":0,"xT2":1058.1,"yT2":0,"toosoon":0,"cond_shown":"Congruent","ratio_trial":300,"L_num":20,"L_den":25,"R_num":13,"R_den":26,"correct_side":1,"subjID":"gabrielpeña30","gender":"0","school":"4","age":"9"},{"start_time":1552313199565,"click_time":1552313201037,"finger_time":1552313200916,"fix_duration":1006.4573844756025,"trial":42,"RT":1351,"MT":121,"sideResp":2,"stimulus":[],"xmouse":[794,794,794,794,794,794,794,794,794,794,794,794,794,794,796,796,796,796,796,796,796,796,796,796,796,796,796,796,796,796,796,796,796,796,796,796,796,796,796,796,796,796,796,796,796,796,796,796,796,796,796,796,796,796,796,796,796,796,796,796,796,796,801,806,813,820,829,858,877,912,950,990,1058,1095],"ymouse":[535,535,535,533,533,533,533,533,533,533,533,533,533,533,532,531,530,529,529,529,529,528,528,527,527,527,527,527,527,527,527,527,527,527,527,527,527,527,527,527,527,527,527,527,527,527,527,527,527,527,527,527,527,527,527,527,527,527,527,527,527,527,521,515,505,491,473,408,350,291,234,184,94,56],"timestamp_mouse":[18,39,52,72,91,113,131,151,171,192,212,232,251,271,292,311,332,351,371,392,412,432,451,471,491,511,532,551,573,591,612,632,653,672,692,713,732,752,772,793,812,832,851,872,892,912,931,951,972,992,1011,1031,1052,1072,1091,1112,1133,1151,1171,1192,1211,1231,1251,1272,1291,1312,1331,1351,1372,1391,1411,1432,1451,1472],"xSR":741.5,"ySR":469.95,"xT1":424.9,"yT1":0,"xT2":1058.1,"yT2":0,"toosoon":0,"cond_shown":"Congruent","ratio_trial":100,"L_num":12,"L_den":30,"R_num":13,"R_den":26,"correct_side":2,"subjID":"gabrielpeña30","gender":"0","school":"4","age":"9"},{"start_time":1552313202579,"click_time":1552313203957,"finger_time":1552313203796,"fix_duration":881.4610528468099,"trial":43,"RT":1217,"MT":161,"sideResp":1,"stimulus":[],"xmouse":[797,797,797,797,797,797,797,797,797,797,797,797,797,797,797,797,797,797,797,797,797,797,797,797,797,797,797,797,797,797,797,797,797,797,797,797,796,796,796,796,796,796,796,796,796,796,796,796,796,796,796,796,796,796,796,794,787,779,770,756,736,645,620,602,583,565,541,533,522],"ymouse":[539,539,539,539,539,539,539,539,539,539,539,539,539,539,539,539,539,539,539,539,539,539,539,539,539,539,539,539,539,539,539,539,539,539,539,539,540,540,540,540,540,540,540,540,540,540,540,540,540,540,540,540,540,540,540,537,523,510,491,470,441,310,251,195,143,100,52,40,30],"timestamp_mouse":[17,39,57,79,98,117,138,158,178,198,217,237,258,278,299,318,338,358,377,397,417,437,457,478,497,517,537,559,577,598,617,637,658,677,697,718,738,757,777,797,818,838,857,877,897,917,937,957,977,998,1017,1038,1059,1078,1098,1119,1137,1157,1179,1197,1217,1237,1258,1277,1297,1317,1338,1359,1378],"xSR":741.5,"ySR":469.95,"xT1":424.9,"yT1":0,"xT2":1058.1,"yT2":0,"toosoon":0,"cond_shown":"Incongruent","ratio_trial":200,"L_num":3,"L_den":4,"R_num":11,"R_den":20,"correct_side":1,"subjID":"gabrielpeña30","gender":"0","school":"4","age":"9"},{"start_time":1552313205039,"click_time":1552313206737,"finger_time":1552313206396,"fix_duration":459.744117129421,"trial":44,"RT":1357,"MT":341,"sideResp":1,"stimulus":[],"xmouse":[831,831,831,831,831,831,831,831,831,830,826,822,816,810,809,809,809,809,809,809,809,809,809,809,809,809,809,809,809,809,809,809,809,809,809,809,809,809,809,809,809,809,809,809,809,809,809,809,809,809,809,809,809,809,809,809,809,809,809,809,809,809,809,809,809,804,778,729,596,501,449,415,392,377,377,376,376,376,376,376,378,383,390,420,433],"ymouse":[550,550,550,550,550,550,550,550,550,550,548,547,545,544,544,544,544,544,544,544,544,544,544,544,544,544,544,544,544,544,544,544,544,544,544,544,544,544,544,544,544,544,544,544,544,544,544,544,544,544,544,544,544,544,544,544,544,544,544,544,544,544,544,544,543,536,498,444,307,201,141,101,74,53,53,51,50,50,50,49,47,45,43,39,37],"timestamp_mouse":[17,39,58,77,99,117,138,158,177,198,217,239,257,277,298,318,337,357,378,398,418,437,457,478,497,518,538,558,577,597,617,639,657,678,698,718,737,758,777,798,819,838,857,878,897,917,938,957,979,999,1018,1037,1057,1079,1097,1118,1137,1157,1177,1197,1217,1237,1258,1277,1297,1319,1337,1357,1377,1398,1417,1437,1457,1477,1498,1517,1537,1559,1577,1598,1617,1637,1658,1678,1698],"xSR":741.5,"ySR":469.95,"xT1":424.9,"yT1":0,"xT2":1058.1,"yT2":0,"toosoon":0,"cond_shown":"Congruent","ratio_trial":200,"L_num":1,"L_den":2,"R_num":21,"R_den":30,"correct_side":2,"subjID":"gabrielpeña30","gender":"0","school":"4","age":"9"},{"start_time":1552313208581,"click_time":1552313209916,"finger_time":1552313209357,"fix_duration":962.3562964676286,"trial":45,"RT":776,"MT":559,"sideResp":2,"stimulus":[],"xmouse":[744,744,744,744,744,744,744,744,744,744,744,744,744,744,744,744,744,744,744,744,744,744,744,744,744,744,744,744,744,744,744,744,744,744,747,751,775,797,823,846,863,882,882,882,882,882,882,882,882,882,882,908,962,1018,1084,1146,1197,1202,1202,1202,1202,1201,1200,1198,1192,1183,1155],"ymouse":[478,478,478,478,478,478,478,478,478,478,478,478,478,478,478,478,478,478,478,478,478,478,478,478,478,478,478,478,478,478,478,478,478,478,481,484,483,477,469,462,459,457,457,457,457,457,457,457,457,457,457,431,352,275,185,103,26,12,7,7,6,6,6,8,13,17,35],"timestamp_mouse":[17,36,55,76,96,115,137,156,176,196,217,236,256,276,295,315,336,356,376,397,416,435,455,476,496,516,536,556,576,596,617,636,656,677,695,715,735,756,776,797,816,836,856,876,897,916,935,955,977,995,1015,1035,1057,1076,1097,1115,1135,1155,1176,1197,1217,1237,1256,1275,1296,1317,1335],"xSR":741.5,"ySR":469.95,"xT1":424.9,"yT1":0,"xT2":1058.1,"yT2":0,"toosoon":0,"cond_shown":"Incongruent","ratio_trial":300,"L_num":4,"L_den":20,"R_num":2,"R_den":4,"correct_side":2,"subjID":"gabrielpeña30","gender":"0","school":"4","age":"9"},{"start_time":1552313211340,"click_time":1552313213096,"finger_time":1552313213017,"fix_duration":642.304038513637,"trial":46,"RT":1677,"MT":79,"sideResp":2,"stimulus":[],"xmouse":[807,807,807,807,807,807,807,807,807,807,807,807,807,807,807,807,807,807,807,807,807,807,807,807,807,807,807,807,807,807,807,807,807,806,804,803,800,796,795,795,795,795,795,795,795,795,795,795,795,795,795,795,795,795,795,795,795,795,795,795,795,795,795,795,795,795,795,795,795,795,795,795,795,795,795,795,795,795,795,795,797,809,824,875,932,975,1032,1084],"ymouse":[525,525,525,525,525,525,525,525,525,525,525,525,525,525,525,525,525,525,525,525,525,525,525,525,525,525,525,525,525,525,525,525,525,524,523,522,519,515,514,514,514,514,514,514,514,514,514,514,514,514,514,514,514,514,514,514,514,514,514,514,514,514,514,514,514,514,514,514,514,514,514,514,514,514,514,514,514,514,514,512,510,501,487,411,291,199,107,43],"timestamp_mouse":[17,36,57,77,97,116,137,156,176,196,218,237,257,278,298,316,338,356,377,397,416,436,457,478,496,516,537,556,578,596,618,638,656,677,697,717,736,756,776,796,818,837,856,876,897,917,937,958,977,997,1016,1037,1056,1076,1096,1116,1136,1157,1176,1197,1216,1236,1256,1277,1296,1316,1338,1357,1377,1396,1417,1437,1457,1476,1497,1516,1538,1556,1576,1596,1616,1637,1658,1677,1697,1716,1736,1756],"xSR":741.5,"ySR":469.95,"xT1":424.9,"yT1":0,"xT2":1058.1,"yT2":0,"toosoon":0,"cond_shown":"Congruent","ratio_trial":100,"L_num":8,"L_den":16,"R_num":2,"R_den":5,"correct_side":1,"subjID":"gabrielpeña30","gender":"0","school":"4","age":"9"},{"start_time":1552313215256,"click_time":1552313216636,"finger_time":1552313216257,"fix_duration":877.4706174511326,"trial":47,"RT":1001,"MT":379,"sideResp":1,"stimulus":[],"xmouse":[798,798,798,798,798,798,798,798,798,798,798,798,798,798,798,798,798,798,798,798,798,798,798,798,798,798,798,798,798,798,798,798,798,798,798,798,798,798,798,798,798,798,798,798,798,798,798,798,798,798,798,798,791,777,773,764,752,740,727,721,711,699,684,649,626,600,578,552,499,468],"ymouse":[517,517,517,517,517,517,517,517,517,517,517,517,517,517,517,517,517,517,517,517,517,517,517,517,517,517,517,517,517,517,517,517,517,517,517,517,517,517,517,517,517,517,517,517,517,517,517,517,517,503,458,423,370,304,285,261,243,227,208,201,193,187,179,162,153,141,131,121,103,93],"timestamp_mouse":[12,22,41,61,80,100,121,142,161,180,200,221,242,261,281,302,322,342,360,381,401,421,440,460,481,500,522,541,560,581,601,620,640,660,681,701,722,741,761,781,801,822,841,860,881,900,920,941,960,981,1001,1021,1042,1060,1081,1101,1122,1141,1160,1181,1200,1220,1242,1261,1281,1302,1320,1341,1360,1380],"xSR":741.5,"ySR":469.95,"xT1":424.9,"yT1":0,"xT2":1058.1,"yT2":0,"toosoon":0,"cond_shown":"Incongruent","ratio_trial":300,"L_num":4,"L_den":5,"R_num":8,"R_den":16,"correct_side":1,"subjID":"gabrielpeña30","gender":"0","school":"4","age":"9"},{"start_time":1552313217824,"click_time":1552313219398,"finger_time":1552313218696,"fix_duration":345.54554707188834,"trial":48,"RT":872,"MT":702,"sideR