[{"start_time":1552313534808,"click_time":1552313537954,"finger_time":1552313536273,"fix_duration":250,"trial":0,"RT":1465,"MT":1681,"sideResp":2,"stimulus":"img/900/equaldotanddens/R/6_Ratio_900_L_9_R_10.png","xmouse":[796,796,796,796,796,796,796,796,796,796,796,796,796,796,796,796,796,796,796,796,796,796,796,796,796,796,796,796,796,796,796,796,796,796,796,796,796,796,796,796,796,796,796,796,796,796,796,796,796,796,796,796,796,796,796,796,796,796,796,796,796,796,796,796,796,796,796,796,796,796,796,796,796,790,784,775,775,775,775,775,775,775,775,775,775,892,898,899,899,899,899,899,899,899,899,898,890,887,885,884,880,866,859,850,842,834,817,816,816,816,810,806,806,806,806,806,806,806,806,806,806,806,806,806,806,806,806,813,828,835,837,837,837,837,837,837,837,837,837,842,979,1103,1147,1166,1172,1177,1177,1180,1182,1186,1187,1188,1185,1179,1174,1168,1158,1154],"ymouse":[562,562,562,562,562,562,562,562,562,562,562,562,562,562,562,562,562,562,562,562,562,562,562,562,562,562,562,562,562,562,562,562,562,562,562,562,562,562,562,562,562,562,562,562,562,562,562,562,562,562,562,562,562,562,562,562,562,562,562,562,562,562,562,562,562,562,562,561,561,561,561,561,561,581,608,719,719,719,719,719,719,719,719,719,719,722,703,699,699,699,699,699,699,697,695,690,681,679,677,677,674,655,646,634,619,601,573,570,569,563,537,515,515,515,515,515,515,515,515,515,515,515,515,515,515,515,514,499,479,469,467,467,467,467,467,467,467,467,467,465,376,273,231,205,192,176,174,167,157,145,132,119,115,112,110,108,102,98],"timestamp_mouse":[6,37,44,65,86,105,125,146,166,186,205,225,245,265,285,305,326,344,365,385,405,425,445,465,485,505,525,546,564,584,605,625,646,666,686,706,725,746,765,785,806,825,845,865,886,905,925,946,966,986,1004,1024,1046,1066,1086,1105,1126,1145,1164,1186,1205,1226,1245,1266,1285,1305,1326,1344,1364,1386,1405,1425,1445,1465,1485,1504,1526,1546,1565,1586,1605,1625,1645,1665,1685,1707,1726,1746,1765,1785,1806,1825,1845,1865,1885,1905,1926,1946,1965,1985,2006,2026,2046,2064,2085,2106,2125,2145,2165,2185,2206,2226,2246,2266,2285,2306,2326,2346,2366,2384,2405,2425,2446,2466,2485,2505,2526,2546,2566,2586,2605,2625,2646,2666,2686,2705,2725,2745,2765,2785,2807,2825,2845,2865,2885,2907,2924,2945,2965,2984,3004,3024,3046,3065,3086,3106,3126,3145],"xSR":741.5,"ySR":500.5,"xT1":424.9,"yT1":0,"xT2":1058.1,"yT2":0,"toosoon":0,"cond_shown":"equaldotanddens","ratio_trial":900,"smaller_num":"9","larger_num":"10","correct_side":2,"subjID":"gabrielsuarez30","gender":"0","age":"9","school":"4","test":{"fix_dur":[250,1500],"timestim":300,"targets_dim":[100,100],"targets_relative_coord":[0.3,0.7],"size_stim":[880,420],"start_dim":[100,100],"size_start":[300,300],"size_fix":60,"samplingrate":20,"img_types":["equaldotsize","equaldotanddens","randomdotsizeEA"],"ratios":[250,500,750,900],"rep_conds":9,"nTrials":120,"trials_to_rest":500,"Trials_order":[106,66,56,75,64,51,36,85,59,100,113,39,68,12,17,44,92,77,34,11,80,119,86,118,65,10,9,49,81,22,27,89,14,41,30,83,88,6,29,93,62,47,71,78,79,13,7,116,69,0,72,18,90,25,52,4,70,19,55,46,53,16,24,15,2,37,45,35,3,31,43,87,58,20,61,98,73,117,103,38,105,48,94,26,110,50,96,112,99,84,28,101,91,82,74,63,108,76,114,60,1,115,97,8,23,104,67,95,40,32,54,102,21,33,111,5,107,42,109,57],"cond_shown":["equaldotanddens","equaldotsize","randomdotsizeEA","equaldotsize","equaldotanddens","equaldotsize","equaldotsize","equaldotanddens","randomdotsizeEA","equaldotanddens","randomdotsizeEA","equaldotsize","randomdotsizeEA","equaldotsize","randomdotsizeEA","randomdotsizeEA","randomdotsizeEA","randomdotsizeEA","equaldotanddens","randomdotsizeEA","randomdotsizeEA","randomdotsizeEA","randomdotsizeEA","equaldotanddens","randomdotsizeEA","equaldotanddens","equaldotsize","equaldotanddens","equaldotsize","equaldotanddens","equaldotsize","randomdotsizeEA","randomdotsizeEA","randomdotsizeEA","equaldotsize","randomdotsizeEA","equaldotanddens","equaldotsize","randomdotsizeEA","equaldotsize","randomdotsizeEA","randomdotsizeEA","randomdotsizeEA","equaldotsize","equaldotanddens","equaldotanddens","equaldotanddens","randomdotsizeEA","equaldotsize","equaldotsize","equaldotsize","equaldotsize","equaldotsize","equaldotanddens","equaldotanddens","equaldotanddens","equaldotanddens","equaldotanddens","equaldotanddens","equaldotanddens","randomdotsizeEA","equaldotanddens","equaldotsize","equaldotsize","randomdotsizeEA","equaldotanddens","equaldotsize","randomdotsizeEA","equaldotsize","equaldotanddens","equaldotanddens","equaldotsize","equaldotanddens","randomdotsizeEA","equaldotanddens","randomdotsizeEA","equaldotanddens","equaldotsize","equaldotanddens","randomdotsizeEA","equaldotsize","equaldotsize","equaldotanddens","randomdotsizeEA","randomdotsizeEA","randomdotsizeEA","equaldotsize","equaldotanddens","equaldotsize","equaldotsize","equaldotanddens","randomdotsizeEA","equaldotanddens","equaldotanddens","randomdotsizeEA","equaldotsize","equaldotsize","equaldotanddens","equaldotsize","equaldotsize","equaldotanddens","equaldotanddens","equaldotanddens","randomdotsizeEA","randomdotsizeEA","randomdotsizeEA","equaldotanddens","randomdotsizeEA","equaldotanddens","randomdotsizeEA","equaldotsize","equaldotsize","equaldotsize","equaldotsize","equaldotsize","randomdotsizeEA","randomdotsizeEA","equaldotsize","equaldotanddens","equaldotsize"],"ratio_trial":[900,750,750,500,500,500,250,250,900,500,500,500,750,250,500,750,750,500,900,900,750,900,250,900,500,900,900,250,900,900,500,500,250,500,750,900,500,750,500,900,250,900,900,750,750,250,750,750,900,250,250,750,750,250,500,500,900,750,750,900,500,500,250,500,250,250,900,900,500,750,750,500,900,750,250,250,250,900,750,250,900,250,900,250,250,250,250,500,500,250,500,500,750,900,250,500,250,500,750,250,250,750,250,750,900,750,750,900,500,750,750,750,900,900,500,500,900,750,250,900],"smaller_num":["9","3","3","2","1","9","6","3","18","9","5","5","15","3","6","6","15","2","9","18","15","9","6","9","1","18","18","2","18","18","10","2","2","1","6","18","10","3","6","18","2","18","9","15","9","3","9","3","9","2","6","3","9","3","6","6","9","6","15","9","6","1","4","1","3","2","9","18","2","6","3","1","18","3","4","4","3","18","3","2","18","2","18","3","6","3","2","5","2","6","3","9","12","18","3","6","2","9","3","4","6","18","3","3","9","18","6","9","6","3","6","3","18","18","3","2","18","6","3","9"],"larger_num":["10","4","4","4","2","18","24","12","20","18","10","10","20","12","12","8","20","4","10","20","20","10","24","10","2","20","20","8","20","20","20","4","8","2","8","20","20","4","12","20","8","20","10","20","12","12","12","4","10","8","24","4","12","12","12","12","10","8","20","10","12","2","16","2","12","8","10","20","4","8","4","2","20","4","16","16","12","20","4","8","20","8","20","12","24","12","8","10","4","24","6","18","16","20","12","12","8","18","4","16","24","24","12","4","10","24","8","10","12","4","8","4","20","20","6","4","20","8","12","10"],"correct_side":[2,1,1,1,2,2,1,1,2,2,1,1,2,1,1,1,2,1,2,2,2,2,1,2,2,2,1,1,2,1,2,1,1,2,1,2,2,1,1,1,1,1,2,2,2,2,2,1,1,1,2,2,2,2,1,1,2,1,2,1,1,2,2,2,1,2,2,1,1,1,1,2,2,1,1,2,2,2,1,2,2,2,1,1,1,1,1,1,2,1,2,1,2,1,2,1,1,1,1,1,2,1,2,1,2,1,2,1,1,1,2,1,2,2,2,1,2,2,2,2],"img_shown":["img/900/equaldotanddens/R/6_Ratio_900_L_9_R_10.png","img/750/equaldotsize/L/8_Ratio_750_L_4_R_3.png","img/750/randomdotsizeEA/L/9_Ratio_750_L_4_R_3.png","img/500/equaldotsize/L/10_Ratio_500_L_4_R_2.png","img/500/equaldotanddens/R/15_Ratio_500_L_1_R_2.png","img/500/equaldotsize/R/1_Ratio_500_L_9_R_18.png","img/250/equaldotsize/L/5_Ratio_250_L_24_R_6.png","img/250/equaldotanddens/L/14_Ratio_250_L_12_R_3.png","img/900/randomdotsizeEA/R/12_Ratio_900_L_18_R_20.png","img/500/equaldotanddens/R/6_Ratio_500_L_9_R_18.png","img/500/randomdotsizeEA/L/7_Ratio_500_L_10_R_5.png","img/500/equaldotsize/L/7_Ratio_500_L_10_R_5.png","img/750/randomdotsizeEA/R/4_Ratio_750_L_15_R_20.png","img/250/equaldotsize/L/15_Ratio_250_L_12_R_3.png","img/500/randomdotsizeEA/L/11_Ratio_500_L_12_R_6.png","img/750/randomdotsizeEA/L/13_Ratio_750_L_8_R_6.png","img/750/randomdotsizeEA/R/5_Ratio_750_L_15_R_20.png","img/500/randomdotsizeEA/L/5_Ratio_500_L_4_R_2.png","img/900/equaldotanddens/R/5_Ratio_900_L_9_R_10.png","img/900/randomdotsizeEA/R/9_Ratio_900_L_18_R_20.png","img/750/randomdotsizeEA/R/3_Ratio_750_L_15_R_20.png","img/900/randomdotsizeEA/R/3_Ratio_900_L_9_R_10.png","img/250/randomdotsizeEA/L/5_Ratio_250_L_24_R_6.png","img/900/equaldotanddens/R/5_Ratio_900_L_9_R_10.png","img/500/randomdotsizeEA/R/12_Ratio_500_L_1_R_2.png","img/900/equaldotanddens/R/14_Ratio_900_L_18_R_20.png","img/900/equaldotsize/L/4_Ratio_900_L_20_R_18.png","img/250/equaldotanddens/L/3_Ratio_250_L_8_R_2.png","img/900/equaldotsize/R/11_Ratio_900_L_18_R_20.png","img/900/equaldotanddens/L/2_Ratio_900_L_20_R_18.png","img/500/equaldotsize/R/3_Ratio_500_L_10_R_20.png","img/500/randomdotsizeEA/L/10_Ratio_500_L_4_R_2.png","img/250/randomdotsizeEA/L/3_Ratio_250_L_8_R_2.png","img/500/randomdotsizeEA/R/15_Ratio_500_L_1_R_2.png","img/750/equaldotsize/L/14_Ratio_750_L_8_R_6.png","img/900/randomdotsizeEA/R/14_Ratio_900_L_18_R_20.png","img/500/equaldotanddens/R/3_Ratio_500_L_10_R_20.png","img/750/equaldotsize/L/10_Ratio_750_L_4_R_3.png","img/500/randomdotsizeEA/L/11_Ratio_500_L_12_R_6.png","img/900/equaldotsize/L/8_Ratio_900_L_20_R_18.png","img/250/randomdotsizeEA/L/7_Ratio_250_L_8_R_2.png","img/900/randomdotsizeEA/L/4_Ratio_900_L_20_R_18.png","img/900/randomdotsizeEA/R/15_Ratio_900_L_9_R_10.png","img/750/equaldotsize/R/5_Ratio_750_L_15_R_20.png","img/750/equaldotanddens/R/15_Ratio_750_L_9_R_12.png","img/250/equaldotanddens/R/11_Ratio_250_L_3_R_12.png","img/750/equaldotanddens/R/15_Ratio_750_L_9_R_12.png","img/750/randomdotsizeEA/L/10_Ratio_750_L_4_R_3.png","img/900/equaldotsize/L/1_Ratio_900_L_10_R_9.png","img/250/equaldotsize/L/3_Ratio_250_L_8_R_2.png","img/250/equaldotsize/R/6_Ratio_250_L_6_R_24.png","img/750/equaldotsize/R/12_Ratio_750_L_3_R_4.png","img/750/equaldotsize/R/15_Ratio_750_L_9_R_12.png","img/250/equaldotanddens/R/11_Ratio_250_L_3_R_12.png","img/500/equaldotanddens/L/13_Ratio_500_L_12_R_6.png","img/500/equaldotanddens/L/11_Ratio_500_L_12_R_6.png","img/900/equaldotanddens/R/7_Ratio_900_L_9_R_10.png","img/750/equaldotanddens/L/13_Ratio_750_L_8_R_6.png","img/750/equaldotanddens/R/5_Ratio_750_L_15_R_20.png","img/900/equaldotanddens/L/1_Ratio_900_L_10_R_9.png","img/500/randomdotsizeEA/L/11_Ratio_500_L_12_R_6.png","img/500/equaldotanddens/R/12_Ratio_500_L_1_R_2.png","img/250/equaldotsize/R/10_Ratio_250_L_4_R_16.png","img/500/equaldotsize/R/15_Ratio_500_L_1_R_2.png","img/250/randomdotsizeEA/L/14_Ratio_250_L_12_R_3.png","img/250/equaldotanddens/R/13_Ratio_250_L_2_R_8.png","img/900/equaldotsize/R/5_Ratio_900_L_9_R_10.png","img/900/randomdotsizeEA/L/10_Ratio_900_L_20_R_18.png","img/500/equaldotsize/L/5_Ratio_500_L_4_R_2.png","img/750/equaldotanddens/L/13_Ratio_750_L_8_R_6.png","img/750/equaldotanddens/L/9_Ratio_750_L_4_R_3.png","img/500/equaldotsize/R/15_Ratio_500_L_1_R_2.png","img/900/equaldotanddens/R/14_Ratio_900_L_18_R_20.png","img/750/randomdotsizeEA/L/8_Ratio_750_L_4_R_3.png","img/250/equaldotanddens/L/2_Ratio_250_L_16_R_4.png","img/250/randomdotsizeEA/R/10_Ratio_250_L_4_R_16.png","img/250/equaldotanddens/R/11_Ratio_250_L_3_R_12.png","img/900/equaldotsize/R/11_Ratio_900_L_18_R_20.png","img/750/equaldotanddens/L/8_Ratio_750_L_4_R_3.png","img/250/randomdotsizeEA/R/13_Ratio_250_L_2_R_8.png","img/900/equaldotsize/R/12_Ratio_900_L_18_R_20.png","img/250/equaldotsize/R/13_Ratio_250_L_2_R_8.png","img/900/equaldotanddens/L/4_Ratio_900_L_20_R_18.png","img/250/randomdotsizeEA/L/14_Ratio_250_L_12_R_3.png","img/250/randomdotsizeEA/L/5_Ratio_250_L_24_R_6.png","img/250/randomdotsizeEA/L/15_Ratio_250_L_12_R_3.png","img/250/equaldotsize/L/3_Ratio_250_L_8_R_2.png","img/500/equaldotanddens/L/7_Ratio_500_L_10_R_5.png","img/500/equaldotsize/R/9_Ratio_500_L_2_R_4.png","img/250/equaldotsize/L/5_Ratio_250_L_24_R_6.png","img/500/equaldotanddens/R/2_Ratio_500_L_3_R_6.png","img/500/randomdotsizeEA/L/4_Ratio_500_L_18_R_9.png","img/750/equaldotanddens/R/11_Ratio_750_L_12_R_16.png","img/900/equaldotanddens/L/10_Ratio_900_L_20_R_18.png","img/250/randomdotsizeEA/R/4_Ratio_250_L_3_R_12.png","img/500/equaldotsize/L/11_Ratio_500_L_12_R_6.png","img/250/equaldotsize/L/7_Ratio_250_L_8_R_2.png","img/500/equaldotanddens/L/4_Ratio_500_L_18_R_9.png","img/750/equaldotsize/L/9_Ratio_750_L_4_R_3.png","img/250/equaldotsize/L/2_Ratio_250_L_16_R_4.png","img/250/equaldotanddens/R/6_Ratio_250_L_6_R_24.png","img/750/equaldotanddens/L/6_Ratio_750_L_24_R_18.png","img/250/equaldotanddens/R/9_Ratio_250_L_3_R_12.png","img/750/randomdotsizeEA/L/8_Ratio_750_L_4_R_3.png","img/900/randomdotsizeEA/R/6_Ratio_900_L_9_R_10.png","img/750/randomdotsizeEA/L/6_Ratio_750_L_24_R_18.png","img/750/equaldotanddens/R/2_Ratio_750_L_6_R_8.png","img/900/randomdotsizeEA/L/1_Ratio_900_L_10_R_9.png","img/500/equaldotanddens/L/11_Ratio_500_L_12_R_6.png","img/750/randomdotsizeEA/L/8_Ratio_750_L_4_R_3.png","img/750/equaldotsize/R/2_Ratio_750_L_6_R_8.png","img/750/equaldotsize/L/10_Ratio_750_L_4_R_3.png","img/900/equaldotsize/R/9_Ratio_900_L_18_R_20.png","img/900/equaldotsize/R/14_Ratio_900_L_18_R_20.png","img/500/equaldotsize/R/2_Ratio_500_L_3_R_6.png","img/500/randomdotsizeEA/L/5_Ratio_500_L_4_R_2.png","img/900/randomdotsizeEA/R/9_Ratio_900_L_18_R_20.png","img/750/equaldotsize/R/2_Ratio_750_L_6_R_8.png","img/250/equaldotanddens/R/9_Ratio_250_L_3_R_12.png","img/900/equaldotsize/R/3_Ratio_900_L_9_R_10.png"],"Rat0":[["12_Ratio_0_L_9_R_0.png","13_Ratio_0_L_6_R_0.png","5_Ratio_0_L_2_R_0.png","6_Ratio_0_L_4_R_0.png","8_Ratio_0_L_6_R_0.png"],["1_Ratio_0_L_0_R_17.png","10_Ratio_0_L_0_R_22.png","11_Ratio_0_L_0_R_1.png","14_Ratio_0_L_0_R_24.png","15_Ratio_0_L_0_R_4.png","2_Ratio_0_L_0_R_5.png","3_Ratio_0_L_0_R_17.png","4_Ratio_0_L_0_R_7.png","7_Ratio_0_L_0_R_19.png","9_Ratio_0_L_0_R_15.png"]],"Rat250":[["1_Ratio_250_L_8_R_2.png","14_Ratio_250_L_12_R_3.png","15_Ratio_250_L_12_R_3.png","2_Ratio_250_L_16_R_4.png","3_Ratio_250_L_8_R_2.png","5_Ratio_250_L_24_R_6.png","7_Ratio_250_L_8_R_2.png"],["10_Ratio_250_L_4_R_16.png","11_Ratio_250_L_3_R_12.png","12_Ratio_250_L_5_R_20.png","13_Ratio_250_L_2_R_8.png","4_Ratio_250_L_3_R_12.png","6_Ratio_250_L_6_R_24.png","8_Ratio_250_L_1_R_4.png","9_Ratio_250_L_3_R_12.png"]],"Rat500":[["10_Ratio_500_L_4_R_2.png","11_Ratio_500_L_12_R_6.png","13_Ratio_500_L_12_R_6.png","4_Ratio_500_L_18_R_9.png","5_Ratio_500_L_4_R_2.png","7_Ratio_500_L_10_R_5.png","8_Ratio_500_L_8_R_4.png"],["1_Ratio_500_L_9_R_18.png","12_Ratio_500_L_1_R_2.png","14_Ratio_500_L_5_R_10.png","15_Ratio_500_L_1_R_2.png","2_Ratio_500_L_3_R_6.png","3_Ratio_500_L_10_R_20.png","6_Ratio_500_L_9_R_18.png","9_Ratio_500_L_2_R_4.png"]],"Rat750":[["1_Ratio_750_L_20_R_15.png","10_Ratio_750_L_4_R_3.png","13_Ratio_750_L_8_R_6.png","14_Ratio_750_L_8_R_6.png","6_Ratio_750_L_24_R_18.png","8_Ratio_750_L_4_R_3.png","9_Ratio_750_L_4_R_3.png"],["11_Ratio_750_L_12_R_16.png","12_Ratio_750_L_3_R_4.png","15_Ratio_750_L_9_R_12.png","2_Ratio_750_L_6_R_8.png","3_Ratio_750_L_15_R_20.png","4_Ratio_750_L_15_R_20.png","5_Ratio_750_L_15_R_20.png","7_Ratio_750_L_3_R_4.png"]],"Rat900":[["1_Ratio_900_L_10_R_9.png","10_Ratio_900_L_20_R_18.png","2_Ratio_900_L_20_R_18.png","4_Ratio_900_L_20_R_18.png","8_Ratio_900_L_20_R_18.png"],["11_Ratio_900_L_18_R_20.png","12_Ratio_900_L_18_R_20.png","13_Ratio_900_L_18_R_20.png","14_Ratio_900_L_18_R_20.png","15_Ratio_900_L_9_R_10.png","3_Ratio_900_L_9_R_10.png","5_Ratio_900_L_9_R_10.png","6_Ratio_900_L_9_R_10.png","7_Ratio_900_L_9_R_10.png","9_Ratio_900_L_18_R_20.png"]],"Rat1000":[["10_Ratio_1000_L_16_R_16.png","11_Ratio_1000_L_6_R_6.png","12_Ratio_1000_L_14_R_14.png","13_Ratio_1000_L_20_R_20.png","15_Ratio_1000_L_15_R_15.png","2_Ratio_1000_L_17_R_17.png","4_Ratio_1000_L_9_R_9.png","5_Ratio_1000_L_6_R_6.png","6_Ratio_1000_L_19_R_19.png","8_Ratio_1000_L_14_R_14.png","9_Ratio_1000_L_25_R_25.png"],["1_Ratio_1000_L_1_R_1.png","14_Ratio_1000_L_17_R_17.png","3_Ratio_1000_L_17_R_17.png","7_Ratio_1000_L_6_R_6.png"]]}},{"start_time":1552313540042,"click_time":1552313541115,"finger_time":1552313540813,"fix_duration":1247.689302104017,"trial":1,"RT":771,"MT":302,"sideResp":1,"stimulus":"img/750/equaldotsize/L/8_Ratio_750_L_4_R_3.png","xmouse":[803,803,803,803,803,803,803,803,803,803,803,803,803,803,803,803,803,803,803,803,803,803,803,803,803,803,803,803,803,803,803,803,803,803,803,803,804,804,797,765,738,727,717,702,662,646,628,608,598,584,566,548,530,514],"ymouse":[531,531,531,531,531,531,531,531,531,531,531,531,531,531,531,531,531,531,531,531,531,531,531,531,531,531,531,531,531,531,531,531,531,531,531,531,524,502,439,313,249,211,178,140,76,58,42,26,21,17,15,15,15,15],"timestamp_mouse":[10,32,51,72,92,111,132,151,172,191,211,231,252,272,290,312,331,352,371,391,412,432,451,472,492,511,531,551,571,591,612,631,650,671,692,711,732,752,771,791,811,831,851,872,891,911,932,951,971,992,1011,1032,1052,1072],"xSR":741.5,"ySR":469.95,"xT1":424.9,"yT1":0,"xT2":1058.1,"yT2":0,"toosoon":0,"cond_shown":"equaldotsize","ratio_trial":750,"smaller_num":"3","larger_num":"4","correct_side":1,"subjID":"gabrielsuarez30","gender":"0","age":"9","school":"4"},{"start_time":1552313542511,"click_time":1552313543993,"finger_time":1552313543834,"fix_duration":597.870241877755,"trial":2,"RT":1323,"MT":159,"sideResp":2,"stimulus":"img/750/randomdotsizeEA/L/9_Ratio_750_L_4_R_3.png","xmouse":[763,763,763,763,763,763,763,763,763,763,763,763,763,763,763,763,763,763,763,763,763,763,763,763,763,763,763,763,763,763,763,763,763,763,763,763,763,763,763,763,763,763,763,763,763,763,763,763,763,763,763,763,763,763,763,763,763,763,763,763,763,763,764,767,783,820,887,952,1008,1049,1074,1110,1121,1130,1135],"ymouse":[518,518,518,518,518,518,518,518,518,518,518,518,518,518,518,518,518,518,518,518,518,518,518,518,518,518,518,518,518,518,518,518,518,518,518,518,518,518,518,518,518,518,518,518,518,518,518,518,518,518,518,518,518,518,518,518,518,518,518,518,518,518,518,518,503,477,421,355,274,211,178,130,113,100,93],"timestamp_mouse":[11,24,54,62,83,102,122,143,163,183,203,223,242,263,282,302,322,341,362,383,403,422,442,462,483,503,523,542,563,583,601,623,642,663,682,703,723,743,763,782,802,822,843,862,881,903,923,942,963,982,1001,1021,1042,1063,1082,1103,1122,1142,1163,1182,1203,1223,1242,1263,1282,1303,1323,1341,1362,1383,1402,1423,1442,1461,1482],"xSR":741.5,"ySR":469.95,"xT1":424.9,"yT1":0,"xT2":1058.1,"yT2":0,"toosoon":0,"cond_shown":"randomdotsizeEA","ratio_trial":750,"smaller_num":"3","larger_num":"4","correct_side":1,"subjID":"gabrielsuarez30","gender":"0","age":"9","school":"4"},{"start_time":1552313547667,"click_time":1552313548793,"finger_time":1552313548394,"fix_duration":570.9039803411331,"trial":3,"RT":727,"MT":399,"sideResp":1,"stimulus":"img/500/equaldotsize/L/10_Ratio_500_L_4_R_2.png","xmouse":[777,777,777,777,777,777,777,777,777,777,777,777,777,777,777,777,777,777,777,777,777,777,777,777,777,777,777,777,777,777,777,777,777,777,777,782,784,772,723,693,669,651,633,611,601,589,576,569,560,556,552,550,546,538,534,530,524],"ymouse":[517,517,517,517,517,517,517,517,517,517,517,517,517,517,517,517,517,517,517,517,517,517,517,517,517,517,517,517,517,517,517,517,517,517,517,486,448,309,144,98,73,57,42,29,28,28,30,34,43,46,51,52,55,57,57,57,58],"timestamp_mouse":[10,26,46,66,86,107,127,145,165,186,207,227,246,266,285,306,327,346,365,386,407,426,445,467,487,506,526,547,567,587,607,626,645,667,687,707,727,747,766,786,807,827,846,866,886,907,927,946,967,986,1007,1027,1046,1067,1086,1107,1126],"xSR":741.5,"ySR":469.95,"xT1":424.9,"yT1":0,"xT2":1058.1,"yT2":0,"toosoon":0,"cond_shown":"equaldotsize","ratio_trial":500,"smaller_num":"2","larger_num":"4","correct_side":1,"subjID":"gabrielsuarez30","gender":"0","age":"9","school":"4"},{"start_time":1552313549893,"click_time":1552313551315,"finger_time":1552313550874,"fix_duration":377.53134632653087,"trial":4,"RT":981,"MT":441,"sideResp":2,"stimulus":"img/500/equaldotanddens/R/15_Ratio_500_L_1_R_2.png","xmouse":[792,792,792,792,792,792,792,792,792,792,792,792,792,792,792,792,792,792,792,792,792,792,792,792,792,792,792,792,792,792,792,792,792,792,792,792,792,792,792,792,792,792,792,792,792,792,792,792,804,871,965,1055,1141,1154,1168,1181,1192,1202,1202,1198,1189,1183,1172,1171,1171,1169,1150,1135,1132,1131,1130,1129],"ymouse":[540,540,540,540,540,540,540,540,540,540,540,540,540,540,540,540,540,540,540,540,540,540,540,540,540,540,540,540,540,540,540,540,540,540,540,540,540,540,540,540,540,540,540,540,540,540,540,540,533,507,482,469,461,452,438,419,397,334,313,290,266,244,205,190,184,176,139,120,115,112,107,84],"timestamp_mouse":[13,24,52,61,81,101,120,141,161,181,200,221,241,261,281,301,321,341,360,380,400,420,441,460,480,501,519,540,561,581,601,620,639,659,681,700,721,740,760,780,801,820,841,861,879,900,921,941,961,981,1000,1022,1040,1061,1081,1100,1121,1140,1160,1179,1200,1221,1240,1261,1281,1300,1322,1340,1361,1381,1400,1421],"xSR":741.5,"ySR":469.95,"xT1":424.9,"yT1":0,"xT2":1058.1,"yT2":0,"toosoon":0,"cond_shown":"equaldotanddens","ratio_trial":500,"smaller_num":"1","larger_num":"2","correct_side":2,"subjID":"gabrielsuarez30","gender":"0","age":"9","school":"4"},{"start_time":1552313553276,"click_time":1552313554293,"finger_time":1552313554033,"fix_duration":681.8850040771854,"trial":5,"RT":757,"MT":260,"sideResp":2,"stimulus":"img/500/equaldotsize/R/1_Ratio_500_L_9_R_18.png","xmouse":[794,794,794,794,794,794,794,794,794,794,794,794,794,794,794,794,794,794,794,794,794,794,794,794,794,794,794,794,794,794,794,794,794,798,802,813,823,872,900,928,955,982,1032,1048,1063,1074,1083,1097,1103,1106,1110],"ymouse":[501,501,501,501,501,501,501,501,501,501,501,501,501,501,501,501,501,501,501,501,501,501,501,501,501,501,501,501,501,501,501,501,501,496,493,485,477,429,393,354,313,275,221,208,192,177,161,123,109,100,89],"timestamp_mouse":[17,45,58,76,98,117,137,158,177,198,217,237,258,276,298,317,337,358,377,398,418,438,457,477,496,518,538,558,576,598,618,637,656,678,697,717,737,757,778,797,818,837,857,878,898,918,937,956,977,996,1017],"xSR":741.5,"ySR":469.95,"xT1":424.9,"yT1":0,"xT2":1058.1,"yT2":0,"toosoon":0,"cond_shown":"equaldotsize","ratio_trial":500,"smaller_num":"9","larger_num":"18","correct_side":2,"subjID":"gabrielsuarez30","gender":"0","age":"9","school":"4"},{"start_time":1552313556035,"click_time":1552313557015,"finger_time":1552313556634,"fix_duration":1200.8480380737212,"trial":6,"RT":599,"MT":381,"sideResp":1,"stimulus":"img/250/equaldotsize/L/5_Ratio_250_L_24_R_6.png","xmouse":[774,774,774,774,774,774,774,774,774,774,774,774,774,774,774,774,774,774,774,774,774,774,774,774,774,774,774,774,774,767,752,735,719,703,658,640,631,629,622,614,613,611,608,599,591,585,575,557,512],"ymouse":[501,501,501,501,501,501,501,501,501,501,501,501,501,501,501,501,501,501,501,501,501,501,501,501,501,501,501,499,480,445,406,366,330,293,187,142,117,107,92,82,81,79,75,71,67,66,63,60,46],"timestamp_mouse":[18,38,64,79,99,118,139,158,178,199,218,239,259,279,299,319,338,359,377,399,418,439,458,479,499,518,538,558,579,599,617,638,658,678,698,719,738,758,780,798,818,838,858,880,897,918,938,958,980],"xSR":741.5,"ySR":469.95,"xT1":424.9,"yT1":0,"xT2":1058.1,"yT2":0,"toosoon":0,"cond_shown":"equaldotsize","ratio_trial":250,"smaller_num":"6","larger_num":"24","correct_side":1,"subjID":"gabrielsuarez30","gender":"0","age":"9","school":"4"},{"start_time":1552313560212,"click_time":1552313561115,"finger_time":1552313560814,"fix_duration":958.6656770815435,"trial":7,"RT":602,"MT":301,"sideResp":1,"stimulus":"img/250/equaldotanddens/L/14_Ratio_250_L_12_R_3.png","xmouse":[781,781,781,781,781,781,781,781,781,781,781,781,781,781,781,781,781,781,781,781,781,781,781,781,781,781,781,781,778,770,756,677,635,609,594,587,585,585,584,581,575,565,552,541,530,504],"ymouse":[531,531,531,531,531,531,531,531,531,531,531,531,531,531,531,531,531,531,531,531,531,531,531,531,531,531,531,523,505,485,459,309,230,160,128,112,97,92,86,80,72,69,67,66,64,61],"timestamp_mouse":[9,21,50,61,82,102,122,142,162,182,201,222,241,262,281,302,321,341,361,382,402,422,442,461,482,502,522,541,561,582,602,621,642,661,681,701,721,741,762,780,803,820,841,861,881,903],"xSR":741.5,"ySR":469.95,"xT1":424.9,"yT1":0,"xT2":1058.1,"yT2":0,"toosoon":0,"cond_shown":"equaldotanddens","ratio_trial":250,"smaller_num":"3","larger_num":"12","correct_side":1,"subjID":"gabrielsuarez30","gender":"0","age":"9","school":"4"},{"start_time":1552313562533,"click_time":1552313564834,"finger_time":1552313564254,"fix_duration":398.1393309894005,"trial":8,"RT":1721,"MT":580,"sideResp":2,"stimulus":"img/900/randomdotsizeEA/R/12_Ratio_900_L_18_R_20.png","xmouse":[794,794,794,794,794,794,794,794,794,794,794,794,794,794,794,794,794,794,794,794,794,794,794,794,794,794,794,794,794,794,794,794,794,794,794,794,794,794,794,794,794,794,794,794,794,794,794,794,794,794,794,794,794,794,794,794,794,794,794,794,794,794,794,794,794,794,794,794,794,794,794,794,794,794,794,794,794,794,794,794,794,794,794,794,797,835,879,948,1014,1060,1102,1114,1127,1135,1141,1148,1151,1153,1154,1156,1156,1156,1156,1156,1156,1154,1150,1146,1141,1136,1131,1131,1131,1131,1131,1131],"ymouse":[528,528,528,528,528,528,528,528,528,528,528,528,528,528,528,528,528,528,528,528,528,528,528,528,528,528,528,528,528,528,528,528,528,528,528,528,528,528,528,528,528,528,528,528,528,528,528,528,528,528,528,528,528,528,528,528,528,528,528,528,528,528,528,528,528,528,528,528,528,528,528,528,528,528,528,528,528,528,528,528,528,528,528,527,524,481,443,400,365,336,310,299,285,269,252,210,197,187,180,174,164,161,157,154,151,141,134,128,118,110,101,100,100,100,100,98],"timestamp_mouse":[9,21,43,60,81,99,120,141,160,181,199,220,240,260,280,301,321,340,359,380,401,421,441,460,481,500,519,540,560,581,600,621,640,661,680,701,721,741,761,779,800,821,841,861,881,900,920,941,961,980,1001,1019,1041,1060,1081,1100,1121,1140,1159,1180,1201,1220,1240,1261,1280,1301,1320,1340,1360,1381,1400,1420,1441,1461,1480,1501,1520,1541,1560,1581,1601,1619,1641,1660,1680,1699,1721,1740,1761,1780,1800,1820,1841,1860,1880,1900,1921,1940,1961,1980,2000,2020,2041,2060,2080,2100,2120,2141,2160,2180,2200,2219,2241,2261,2280,2300],"xSR":741.5,"ySR":469.95,"xT1":424.9,"yT1":0,"xT2":1058.1,"yT2":0,"toosoon":0,"cond_shown":"randomdotsizeEA","ratio_trial":900,"smaller_num":"18","larger_num":"20","correct_side":2,"subjID":"gabrielsuarez30","gender":"0","age":"9","school":"4"},{"start_time":1552313566291,"click_time":1552313567615,"finger_time":1552313567094,"fix_duration":656.0655643236912,"trial":9,"RT":803,"MT":521,"sideResp":2,"stimulus":"img/500/equaldotanddens/R/6_Ratio_500_L_9_R_18.png","xmouse":[778,778,778,778,778,778,778,778,778,778,778,778,778,778,778,778,778,778,778,778,778,778,778,778,778,778,778,778,778,778,778,778,778,778,778,778,778,778,778,784,815,847,904,942,986,986,986,986,986,986,986,986,986,986,986,986,986,1141,1145,1147,1147,1147,1147,1144,1134,1126,1115],"ymouse":[527,527,527,527,527,527,527,527,527,527,527,527,527,527,527,527,527,527,527,527,527,527,527,527,527,527,527,527,527,527,527,527,527,527,527,527,527,527,527,512,434,351,200,113,31,31,31,31,31,31,31,31,31,31,31,31,31,106,131,137,137,137,135,123,111,103,94],"timestamp_mouse":[10,22,42,61,83,102,122,143,163,182,202,222,242,263,281,301,322,342,362,383,402,423,443,463,483,502,522,543,561,583,603,623,642,663,683,701,721,742,763,783,803,822,843,863,882,902,922,943,961,982,1003,1022,1042,1062,1082,1102,1123,1142,1162,1182,1203,1222,1242,1262,1283,1303,1324],"xSR":741.5,"ySR":469.95,"xT1":424.9,"yT1":0,"xT2":1058.1,"yT2":0,"toosoon":0,"cond_shown":"equaldotanddens","ratio_trial":500,"smaller_num":"9","larger_num":"18","correct_side":2,"subjID":"gabrielsuarez30","gender":"0","age":"9","school":"4"},{"start_time":1552313568866,"click_time":1552313570493,"finger_time":1552313569733,"fix_duration":531.0125583637224,"trial":10,"RT":867,"MT":760,"sideResp":1,"stimulus":"img/500/randomdotsizeEA/L/7_Ratio_500_L_10_R_5.png","xmouse":[828,828,828,828,828,828,828,828,828,828,828,828,828,828,828,828,828,828,828,828,828,828,828,828,828,828,828,828,828,828,828,828,828,828,828,828,828,828,828,828,828,827,831,852,859,863,865,865,865,865,865,865,865,865,865,865,858,835,820,806,797,791,786,782,779,771,760,738,662,635,622,615,600,600,600,600,600,600,600,600,600,505],"ymouse":[533,533,533,533,533,533,533,533,533,533,533,533,533,532,532,532,532,532,532,532,532,532,532,532,532,532,532,532,532,532,532,532,532,532,532,532,532,532,532,532,532,524,515,479,464,456,453,452,452,452,452,452,452,452,452,452,455,466,472,476,477,477,478,478,475,456,427,371,187,121,67,35,0,0,0,0,0,0,0,0,0,3],"timestamp_mouse":[9,27,48,68,88,108,126,148,168,186,208,228,248,268,288,307,327,348,368,388,407,428,448,467,488,507,528,548,567,588,608,627,648,667,687,708,728,746,767,787,808,828,846,867,888,907,928,947,967,988,1008,1028,1047,1068,1087,1107,1127,1148,1167,1186,1207,1228,1247,1268,1288,1307,1327,1348,1367,1387,1407,1427,1448,1468,1487,1507,1528,1548,1567,1587,1608,1627],"xSR":741.5,"ySR":469.95,"xT1":424.9,"yT1":0,"xT2":1058.1,"yT2":0,"toosoon":0,"cond_shown":"randomdotsizeEA","ratio_trial":500,"smaller_num":"5","larger_num":"10","correct_side":1,"subjID":"gabrielsuarez30","gender":"0","age":"9","school":"4"},{"start_time":1552313572348,"click_time":1552313573873,"finger_time":1552313573534,"fix_duration":1114.7612112737058,"trial":11,"RT":1186,"MT":339,"sideResp":1,"stimulus":"img/500/equaldotsize/L/7_Ratio_500_L_10_R_5.png","xmouse":[777,777,777,777,777,777,777,777,777,777,777,777,777,777,777,777,777,777,777,777,777,777,777,777,777,777,777,777,777,777,777,777,777,777,777,777,777,777,777,777,777,777,777,777,777,777,777,777,777,777,777,777,777,777,777,777,777,777,778,768,752,738,720,703,666,647,630,618,616,613,612,610,608,582,531,481,433],"ymouse":[500,500,500,500,500,500,500,500,500,500,500,500,500,500,500,500,500,500,500,500,500,500,500,500,500,500,500,500,500,500,500,500,500,500,500,500,500,500,500,500,500,500,500,500,500,500,500,500,500,500,500,500,500,500,500,500,500,500,490,416,379,352,327,306,286,282,278,272,270,267,263,257,249,216,167,130,98],"timestamp_mouse":[13,28,46,66,86,105,126,145,165,185,206,224,245,266,286,305,324,345,366,386,405,425,446,465,486,505,525,545,566,586,605,625,645,665,685,706,726,746,764,786,806,825,845,866,885,905,926,945,965,986,1006,1024,1045,1066,1084,1106,1126,1146,1166,1186,1205,1224,1246,1266,1285,1306,1326,1344,1366,1386,1406,1425,1445,1467,1485,1506,1525],"xSR":741.5,"ySR":469.95,"xT1":424.9,"yT1":0,"xT2":1058.1,"yT2":0,"toosoon":0,"cond_shown":"equaldotsize","ratio_trial":500,"smaller_num":"5","larger_num":"10","correct_side":1,"subjID":"gabrielsuarez30","gender":"0","age":"9","school":"4"},{"start_time":1552313575478,"click_time":1552313577054,"finger_time":1552313576713,"fix_duration":643.7002186879754,"trial":12,"RT":1235,"MT":341,"sideResp":1,"stimulus":"img/750/randomdotsizeEA/R/4_Ratio_750_L_15_R_20.png","xmouse":[806,806,806,806,806,806,806,806,806,806,806,806,806,806,806,806,806,806,806,806,806,806,806,806,806,806,806,806,806,806,806,806,806,806,806,806,806,806,806,806,806,806,806,806,806,806,806,806,806,806,806,806,806,806,806,806,806,806,806,802,795,787,771,770,770,770,769,748,736,723,706,664,631,597,566,548,536,518,504],"ymouse":[515,515,515,515,515,515,515,515,515,515,515,515,515,515,515,515,515,515,515,515,515,515,515,515,515,515,515,515,515,515,515,515,515,515,515,515,515,515,515,515,515,515,515,515,515,515,515,515,515,515,515,515,515,515,515,515,515,515,515,504,484,468,444,443,443,443,442,413,404,394,378,336,298,260,223,193,172,109,55],"timestamp_mouse":[15,52,54,76,95,115,135,156,175,195,214,236,256,274,295,315,335,356,376,395,415,435,455,476,496,514,536,556,575,596,616,635,656,675,696,716,736,756,775,796,816,836,856,874,895,916,936,956,975,995,1016,1036,1056,1075,1095,1116,1136,1156,1176,1196,1216,1235,1255,1275,1294,1316,1336,1356,1376,1395,1415,1437,1455,1475,1495,1515,1535,1555,1576],"xSR":741.5,"ySR":469.95,"xT1":424.9,"yT1":0,"xT2":1058.1,"yT2":0,"toosoon":0,"cond_shown":"randomdotsizeEA","ratio_trial":750,"smaller_num":"15","larger_num":"20","correct_side":2,"subjID":"gabrielsuarez30","gender":"0","age":"9","school":"4"},{"start_time":1552313595086,"click_time":1552313596294,"finger_time":1552313595973,"fix_duration":250,"trial":13,"RT":887,"MT":321,"sideResp":1,"stimulus":"img/250/equaldotsize/L/15_Ratio_250_L_12_R_3.png","xmouse":[776,776,776,776,776,776,776,776,776,776,776,776,776,776,776,776,776,776,776,776,776,776,776,776,776,776,776,776,776,776,776,776,776,776,776,776,776,776,776,776,776,776,776,774,760,720,634,557,523,512,501,493,483,479,475,474,473,473,474,477,480],"ymouse":[603,603,603,603,603,603,603,603,603,603,603,603,603,603,603,603,603,603,603,603,603,603,603,603,603,603,603,603,603,603,603,603,603,603,603,603,603,603,603,603,603,603,603,582,531,469,329,232,196,174,157,143,124,118,113,109,109,108,105,102,99],"timestamp_mouse":[10,27,47,68,89,109,128,149,169,188,207,228,248,269,288,308,328,348,369,388,408,428,448,468,488,508,529,548,569,588,608,628,649,668,687,708,728,749,769,788,807,828,849,868,887,909,929,948,969,988,1007,1028,1048,1068,1089,1109,1129,1148,1167,1187,1208],"xSR":741.5,"ySR":573.95,"xT1":424.9,"yT1":0,"xT2":1058.1,"yT2":0,"toosoon":0,"cond_shown":"equaldotsize","ratio_trial":250,"smaller_num":"3","larger_num":"12","correct_side":1,"subjID":"gabrielsuarez30","gender":"0","age":"9","school":"4"},{"start_time":1552313598626,"click_time":1552313599694,"finger_time":1552313599494,"fix_duration":250,"trial":14,"RT":868,"MT":200,"sideResp":2,"stimulus":"img/500/randomdotsizeEA/L/11_Ratio_500_L_12_R_6.png","xmouse":[820,820,820,820,820,820,820,820,820,820,820,820,820,820,820,820,820,820,820,820,820,820,820,820,820,820,820,820,820,820,820,820,820,820,820,820,820,820,820,820,820,822,837,860,888,932,954,988,1029,1113,1140,1141,1142,1141],"ymouse":[664,664,664,664,664,664,664,664,664,664,664,664,664,664,664,664,664,664,664,664,664,664,664,664,664,664,664,664,664,664,664,664,664,664,664,664,664,664,664,664,664,664,624,547,463,311,225,127,32,0,0,0,0,9],"timestamp_mouse":[10,38,48,68,88,109,128,149,168,187,208,229,248,269,289,308,327,349,367,389,409,428,449,469,488,509,529,547,568,588,608,628,647,668,689,708,727,748,768,789,808,829,849,868,887,908,927,949,968,994,1008,1028,1049,1068],"xSR":741.5,"ySR":573.95,"xT1":424.9,"yT1":0,"xT2":1058.1,"yT2":0,"toosoon":0,"cond_shown":"randomdotsizeEA","ratio_trial":500,"smaller_num":"6","larger_num":"12","correct_side":1,"subjID":"gabrielsuarez30","gender":"0","age":"9","school":"4"},{"start_time":1552313602593,"click_time":1552313603554,"finger_time":1552313603235,"fix_duration":458.0045407729791,"trial":15,"RT":642,"MT":319,"sideResp":1,"stimulus":"img/750/randomdotsizeEA/L/13_Ratio_750_L_8_R_6.png","xmouse":[783,783,783,783,783,783,783,783,783,783,783,783,783,783,783,783,783,783,783,783,783,783,783,783,783,783,783,783,783,783,785,788,796,787,770,746,717,650,643,640,637,629,625,623,619,613,607,570,514],"ymouse":[634,634,634,634,634,634,634,634,634,634,634,634,634,634,634,634,634,634,634,634,634,634,634,634,634,634,634,634,634,634,634,629,561,518,456,392,322,230,218,213,205,184,172,166,156,146,138,117,94],"timestamp_mouse":[14,27,42,62,80,100,121,141,161,181,200,221,241,260,282,301,321,341,362,380,401,422,441,461,480,502,520,540,560,581,601,621,642,661,682,701,720,742,761,781,801,822,840,862,882,902,921,940,961],"xSR":741.5,"ySR":573.95,"xT1":424.9,"yT1":0,"xT2":1058.1,"yT2":0,"toosoon":0,"cond_shown":"randomdotsizeEA","ratio_trial":750,"smaller_num":"6","larger_num":"8","correct_side":1,"subjID":"gabrielsuarez30","gender":"0","age":"9","school":"4"},{"start_time":1552313605378,"click_time":1552313606854,"finger_time":1552313605934,"fix_duration":862.3909096017259,"trial":16,"RT":556,"MT":920,"sideResp":1,"stimulus":"img/750/randomdotsizeEA/R/5_Ratio_750_L_15_R_20.png","xmouse":[808,808,808,808,808,808,808,808,808,808,808,808,808,808,808,808,808,808,808,808,808,808,808,809,808,804,798,793,792,790,787,781,774,769,759,745,721,620,562,496,434,342,314,302,298,298,312,316,316,319,327,334,344,353,360,365,369,375,377,378,382,384,389,391,392,392,393,394,395,396,398,408,422,426],"ymouse":[604,604,604,604,604,604,604,604,604,604,604,604,604,604,604,604,604,604,604,604,604,604,604,602,597,589,580,571,565,558,551,541,533,529,523,517,507,467,436,389,350,300,279,265,251,233,130,79,59,46,30,18,11,9,8,7,7,7,7,7,7,7,7,7,8,8,8,8,9,10,10,13,17,18],"timestamp_mouse":[17,36,56,76,96,117,137,156,177,197,216,235,256,276,297,316,336,357,377,395,415,436,457,477,496,515,536,556,577,596,616,637,656,676,695,715,735,756,777,795,816,837,856,876,895,915,937,956,976,995,1016,1037,1056,1076,1096,1116,1135,1156,1176,1197,1216,1236,1256,1276,1296,1316,1337,1356,1376,1397,1417,1437,1456,1475],"xSR":741.5,"ySR":573.95,"xT1":424.9,"yT1":0,"xT2":1058.1,"yT2":0,"toosoon":0,"cond_shown":"randomdotsizeEA","ratio_trial":750,"smaller_num":"15","larger_num":"20","correct_side":2,"subjID":"gabrielsuarez30","gender":"0","age":"9","school":"4"},{"start_time":1552313608919,"click_time":1552313610034,"finger_time":1552313609833,"fix_duration":1023.510298455328,"trial":17,"RT":914,"MT":201,"sideResp":1,"stimulus":"img/500/randomdotsizeEA/L/5_Ratio_500_L_4_R_2.png","xmouse":[770,770,770,770,770,770,770,770,770,770,770,770,770,770,770,770,770,770,770,770,770,770,770,770,770,770,770,770,770,770,770,770,770,770,770,770,770,770,769,769,766,763,760,757,757,738,710,679,648,605,589,573,558,546,529,509],"ymouse":[636,636,636,636,636,636,636,636,636,636,636,636,636,636,636,636,636,636,636,636,636,636,636,636,636,636,636,636,636,636,636,636,636,636,636,636,636,636,636,635,625,624,623,622,611,490,416,343,280,199,174,150,131,117,97,80],"timestamp_mouse":[14,36,56,74,95,116,135,154,176,196,215,236,256,275,296,315,335,354,375,395,414,436,455,474,495,514,534,555,575,595,615,634,654,674,696,715,734,754,776,795,815,834,854,876,894,914,935,954,976,996,1015,1035,1054,1074,1095,1115],"xSR":741.5,"ySR":573.95,"xT1":424.9,"yT1":0,"xT2":1058.1,"yT2":0,"toosoon":0,"cond_shown":"randomdotsizeEA","ratio_trial":500,"smaller_num":"2","larger_num":"4","correct_side":1,"subjID":"gabrielsuarez30","gender":"0","age":"9","school":"4"},{"start_time":1552313612723,"click_time":1552313614455,"finger_time":1552313613933,"fix_duration":467.775020859598,"trial":18,"RT":1210,"MT":522,"sideResp":2,"stimulus":"img/900/equaldotanddens/R/5_Ratio_900_L_9_R_10.png","xmouse":[788,788,788,788,788,788,788,788,788,788,788,788,788,788,788,787,787,787,787,787,787,787,787,787,787,785,785,785,785,785,787,787,788,788,788,788,788,789,789,789,790,790,790,790,790,790,790,790,790,790,790,790,790,790,790,790,790,791,795,804,820,827,831,838,872,912,936,963,989,1011,1032,1034,1034,1034,1031,1029,1027,1024,1021,1018,1016,1016,1016,1017,1024,1041,1060],"ymouse":[637,637,637,637,637,637,637,637,637,637,637,637,637,637,638,640,640,640,640,640,640,641,644,648,653,657,657,657,657,657,654,653,652,652,652,652,652,648,644,643,642,642,642,642,642,642,642,642,642,642,642,642,642,642,642,642,642,640,632,609,552,530,514,494,410,329,293,259,230,201,157,141,128,122,111,106,98,93,88,85,83,83,82,81,80,80,84],"timestamp_mouse":[10,40,51,72,90,110,130,151,172,191,211,232,251,271,292,310,330,350,371,392,411,432,450,470,492,512,531,550,570,591,611,631,651,671,692,711,731,751,771,792,810,832,851,872,890,912,932,951,971,990,1010,1031,1052,1071,1092,1111,1130,1151,1172,1190,1210,1230,1252,1271,1292,1310,1331,1351,1370,1390,1410,1432,1452,1470,1492,1511,1531,1551,1571,1591,1611,1631,1651,1672,1691,1710,1731],"xSR":741.5,"ySR":573.95,"xT1":424.9,"yT1":0,"xT2":1058.1,"yT2":0,"toosoon":0,"cond_shown":"equaldotanddens","ratio_trial":900,"smaller_num":"9","larger_num":"10","correct_side":2,"subjID":"gabrielsuarez30","gender":"0","age":"9","school":"4"},{"start_time":1552313616609,"click_time":1552313622814,"finger_time":1552313622454,"fix_duration":1113.96536261663,"trial":19,"RT":5845,"MT":360,"sideResp":2,"stimulus":"img/900/randomdotsizeEA/R/9_Ratio_900_L_18_R_20.png","xmouse":[823,823,823,823,823,823,823,823,823,823,823,823,823,823,823,823,823,823,823,823,823,823,823,823,823,823,823,823,823,823,823,823,823,823,823,823,823,823,823,823,823,823,823,823,823,823,823,823,823,823,823,823,823,823,823,823,823,823,823,823,823,823,823,823,823,823,823,823,823,823,823,823,823,823,823,823,823,823,823,823,823,823,823,823,823,823,823,823,823,823,823,823,823,823,823,823,823,823,823,823,823,823,823,823,823,823,823,823,823,823,823,823,823,823,823,823,823,823,823,823,823,823,823,823,823,823,823,823,823,823,823,823,823,823,823,823,823,823,823,823,823,823,823,823,823,823,823,823,823,823,823,823,823,823,823,823,823,823,823,823,823,823,823,823,823,823,823,823,823,823,823,823,823,823,823,823,823,823,823,823,823,823,823,823,823,823,823,823,823,823,823,823,823,823,823,823,823,823,823,823,823,823,823,823,823,823,823,823,823,823,823,823,823,823,823,823,823,823,823,823,823,823,823,823,823,823,823,823,823,823,823,823,823,823,823,823,823,823,823,823,823,823,823,823,823,823,823,823,823,823,823,823,823,823,823,823,823,823,823,823,823,823,823,823,823,823,823,823,823,823,823,823,823,823,823,823,823,823,823,823,823,823,823,823,823,823,823,823,823,823,823,830,854,869,883,891,891,891,891,891,891,891,889,869,845,856,915,984,1027,1053,1060],"ymouse":[671,671,671,671,671,671,671,671,671,671,671,671,671,671,671,671,671,671,671,671,671,671,671,671,671,671,671,671,671,671,671,671,671,671,671,671,671,671,671,671,671,671,671,671,671,671,671,671,671,671,671,671,671,671,671,671,671,671,671,671,671,671,671,671,671,671,671,671,671,671,671,671,671,671,671,671,671,671,671,671,671,671,671,671,671,671,671,671,671,671,671,671,671,671,671,671,671,671,671,671,671,671,671,671,671,671,671,671,671,671,671,671,671,671,671,671,671,671,671,671,671,671,671,671,671,671,671,671,671,671,671,671,671,671,671,671,671,671,671,671,671,671,671,671,671,671,671,671,671,671,671,671,671,671,671,671,671,671,671,671,671,671,671,671,671,671,671,671,671,671,671,671,671,671,671,671,671,671,671,671,671,671,671,671,671,671,671,671,671,671,671,671,671,671,671,671,671,671,671,671,671,671,671,671,671,671,671,671,671,671,671,671,671,671,671,671,671,671,671,671,671,671,671,671,671,671,671,671,671,671,671,671,671,671,671,671,671,671,671,671,671,671,671,671,671,671,671,671,671,671,671,671,671,671,671,671,671,671,671,671,671,671,671,671,671,671,671,671,671,671,671,671,671,671,671,671,671,671,671,671,671,671,671,671,671,671,671,671,671,671,671,665,627,611,606,605,605,605,605,605,605,604,586,515,413,251,188,138,101,70,54],"timestamp_mouse":[9,38,44,65,85,106,125,146,164,184,205,226,244,264,286,306,325,345,365,385,405,424,446,465,484,504,525,545,564,584,605,625,645,666,685,706,725,745,765,786,805,825,844,865,886,905,925,946,966,985,1005,1024,1045,1065,1086,1105,1126,1145,1164,1184,1206,1226,1246,1266,1284,1305,1326,1345,1366,1385,1405,1426,1445,1466,1486,1505,1525,1546,1565,1585,1605,1625,1646,1666,1685,1706,1726,1745,1764,1786,1806,1825,1845,1866,1885,1904,1926,1946,1965,1985,2004,2024,2045,2066,2085,2105,2124,2145,2164,2186,2205,2225,2245,2264,2285,2306,2324,2345,2364,2385,2404,2424,2446,2465,2486,2506,2525,2545,2565,2584,2605,2624,2645,2666,2685,2705,2724,2744,2765,2786,2805,2825,2846,2866,2885,2905,2924,2946,2965,2986,3004,3024,3044,3065,3085,3104,3126,3145,3164,3185,3206,3224,3245,3266,3285,3305,3324,3346,3365,3384,3405,3425,3445,3466,3485,3504,3525,3545,3564,3585,3606,3625,3645,3665,3686,3705,3725,3746,3764,3786,3806,3825,3845,3866,3886,3905,3924,3945,3966,3985,4004,4026,4046,4065,4084,4105,4125,4145,4165,4186,4206,4225,4245,4266,4286,4305,4326,4346,4366,4386,4405,4426,4446,4465,4484,4505,4524,4545,4566,4584,4605,4626,4645,4665,4686,4705,4724,4744,4765,4786,4805,4826,4845,4866,4885,4905,4925,4945,4966,4986,5004,5025,5045,5064,5086,5104,5124,5146,5165,5185,5205,5224,5245,5266,5284,5304,5326,5345,5364,5385,5404,5425,5446,5465,5486,5504,5524,5545,5565,5584,5604,5625,5644,5664,5686,5706,5725,5744,5765,5786,5806,5824,5845,5865,5886,5906,5925,5944,5972,5984,6006,6025,6044,6064,6084,6105,6124,6144,6166,6185,6205],"xSR":741.5,"ySR":573.95,"xT1":424.9,"yT1":0,"xT2":1058.1,"yT2":0,"toosoon":0,"cond_shown":"randomdotsizeEA","ratio_trial":900,"smaller_num":"18","larger_num":"20","correct_side":2,"subjID":"gabrielsuarez30","gender":"0","age":"9","school":"4"},{"start_time":1552313625239,"click_time":1552313627014,"finger_time":1552313626174,"fix_duration":1163.0990295318852,"trial":20,"RT":935,"MT":840,"sideResp":2,"stimulus":"img/750/randomdotsizeEA/R/3_Ratio_750_L_15_R_20.png","xmouse":[754,754,754,754,754,754,754,754,754,754,754,754,754,754,754,754,754,754,754,754,754,754,754,754,754,754,754,754,754,754,754,754,754,754,754,754,754,754,754,754,754,754,754,773,811,842,892,901,918,945,956,966,976,982,995,1001,1008,1014,1026,1031,1041,1051,1070,1094,1135,1149,1154,1156,1156,1155,1154,1153,1152,1150,1142,1139,1137,1137,1136,1136,1134,1134,1133,1133,1132,1131,1130,1130,1129],"ymouse":[635,635,635,635,635,635,635,635,635,635,635,635,635,635,635,635,635,635,635,635,635,635,635,635,635,635,635,635,635,635,635,635,635,635,635,635,635,635,635,635,635,635,635,630,603,573,502,482,441,373,352,334,321,312,283,265,253,247,244,243,238,230,216,202,172,160,154,148,142,126,121,120,117,116,112,112,111,110,110,108,106,106,106,105,105,105,104,103,95],"timestamp_mouse":[16,46,55,74,94,114,136,156,176,195,215,234,255,276,296,315,334,354,375,395,416,435,455,475,495,515,534,556,576,595,615,635,655,676,695,715,735,754,776,795,814,836,854,874,895,935,937,955,974,994,1015,1035,1054,1074,1095,1115,1135,1155,1175,1194,1215,1234,1254,1275,1295,1314,1334,1355,1375,1394,1414,1434,1454,1475,1495,1515,1535,1556,1574,1594,1614,1634,1655,1675,1696,1716,1736,1755,1775],"xSR":741.5,"ySR":573.95,"xT1":424.9,"yT1":0,"xT2":1058.1,"yT2":0,"toosoon":0,"cond_shown":"randomdotsizeEA","ratio_trial":750,"smaller_num":"15","larger_num":"20","correct_side":2,"subjID":"gabrielsuarez30","gender":"0","age":"9","school":"4"},{"start_time":1552313630036,"click_time":1552313631334,"finger_time":1552313631153,"fix_duration":1478.0057999076066,"trial":21,"RT":1117,"MT":181,"sideResp":1,"stimulus":"img/900/randomdotsizeEA/R/3_Ratio_900_L_9_R_10.png","xmouse":[812,812,812,812,812,813,813,813,813,813,813,813,813,813,813,813,813,813,813,813,813,813,813,813,813,813,813,813,813,813,813,813,813,813,813,813,813,813,813,813,813,813,813,813,813,813,813,813,813,813,813,813,813,813,813,813,797,767,730,699,624,570,546,532,523,515],"ymouse":[601,601,601,601,601,600,600,600,600,600,600,600,600,600,600,600,600,600,600,600,600,600,600,600,600,600,600,600,600,600,600,600,600,600,600,600,600,600,600,600,600,600,600,600,600,600,600,600,600,600,600,600,600,600,600,590,536,471,419,375,284,223,194,172,148,96],"timestamp_mouse":[1,18,42,59,78,99,119,137,158,177,197,217,239,259,277,298,317,338,359,379,398,417,437,458,478,498,517,539,559,579,598,619,638,657,678,699,718,738,758,778,798,817,837,859,879,898,918,938,958,979,997,1017,1039,1059,1079,1097,1117,1139,1159,1178,1197,1217,1238,1257,1277,1298],"xSR":741.5,"ySR":573.95,"xT1":424.9,"yT1":0,"xT2":1058.1,"yT2":0,"toosoon":0,"cond_shown":"randomdotsizeEA","ratio_trial":900,"smaller_num":"9","larger_num":"10","correct_side":2,"subjID":"gabrielsuarez30","gender":"0","age":"9","school":"4"},{"start_time":1552313633100,"click_time":1552313634593,"finger_time":1552313633974,"fix_duration":664.8227505749194,"trial":22,"RT":874,"MT":619,"sideResp":1,"stimulus":"img/250/randomdotsizeEA/L/5_Ratio_250_L_24_R_6.png","xmouse":[812,812,812,812,812,812,812,812,812,812,812,812,812,812,812,812,812,812,812,812,812,812,812,812,812,812,812,812,812,812,812,812,812,812,812,812,812,812,812,812,812,813,799,762,700,504,390,233,159,116,104,104,117,130,150,183,211,217,224,232,241,261,273,282,301,328,353,363,365,368,375,387,403,422,443],"ymouse":[618,618,618,618,618,618,618,618,618,618,618,618,618,618,618,618,618,618,618,618,618,618,618,618,618,618,618,618,618,618,618,618,618,618,618,618,618,618,618,618,618,610,580,516,424,206,123,23,0,0,0,0,0,0,0,0,0,2,10,28,54,98,110,112,106,89,65,56,52,45,37,30,26,23,22],"timestamp_mouse":[14,33,64,74,94,114,134,154,174,193,215,234,255,275,295,314,334,354,375,395,415,434,453,473,495,515,534,553,573,593,614,633,655,674,694,714,733,754,775,794,814,833,854,874,894,914,933,953,973,993,1014,1034,1054,1074,1093,1113,1133,1153,1174,1193,1213,1234,1254,1274,1293,1313,1334,1354,1375,1395,1416,1434,1453,1473,1493],"xSR":741.5,"ySR":573.95,"xT1":424.9,"yT1":0,"xT2":1058.1,"yT2":0,"toosoon":0,"cond_shown":"randomdotsizeEA","ratio_trial":250,"smaller_num":"6","larger_num":"24","correct_side":1,"subjID":"gabrielsuarez30","gender":"0","age":"9","school":"4"},{"start_time":1552313635827,"click_time":1552313637234,"finger_time":1552313636814,"fix_duration":250,"trial":23,"RT":987,"MT":420,"sideResp":2,"stimulus":"img/900/equaldotanddens/R/5_Ratio_900_L_9_R_10.png","xmouse":[817,817,817,817,817,817,817,817,817,817,817,817,817,817,817,817,817,817,817,817,817,817,817,817,817,817,817,817,817,817,817,817,817,817,817,817,817,817,817,817,817,817,817,817,817,817,817,817,824,842,917,943,966,993,1022,1101,1136,1174,1206,1238,1250,1251,1252,1252,1246,1223,1211,1200,1186,1169,1155],"ymouse":[651,651,651,651,651,651,651,651,651,651,651,651,651,651,651,651,651,651,651,651,651,651,651,651,651,651,651,651,651,651,651,651,651,651,651,651,651,651,651,651,651,651,651,651,651,651,651,651,644,627,548,514,474,426,378,268,217,162,116,46,13,4,0,0,0,0,0,0,3,8,10],"timestamp_mouse":[12,34,47,67,88,107,127,148,166,188,207,227,247,268,288,306,327,346,366,388,408,426,446,466,487,507,528,546,568,587,606,626,648,667,688,707,727,748,768,787,806,828,847,866,888,907,927,946,966,987,1007,1026,1046,1067,1088,1108,1127,1148,1166,1188,1207,1228,1247,1267,1286,1306,1326,1347,1367,1386,1406],"xSR":741.5,"ySR":573.95,"xT1":424.9,"yT1":0,"xT2":1058.1,"yT2":0,"toosoon":0,"cond_shown":"equaldotanddens","ratio_trial":900,"smaller_num":"9","larger_num":"10","correct_side":2,"subjID":"gabrielsuarez30","gender":"0","age":"9","school":"4"},{"start_time":1552313640888,"click_time":1552313641934,"finger_time":1552313641813,"fix_duration":1310.0588982141264,"trial":24,"RT":925,"MT":121,"sideResp":2,"stimulus":"img/500/randomdotsizeEA/R/12_Ratio_500_L_1_R_2.png","xmouse":[802,802,802,802,802,802,802,802,802,802,802,802,802,802,802,802,802,802,802,802,802,802,802,802,802,802,802,802,802,802,802,802,802,802,802,802,802,802,802,802,802,802,802,802,805,821,878,1001,1042,1072,1103,1124,1155],"ymouse":[649,649,649,649,649,649,649,649,649,649,649,649,649,649,649,649,649,649,649,649,649,649,649,649,649,649,649,649,649,649,649,649,649,649,649,649,649,649,649,649,649,649,649,649,649,636,580,393,314,246,191,147,82],"timestamp_mouse":[9,42,46,66,86,106,126,145,167,187,205,226,245,266,287,306,327,346,365,386,407,426,447,466,486,506,526,546,567,586,607,625,645,666,687,706,726,745,766,787,807,826,846,865,885,905,925,946,965,985,1005,1027,1046],"xSR":741.5,"ySR":573.95,"xT1":424.9,"yT1":0,"xT2":1058.1,"yT2":0,"toosoon":0,"cond_shown":"randomdotsizeEA","ratio_trial":500,"smaller_num":"1","larger_num":"2","correct_side":2,"subjID":"gabrielsuarez30","gender":"0","age":"9","school":"4"},{"start_time":1552313645264,"click_time":1552313646894,"finger_time":1552313646173,"fix_duration":588.4107489284735,"trial":25,"RT":909,"MT":721,"sideResp":1,"stimulus":"img/900/equaldotanddens/R/14_Ratio_900_L_18_R_20.png","xmouse":[801,801,801,801,801,801,801,801,801,801,801,801,801,801,801,801,801,801,801,801,801,801,801,801,801,801,801,801,801,801,801,801,801,801,801,801,801,801,801,801,801,801,801,801,800,795,792,792,792,788,782,776,745,723,700,687,679,668,662,659,651,645,641,629,622,615,607,592,578,572,567,562,558,557,557,556,556,553,542,533,526,520],"ymouse":[615,615,615,615,615,615,615,615,615,615,615,615,615,615,615,615,615,615,615,615,615,615,615,615,615,615,615,615,615,615,615,615,615,615,615,615,615,615,615,615,615,615,615,612,579,542,523,503,492,479,457,430,349,300,256,228,209,183,167,157,142,127,117,104,99,95,94,96,100,101,103,103,103,103,103,103,103,103,102,100,98,96],"timestamp_mouse":[13,46,50,70,91,110,130,150,171,189,209,230,251,269,291,311,331,350,371,390,410,431,451,469,491,511,529,549,569,591,610,631,650,670,691,711,730,751,770,790,811,831,851,870,890,909,929,951,970,990,1010,1031,1051,1070,1090,1110,1130,1151,1169,1189,1209,1229,1249,1270,1290,1309,1330,1351,1370,1390,1410,1429,1450,1470,1490,1511,1529,1550,1570,1591,1611,1630],"xSR":741.5,"ySR":573.95,"xT1":424.9,"yT1":0,"xT2":1058.1,"yT2":0,"toosoon":0,"cond_shown":"equaldotanddens","ratio_trial":900,"smaller_num":"18","larger_num":"20","correct_side":2,"subjID":"gabrielsuarez30","gender":"0","age":"9","school":"4"},{"start_time":1552313650679,"click_time":1552313651935,"finger_time":1552313651233,"fix_duration":1402.0928888167412,"trial":26,"RT":554,"MT":702,"sideResp":2,"stimulus":"img/900/equaldotsize/L/4_Ratio_900_L_20_R_18.png","xmouse":[792,792,792,792,792,792,792,792,792,792,792,792,792,792,792,792,792,792,792,792,792,792,792,792,793,793,794,801,802,802,802,802,802,802,802,802,802,802,802,802,802,802,802,802,802,802,810,836,857,895,934,968,1015,1025,1033,1039,1040,1042,1047,1051,1057,1064,1072],"ymouse":[590,590,590,590,590,590,590,590,590,590,590,590,590,590,590,590,590,590,590,590,590,590,590,590,586,585,582,567,566,565,565,565,565,565,565,565,565,565,565,565,565,565,565,565,565,565,552,517,486,438,393,346,262,236,223,215,205,197,172,150,126,101,67],"timestamp_mouse":[15,34,56,75,94,116,136,154,175,195,216,236,255,275,296,316,336,355,376,396,414,435,456,476,495,515,535,554,576,596,615,636,655,675,694,715,736,755,776,795,814,836,855,875,895,916,936,955,975,995,1015,1035,1055,1075,1096,1115,1136,1155,1176,1194,1216,1234,1255],"xSR":741.5,"ySR":573.95,"xT1":424.9,"yT1":0,"xT2":1058.1,"yT2":0,"toosoon":0,"cond_shown":"equaldotsize","ratio_trial":900,"smaller_num":"18","larger_num":"20","correct_side":1,"subjID":"gabrielsuarez30","gender":"0","age":"9","school":"4"},{"start_time":1552313653858,"click_time":1552313655395,"finger_time":1552313654594,"fix_duration":623.3567644964666,"trial":27,"RT":736,"MT":801,"sideResp":1,"stimulus":"img/250/equaldotanddens/L/3_Ratio_250_L_8_R_2.png","xmouse":[794,794,794,794,794,794,794,794,794,794,794,794,794,794,794,794,794,794,794,794,794,794,794,794,794,794,794,794,794,794,794,794,794,794,790,782,773,759,707,638,595,554,502,478,460,445,434,416,308,277,266,265,265,265,265,267,270,272,278,288,303,317,330,349,356,360,371,388,433,459,472,477,478,480,481,483,485],"ymouse":[622,622,622,622,622,622,622,622,622,622,622,622,622,622,622,622,622,622,622,622,622,622,622,622,622,622,622,622,622,622,622,622,622,622,607,581,554,524,474,411,365,327,293,280,270,259,244,219,96,71,61,60,60,60,58,53,49,47,45,44,42,38,35,26,23,20,9,0,0,0,0,0,0,0,0,0,1],"timestamp_mouse":[15,36,55,76,96,117,136,156,176,196,217,235,256,275,295,316,335,355,376,395,416,436,455,476,495,516,536,556,576,596,615,637,657,677,695,717,736,756,777,796,816,837,857,876,896,917,936,957,975,997,1016,1037,1057,1076,1096,1117,1136,1156,1177,1196,1217,1237,1255,1276,1296,1317,1336,1357,1376,1396,1417,1435,1456,1476,1497,1517,1537],"xSR":741.5,"ySR":573.95,"xT1":424.9,"yT1":0,"xT2":1058.1,"yT2":0,"toosoon":0,"cond_shown":"equaldotanddens","ratio_trial":250,"smaller_num":"2","larger_num":"8","correct_side":1,"subjID":"gabrielsuarez30","gender":"0","age":"9","school":"4"},{"start_time":1552313657394,"click_time":1552313659915,"finger_time":1552313658034,"fix_duration":637.9260266903719,"trial":28,"RT":640,"MT":1881,"sideResp":1,"stimulus":"img/900/equaldotsize/R/11_Ratio_900_L_18_R_20.png","xmouse":[786,786,786,786,786,786,786,786,786,786,786,786,786,786,786,786,786,786,786,786,786,786,786,786,786,786,786,786,786,788,794,813,891,924,965,1004,1033,1064,1069,1071,1075,1080,1090,1095,1096,1096,1096,1096,1096,1096,1096,1096,1096,1096,1096,1096,1096,1096,1096,1096,1096,1098,1100,1101,1102,1103,1103,1104,1104,1104,1104,1104,1104,1104,1104,1104,1104,1104,1104,1104,1104,1104,1104,1104,1104,1104,1104,1104,1104,1104,1104,1104,1104,1096,1088,1085,1083,1079,1077,1071,1066,1060,1041,1037,1029,1020,1008,975,954,933,914,896,855,841,833,827,822,798,780,759,735,673,627,600,576,554,514],"ymouse":[608,608,608,608,608,608,608,608,608,608,608,608,608,608,608,608,608,608,608,608,608,608,608,608,608,608,608,608,608,609,609,604,569,545,505,453,414,358,341,326,309,286,259,251,247,242,233,226,214,198,184,154,140,135,135,135,135,135,135,135,134,126,122,117,113,110,108,102,101,101,101,101,101,101,101,101,101,101,101,101,101,101,101,101,101,101,101,101,101,101,101,101,101,107,111,114,114,114,114,114,111,106,90,86,82,78,76,69,68,68,65,61,54,53,53,53,53,54,60,67,73,88,90,83,78,74,70],"timestamp_mouse":[9,20,40,59,81,101,120,140,161,179,200,221,240,259,281,299,319,340,360,380,400,420,440,460,481,499,520,540,559,579,600,620,640,660,680,700,720,739,760,781,800,820,841,860,879,901,921,940,960,980,1001,1021,1040,1061,1080,1099,1120,1141,1160,1180,1200,1221,1240,1260,1280,1300,1321,1339,1360,1380,1400,1421,1440,1460,1479,1499,1521,1539,1560,1579,1600,1621,1640,1660,1680,1699,1719,1740,1760,1780,1800,1821,1839,1860,1881,1901,1920,1941,1960,1979,1999,2019,2039,2060,2080,2100,2119,2141,2160,2180,2201,2221,2240,2260,2279,2299,2319,2339,2359,2380,2400,2421,2440,2460,2479,2499,2521],"xSR":741.5,"ySR":573.95,"xT1":424.9,"yT1":0,"xT2":1058.1,"yT2":0,"toosoon":0,"cond_shown":"equaldotsize","ratio_trial":900,"smaller_num":"18","larger_num":"20","correct_side":2,"subjID":"gabrielsuarez30","gender":"0","age":"9","school":"4"},{"start_time":1552313661185,"click_time":1552313663134,"finger_time":1552313662615,"fix_duration":250,"trial":29,"RT":1430,"MT":519,"sideResp":1,"stimulus":"img/900/equaldotanddens/L/2_Ratio_900_L_20_R_18.png","xmouse":[792,792,792,792,792,792,792,792,792,792,792,792,792,792,792,792,792,792,792,792,792,792,792,792,792,792,792,792,792,792,792,792,792,792,792,793,795,797,798,798,798,798,798,798,798,798,798,799,799,799,799,799,799,795,792,790,790,790,790,790,790,790,792,792,792,792,792,793,797,799,799,799,786,777,773,765,727,698,664,637,623,620,621,621,623,624,624,624,624,619,610,594,555,543,536,531,527,516],"ymouse":[634,634,634,634,634,634,634,634,634,634,634,634,634,634,634,634,634,634,634,634,634,634,634,634,634,634,634,634,634,634,634,634,634,634,628,621,617,612,612,612,612,612,612,612,611,610,609,607,607,607,607,607,608,618,630,636,638,638,638,638,637,632,627,627,626,626,626,622,609,593,574,551,465,421,383,343,233,153,77,27,3,0,0,0,0,0,0,0,0,4,12,23,33,33,33,33,32,30],"timestamp_mouse":[9,43,50,69,89,110,129,150,170,188,210,230,250,269,289,309,330,349,370,389,410,430,449,469,490,510,528,549,568,590,609,630,649,670,689,709,728,749,768,790,808,829,850,869,888,910,928,950,970,990,1010,1030,1049,1068,1090,1108,1130,1148,1168,1188,1209,1230,1249,1270,1289,1309,1330,1349,1370,1390,1409,1430,1450,1469,1490,1509,1530,1549,1570,1590,1608,1630,1649,1668,1689,1710,1729,1748,1769,1789,1808,1829,1849,1869,1889,1909,1929,1949],"xSR":741.5,"ySR":573.95,"xT1":424.9,"yT1":0,"xT2":1058.1,"yT2":0,"toosoon":0,"cond_shown":"equaldotanddens","ratio_trial":900,"smaller_num":"18","larger_num":"20","correct_side":1,"subjID":"gabrielsuarez30","gender":"0","age":"9","school":"4"},{"start_time":1552313665406,"click_time":1552313666674,"finger_time":1552313666093,"fix_duration":1389.7738224119419,"trial":30,"RT":687,"MT":581,"sideResp":2,"stimulus":"img/500/equaldotsize/R/3_Ratio_500_L_10_R_20.png","xmouse":[778,778,778,778,778,778,778,778,778,778,778,778,778,778,778,778,778,778,778,778,778,778,778,778,778,778,778,778,778,778,778,778,778,782,789,817,842,860,875,883,891,918,933,938,938,936,935,941,958,981,1041,1107,1161,1196,1226,1247,1255,1252,1242,1229,1200,1181,1169,1155],"ymouse":[604,604,604,604,604,604,604,604,604,604,602,596,594,594,594,594,594,594,594,594,594,594,594,594,594,594,594,594,594,594,594,594,594,584,569,524,488,456,424,392,338,284,273,266,260,257,250,245,236,226,191,141,94,56,17,0,0,0,0,0,4,16,24,33],"timestamp_mouse":[8,28,48,69,87,109,129,149,167,189,208,229,249,268,287,308,329,349,368,389,408,427,448,468,489,509,528,548,569,588,609,628,649,668,687,709,728,748,769,788,808,827,848,868,888,908,928,949,969,988,1009,1027,1047,1067,1089,1108,1128,1149,1169,1188,1208,1227,1248,1268],"xSR":741.5,"ySR":573.95,"xT1":424.9,"yT1":0,"xT2":1058.1,"yT2":0,"toosoon":0,"cond_shown":"equaldotsize","ratio_trial":500,"smaller_num":"10","larger_num":"20","correct_side":2,"subjID":"gabrielsuarez30","gender":"0","age":"9","school":"4"},{"start_time":1552313670270,"click_time":1552313671793,"finger_time":1552313671234,"fix_duration":1394.403996745822,"trial":31,"RT":964,"MT":559,"sideResp":1,"stimulus":"img/500/randomdotsizeEA/L/10_Ratio_500_L_4_R_2.png","xmouse":[776,776,776,776,776,776,776,776,776,776,776,776,776,776,776,776,776,776,776,776,776,776,776,776,776,776,776,776,776,776,776,776,776,776,777,782,793,801,813,813,813,813,813,813,813,813,813,814,814,814,809,804,799,793,784,770,750,726,658,644,638,637,634,633,630,625,619,582,567,553,541,530,527,527,527,526,524],"ymouse":[651,651,651,651,651,651,651,651,651,651,651,651,651,651,651,651,651,651,651,651,651,651,651,651,651,651,651,651,651,651,651,651,651,651,650,644,633,626,618,617,617,617,617,617,617,617,617,613,571,525,476,440,410,332,290,255,223,199,170,166,164,163,163,162,161,159,153,123,114,104,91,74,63,53,51,49,47],"timestamp_mouse":[9,24,45,64,83,104,125,145,165,185,204,224,244,265,283,304,324,344,365,383,403,425,445,465,484,505,524,545,564,584,603,625,645,664,685,704,723,745,763,785,804,823,844,863,883,905,925,945,964,984,1004,1025,1045,1065,1084,1103,1125,1144,1164,1184,1204,1223,1245,1263,1284,1304,1324,1345,1364,1384,1403,1425,1443,1463,1485,1504,1523],"xSR":741.5,"ySR":573.95,"xT1":424.9,"yT1":0,"xT2":1058.1,"yT2":0,"toosoon":0,"cond_shown":"randomdotsizeEA","ratio_trial":500,"smaller_num":"2","larger_num":"4","correct_side":1,"subjID":"gabrielsuarez30","gender":"0","age":"9","school":"4"},{"start_time":1552313673277,"click_time":1552313674755,"finger_time":1552313674175,"fix_duration":340.15051514969707,"trial":32,"RT":898,"MT":580,"sideResp":1,"stimulus":"img/250/randomdotsizeEA/L/3_Ratio_250_L_8_R_2.png","xmouse":[779,779,779,779,779,779,779,779,779,779,779,779,779,779,779,779,779,779,779,779,779,779,779,779,779,779,779,779,779,779,779,779,779,779,779,779,779,779,779,777,775,775,775,775,777,765,729,588,464,386,315,199,175,170,170,172,184,202,222,245,263,277,293,299,305,312,324,353,369,382,394,404,416,428],"ymouse":[614,614,614,614,614,614,614,614,614,614,614,614,614,614,614,614,614,614,614,614,614,614,614,614,614,614,614,614,614,614,614,614,614,614,614,614,614,614,614,614,614,614,614,594,559,469,371,199,105,57,17,0,0,0,0,0,0,0,1,6,13,19,26,29,30,31,32,32,32,32,32,33,34,42],"timestamp_mouse":[21,36,57,78,96,118,136,158,178,197,216,236,258,276,298,317,337,358,377,398,416,438,456,477,497,516,537,557,577,597,616,638,656,677,698,718,737,758,776,796,818,838,857,876,898,917,937,957,978,997,1017,1039,1057,1078,1098,1117,1138,1157,1178,1197,1217,1237,1257,1277,1297,1317,1336,1356,1377,1397,1417,1438,1456,1478],"xSR":741.5,"ySR":573.95,"xT1":424.9,"yT1":0,"xT2":1058.1,"yT2":0,"toosoon":0,"cond_shown":"randomdotsizeEA","ratio_trial":250,"smaller_num":"2","larger_num":"8","correct_side":1,"subjID":"gabrielsuarez30","gender":"0","age":"9","school":"4"},{"start_time":1552313676463,"click_time":1552313677415,"finger_time":1552313677215,"fix_duration":1126.36222117627,"trial":33,"RT":752,"MT":200,"sideResp":2,"stimulus":"img/500/randomdotsizeEA/R/15_Ratio_500_L_1_R_2.png","xmouse":[781,781,781,781,781,781,781,781,781,781,781,781,781,781,781,781,781,781,781,781,781,781,781,781,781,781,781,781,781,781,780,780,781,792,799,809,820,861,891,896,903,920,943,1009,1029,1048,1059,1074],"ymouse":[635,635,635,635,635,635,635,635,635,635,635,635,635,635,635,635,635,635,635,635,635,635,635,635,635,635,635,635,635,635,635,635,633,625,616,604,589,500,389,325,286,258,236,183,156,128,105,68],"timestamp_mouse":[11,34,52,72,92,111,132,150,172,191,211,232,252,270,291,312,331,351,371,391,412,431,451,472,491,511,531,551,571,590,612,632,651,671,692,712,730,752,771,792,812,831,850,871,891,911,931,952],"xSR":741.5,"ySR":573.95,"xT1":424.9,"yT1":0,"xT2":1058.1,"yT2":0,"toosoon":0,"cond_shown":"randomdotsizeEA","ratio_trial":500,"smaller_num":"1","larger_num":"2","correct_side":2,"subjID":"gabrielsuarez30","gender":"0","age":"9","school":"4"},{"start_time":1552313679650,"click_time":1552313680717,"finger_time":1552313680274,"fix_duration":1314.7326891823584,"trial":34,"RT":624,"MT":443,"sideResp":1,"stimulus":"img/750/equaldotsize/L/14_Ratio_750_L_8_R_6.png","xmouse":[795,795,795,795,795,795,795,795,795,795,795,795,795,795,795,795,795,795,795,795,795,795,795,795,795,795,795,795,795,787,782,775,767,727,697,672,651,614,564,510,437,424,418,400,385,370,359,354,354,362,376,400,422,441],"ymouse":[594,594,594,594,594,594,594,594,594,594,594,594,594,594,594,594,594,594,594,594,594,594,594,594,594,594,594,594,594,588,578,561,539,443,378,316,248,139,54,0,0,0,0,0,0,0,0,0,0,3,10,19,27,36],"timestamp_mouse":[13,28,44,65,84,103,123,144,164,183,204,224,244,264,285,304,324,343,363,383,404,424,444,464,485,505,525,543,563,583,604,624,644,665,684,704,723,745,765,784,804,824,845,867,884,903,924,944,965,985,1004,1024,1045,1067],"xSR":741.5,"ySR":573.95,"xT1":424.9,"yT1":0,"xT2":1058.1,"yT2":0,"toosoon":0,"cond_shown":"equaldotsize","ratio_trial":750,"smaller_num":"6","larger_num":"8","correct_side":1,"subjID":"gabrielsuarez30","gender":"0","age":"9","school":"4"},{"start_time":1552313681706,"click_time":1552313683034,"finger_time":1552313682734,"fix_duration":250,"trial":35,"RT":1028,"MT":300,"sideResp":2,"stimulus":"img/900/randomdotsizeEA/R/14_Ratio_900_L_18_R_20.png","xmouse":[811,811,811,811,811,811,811,811,811,811,811,811,811,811,811,811,811,811,811,811,811,811,811,811,811,811,811,811,811,811,811,811,811,811,811,811,811,811,811,811,811,811,811,811,811,811,811,811,817,823,838,862,891,923,952,981,1016,1026,1031,1039,1047,1057,1070,1082,1096,1115,1123],"ymouse":[645,645,645,645,645,645,645,645,645,645,645,645,645,645,645,645,645,645,645,645,645,645,645,645,645,645,645,645,645,645,645,645,645,645,645,645,645,645,645,645,645,645,645,645,645,645,645,645,636,622,587,544,509,475,451,421,384,371,361,346,324,266,225,188,158,107,82],"timestamp_mouse":[8,28,48,69,89,108,129,148,169,189,209,228,247,269,289,309,329,347,369,389,409,428,449,468,487,507,529,548,568,589,609,628,649,668,687,709,728,749,768,787,809,829,848,867,887,908,928,948,968,988,1007,1028,1048,1069,1088,1108,1128,1147,1167,1188,1207,1228,1248,1269,1288,1309,1328],"xSR":741.5,"ySR":573.95,"xT1":424.9,"yT1":0,"xT2":1058.1,"yT2":0,"toosoon":0,"cond_shown":"randomdotsizeEA","ratio_trial":900,"smaller_num":"18","larger_num":"20","correct_side":2,"subjID":"gabrielsuarez30","gender":"0","age":"9","school":"4"},{"start_time":1552313684841,"click_time":1552313685874,"finger_time":1552313685495,"fix_duration":1045.6760587465826,"trial":36,"RT":654,"MT":379,"sideResp":2,"stimulus":"img/500/equaldotanddens/R/3_Ratio_500_L_10_R_20.png","xmouse":[810,810,810,810,810,810,810,810,810,810,810,810,810,810,810,810,810,810,810,810,810,810,810,810,810,810,810,810,810,810,810,826,848,874,957,993,1005,1010,1010,1008,1024,1049,1068,1094,1104,1107,1107,1107,1099,1088,1079,1068],"ymouse":[630,630,630,630,630,630,630,630,630,630,630,630,630,630,630,630,630,630,630,630,630,630,630,630,630,630,630,630,630,630,629,618,606,590,541,513,495,475,449,414,400,372,340,298,279,259,240,219,165,127,103,84],"timestamp_mouse":[13,34,52,72,93,113,133,153,174,193,213,233,253,274,294,313,333,354,374,392,413,434,454,472,492,514,533,554,573,592,614,634,654,673,693,713,734,753,774,794,813,834,854,873,894,912,934,953,974,992,1013,1033],"xSR":741.5,"ySR":573.95,"xT1":424.9,"yT1":0,"xT2":1058.1,"yT2":0,"toosoon":0,"cond_shown":"equaldotanddens","ratio_trial":500,"smaller_num":"10","larger_num":"20","correct_side":2,"subjID":"gabrielsuarez30","gender":"0","age":"9","school":"4"},{"start_time":1552313690355,"click_time":1552313691454,"finger_time":1552313691073,"fix_duration":297.12615617619156,"trial":37,"RT":718,"MT":381,"sideResp":1,"stimulus":"img/750/equaldotsize/L/10_Ratio_750_L_4_R_3.png","xmouse":[791,791,791,791,791,791,791,791,791,791,791,791,791,791,791,791,791,791,791,791,791,791,791,791,791,791,791,791,791,791,791,791,791,791,799,806,810,813,813,798,774,751,732,720,708,703,700,698,686,675,660,640,619,571,541,524],"ymouse":[632,632,632,632,632,632,632,632,632,632,632,632,632,632,632,632,632,632,632,632,632,632,632,632,632,632,632,632,632,632,632,629,627,623,605,577,552,518,413,336,270,216,163,117,43,27,22,19,15,15,15,20,26,34,38,40],"timestamp_mouse":[1,20,43,58,80,100,119,140,159,179,200,220,238,258,280,298,319,340,359,380,400,419,440,459,479,500,518,538,560,579,599,620,640,660,679,700,718,739,760,779,799,820,840,860,880,899,919,940,960,979,1000,1019,1039,1059,1079,1099],"xSR":741.5,"ySR":573.95,"xT1":424.9,"yT1":0,"xT2":1058.1,"yT2":0,"toosoon":0,"cond_shown":"equaldotsize","ratio_trial":750,"smaller_num":"3","larger_num":"4","correct_side":1,"subjID":"gabrielsuarez30","gender":"0","age":"9","school":"4"},{"start_time":1552313693382,"click_time":1552313694895,"finger_time":1552313694055,"fix_duration":1165.6509139401521,"trial":38,"RT":673,"MT":840,"sideResp":1,"stimulus":"img/500/randomdotsizeEA/L/11_Ratio_500_L_12_R_6.png","xmouse":[779,779,779,779,779,779,779,779,779,779,779,779,779,779,779,779,779,779,779,779,779,779,779,779,779,779,779,779,779,779,779,779,801,842,849,849,849,849,849,850,850,843,823,807,791,778,757,739,704,655,583,434,371,357,353,352,354,354,356,358,361,373,388,393,397,399,400,404,405,407,410,415,417,419,421,427],"ymouse":[624,624,624,624,624,624,624,624,624,624,624,624,624,624,624,624,624,624,624,624,624,624,624,624,624,624,624,624,624,624,624,624,601,552,545,545,545,545,545,544,544,544,544,544,543,540,519,488,427,341,251,115,39,15,6,0,0,0,0,0,0,0,5,8,9,9,10,11,11,12,14,16,17,18,20,28],"timestamp_mouse":[13,37,53,72,91,112,133,153,172,192,211,233,252,272,292,313,332,353,373,393,412,431,452,471,491,512,533,551,573,592,613,631,652,673,692,712,732,752,772,792,813,833,852,873,892,912,933,952,972,993,1012,1033,1052,1072,1092,1112,1133,1151,1171,1192,1211,1233,1251,1272,1293,1312,1332,1353,1372,1392,1411,1433,1451,1473,1493,1513],"xSR":741.5,"ySR":573.95,"xT1":424.9,"yT1":0,"xT2":1058.1,"yT2":0,"toosoon":0,"cond_shown":"randomdotsizeEA","ratio_trial":500,"smaller_num":"6","larger_num":"12","correct_side":1,"subjID":"gabrielsuarez30","gender":"0","age":"9","school":"4"},{"start_time":1552313696295,"click_time":1552313697493,"finger_time":1552313697073,"fix_duration":777.6928141142175,"trial":39,"RT":778,"MT":420,"sideResp":1,"stimulus":"img/900/equaldotsize/L/8_Ratio_900_L_20_R_18.png","xmouse":[814,814,814,814,814,814,814,814,814,814,814,814,814,814,814,814,814,814,814,814,814,814,814,814,814,814,814,814,814,814,814,814,811,805,805,804,804,800,791,779,763,750,729,719,706,698,691,689,689,689,689,689,689,686,679,667,646,587,567,544,518],"ymouse":[628,628,628,628,628,628,628,628,628,628,628,628,628,628,628,628,628,628,628,628,628,628,628,628,628,628,628,628,628,628,628,628,628,628,628,625,618,596,576,554,532,514,481,465,449,439,432,429,429,429,429,429,428,418,399,368,333,215,172,132,98],"timestamp_mouse":[1,29,45,59,80,99,118,140,159,180,199,219,240,259,278,299,319,339,360,379,400,418,440,460,478,498,518,540,560,579,598,619,640,658,679,698,720,739,760,778,798,818,838,860,879,899,920,940,958,979,999,1020,1039,1059,1079,1099,1120,1139,1160,1178,1198],"xSR":741.5,"ySR":573.95,"xT1":424.9,"yT1":0,"xT2":1058.1,"yT2":0,"toosoon":0,"cond_shown":"equaldotsize","ratio_trial":900,"smaller_num":"18","larger_num":"20","correct_side":1,"subjID":"gabrielsuarez30","gender":"0","age":"9","school":"4"},{"start_time":1552313698694,"click_time":1552313699734,"finger_time":1552313699615,"fix_duration":557.8469243994749,"trial":40,"RT":921,"MT":119,"sideResp":1,"stimulus":"img/250/randomdotsizeEA/L/7_Ratio_250_L_8_R_2.png","xmouse":[788,788,788,788,788,788,788,788,788,788,788,788,788,788,788,788,788,788,788,788,788,788,788,788,788,788,788,788,788,788,788,788,788,788,788,788,788,788,788,788,788,788,788,783,780,779,760,716,679,639,605,573,511],"ymouse":[636,636,636,636,636,636,636,636,636,636,636,636,636,636,636,636,636,636,636,636,636,636,636,636,636,636,636,636,636,636,636,636,636,636,636,636,636,636,636,636,636,636,636,633,627,608,492,374,310,255,205,159,86],"timestamp_mouse":[1,21,40,61,80,99,121,140,160,180,199,220,241,260,279,299,320,339,359,380,400,421,441,460,479,500,519,541,560,579,599,621,639,660,680,701,720,741,761,780,800,819,841,861,879,900,921,939,960,979,1000,1020,1040],"xSR":741.5,"ySR":573.95,"xT1":424.9,"yT1":0,"xT2":1058.1,"yT2":0,"toosoon":0,"cond_shown":"randomdotsizeEA","ratio_trial":250,"smaller_num":"2","larger_num":"8","correct_side":1,"subjID":"gabrielsuarez30","gender":"0","age":"9","school":"4"},{"start_time":1552313700925,"click_time":1552313702394,"finger_time":1552313702053,"fix_duration":250,"trial":41,"RT":1128,"MT":341,"sideResp":2,"stimulus":"img/900/randomdotsizeEA/L/4_Ratio_900_L_20_R_18.png","xmouse":[806,806,806,806,806,806,806,806,806,806,806,806,806,806,806,806,806,806,806,806,806,806,806,806,806,806,805,805,805,805,805,805,805,805,805,805,805,805,805,805,805,805,805,805,805,805,805,805,805,805,805,805,805,805,804,828,866,909,946,983,1032,1037,1037,1033,1030,1044,1062,1086,1105,1108,1108,1105,1104,1104],"ymouse":[635,635,635,635,635,635,635,635,635,635,635,635,635,635,635,635,635,635,635,635,635,635,635,635,635,635,635,635,635,635,635,635,635,635,635,635,635,635,635,635,635,635,635,635,635,635,635,635,635,635,635,635,635,635,635,598,548,497,449,399,315,286,258,235,218,187,169,148,132,124,111,105,100,97],"timestamp_mouse":[13,28,50,69,88,110,129,149,169,188,209,228,250,270,290,309,328,350,370,389,409,430,449,468,488,509,528,549,569,589,608,630,650,669,690,710,729,750,770,790,808,828,849,869,889,908,929,949,968,989,1009,1030,1050,1068,1090,1109,1128,1148,1168,1188,1209,1228,1249,1269,1290,1310,1329,1349,1370,1388,1409,1429,1449,1469],"xSR":741.5,"ySR":573.95,"xT1":424.9,"yT1":0,"xT2":1058.1,"yT2":0,"toosoon":0,"cond_shown":"randomdotsizeEA","ratio_trial":900,"smaller_num":"18","larger_num":"20","correct_side":1,"subjID":"gabrielsuarez30","gender":"0","age":"9","school":"4"},{"start_time":1552313704036,"click_time":1552313705035,"finger_time":1552313704935,"fix_duration":700.8742800618315,"trial":42,"RT":899,"MT":100,"sideResp":2,"stimulus":"img/900/randomdotsizeEA/R/15_Ratio_900_L_9_R_10.png","xmouse":[761,761,761,761,761,761,761,761,761,761,761,761,761,761,761,761,761,761,761,761,761,761,761,761,761,761,761,761,761,761,761,761,761,761,761,761,761,761,761,761,761,761,761,782,840,886,941,1012,1089,1155],"ymouse":[622,622,622,622,622,622,622,622,622,622,622,622,622,622,622,622,622,622,622,622,622,622,622,622,622,622,622,622,622,622,622,622,622,622,622,622,622,622,622,622,622,622,622,601,534,485,429,334,213,50],"timestamp_mouse":[18,45,57,79,99,117,137,159,179,198,219,239,259,278,297,318,337,359,379,397,419,439,459,478,499,518,539,558,578,599,620,638,658,678,699,718,739,757,779,799,818,838,857,879,899,918,939,958,978,999],"xSR":741.5,"ySR":573.95,"xT1":424.9,"yT1":0,"xT2":1058.1,"yT2":0,"toosoon":0,"cond_shown":"randomdotsizeEA","ratio_trial":900,"smaller_num":"9","larger_num":"10","correct_side":2,"subjID":"gabrielsuarez30","gender":"0","age":"9","school":"4"},{"start_time":1552313707069,"click_time":1552313708134,"finger_time":1552313707875,"fix_duration":1093.218311520399,"trial":43,"RT":806,"MT":259,"sideResp":2,"stimulus":"img/750/equaldotsize/R/5_Ratio_750_L_15_R_20.png","xmouse":[795,795,795,795,795,795,795,795,795,795,795,795,795,795,795,795,795,795,795,795,795,795,795,795,801,803,806,808,808,808,809,809,809,809,809,809,809,809,812,821,833,852,880,943,969,999,1020,1035,1038,1038,1039,1042,1053,1061],"ymouse":[640,640,640,640,640,640,640,640,640,640,640,640,640,640,640,640,640,640,640,640,640,640,640,640,635,632,629,627,627,627,626,626,626,626,626,626,626,626,614,596,571,537,494,399,347,277,214,151,134,129,123,114,87,71],"timestamp_mouse":[12,30,46,65,86,105,125,145,165,185,206,225,245,266,284,305,325,345,365,385,406,425,446,465,486,505,526,545,566,585,606,626,646,665,684,706,725,746,765,785,806,826,846,865,886,906,925,946,965,985,1005,1026,1046,1065],"xSR":741.5,"ySR":573.95,"xT1":424.9,"yT1":0,"xT2":1058.1,"yT2":0,"toosoon":0,"cond_shown":"equaldotsize","ratio_trial":750,"smaller_num":"15","larger_num":"20","correct_side":2,"subjID":"gabrielsuarez30","gender":"0","age":"9","school":"4"},{"start_time":1552313709168,"click_time":1552313710335,"finger_time":1552313709975,"fix_duration":250,"trial":44,"RT":807,"MT":360,"sideResp":2,"stimulus":"img/750/equaldotanddens/R/15_Ratio_750_L_9_R_12.png","xmouse":[772,772,772,772,772,772,772,772,772,772,772,772,772,772,772,772,772,772,772,772,772,772,772,772,772,772,772,772,772,772,772,772,772,772,772,772,772,772,775,790,820,868,959,1075,1116,1142,1154,1158,1158,1159,1165,1170,1174,1177,1177,1175,1171,1168,1158],"ymouse":[607,607,607,607,607,607,607,607,607,607,607,607,607,607,607,607,607,607,607,607,607,607,607,607,607,607,607,607,607,607,607,607,607,607,607,607,607,607,607,595,564,516,412,296,248,198,165,131,119,104,85,64,49,28,25,22,20,20,20],"timestamp_mouse":[8,26,47,66,86,109,127,147,167,186,206,227,247,266,287,306,326,346,367,385,406,427,447,467,487,506,527,547,566,587,607,626,646,666,687,707,727,746,766,786,807,826,846,866,886,907,926,946,966,986,1007,1027,1046,1067,1087,1107,1126,1146,1167],"xSR":741.5,"ySR":573.95,"xT1":424.9,"yT1":0,"xT2":1058.1,"yT2":0,"toosoon":0,"cond_shown":"equaldotanddens","ratio_trial":750,"smaller_num":"9","larger_num":"12","correct_side":2,"subjID":"gabrielsuarez30","gender":"0","age":"9","school":"4"},{"start_time":1552313711827,"click_time":1552313712634,"finger_time":1552313712534,"fix_duration":510.03383231530444,"trial":45,"RT":707,"MT":100,"sideResp":2,"stimulus":"img/250/equaldotanddens/R/11_Ratio_250_L_3_R_12.png","xmouse":[776,776,776,776,782,803,806,806,806,806,806,806,806,806,806,806,806,806,806,806,806,806,806,806,806,806,806,806,806,806,806,806,806,808,837,875,919,963,1010,1047,1071],"ymouse":[642,642,642,642,640,633,633,633,633,633,633,633,633,633,633,633,633,633,633,633,633,633,633,633,633,633,633,633,633,633,633,633,633,632,586,517,435,333,222,131,14],"timestamp_mouse":[13,27,46,68,88,107,127,147,167,187,208,227,247,268,286,307,327,347,367,387,407,428,446,467,488,507,527,548,567,587,607,627,648,666,688,707,726,747,767,787,807],"xSR":741.5,"ySR":573.95,"xT1":424.9,"yT1":0,"xT2":1058.1,"yT2":0,"toosoon":0,"cond_shown":"equaldotanddens","ratio_trial":250,"smaller_num":"3","larger_num":"12","correct_side":2,"subjID":"gabrielsuarez30","gender":"0","age":"9","school":"4"},{"start_time":1552313714582,"click_time":1552313715674,"finger_time":1552313715314,"fix_duration":1065.4166739858076,"trial":46,"RT":732,"MT":360,"sideResp":2,"stimulus":"img/750/equaldotanddens/R/15_Ratio_750_L_9_R_12.png","xmouse":[821,821,821,821,821,821,821,821,821,821,821,821,821,821,821,821,821,821,821,821,821,821,821,821,821,821,821,821,821,821,821,821,821,821,824,837,869,967,1032,1103,1171,1247,1253,1253,1250,1247,1245,1245,1245,1244,1238,1214,1187,1169,1157],"ymouse":[611,611,611,611,611,611,611,611,611,611,611,611,611,611,611,611,611,611,611,611,611,611,611,611,611,611,611,611,611,611,611,611,611,611,602,583,541,425,364,299,235,143,113,99,88,80,49,30,18,12,8,8,20,26,29],"timestamp_mouse":[12,33,53,72,92,112,133,152,171,193,212,232,252,272,292,312,332,352,371,393,412,432,452,472,493,512,532,552,572,592,611,631,653,673,692,711,732,752,773,792,812,833,852,873,892,912,933,952,972,993,1012,1033,1052,1072,1092],"xSR":741.5,"ySR":573.95,"xT1":424.9,"yT1":0,"xT2":1058.1,"yT2":0,"toosoon":0,"cond_shown":"equaldotanddens","ratio_trial":750,"smaller_num":"9","larger_num":"12","correct_side":2,"subjID":"gabrielsuarez30","gender":"0","age":"9","school":"4"},{"start_time":1552313718207,"click_time":1552313719154,"finger_time":1552313719074,"fix_duration":250,"trial":47,"RT":867,"MT":80,"sideResp":2,"stimulus":"img/750/randomdotsizeEA/L/10_Ratio_750_L_4_R_3.png","xmouse":[785,785,785,785,785,785,785,785,785,785,785,785,785,785,785,785,785,785,785,785,785,785,785,785,785,785,785,785,785,785,785,785,785,785,785,785,785,785,785,785,785,786,794,808,832,880,1030,1094],"ymouse":[636,636,636,636,636,636,636,636,636,636,636,636,636,636,636,636,636,636,636,636,636,636,636,636,636,636,636,636,636,636,636,636,636,636,636,636,636,636,636,636,636,635,612,568,509,406,154,64],"timestamp_mouse":[9,38,48,68,87,107,128,148,168,188,207,227,248,268,288,307,328,347,367,387,408,428,447,468,488,508,526,548,568,588,607,627,648,668,687,707,727,748,767,788,807,827,847,867,887,907,927,947],"xSR":741.5,"ySR":573.95,"xT1":424.9,"yT1":0,"xT2":1058.1,"yT2":0,"toosoon":0,"cond_shown":"randomdotsizeEA","ratio_trial":750,"smaller_num":"3","larger_num":"4","correct_side":1,"subjID":"gabrielsuarez30","gender":"0","age":"9","school":"4"},{"start_time":1552313723566,"click_time":1552313724695,"finger_time":1552313724375,"fix_duration":250,"trial":48,"RT":809,"MT":320,"sideResp":1,"stimulus":"img/900/equaldotsize/L/1_Ratio_900_L_10_R_9.png","xmouse":[794,794,794,794,794,794,794,794,794,794,794,794,794,794,794,794,794,794,794,794,794,794,794,794,794,794,794,794,794,794,794,794,794,794,794,794,794,794,793,795,800,800,800,800,800,800,800,800,798,778,746,722,694,600,568,537,507],"ymouse":[649,649,649,649,649,649,649,649,649,649,649,649,649,649,649,649,649,649,649,649,649,649,649,649,649,649,649,649,649,649,649,649,649,649,649,649,649,649,645,614,555,514,483,483,483,483,483,461,412,352,305,284,269,196,157,115,75],"timestamp_mouse":[15,30,48,69,89,109,128,149,168,188,208,228,248,268,288,309,328,348,368,388,408,429,448,468,488,509,528,547,569,589,609,627,649,668,687,709,729,748,768,788,809,828,849,868,889,909,928,949,969,988,1009,1028,1049,1069,1088,1108,1128],"xSR":741.5,"ySR":573.95,"xT1":424.9,"yT1":0,"xT2":1058.1,"yT2":0,"toosoon":0,"cond_shown":"equaldotsize","ratio_trial":900,"smaller_num":"9","larger_num":"10","correct_side":1,"subjID":"gabrielsuarez30","gender":"0","age":"9","school":"4"},{"start_time":1552313728373,"click_time":1552313729434,"finger_time":1552313729194,"fix_duration":556.3374918051131,"trial":49,"RT":821,"MT":240,"sideResp":1,"stimulus":"img/250/equaldotsize/L/3_Ratio_250_L_8_R_2.png","xmouse":[758,758,758,758,758,758,758,758,758,758,758,758,758,758,758,758,759,759,759,759,759,759,759,759,759,759,760,760,760,760,760,760,760,760,760,760,760,760,760,758,750,737,698,644,603,574,552,544,542,540,537,533,525,522],"ymouse":[623,623,623,623,623,623,622,621,621,620,619,618,618,618,618,615,612,610,608,608,608,608,608,608,608,606,602,601,601,601,601,601,601,601,601,601,601,601,601,595,579,537,388,196,138,110,96,92,91,87,81,76,65,58],"timestamp_mouse":[10,22,40,60,82,102,122,141,161,182,201,222,242,261,282,302,322,341,361,382,402,421,441,461,481,502,522,541,562,582,602,622,641,661,681,700,721,741,762,780,801,821,842,861,881,901,921,942,961,981,1001,1021,1041,1061],"xSR":741.5,"ySR":573.95,"xT1":424.9,"yT1":0,"xT2":1058.1,"yT2":0,"toosoon":0,"cond_shown":"equaldotsize","ratio_trial":250,"smaller_num":"2","larger_num":"8","correct_side":1,"subjID":"gabrielsuarez30","gender":"0","age":"9","school":"4"},{"start_time":1552313731062,"click_time":1552313732015,"finger_time":1552313731794,"fix_duration":605.2539911612838,"trial":50,"RT":732,"MT":221,"sideResp":2,"stimulus":"img/250/equaldotsize/R/6_Ratio_250_L_6_R_24.png","xmouse":[802,802,802,802,802,802,802,802,802,802,802,802,802,802,802,802,802,802,802,802,802,802,802,802,802,802,802,802,802,802,802,802,802,804,817,835,860,920,973,1005,1033,1057,1066,1070,1074,1080,1086,1090],"ymouse":[607,607,607,607,607,607,607,607,607,607,607,607,607,607,607,607,607,607,607,607,607,607,607,607,607,607,607,607,607,607,607,607,607,607,601,586,557,465,375,319,264,217,181,167,148,127,108,95],"timestamp_mouse":[13,43,53,73,92,112,133,152,173,193,213,232,252,273,292,312,333,353,372,393,413,432,453,473,492,513,531,552,571,592,613,632,653,672,693,713,732,753,772,792,812,832,853,873,893,912,933,953],"xSR":741.5,"ySR":573.95,"xT1":424.9,"yT1":0,"xT2":1058.1,"yT2":0,"toosoon":0,"cond_shown":"equaldotsize","ratio_trial":250,"smaller_num":"6","larger_num":"24","correct_side":2,"subjID":"gabrielsuarez30","gender":"0","age":"9","school":"4"},{"start_time":1552313733644,"click_time":1552313735274,"finger_time":1552313734394,"fix_duration":867.6473519368952,"trial":51,"RT":750,"MT":880,"sideResp":2,"stimulus":"img/750/equaldotsize/R/12_Ratio_750_L_3_R_4.png","xmouse":[776,776,776,776,776,776,776,776,776,776,776,776,776,776,776,776,776,776,776,776,776,776,776,776,776,776,776,776,776,776,776,776,776,776,785,806,841,901,971,1091,1114,1130,1136,1142,1144,1144,1144,1145,1145,1145,1145,1145,1145,1145,1146,1149,1152,1156,1161,1165,1168,1171,1174,1172,1171,1168,1166,1164,1156,1151,1144,1138,1134,1126,1122,1121,1120,1120,1123,1127,1130,1132],"ymouse":[628,628,628,628,628,628,628,628,628,628,628,628,628,628,628,628,628,628,628,628,628,628,628,628,628,628,628,628,628,628,628,628,628,628,628,615,586,544,501,429,417,408,403,396,393,393,391,389,388,388,388,388,388,388,387,381,371,359,338,315,292,264,237,211,208,204,201,198,186,181,173,169,166,160,157,154,149,144,126,110,102,92],"timestamp_mouse":[10,38,50,70,91,110,131,150,171,189,210,230,251,270,290,311,330,351,371,391,411,430,451,470,490,509,530,550,570,590,611,631,650,670,690,711,730,750,770,790,811,830,851,870,890,910,930,949,971,991,1011,1030,1051,1069,1090,1110,1131,1150,1171,1190,1211,1230,1250,1271,1290,1310,1330,1349,1370,1390,1410,1431,1450,1470,1490,1510,1530,1551,1570,1590,1610,1629],"xSR":741.5,"ySR":573.95,"xT1":424.9,"yT1":0,"xT2":1058.1,"yT2":0,"toosoon":0,"cond_shown":"equaldotsize","ratio_trial":750,"smaller_num":"3","larger_num":"4","correct_side":2,"subjID":"gabrielsuarez30","gender":"0","age":"9","school":"4"},{"start_time":1552313737466,"click_time":1552313738955,"finger_time":1552313738395,"fix_duration":250,"trial":52,"RT":929,"MT":560,"sideResp":2,"stimulus":"img/750/equaldotsize/R/15_Ratio_750_L_9_R_12.png","xmouse":[820,820,820,820,820,820,820,820,820,820,820,820,820,820,820,820,820,820,820,820,820,820,820,820,820,820,820,820,820,820,820,820,820,820,820,820,820,820,820,820,820,820,823,825,829,836,842,849,851,853,865,895,988,1057,1124,1176,1212,1236,1252,1255,1255,1253,1247,1233,1224,1215,1208,1181,1173,1166,1162,1160,1160,1159,1157],"ymouse":[610,610,610,610,610,610,610,610,610,610,610,610,610,610,610,610,610,610,610,610,610,610,610,610,610,610,610,610,610,610,610,610,610,610,610,610,610,610,610,610,610,610,610,610,611,614,616,618,618,618,609,565,402,307,214,143,93,60,11,0,0,0,0,0,0,0,0,24,34,41,46,49,50,51,52],"timestamp_mouse":[9,36,48,68,88,108,128,149,168,188,208,228,249,268,288,308,329,348,369,389,408,429,449,468,488,509,528,548,569,589,609,629,647,669,689,708,727,748,769,789,809,828,849,869,888,909,929,949,968,988,1008,1029,1048,1068,1088,1108,1128,1148,1168,1189,1209,1228,1248,1268,1288,1308,1329,1351,1369,1388,1408,1429,1449,1468,1489],"xSR":741.5,"ySR":573.95,"xT1":424.9,"yT1":0,"xT2":1058.1,"yT2":0,"toosoon":0,"cond_shown":"equaldotsize","ratio_trial":750,"smaller_num":"9","larger_num":"12","correct_side":2,"subjID":"gabrielsuarez30","gender":"0","age":"9","school":"4"},{"start_time":1552313742726,"click_time":1552313743415,"finger_time":1552313743354,"fix_duration":250,"trial":53,"RT":628,"MT":61,"sideResp":2,"stimulus":"img/250/equaldotanddens/R/11_Ratio_250_L_3_R_12.png","xmouse":[787,787,787,787,787,787,787,787,787,787,787,787,787,787,787,787,787,787,787,787,787,787,787,787,787,780,777,773,773,773,783,837,910,979,1069],"ymouse":[629,629,629,629,629,629,629,629,629,629,629,629,629,629,629,629,629,629,629,629,629,629,629,629,628,620,617,614,613,612,589,496,355,227,62],"timestamp_mouse":[19,37,49,68,88,108,129,148,168,187,209,228,248,268,289,309,329,348,368,389,408,428,449,469,489,507,529,549,568,589,608,628,647,668,689],"xSR":741.5,"ySR":573.95,"xT1":424.9,"yT1":0,"xT2":1058.1,"yT2":0,"toosoon":0,"cond_shown":"equaldotanddens","ratio_trial":250,"smaller_num":"3","larger_num":"12","correct_side":2,"subjID":"gabrielsuarez30","gender":"0","age":"9","school":"4"},{"start_time":1552313748806,"click_time":1552313750034,"finger_time":1552313749575,"fix_duration":250,"trial":54,"RT":769,"MT":459,"sideResp":1,"stimulus":"img/500/equaldotanddens/L/13_Ratio_500_L_12_R_6.png","xmouse":[772,772,772,772,773,774,774,774,774,774,774,774,774,774,774,774,774,774,774,774,774,774,774,774,774,774,774,774,774,774,774,774,774,774,774,775,776,772,761,742,652,603,544,492,456,426,388,388,391,394,397,399,401,404,410,415,422,425,426,427,430,436],"ymouse":[636,636,636,636,637,637,637,637,637,637,637,637,637,637,637,637,637,637,637,637,637,637,637,637,637,637,637,637,637,637,637,637,637,637,637,636,609,587,557,516,373,319,267,219,184,147,77,57,46,40,33,29,21,13,3,0,0,0,0,0,0,1],"timestamp_mouse":[11,39,47,69,87,109,128,148,168,189,208,229,249,269,288,309,329,349,368,389,408,428,448,468,488,508,528,548,568,589,609,628,649,668,688,708,728,748,769,788,809,828,848,869,889,909,928,948,968,988,1009,1027,1048,1069,1088,1109,1129,1149,1168,1188,1208,1228],"xSR":741.5,"ySR":573.95,"xT1":424.9,"yT1":0,"xT2":1058.1,"yT2":0,"toosoon":0,"cond_shown":"equaldotanddens","ratio_trial":500,"smaller_num":"6","larger_num":"12","correct_side":1,"subjID":"gabrielsuarez30","gender":"0","age":"9","school":"4"},{"start_time":1552313752003,"click_time":1552313753315,"finger_time":1552313752795,"fix_duration":1267.077493941256,"trial":55,"RT":792,"MT":520,"sideResp":1,"stimulus":"img/500/equaldotanddens/L/11_Ratio_500_L_12_R_6.png","xmouse":[793,793,793,793,793,793,793,793,793,793,793,793,793,793,793,793,793,791,789,785,776,773,772,772,772,772,772,772,772,772,772,772,772,772,772,772,772,768,764,756,740,710,688,666,642,625,597,589,583,576,568,553,550,549,547,546,546,545,543,541,533,522,514,502,488,473],"ymouse":[608,608,608,608,608,608,608,608,608,608,608,608,608,608,608,608,608,606,605,601,593,591,590,590,590,590,590,590,590,590,590,590,590,590,590,590,590,585,577,568,546,501,465,432,403,383,348,334,316,299,285,262,259,258,255,254,253,251,250,246,232,211,190,161,122,66],"timestamp_mouse":[11,45,52,71,90,112,132,151,171,191,211,232,252,271,291,312,332,351,371,392,412,432,451,471,492,511,531,551,571,592,611,632,653,671,692,711,731,751,771,792,811,830,852,871,891,912,932,951,971,992,1012,1032,1051,1072,1091,1111,1132,1152,1172,1191,1212,1231,1252,1272,1292,1312],"xSR":741.5,"ySR":573.95,"xT1":424.9,"yT1":0,"xT2":1058.1,"yT2":0,"toosoon":0,"cond_shown":"equaldotanddens","ratio_trial":500,"smaller_num":"6","larger_num":"12","correct_side":1,"subjID":"gabrielsuarez30","gender":"0","age":"9","school":"4"},{"start_time":1552313755556,"click_time":1552313756894,"finger_time":1552313756714,"fix_duration":1319.1486954536842,"trial":56,"RT":1158,"MT":180,"sideResp":2,"stimulus":"img/900/equaldotanddens/R/7_Ratio_900_L_9_R_10.png","xmouse":[790,790,790,790,790,790,790,790,790,790,790,790,790,790,790,790,790,790,790,790,790,790,790,790,790,790,790,790,790,790,790,790,790,790,790,790,790,790,790,790,790,790,790,790,790,790,790,790,790,790,790,790,790,792,798,806,821,883,916,945,962,979,1016,1035,1044,1052,1062],"ymouse":[627,627,627,627,627,627,627,627,627,627,627,627,627,627,627,627,627,627,627,627,627,627,627,627,627,627,627,627,627,627,627,627,627,627,627,627,627,627,627,627,627,627,627,627,627,627,627,627,627,627,627,627,627,622,610,597,577,489,428,380,348,316,241,182,152,122,89],"timestamp_mouse":[20,39,58,79,97,119,139,158,178,198,218,238,259,278,298,318,339,358,379,399,419,438,459,479,499,518,538,558,578,598,618,639,659,679,699,719,738,758,779,798,818,838,859,878,899,919,938,959,978,998,1018,1038,1059,1078,1097,1119,1138,1158,1178,1198,1217,1238,1259,1278,1299,1319,1338],"xSR":741.5,"ySR":573.95,"xT1":424.9,"yT1":0,"xT2":1058.1,"yT2":0,"toosoon":0,"cond_shown":"equaldotanddens","ratio_trial":900,"smaller_num":"9","larger_num":"10","correct_side":2,"subjID":"gabrielsuarez30","gender":"0","age":"9","school":"4"},{"start_time":1552313759675,"click_time":1552313760554,"finger_time":1552313760455,"fix_duration":658.133044181709,"trial":57,"RT":780,"MT":99,"sideResp":1,"stimulus":"img/750/equaldotanddens/L/13_Ratio_750_L_8_R_6.png","xmouse":[774,774,774,774,774,774,774,774,774,774,774,774,774,774,774,774,774,774,774,774,774,774,774,774,774,774,774,774,774,774,774,774,774,774,774,772,771,767,757,732,707,666,555,511],"ymouse":[642,642,642,642,642,642,642,642,642,642,642,642,642,642,642,642,642,642,642,642,642,642,642,642,642,642,642,642,642,642,642,642,642,642,642,642,642,614,563,479,374,267,97,30],"timestamp_mouse":[20,40,59,80,100,119,139,160,179,200,220,240,260,280,300,319,339,358,379,399,419,440,460,478,500,520,539,560,580,599,619,640,659,679,699,720,740,760,779,799,819,839,859,879],"xSR":741.5,"ySR":573.95,"xT1":424.9,"yT1":0,"xT2":1058.1,"yT2":0,"toosoon":0,"cond_shown":"equaldotanddens","ratio_trial":750,"smaller_num":"6","larger_num":"8","correct_side":1,"subjID":"gabrielsuarez30","gender":"0","age":"9","school":"4"},{"start_time":1552313762601,"click_time":1552313763854,"finger_time":1552313763315,"fix_duration":1065.6741716441068,"trial":58,"RT":714,"MT":539,"sideResp":2,"stimulus":"img/750/equaldotanddens/R/5_Ratio_750_L_15_R_20.png","xmouse":[809,809,809,809,809,809,809,809,809,809,808,804,804,803,803,803,803,803,803,803,803,803,803,803,803,803,803,803,803,803,803,803,803,803,809,832,875,896,912,911,900,906,909,913,918,934,956,977,991,997,1001,1008,1015,1023,1028,1029,1029,1029,1030,1033,1047,1106,1123],"ymouse":[611,611,611,611,611,611,611,611,611,611,612,619,621,621,621,621,621,621,621,621,621,621,621,621,621,621,621,621,621,621,621,621,621,616,598,539,425,336,201,85,0,0,0,0,2,7,7,5,5,5,6,7,8,6,6,5,5,5,4,4,0,0,1],"timestamp_mouse":[14,37,53,74,93,112,134,153,174,194,213,233,254,274,293,314,334,354,374,394,413,434,454,474,493,514,533,553,573,593,614,633,654,674,693,714,734,753,774,793,814,833,853,874,893,916,934,953,973,994,1013,1033,1053,1074,1093,1114,1134,1154,1173,1194,1213,1234,1253],"xSR":741.5,"ySR":573.95,"xT1":424.9,"yT1":0,"xT2":1058.1,"yT2":0,"toosoon":0,"cond_shown":"equaldotanddens","ratio_trial":750,"smaller_num":"15","larger_num":"20","correct_side":2,"subjID":"gabrielsuarez30","gender":"0","age":"9","school":"4"},{"start_time":1552313766176,"click_time":1552313767435,"finger_time":1552313767055,"fix_duration":1340.6471248014223,"trial":59,"RT":879,"MT":380,"sideResp":1,"stimulus":"img/900/equaldotanddens/L/1_Ratio_900_L_10_R_9.png","xmouse":[792,792,792,792,793,793,793,793,793,793,793,793,793,793,793,793,793,793,793,793,793,793,793,793,793,793,793,793,793,793,793,793,793,793,793,793,793,793,793,793,793,793,789,782,765,742,690,662,640,627,622,622,622,622,622,622,620,605,595,580,566,552,519],"ymouse":[607,607,607,607,606,606,606,606,606,606,606,606,606,606,606,606,606,606,606,606,606,606,606,606,606,606,606,606,606,606,606,606,606,606,606,606,606,606,606,606,606,606,592,566,525,474,345,297,268,248,238,231,229,227,226,221,212,186,170,150,131,114,85],"timestamp_mouse":[18,38,58,78,99,118,138,159,178,198,219,239,258,278,298,319,338,358,378,398,419,438,458,480,499,519,538,559,578,599,618,639,658,679,699,718,738,759,779,798,819,839,859,879,899,919,939,959,979,999,1019,1040,1058,1079,1099,1118,1139,1159,1180,1199,1219,1239,1259],"xSR":741.5,"ySR":573.95,"xT1":424.9,"yT1":0,"xT2":1058.1,"yT2":0,"toosoon":0,"cond_shown":"equaldotanddens","ratio_trial":900,"smaller_num":"9","larger_num":"10","correct_side":1,"subjID":"gabrielsuarez30","gender":"0","age":"9","school":"4"},{"start_time":1552313768327,"click_time":1552313771234,"finger_time":1552313770754,"fix_duration":250,"trial":60,"RT":2427,"MT":480,"sideResp":1,"stimulus":"img/500/randomdotsizeEA/L/11_Ratio_500_L_12_R_6.png","xmouse":[829,829,829,829,829,829,829,829,829,829,829,829,829,829,829,829,829,829,829,829,829,827,826,825,824,822,822,822,821,821,821,821,821,821,821,821,821,821,821,821,821,821,821,821,821,821,821,821,821,821,821,821,821,821,821,819,816,812,807,804,803,803,803,803,803,803,803,803,803,803,803,803,803,803,803,803,803,803,803,803,803,803,803,803,803,803,803,803,803,803,803,803,803,803,803,803,803,803,803,803,803,803,803,803,803,803,803,803,803,803,799,796,793,792,790,790,790,790,790,791,791,786,781,772,730,666,628,588,555,527,523,522,522,522,523,530,531,534,536,536,536,534,533,532,526,519],"ymouse":[665,665,665,665,665,665,665,665,665,665,665,665,665,665,665,665,665,665,665,665,665,664,664,663,660,658,658,657,654,653,653,653,653,653,653,653,653,653,653,653,653,653,653,653,653,653,653,653,653,653,653,653,653,653,653,649,641,634,629,625,625,625,625,625,625,625,625,625,625,625,625,625,625,625,625,625,625,625,625,625,625,625,625,625,625,625,625,625,625,625,625,625,625,625,625,625,625,625,625,625,625,625,625,625,625,625,625,625,625,625,626,629,631,633,635,635,635,634,631,617,581,558,530,508,433,355,312,264,221,181,168,157,147,136,126,100,91,81,71,54,51,49,48,48,48,49],"timestamp_mouse":[10,35,49,68,88,108,128,148,168,187,207,227,248,268,287,308,327,347,369,389,409,429,448,468,487,508,528,547,567,587,608,629,647,668,689,707,728,747,767,789,808,828,848,867,887,907,927,947,968,989,1008,1027,1047,1067,1087,1108,1128,1148,1168,1188,1207,1228,1248,1267,1287,1307,1329,1347,1369,1388,1408,1429,1448,1468,1488,1508,1527,1547,1568,1588,1607,1629,1647,1667,1688,1709,1727,1748,1768,1787,1808,1828,1848,1868,1888,1907,1929,1948,1968,1988,2007,2027,2047,2067,2088,2107,2128,2148,2168,2188,2208,2229,2248,2267,2287,2307,2329,2347,2368,2388,2408,2427,2448,2467,2488,2507,2528,2548,2567,2588,2608,2628,2648,2668,2687,2708,2727,2747,2767,2788,2808,2827,2848,2869,2888,2907],"xSR":741.5,"ySR":573.95,"xT1":424.9,"yT1":0,"xT2":1058.1,"yT2":0,"toosoon":0,"cond_shown":"randomdotsizeEA","ratio_trial":500,"smaller_num":"6","larger_num":"12","correct_side":1,"subjID":"gabrielsuarez30","gender":"0","age":"9","school":"4"},{"start_time":1552313774006,"click_time":1552313774974,"finger_time":1552313774635,"fix_duration":250,"trial":61,"RT":629,"MT":339,"sideResp":2,"stimulus":"img/500/equaldotanddens/R/12_Ratio_500_L_1_R_2.png","xmouse":[789,789,789,789,789,789,789,789,789,789,789,789,789,789,789,789,789,789,789,789,789,789,789,789,789,789,789,789,789,790,810,845,883,940,1006,1071,1163,1191,1196,1196,1196,1196,1196,1197,1197,1196,1185,1172,1156],"ymouse":[641,641,641,641,641,641,641,641,641,641,641,641,641,641,641,641,641,641,641,641,641,641,641,641,641,641,641,641,641,640,626,598,564,511,433,353,185,106,50,8,0,0,0,0,0,0,11,33,69],"timestamp_mouse":[14,40,49,69,88,108,128,148,168,188,209,228,249,269,289,310,330,349,368,390,409,430,448,469,488,508,528,549,568,589,609,629,649,668,688,708,728,748,768,788,811,828,848,868,889,910,928,949,968],"xSR":741.5,"ySR":573.95,"xT1":424.9,"yT1":0,"xT2":1058.1,"yT2":0,"toosoon":0,"cond_shown":"equaldotanddens","ratio_trial":500,"smaller_num":"1","larger_num":"2","correct_side":2,"subjID":"gabrielsuarez30","gender":"0","age":"9","school":"4"},{"start_time":1552313777949,"click_time":1552313778896,"finger_time":1552313778515,"fix_duration":833.5199486398991,"trial":62,"RT":566,"MT":381,"sideResp":2,"stimulus":"img/250/equaldotsize/R/10_Ratio_250_L_4_R_16.png","xmouse":[784,784,784,784,784,784,784,784,784,784,784,784,784,784,784,784,784,784,784,784,784,784,784,784,784,784,783,788,818,925,966,994,1015,1037,1040,1041,1042,1042,1042,1039,1037,1036,1036,1036,1040,1045,1054,1059],"ymouse":[620,620,620,620,620,620,620,620,620,620,620,620,620,620,620,620,620,620,620,620,620,620,620,620,620,620,618,609,555,371,279,194,129,53,39,31,28,27,27,26,31,37,39,41,42,40,35,31],"timestamp_mouse":[9,25,46,66,85,106,127,145,166,185,205,226,246,265,286,306,325,347,365,386,406,425,447,466,486,506,526,546,566,586,606,626,645,667,685,706,725,746,766,786,806,826,845,866,886,906,926,947],"xSR":741.5,"ySR":573.95,"xT1":424.9,"yT1":0,"xT2":1058.1,"yT2":0,"toosoon":0,"cond_shown":"equaldotsize","ratio_trial":250,"smaller_num":"4","larger_num":"16","correct_side":2,"subjID":"gabr