[{"start_time":1552068744578,"click_time":1552068749748,"finger_time":1552068744588,"fix_duration":1306.3568687340003,"trial":0,"RT":10,"MT":5160,"sideResp":1,"stimulus":[],"xmouse":[813,813,813,813,813,813,813,813,813,813,813,813,813,813,813,813,813,813,813,813,813,813,813,813,813,813,813,813,813,813,813,813,813,813,813,813,813,812,812,812,812,813,813,813,813,813,813,813,813,813,813,813,813,813,813,813,813,813,813,813,812,812,812,812,812,812,812,812,812,812,812,812,812,812,812,812,812,812,811,811,811,811,811,811,811,811,811,811,810,810,810,809,809,808,808,808,808,808,808,808,808,808,808,808,806,791,784,781,776,773,772,772,772,772,772,772,770,768,762,756,751,751,751,751,751,755,759,764,768,773,780,792,800,806,809,810,810,809,806,800,771,753,742,737,732,728,726,726,729,735,743,755,761,767,772,788,808,827,853,908,1077,1195,1311,1419,1543,1543,1543,1543,1543,1543,1543,1543,1543,1543,1543,1543,1543,1543,1543,1543,1543,1543,1543,1543,1543,1543,1543,1543,1543,1543,1543,1543,1543,1543,1543,1543,1543,1543,1543,1543,1543,1543,1543,1543,1543,1543,1576,1575,1573,1573,1573,1572,1572,1572,1572,1572,1544,1494,1424,1349,1279,1163,1142,1136,1136,1136,1138,1138,1138,1139,1099,1044,968,830,780,583,529,494,465,434,397,322,291,288,288,290,301,315,337,359,372,376,377,381,389,398,422,430],"ymouse":[512,512,512,512,512,512,512,512,512,512,512,512,512,512,512,512,512,512,512,512,512,512,512,512,512,512,512,512,512,512,512,512,512,512,512,512,512,512,518,538,571,575,577,578,578,580,580,581,581,581,581,581,581,581,581,581,581,581,581,581,581,581,581,581,581,581,581,581,581,581,581,581,581,581,581,581,581,581,581,581,581,581,581,581,581,581,581,581,581,581,580,579,579,579,579,579,579,579,579,579,579,579,580,581,589,626,639,645,649,654,654,654,654,654,654,654,654,654,652,649,647,647,647,647,644,637,634,630,627,625,621,612,605,601,597,595,594,594,594,594,596,600,604,608,612,622,634,640,647,652,657,662,665,667,668,671,673,676,681,690,731,757,788,818,853,853,853,853,853,853,853,853,853,853,853,853,853,853,853,853,853,853,853,853,853,853,853,853,853,853,853,853,853,853,853,853,853,853,853,853,853,853,853,853,853,853,822,823,823,823,823,824,824,824,824,824,790,740,675,598,515,381,328,298,285,283,277,274,272,264,216,177,127,50,26,0,0,0,0,0,0,0,9,12,17,24,38,47,60,68,72,72,72,72,68,63,41,30],"timestamp_mouse":[10,50,70,90,109,129,149,169,190,209,229,249,270,289,309,329,350,368,390,410,428,450,469,489,509,529,549,569,589,609,629,649,670,690,710,729,749,769,789,809,829,848,869,890,910,929,950,970,990,1009,1030,1050,1070,1089,1110,1129,1150,1169,1190,1210,1229,1250,1270,1290,1310,1329,1349,1369,1390,1410,1429,1450,1469,1490,1509,1529,1549,1568,1589,1609,1629,1649,1670,1690,1710,1729,1750,1770,1790,1809,1830,1850,1869,1890,1910,1930,1949,1969,1989,2008,2030,2049,2069,2089,2110,2129,2150,2168,2189,2209,2229,2250,2268,2289,2309,2329,2350,2369,2389,2409,2430,2449,2470,2489,2509,2530,2550,2568,2589,2609,2629,2649,2670,2689,2710,2730,2749,2769,2789,2809,2830,2848,2870,2889,2910,2929,2950,2969,2989,3009,3029,3050,3069,3089,3109,3130,3149,3169,3190,3209,3230,3249,3269,3289,3308,3330,3349,3369,3389,3409,3429,3449,3470,3489,3510,3529,3549,3569,3589,3609,3630,3649,3670,3689,3710,3730,3748,3769,3790,3809,3830,3849,3869,3889,3909,3930,3949,3969,3988,4010,4030,4049,4070,4090,4109,4129,4150,4169,4190,4210,4229,4249,4269,4290,4309,4329,4349,4369,4389,4409,4430,4448,4469,4489,4508,4529,4549,4569,4589,4609,4630,4649,4669,4690,4709,4731,4750,4769,4789,4809,4829,4849,4869,4890,4910,4929,4950,4969,4989,5010,5029,5049,5069,5089,5110,5129,5149,5169],"xSR":741.5,"ySR":500.5,"xT1":424.9,"yT1":0,"xT2":1058.1,"yT2":0,"toosoon":0,"cond_shown":"Congruent","ratio_trial":100,"L_num":8,"L_den":16,"R_num":2,"R_den":5,"correct_side":1,"subjID":"ginaisabelacamelorocha9","gender":"1","age":"10","school":"4","test":{"fix_dur":[250,1500],"timestim":1000,"targets_dim":[100,100],"targets_relative_coord":[0.3,0.7],"size_stim":[880,420],"start_dim":[100,100],"size_start":[300,300],"size_fix":60,"samplingrate":20,"img_types":["Congruent","Incongruent"],"ratios":[100,200,300],"rep_conds":19,"nTrials":120,"trials_to_rest":500,"Trials_order":[24,6,17,100,44,117,115,14,73,58,79,68,30,27,5,107,92,81,39,56,65,82,113,43,105,89,54,103,64,98,86,28,76,59,40,78,80,116,95,106,63,69,4,35,21,99,66,72,45,104,38,61,87,75,37,53,12,70,50,101,36,46,110,88,83,15,97,32,47,90,57,19,49,91,48,29,16,52,13,108,1,118,109,85,93,23,111,8,96,20,34,11,41,84,42,77,67,26,71,18,55,3,25,112,33,0,74,62,7,119,10,60,102,51,94,9,114,2,31,22],"cond_shown":["Congruent","Congruent","Incongruent","Congruent","Congruent","Incongruent","Incongruent","Congruent","Incongruent","Congruent","Incongruent","Congruent","Congruent","Incongruent","Incongruent","Incongruent","Congruent","Incongruent","Incongruent","Congruent","Incongruent","Congruent","Incongruent","Incongruent","Incongruent","Incongruent","Congruent","Incongruent","Congruent","Congruent","Congruent","Congruent","Congruent","Incongruent","Congruent","Congruent","Congruent","Congruent","Incongruent","Congruent","Incongruent","Incongruent","Congruent","Incongruent","Incongruent","Incongruent","Congruent","Congruent","Incongruent","Congruent","Congruent","Incongruent","Incongruent","Incongruent","Incongruent","Incongruent","Congruent","Congruent","Congruent","Incongruent","Congruent","Congruent","Congruent","Congruent","Incongruent","Incongruent","Incongruent","Congruent","Incongruent","Congruent","Incongruent","Incongruent","Incongruent","Incongruent","Congruent","Incongruent","Congruent","Congruent","Incongruent","Congruent","Incongruent","Congruent","Incongruent","Incongruent","Incongruent","Incongruent","Incongruent","Congruent","Congruent","Congruent","Congruent","Incongruent","Incongruent","Congruent","Congruent","Incongruent","Incongruent","Congruent","Incongruent","Congruent","Incongruent","Incongruent","Incongruent","Congruent","Incongruent","Congruent","Congruent","Congruent","Incongruent","Incongruent","Congruent","Congruent","Congruent","Incongruent","Congruent","Incongruent","Congruent","Congruent","Incongruent","Congruent"],"ratio_trial":[100,100,300,300,200,200,100,200,100,300,100,200,100,200,300,300,200,200,200,200,300,300,300,100,200,300,100,100,300,200,200,300,300,300,300,100,200,200,300,300,200,200,300,300,200,200,100,100,200,200,200,100,200,200,100,300,100,300,200,300,100,300,200,300,300,200,100,200,300,100,200,100,100,100,100,300,300,300,100,100,100,300,100,100,200,300,200,200,100,200,300,300,300,100,100,300,100,200,300,100,100,200,100,300,200,100,200,200,100,300,300,100,100,200,300,200,100,200,100,300],"left_num":[8,4,13,18,1,4,10,15,3,7,9,8,1,9,8,4,5,7,7,21,4,5,8,2,7,7,8,9,12,8,3,1,4,13,8,2,8,1,13,1,7,1,4,1,7,3,1,10,7,21,13,9,4,14,9,4,11,20,8,13,15,11,3,5,4,3,11,9,4,1,1,13,13,10,7,4,24,12,17,15,3,5,13,10,6,13,4,16,11,3,12,8,4,7,6,4,2,3,8,3,2,4,12,11,4,15,4,1,12,4,20,15,11,7,20,3,7,6,13,1],"right_num":[2,6,12,9,21,1,9,4,4,20,20,2,18,8,14,2,14,8,12,2,2,6,14,8,4,8,2,6,2,3,14,7,13,12,10,6,7,21,12,11,4,3,1,3,8,1,3,3,12,2,14,14,6,12,13,2,6,8,2,12,13,1,11,6,2,11,9,13,2,3,2,6,6,9,15,2,2,2,10,13,7,6,12,8,3,12,1,9,6,9,2,9,2,9,5,2,8,11,9,4,6,6,9,4,14,13,3,21,2,8,13,13,6,8,14,1,9,7,12,7],"left_den":[16,8,26,20,2,30,25,25,6,14,10,15,2,15,10,20,10,10,10,30,20,25,10,4,15,10,16,18,24,15,10,20,20,26,15,5,15,2,26,5,15,2,10,2,10,10,2,25,10,30,26,15,5,30,15,20,22,25,15,26,25,22,10,25,20,4,22,30,20,2,3,26,26,25,14,20,30,24,30,25,9,25,26,25,20,26,30,30,22,12,24,10,20,14,20,20,4,10,10,20,4,5,24,22,6,25,10,2,30,5,25,25,22,10,25,10,14,12,26,20],"right_den":[5,10,15,15,30,3,18,10,10,25,25,6,30,10,28,4,20,16,24,4,4,12,28,20,6,20,5,10,10,9,28,20,26,15,12,12,21,30,15,22,6,10,10,15,16,2,5,10,24,4,20,28,10,18,26,4,15,16,6,15,26,5,22,12,4,20,15,26,4,5,15,10,10,18,25,4,4,10,15,26,30,12,20,16,6,15,3,27,15,20,10,18,4,15,25,4,20,22,18,16,15,10,15,20,30,26,15,30,4,16,26,26,15,16,28,2,15,10,20,20],"correct_side":[1,2,2,1,2,2,2,1,1,2,1,1,2,2,1,2,2,1,1,1,2,2,1,1,2,1,1,2,1,1,2,2,2,2,2,2,1,2,2,2,2,1,1,1,1,2,2,1,1,1,2,1,1,2,1,2,1,1,1,2,1,1,2,2,2,1,2,2,2,2,1,2,2,2,2,2,1,1,2,1,1,2,2,2,2,2,2,1,1,2,1,1,2,2,1,2,1,2,1,2,1,1,2,1,1,1,1,2,2,1,1,1,1,1,1,2,2,2,2,2],"img_shown":["img2/100/Congruent/L/C_Dist_100_LN_8_LD_16_RN_2_RD_5_0.png","img2/100/Congruent/R/C_Dist_100_LN_4_LD_8_RN_6_RD_10_1.png","img2/300/Incongruent/R/I_Dist_300_LN_13_LD_26_RN_12_RD_15_1.png","img2/300/Congruent/L/C_Dist_300_LN_18_LD_20_RN_9_RD_15_0.png","img2/200/Congruent/R/C_Dist_200_LN_1_LD_2_RN_21_RD_30_1.png","img2/200/Incongruent/R/I_Dist_200_LN_4_LD_30_RN_1_RD_3_1.png","img2/100/Incongruent/R/I_Dist_100_LN_10_LD_25_RN_9_RD_18_1.png","img2/200/Congruent/L/C_Dist_200_LN_15_LD_25_RN_4_RD_10_0.png","img2/100/Incongruent/L/I_Dist_100_LN_3_LD_6_RN_4_RD_10_0.png","img2/300/Congruent/R/C_Dist_300_LN_7_LD_14_RN_20_RD_25_1.png","img2/100/Incongruent/L/I_Dist_100_LN_9_LD_10_RN_20_RD_25_0.png","img2/200/Congruent/L/C_Dist_200_LN_8_LD_15_RN_2_RD_6_0.png","img2/100/Congruent/R/C_Dist_100_LN_1_LD_2_RN_18_RD_30_1.png","img2/200/Incongruent/R/I_Dist_200_LN_9_LD_15_RN_8_RD_10_1.png","img2/300/Incongruent/L/I_Dist_300_LN_8_LD_10_RN_14_RD_28_0.png","img2/300/Incongruent/R/I_Dist_300_LN_4_LD_20_RN_2_RD_4_1.png","img2/200/Congruent/R/C_Dist_200_LN_5_LD_10_RN_14_RD_20_1.png","img2/200/Incongruent/L/I_Dist_200_LN_7_LD_10_RN_8_RD_16_0.png","img2/200/Incongruent/L/I_Dist_200_LN_7_LD_10_RN_12_RD_24_0.png","img2/200/Congruent/L/C_Dist_200_LN_21_LD_30_RN_2_RD_4_0.png","img2/300/Incongruent/R/I_Dist_300_LN_4_LD_20_RN_2_RD_4_1.png","img2/300/Congruent/R/C_Dist_300_LN_5_LD_25_RN_6_RD_12_1.png","img2/300/Incongruent/L/I_Dist_300_LN_8_LD_10_RN_14_RD_28_0.png","img2/100/Incongruent/L/I_Dist_100_LN_2_LD_4_RN_8_RD_20_0.png","img2/200/Incongruent/R/I_Dist_200_LN_7_LD_15_RN_4_RD_6_1.png","img2/300/Incongruent/L/I_Dist_300_LN_7_LD_10_RN_8_RD_20_0.png","img2/100/Congruent/L/C_Dist_100_LN_8_LD_16_RN_2_RD_5_0.png","img2/100/Incongruent/R/I_Dist_100_LN_9_LD_18_RN_6_RD_10_1.png","img2/300/Congruent/L/C_Dist_300_LN_12_LD_24_RN_2_RD_10_0.png","img2/200/Congruent/L/C_Dist_200_LN_8_LD_15_RN_3_RD_9_0.png","img2/200/Congruent/R/C_Dist_200_LN_3_LD_10_RN_14_RD_28_1.png","img2/300/Congruent/R/C_Dist_300_LN_1_LD_20_RN_7_RD_20_1.png","img2/300/Congruent/R/C_Dist_300_LN_4_LD_20_RN_13_RD_26_1.png","img2/300/Incongruent/R/I_Dist_300_LN_13_LD_26_RN_12_RD_15_1.png","img2/300/Congruent/R/C_Dist_300_LN_8_LD_15_RN_10_RD_12_1.png","img2/100/Congruent/R/C_Dist_100_LN_2_LD_5_RN_6_RD_12_1.png","img2/200/Congruent/L/C_Dist_200_LN_8_LD_15_RN_7_RD_21_0.png","img2/200/Congruent/R/C_Dist_200_LN_1_LD_2_RN_21_RD_30_1.png","img2/300/Incongruent/R/I_Dist_300_LN_13_LD_26_RN_12_RD_15_1.png","img2/300/Congruent/R/C_Dist_300_LN_1_LD_5_RN_11_RD_22_1.png","img2/200/Incongruent/R/I_Dist_200_LN_7_LD_15_RN_4_RD_6_1.png","img2/200/Incongruent/L/I_Dist_200_LN_1_LD_2_RN_3_RD_10_0.png","img2/300/Congruent/L/C_Dist_300_LN_4_LD_10_RN_1_RD_10_0.png","img2/300/Incongruent/L/I_Dist_300_LN_1_LD_2_RN_3_RD_15_0.png","img2/200/Incongruent/L/I_Dist_200_LN_7_LD_10_RN_8_RD_16_0.png","img2/200/Incongruent/R/I_Dist_200_LN_3_LD_10_RN_1_RD_2_1.png","img2/100/Congruent/R/C_Dist_100_LN_1_LD_2_RN_3_RD_5_1.png","img2/100/Congruent/L/C_Dist_100_LN_10_LD_25_RN_3_RD_10_0.png","img2/200/Incongruent/L/I_Dist_200_LN_7_LD_10_RN_12_RD_24_0.png","img2/200/Congruent/L/C_Dist_200_LN_21_LD_30_RN_2_RD_4_0.png","img2/200/Congruent/R/C_Dist_200_LN_13_LD_26_RN_14_RD_20_1.png","img2/100/Incongruent/L/I_Dist_100_LN_9_LD_15_RN_14_RD_28_0.png","img2/200/Incongruent/L/I_Dist_200_LN_4_LD_5_RN_6_RD_10_0.png","img2/200/Incongruent/R/I_Dist_200_LN_14_LD_30_RN_12_RD_18_1.png","img2/100/Incongruent/L/I_Dist_100_LN_9_LD_15_RN_13_RD_26_0.png","img2/300/Incongruent/R/I_Dist_300_LN_4_LD_20_RN_2_RD_4_1.png","img2/100/Congruent/L/C_Dist_100_LN_11_LD_22_RN_6_RD_15_0.png","img2/300/Congruent/L/C_Dist_300_LN_20_LD_25_RN_8_RD_16_0.png","img2/200/Congruent/L/C_Dist_200_LN_8_LD_15_RN_2_RD_6_0.png","img2/300/Incongruent/R/I_Dist_300_LN_13_LD_26_RN_12_RD_15_1.png","img2/100/Congruent/L/C_Dist_100_LN_15_LD_25_RN_13_RD_26_0.png","img2/300/Congruent/L/C_Dist_300_LN_11_LD_22_RN_1_RD_5_0.png","img2/200/Congruent/R/C_Dist_200_LN_3_LD_10_RN_11_RD_22_1.png","img2/300/Congruent/R/C_Dist_300_LN_5_LD_25_RN_6_RD_12_1.png","img2/300/Incongruent/R/I_Dist_300_LN_4_LD_20_RN_2_RD_4_1.png","img2/200/Incongruent/L/I_Dist_200_LN_3_LD_4_RN_11_RD_20_0.png","img2/100/Incongruent/R/I_Dist_100_LN_11_LD_22_RN_9_RD_15_1.png","img2/200/Congruent/R/C_Dist_200_LN_9_LD_30_RN_13_RD_26_1.png","img2/300/Incongruent/R/I_Dist_300_LN_4_LD_20_RN_2_RD_4_1.png","img2/100/Congruent/R/C_Dist_100_LN_1_LD_2_RN_3_RD_5_1.png","img2/200/Incongruent/L/I_Dist_200_LN_1_LD_3_RN_2_RD_15_0.png","img2/100/Incongruent/R/I_Dist_100_LN_13_LD_26_RN_6_RD_10_1.png","img2/100/Incongruent/R/I_Dist_100_LN_13_LD_26_RN_6_RD_10_1.png","img2/100/Incongruent/R/I_Dist_100_LN_10_LD_25_RN_9_RD_18_1.png","img2/100/Congruent/R/C_Dist_100_LN_7_LD_14_RN_15_RD_25_1.png","img2/300/Incongruent/R/I_Dist_300_LN_4_LD_20_RN_2_RD_4_1.png","img2/300/Congruent/L/C_Dist_300_LN_24_LD_30_RN_2_RD_4_0.png","img2/300/Congruent/L/C_Dist_300_LN_12_LD_24_RN_2_RD_10_0.png","img2/100/Incongruent/R/I_Dist_100_LN_17_LD_30_RN_10_RD_15_1.png","img2/100/Congruent/L/C_Dist_100_LN_15_LD_25_RN_13_RD_26_0.png","img2/100/Incongruent/L/I_Dist_100_LN_3_LD_9_RN_7_RD_30_0.png","img2/300/Congruent/R/C_Dist_300_LN_5_LD_25_RN_6_RD_12_1.png","img2/100/Incongruent/R/I_Dist_100_LN_13_LD_26_RN_12_RD_20_1.png","img2/100/Incongruent/R/I_Dist_100_LN_10_LD_25_RN_8_RD_16_1.png","img2/200/Incongruent/R/I_Dist_200_LN_6_LD_20_RN_3_RD_6_1.png","img2/300/Incongruent/R/I_Dist_300_LN_13_LD_26_RN_12_RD_15_1.png","img2/200/Incongruent/R/I_Dist_200_LN_4_LD_30_RN_1_RD_3_1.png","img2/200/Congruent/L/C_Dist_200_LN_16_LD_30_RN_9_RD_27_0.png","img2/100/Congruent/L/C_Dist_100_LN_11_LD_22_RN_6_RD_15_0.png","img2/200/Congruent/R/C_Dist_200_LN_3_LD_12_RN_9_RD_20_1.png","img2/300/Congruent/L/C_Dist_300_LN_12_LD_24_RN_2_RD_10_0.png","img2/300/Incongruent/L/I_Dist_300_LN_8_LD_10_RN_9_RD_18_0.png","img2/300/Incongruent/R/I_Dist_300_LN_4_LD_20_RN_2_RD_4_1.png","img2/100/Congruent/R/C_Dist_100_LN_7_LD_14_RN_9_RD_15_1.png","img2/100/Congruent/L/C_Dist_100_LN_6_LD_20_RN_5_RD_25_0.png","img2/300/Incongruent/R/I_Dist_300_LN_4_LD_20_RN_2_RD_4_1.png","img2/100/Incongruent/L/I_Dist_100_LN_2_LD_4_RN_8_RD_20_0.png","img2/200/Congruent/R/C_Dist_200_LN_3_LD_10_RN_11_RD_22_1.png","img2/300/Incongruent/L/I_Dist_300_LN_8_LD_10_RN_9_RD_18_0.png","img2/100/Congruent/R/C_Dist_100_LN_3_LD_20_RN_4_RD_16_1.png","img2/100/Incongruent/L/I_Dist_100_LN_2_LD_4_RN_6_RD_15_0.png","img2/200/Incongruent/L/I_Dist_200_LN_4_LD_5_RN_6_RD_10_0.png","img2/100/Incongruent/R/I_Dist_100_LN_12_LD_24_RN_9_RD_15_1.png","img2/300/Congruent/L/C_Dist_300_LN_11_LD_22_RN_4_RD_20_0.png","img2/200/Incongruent/L/I_Dist_200_LN_4_LD_6_RN_14_RD_30_0.png","img2/100/Congruent/L/C_Dist_100_LN_15_LD_25_RN_13_RD_26_0.png","img2/200/Congruent/L/C_Dist_200_LN_4_LD_10_RN_3_RD_15_0.png","img2/200/Congruent/R/C_Dist_200_LN_1_LD_2_RN_21_RD_30_1.png","img2/100/Incongruent/R/I_Dist_100_LN_12_LD_30_RN_2_RD_4_1.png","img2/300/Incongruent/L/I_Dist_300_LN_4_LD_5_RN_8_RD_16_0.png","img2/300/Congruent/L/C_Dist_300_LN_20_LD_25_RN_13_RD_26_0.png","img2/100/Congruent/L/C_Dist_100_LN_15_LD_25_RN_13_RD_26_0.png","img2/100/Congruent/L/C_Dist_100_LN_11_LD_22_RN_6_RD_15_0.png","img2/200/Incongruent/L/I_Dist_200_LN_7_LD_10_RN_8_RD_16_0.png","img2/300/Congruent/L/C_Dist_300_LN_20_LD_25_RN_14_RD_28_0.png","img2/200/Incongruent/R/I_Dist_200_LN_3_LD_10_RN_1_RD_2_1.png","img2/100/Congruent/R/C_Dist_100_LN_7_LD_14_RN_9_RD_15_1.png","img2/200/Congruent/R/C_Dist_200_LN_6_LD_12_RN_7_RD_10_1.png","img2/100/Incongruent/R/I_Dist_100_LN_13_LD_26_RN_12_RD_20_1.png","img2/300/Congruent/R/C_Dist_300_LN_1_LD_20_RN_7_RD_20_1.png"],"dist100_C":[["C_Dist_100_LN_10_LD_25_RN_3_RD_10_0.png","C_Dist_100_LN_11_LD_22_RN_4_RD_10_0.png","C_Dist_100_LN_11_LD_22_RN_6_RD_15_0.png","C_Dist_100_LN_15_LD_25_RN_13_RD_26_0.png","C_Dist_100_LN_3_LD_6_RN_2_RD_5_0.png","C_Dist_100_LN_6_LD_20_RN_5_RD_25_0.png","C_Dist_100_LN_8_LD_16_RN_2_RD_5_0.png","C_Dist_100_LN_9_LD_15_RN_8_RD_16_0.png"],["C_Dist_100_LN_1_LD_2_RN_18_RD_30_1.png","C_Dist_100_LN_1_LD_2_RN_3_RD_5_1.png","C_Dist_100_LN_12_LD_30_RN_13_RD_26_1.png","C_Dist_100_LN_2_LD_5_RN_11_RD_22_1.png","C_Dist_100_LN_2_LD_5_RN_6_RD_12_1.png","C_Dist_100_LN_3_LD_20_RN_4_RD_16_1.png","C_Dist_100_LN_4_LD_10_RN_15_RD_30_1.png","C_Dist_100_LN_4_LD_8_RN_6_RD_10_1.png","C_Dist_100_LN_6_LD_12_RN_15_RD_25_1.png","C_Dist_100_LN_7_LD_14_RN_15_RD_25_1.png","C_Dist_100_LN_7_LD_14_RN_9_RD_15_1.png"]],"dist100_I":[["I_Dist_100_LN_1_LD_2_RN_8_RD_20_0.png","I_Dist_100_LN_2_LD_4_RN_6_RD_15_0.png","I_Dist_100_LN_2_LD_4_RN_8_RD_20_0.png","I_Dist_100_LN_3_LD_5_RN_11_RD_22_0.png","I_Dist_100_LN_3_LD_5_RN_8_RD_16_0.png","I_Dist_100_LN_3_LD_6_RN_4_RD_10_0.png","I_Dist_100_LN_3_LD_9_RN_7_RD_30_0.png","I_Dist_100_LN_4_LD_8_RN_8_RD_20_0.png","I_Dist_100_LN_6_LD_10_RN_11_RD_22_0.png","I_Dist_100_LN_6_LD_10_RN_13_RD_26_0.png","I_Dist_100_LN_6_LD_10_RN_7_RD_14_0.png","I_Dist_100_LN_9_LD_10_RN_20_RD_25_0.png","I_Dist_100_LN_9_LD_15_RN_13_RD_26_0.png","I_Dist_100_LN_9_LD_15_RN_14_RD_28_0.png"],["I_Dist_100_LN_10_LD_25_RN_8_RD_16_1.png","I_Dist_100_LN_10_LD_25_RN_9_RD_18_1.png","I_Dist_100_LN_11_LD_22_RN_9_RD_15_1.png","I_Dist_100_LN_12_LD_24_RN_9_RD_15_1.png","I_Dist_100_LN_12_LD_30_RN_2_RD_4_1.png","I_Dist_100_LN_13_LD_26_RN_12_RD_20_1.png","I_Dist_100_LN_13_LD_26_RN_6_RD_10_1.png","I_Dist_100_LN_17_LD_30_RN_10_RD_15_1.png","I_Dist_100_LN_6_LD_12_RN_3_RD_5_1.png","I_Dist_100_LN_8_LD_16_RN_6_RD_10_1.png","I_Dist_100_LN_8_LD_20_RN_1_RD_2_1.png","I_Dist_100_LN_9_LD_18_RN_6_RD_10_1.png"]],"dist100_S":[["E_Dist_100_LN_2_LD_12_RN_2_RD_30_0.png","E_Dist_100_LN_6_LD_10_RN_6_RD_12_0.png"],["E_Dist_100_LN_6_LD_12_RN_6_RD_10_1.png"]],"dist200_C":[["C_Dist_200_LN_11_LD_22_RN_3_RD_10_0.png","C_Dist_200_LN_12_LD_15_RN_6_RD_10_0.png","C_Dist_200_LN_12_LD_20_RN_6_RD_15_0.png","C_Dist_200_LN_14_LD_28_RN_6_RD_20_0.png","C_Dist_200_LN_15_LD_25_RN_4_RD_10_0.png","C_Dist_200_LN_16_LD_20_RN_12_RD_20_0.png","C_Dist_200_LN_16_LD_30_RN_9_RD_27_0.png","C_Dist_200_LN_20_LD_25_RN_9_RD_15_0.png","C_Dist_200_LN_21_LD_30_RN_2_RD_4_0.png","C_Dist_200_LN_4_LD_10_RN_3_RD_15_0.png","C_Dist_200_LN_4_LD_8_RN_3_RD_10_0.png","C_Dist_200_LN_6_LD_15_RN_3_RD_15_0.png","C_Dist_200_LN_7_LD_21_RN_2_RD_15_0.png","C_Dist_200_LN_8_LD_15_RN_2_RD_6_0.png","C_Dist_200_LN_8_LD_15_RN_3_RD_9_0.png","C_Dist_200_LN_8_LD_15_RN_7_RD_21_0.png","C_Dist_200_LN_9_LD_20_RN_4_RD_16_0.png"],["C_Dist_200_LN_1_LD_2_RN_21_RD_30_1.png","C_Dist_200_LN_13_LD_26_RN_14_RD_20_1.png","C_Dist_200_LN_3_LD_10_RN_11_RD_22_1.png","C_Dist_200_LN_3_LD_10_RN_14_RD_28_1.png","C_Dist_200_LN_3_LD_10_RN_7_RD_14_1.png","C_Dist_200_LN_3_LD_12_RN_9_RD_20_1.png","C_Dist_200_LN_3_LD_6_RN_14_RD_20_1.png","C_Dist_200_LN_5_LD_10_RN_14_RD_20_1.png","C_Dist_200_LN_6_LD_12_RN_7_RD_10_1.png","C_Dist_200_LN_6_LD_20_RN_11_RD_22_1.png","C_Dist_200_LN_7_LD_15_RN_18_RD_27_1.png","C_Dist_200_LN_9_LD_30_RN_13_RD_26_1.png"]],"dist200_I":[["I_Dist_200_LN_1_LD_2_RN_3_RD_10_0.png","I_Dist_200_LN_1_LD_3_RN_2_RD_15_0.png","I_Dist_200_LN_3_LD_4_RN_11_RD_20_0.png","I_Dist_200_LN_4_LD_5_RN_6_RD_10_0.png","I_Dist_200_LN_4_LD_6_RN_14_RD_30_0.png","I_Dist_200_LN_7_LD_10_RN_12_RD_24_0.png","I_Dist_200_LN_7_LD_10_RN_14_RD_28_0.png","I_Dist_200_LN_7_LD_10_RN_8_RD_16_0.png"],["I_Dist_200_LN_11_LD_20_RN_3_RD_4_1.png","I_Dist_200_LN_14_LD_30_RN_12_RD_18_1.png","I_Dist_200_LN_14_LD_30_RN_6_RD_9_1.png","I_Dist_200_LN_3_LD_10_RN_1_RD_2_1.png","I_Dist_200_LN_4_LD_30_RN_1_RD_3_1.png","I_Dist_200_LN_6_LD_20_RN_3_RD_6_1.png","I_Dist_200_LN_7_LD_15_RN_4_RD_6_1.png","I_Dist_200_LN_7_LD_15_RN_6_RD_9_1.png","I_Dist_200_LN_9_LD_15_RN_8_RD_10_1.png"]],"dist200_S":[["E_Dist_200_LN_3_LD_6_RN_3_RD_10_0.png"],["E_Dist_200_LN_3_LD_10_RN_3_RD_6_1.png"]],"dist300_C":[["C_Dist_300_LN_11_LD_22_RN_1_RD_5_0.png","C_Dist_300_LN_11_LD_22_RN_2_RD_10_0.png","C_Dist_300_LN_11_LD_22_RN_4_RD_20_0.png","C_Dist_300_LN_12_LD_24_RN_2_RD_10_0.png","C_Dist_300_LN_18_LD_20_RN_9_RD_15_0.png","C_Dist_300_LN_20_LD_25_RN_13_RD_26_0.png","C_Dist_300_LN_20_LD_25_RN_14_RD_28_0.png","C_Dist_300_LN_20_LD_25_RN_5_RD_10_0.png","C_Dist_300_LN_20_LD_25_RN_8_RD_16_0.png","C_Dist_300_LN_20_LD_25_RN_9_RD_18_0.png","C_Dist_300_LN_24_LD_30_RN_2_RD_4_0.png","C_Dist_300_LN_24_LD_30_RN_8_RD_16_0.png","C_Dist_300_LN_3_LD_6_RN_2_RD_10_0.png","C_Dist_300_LN_4_LD_10_RN_1_RD_10_0.png","C_Dist_300_LN_4_LD_5_RN_2_RD_4_0.png","C_Dist_300_LN_8_LD_16_RN_1_RD_5_0.png","C_Dist_300_LN_9_LD_10_RN_3_RD_5_0.png"],["C_Dist_300_LN_1_LD_20_RN_7_RD_20_1.png","C_Dist_300_LN_1_LD_3_RN_19_RD_30_1.png","C_Dist_300_LN_1_LD_30_RN_8_RD_24_1.png","C_Dist_300_LN_1_LD_5_RN_11_RD_22_1.png","C_Dist_300_LN_1_LD_5_RN_3_RD_6_1.png","C_Dist_300_LN_1_LD_5_RN_6_RD_12_1.png","C_Dist_300_LN_2_LD_10_RN_12_RD_24_1.png","C_Dist_300_LN_2_LD_20_RN_10_RD_25_1.png","C_Dist_300_LN_3_LD_12_RN_11_RD_20_1.png","C_Dist_300_LN_3_LD_6_RN_4_RD_5_1.png","C_Dist_300_LN_4_LD_20_RN_13_RD_26_1.png","C_Dist_300_LN_5_LD_25_RN_6_RD_12_1.png","C_Dist_300_LN_5_LD_25_RN_7_RD_14_1.png","C_Dist_300_LN_7_LD_14_RN_20_RD_25_1.png","C_Dist_300_LN_8_LD_15_RN_10_RD_12_1.png"]],"dist300_I":[["I_Dist_300_LN_1_LD_2_RN_2_RD_10_0.png","I_Dist_300_LN_1_LD_2_RN_3_RD_15_0.png","I_Dist_300_LN_2_LD_4_RN_6_RD_30_0.png","I_Dist_300_LN_3_LD_6_RN_4_RD_20_0.png","I_Dist_300_LN_4_LD_5_RN_6_RD_12_0.png","I_Dist_300_LN_4_LD_5_RN_8_RD_16_0.png","I_Dist_300_LN_7_LD_10_RN_8_RD_20_0.png","I_Dist_300_LN_8_LD_10_RN_14_RD_28_0.png","I_Dist_300_LN_8_LD_10_RN_9_RD_18_0.png"],["I_Dist_300_LN_13_LD_26_RN_12_RD_15_1.png","I_Dist_300_LN_4_LD_20_RN_2_RD_4_1.png"]],"dist300_S":[["E_Dist_300_LN_9_LD_12_RN_9_RD_20_0.png"],["E_Dist_300_LN_18_LD_30_RN_18_RD_20_1.png","E_Dist_300_LN_3_LD_10_RN_3_RD_5_1.png","E_Dist_300_LN_9_LD_20_RN_9_RD_12_1.png"]],"dist500_C":[["C_Dist_500_LN_10_LD_13_RN_7_RD_26_0.png","C_Dist_500_LN_10_LD_15_RN_4_RD_24_0.png","C_Dist_500_LN_12_LD_16_RN_3_RD_12_0.png","C_Dist_500_LN_12_LD_18_RN_4_RD_24_0.png","C_Dist_500_LN_15_LD_18_RN_5_RD_15_0.png","C_Dist_500_LN_15_LD_20_RN_1_RD_4_0.png","C_Dist_500_LN_18_LD_27_RN_1_RD_6_0.png","C_Dist_500_LN_20_LD_24_RN_1_RD_3_0.png","C_Dist_500_LN_20_LD_24_RN_3_RD_9_0.png","C_Dist_500_LN_20_LD_24_RN_7_RD_21_0.png","C_Dist_500_LN_20_LD_28_RN_3_RD_14_0.png","C_Dist_500_LN_21_LD_28_RN_6_RD_24_0.png","C_Dist_500_LN_22_LD_28_RN_2_RD_7_0.png","C_Dist_500_LN_25_LD_30_RN_9_RD_27_0.png","C_Dist_500_LN_4_LD_6_RN_1_RD_6_0.png","C_Dist_500_LN_5_LD_6_RN_2_RD_6_0.png","C_Dist_500_LN_6_LD_9_RN_1_RD_6_0.png","C_Dist_500_LN_7_LD_10_RN_1_RD_5_0.png","C_Dist_500_LN_8_LD_12_RN_1_RD_6_0.png","C_Dist_500_LN_8_LD_12_RN_4_RD_24_0.png"],["C_Dist_500_LN_1_LD_4_RN_12_RD_16_1.png","C_Dist_500_LN_1_LD_4_RN_9_RD_12_1.png","C_Dist_500_LN_1_LD_9_RN_11_RD_18_1.png","C_Dist_500_LN_10_LD_24_RN_22_RD_24_1.png","C_Dist_500_LN_2_LD_12_RN_10_RD_15_1.png","C_Dist_500_LN_2_LD_12_RN_12_RD_18_1.png","C_Dist_500_LN_2_LD_12_RN_4_RD_6_1.png","C_Dist_500_LN_2_LD_24_RN_7_RD_12_1.png","C_Dist_500_LN_2_LD_5_RN_18_RD_20_1.png","C_Dist_500_LN_2_LD_5_RN_9_RD_10_1.png","C_Dist_500_LN_2_LD_8_RN_12_RD_16_1.png","C_Dist_500_LN_2_LD_8_RN_21_RD_28_1.png","C_Dist_500_LN_3_LD_10_RN_4_RD_5_1.png","C_Dist_500_LN_3_LD_12_RN_15_RD_20_1.png","C_Dist_500_LN_3_LD_30_RN_6_RD_10_1.png","C_Dist_500_LN_3_LD_8_RN_14_RD_16_1.png","C_Dist_500_LN_4_LD_16_RN_15_RD_20_1.png","C_Dist_500_LN_4_LD_24_RN_12_RD_18_1.png","C_Dist_500_LN_5_LD_14_RN_6_RD_7_1.png","C_Dist_500_LN_7_LD_21_RN_20_RD_24_1.png","C_Dist_500_LN_7_LD_28_RN_12_RD_16_1.png","C_Dist_500_LN_7_LD_28_RN_9_RD_12_1.png","C_Dist_500_LN_9_LD_27_RN_20_RD_24_1.png"]],"dist500_I":[["I_Dist_500_LN_2_LD_3_RN_4_RD_24_0.png","I_Dist_500_LN_5_LD_6_RN_6_RD_18_0.png","I_Dist_500_LN_7_LD_8_RN_9_RD_24_0.png"],["I_Dist_500_LN_7_LD_21_RN_5_RD_6_1.png"]],"dist500_S":[["E_Dist_500_LN_6_LD_8_RN_6_RD_24_0.png"],["E_Dist_500_LN_2_LD_12_RN_2_RD_3_1.png","E_Dist_500_LN_6_LD_24_RN_6_RD_8_1.png"]]}},{"start_time":1552068752044,"click_time":1552068820588,"finger_time":1552068752787,"fix_duration":1116.6877225666176,"trial":1,"RT":743,"MT":67801,"sideResp":1,"stimulus":[],"xmouse":[813,812,811,811,811,810,810,810,810,810,810,810,810,810,810,810,810,810,810,810,810,810,810,810,810,810,810,810,810,810,810,810,810,807,793,779,768,758,755,755,755,755,755,755,762,764,765,765,765,765,765,765,765,765,765,765,765,765,765,774,775,778,779,780,780,780,780,780,781,781,782,782,782,782,783,784,784,784,784,784,784,784,784,784,823,908,1034,1199,1370,1527,1527,1527,1527,1527,1527,1527,1527,1527,1527,1527,1527,1527,1527,1527,1527,1527,1527,1527,1527,1527,1527,1527,1527,1527,1527,1527,1527,1527,1527,1527,1527,1527,1527,1527,1527,1527,1527,1527,1527,1527,1527,1527,1527,1527,1527,1527,1527,1527,1527,1527,1527,1527,1527,1527,1527,1527,1527,1527,1527,1527,1527,1527,1527,1527,1527,1527,1527,1527,1527,1527,1527,1527,1527,1527,1527,1527,1527,1527,1527,1527,1527,1527,1527,1527,1527,1527,1527,1527,1527,1578,1539,1491,1441,1398,1359,1356,1356,1356,1356,1356,1356,1356,1356,1356,1352,1341,1320,1285,1213,1183,1141,1122,1109,1099,1087,1052,1034,1015,997,977,945,925,905,880,859,834,833,833,833,833,832,830,829,825,815,810,806,803,803,799,799,799,799,799,799,799,799,799,799,799,799,799,799,799,799,799,799,799,799,799,799,799,799,799,799,799,799,799,799,799,799,799,799,799,799,799,799,799,799,799,797,794,787,781,776,773,773,773,773,773,773,773,773,773,773,773,775,777,779,780,780,780,780,779,778,778,776,774,771,759,739,738,738,737,737,737,737,737,737,738,738,742,746,748,750,755,759,762,766,773,781,787,791,795,796,797,798,798,800,800,800,800,791,775,756,726,717,715,715,714,711,711,711,713,720,755,787,794,812,813,821,829,839,850,874,1018,1227,1462,1462,1462,1462,1462,1462,1462,1462,1462,1462,1462,1462,1462,1462,1462,1462,1462,1462,1462,1462,1462,1462,1462,1462,1462,1462,1462,1462,1462,1462,1462,1462,1462,1462,1462,1462,1462,1462,1462,1462,1462,1462,1462,1462,1462,1462,1462,1462,1462,1462,1462,1462,1462,1462,1462,1462,1462,1462,1462,1462,1462,1462,1462,1462,1462,1462,1462,1462,1462,1462,1462,1462,1462,1462,1462,1462,1462,1462,1462,1462,1462,1462,1462,1462,1462,1462,1462,1462,1462,1462,1462,1462,1462,1462,1462,1462,1462,1462,1462,1462,1462,1462,1462,1462,1462,1462,1462,1462,1462,1462,1462,1462,1462,1462,1462,1462,1462,1462,1462,1462,1462,1462,1462,1462,1462,1462,1462,1462,1462,1462,1462,1462,1462,1462,1462,1462,1462,1462,1462,1462,1462,1462,1462,1462,1462,1462,1462,1462,1462,1462,1462,1462,1462,1462,1462,1462,1462,1462,1462,1462,1462,1462,1462,1462,1462,1462,1462,1462,1462,1462,1462,1462,1462,1462,1462,1462,1462,1462,1462,1462,1462,1462,1462,1462,1462,1462,1462,1462,1462,1462,1462,1462,1462,1462,1462,1462,1462,1462,1462,1462,1462,1462,1462,1462,1462,1462,1462,1462,1462,1462,1462,1462,1462,1462,1462,1462,1462,1462,1462,1462,1462,1462,1462,1462,1462,1462,1462,1462,1462,1462,1462,1462,1462,1462,1462,1462,1462,1462,1462,1462,1462,1462,1462,1462,1462,1462,1462,1462,1462,1462,1462,1462,1462,1462,1462,1462,1462,1462,1462,1462,1462,1462,1462,1462,1462,1462,1462,1462,1462,1462,1462,1462,1462,1462,1462,1462,1462,1462,1462,1462,1462,1462,1462,1462,1462,1462,1462,1462,1462,1462,1462,1462,1462,1462,1462,1462,1462,1462,1462,1462,1462,1462,1462,1462,1462,1462,1462,1462,1462,1462,1462,1462,1462,1462,1462,1462,1462,1462,1462,1462,1462,1462,1462,1462,1462,1462,1462,1462,1462,1462,1462,1462,1462,1462,1462,1462,1462,1462,1462,1462,1462,1462,1462,1462,1462,1462,1462,1462,1462,1462,1462,1462,1462,1462,1462,1462,1462,1462,1462,1462,1462,1462,1462,1462,1462,1462,1462,1462,1462,1462,1462,1462,1462,1462,1462,1462,1462,1462,1462,1462,1462,1462,1462,1462,1462,1462,1462,1462,1462,1462,1462,1462,1462,1462,1462,1462,1462,1462,1462,1462,1462,1462,1462,1462,1462,1462,1462,1462,1462,1462,1462,1462,1462,1462,1462,1462,1462,1462,1462,1462,1462,1462,1462,1462,1462,1462,1462,1462,1462,1462,1462,1462,1462,1462,1462,1462,1462,1462,1462,1462,1462,1462,1462,1462,1462,1462,1462,1462,1462,1462,1462,1462,1462,1462,1462,1462,1462,1462,1462,1462,1462,1462,1462,1462,1462,1462,1462,1462,1462,1462,1462,1462,1462,1462,1462,1462,1462,1462,1462,1462,1462,1462,1462,1462,1462,1462,1462,1462,1462,1462,1462,1462,1462,1462,1462,1462,1462,1462,1462,1462,1462,1462,1462,1462,1462,1462,1462,1462,1462,1462,1462,1462,1462,1462,1462,1462,1462,1462,1462,1462,1462,1462,1462,1462,1462,1462,1462,1462,1462,1462,1462,1462,1462,1462,1462,1462,1462,1462,1462,1462,1462,1462,1462,1462,1462,1462,1462,1462,1462,1462,1462,1462,1462,1462,1462,1462,1462,1462,1462,1462,1462,1462,1462,1462,1462,1462,1462,1462,1462,1462,1462,1462,1462,1462,1462,1462,1462,1462,1462,1462,1462,1462,1462,1462,1462,1462,1462,1462,1462,1462,1462,1462,1462,1462,1462,1462,1462,1462,1462,1462,1462,1462,1462,1462,1462,1462,1462,1462,1462,1462,1462,1462,1462,1462,1462,1462,1462,1462,1462,1462,1462,1462,1462,1462,1462,1462,1462,1462,1462,1462,1462,1462,1462,1462,1462,1462,1462,1462,1462,1462,1462,1462,1462,1462,1462,1462,1462,1462,1462,1462,1462,1462,1462,1462,1462,1462,1462,1462,1462,1462,1462,1462,1462,1462,1462,1462,1462,1462,1462,1462,1462,1462,1462,1462,1462,1462,1462,1462,1462,1462,1462,1462,1462,1462,1462,1462,1462,1462,1462,1462,1462,1462,1462,1462,1462,1462,1462,1462,1462,1462,1462,1462,1462,1462,1462,1462,1462,1462,1462,1462,1462,1462,1462,1462,1462,1462,1462,1462,1462,1462,1462,1462,1462,1462,1462,1462,1462,1462,1462,1462,1462,1462,1462,1462,1462,1462,1462,1462,1462,1462,1462,1462,1462,1462,1462,1462,1462,1462,1462,1462,1462,1462,1462,1462,1462,1462,1462,1462,1462,1462,1462,1462,1462,1462,1462,1462,1462,1462,1462,1462,1462,1462,1462,1462,1462,1462,1462,1462,1462,1462,1462,1462,1462,1462,1462,1462,1462,1462,1462,1462,1462,1462,1462,1462,1462,1462,1462,1462,1462,1462,1462,1462,1462,1462,1462,1462,1462,1462,1462,1462,1462,1462,1462,1462,1462,1462,1462,1462,1462,1462,1462,1462,1462,1462,1462,1462,1462,1462,1462,1462,1462,1462,1462,1462,1462,1462,1462,1462,1462,1462,1462,1462,1462,1462,1462,1462,1462,1462,1462,1462,1462,1462,1462,1462,1462,1462,1462,1462,1462,1462,1462,1462,1462,1462,1462,1462,1462,1462,1462,1462,1462,1462,1462,1462,1462,1462,1462,1462,1462,1462,1462,1462,1462,1462,1462,1462,1462,1462,1462,1462,1462,1462,1462,1462,1462,1462,1462,1462,1462,1462,1462,1462,1462,1462,1462,1462,1462,1462,1462,1462,1462,1462,1462,1462,1462,1462,1462,1462,1462,1462,1462,1462,1462,1462,1462,1462,1462,1462,1462,1462,1462,1462,1462,1462,1462,1462,1462,1462,1462,1462,1462,1462,1462,1462,1462,1462,1462,1462,1462,1462,1462,1462,1462,1462,1462,1462,1462,1462,1462,1462,1462,1462,1462,1462,1462,1462,1462,1462,1462,1462,1462,1462,1462,1462,1462,1462,1462,1462,1462,1462,1462,1462,1462,1462,1462,1462,1462,1462,1462,1462,1462,1462,1462,1462,1462,1462,1462,1462,1462,1462,1462,1462,1462,1462,1462,1462,1462,1462,1462,1462,1462,1462,1462,1462,1462,1462,1462,1462,1462,1462,1462,1462,1462,1462,1462,1462,1462,1462,1462,1462,1462,1462,1462,1462,1462,1462,1462,1462,1462,1462,1462,1462,1462,1462,1462,1462,1462,1462,1462,1462,1462,1462,1462,1462,1462,1462,1462,1462,1462,1462,1462,1462,1462,1462,1462,1462,1462,1462,1462,1462,1462,1462,1462,1462,1462,1462,1462,1462,1462,1462,1462,1462,1462,1462,1462,1462,1462,1462,1462,1462,1462,1462,1462,1462,1462,1462,1462,1462,1462,1462,1462,1462,1462,1462,1462,1462,1462,1462,1462,1462,1462,1462,1462,1462,1462,1462,1462,1462,1462,1462,1462,1462,1462,1462,1462,1462,1462,1462,1462,1462,1462,1462,1462,1462,1462,1462,1462,1462,1462,1462,1462,1462,1462,1462,1462,1462,1462,1462,1462,1462,1462,1462,1462,1462,1462,1462,1462,1462,1462,1462,1462,1462,1462,1462,1462,1462,1462,1462,1462,1462,1462,1462,1462,1462,1462,1462,1462,1462,1462,1462,1462,1462,1462,1462,1462,1462,1462,1462,1462,1462,1462,1462,1462,1462,1462,1462,1462,1462,1462,1462,1462,1462,1462,1462,1462,1462,1462,1462,1462,1462,1462,1462,1462,1462,1462,1462,1462,1462,1462,1462,1462,1462,1462,1462,1462,1462,1462,1462,1462,1462,1462,1462,1462,1462,1462,1462,1462,1462,1462,1462,1462,1462,1462,1462,1462,1462,1462,1462,1462,1462,1462,1462,1462,1462,1462,1462,1462,1462,1462,1462,1462,1462,1462,1462,1462,1462,1462,1462,1462,1462,1462,1462,1462,1462,1462,1462,1462,1462,1462,1462,1462,1462,1462,1462,1462,1462,1462,1462,1462,1462,1462,1462,1462,1462,1462,1462,1462,1462,1462,1462,1462,1462,1462,1462,1462,1462,1462,1462,1462,1462,1462,1462,1462,1462,1462,1462,1462,1462,1462,1462,1462,1462,1462,1462,1462,1462,1462,1462,1462,1462,1462,1462,1462,1462,1462,1462,1462,1462,1462,1462,1462,1462,1462,1462,1462,1462,1462,1462,1462,1462,1462,1462,1462,1462,1462,1462,1462,1462,1462,1462,1462,1462,1462,1462,1462,1462,1462,1462,1462,1462,1462,1462,1462,1462,1462,1462,1462,1462,1462,1462,1462,1462,1462,1462,1462,1462,1462,1462,1462,1462,1462,1462,1462,1462,1462,1462,1462,1462,1462,1462,1462,1462,1462,1462,1462,1462,1462,1462,1462,1462,1462,1462,1462,1462,1462,1462,1462,1462,1462,1462,1462,1462,1462,1462,1462,1462,1462,1462,1462,1462,1462,1462,1462,1462,1462,1462,1462,1462,1462,1462,1462,1462,1462,1462,1462,1462,1462,1462,1462,1462,1462,1462,1462,1462,1462,1462,1462,1462,1462,1462,1462,1462,1462,1462,1462,1462,1462,1462,1462,1462,1462,1462,926,908,885,819,763,749,728,694,644,591,590,590,595,614,669,685,701,709,711,719,762,779,791,798,814,817,819,820,820,820,820,818,818,818,818,818,818,818,818,818,818,817,816,816,815,813,813,810,806,801,795,795,795,795,795,795,795,795,795,795,795,795,795,795,795,795,795,794,793,779,771,770,770,770,770,770,770,770,770,770,770,772,773,774,775,775,776,776,776,776,776,776,776,776,776,776,776,776,776,775,774,774,772,772,772,769,767,765,765,765,765,765,765,765,765,765,765,765,765,765,765,765,765,765,765,765,765,765,765,765,765,765,765,765,765,765,765,765,765,765,765,765,765,765,765,765,765,765,765,765,765,765,765,765,765,765,765,765,765,765,765,765,765,765,765,765,765,765,765,765,765,765,765,765,765,765,765,765,765,769,790,804,814,814,814,814,814,814,814,814,815,810,785,717,686,676,676,676,676,676,676,676,676,676,676,676,676,676,676,676,676,676,676,676,676,676,676,675,678,686,697,703,703,703,703,704,704,704,704,717,734,751,763,766,766,767,768,770,771,771,773,774,774,776,776,776,776,776,776,776,776,776,776,776,776,776,776,776,776,776,776,776,776,776,776,776,776,776,776,776,775,775,775,774,773,772,771,771,771,771,770,770,770,770,770,770,770,770,770,770,770,770,770,770,770,770,770,770,770,770,770,770,770,770,771,800,813,822,824,824,824,824,823,823,823,823,823,825,825,820,810,811,814,824,838,845,845,845,845,845,845,845,845,845,845,845,837,829,820,812,806,806,806,806,806,806,806,806,806,806,806,806,806,806,806,806,805,805,805,805,805,804,801,796,783,760,756,756,756,756,756,756,756,756,756,756,756,757,757,757,757,757,757,757,757,757,757,757,757,757,757,756,752,752,752,752,752,752,752,752,752,752,752,752,752,752,752,752,752,752,752,752,752,752,752,752,762,780,798,804,805,809,821,829,831,833,833,833,833,833,831,827,823,820,817,808,800,792,785,782,780,780,780,779,779,778,778,778,778,778,778,778,778,778,778,778,778,778,778,778,778,778,778,778,778,778,797,810,849,925,1291,1456,1566,1566,1566,1566,1566,1566,1566,1566,1566,1566,1566,1566,1566,1566,1566,1566,1566,1566,1566,1566,1566,1566,1566,1566,1566,1566,1566,1566,1566,1566,1566,1566,1566,1566,1566,1566,1566,1566,1566,1566,1566,1566,1566,1566,1566,1566,1566,1566,1566,1566,1566,1566,1566,1566,1566,1566,1566,1566,1566,1566,1566,1566,1566,1566,1566,1566,1566,1566,1566,1566,1566,1566,1566,1566,1566,1566,1566,1566,1566,1566,1566,1566,1566,1566,1566,1566,1566,1566,1566,1566,1566,1566,1566,1566,1566,1566,1566,1566,1566,1566,1566,1566,1566,1566,1566,1566,1566,1566,1566,1566,1566,1566,1566,1566,1566,1566,1566,1566,1566,1566,1566,1566,1566,1566,1566,1566,1566,1566,1566,1566,1566,1566,1566,1566,1566,1566,1566,1566,1566,1566,1566,1566,1566,1566,1566,1566,1566,1566,1566,1566,1566,1566,1566,1566,1566,1566,1566,1566,1566,1566,1566,1566,1566,1566,1566,1566,1566,1566,1566,1566,1566,1566,1566,1566,1566,1566,1566,1566,1566,1566,1566,1566,1566,1566,1566,1566,1566,1566,1566,1566,1566,1566,1566,1566,1566,1566,1566,1566,1566,1566,1566,1566,1566,1566,1566,1566,1566,1566,1566,1566,1566,1566,1566,1566,1566,1566,1566,1566,1566,1566,1566,1566,1566,1566,1566,1566,1566,1566,1566,1566,1566,1566,1566,1566,1566,1566,1566,1566,1566,1566,1566,1566,1566,1566,1566,1566,1566,1566,1566,1566,1566,1566,1566,1566,1566,1566,1566,1566,1566,1566,1566,1566,1566,1566,1566,1566,1566,1566,1566,1566,1566,1566,1566,1566,1566,1566,1566,1566,1566,1566,1566,1566,1566,1566,1566,1566,1566,1566,1566,1566,1566,1566,1566,1566,1566,1566,1566,1566,1566,1566,1566,1566,1566,1566,1566,1566,1566,1566,1566,1566,1566,1566,1566,1566,1566,1566,1566,1566,1566,1566,1566,1566,1566,1566,1566,1566,1566,1566,1566,1566,1566,1566,1566,1566,1566,1566,1566,1566,1566,1566,1566,1566,1566,1566,1566,1566,1566,1566,1566,1566,1566,1566,1566,1566,1566,1566,1566,1566,1566,1566,1566,1566,1566,1566,1566,1566,1566,1566,1566,1566,1566,1566,1566,1566,1566,1566,1566,1566,1566,1566,1566,1566,1566,1566,1566,1566,1566,1566,1566,1566,1566,1566,1566,1566,1566,1566,1566,1566,1566,1566,1566,1566,1566,1566,1566,1566,1566,1566,1566,1566,1566,1566,1566,1566,1566,1566,1566,1566,1566,1566,1566,1566,1566,1566,1566,1566,1566,1566,1566,1566,1566,1566,1566,1566,1566,1566,1566,1566,1566,1566,1566,1566,1566,1566,1566,1566,1566,1566,1566,1566,1566,1566,1566,1566,1566,1566,1566,1566,1566,1566,1566,1566,1566,1566,1566,1566,1566,1566,1566,1566,1566,1566,1566,1566,1566,1566,1566,1566,1566,1566,1566,1566,1566,1566,1566,1566,1566,1566,1566,1566,1566,1566,1566,1566,1566,1566,1566,1566,1566,1566,1566,1566,1566,1566,1566,1566,1566,1566,1566,1566,1566,1566,1566,1566,1566,1566,1566,1566,1566,1566,1566,1566,1566,1566,1566,1566,1566,1566,1566,1566,1566,1566,1566,1566,1566,1566,1566,1566,1566,1566,1566,1566,1566,1566,1566,1566,1566,1566,1566,1566,1566,1566,1566,1566,1566,1566,1566,1566,1566,1566,1566,1566,1566,1566,1566,1566,1566,1566,1566,1566,1566,1566,1566,1566,1566,1566,1566,1566,1566,1566,1566,1566,1566,1566,1566,1566,1566,1566,1566,1566,1566,1566,1566,1566,1566,1566,1566,1566,1566,1566,1566,1566,1566,1566,1566,1566,1566,1566,1566,1566,1566,1566,1566,1566,1566,1566,1566,1566,1566,1566,1566,1566,1566,1566,1566,1566,1566,1566,1566,1566,1566,1566,1566,1566,1566,1566,1566,1566,1566,1566,1566,1566,1566,1566,1566,1566,1566,1566,1566,1566,1566,1566,1566,1566,1566,1566,1566,1566,1566,1566,1566,1566,1566,1566,1566,1566,1566,1566,1566,1566,1566,1566,1566,1566,1566,1566,1566,1566,1566,1566,1566,1566,1566,1566,1566,1566,1566,1566,1566,1566,1566,1566,1566,1566,1566,1566,1566,1566,1566,1566,1566,1566,1566,1566,1566,1566,1566,1566,1566,1566,1566,1566,1566,1566,1566,1566,1566,1566,1566,1566,1566,1566,1566,1566,1566,1566,1566,1566,1566,1566,1566,1566,1566,1566,1566,1566,1566,1566,1566,1566,1566,1566,1566,1566,1566,1566,1566,1566,1566,1566,1566,1566,1566,1566,1566,1566,1566,1566,1566,1566,1566,1566,1566,1566,1566,1566,1566,1566,1566,1566,1566,1566,1566,1566,1566,1566,1566,1566,1566,1566,1566,1566,1566,1566,1566,1566,1566,1566,1566,1566,1566,1566,1566,1566,1566,1566,1566,1566,1566,1566,1566,1566,1566,1566,1566,1566,1566,1566,1566,1566,1566,1566,1566,1566,1566,1566,1566,1566,1566,1566,1566,1566,1566,1566,1566,1566,1566,1566,1566,1566,1566,1566,1566,1566,1566,1566,1566,1566,1566,1566,1566,1566,1566,1566,1566,1566,1566,1566,1566,1566,1566,1566,1566,1566,1566,1566,1566,1566,1566,1566,1566,1566,1566,1566,1566,1566,1566,1566,1566,1566,1566,1566,1566,1566,1566,1566,1566,1566,1566,1566,1566,1566,1566,1566,1566,1566,1566,1566,1566,1566,1566,1566,1566,1566,1566,1566,1566,1566,1566,1566,1566,1566,1566,1566,1566,1566,1566,1566,1566,1566,1566,1566,1566,1566,1566,1566,1566,1566,1566,1566,1566,1566,1566,1566,1566,1566,1566,1566,1566,1566,1566,1566,1566,1566,1566,1566,1566,1566,1566,1566,1566,1566,1566,1566,1566,1566,1566,1566,1566,1566,1566,1566,1566,1566,1566,1566,1566,1566,1566,1566,1566,1566,1566,1566,1566,1566,1566,1566,1566,1566,1566,1566,1566,1566,1566,1566,1566,1566,1566,1566,1566,1566,1566,1566,1566,1566,1566,1566,1566,1566,1566,1566,1566,1566,1566,1566,1566,1566,1566,1566,1566,1566,1566,1566,1566,1566,1566,1566,1566,1566,1566,1566,1566,1566,1566,1566,1566,1566,1566,1566,1566,1566,1566,1566,1566,1566,1566,1566,1566,1566,1566,1566,1566,1566,1566,1566,1566,1566,1566,1566,1566,1566,1566,1566,1566,1566,1566,1566,1566,1566,1566,1566,1566,1566,1566,1566,1566,1566,1574,1564,1548,1509,1503,1501,1500,1498,1471,1446,1395,1346,1341,1341,1341,1341,1344,1350,1384,1388,1388,1386,1376,1336,1299,1243,1195,1159,1120,1111,1110,1112,1114,1058,1005,946,895,864,840,831,831,759,730,660,619,591,570,549,521,519,519,518,503,450,430,424,423,423,423,423,423,423,423,423,423,423,423,424,427],"ymouse":[624,629,632,634,634,635,635,635,635,635,635,635,635,635,635,635,635,635,635,635,635,635,635,635,635,635,635,635,635,635,635,635,635,641,650,661,669,676,678,679,679,679,679,679,677,676,675,675,675,675,675,675,675,675,675,675,675,675,675,657,655,645,642,640,640,640,640,640,639,637,634,634,634,634,634,633,633,633,633,633,633,633,633,633,627,614,604,609,663,747,747,747,747,747,747,747,747,747,747,747,747,747,747,747,747,747,747,747,747,747,747,747,747,747,747,747,747,747,747,747,747,747,747,747,747,747,747,747,747,747,747,747,747,747,747,747,747,747,747,747,747,747,747,747,747,747,747,747,747,747,747,747,747,747,747,747,747,747,747,747,747,747,747,747,747,747,747,747,747,747,747,747,747,747,747,747,747,747,747,792,721,643,572,516,481,481,481,481,481,481,481,481,481,481,480,478,474,468,454,451,463,474,482,491,504,531,540,550,561,570,572,571,569,565,562,563,564,564,564,564,565,569,574,586,606,613,617,619,620,622,622,622,622,622,622,622,622,622,622,622,622,622,622,622,622,622,622,622,622,622,622,622,622,622,622,622,622,622,622,622,622,622,622,622,622,622,622,622,622,622,623,625,628,631,632,633,633,633,633,633,633,633,633,633,633,633,631,627,625,622,620,619,615,612,611,610,608,607,606,600,585,585,585,585,585,585,585,585,585,585,585,584,583,583,583,583,583,584,588,594,602,607,610,614,615,617,619,620,621,623,623,623,626,626,626,627,629,629,630,631,635,639,641,646,652,690,715,720,727,727,726,722,719,717,707,665,652,698,698,698,698,698,698,698,698,698,698,698,698,698,698,698,698,698,698,698,698,698,698,698,698,698,698,698,698,698,698,698,698,698,698,698,698,698,698,698,698,698,698,698,698,698,698,698,698,698,698,698,698,698,698,698,698,698,698,698,698,698,698,698,698,698,698,698,698,698,698,698,698,698,698,698,698,698,698,698,698,698,698,698,698,698,698,698,698,698,698,698,698,698,698,698,698,698,698,698,698,698,698,698,698,698,698,698,698,698,698,698,698,698,698,698,698,698,698,698,698,698,698,698,698,698,698,698,698,698,698,698,698,698,698,698,698,698,698,698,698,698,698,698,698,698,698,698,698,698,698,698,698,698,698,698,698,698,698,698,698,698,698,698,698,698,698,698,698,698,698,698,698,698,698,698,698,698,698,698,698,698,698,698,698,698,698,698,698,698,698,698,698,698,698,698,698,698,698,698,698,698,698,698,698,698,698,698,698,698,698,698,698,698,698,698,698,698,698,698,698,698,698,698,698,698,698,698,698,698,698,698,698,698,698,698,698,698,698,698,698,698,698,698,698,698,698,698,698,698,698,698,698,698,698,698,698,698,698,698,698,698,698,698,698,698,698,698,698,698,698,698,698,698,698,698,698,698,698,698,698,698,698,698,698,698,698,698,698,698,698,698,698,698,698,698,698,698,698,698,698,698,698,698,698,698,698,698,698,698,698,698,698,698,698,698,698,698,698,698,698,698,698,698,698,698,698,698,698,698,698,698,698,698,698,698,698,698,698,698,698,698,698,698,698,698,698,698,698,698,698,698,698,698,698,698,698,698,698,698,698,698,698,698,698,698,698,698,698,698,698,698,698,698,698,698,698,698,698,698,698,698,698,698,698,698,698,698,698,698,698,698,698,698,698,698,698,698,698,698,698,698,698,698,698,698,698,698,698,698,698,698,698,698,698,698,698,698,698,698,698,698,698,698,698,698,698,698,698,698,698,698,698,698,698,698,698,698,698,698,698,698,698,698,698,698,698,698,698,698,698,698,698,698,698,698,698,698,698,698,698,698,698,698,698,698,698,698,698,698,698,698,698,698,698,698,698,698,698,698,698,698,698,698,698,698,698,698,698,698,698,698,698,698,698,698,698,698,698,698,698,698,698,698,698,698,698,698,698,698,698,698,698,698,698,698,698,698,698,698,698,698,698,698,698,698,698,698,698,698,698,698,698,698,698,698,698,698,698,698,698,698,698,698,698,698,698,698,698,698,698,698,698,698,698,698,698,698,698,698,698,698,698,698,698,698,698,698,698,698,698,698,698,698,698,698,698,698,698,698,698,698,698,698,698,698,698,698,698,698,698,698,698,698,698,698,698,698,698,698,698,698,698,698,698,698,698,698,698,698,698,698,698,698,698,698,698,698,698,698,698,698,698,698,698,698,698,698,698,698,698,698,698,698,698,698,698,698,698,698,698,698,698,698,698,698,698,698,698,698,698,698,698,698,698,698,698,698,698,698,698,698,698,698,698,698,698,698,698,698,698,698,698,698,698,698,698,698,698,698,698,698,698,698,698,698,698,698,698,698,698,698,698,698,698,698,698,698,698,698,698,698,698,698,698,698,698,698,698,698,698,698,698,698,698,698,698,698,698,698,698,698,698,698,698,698,698,698,698,698,698,698,698,698,698,698,698,698,698,698,698,698,698,698,698,698,698,698,698,698,698,698,698,698,698,698,698,698,698,698,698,698,698,698,698,698,698,698,698,698,698,698,698,698,698,698,698,698,698,698,698,698,698,698,698,698,698,698,698,698,698,698,698,698,698,698,698,698,698,698,698,698,698,698,698,698,698,698,698,698,698,698,698,698,698,698,698,698,698,698,698,698,698,698,698,698,698,698,698,698,698,698,698,698,698,698,698,698,698,698,698,698,698,698,698,698,698,698,698,698,698,698,698,698,698,698,698,698,698,698,698,698,698,698,698,698,698,698,698,698,698,698,698,698,698,698,698,698,698,698,698,698,698,698,698,698,698,698,698,698,698,698,698,698,698,698,698,698,698,698,698,698,698,698,698,698,698,698,698,698,698,698,698,698,698,698,698,698,698,698,698,698,698,698,698,698,698,698,698,698,698,698,698,698,698,698,698,698,698,698,698,698,698,698,698,698,698,698,698,698,698,698,698,698,698,698,698,698,698,698,698,698,698,698,698,698,698,698,698,698,698,698,698,698,698,698,698,698,698,698,698,698,698,698,698,698,698,698,698,698,698,698,698,698,698,698,698,698,698,698,698,698,698,698,698,698,698,698,698,698,698,698,698,698,698,698,698,698,698,698,698,698,698,698,698,698,698,698,698,698,698,698,698,698,698,698,698,698,698,698,698,698,698,698,698,698,698,698,698,698,698,698,698,698,698,698,698,698,698,698,698,698,698,698,698,698,698,698,698,698,698,698,698,698,698,698,698,698,698,698,698,698,698,698,698,698,698,698,698,698,698,698,698,698,698,698,698,698,698,698,698,698,698,698,698,698,698,698,698,698,698,698,698,698,698,698,698,698,698,698,698,698,698,698,698,698,698,698,698,698,698,698,698,698,698,698,698,698,698,698,698,698,698,698,698,698,698,698,698,698,698,698,698,698,698,698,698,698,698,698,698,698,698,698,698,698,698,698,698,698,698,698,698,698,698,698,698,698,698,698,698,698,698,698,698,698,698,698,698,698,698,698,698,698,698,698,698,698,698,698,698,698,698,698,698,698,698,698,698,698,698,698,698,698,698,698,698,698,698,698,698,698,698,698,698,698,698,698,698,698,698,698,698,698,698,698,698,698,698,698,698,698,698,698,698,698,698,698,698,698,698,698,698,698,698,698,698,698,698,698,698,698,698,698,698,698,698,698,698,698,698,698,698,698,698,698,698,698,698,698,698,698,698,698,698,698,698,698,698,698,698,698,698,698,698,698,698,698,698,698,698,698,698,698,698,698,698,698,698,698,698,698,698,698,698,698,698,698,698,698,698,698,698,698,698,698,698,698,698,698,698,698,698,698,698,698,698,698,698,698,698,698,698,698,698,698,698,698,698,698,698,698,698,698,698,698,698,698,698,698,698,698,698,698,698,698,698,698,698,698,698,698,698,698,698,698,698,698,698,698,698,698,698,698,698,698,698,698,698,698,698,698,698,698,698,698,698,698,698,698,698,698,698,698,698,698,698,698,698,698,698,698,698,698,698,698,698,698,698,698,698,698,698,698,698,698,698,698,698,698,698,698,698,698,698,698,698,698,698,698,698,698,698,698,698,698,698,698,698,698,698,698,698,698,698,698,698,698,698,698,698,698,698,698,698,698,698,698,698,698,698,698,698,882,875,867,853,854,859,861,858,841,811,810,810,806,797,769,759,747,742,740,736,722,712,702,695,674,665,657,653,649,645,644,642,642,642,642,642,642,642,642,642,642,642,642,642,642,641,640,639,636,633,628,628,628,628,628,628,628,628,628,628,628,628,628,628,628,628,628,627,627,621,619,618,618,618,618,618,618,618,618,618,618,617,616,616,616,616,615,615,615,615,615,615,615,615,615,615,615,615,613,613,612,612,611,611,611,609,608,608,608,608,608,608,608,608,608,608,608,608,608,608,608,608,608,608,608,608,608,608,608,608,608,608,608,608,608,608,608,608,608,608,608,608,608,608,608,608,608,608,608,608,608,608,608,608,608,608,608,608,608,608,608,608,608,608,608,608,608,608,608,608,608,608,608,608,608,608,608,608,608,608,617,623,627,627,627,627,627,627,627,627,627,620,611,592,583,582,582,582,582,582,582,582,582,582,582,582,582,582,582,582,582,582,582,582,582,582,582,582,594,607,615,617,617,617,617,617,617,617,617,617,617,617,620,620,620,621,626,634,639,650,657,672,690,700,701,701,701,701,701,701,701,701,701,701,701,701,701,701,701,701,701,701,701,701,701,701,706,707,707,708,710,711,711,712,713,716,717,717,717,717,719,719,719,719,719,719,719,719,719,719,719,719,719,719,719,719,719,719,719,719,719,719,719,719,719,727,733,741,742,742,744,744,745,745,745,745,741,723,701,676,642,633,629,623,618,617,617,617,617,617,617,617,617,617,617,619,627,636,644,653,658,658,658,658,658,658,658,657,656,656,656,656,656,656,656,656,656,656,656,656,656,656,656,655,651,644,642,642,642,641,640,640,640,640,640,640,640,639,639,639,639,639,639,639,639,639,639,639,639,639,634,630,619,615,614,614,614,613,612,609,602,593,593,593,593,593,593,593,593,593,593,593,593,593,593,592,591,591,591,591,591,589,584,581,580,578,578,578,578,578,578,581,586,589,594,610,618,627,632,634,635,635,635,634,628,615,613,612,612,612,611,611,611,611,611,611,611,611,611,611,611,611,611,611,611,611,611,611,595,560,473,523,572,572,572,572,572,572,572,572,572,572,572,572,572,572,572,572,572,572,572,572,572,572,572,572,572,572,572,572,572,572,572,572,572,572,572,572,572,572,572,572,572,572,572,572,572,572,572,572,572,572,572,572,572,572,572,572,572,572,572,572,572,572,572,572,572,572,572,572,572,572,572,572,572,572,572,572,572,572,572,572,572,572,572,572,572,572,572,572,572,572,572,572,572,572,572,572,572,572,572,572,572,572,572,572,572,572,572,572,572,572,572,572,572,572,572,572,572,572,572,572,572,572,572,572,572,572,572,572,572,572,572,572,572,572,572,572,572,572,572,572,572,572,572,572,572,572,572,572,572,572,572,572,572,572,572,572,572,572,572,572,572,572,572,572,572,572,572,572,572,572,572,572,572,572,572,572,572,572,572,572,572,572,572,572,572,572,572,572,572,572,572,572,572,572,572,572,572,572,572,572,572,572,572,572,572,572,572,572,572,572,572,572,572,572,572,572,572,572,572,572,572,572,572,572,572,572,572,572,572,572,572,572,572,572,572,572,572,572,572,572,572,572,572,572,572,572,572,572,572,572,572,572,572,572,572,572,572,572,572,572,572,572,572,572,572,572,572,572,572,572,572,572,572,572,572,572,572,572,572,572,572,572,572,572,572,572,572,572,572,572,572,572,572,572,572,572,572,572,572,572,572,572,572,572,572,572,572,572,572,572,572,572,572,572,572,572,572,572,572,572,572,572,572,572,572,572,572,572,572,572,572,572,572,572,572,572,572,572,572,572,572,572,572,572,572,572,572,572,572,572,572,572,572,572,572,572,572,572,572,572,572,572,572,572,572,572,572,572,572,572,572,572,572,572,572,572,572,572,572,572,572,572,572,572,572,572,572,572,572,572,572,572,572,572,572,572,572,572,572,572,572,572,572,572,572,572,572,572,572,572,572,572,572,572,572,572,572,572,572,572,572,572,572,572,572,572,572,572,572,572,572,572,572,572,572,572,572,572,572,572,572,572,572,572,572,572,572,572,572,572,572,572,572,572,572,572,572,572,572,572,572,572,572,572,572,572,572,572,572,572,572,572,572,572,572,572,572,572,572,572,572,572,572,572,572,572,572,572,572,572,572,572,572,572,572,572,572,572,572,572,572,572,572,572,572,572,572,572,572,572,572,572,572,572,572,572,572,572,572,572,572,572,572,572,572,572,572,572,572,572,572,572,572,572,572,572,572,572,572,572,572,572,572,572,572,572,572,572,572,572,572,572,572,572,572,572,572,572,572,572,572,572,572,572,572,572,572,572,572,572,572,572,572,572,572,572,572,572,572,572,572,572,572,572,572,572,572,572,572,572,572,572,572,572,572,572,572,572,572,572,572,572,572,572,572,572,572,572,572,572,572,572,572,572,572,572,572,572,572,572,572,572,572,572,572,572,572,572,572,572,572,572,572,572,572,572,572,572,572,572,572,572,572,572,572,572,572,572,572,572,572,572,572,572,572,572,572,572,572,572,572,572,572,572,572,572,572,572,572,572,572,572,572,572,572,572,572,572,572,572,572,572,572,572,572,572,572,572,572,572,572,572,572,572,572,572,572,572,572,572,572,572,572,572,572,572,572,572,572,572,572,572,572,572,572,572,572,572,572,572,572,572,572,572,572,572,572,572,572,572,572,572,572,572,572,572,572,572,572,572,572,572,572,572,572,572,572,572,572,572,572,572,572,572,572,572,572,572,572,572,572,572,572,572,572,572,572,572,572,572,572,572,572,572,572,572,572,572,572,572,572,572,572,572,572,572,572,572,572,572,572,572,572,572,572,572,572,572,572,572,572,572,572,572,572,572,572,572,572,572,572,572,572,572,572,572,572,572,572,572,572,572,572,572,572,572,572,572,572,572,572,572,572,572,572,572,572,572,572,572,572,572,572,572,572,572,572,572,572,572,572,572,572,572,572,572,572,572,572,572,572,572,572,572,572,572,572,572,572,572,572,572,572,572,572,572,572,572,572,572,572,572,572,572,572,572,572,572,572,572,572,572,572,572,572,572,572,572,572,572,572,572,572,572,572,572,572,572,572,572,572,572,572,572,572,572,572,572,572,572,572,572,572,572,572,572,572,572,572,572,572,572,572,572,572,572,572,572,572,572,572,572,572,572,572,572,572,572,572,572,572,572,572,572,572,572,572,572,572,572,572,572,572,572,572,572,572,572,572,572,572,572,572,572,572,572,572,572,572,572,572,572,572,572,572,572,572,572,572,572,572,572,572,572,572,572,572,572,572,572,572,572,572,572,572,572,572,572,572,572,572,572,572,572,572,572,572,572,572,572,572,572,572,572,572,572,572,572,572,572,572,572,572,572,572,572,572,572,572,572,572,572,572,572,572,572,572,572,572,572,572,572,572,572,572,572,572,572,631,632,632,632,632,632,632,632,639,648,649,649,649,649,649,649,648,644,600,575,571,570,556,504,475,443,412,386,350,327,311,279,216,81,20,0,0,0,1,3,3,20,20,13,0,0,0,0,0,0,0,0,0,0,0,0,0,0,1,1,1,1,1,5,7,9,12,16,19],"timestamp_mouse":[4,24,43,78,83,102,124,143,163,183,203,222,244,264,283,302,324,343,364,384,404,424,443,464,483,503,524,544,563,583,603,624,643,662,683,702,724,743,764,783,804,823,844,863,882,903,924,943,964,983,1003,1023,1044,1063,1083,1103,1123,1144,1163,1183,1204,1223,1244,1264,1283,1304,1324,1344,1363,1383,1402,1423,1444,1464,1483,1504,1523,1544,1563,1583,1603,1624,1643,1663,1683,1702,1724,1742,1763,1784,1803,1824,1843,1863,1883,1903,1924,1944,1964,1983,2004,2024,2044,2064,2084,2103,2123,2144,2163,2184,2203,2223,2242,2263,2283,2302,2324,2343,2364,2383,2404,2423,2444,2464,2483,2504,2524,2542,2563,2584,2603,2624,2643,2663,2684,2704,2723,2743,2764,2783,2803,2823,2843,2863,2882,2903,2924,2944,2964,2984,3003,3024,3043,3063,3083,3103,3124,3144,3164,3184,3203,3223,3244,3263,3284,3303,3323,3344,3364,3383,3404,3424,3444,3463,3484,3504,3524,3544,3563,3585,3602,3624,3643,3663,3683,3703,3723,3742,3762,3784,3804,3824,3844,3864,3884,3903,3923,3943,3963,3983,4003,4023,4044,4063,4083,4103,4123,4144,4163,4183,4203,4223,4244,4264,4283,4304,4323,4344,4364,4383,4404,4423,4444,4463,4484,4503,4523,4543,4563,4584,4603,4623,4643,4664,4683,4704,4724,4744,4763,4783,4804,4822,4843,4864,4884,4902,4924,4944,4963,4983,5003,5024,5044,5063,5084,5103,5123,5144,5164,5184,5203,5223,5242,5263,5284,5304,5323,5343,5364,5383,5403,5422,5443,5463,5483,5504,5524,5543,5563,5584,5603,5624,5644,5664,5684,5703,5724,5743,5763,5782,5802,5822,5842,5863,5884,5902,5924,5943,5964,5983,6003,6024,6044,6064,6084,6103,6124,6144,6164,6184,6204,6222,6243,6263,6284,6303,6323,6343,6363,6383,6404,6423,6443,6463,6484,6503,6523,6542,6564,6584,6603,6622,6644,6663,6683,6702,6724,6743,6763,6783,6803,6822,6843,6863,6884,6903,6924,6943,6964,6983,7004,7023,7043,7063,7084,7103,7123,7143,7163,7183,7204,7223,7243,7263,7284,7304,7324,7343,7363,7384,7403,7422,7443,7463,7484,7503,7524,7544,7563,7584,7603,7623,7643,7664,7684,7703,7723,7744,7763,7783,7803,7823,7843,7863,7883,7904,7924,7944,7964,7984,8002,8024,8043,8063,8083,8104,8124,8143,8163,8183,8203,8224,8244,8262,8283,8304,8323,8343,8364,8382,8402,8424,8443,8463,8484,8504,8524,8544,8563,8583,8604,8623,8644,8663,8684,8703,8723,8743,8763,8783,8804,8824,8844,8863,8883,8904,8924,8943,8963,8983,9004,9024,9043,9064,9083,9104,9123,9144,9164,9184,9203,9223,9243,9264,9284,9303,9324,9344,9364,9384,9403,9424,9444,9463,9484,9504,9524,9544,9564,9584,9604,9623,9643,9663,9684,9704,9724,9743,9764,9783,9804,9824,9844,9863,9883,9904,9924,9943,9964,9984,10004,10024,10043,10064,10084,10103,10123,10144,10164,10184,10203,10224,10244,10263,10284,10304,10323,10343,10364,10384,10403,10424,10443,10464,10483,10502,10524,10543,10564,10584,10604,10624,10643,10663,10682,10703,10723,10743,10763,10783,10804,10823,10843,10863,10884,10903,10924,10943,10964,10982,11004,11023,11043,11063,11083,11104,11123,11143,11164,11184,11204,11223,11243,11264,11283,11302,11324,11344,11363,11384,11404,11423,11443,11464,11483,11503,11524,11543,11564,11583,11603,11624,11643,11664,11684,11703,11724,11743,11763,11784,11803,11824,11843,11863,11884,11904,11924,11943,11963,11983,12003,12023,12043,12064,12083,12104,12124,12144,12163,12183,12204,12223,12244,12264,12283,12303,12322,12344,12363,12383,12404,12423,12443,12463,12483,12503,12524,12543,12563,12583,12604,12623,12643,12664,12683,12704,12724,12744,12763,12784,12804,12824,12844,12863,12884,12903,12923,12943,12963,12984,13003,13022,13044,13064,13084,13104,13124,13143,13163,13182,13204,13223,13243,13264,13284,13304,13323,13344,13362,13384,13404,13423,13443,13463,13484,13503,13524,13544,13564,13583,13604,13623,13644,13664,13683,13704,13723,13744,13763,13783,13804,13823,13843,13863,13884,13903,13923,13944,13963,13984,14004,14023,14042,14064,14083,14104,14124,14143,14163,14183,14204,14223,14243,14263,14283,14303,14324,14343,14363,14384,14403,14423,14443,14463,14484,14503,14523,14543,14564,14583,14603,14624,14643,14663,14683,14704,14723,14743,14764,14782,14804,14823,14843,14864,14883,14904,14923,14943,14964,14984,15003,15024,15044,15063,15084,15102,15123,15143,15162,15184,15203,15224,15243,15264,15283,15304,15323,15344,15363,15384,15404,15423,15444,15462,15484,15504,15523,15544,15564,15584,15603,15623,15644,15663,15683,15704,15723,15743,15764,15783,15804,15823,15843,15864,15884,15903,15924,15944,15963,15983,16004,16023,16043,16062,16083,16103,16123,16143,16163,16183,16203,16224,16243,16264,16283,16303,16323,16344,16364,16384,16403,16423,16443,16463,16483,16503,16524,16544,16563,16583,16604,16623,16644,16663,16683,16704,16723,16743,16763,16782,16803,16823,16843,16863,16884,16903,16923,16944,16963,16983,17004,17023,17043,17064,17084,17104,17124,17144,17163,17184,17203,17224,17243,17263,17283,17304,17323,17342,17364,17384,17404,17423,17443,17463,17482,17504,17524,17543,17564,17583,17603,17623,17644,17663,17683,17703,17723,17744,17764,17783,17803,17823,17843,17864,17883,17904,17923,17944,17963,17983,18004,18023,18043,18063,18084,18103,18123,18144,18164,18184,18203,18223,18244,18264,18284,18303,18323,18342,18364,18384,18403,18423,18444,18463,18484,18504,18523,18543,18563,18583,18603,18623,18644,18664,18683,18703,18723,18743,18764,18784,18803,18823,18843,18863,18882,18903,18923,18943,18964,18984,19003,19023,19044,19064,19084,19104,19123,19143,19178,19182,19204,19223,19243,19263,19284,19304,19323,19343,19363,19383,19403,19424,19443,19463,19483,19504,19523,19543,19563,19583,19604,19623,19644,19662,19683,19704,19723,19744,19764,19783,19804,19823,19844,19864,19884,19904,19924,19943,19964,19983,20003,20024,20043,20063,20084,20104,20124,20144,20163,20184,20203,20223,20243,20264,20284,20304,20323,20343,20363,20384,20404,20423,20443,20462,20482,20504,20524,20544,20564,20584,20603,20624,20643,20664,20684,20703,20724,20744,20763,20783,20802,20824,20843,20864,20884,20903,20923,20944,20964,20983,21003,21024,21043,21063,21084,21103,21124,21144,21163,21184,21204,21224,21244,21263,21284,21303,21323,21343,21363,21383,21404,21423,21443,21463,21484,21503,21524,21542,21563,21584,21604,21624,21643,21663,21684,21704,21724,21743,21763,21784,21804,21822,21843,21864,21884,21903,21923,21943,21963,21983,22003,22023,22044,22063,22083,22104,22123,22143,22163,22184,22203,22224,22242,22263,22284,22303,22324,22342,22364,22384,22404,22424,22444,22464,22484,22504,22523,22544,22564,22583,22603,22623,22643,22663,22683,22704,22722,22744,22763,22784,22804,22823,22844,22864,22884,22903,22923,22944,22963,22984,23004,23024,23043,23062,23084,23104,23124,23144,23164,23184,23203,23223,23244,23264,23284,23303,23323,23344,23363,23383,23403,23423,23444,23464,23483,23503,23524,23543,23563,23584,23604,23624,23643,23663,23684,23703,23724,23743,23763,23782,23804,23824,23844,23863,23883,23903,23924,23944,23964,23983,24004,24023,24044,24064,24084,24104,24124,24143,24164,24183,24203,24224,24244,24264,24284,24304,24324,24343,24364,24383,24404,24424,24444,24464,24483,24503,24523,24544,24564,24583,24604,24624,24643,24664,24683,24704,24722,24743,24763,24784,24803,24824,24843,24863,24883,24903,24922,24944,24964,24983,25004,25024,25043,25063,25084,25104,25124,25143,25163,25183,25203,25223,25243,25263,25284,25303,25324,25342,25364,25384,25403,25423,25444,25463,25484,25504,25524,25544,25564,25584,25603,25624,25643,25662,25683,25704,25724,25744,25763,25783,25803,25824,25844,25864,25883,25903,25924,25944,25963,25983,26003,26023,26043,26063,26084,26104,26124,26144,26164,26184,26203,26223,26243,26262,26284,26303,26324,26344,26363,26384,26403,26423,26443,26464,26483,26504,26524,26543,26563,26584,26604,26624,26644,26664,26684,26703,26724,26743,26763,26784,26804,26824,26844,26864,26883,26903,26924,26943,26963,26984,27003,27024,27043,27064,27084,27104,27124,27143,27163,27184,27204,27223,27244,27264,27284,27304,27323,27344,27364,27383,27402,27424,27443,27464,27483,27504,27524,27543,27564,27584,27604,27622,27643,27663,27684,27704,27724,27742,27764,27783,27803,27823,27843,27864,27883,27904,27924,27944,27963,27983,28003,28024,28044,28064,28084,28104,28124,28143,28164,28184,28203,28224,28243,28263,28284,28303,28324,28344,28364,28384,28404,28424,28443,28463,28484,28503,28524,28543,28563,28583,28603,28624,28643,28663,28684,28704,28724,28743,28764,28784,28804,28823,28844,28864,28883,28903,28923,28944,28964,28984,29004,29024,29043,29063,29084,29104,29124,29143,29163,29184,29203,29223,29243,29264,29284,29304,29323,29343,29363,29383,29403,29423,29443,29464,29484,29504,29523,29544,29564,29583,29604,29624,29643,29663,29683,29703,29723,29744,29764,29784,29804,29824,29843,29863,29883,29903,29923,29943,29963,29983,30003,30024,30043,30063,30083,30103,30124,30144,30163,30183,30203,30224,30243,30264,30283,30304,30323,30344,30363,30383,30404,30424,30444,30463,30484,30503,30522,30543,30563,30584,30604,30623,30644,30663,30683,30704,30724,30744,30764,30784,30804,30824,30844,30864,30883,30903,30924,30944,30963,30983,31003,31024,31044,31063,31083,31104,31124,31144,31163,31184,31203,31224,31243,31263,31284,31304,31324,31344,31363,31383,31404,31423,31444,31464,31484,31504,31524,31544,31564,31582,31604,31624,31644,31664,31684,31703,31723,31744,31764,31783,31804,31824,31844,31863,31883,31904,31924,31944,31963,31983,32002,32024,32043,32064,32084,32104,32124,32143,32163,32184,32204,32224,32244,32264,32284,32304,32324,32343,32363,32383,32403,32423,32443,32463,32483,32503,32523,32543,32564,32584,32603,32624,32643,32664,32684,32704,32724,32743,32764,32784,32803,32824,32843,32864,32884,32903,32923,32944,32963,32983,33003,33024,33043,33064,33084,33104,33124,33143,33163,33183,33204,33224,33243,33264,33284,33303,33324,33344,33364,33383,33403,33423,33444,33464,33484,33504,33523,33544,33563,33583,33604,33623,33644,33663,33683,33703,33723,33743,33763,33782,33804,33824,33844,33864,33884,33903,33923,33943,33963,33983,34003,34024,34043,34064,34084,34104,34124,34144,34164,34183,34203,34223,34243,34263,34284,34304,34324,34343,34364,34384,34404,34423,34444,34463,34483,34504,34524,34544,34564,34583,34603,34623,34643,34664,34684,34704,34724,34744,34764,34783,34803,34824,34843,34863,34883,34904,34924,34944,34964,34984,35004,35023,35043,35063,35084,35103,35124,35143,35164,35184,35204,35224,35244,35264,35284,35304,35324,35344,35364,35383,35404,35423,35444,35463,35483,35504,35523,35544,35563,35584,35603,35624,35644,35663,35683,35704,35723,35742,35764,35784,35803,35824,35844,35862,35883,35903,35923,35944,35964,35984,36004,36024,36044,36064,36082,36104,36124,36144,36164,36184,36203,36224,36243,36263,36284,36303,36324,36344,36364,36384,36404,36424,36443,36463,36484,36503,36523,36542,36564,36583,36603,36623,36643,36663,36683,36703,36724,36743,36763,36784,36804,36823,36843,36863,36883,36903,36924,36943,36963,36983,37004,37023,37043,37063,37082,37103,37124,37143,37163,37182,37203,37224,37244,37263,37284,37304,37324,37343,37363,37382,37404,37424,37443,37463,37484,37502,37524,37543,37563,37584,37604,37624,37643,37664,37684,37704,37724,37744,37763,37783,37804,37823,37844,37863,37884,37903,37924,37943,37964,37983,38003,38023,38044,38063,38084,38104,38123,38143,38163,38182,38203,38222,38243,38264,38284,38304,38323,38344,38364,38384,38404,38423,38444,38464,38483,38504,38524,38542,38563,38584,38603,38624,38644,38663,38684,38703,38724,38743,38764,38783,38804,38824,38844,38864,38884,38904,38923,38944,38964,38984,39004,39024,39043,39064,39084,39103,39124,39143,39164,39184,39202,39224,39243,39263,39284,39303,39323,39343,39364,39383,39404,39422,39443,39463,39483,39504,39524,39543,39564,39583,39604,39624,39643,39664,39684,39703,39723,39742,39763,39784,39803,39824,39844,39862,39883,39904,39924,39942,39963,39984,40004,40023,40043,40063,40083,40104,40123,40143,40163,40183,40203,40223,40243,40264,40284,40303,40322,40343,40364,40383,40403,40423,40443,40463,40484,40503,40523,40544,40563,40583,40603,40623,40643,40663,40683,40703,40723,40744,40764,40783,40804,40823,40843,40863,40883,40903,40923,40944,40964,40984,41003,41023,41043,41064,41084,41103,41123,41143,41164,41183,41204,41223,41244,41264,41283,41303,41323,41344,41364,41383,41403,41423,41443,41462,41484,41503,41523,41543,41564,41583,41604,41624,41644,41663,41683,41704,41724,41744,41764,41784,41804,41824,41843,41864,41883,41903,41923,41943,41964,41982,42004,42023,42044,42063,42084,42104,42124,42144,42164,42183,42203,42223,42243,42264,42284,42304,42323,42343,42364,42384,42403,42424,42444,42464,42484,42504,42524,42544,42563,42584,42604,42623,42643,42664,42682,42704,42723,42743,42763,42783,42804,42823,42843,42864,42883,42904,42923,42943,42964,42982,43004,43023,43043,43063,43084,43104,43123,43143,43164,43184,43203,43224,43244,43262,43283,43303,43323,43343,43364,43383,43403,43422,43444,43464,43483,43504,43524,43542,43564,43583,43604,43624,43643,43664,43684,43703,43724,43743,43764,43784,43803,43823,43844,43863,43883,43904,43924,43942,43963,43983,44003,44022,44042,44064,44083,44104,44123,44144,44164,44183,44203,44223,44243,44264,44283,44304,44324,44344,44363,44384,44404,44423,44443,44463,44483,44504,44523,44543,44563,44583,44604,44624,44643,44664,44683,44703,44724,44743,44764,44783,44803,44824,44844,44864,44883,44902,44924,44943,44963,44983,45003,45022,45043,45063,45082,45104,45123,45143,45162,45183,45204,45223,45243,45263,45283,45302,45323,45343,45364,45383,45404,45424,45443,45463,45483,45503,45524,45544,45564,45583,45604,45623,45643,45663,45683,45703,45722,45742,45764,45783,45804,45823,45844,45863,45883,45903,45923,45943,45963,45983,46004,46023,46043,46063,46083,46103,46122,46144,46163,46183,46204,46223,46242,46262,46283,46303,46324,46344,46364,46384,46403,46423,46443,46464,46483,46504,46523,46543,46563,46584,46602,46624,46644,46664,46684,46704,46723,46744,46764,46783,46804,46824,46844,46864,46884,46904,46924,46944,46964,46983,47003,47023,47044,47064,47083,47103,47123,47143,47163,47184,47204,47224,47244,47264,47284,47304,47324,47342,47364,47384,47404,47424,47443,47464,47483,47503,47523,47544,47563,47584,47603,47623,47643,47663,47684,47704,47723,47744,47763,47783,47803,47823,47844,47864,47884,47904,47923,47944,47963,47984,48003,48022,48043,48063,48083,48103,48124,48143,48164,48184,48203,48223,48244,48264,48283,48304,48323,48344,48364,48384,48403,48424,48444,48463,48483,48504,48523,48543,48564,48583,48603,48623,48643,48663,48683,48704,48723,48744,48764,48784,48803,48823,48843,48863,48883,48905,48924,48945,48964,48983,49004,49024,49044,49064,49084,49103,49124,49143,49163,49185,49203,49225,49244,49264,49284,49303,49324,49344,49364,49384,49404,49425,49444,49464,49484,49503,49524,49544,49565,49585,49604,49623,49644,49664,49684,49704,49725,49744,49764,49784,49804,49824,49844,49864,49884,49904,49925,49944,49964,49985,50004,50023,50043,50065,50084,50104,50125,50145,50163,50184,50203,50223,50244,50264,50285,50304,50324,50344,50365,50383,50404,50423,50444,50464,50484,50504,50524,50544,50564,50584,50604,50623,50644,50663,50684,50704,50724,50744,50764,50783,50804,50823,50845,50864,50884,50904,50924,50944,50963,50984,51004,51024,51044,51063,51084,51104,51124,51144,51165,51184,51204,51225,51244,51263,51283,51305,51325,51344,51365,51384,51404,51424,51443,51464,51483,51505,51525,51545,51564,51584,51604,51624,51643,51664,51684,51703,51724,51744,51764,51784,51804,51825,51845,51864,51884,51904,51923,51944,51964,51984,52004,52025,52044,52064,52083,52104,52124,52144,52164,52184,52204,52225,52244,52264,52284,52305,52324,52344,52364,52383,52404,52424,52444,52464,52484,52504,52525,52543,52564,52583,52604,52625,52643,52664,52684,52705,52724,52745,52764,52784,52803,52824,52843,52863,52883,52904,52924,52945,52965,52984,53005,53023,53043,53064,53083,53104,53124,53144,53164,53183,53204,53224,53244,53264,53284,53304,53324,53344,53364,53385,53405,53425,53444,53464,53484,53503,53524,53544,53564,53583,53604,53624,53643,53664,53684,53704,53725,53745,53765,53783,53803,53823,53844,53864,53884,53904,53925,53944,53963,53984,54004,54024,54044,54065,54084,54104,54123,54144,54164,54184,54204,54224,54245,54264,54284,54303,54324,54343,54365,54384,54404,54424,54444,54464,54483,54503,54523,54544,54565,54585,54604,54624,54643,54664,54685,54703,54725,54745,54765,54784,54804,54824,54844,54864,54884,54903,54925,54944,54965,54983,55004,55024,55043,55065,55085,55104,55124,55144,55164,55184,55204,55223,55244,55263,55284,55304,55325,55345,55364,55384,55404,55424,55443,55465,55485,55503,55524,55544,55564,55585,55605,55624,55643,55664,55684,55703,55725,55745,55764,55784,55804,55823,55843,55864,55884,55904,55925,55945,55965,55984,56004,56023,56043,56063,56084,56104,56124,56143,56163,56184,56204,56223,56245,56265,56283,56304,56323,56344,56364,56384,56404,56424,56444,56464,56484,56504,56524,56544,56564,56585,56604,56624,56643,56664,56684,56703,56724,56744,56764,56784,56804,56824,56843,56864,56884,56904,56923,56945,56964,56984,57004,57024,57044,57065,57084,57104,57124,57143,57165,57185,57204,57224,57243,57264,57284,57303,57323,57345,57364,57383,57404,57423,57443,57463,57484,57504,57524,57544,57564,57583,57605,57623,57645,57664,57684,57704,57724,57744,57764,57784,57804,57824,57843,57864,57883,57905,57923,57943,57964,57984,58004,58024,58044,58065,58084,58105,58123,58143,58163,58184,58205,58225,58245,58264,58284,58304,58324,58343,58364,58385,58404,58424,58443,58464,58483,58503,58525,58545,58564,58584,58605,58624,58643,58664,58683,58704,58724,58743,58764,58783,58803,58824,58844,58865,58885,58904,58924,58943,58963,58985,59003,59023,59044,59064,59083,59105,59123,59144,59164,59183,59203,59224,59244,59264,59284,59303,59324,59343,59364,59385,59405,59424,59444,59464,59484,59505,59524,59544,59564,59584,59604,59624,59644,59665,59685,59705,59724,59744,59763,59784,59804,59823,59844,59863,59884,59905,59924,59944,59964,59984,60004,60023,60044,60064,60085,60105,60124,60145,60164,60184,60204,60223,60244,60264,60285,60304,60324,60344,60364,60383,60404,60423,60444,60464,60484,60504,60524,60544,60563,60585,60604,60625,60644,60665,60683,60704,60723,60743,60764,60783,60804,60823,60845,60865,60884,60905,60923,60944,60964,60984,61004,61023,61044,61063,61083,61104,61124,61145,61164,61185,61204,61225,61244,61264,61283,61304,61324,61343,61363,61385,61404,61424,61444,61464,61483,61504,61525,61545,61565,61584,61604,61624,61643,61663,61684,61704,61725,61744,61764,61784,61804,61823,61843,61864,61884,61905,61925,61944,61965,61983,62004,62024,62044,62064,62085,62104,62124,62144,62164,62185,62204,62224,62244,62263,62284,62303,62323,62343,62363,62383,62405,62425,62445,62464,62484,62504,62524,62544,62564,62585,62605,62624,62645,62664,62684,62704,62723,62743,62763,62783,62803,62823,62844,62864,62884,62903,62923,62944,62965,62984,63004,63024,63044,63063,63084,63104,63124,63144,63165,63183,63203,63223,63245,63263,63284,63304,63324,63344,63365,63383,63403,63424,63443,63465,63484,63504,63524,63544,63563,63584,63605,63624,63644,63664,63684,63704,63723,63745,63764,63784,63804,63824,63843,63864,63885,63905,63924,63943,63964,63984,64004,64025,64044,64065,64084,64104,64123,64144,64164,64184,64204,64224,64244,64264,64284,64304,64323,64343,64364,64384,64405,64423,64444,64464,64484,64504,64523,64544,64563,64584,64605,64624,64644,64665,64684,64704,64725,64743,64765,64784,64803,64823,64844,64863,64884,64904,64924,64943,64964,64983,65004,65024,65044,65064,65085,65105,65124,65143,65164,65183,65204,65223,65243,65263,65284,65304,65324,65344,65364,65384,65403,65424,65443,65464,65484,65504,65524,65544,65564,65583,65604,65624,65643,65664,65683,65705,65725,65744,65765,65784,65804,65824,65843,65863,65884,65904,65925,65943,65964,65983,66004,66024,66045,66065,66085,66104,66124,66144,66164,66185,66205,66224,66244,66264,66284,66304,66324,66343,66364,66384,66405,66424,66444,66464,66484,66503,66523,66545,66565,66583,66603,66624,66643,66665,66684,66704,66724,66744,66763,66784,66804,66824,66843,66864,66884,66904,66925,66944,66964,66984,67003,67024,67043,67064,67083,67104,67124,67143,67164,67184,67203,67224,67244,67265,67284,67303,67324,67343,67364,67383,67404,67424,67443,67464,67483,67503,67523,67543,67565,67583,67604,67625,67644,67664,67684,67704,67724,67743,67763,67783,67804,67824,67843,67864,67884,67904,67924,67944,67965,67984,68004,68023,68043,68063,68083,68103,68124,68145,68163,68183,68205,68223,68244,68264,68284,68303,68323,68344,68364,68383,68403,68423,68443,68463,68483,68504,68523,68543],"xSR":741.5,"ySR":573.95,"xT1":424.9,"yT1":0,"xT2":1058.1,"yT2":0,"toosoon":0,"cond_shown":"Congruent","ratio_trial":100,"L_num":4,"L_den":8,"R_num":6,"R_den":10,"correct_side":2,"subjID":"ginaisabelacamelorocha9","gender":"1","school":"4","age":"10"},{"start_time":1552068822992,"click_time":1552068824407,"finger_time":1552068824068,"fix_duration":1181.1628932702017,"trial":2,"RT":1076,"MT":339,"sideResp":2,"stimulus":[],"xmouse":[786,786,786,786,786,786,786,786,786,786,786,786,786,786,786,786,786,786,786,786,786,786,786,786,786,786,786,786,786,786,786,786,786,786,786,786,786,786,786,786,786,786,786,786,786,786,786,786,786,786,786,786,792,853,995,1059,1109,1132,1144,1164,1172,1180,1192,1202,1214,1224,1224,1221,1210,1161,1146],"ymouse":[616,616,616,616,616,616,616,616,616,616,616,616,616,616,616,616,616,616,616,616,616,616,616,616,616,616,616,616,616,616,616,616,616,616,616,616,616,616,616,616,616,616,616,616,616,616,616,616,616,616,616,616,616,600,541,494,444,410,393,362,352,343,324,300,261,189,160,131,102,46,43],"timestamp_mouse":[16,51,56,76,95,117,136,155,177,196,216,237,256,276,295,316,335,357,377,396,417,436,456,476,496,516,536,555,576,596,616,636,656,675,695,716,736,757,775,795,817,835,855,875,895,917,935,957,975,995,1015,1037,1057,1076,1096,1116,1136,1155,1176,1196,1216,1235,1255,1275,1296,1315,1336,1356,1376,1396,1415],"xSR":741.5,"ySR":573.95,"xT1":424.9,"yT1":0,"xT2":1058.1,"yT2":0,"toosoon":0,"cond_shown":"Incongruent","ratio_trial":300,"L_num":13,"L_den":26,"R_num":12,"R_den":15,"correct_side":2,"subjID":"ginaisabelacamelorocha9","gender":"1","school":"4","age":"10"},{"start_time":1552068826019,"click_time":1552068827547,"finger_time":1552068826968,"fix_duration":250,"trial":3,"RT":949,"MT":579,"sideResp":2,"stimulus":[],"xmouse":[796,796,796,796,796,796,796,796,796,796,796,796,796,796,796,796,796,796,796,796,796,796,796,796,796,796,796,796,796,796,796,796,796,796,796,796,796,796,796,796,796,796,796,796,796,796,813,844,946,1108,1166,1229,1285,1320,1343,1346,1346,1346,1346,1333,1309,1284,1262,1244,1214,1204,1184,1170,1164,1163,1163,1163,1163,1163,1163,1160,1147],"ymouse":[601,601,601,601,601,601,601,601,601,601,601,601,601,601,601,601,601,601,601,601,601,601,601,601,601,601,601,601,601,601,601,601,601,601,601,601,601,601,601,601,601,601,601,601,601,601,594,579,519,394,324,240,146,52,0,0,0,0,0,0,0,0,0,1,8,11,17,23,26,26,26,26,26,26,26,28,36],"timestamp_mouse":[12,29,48,68,88,108,129,149,170,189,210,228,249,270,289,309,328,349,370,390,410,429,449,470,489,509,529,550,569,588,608,630,650,670,688,709,729,750,769,788,808,830,848,869,890,910,929,949,968,989,1008,1028,1048,1069,1088,1108,1128,1148,1168,1189,1208,1228,1248,1268,1289,1309,1328,1349,1368,1389,1409,1429,1449,1469,1488,1509,1528],"xSR":741.5,"ySR":573.95,"xT1":424.9,"yT1":0,"xT2":1058.1,"yT2":0,"toosoon":0,"cond_shown":"Congruent","ratio_trial":300,"L_num":18,"L_den":20,"R_num":9,"R_den":15,"correct_side":1,"subjID":"ginaisabelacamelorocha9","gender":"1","school":"4","age":"10"},{"start_time":1552068837095,"click_time":1552068838949,"finger_time":1552068838208,"fix_duration":687.7290027556667,"trial":4,"RT":1113,"MT":741,"sideResp":2,"stimulus":[],"xmouse":[791,791,791,791,791,791,791,791,791,791,791,791,791,791,791,791,791,791,791,791,791,791,791,791,791,791,791,791,791,791,791,791,791,791,791,791,791,791,791,791,791,791,791,791,791,791,791,791,791,791,791,791,791,791,791,782,742,725,710,688,673,655,644,635,623,608,511,460,439,433,433,433,433,433,433,447,514,596,672,752,844,1038,1128,1181,1210,1211,1212,1211,1205,1199,1192,1163,1141],"ymouse":[601,601,601,601,601,601,601,601,601,601,601,601,601,601,601,601,601,601,601,601,601,601,601,601,601,601,601,601,601,601,601,601,601,601,601,601,601,601,601,601,601,601,601,601,601,601,601,601,601,601,601,601,601,589,582,571,534,514,459,395,372,346,335,324,309,294,215,183,169,165,165,165,165,165,163,158,148,147,147,143,116,112,117,120,118,116,115,109,102,98,92,77,64],"timestamp_mouse":[12,33,57,72,93,112,133,153,173,194,213,234,253,273,293,313,333,353,373,393,413,433,454,473,493,512,534,554,573,593,614,634,654,673,693,713,733,753,774,793,814,832,852,873,894,914,932,952,973,994,1013,1032,1052,1073,1092,1113,1133,1154,1172,1193,1212,1233,1252,1273,1293,1314,1333,1353,1372,1392,1413,1432,1452,1472,1492,1512,1532,1553,1572,1594,1614,1632,1652,1673,1692,1712,1732,1753,1772,1793,1812,1832,1854],"xSR":741.5,"ySR":573.95,"xT1":424.9,"yT1":0,"xT2":1058.1,"yT2":0,"toosoon":0,"cond_shown":"Congruent","ratio_trial":200,"L_num":1,"L_den":2,"R_num":21,"R_den":30,"correct_side":2,"subjID":"ginaisabelacamelorocha9","gender":"1","school":"4","age":"10"},{"start_time":1552068841422,"click_time":1552068842188,"finger_time":1552068841928,"fix_duration":1393.724637424466,"trial":5,"RT":506,"MT":260,"sideResp":2,"stimulus":[],"xmouse":[776,776,776,776,776,776,776,776,776,776,776,776,776,776,776,776,776,777,777,777,777,777,778,779,789,877,957,1057,1132,1172,1178,1185,1187,1190,1191,1191,1185,1173,1157],"ymouse":[603,603,603,603,603,603,603,603,603,603,603,603,603,603,603,603,603,604,604,604,604,604,604,604,602,562,513,384,279,210,187,150,135,116,92,77,58,47,40],"timestamp_mouse":[10,37,45,67,87,106,125,146,166,185,205,227,246,266,286,306,325,346,366,386,405,426,446,465,485,506,527,546,566,586,605,627,646,666,686,706,725,745,766],"xSR":741.5,"ySR":573.95,"xT1":424.9,"yT1":0,"xT2":1058.1,"yT2":0,"toosoon":0,"cond_shown":"Incongruent","ratio_trial":200,"L_num":4,"L_den":30,"R_num":1,"R_den":3,"correct_side":2,"subjID":"ginaisabelacamelorocha9","gender":"1","school":"4","age":"10"},{"start_time":1552068845457,"click_time":1552068847129,"finger_time":1552068846948,"fix_duration":1427.747443662769,"trial":6,"RT":1491,"MT":181,"sideResp":2,"stimulus":[],"xmouse":[800,800,800,800,800,800,800,800,800,800,800,800,800,800,800,800,800,800,800,800,800,800,800,800,800,800,800,800,800,800,800,800,800,800,800,800,800,800,800,800,800,800,800,800,800,800,800,800,800,800,800,800,800,800,800,800,800,800,800,800,800,800,800,800,800,800,800,800,800,800,800,800,811,831,960,1022,1045,1075,1079,1086,1091,1096,1097,1097],"ymouse":[616,616,616,616,616,616,616,616,616,616,616,616,616,616,616,616,616,616,616,616,616,616,616,616,616,616,616,616,616,616,616,616,616,616,616,616,616,616,616,616,616,616,616,616,616,616,616,616,616,616,616,616,616,616,616,616,616,616,616,616,616,616,616,616,616,616,616,616,616,616,616,616,602,592,486,418,387,328,297,239,175,141,116,91],"timestamp_mouse":[10,42,51,70,91,111,132,152,171,191,210,230,250,271,291,310,330,350,370,392,411,431,451,472,491,511,531,550,570,591,611,632,650,671,691,711,731,751,771,790,810,832,852,870,892,911,931,950,972,990,1011,1030,1052,1072,1091,1111,1132,1151,1171,1192,1212,1232,1251,1270,1291,1310,1330,1351,1372,1390,1410,1432,1451,1470,1491,1512,1530,1550,1570,1590,1611,1632,1650,1672],"xSR":741.5,"ySR":573.95,"xT1":424.9,"yT1":0,"xT2":1058.1,"yT2":0,"toosoon":0,"cond_shown":"Incongruent","ratio_trial":100,"L_num":10,"L_den":25,"R_num":9,"R_den":18,"correct_side":2,"subjID":"ginaisabelacamelorocha9","gender":"1","school":"4","age":"10"},{"start_time":1552068848498,"click_time":1552068851008,"finger_time":1552068850867,"fix_duration":250,"trial":7,"RT":2369,"MT":141,"sideResp":2,"stimulus":[],"xmouse":[800,800,800,800,800,800,800,800,800,800,800,800,800,800,800,800,800,800,800,800,800,800,800,800,800,800,800,800,800,800,800,800,800,800,800,800,800,800,800,800,800,800,800,800,800,800,800,800,800,800,800,800,800,800,800,800,800,800,800,800,800,800,800,800,800,800,800,800,800,800,800,800,800,800,800,800,800,800,800,800,800,800,800,800,800,800,800,800,800,800,800,800,800,800,800,800,800,800,800,800,800,800,800,800,800,800,800,800,800,800,800,800,800,800,800,800,802,816,858,888,922,967,989,1054,1072,1084],"ymouse":[623,623,623,623,623,623,623,623,623,623,623,623,623,623,623,623,623,623,623,623,623,623,623,623,623,623,623,623,623,623,623,623,623,623,623,623,623,623,623,623,623,623,623,623,623,623,623,623,623,623,623,623,623,623,623,623,623,623,623,623,623,623,623,623,623,623,623,623,623,623,623,623,623,623,623,623,623,623,623,623,623,623,623,623,623,623,623,623,623,623,623,623,623,623,623,623,623,623,623,623,623,623,623,623,623,623,623,623,623,623,623,623,623,623,623,623,616,597,554,515,468,392,337,161,115,95],"timestamp_mouse":[10,46,50,70,89,109,130,150,171,191,210,229,249,269,289,311,329,349,369,390,410,429,450,470,489,510,529,549,570,591,610,630,650,670,689,710,730,750,770,790,809,829,850,870,890,910,931,950,969,990,1010,1030,1050,1070,1089,1110,1131,1150,1169,1190,1211,1231,1250,1271,1289,1310,1331,1350,1370,1390,1410,1431,1450,1470,1489,1510,1530,1550,1569,1590,1611,1631,1650,1670,1690,1710,1729,1749,1769,1791,1815,1830,1849,1871,1891,1909,1930,1950,1969,1989,2010,2029,2049,2070,2091,2111,2130,2150,2170,2189,2210,2230,2249,2271,2291,2310,2330,2350,2369,2389,2410,2435,2449,2469,2489,2509],"xSR":741.5,"ySR":573.95,"xT1":424.9,"yT1":0,"xT2":1058.1,"yT2":0,"toosoon":0,"cond_shown":"Congruent","ratio_trial":200,"L_num":15,"L_den":25,"R_num":4,"R_den":10,"correct_side":1,"subjID":"ginaisabelacamelorocha9","gender":"1","school":"4","age":"10"},{"start_time":1552068852940,"click_time":1552068854488,"finger_time":1552068854388,"fix_duration":251.19262640122574,"trial":8,"RT":1448,"MT":100,"sideResp":1,"stimulus":[],"xmouse":[792,792,792,792,792,792,792,793,793,793,793,793,793,793,793,793,793,793,793,793,793,793,793,793,793,793,793,793,793,793,793,793,793,793,793,793,793,793,793,793,793,793,793,793,793,793,793,793,793,793,793,793,793,793,793,793,793,793,793,793,793,793,793,793,793,793,793,793,793,793,794,798,799,799,779,737,547,497],"ymouse":[598,598,598,598,598,598,598,599,599,599,599,599,599,599,599,599,599,599,599,599,599,599,599,599,599,599,599,599,599,599,599,599,599,599,599,599,599,599,599,599,599,599,599,599,599,599,599,599,599,599,599,599,599,599,599,599,599,599,599,599,599,599,599,599,599,599,599,599,599,599,596,580,565,546,495,415,134,48],"timestamp_mouse":[10,28,56,68,87,108,128,148,168,187,209,228,249,267,287,307,329,349,369,387,408,428,448,468,488,507,527,548,567,589,608,628,649,667,688,708,728,747,768,787,808,827,849,869,888,908,928,947,967,988,1008,1027,1049,1067,1087,1108,1127,1149,1168,1188,1209,1229,1248,1267,1287,1308,1328,1348,1367,1388,1407,1428,1448,1468,1487,1507,1527,1548],"xSR":741.5,"ySR":573.95,"xT1":424.9,"yT1":0,"xT2":1058.1,"yT2":0,"toosoon":0,"cond_shown":"Incongruent","ratio_trial":100,"L_num":3,"L_den":6,"R_num":4,"R_den":10,"correct_side":1,"subjID":"ginaisabelacamelorocha9","gender":"1","school":"4","age":"10"},{"start_time":1552068856079,"click_time":1552068857808,"finger_time":1552068857668,"fix_duration":291.1817239255514,"trial":9,"RT":1589,"MT":140,"sideResp":2,"stimulus":[],"xmouse":[784,784,784,784,784,784,784,784,784,784,784,784,784,784,784,784,784,784,784,784,784,784,784,784,784,784,784,784,784,784,784,784,784,784,784,784,784,784,784,784,784,784,784,784,784,784,784,784,784,784,784,784,784,784,784,784,784,784,784,784,784,784,784,784,784,784,784,784,784,784,784,784,784,784,784,784,784,784,786,880,943,995,1038,1072,1097,1125,1139],"ymouse":[606,606,606,606,606,605,605,605,605,605,605,605,605,605,605,605,605,605,605,605,605,605,605,605,605,605,605,605,605,605,605,605,605,605,605,605,605,605,605,605,605,605,605,605,605,605,605,605,605,605,605,605,605,605,605,605,605,605,605,605,605,605,605,605,605,605,605,605,605,605,605,605,605,605,605,605,605,605,605,515,442,376,298,230,185,109,63],"timestamp_mouse":[14,30,49,69,89,109,128,149,170,190,209,229,248,270,288,308,330,350,369,388,408,430,449,470,488,509,529,549,570,590,608,630,648,670,689,708,728,748,768,788,808,830,850,868,888,908,930,948,968,988,1008,1029,1048,1069,1088,1108,1128,1148,1169,1189,1208,1229,1250,1269,1288,1309,1328,1350,1368,1388,1410,1428,1449,1470,1488,1509,1528,1548,1569,1589,1608,1629,1649,1668,1689,1709,1729],"xSR":741.5,"ySR":573.95,"xT1":424.9,"yT1":0,"xT2":1058.1,"yT2":0,"toosoon":0,"cond_shown":"Congruent","ratio_trial":300,"L_num":7,"L_den":14,"R_num":20,"R_den":25,"correct_side":2,"subjID":"ginaisabelacamelorocha9","gender":"1","school":"4","age":"10"},{"start_time":1552068859375,"click_time":1552068860947,"finger_time":1552068860468,"fix_duration":306.241962482471,"trial":10,"RT":1093,"MT":479,"sideResp":1,"stimulus":[],"xmouse":[815,815,815,815,815,815,815,815,815,815,815,815,815,815,815,815,815,815,815,815,815,815,815,815,815,815,815,815,815,815,815,815,815,815,815,815,815,815,815,815,815,815,815,815,815,815,815,815,815,815,815,815,812,799,689,628,585,561,548,543,540,537,533,528,517,515,514,513,513,513,513,513,513,513,508,504,502,502,502],"ymouse":[648,648,648,648,648,648,648,648,648,648,648,648,648,648,648,648,648,648,648,648,648,648,648,648,648,648,648,648,648,648,648,648,648,648,648,648,648,648,648,648,648,648,648,648,648,648,648,648,648,648,648,648,640,617,467,397,334,290,260,240,219,208,198,189,165,157,149,145,144,142,141,140,135,133,111,105,102,100,99],"timestamp_mouse":[13,42,52,73,93,112,132,152,174,193,212,233,254,274,293,313,333,353,373,393,412,432,453,473,492,513,532,554,572,593,614,633,652,673,693,713,732,752,772,792,813,832,853,872,892,913,933,952,973,992,1012,1033,1053,1074,1093,1112,1132,1153,1173,1193,1214,1233,1252,1272,1294,1311,1332,1353,1372,1392,1412,1432,1451,1473,1493,1511,1531,1553,1572],"xSR":741.5,"ySR":573.95,"xT1":424.9,"yT1":0,"xT2":1058.1,"yT2":0,"toosoon":0,"cond_shown":"Incongruent","ratio_trial":100,"L_num":9,"L_den":10,"R_num":20,"R_den":25,"correct_side":1,"subjID":"ginaisabelacamelorocha9","gender":"1","school":"4","age":"10"},{"start_time":1552068870539,"click_time":1552068872867,"finger_time":1552068872027,"fix_duration":250,"trial":11,"RT":1488,"MT":840,"sideResp":2,"stimulus":[],"xmouse":[797,796,793,789,787,787,787,787,787,787,787,787,787,787,787,787,787,787,787,787,787,787,787,787,787,787,787,787,787,787,787,787,787,787,787,787,787,787,787,787,786,786,786,786,786,786,786,786,786,786,786,786,786,786,786,786,786,786,786,786,786,786,786,786,786,786,786,786,786,786,786,786,786,789,813,835,849,859,869,880,893,898,901,913,924,937,949,959,963,963,963,964,964,967,972,976,981,987,1000,1007,1009,1010,1012,1013,1013,1013,1013,1013,1013,1020,1025,1034,1043,1046,1049,1056,1077],"ymouse":[643,642,641,639,638,638,638,638,638,638,638,638,638,638,638,638,638,638,638,638,638,638,638,638,638,638,638,638,638,638,638,638,638,638,638,638,638,638,638,638,638,638,638,638,638,638,638,638,638,638,638,638,638,638,638,638,638,638,638,638,638,638,638,638,638,638,638,638,638,638,638,638,638,602,515,444,388,363,330,293,236,158,87,0,0,0,0,0,0,0,0,0,0,1,2,4,5,7,11,11,11,11,11,11,11,11,11,11,11,11,11,13,17,18,20,24,34],"timestamp_mouse":[8,27,50,68,88,109,129,148,168,189,208,229,248,268,288,309,329,348,368,388,408,428,447,468,489,508,529,548,568,589,608,629,648,667,689,708,728,747,767,787,808,829,849,869,888,908,928,948,968,988,1008,1028,1047,1068,1088,1108,1128,1147,1168,1189,1207,1228,1249,1269,1288,1308,1328,1348,1369,1389,1408,1427,1449,1468,1488,1508,1529,1548,1567,1588,1607,1628,1649,1667,1687,1708,1728,1748,1769,1788,1809,1828,1848,1868,1888,1908,1928,1948,1968,1988,2008,2027,2048,2068,2088,2108,2129,2147,2167,2188,2208,2229,2248,2269,2287,2308,2328],"xSR":741.5,"ySR":573.95,"xT1":424.9,"yT1":0,"xT2":1058.1,"yT2":0,"toosoon":0,"cond_shown":"Congruent","ratio_trial":200,"L_num":8,"L_den":15,"R_num":2,"R_den":6,"correct_side":1,"subjID":"ginaisabelacamelorocha9","gender":"1","school":"4","age":"10"},{"start_time":1552068874823,"click_time":1552068876367,"finger_time":1552068876027,"fix_duration":513.4149196115372,"trial":12,"RT":1204,"MT":340,"sideResp":2,"stimulus":[],"xmouse":[812,812,812,812,812,812,812,812,812,812,812,812,812,812,812,812,812,812,812,812,812,812,812,812,812,812,812,812,812,812,812,812,812,812,812,812,812,812,812,812,812,812,812,812,812,812,812,812,812,812,812,812,812,812,812,812,812,812,812,827,838,853,865,885,907,916,926,935,942,955,961,967,970,981,1010,1028,1049,1066],"ymouse":[616,616,616,616,616,616,617,617,617,617,617,617,617,617,617,617,617,617,617,617,617,617,617,617,617,617,617,617,617,617,617,617,617,617,617,617,617,617,617,617,617,617,617,617,617,617,617,617,617,617,617,617,617,617,617,617,617,617,616,574,541,508,472,426,370,337,304,271,250,212,199,185,177,162,127,111,96,86],"timestamp_mouse":[9,23,43,64,83,104,124,145,165,185,205,225,244,263,284,303,324,345,364,383,403,425,445,463,483,505,524,544,565,583,603,625,644,664,683,703,724,744,765,784,805,824,844,865,884,904,923,944,965,984,1004,1024,1043,1065,1084,1105,1124,1145,1163,1183,1204,1224,1244,1265,1284,1304,1324,1345,1363,1384,1404,1424,1444,1463,1485,1503,1523,1544],"xSR":741.5,"ySR":573.95,"xT1":424.9,"yT1":0,"xT2":1058.1,"yT2":0,"toosoon":0,"cond_shown":"Congruent","ratio_trial":100,"L_num":1,"L_den":2,"R_num":18,"R_den":30,"correct_side":2,"subjID":"ginaisabelacamelorocha9","gender":"1","school":"4","age":"10"},{"start_time":1552068884837,"click_time":1552068886487,"finger_time":1552068885928,"fix_duration":888.601564003752,"trial":13,"RT":1091,"MT":559,"sideResp":2,"stimulus":[],"xmouse":[812,812,812,812,812,812,812,812,812,812,812,812,812,812,812,812,812,812,812,812,812,812,812,812,812,812,812,812,812,812,812,812,812,812,812,812,812,812,812,812,812,812,812,812,812,812,812,812,812,812,812,812,812,812,892,992,1107,1201,1269,1312,1314,1315,1315,1315,1315,1315,1315,1312,1304,1286,1236,1214,1201,1196,1194,1193,1192,1190,1185,1170,1166,1161,1158],"ymouse":[606,606,606,606,606,606,606,606,606,606,606,606,606,606,606,606,606,606,606,606,606,606,606,606,606,606,606,606,606,606,606,606,606,606,606,606,606,606,606,606,606,606,606,606,606,606,606,606,606,606,606,606,606,604,486,335,167,27,0,0,0,0,0,0,0,0,0,1,3,8,22,29,33,34,34,34,34,34,34,35,35,36,37],"timestamp_mouse":[11,34,50,70,90,109,130,149,169,190,210,229,250,271,289,310,329,350,370,389,410,431,449,471,490,510,531,549,570,589,609,631,650,669,691,710,729,749,771,790,810,831,850,871,890,911,930,950,971,991,1011,1031,1049,1069,1091,1110,1130,1150,1170,1192,1209,1230,1251,1271,1290,1310,1330,1351,1371,1390,1410,1429,1450,1470,1490,1509,1531,1550,1571,1591,1610,1630,1650],"xSR":741.5,"ySR":573.95,"xT1":424.9,"yT1":0,"xT2":1058.1,"yT2":0,"toosoon":0,"cond_shown":"Incongruent","ratio_trial":200,"L_num":9,"L_den":15,"R_num":8,"R_den":10,"correct_side":2,"subjID":"ginaisabelacamelorocha9","gender":"1","school":"4","age":"10"},{"start_time":1552068894565,"click_time":1552068895507,"finger_time":1552068895008,"fix_duration":418.52040672577704,"trial":14,"RT":443,"MT":499,"sideResp":2,"stimulus":[],"xmouse":[821,821,821,821,821,821,821,821,821,821,821,821,821,821,821,821,821,821,821,821,821,836,851,896,945,1054,1079,1089,1094,1097,1097,1097,1097,1097,1097,1096,1096,1096,1096,1096,1096,1096,1096,1096,1096,1096,1097,1098],"ymouse":[627,627,625,624,623,623,623,622,622,622,622,622,622,622,622,622,622,622,622,622,622,602,575,512,451,281,215,179,156,118,116,115,115,115,114,112,111,109,108,107,107,107,107,106,106,104,101,98],"timestamp_mouse":[12,22,42,61,83,103,123,142,162,183,203,223,242,262,281,303,323,343,362,382,403,421,443,462,481,502,522,542,562,583,602,622,641,662,681,702,723,741,762,783,802,822,841,861,882,902,922,942],"xSR":741.5,"ySR":573.95,"xT1":424.9,"yT1":0,"xT2":1058.1,"yT2":0,"toosoon":0,"cond_shown":"Incongruent","ratio_trial":300,"L_num":8,"L_den":10,"R_num":14,"R_den":28,"correct_side":1,"subjID":"ginaisabelacamelorocha9","gender":"1","school":"4","age":"10"},{"start_time":1552068899131,"click_time":1552068900927,"finger_time":1552068900586,"fix_duration":401.7693965712795,"trial":15,"RT":1455,"MT":341,"sideResp":1,"stimulus":[],"xmouse":[759,756,756,756,756,756,756,756,756,756,756,756,756,756,756,756,756,756,756,756,756,756,756,756,756,756,756,756,756,756,756,756,756,756,756,756,756,756,756,756,756,756,756,756,756,756,756,756,756,756,756,756,756,756,756,756,756,756,756,756,756,756,756,756,756,756,756,756,756,756,756,754,719,656,567,447,337,337,337,337,337,339,344,345,348,350,371,389,412,430],"ymouse":[639,644,644,644,644,644,644,644,644,644,644,644,644,644,644,644,644,644,644,644,644,644,644,644,644,644,644,644,644,644,644,644,644,644,644,644,644,644,644,644,644,644,644,644,644,644,644,644,644,644,644,644,644,644,644,644,644,644,644,644,644,644,644,644,644,644,644,644,644,644,644,638,557,475,378,236,135,134,134,132,130,126,118,116,113,110,96,86,77,71],"timestamp_mouse":[17,36,57,75,110,117,137,156,176,196,216,235,256,277,297,315,337,357,377,395,417,436,457,476,495,516,536,556,576,596,616,637,656,675,696,717,737,755,777,797,815,835,855,875,895,915,936,957,977,996,1016,1036,1057,1075,1096,1116,1136,1155,1176,1196,1216,1235,1255,1276,1296,1316,1337,1356,1375,1397,1416,1435,1455,1476,1495,1516,1536,1557,1576,1596,1615,1636,1655,1675,1695,1716,1736,1755,1776,1796],"xSR":741.5,"ySR":573.95,"xT1":424.9,"yT1":0,"xT2":1058.1,"yT2":0,"toosoon":0,"cond_shown":"Incongruent","ratio_trial":300,"L_num":4,"L_den":20,"R_num":2,"R_den":4,"correct_side":2,"subjID":"ginaisabelacamelorocha9","gender":"1","school":"4","age":"10"},{"start_time":1552068902914,"click_time":1552068904047,"finger_time":1552068903727,"fix_duration":686.7491259019084,"trial":16,"RT":813,"MT":320,"sideResp":1,"stimulus":[],"xmouse":[801,801,801,801,801,801,801,801,801,801,801,801,801,801,801,801,801,801,801,801,801,801,801,801,801,801,801,801,801,801,801,801,801,801,801,801,801,801,801,800,774,722,657,598,592,591,591,591,591,591,591,591,591,590,584,535,513],"ymouse":[618,618,618,618,618,618,618,618,618,618,618,618,618,618,618,618,618,618,618,618,618,618,618,618,618,618,618,618,618,618,618,618,618,618,618,618,618,618,618,576,508,387,234,75,43,26,25,24,24,24,24,24,24,23,23,31,32],"timestamp_mouse":[14,42,52,73,93,114,133,152,174,194,212,233,253,274,293,314,333,353,373,393,414,434,453,474,494,513,534,553,574,593,613,634,653,674,692,712,734,753,773,792,813,833,852,872,894,912,933,954,974,993,1014,1033,1054,1073,1092,1112,1132],"xSR":741.5,"ySR":573.95,"xT1":424.9,"yT1":0,"xT2":1058.1,"yT2":0,"toosoon":0,"cond_shown":"Congruent","ratio_trial":200,"L_num":5,"L_den":10,"R_num":14,"R_den":20,"correct_side":2,"subjID":"ginaisabelacamelorocha9","gender":"1","school":"4","age":"10"},{"start_time":1552068923060,"click_time":1552068925327,"finger_time":1552068924547,"fix_duration":250,"trial":17,"RT":1487,"MT":780,"sideResp":2,"stimulus":[],"xmouse":[797,797,797,797,797,797,797,797,797,797,796,796,796,796,796,796,796,796,796,796,796,796,796,796,796,796,796,796,796,796,796,796,796,796,796,796,796,796,796,796,796,796,796,796,796,796,796,796,796,796,796,796,796,796,796,796,796,796,796,796,796,796,796,796,796,796,796,796,796,796,796,796,796,796,821,838,887,922,935,912,897,889,888,891,895,896,898,902,920,924,933,948,968,1012,1030,1037,1039,1039,1039,1039,1039,1039,1039,1039,1039,1039,1039,1039,1039,1039,1040,1043,1055,1080],"ymouse":[607,607,607,607,607,607,607,607,607,607,607,607,607,607,607,607,607,607,607,607,607,607,607,607,607,607,607,607,607,607,607,607,607,607,607,607,607,607,607,607,607,607,607,607,607,607,607,607,607,607,607,607,607,607,607,607,607,607,607,607,607,607,607,607,607,607,607,607,607,607,607,607,607,607,558,529,443,350,174,69,15,0,0,0,0,0,0,0,0,0,0,0,0,0,0,2,3,3,3,3,3,3,3,3,3,3,3,3,3,3,3,5,10,19],"timestamp_mouse":[10,27,65,68,87,108,129,148,168,188,209,229,248,268,289,308,329,348,367,388,407,429,447,468,488,509,528,548,569,588,608,628,649,667,688,708,728,747,767,787,809,828,848,867,888,908,927,948,968,987,1008,1027,1048,1069,1088,1108,1129,1148,1169,1188,1208,1228,1248,1269,1288,1308,1328,1349,1367,1388,1408,1428,1448,1467,1487,1508,1528,1548,1567,1587,1608,1627,1648,1667,1688,1707,1728,1747,1769,1788,1807,1827,1848,1867,1887,1907,1928,1948,1968,1987,2008,2028,2048,2067,2088,2107,2128,2148,2169,2188,2207,2227,2247,2267],"xSR":741.5,"ySR":573.95,"xT1":424.9,"yT1":0,"xT2":1058.1,"yT2":0,"toosoon":0,"cond_shown":"Incongruent","ratio_trial":200,"L_num":7,"L_den":10,"R_num":8,"R_den":16,"correct_side":1,"subjID":"ginaisabelacamelorocha9","gender":"1","school":"4","age":"10"},{"start_time":1552068928212,"click_time":1552068929888,"finger_time":1552068929488,"fix_duration":1143.6837384921241,"trial":18,"RT":1276,"MT":400,"sideResp":1,"stimulus":[],"xmouse":[754,754,754,754,754,754,754,754,754,754,754,754,754,754,754,754,754,754,754,754,754,754,754,754,754,754,754,754,754,754,754,754,754,754,754,754,754,754,754,754,754,754,754,754,754,754,754,754,754,754,754,754,754,754,754,754,754,754,754,754,754,754,754,729,682,554,253,179,172,172,188,205,226,243,259,318,341,351,354,355,367,383,408,431],"ymouse":[597,597,597,597,597,597,597,597,597,597,597,597,597,597,597,597,597,597,597,597,597,597,597,597,597,597,597,597,597,597,597,597,597,597,597,597,597,597,597,597,597,597,597,597,597,597,597,597,597,597,597,597,597,597,597,597,597,597,597,597,597,597,597,563,516,427,296,260,247,228,181,157,130,110,97,68,60,57,56,55,55,55,55,54],"timestamp_mouse":[16,41,55,75,96,115,136,155,177,196,216,237,256,276,295,315,336,357,375,396,415,437,456,476,499,519,537,557,576,596,616,636,655,675,696,715,736,756,777,796,816,835,857,876,896,915,936,955,975,997,1016,1036,1055,1075,1095,1116,1135,1156,1176,1197,1215,1236,1256,1276,1295,1315,1335,1355,1375,1396,1416,1436,1455,1475,1495,1516,1535,1557,1575,1596,1616,1635,1655,1675],"xSR":741.5,"ySR":573.95,"xT1":424.9,"yT1":0,"xT2":1058.1,"yT2":0,"toosoon":0,"cond_shown":"Incongruent","ratio_trial":200,"L_num":7,"L_den":10,"R_num":12,"R_den":24,"correct_side":1,"subjID":"ginaisabelacamelorocha9","gender":"1","school":"4","age":"10"},{"start_time":1552068955804,"click_time":1552068957508,"finger_time":1552068957009,"fix_duration":1354.1932756137905,"trial":19,"RT":1205,"MT":499,"sideResp":1,"stimulus":[],"xmouse":[784,784,784,784,784,784,784,784,784,784,784,784,784,784,784,784,784,784,784,784,784,784,784,784,784,784,784,784,784,784,784,784,784,784,784,784,784,784,784,784,784,784,784,784,784,784,784,784,784,784,784,784,7