[{"start_time":1552069530652,"click_time":1552069531449,"finger_time":1552069530699,"fix_duration":1020.4137114884985,"trial":0,"RT":47,"MT":750,"sideResp":1,"stimulus":"img/250/equaldotanddens/L/5_Ratio_250_L_24_R_6.png","xmouse":[806,806,806,806,806,806,806,806,806,806,806,806,806,806,806,806,806,806,806,806,806,806,806,806,806,806,806,806,806,806,806,806,806,806,805,738,671,601,474],"ymouse":[554,554,554,554,554,554,554,554,554,554,554,554,554,554,554,554,554,554,554,554,554,554,554,554,554,554,554,554,554,554,554,554,554,554,554,512,427,298,45],"timestamp_mouse":[47,57,78,98,117,138,158,178,197,217,237,257,276,296,316,337,356,378,397,417,438,457,477,496,517,536,557,576,597,617,638,658,676,696,716,737,757,778,797],"xSR":741.5,"ySR":500.5,"xT1":424.9,"yT1":0,"xT2":1058.1,"yT2":0,"toosoon":0,"cond_shown":"equaldotanddens","ratio_trial":250,"smaller_num":"6","larger_num":"24","correct_side":1,"subjID":"GinaIsabelaCameloRocha9","gender":"1","age":"10","school":"4","test":{"fix_dur":[250,1500],"timestim":300,"targets_dim":[100,100],"targets_relative_coord":[0.3,0.7],"size_stim":[880,420],"start_dim":[100,100],"size_start":[300,300],"size_fix":60,"samplingrate":20,"img_types":["equaldotsize","equaldotanddens","randomdotsizeEA"],"ratios":[250,500,750,900],"rep_conds":9,"nTrials":120,"trials_to_rest":500,"Trials_order":[13,104,53,58,101,65,109,55,46,80,85,74,2,82,70,19,99,6,108,12,16,22,30,97,112,50,29,110,71,105,7,64,51,98,84,86,61,114,115,23,89,26,42,31,102,96,43,57,20,45,56,62,106,66,54,9,25,73,87,100,68,63,67,75,14,41,39,81,78,49,33,59,40,0,28,8,5,52,15,111,93,34,118,107,3,92,117,83,79,113,36,47,103,76,95,38,91,11,77,18,90,119,32,44,1,24,116,37,4,27,88,21,60,72,94,10,69,35,17,48],"cond_shown":["equaldotanddens","randomdotsizeEA","randomdotsizeEA","equaldotanddens","randomdotsizeEA","randomdotsizeEA","equaldotanddens","equaldotanddens","equaldotanddens","randomdotsizeEA","equaldotanddens","randomdotsizeEA","randomdotsizeEA","equaldotanddens","equaldotanddens","equaldotanddens","equaldotsize","equaldotsize","equaldotsize","equaldotsize","equaldotanddens","equaldotanddens","equaldotsize","equaldotanddens","equaldotanddens","randomdotsizeEA","randomdotsizeEA","randomdotsizeEA","randomdotsizeEA","equaldotsize","equaldotanddens","equaldotanddens","equaldotsize","randomdotsizeEA","equaldotsize","randomdotsizeEA","equaldotanddens","equaldotsize","equaldotanddens","randomdotsizeEA","randomdotsizeEA","randomdotsizeEA","equaldotsize","equaldotanddens","equaldotsize","equaldotsize","equaldotanddens","equaldotsize","randomdotsizeEA","equaldotsize","randomdotsizeEA","randomdotsizeEA","equaldotanddens","equaldotsize","equaldotsize","equaldotsize","equaldotanddens","equaldotanddens","equaldotsize","equaldotanddens","randomdotsizeEA","equaldotsize","equaldotanddens","equaldotsize","randomdotsizeEA","randomdotsizeEA","equaldotsize","equaldotsize","equaldotsize","equaldotanddens","equaldotsize","randomdotsizeEA","equaldotanddens","equaldotsize","equaldotanddens","randomdotsizeEA","randomdotsizeEA","equaldotanddens","equaldotsize","equaldotsize","equaldotsize","equaldotanddens","equaldotanddens","randomdotsizeEA","equaldotsize","randomdotsizeEA","equaldotsize","randomdotsizeEA","equaldotanddens","randomdotsizeEA","equaldotsize","randomdotsizeEA","equaldotanddens","equaldotanddens","randomdotsizeEA","randomdotsizeEA","equaldotanddens","randomdotsizeEA","randomdotsizeEA","equaldotsize","equaldotsize","randomdotsizeEA","randomdotsizeEA","randomdotsizeEA","equaldotanddens","equaldotsize","randomdotsizeEA","equaldotanddens","equaldotanddens","equaldotsize","equaldotanddens","equaldotsize","equaldotsize","equaldotsize","equaldotanddens","equaldotanddens","equaldotsize","randomdotsizeEA","randomdotsizeEA","equaldotsize"],"ratio_trial":[250,750,500,900,500,500,250,750,900,750,250,250,250,900,900,750,500,750,250,250,500,900,750,250,500,250,500,250,900,900,750,500,500,250,250,250,250,750,750,900,500,250,750,750,750,250,750,900,750,900,750,250,900,750,750,900,250,250,500,500,750,500,750,500,250,500,500,900,750,250,900,900,500,250,500,750,500,500,500,500,900,900,900,900,500,750,900,900,750,500,250,900,750,500,900,250,750,900,500,750,750,900,750,750,250,250,750,250,500,500,500,900,250,250,900,900,900,900,500,250],"smaller_num":["6","18","5","18","9","2","2","3","18","18","4","5","3","18","18","3","3","6","4","3","1","9","3","3","2","2","9","2","18","9","18","6","9","3","6","2","4","6","18","9","4","3","3","6","3","3","3","18","3","9","3","2","9","3","3","18","4","6","1","1","18","9","3","4","3","6","6","18","6","4","18","18","2","2","6","3","9","9","1","10","18","9","9","18","6","12","18","18","9","2","2","9","9","2","18","1","15","18","2","6","9","9","12","6","2","1","9","2","5","5","3","9","6","3","9","18","18","18","9","2"],"larger_num":["24","24","10","20","18","4","8","4","20","24","16","20","12","20","20","4","6","8","16","12","2","10","4","12","4","8","18","8","20","10","24","12","18","12","24","8","16","8","24","10","8","12","4","8","4","12","4","20","4","10","4","8","10","4","4","20","16","24","2","2","24","18","4","8","12","12","12","20","8","16","20","20","4","8","12","4","18","18","2","20","20","10","10","20","12","16","20","20","12","4","8","10","12","4","20","4","20","20","4","8","12","10","16","8","8","4","12","8","10","10","6","10","24","12","10","20","20","20","18","8"],"correct_side":[1,1,2,1,2,2,1,1,1,1,1,2,2,1,2,1,2,1,2,1,2,2,2,2,1,1,2,1,1,1,1,1,2,2,1,1,2,1,1,2,1,2,2,1,1,2,1,2,1,2,1,1,2,1,1,2,1,1,2,2,1,2,1,1,1,1,1,1,2,2,2,1,2,2,1,1,1,2,2,2,1,1,1,2,1,2,1,1,2,2,1,2,2,1,1,2,1,2,2,1,2,2,2,2,2,2,2,1,1,2,2,2,1,2,2,2,2,2,1,2],"img_shown":["img/250/equaldotanddens/L/5_Ratio_250_L_24_R_6.png","img/750/randomdotsizeEA/L/6_Ratio_750_L_24_R_18.png","img/500/randomdotsizeEA/R/14_Ratio_500_L_5_R_10.png","img/900/equaldotanddens/L/2_Ratio_900_L_20_R_18.png","img/500/randomdotsizeEA/R/1_Ratio_500_L_9_R_18.png","img/500/randomdotsizeEA/R/9_Ratio_500_L_2_R_4.png","img/250/equaldotanddens/L/1_Ratio_250_L_8_R_2.png","img/750/equaldotanddens/L/10_Ratio_750_L_4_R_3.png","img/900/equaldotanddens/L/8_Ratio_900_L_20_R_18.png","img/750/randomdotsizeEA/L/6_Ratio_750_L_24_R_18.png","img/250/equaldotanddens/L/2_Ratio_250_L_16_R_4.png","img/250/randomdotsizeEA/R/12_Ratio_250_L_5_R_20.png","img/250/randomdotsizeEA/R/9_Ratio_250_L_3_R_12.png","img/900/equaldotanddens/L/10_Ratio_900_L_20_R_18.png","img/900/equaldotanddens/R/9_Ratio_900_L_18_R_20.png","img/750/equaldotanddens/L/10_Ratio_750_L_4_R_3.png","img/500/equaldotsize/R/2_Ratio_500_L_3_R_6.png","img/750/equaldotsize/L/13_Ratio_750_L_8_R_6.png","img/250/equaldotsize/R/10_Ratio_250_L_4_R_16.png","img/250/equaldotsize/L/14_Ratio_250_L_12_R_3.png","img/500/equaldotanddens/R/15_Ratio_500_L_1_R_2.png","img/900/equaldotanddens/R/3_Ratio_900_L_9_R_10.png","img/750/equaldotsize/R/12_Ratio_750_L_3_R_4.png","img/250/equaldotanddens/R/4_Ratio_250_L_3_R_12.png","img/500/equaldotanddens/L/10_Ratio_500_L_4_R_2.png","img/250/randomdotsizeEA/L/3_Ratio_250_L_8_R_2.png","img/500/randomdotsizeEA/R/1_Ratio_500_L_9_R_18.png","img/250/randomdotsizeEA/L/1_Ratio_250_L_8_R_2.png","img/900/randomdotsizeEA/L/2_Ratio_900_L_20_R_18.png","img/900/equaldotsize/L/1_Ratio_900_L_10_R_9.png","img/750/equaldotanddens/L/6_Ratio_750_L_24_R_18.png","img/500/equaldotanddens/L/13_Ratio_500_L_12_R_6.png","img/500/equaldotsize/R/1_Ratio_500_L_9_R_18.png","img/250/randomdotsizeEA/R/4_Ratio_250_L_3_R_12.png","img/250/equaldotsize/L/5_Ratio_250_L_24_R_6.png","img/250/randomdotsizeEA/L/7_Ratio_250_L_8_R_2.png","img/250/equaldotanddens/R/10_Ratio_250_L_4_R_16.png","img/750/equaldotsize/L/14_Ratio_750_L_8_R_6.png","img/750/equaldotanddens/L/6_Ratio_750_L_24_R_18.png","img/900/randomdotsizeEA/R/3_Ratio_900_L_9_R_10.png","img/500/randomdotsizeEA/L/8_Ratio_500_L_8_R_4.png","img/250/randomdotsizeEA/R/9_Ratio_250_L_3_R_12.png","img/750/equaldotsize/R/12_Ratio_750_L_3_R_4.png","img/750/equaldotanddens/L/14_Ratio_750_L_8_R_6.png","img/750/equaldotsize/L/8_Ratio_750_L_4_R_3.png","img/250/equaldotsize/R/4_Ratio_250_L_3_R_12.png","img/750/equaldotanddens/L/8_Ratio_750_L_4_R_3.png","img/900/equaldotsize/R/9_Ratio_900_L_18_R_20.png","img/750/randomdotsizeEA/L/9_Ratio_750_L_4_R_3.png","img/900/equaldotsize/R/15_Ratio_900_L_9_R_10.png","img/750/randomdotsizeEA/L/9_Ratio_750_L_4_R_3.png","img/250/randomdotsizeEA/L/1_Ratio_250_L_8_R_2.png","img/900/equaldotanddens/R/5_Ratio_900_L_9_R_10.png","img/750/equaldotsize/L/9_Ratio_750_L_4_R_3.png","img/750/equaldotsize/L/9_Ratio_750_L_4_R_3.png","img/900/equaldotsize/R/13_Ratio_900_L_18_R_20.png","img/250/equaldotanddens/L/2_Ratio_250_L_16_R_4.png","img/250/equaldotanddens/L/5_Ratio_250_L_24_R_6.png","img/500/equaldotsize/R/12_Ratio_500_L_1_R_2.png","img/500/equaldotanddens/R/15_Ratio_500_L_1_R_2.png","img/750/randomdotsizeEA/L/6_Ratio_750_L_24_R_18.png","img/500/equaldotsize/R/1_Ratio_500_L_9_R_18.png","img/750/equaldotanddens/L/8_Ratio_750_L_4_R_3.png","img/500/equaldotsize/L/8_Ratio_500_L_8_R_4.png","img/250/randomdotsizeEA/L/15_Ratio_250_L_12_R_3.png","img/500/randomdotsizeEA/L/13_Ratio_500_L_12_R_6.png","img/500/equaldotsize/L/11_Ratio_500_L_12_R_6.png","img/900/equaldotsize/L/8_Ratio_900_L_20_R_18.png","img/750/equaldotsize/R/2_Ratio_750_L_6_R_8.png","img/250/equaldotanddens/R/10_Ratio_250_L_4_R_16.png","img/900/equaldotsize/R/13_Ratio_900_L_18_R_20.png","img/900/randomdotsizeEA/L/4_Ratio_900_L_20_R_18.png","img/500/equaldotanddens/R/9_Ratio_500_L_2_R_4.png","img/250/equaldotsize/R/13_Ratio_250_L_2_R_8.png","img/500/equaldotanddens/L/13_Ratio_500_L_12_R_6.png","img/750/randomdotsizeEA/L/9_Ratio_750_L_4_R_3.png","img/500/randomdotsizeEA/L/4_Ratio_500_L_18_R_9.png","img/500/equaldotanddens/R/1_Ratio_500_L_9_R_18.png","img/500/equaldotsize/R/12_Ratio_500_L_1_R_2.png","img/500/equaldotsize/R/3_Ratio_500_L_10_R_20.png","img/900/equaldotsize/L/2_Ratio_900_L_20_R_18.png","img/900/equaldotanddens/L/1_Ratio_900_L_10_R_9.png","img/900/equaldotanddens/L/1_Ratio_900_L_10_R_9.png","img/900/randomdotsizeEA/R/14_Ratio_900_L_18_R_20.png","img/500/equaldotsize/L/13_Ratio_500_L_12_R_6.png","img/750/randomdotsizeEA/R/11_Ratio_750_L_12_R_16.png","img/900/equaldotsize/L/2_Ratio_900_L_20_R_18.png","img/900/randomdotsizeEA/L/2_Ratio_900_L_20_R_18.png","img/750/equaldotanddens/R/15_Ratio_750_L_9_R_12.png","img/500/randomdotsizeEA/R/9_Ratio_500_L_2_R_4.png","img/250/equaldotsize/L/3_Ratio_250_L_8_R_2.png","img/900/randomdotsizeEA/R/15_Ratio_900_L_9_R_10.png","img/750/equaldotanddens/R/15_Ratio_750_L_9_R_12.png","img/500/equaldotanddens/L/5_Ratio_500_L_4_R_2.png","img/900/randomdotsizeEA/L/10_Ratio_900_L_20_R_18.png","img/250/randomdotsizeEA/R/8_Ratio_250_L_1_R_4.png","img/750/equaldotanddens/L/1_Ratio_750_L_20_R_15.png","img/900/randomdotsizeEA/R/11_Ratio_900_L_18_R_20.png","img/500/randomdotsizeEA/R/9_Ratio_500_L_2_R_4.png","img/750/equaldotsize/L/14_Ratio_750_L_8_R_6.png","img/750/equaldotsize/R/15_Ratio_750_L_9_R_12.png","img/900/randomdotsizeEA/R/3_Ratio_900_L_9_R_10.png","img/750/randomdotsizeEA/R/11_Ratio_750_L_12_R_16.png","img/750/randomdotsizeEA/R/2_Ratio_750_L_6_R_8.png","img/250/equaldotanddens/R/13_Ratio_250_L_2_R_8.png","img/250/equaldotsize/R/8_Ratio_250_L_1_R_4.png","img/750/randomdotsizeEA/R/15_Ratio_750_L_9_R_12.png","img/250/equaldotanddens/L/1_Ratio_250_L_8_R_2.png","img/500/equaldotanddens/L/7_Ratio_500_L_10_R_5.png","img/500/equaldotsize/R/14_Ratio_500_L_5_R_10.png","img/500/equaldotanddens/R/2_Ratio_500_L_3_R_6.png","img/900/equaldotsize/R/6_Ratio_900_L_9_R_10.png","img/250/equaldotsize/L/5_Ratio_250_L_24_R_6.png","img/250/equaldotsize/R/9_Ratio_250_L_3_R_12.png","img/900/equaldotanddens/R/3_Ratio_900_L_9_R_10.png","img/900/equaldotanddens/R/12_Ratio_900_L_18_R_20.png","img/900/equaldotsize/R/11_Ratio_900_L_18_R_20.png","img/900/randomdotsizeEA/R/14_Ratio_900_L_18_R_20.png","img/500/randomdotsizeEA/L/4_Ratio_500_L_18_R_9.png","img/250/equaldotsize/R/13_Ratio_250_L_2_R_8.png"],"Rat0":[["12_Ratio_0_L_9_R_0.png","13_Ratio_0_L_6_R_0.png","5_Ratio_0_L_2_R_0.png","6_Ratio_0_L_4_R_0.png","8_Ratio_0_L_6_R_0.png"],["1_Ratio_0_L_0_R_17.png","10_Ratio_0_L_0_R_22.png","11_Ratio_0_L_0_R_1.png","14_Ratio_0_L_0_R_24.png","15_Ratio_0_L_0_R_4.png","2_Ratio_0_L_0_R_5.png","3_Ratio_0_L_0_R_17.png","4_Ratio_0_L_0_R_7.png","7_Ratio_0_L_0_R_19.png","9_Ratio_0_L_0_R_15.png"]],"Rat250":[["1_Ratio_250_L_8_R_2.png","14_Ratio_250_L_12_R_3.png","15_Ratio_250_L_12_R_3.png","2_Ratio_250_L_16_R_4.png","3_Ratio_250_L_8_R_2.png","5_Ratio_250_L_24_R_6.png","7_Ratio_250_L_8_R_2.png"],["10_Ratio_250_L_4_R_16.png","11_Ratio_250_L_3_R_12.png","12_Ratio_250_L_5_R_20.png","13_Ratio_250_L_2_R_8.png","4_Ratio_250_L_3_R_12.png","6_Ratio_250_L_6_R_24.png","8_Ratio_250_L_1_R_4.png","9_Ratio_250_L_3_R_12.png"]],"Rat500":[["10_Ratio_500_L_4_R_2.png","11_Ratio_500_L_12_R_6.png","13_Ratio_500_L_12_R_6.png","4_Ratio_500_L_18_R_9.png","5_Ratio_500_L_4_R_2.png","7_Ratio_500_L_10_R_5.png","8_Ratio_500_L_8_R_4.png"],["1_Ratio_500_L_9_R_18.png","12_Ratio_500_L_1_R_2.png","14_Ratio_500_L_5_R_10.png","15_Ratio_500_L_1_R_2.png","2_Ratio_500_L_3_R_6.png","3_Ratio_500_L_10_R_20.png","6_Ratio_500_L_9_R_18.png","9_Ratio_500_L_2_R_4.png"]],"Rat750":[["1_Ratio_750_L_20_R_15.png","10_Ratio_750_L_4_R_3.png","13_Ratio_750_L_8_R_6.png","14_Ratio_750_L_8_R_6.png","6_Ratio_750_L_24_R_18.png","8_Ratio_750_L_4_R_3.png","9_Ratio_750_L_4_R_3.png"],["11_Ratio_750_L_12_R_16.png","12_Ratio_750_L_3_R_4.png","15_Ratio_750_L_9_R_12.png","2_Ratio_750_L_6_R_8.png","3_Ratio_750_L_15_R_20.png","4_Ratio_750_L_15_R_20.png","5_Ratio_750_L_15_R_20.png","7_Ratio_750_L_3_R_4.png"]],"Rat900":[["1_Ratio_900_L_10_R_9.png","10_Ratio_900_L_20_R_18.png","2_Ratio_900_L_20_R_18.png","4_Ratio_900_L_20_R_18.png","8_Ratio_900_L_20_R_18.png"],["11_Ratio_900_L_18_R_20.png","12_Ratio_900_L_18_R_20.png","13_Ratio_900_L_18_R_20.png","14_Ratio_900_L_18_R_20.png","15_Ratio_900_L_9_R_10.png","3_Ratio_900_L_9_R_10.png","5_Ratio_900_L_9_R_10.png","6_Ratio_900_L_9_R_10.png","7_Ratio_900_L_9_R_10.png","9_Ratio_900_L_18_R_20.png"]],"Rat1000":[["10_Ratio_1000_L_16_R_16.png","11_Ratio_1000_L_6_R_6.png","12_Ratio_1000_L_14_R_14.png","13_Ratio_1000_L_20_R_20.png","15_Ratio_1000_L_15_R_15.png","2_Ratio_1000_L_17_R_17.png","4_Ratio_1000_L_9_R_9.png","5_Ratio_1000_L_6_R_6.png","6_Ratio_1000_L_19_R_19.png","8_Ratio_1000_L_14_R_14.png","9_Ratio_1000_L_25_R_25.png"],["1_Ratio_1000_L_1_R_1.png","14_Ratio_1000_L_17_R_17.png","3_Ratio_1000_L_17_R_17.png","7_Ratio_1000_L_6_R_6.png"]]}},{"start_time":1552069533383,"click_time":1552069534369,"finger_time":1552069534128,"fix_duration":1051.2885004804991,"trial":1,"RT":745,"MT":241,"sideResp":1,"stimulus":"img/750/randomdotsizeEA/L/6_Ratio_750_L_24_R_18.png","xmouse":[804,804,804,804,804,804,804,804,804,804,804,804,804,804,804,804,804,804,804,804,804,804,804,804,804,804,804,804,804,804,804,804,804,804,804,804,804,800,791,752,713,689,668,646,632,609,570,532,494,491],"ymouse":[649,649,649,649,649,649,649,649,649,649,649,649,649,649,649,649,649,649,649,649,649,649,649,649,649,649,649,649,649,649,649,649,649,649,649,619,597,554,504,381,322,290,265,242,228,208,176,143,108,99],"timestamp_mouse":[10,25,45,65,85,105,126,145,166,185,205,225,247,266,285,305,326,346,366,386,405,427,445,465,485,507,527,546,565,585,607,626,646,665,686,706,726,745,765,786,805,826,845,866,885,905,925,946,966,985],"xSR":741.5,"ySR":573.95,"xT1":424.9,"yT1":0,"xT2":1058.1,"yT2":0,"toosoon":0,"cond_shown":"randomdotsizeEA","ratio_trial":750,"smaller_num":"18","larger_num":"24","correct_side":1,"subjID":"GinaIsabelaCameloRocha9","gender":"1","age":"10","school":"4"},{"start_time":1552069536149,"click_time":1552069536909,"finger_time":1552069536609,"fix_duration":638.3052069923483,"trial":2,"RT":460,"MT":300,"sideResp":1,"stimulus":"img/500/randomdotsizeEA/R/14_Ratio_500_L_5_R_10.png","xmouse":[800,800,800,800,800,800,800,800,800,800,800,800,800,800,800,800,800,800,800,800,800,798,786,775,767,761,755,741,714,675,646,613,613,610,605,592,554,535,524],"ymouse":[615,615,615,615,615,615,615,615,615,615,615,615,615,615,615,615,615,615,615,615,615,614,588,559,525,416,346,282,235,195,180,173,172,170,160,144,110,97,88],"timestamp_mouse":[9,21,48,60,80,99,120,139,160,179,200,220,240,260,281,299,320,339,360,380,401,419,439,460,480,501,519,539,559,580,600,619,639,659,679,699,719,739,759],"xSR":741.5,"ySR":573.95,"xT1":424.9,"yT1":0,"xT2":1058.1,"yT2":0,"toosoon":0,"cond_shown":"randomdotsizeEA","ratio_trial":500,"smaller_num":"5","larger_num":"10","correct_side":2,"subjID":"GinaIsabelaCameloRocha9","gender":"1","age":"10","school":"4"},{"start_time":1552069541081,"click_time":1552069541609,"finger_time":1552069541428,"fix_duration":1291.7708657522287,"trial":3,"RT":347,"MT":181,"sideResp":2,"stimulus":"img/900/equaldotanddens/L/2_Ratio_900_L_20_R_18.png","xmouse":[796,796,796,796,796,796,796,796,796,796,796,796,796,796,796,796,799,843,922,1003,1116,1135,1138,1140,1146,1148,1150],"ymouse":[627,627,627,627,627,627,627,627,627,627,627,627,627,627,627,627,614,553,464,395,296,258,228,159,117,103,91],"timestamp_mouse":[14,27,49,68,87,108,127,147,168,188,207,227,248,268,287,308,327,347,368,388,408,427,448,468,487,507,527],"xSR":741.5,"ySR":573.95,"xT1":424.9,"yT1":0,"xT2":1058.1,"yT2":0,"toosoon":0,"cond_shown":"equaldotanddens","ratio_trial":900,"smaller_num":"18","larger_num":"20","correct_side":1,"subjID":"GinaIsabelaCameloRocha9","gender":"1","age":"10","school":"4"},{"start_time":1552069546460,"click_time":1552069547228,"finger_time":1552069546829,"fix_duration":250,"trial":4,"RT":369,"MT":399,"sideResp":1,"stimulus":"img/500/randomdotsizeEA/R/1_Ratio_500_L_9_R_18.png","xmouse":[784,784,784,784,784,784,784,784,784,784,784,784,784,784,784,784,784,781,772,759,719,645,618,586,566,551,543,542,541,541,541,541,540,540,540,540,536,528,517],"ymouse":[600,600,600,600,600,600,600,600,600,600,600,600,600,600,600,600,600,598,559,527,438,318,268,212,159,124,84,80,76,75,74,74,73,73,73,73,73,70,61],"timestamp_mouse":[12,28,48,69,88,108,129,148,169,190,209,229,248,269,289,310,330,349,369,388,408,429,448,468,489,509,528,548,569,588,608,630,649,669,688,708,728,750,768],"xSR":741.5,"ySR":573.95,"xT1":424.9,"yT1":0,"xT2":1058.1,"yT2":0,"toosoon":0,"cond_shown":"randomdotsizeEA","ratio_trial":500,"smaller_num":"9","larger_num":"18","correct_side":2,"subjID":"GinaIsabelaCameloRocha9","gender":"1","age":"10","school":"4"},{"start_time":1552069548542,"click_time":1552069549988,"finger_time":1552069549149,"fix_duration":250,"trial":5,"RT":607,"MT":839,"sideResp":2,"stimulus":"img/500/randomdotsizeEA/R/9_Ratio_500_L_2_R_4.png","xmouse":[801,801,801,801,801,801,801,801,801,801,801,801,801,801,801,801,801,801,801,801,801,801,801,801,801,801,801,801,801,795,786,780,769,766,764,764,764,764,764,764,764,764,764,764,764,764,764,764,764,764,764,764,764,764,764,764,764,771,780,795,820,864,973,1012,1045,1057,1065,1080,1082,1085,1092,1103,1130],"ymouse":[605,605,605,605,605,605,606,606,606,606,606,606,606,606,606,606,606,606,606,606,606,606,606,606,606,606,606,606,606,593,573,552,525,519,517,517,517,517,517,517,517,517,517,517,517,517,517,517,517,517,517,517,517,517,517,517,517,530,536,541,541,532,419,342,251,212,184,152,147,143,129,111,56],"timestamp_mouse":[7,27,54,67,87,107,127,146,167,186,206,227,246,267,288,308,328,347,367,388,407,426,446,466,487,506,526,546,566,587,607,626,646,666,688,706,727,746,768,786,807,826,846,866,886,906,928,947,967,986,1006,1026,1047,1066,1086,1106,1126,1146,1168,1187,1207,1227,1246,1266,1286,1307,1327,1346,1366,1386,1406,1427,1446],"xSR":741.5,"ySR":573.95,"xT1":424.9,"yT1":0,"xT2":1058.1,"yT2":0,"toosoon":0,"cond_shown":"randomdotsizeEA","ratio_trial":500,"smaller_num":"2","larger_num":"4","correct_side":2,"subjID":"GinaIsabelaCameloRocha9","gender":"1","age":"10","school":"4"},{"start_time":1552069551161,"click_time":1552069552228,"finger_time":1552069551969,"fix_duration":250,"trial":6,"RT":808,"MT":259,"sideResp":1,"stimulus":"img/250/equaldotanddens/L/1_Ratio_250_L_8_R_2.png","xmouse":[763,764,766,766,766,766,766,766,766,766,766,766,766,766,766,766,766,767,768,768,768,768,768,768,768,768,768,768,768,768,768,768,768,768,768,768,768,768,767,758,748,725,606,524,420,398,395,395,395,395,395,405,413,425],"ymouse":[642,641,641,641,641,641,641,641,641,641,641,641,641,641,641,641,640,639,638,638,638,638,638,638,638,637,636,636,636,635,635,635,635,635,635,635,626,619,607,589,564,522,343,229,123,103,99,98,98,96,89,61,44,20],"timestamp_mouse":[7,27,60,67,88,107,128,148,167,187,209,228,247,267,288,308,327,347,369,388,407,427,448,467,489,507,529,548,567,587,607,627,647,667,689,707,728,747,768,789,808,828,848,867,888,909,928,947,968,987,1008,1029,1047,1067],"xSR":741.5,"ySR":573.95,"xT1":424.9,"yT1":0,"xT2":1058.1,"yT2":0,"toosoon":0,"cond_shown":"equaldotanddens","ratio_trial":250,"smaller_num":"2","larger_num":"8","correct_side":1,"subjID":"GinaIsabelaCameloRocha9","gender":"1","age":"10","school":"4"},{"start_time":1552069554042,"click_time":1552069554949,"finger_time":1552069554529,"fix_duration":452.9804518264149,"trial":7,"RT":487,"MT":420,"sideResp":2,"stimulus":"img/750/equaldotanddens/L/10_Ratio_750_L_4_R_3.png","xmouse":[777,777,777,777,777,777,777,777,777,777,777,777,777,777,777,777,777,777,777,777,777,777,777,778,816,898,992,1071,1155,1177,1189,1192,1194,1195,1195,1195,1195,1195,1195,1195,1193,1188,1183,1168,1161,1150],"ymouse":[598,598,598,598,598,598,598,598,598,598,598,598,598,598,598,598,598,598,598,598,598,598,598,599,557,460,363,283,186,124,76,49,39,38,38,38,38,38,38,38,37,37,37,41,47,54],"timestamp_mouse":[12,26,55,67,87,107,127,146,167,186,206,228,247,267,286,307,327,347,368,386,407,427,446,467,487,506,527,547,567,588,607,627,646,667,687,707,727,746,767,786,808,827,847,866,886,907],"xSR":741.5,"ySR":573.95,"xT1":424.9,"yT1":0,"xT2":1058.1,"yT2":0,"toosoon":0,"cond_shown":"equaldotanddens","ratio_trial":750,"smaller_num":"3","larger_num":"4","correct_side":1,"subjID":"GinaIsabelaCameloRocha9","gender":"1","age":"10","school":"4"},{"start_time":1552069558138,"click_time":1552069558809,"finger_time":1552069558609,"fix_duration":787.4434303464267,"trial":8,"RT":471,"MT":200,"sideResp":1,"stimulus":"img/900/equaldotanddens/L/8_Ratio_900_L_20_R_18.png","xmouse":[796,796,796,796,796,796,796,796,796,796,796,796,796,796,796,796,796,796,789,785,781,769,758,719,683,628,574,538,508,497,490,485,482,479],"ymouse":[626,626,626,626,626,626,626,626,626,626,626,626,626,626,626,626,626,624,619,616,614,602,592,557,514,452,383,336,270,229,192,154,108,63],"timestamp_mouse":[10,41,50,71,91,111,131,151,170,192,212,231,251,270,291,310,331,351,370,390,411,431,451,471,490,510,531,551,570,590,611,632,652,671],"xSR":741.5,"ySR":573.95,"xT1":424.9,"yT1":0,"xT2":1058.1,"yT2":0,"toosoon":0,"cond_shown":"equaldotanddens","ratio_trial":900,"smaller_num":"18","larger_num":"20","correct_side":1,"subjID":"GinaIsabelaCameloRocha9","gender":"1","age":"10","school":"4"},{"start_time":1552069560081,"click_time":1552069561411,"finger_time":1552069560848,"fix_duration":369.1455679728117,"trial":9,"RT":767,"MT":563,"sideResp":2,"stimulus":"img/750/randomdotsizeEA/L/6_Ratio_750_L_24_R_18.png","xmouse":[770,770,770,770,770,770,770,770,770,770,770,770,770,770,770,770,770,770,770,770,770,770,770,770,770,770,770,770,770,770,770,770,770,770,770,770,782,820,858,898,934,974,1000,1045,1097,1155,1185,1187,1187,1187,1187,1192,1200,1200,1200,1200,1200,1186,1178,1170,1165,1165,1165,1163,1160,1160,1158],"ymouse":[620,620,620,620,620,620,620,620,620,620,620,620,620,620,620,620,620,620,620,620,620,620,620,620,620,620,620,620,620,620,620,620,620,620,620,620,609,584,549,503,447,355,298,235,178,112,64,55,50,47,36,3,0,0,0,0,0,26,43,54,59,59,59,61,64,64,65],"timestamp_mouse":[9,29,48,68,88,107,128,148,169,188,208,228,247,268,287,308,328,349,368,387,408,428,448,467,488,507,528,548,569,587,607,627,648,667,689,708,728,749,767,788,808,829,847,868,887,907,928,947,967,987,1007,1027,1048,1067,1088,1108,1128,1147,1167,1187,1208,1229,1247,1267,1287,1308,1329],"xSR":741.5,"ySR":573.95,"xT1":424.9,"yT1":0,"xT2":1058.1,"yT2":0,"toosoon":0,"cond_shown":"randomdotsizeEA","ratio_trial":750,"smaller_num":"18","larger_num":"24","correct_side":1,"subjID":"GinaIsabelaCameloRocha9","gender":"1","age":"10","school":"4"},{"start_time":1552069563187,"click_time":1552069564070,"finger_time":1552069563950,"fix_duration":776.6762212359679,"trial":10,"RT":763,"MT":120,"sideResp":1,"stimulus":"img/250/equaldotanddens/L/2_Ratio_250_L_16_R_4.png","xmouse":[779,778,778,777,777,777,777,777,777,777,777,777,777,777,777,777,777,777,777,777,777,777,777,777,777,777,777,777,777,777,777,777,777,777,777,777,777,776,759,742,721,683,565,523,505],"ymouse":[609,602,597,592,592,592,592,592,592,592,592,592,592,592,592,592,592,592,592,592,592,592,592,592,592,592,592,592,592,592,592,592,592,592,592,592,592,588,547,509,460,391,183,101,69],"timestamp_mouse":[1,22,44,62,82,103,122,142,162,182,203,223,243,262,283,303,323,343,362,382,403,422,442,462,483,501,522,542,563,582,602,622,641,661,683,702,722,742,762,782,802,821,842,863,882],"xSR":741.5,"ySR":573.95,"xT1":424.9,"yT1":0,"xT2":1058.1,"yT2":0,"toosoon":0,"cond_shown":"equaldotanddens","ratio_trial":250,"smaller_num":"4","larger_num":"16","correct_side":1,"subjID":"GinaIsabelaCameloRocha9","gender":"1","age":"10","school":"4"},{"start_time":1552069570271,"click_time":1552069571249,"finger_time":1552069570789,"fix_duration":1419.7593463928358,"trial":11,"RT":518,"MT":460,"sideResp":2,"stimulus":"img/250/randomdotsizeEA/R/12_Ratio_250_L_5_R_20.png","xmouse":[796,796,796,796,796,796,796,796,796,796,796,796,796,796,796,796,796,796,796,796,795,795,794,790,778,749,691,620,519,519,519,519,519,519,519,519,519,519,519,519,528,541,602,813,899,940,975,1019,1109],"ymouse":[607,607,607,607,607,607,607,607,607,607,607,607,607,607,607,607,607,607,607,607,607,607,607,604,589,545,451,338,146,140,140,140,140,140,140,140,140,140,140,139,143,152,185,268,287,286,267,223,63],"timestamp_mouse":[17,40,58,79,97,118,138,158,179,198,219,237,257,279,299,318,339,358,378,398,419,438,458,478,499,518,538,558,578,597,618,639,658,678,697,718,738,759,778,798,818,837,859,877,899,918,938,959,978],"xSR":741.5,"ySR":573.95,"xT1":424.9,"yT1":0,"xT2":1058.1,"yT2":0,"toosoon":0,"cond_shown":"randomdotsizeEA","ratio_trial":250,"smaller_num":"5","larger_num":"20","correct_side":2,"subjID":"GinaIsabelaCameloRocha9","gender":"1","age":"10","school":"4"},{"start_time":1552069573343,"click_time":1552069574249,"finger_time":1552069574008,"fix_duration":732.2424270618314,"trial":12,"RT":665,"MT":241,"sideResp":2,"stimulus":"img/250/randomdotsizeEA/R/9_Ratio_250_L_3_R_12.png","xmouse":[812,812,812,812,812,812,812,812,812,812,812,812,812,812,812,812,812,812,812,812,812,812,812,812,812,812,812,812,812,812,812,819,826,857,921,999,1016,1021,1023,1025,1031,1034,1040,1049,1055,1066],"ymouse":[608,608,608,608,608,608,608,608,608,608,608,608,608,608,608,608,608,608,608,608,608,608,608,608,608,608,608,608,608,608,608,598,590,556,446,281,221,190,172,158,145,139,129,112,97,71],"timestamp_mouse":[11,25,47,67,87,105,127,147,165,186,206,227,246,266,286,306,327,347,366,387,406,425,447,466,486,507,525,546,567,587,605,626,645,665,687,706,726,745,766,786,806,826,847,865,887,906],"xSR":741.5,"ySR":573.95,"xT1":424.9,"yT1":0,"xT2":1058.1,"yT2":0,"toosoon":0,"cond_shown":"randomdotsizeEA","ratio_trial":250,"smaller_num":"3","larger_num":"12","correct_side":2,"subjID":"GinaIsabelaCameloRocha9","gender":"1","age":"10","school":"4"},{"start_time":1552069575241,"click_time":1552069576449,"finger_time":1552069576090,"fix_duration":369.44884555252264,"trial":13,"RT":849,"MT":359,"sideResp":1,"stimulus":"img/900/equaldotanddens/L/10_Ratio_900_L_20_R_18.png","xmouse":[800,800,800,800,800,800,800,800,800,800,800,800,800,800,800,800,800,800,800,800,800,800,800,800,800,800,800,800,800,800,800,800,800,800,800,800,800,800,800,800,798,771,712,646,600,576,574,570,567,563,560,544,535,526,519,505,502,498,495,491,489],"ymouse":[607,607,607,607,607,607,607,607,607,607,607,607,607,607,607,607,607,607,607,607,607,607,607,607,607,607,607,607,607,607,607,607,607,607,607,607,607,607,607,607,608,590,542,478,417,338,315,301,292,283,277,250,232,216,202,167,153,137,129,105,87],"timestamp_mouse":[7,40,49,68,87,108,129,149,167,189,208,228,248,268,289,308,328,349,368,388,408,429,448,468,488,508,528,549,568,588,608,629,648,669,689,708,729,749,769,788,808,829,849,869,888,908,928,947,967,987,1008,1029,1048,1068,1088,1108,1127,1147,1167,1189,1208],"xSR":741.5,"ySR":573.95,"xT1":424.9,"yT1":0,"xT2":1058.1,"yT2":0,"toosoon":0,"cond_shown":"equaldotanddens","ratio_trial":900,"smaller_num":"18","larger_num":"20","correct_side":1,"subjID":"GinaIsabelaCameloRocha9","gender":"1","age":"10","school":"4"},{"start_time":1552069577372,"click_time":1552069578550,"finger_time":1552069578189,"fix_duration":300.4716825890404,"trial":14,"RT":817,"MT":361,"sideResp":2,"stimulus":"img/900/equaldotanddens/R/9_Ratio_900_L_18_R_20.png","xmouse":[822,822,822,822,822,822,822,822,822,822,822,822,822,822,822,822,822,822,822,822,822,822,822,822,822,822,822,822,822,822,822,822,822,822,822,822,822,822,822,841,878,930,957,981,1010,1021,1030,1039,1047,1048,1051,1053,1055,1065,1074,1080,1087,1093,1103],"ymouse":[629,629,629,629,629,629,629,629,629,629,629,629,629,629,629,629,629,629,629,629,629,629,629,629,629,629,629,629,629,629,629,629,629,629,629,629,629,629,629,605,552,455,405,362,308,287,271,256,237,230,222,212,201,171,150,138,125,116,94],"timestamp_mouse":[18,38,61,78,97,118,136,158,178,197,217,236,258,277,297,318,338,357,377,398,418,438,457,477,497,516,538,557,577,598,617,637,657,678,698,717,736,758,777,797,817,838,857,877,897,917,937,956,977,998,1018,1037,1058,1078,1097,1117,1137,1156,1178],"xSR":741.5,"ySR":573.95,"xT1":424.9,"yT1":0,"xT2":1058.1,"yT2":0,"toosoon":0,"cond_shown":"equaldotanddens","ratio_trial":900,"smaller_num":"18","larger_num":"20","correct_side":2,"subjID":"GinaIsabelaCameloRocha9","gender":"1","age":"10","school":"4"},{"start_time":1552069580718,"click_time":1552069581449,"finger_time":1552069581109,"fix_duration":1227.973914131099,"trial":15,"RT":391,"MT":340,"sideResp":1,"stimulus":"img/750/equaldotanddens/L/10_Ratio_750_L_4_R_3.png","xmouse":[799,799,799,799,799,799,800,800,800,800,799,799,797,797,796,796,795,788,786,776,765,743,722,712,690,664,633,558,525,498,481,475,474,474,474,474,472],"ymouse":[627,627,627,627,627,627,626,626,625,624,624,622,619,618,616,616,613,602,593,572,554,526,499,480,437,373,292,120,50,0,0,0,0,0,0,0,1],"timestamp_mouse":[15,36,50,70,91,111,130,151,171,191,212,231,251,271,292,310,332,351,371,390,410,432,451,472,491,511,531,550,570,592,612,631,651,670,690,711,731],"xSR":741.5,"ySR":573.95,"xT1":424.9,"yT1":0,"xT2":1058.1,"yT2":0,"toosoon":0,"cond_shown":"equaldotanddens","ratio_trial":750,"smaller_num":"3","larger_num":"4","correct_side":1,"subjID":"GinaIsabelaCameloRocha9","gender":"1","age":"10","school":"4"},{"start_time":1552069584677,"click_time":1552069586190,"finger_time":1552069585390,"fix_duration":1006.7143400606024,"trial":16,"RT":713,"MT":800,"sideResp":2,"stimulus":"img/500/equaldotsize/R/2_Ratio_500_L_3_R_6.png","xmouse":[793,793,793,793,793,793,793,793,793,793,793,793,793,793,793,793,793,793,793,793,793,793,793,793,793,793,793,793,793,793,793,793,793,793,807,833,862,890,902,907,905,898,897,895,896,896,899,901,905,914,925,952,970,984,999,1001,1003,1005,1005,1005,1005,1005,1005,1005,1005,1006,1010,1017,1022,1024,1025,1026,1029,1033,1053,1065],"ymouse":[616,616,616,616,616,616,616,616,616,616,616,616,616,616,616,616,616,616,616,616,616,616,616,616,616,616,616,616,616,616,616,616,616,616,585,542,491,439,409,344,316,281,270,244,226,216,207,202,195,181,167,135,115,101,73,67,57,51,51,51,51,51,51,51,51,50,50,50,50,49,48,48,47,44,42,42],"timestamp_mouse":[13,47,52,72,92,112,133,153,172,191,213,233,252,273,292,312,332,353,371,391,413,433,451,472,492,512,532,552,573,592,611,633,653,671,692,713,733,752,772,793,811,832,852,873,892,911,932,951,971,992,1012,1032,1051,1072,1092,1111,1132,1152,1173,1193,1212,1232,1251,1271,1293,1311,1333,1352,1373,1392,1411,1431,1452,1472,1492,1512],"xSR":741.5,"ySR":573.95,"xT1":424.9,"yT1":0,"xT2":1058.1,"yT2":0,"toosoon":0,"cond_shown":"equaldotsize","ratio_trial":500,"smaller_num":"3","larger_num":"6","correct_side":2,"subjID":"GinaIsabelaCameloRocha9","gender":"1","age":"10","school":"4"},{"start_time":1552069593392,"click_time":1552069597529,"finger_time":1552069593948,"fix_duration":1279.2317170683305,"trial":17,"RT":556,"MT":3581,"sideResp":2,"stimulus":"img/750/equaldotsize/L/13_Ratio_750_L_8_R_6.png","xmouse":[806,806,806,806,806,806,806,806,806,806,806,806,806,806,806,806,809,811,813,813,813,813,813,813,816,822,832,843,853,861,861,861,866,874,900,909,918,918,918,918,918,918,918,918,918,916,908,896,882,875,871,870,866,866,866,866,866,866,866,866,866,866,866,866,866,866,866,866,866,866,866,866,866,866,866,866,866,866,866,866,866,866,866,866,866,866,866,866,866,866,866,866,866,866,866,866,866,866,866,866,866,866,866,866,866,866,866,866,866,866,866,866,866,866,866,866,866,866,866,866,866,866,866,866,866,866,866,866,866,866,866,866,866,866,866,866,866,866,866,866,866,866,866,866,866,866,866,866,866,866,866,866,866,866,866,866,866,866,866,866,866,866,866,866,866,866,866,866,866,866,866,866,866,866,866,866,866,866,866,866,866,866,866,866,866,866,866,866,866,866,866,866,866,866,866,866,866,866,866,866,866,866,866,866,866,866,1119],"ymouse":[629,629,629,629,629,629,629,629,629,629,629,629,629,629,629,629,627,625,624,624,624,624,624,624,621,615,606,598,589,582,581,580,574,565,529,512,504,504,504,504,504,504,504,504,504,504,504,505,507,507,507,507,509,509,509,509,509,509,509,509,509,509,509,509,509,509,509,509,509,509,509,509,509,509,509,509,509,509,509,509,509,509,509,509,509,509,509,509,509,509,509,509,509,509,509,509,509,509,509,509,509,509,509,509,509,509,509,509,509,509,509,509,509,509,509,509,509,509,509,509,509,509,509,509,509,509,509,509,509,509,509,509,509,509,509,509,509,509,509,509,509,509,509,509,509,509,509,509,509,509,509,509,509,509,509,509,509,509,509,509,509,509,509,509,509,509,509,509,509,509,509,509,509,509,509,509,509,509,509,509,509,509,509,509,509,509,509,509,509,509,509,509,509,509,509,509,509,509,509,509,509,509,509,509,509,509,49],"timestamp_mouse":[17,37,61,78,98,116,136,157,177,196,216,237,257,278,297,317,338,357,378,397,418,437,458,476,498,518,537,556,578,597,616,637,657,677,697,717,736,757,778,797,817,838,857,878,898,917,938,958,978,997,1018,1038,1056,1076,1097,1117,1137,1157,1178,1198,1217,1237,1257,1277,1297,1317,1336,1356,1376,1398,1418,1438,1457,1478,1497,1517,1537,1556,1576,1598,1617,1638,1658,1678,1697,1717,1741,1756,1778,1798,1817,1837,1856,1878,1898,1917,1937,1956,1978,1997,2017,2036,2058,2076,2096,2116,2138,2157,2177,2197,2217,2237,2258,2278,2297,2318,2337,2358,2378,2397,2417,2437,2457,2478,2498,2517,2537,2558,2578,2597,2618,2637,2658,2678,2698,2717,2737,2758,2778,2799,2818,2836,2858,2876,2898,2917,2938,2958,2977,2997,3018,3038,3058,3077,3097,3117,3137,3158,3177,3197,3217,3236,3256,3277,3298,3317,3337,3358,3378,3397,3416,3437,3457,3478,3498,3516,3536,3557,3577,3598,3617,3637,3676,3676,3699,3717,3738,3757,3778,3797,3816,3837,3857,3876,3897,3917,3938,3958,3978,3997,4017,4037,4057,4078,4097,4116,4137],"xSR":741.5,"ySR":573.95,"xT1":424.9,"yT1":0,"xT2":1058.1,"yT2":0,"toosoon":0,"cond_shown":"equaldotsize","ratio_trial":750,"smaller_num":"6","larger_num":"8","correct_side":1,"subjID":"GinaIsabelaCameloRocha9","gender":"1","age":"10","school":"4"},{"start_time":1552069601893,"click_time":1552069602969,"finger_time":1552069602550,"fix_duration":1121.744688780295,"trial":18,"RT":657,"MT":419,"sideResp":2,"stimulus":"img/250/equaldotsize/R/10_Ratio_250_L_4_R_16.png","xmouse":[775,775,775,775,775,775,775,775,775,775,775,775,775,775,775,775,775,775,775,775,775,775,775,775,775,775,775,775,775,775,775,784,793,833,860,920,944,962,983,991,1000,1015,1022,1034,1040,1049,1051,1051,1051,1052,1056,1056,1057,1059],"ymouse":[587,587,587,587,587,587,587,587,587,587,587,587,587,587,587,587,587,587,587,587,587,587,587,587,587,587,587,587,587,587,587,575,565,516,456,321,264,204,153,130,109,74,57,32,18,0,0,0,0,0,1,1,1,2],"timestamp_mouse":[16,46,56,76,97,116,137,157,175,195,216,237,257,275,295,316,337,357,376,395,415,435,457,476,495,515,537,555,577,596,616,636,657,675,696,716,736,756,775,796,816,836,856,875,896,917,935,955,976,996,1019,1035,1057,1076],"xSR":741.5,"ySR":573.95,"xT1":424.9,"yT1":0,"xT2":1058.1,"yT2":0,"toosoon":0,"cond_shown":"equaldotsize","ratio_trial":250,"smaller_num":"4","larger_num":"16","correct_side":2,"subjID":"GinaIsabelaCameloRocha9","gender":"1","age":"10","school":"4"},{"start_time":1552069604767,"click_time":1552069605810,"finger_time":1552069605469,"fix_duration":497.3004081154333,"trial":19,"RT":702,"MT":341,"sideResp":1,"stimulus":"img/250/equaldotsize/L/14_Ratio_250_L_12_R_3.png","xmouse":[791,791,791,791,791,791,791,791,791,791,791,791,791,791,791,791,791,791,791,791,791,791,791,791,791,791,791,791,791,791,791,791,791,789,784,778,772,759,752,734,716,686,658,611,607,605,604,603,582,561,547,532,521],"ymouse":[607,607,607,607,607,607,607,607,607,607,607,607,607,607,607,607,607,607,607,607,607,607,607,607,607,607,607,607,607,607,607,607,607,597,584,570,553,518,502,460,419,349,287,175,154,144,137,133,102,76,58,43,35],"timestamp_mouse":[12,22,44,62,81,101,122,142,162,182,203,223,241,262,282,302,322,342,363,381,401,423,443,463,482,503,521,541,562,582,602,622,643,663,683,702,723,743,761,782,803,822,842,861,883,903,923,943,962,983,1002,1023,1043],"xSR":741.5,"ySR":573.95,"xT1":424.9,"yT1":0,"xT2":1058.1,"yT2":0,"toosoon":0,"cond_shown":"equaldotsize","ratio_trial":250,"smaller_num":"3","larger_num":"12","correct_side":1,"subjID":"GinaIsabelaCameloRocha9","gender":"1","age":"10","school":"4"},{"start_time":1552069607445,"click_time":1552069608609,"finger_time":1552069608208,"fix_duration":354.35250576633706,"trial":20,"RT":763,"MT":401,"sideResp":2,"stimulus":"img/500/equaldotanddens/R/15_Ratio_500_L_1_R_2.png","xmouse":[819,819,819,819,819,819,817,817,817,817,817,817,817,817,817,817,817,817,817,817,817,817,817,817,817,815,815,815,815,815,815,815,815,815,815,815,816,825,846,972,1021,1046,1064,1079,1120,1143,1165,1180,1193,1216,1222,1223,1223,1220,1214,1195,1177,1160,1153],"ymouse":[592,592,592,592,592,592,592,592,592,592,592,592,592,592,592,592,592,592,592,592,592,592,592,592,592,592,592,592,591,587,585,584,584,584,583,583,583,579,568,492,448,414,385,360,298,267,234,210,186,141,121,105,89,79,71,60,56,54,53],"timestamp_mouse":[9,25,44,65,85,104,124,145,164,183,203,225,245,265,284,303,324,344,365,383,405,425,443,463,484,505,525,545,565,583,603,625,645,664,684,703,725,745,763,785,804,825,844,865,884,905,924,945,964,984,1004,1024,1045,1064,1083,1104,1123,1144,1164],"xSR":741.5,"ySR":573.95,"xT1":424.9,"yT1":0,"xT2":1058.1,"yT2":0,"toosoon":0,"cond_shown":"equaldotanddens","ratio_trial":500,"smaller_num":"1","larger_num":"2","correct_side":2,"subjID":"GinaIsabelaCameloRocha9","gender":"1","age":"10","school":"4"},{"start_time":1552069610047,"click_time":1552069611069,"finger_time":1552069610769,"fix_duration":536.8237853195211,"trial":21,"RT":722,"MT":300,"sideResp":2,"stimulus":"img/900/equaldotanddens/R/3_Ratio_900_L_9_R_10.png","xmouse":[803,803,803,803,803,803,803,803,803,803,803,803,803,803,803,803,803,803,803,803,803,803,803,803,803,803,803,803,803,803,803,803,803,803,808,830,866,895,925,988,1015,1058,1080,1108,1134,1141,1145,1149,1150,1153,1153,1153],"ymouse":[620,620,620,620,620,620,620,620,620,620,620,620,620,620,620,620,620,620,620,620,620,620,620,620,620,620,620,620,620,620,620,620,620,620,618,600,576,554,521,437,389,317,291,253,206,187,173,161,148,126,111,95],"timestamp_mouse":[11,22,42,62,81,103,123,142,163,182,203,222,243,262,282,301,323,341,362,382,403,422,443,463,482,501,522,543,562,582,603,623,642,663,682,702,722,742,762,782,803,822,842,863,882,903,921,942,963,981,1002,1022],"xSR":741.5,"ySR":573.95,"xT1":424.9,"yT1":0,"xT2":1058.1,"yT2":0,"toosoon":0,"cond_shown":"equaldotanddens","ratio_trial":900,"smaller_num":"9","larger_num":"10","correct_side":2,"subjID":"GinaIsabelaCameloRocha9","gender":"1","age":"10","school":"4"},{"start_time":1552069614182,"click_time":1552069615389,"finger_time":1552069615148,"fix_duration":831.4558702279571,"trial":22,"RT":966,"MT":241,"sideResp":2,"stimulus":"img/750/equaldotsize/R/12_Ratio_750_L_3_R_4.png","xmouse":[797,797,798,798,798,798,798,798,798,798,798,798,798,798,798,798,798,798,798,798,798,798,798,798,798,798,798,798,798,798,798,798,798,798,799,799,799,799,799,799,799,799,799,799,799,800,801,815,933,1003,1043,1058,1066,1076,1086,1094,1097,1103,1106,1108,1110],"ymouse":[632,632,632,632,632,632,632,632,632,632,632,632,632,632,632,632,632,632,632,632,632,632,632,632,632,632,632,632,632,632,632,632,632,632,630,630,630,630,630,630,630,630,630,630,630,630,630,619,536,478,430,397,358,284,219,179,160,132,120,107,95],"timestamp_mouse":[14,27,48,67,87,107,126,147,167,187,207,228,247,268,288,307,327,348,367,387,407,427,446,468,488,506,528,546,567,587,608,626,648,667,687,707,727,747,768,786,808,826,848,867,887,907,927,948,966,987,1007,1027,1047,1067,1086,1106,1126,1148,1167,1187,1206],"xSR":741.5,"ySR":573.95,"xT1":424.9,"yT1":0,"xT2":1058.1,"yT2":0,"toosoon":0,"cond_shown":"equaldotsize","ratio_trial":750,"smaller_num":"3","larger_num":"4","correct_side":2,"subjID":"GinaIsabelaCameloRocha9","gender":"1","age":"10","school":"4"},{"start_time":1552069617468,"click_time":1552069618150,"finger_time":1552069617870,"fix_duration":1136.4753201935632,"trial":23,"RT":402,"MT":280,"sideResp":2,"stimulus":"img/250/equaldotanddens/R/4_Ratio_250_L_3_R_12.png","xmouse":[803,803,803,803,803,803,803,803,803,803,803,803,803,803,803,803,803,803,804,814,826,840,858,877,906,915,921,928,934,946,957,977,1005,1036,1097],"ymouse":[636,634,634,634,634,633,633,633,633,633,633,633,633,630,629,625,621,614,612,588,571,554,532,509,450,426,405,386,373,345,328,285,235,172,34],"timestamp_mouse":[9,20,41,62,81,101,120,142,161,181,201,222,242,260,280,302,320,341,360,381,402,421,441,462,481,500,521,540,560,580,601,621,642,661,681],"xSR":741.5,"ySR":573.95,"xT1":424.9,"yT1":0,"xT2":1058.1,"yT2":0,"toosoon":0,"cond_shown":"equaldotanddens","ratio_trial":250,"smaller_num":"3","larger_num":"12","correct_side":2,"subjID":"GinaIsabelaCameloRocha9","gender":"1","age":"10","school":"4"},{"start_time":1552069620211,"click_time":1552069621169,"finger_time":1552069620789,"fix_duration":1059.1687509889202,"trial":24,"RT":578,"MT":380,"sideResp":1,"stimulus":"img/500/equaldotanddens/L/10_Ratio_500_L_4_R_2.png","xmouse":[791,791,791,791,791,791,791,791,791,791,791,791,791,791,791,791,791,791,791,791,791,791,791,791,791,791,791,792,790,787,777,749,710,691,677,664,651,638,624,622,620,617,614,600,588,578,564,512,465],"ymouse":[617,617,617,617,617,617,617,617,617,617,617,617,617,617,617,617,617,617,617,617,617,617,617,617,617,617,617,603,576,565,532,434,301,269,250,241,235,231,227,226,224,221,216,204,195,185,176,144,92],"timestamp_mouse":[1,22,47,58,78,98,119,137,159,179,199,219,237,259,278,299,319,337,358,379,398,418,438,457,479,499,518,538,558,578,598,617,638,658,678,697,719,739,759,779,797,817,839,858,879,899,918,938,958],"xSR":741.5,"ySR":573.95,"xT1":424.9,"yT1":0,"xT2":1058.1,"yT2":0,"toosoon":0,"cond_shown":"equaldotanddens","ratio_trial":500,"smaller_num":"2","larger_num":"4","correct_side":1,"subjID":"GinaIsabelaCameloRocha9","gender":"1","age":"10","school":"4"},{"start_time":1552069622361,"click_time":1552069623330,"finger_time":1552069622988,"fix_duration":250,"trial":25,"RT":627,"MT":342,"sideResp":1,"stimulus":"img/250/randomdotsizeEA/L/3_Ratio_250_L_8_R_2.png","xmouse":[809,809,809,809,809,807,807,807,807,807,807,807,807,807,807,807,807,807,807,807,807,807,807,807,807,807,807,807,807,804,789,761,706,641,484,430,400,391,391,391,391,392,393,393,394,398,405,419,438],"ymouse":[660,660,660,660,660,659,659,659,659,659,659,659,659,659,659,659,659,659,659,659,658,658,658,658,658,657,654,653,648,628,599,559,488,390,195,128,92,81,80,80,75,71,68,67,66,63,60,58,55],"timestamp_mouse":[10,28,48,69,88,108,129,149,168,189,209,229,249,268,289,309,329,349,369,389,408,428,449,469,489,509,528,548,569,590,608,627,648,668,690,707,727,747,768,788,808,829,848,869,888,907,929,948,969],"xSR":741.5,"ySR":573.95,"xT1":424.9,"yT1":0,"xT2":1058.1,"yT2":0,"toosoon":0,"cond_shown":"randomdotsizeEA","ratio_trial":250,"smaller_num":"2","larger_num":"8","correct_side":1,"subjID":"GinaIsabelaCameloRocha9","gender":"1","age":"10","school":"4"},{"start_time":1552069625131,"click_time":1552069625929,"finger_time":1552069625709,"fix_duration":781.4040433223255,"trial":26,"RT":578,"MT":220,"sideResp":2,"stimulus":"img/500/randomdotsizeEA/R/1_Ratio_500_L_9_R_18.png","xmouse":[781,781,781,781,781,781,781,781,781,781,781,781,781,781,781,781,781,782,782,782,782,782,782,782,783,786,804,825,863,906,932,985,1001,1017,1036,1054,1090,1105,1118,1130],"ymouse":[628,628,628,628,628,628,628,628,628,628,628,628,628,628,628,628,628,628,627,626,626,626,626,626,625,623,610,596,571,535,501,368,309,254,213,184,138,120,106,93],"timestamp_mouse":[25,44,59,79,98,117,138,159,178,198,219,239,259,279,299,318,338,357,378,399,417,439,457,479,499,519,538,558,578,599,619,638,659,679,698,719,738,758,778,798],"xSR":741.5,"ySR":573.95,"xT1":424.9,"yT1":0,"xT2":1058.1,"yT2":0,"toosoon":0,"cond_shown":"randomdotsizeEA","ratio_trial":500,"smaller_num":"9","larger_num":"18","correct_side":2,"subjID":"GinaIsabelaCameloRocha9","gender":"1","age":"10","school":"4"},{"start_time":1552069627972,"click_time":1552069628850,"finger_time":1552069628470,"fix_duration":879.4823895212975,"trial":27,"RT":498,"MT":380,"sideResp":1,"stimulus":"img/250/randomdotsizeEA/L/1_Ratio_250_L_8_R_2.png","xmouse":[801,801,801,801,801,801,801,801,801,801,801,801,801,801,801,801,801,801,801,801,801,801,801,799,780,755,703,646,577,571,571,573,576,581,593,596,598,598,598,598,596,571,533,506],"ymouse":[595,595,595,595,595,595,595,595,595,595,595,595,595,595,595,595,595,595,595,595,595,594,593,588,555,521,452,378,278,221,205,191,182,170,144,139,135,135,135,135,125,106,83,69],"timestamp_mouse":[18,37,57,78,98,118,138,158,178,197,218,237,258,277,297,317,337,358,378,397,417,437,457,478,497,517,537,558,577,598,617,637,658,678,697,717,738,756,778,797,817,837,858,878],"xSR":741.5,"ySR":573.95,"xT1":424.9,"yT1":0,"xT2":1058.1,"yT2":0,"toosoon":0,"cond_shown":"randomdotsizeEA","ratio_trial":250,"smaller_num":"2","larger_num":"8","correct_side":1,"subjID":"GinaIsabelaCameloRocha9","gender":"1","age":"10","school":"4"},{"start_time":1552069631351,"click_time":1552069632169,"finger_time":1552069631830,"fix_duration":1380.9612343888793,"trial":28,"RT":479,"MT":339,"sideResp":1,"stimulus":"img/900/randomdotsizeEA/L/2_Ratio_900_L_20_R_18.png","xmouse":[773,773,773,773,773,773,773,773,773,773,773,773,773,773,773,773,773,773,773,773,773,773,773,773,773,760,741,728,717,708,690,678,658,633,611,593,585,576,564,546,521],"ymouse":[575,575,575,575,575,575,575,575,575,575,575,575,575,575,575,575,575,575,575,575,575,575,575,566,557,503,460,438,424,413,385,362,329,298,247,205,167,143,121,90,50],"timestamp_mouse":[24,43,59,77,99,119,138,158,179,199,219,238,259,278,299,319,338,359,378,399,419,439,459,479,498,520,539,559,577,599,619,638,658,678,699,720,738,759,779,798,817],"xSR":741.5,"ySR":573.95,"xT1":424.9,"yT1":0,"xT2":1058.1,"yT2":0,"toosoon":0,"cond_shown":"randomdotsizeEA","ratio_trial":900,"smaller_num":"18","larger_num":"20","correct_side":1,"subjID":"GinaIsabelaCameloRocha9","gender":"1","age":"10","school":"4"},{"start_time":1552069634340,"click_time":1552069636489,"finger_time":1552069635070,"fix_duration":1349.204172352111,"trial":29,"RT":730,"MT":1419,"sideResp":1,"stimulus":"img/900/equaldotsize/L/1_Ratio_900_L_10_R_9.png","xmouse":[780,780,780,780,780,780,780,780,780,780,780,780,780,780,780,780,780,780,780,780,780,780,780,780,780,780,780,780,780,780,780,782,789,794,803,818,837,881,893,909,922,942,980,990,997,1007,1014,1029,1034,1041,1051,1060,1068,1077,1077,1077,1077,1077,1077,1077,1077,1077,1077,1077,1077,1077,1077,1077,1077,1077,1079,1082,1082,1082,1082,1082,1082,1082,1082,1082,1082,1082,1082,1082,1082,1082,1082,1082,1082,1081,1080,1080,1080,1079,1079,1077,1073,1054,1033,1010,986,950,815,731,617,586,528,490],"ymouse":[624,624,624,624,624,624,624,624,624,624,624,624,624,624,624,624,624,624,624,624,624,624,624,624,624,624,624,624,624,623,619,615,606,601,591,575,555,470,431,391,365,326,260,241,223,207,192,166,161,154,146,135,124,111,110,110,110,110,110,110,110,110,110,110,110,110,110,110,110,109,106,101,101,101,101,101,101,101,101,101,101,101,101,101,101,101,101,101,102,103,104,104,104,104,104,105,107,108,111,113,116,116,116,116,99,94,76,60],"timestamp_mouse":[9,29,61,69,89,110,129,150,170,189,210,230,250,270,290,309,330,350,369,390,408,430,449,470,488,510,529,548,570,589,609,630,648,670,690,709,730,749,770,789,809,830,849,868,889,909,930,950,970,989,1010,1028,1049,1070,1090,1110,1129,1150,1169,1189,1209,1230,1249,1270,1289,1310,1329,1349,1371,1389,1409,1429,1449,1469,1489,1510,1529,1549,1570,1590,1609,1629,1649,1669,1689,1710,1729,1749,1770,1790,1810,1829,1849,1870,1890,1909,1929,1949,1968,1989,2009,2029,2049,2069,2090,2108,2129,2149],"xSR":741.5,"ySR":573.95,"xT1":424.9,"yT1":0,"xT2":1058.1,"yT2":0,"toosoon":0,"cond_shown":"equaldotsize","ratio_trial":900,"smaller_num":"9","larger_num":"10","correct_side":1,"subjID":"GinaIsabelaCameloRocha9","gender":"1","age":"10","school":"4"},{"start_time":1552069638867,"click_time":1552069639809,"finger_time":1552069639590,"fix_duration":275.9351378647951,"trial":30,"RT":723,"MT":219,"sideResp":1,"stimulus":"img/750/equaldotanddens/L/6_Ratio_750_L_24_R_18.png","xmouse":[793,793,793,793,793,793,793,793,793,793,793,793,793,793,793,793,793,793,793,793,793,793,793,793,793,793,793,793,793,793,793,792,791,791,791,790,788,785,771,739,688,629,615,602,589,577,553,478],"ymouse":[601,601,601,601,601,601,601,601,601,601,601,601,601,601,601,601,601,601,601,601,601,601,601,601,601,601,601,601,601,601,601,601,595,591,586,581,565,551,516,469,414,336,301,255,220,191,149,71],"timestamp_mouse":[12,24,48,62,82,101,122,143,162,182,201,222,242,262,283,301,323,342,363,383,403,421,442,462,483,502,523,542,562,582,601,622,643,662,683,702,723,741,762,782,803,823,841,863,882,902,923,942],"xSR":741.5,"ySR":573.95,"xT1":424.9,"yT1":0,"xT2":1058.1,"yT2":0,"toosoon":0,"cond_shown":"equaldotanddens","ratio_trial":750,"smaller_num":"18","larger_num":"24","correct_side":1,"subjID":"GinaIsabelaCameloRocha9","gender":"1","age":"10","school":"4"},{"start_time":1552069641884,"click_time":1552069642550,"finger_time":1552069642350,"fix_duration":1192.6656981313338,"trial":31,"RT":466,"MT":200,"sideResp":1,"stimulus":"img/500/equaldotanddens/L/13_Ratio_500_L_12_R_6.png","xmouse":[799,799,799,799,799,799,799,799,799,799,799,799,799,799,799,799,799,799,799,799,799,798,798,798,795,787,712,676,636,606,580,542,527,516],"ymouse":[605,605,605,605,605,605,605,605,605,605,605,605,605,605,605,605,605,605,605,605,605,599,578,550,523,494,378,338,289,250,211,132,97,70],"timestamp_mouse":[9,26,45,65,86,106,126,146,165,186,204,226,245,265,286,305,326,345,365,385,406,425,446,466,485,505,524,546,566,585,605,625,645,666],"xSR":741.5,"ySR":573.95,"xT1":424.9,"yT1":0,"xT2":1058.1,"yT2":0,"toosoon":0,"cond_shown":"equaldotanddens","ratio_trial":500,"smaller_num":"6","larger_num":"12","correct_side":1,"subjID":"GinaIsabelaCameloRocha9","gender":"1","age":"10","school":"4"},{"start_time":1552069643762,"click_time":1552069644829,"finger_time":1552069644109,"fix_duration":250,"trial":32,"RT":347,"MT":720,"sideResp":2,"stimulus":"img/500/equaldotsize/R/1_Ratio_500_L_9_R_18.png","xmouse":[801,801,801,800,799,799,799,799,799,799,799,799,799,799,799,799,793,758,715,667,637,618,615,615,614,614,614,615,617,624,642,672,715,735,759,782,805,889,925,952,956,957,961,963,968,974,981,988,999,1007,1011,1018,1055,1063],"ymouse":[613,613,613,613,611,611,611,611,611,611,611,611,611,611,611,611,605,571,536,495,464,427,394,379,364,355,351,346,343,339,336,334,334,334,332,328,322,286,261,234,215,187,166,160,149,140,128,118,106,100,99,99,99,98],"timestamp_mouse":[9,42,47,67,88,108,126,147,166,188,208,227,248,267,288,307,328,347,367,388,407,426,447,468,487,508,526,548,567,587,608,627,647,668,687,708,727,747,767,787,808,828,847,867,887,906,927,948,967,987,1008,1026,1047,1067],"xSR":741.5,"ySR":573.95,"xT1":424.9,"yT1":0,"xT2":1058.1,"yT2":0,"toosoon":0,"cond_shown":"equaldotsize","ratio_trial":500,"smaller_num":"9","larger_num":"18","correct_side":2,"subjID":"GinaIsabelaCameloRocha9","gender":"1","age":"10","school":"4"},{"start_time":1552069645966,"click_time":1552069646949,"finger_time":1552069646609,"fix_duration":333.6864596616886,"trial":33,"RT":643,"MT":340,"sideResp":2,"stimulus":"img/250/randomdotsizeEA/R/4_Ratio_250_L_3_R_12.png","xmouse":[765,768,773,773,774,774,774,774,774,774,774,774,774,775,775,775,775,775,775,775,775,775,775,775,775,775,775,776,779,782,790,809,831,877,900,915,929,936,936,934,955,989,1038,1040,1040,1040,1041,1042,1048,1061],"ymouse":[653,650,643,643,641,641,641,641,641,641,641,641,641,638,636,636,636,636,636,636,636,636,636,636,636,636,636,633,627,621,610,587,558,486,441,392,340,266,232,216,156,109,62,57,57,57,57,57,57,57],"timestamp_mouse":[4,23,57,63,83,103,124,143,164,184,204,224,243,262,284,304,324,343,363,384,404,423,442,463,484,503,523,543,563,583,604,623,643,664,684,703,724,744,763,784,803,824,844,863,883,904,923,943,963,983],"xSR":741.5,"ySR":573.95,"xT1":424.9,"yT1":0,"xT2":1058.1,"yT2":0,"toosoon":0,"cond_shown":"randomdotsizeEA","ratio_trial":250,"smaller_num":"3","larger_num":"12","correct_side":2,"subjID":"GinaIsabelaCameloRocha9","gender":"1","age":"10","school":"4"},{"start_time":1552069650670,"click_time":1552069651590,"finger_time":1552069651189,"fix_duration":1258.6013965448738,"trial":34,"RT":519,"MT":401,"sideResp":1,"stimulus":"img/250/equaldotsize/L/5_Ratio_250_L_24_R_6.png","xmouse":[784,784,784,784,784,784,784,784,784,784,784,784,784,784,784,784,784,784,784,784,784,784,784,784,784,776,750,726,708,706,706,706,696,659,643,628,612,597,541,484,436,418,415,418,420,424,429],"ymouse":[622,622,622,622,622,622,622,622,622,622,622,622,622,622,622,622,622,622,622,622,622,622,622,622,622,616,569,534,487,467,438,412,359,292,273,259,247,237,210,183,154,137,127,111,106,101,91],"timestamp_mouse":[1,19,41,60,78,98,120,139,160,180,200,220,240,260,279,299,320,340,360,378,399,419,439,460,480,499,519,540,559,579,599,619,640,659,680,699,719,739,759,780,799,819,839,860,879,899,920],"xSR":741.5,"ySR":573.95,"xT1":424.9,"yT1":0,"xT2":1058.1,"yT2":0,"toosoon":0,"cond_shown":"equaldotsize","ratio_trial":250,"smaller_num":"6","larger_num":"24","correct_side":1,"subjID":"GinaIsabelaCameloRocha9","gender":"1","age":"10","school":"4"},{"start_time":1552069652873,"click_time":1552069653729,"finger_time":1552069653369,"fix_duration":560.9974815663769,"trial":35,"RT":496,"MT":360,"sideResp":2,"stimulus":"img/250/randomdotsizeEA/L/7_Ratio_250_L_8_R_2.png","xmouse":[795,795,795,795,795,795,795,795,795,795,795,795,795,795,795,795,795,795,795,795,795,793,761,747,737,730,728,726,727,733,753,818,884,896,903,915,932,969,978,990,1000,1059,1118],"ymouse":[636,636,636,636,636,636,636,636,636,636,636,636,636,636,636,636,636,636,636,636,636,634,601,584,568,555,546,541,535,529,520,493,467,459,453,444,432,391,364,324,273,170,69],"timestamp_mouse":[16,45,56,75,97,117,137,157,176,196,217,236,256,276,297,317,337,356,377,397,416,437,456,476,496,516,536,556,576,597,617,636,655,675,696,716,737,756,775,796,817,836,856],"xSR":741.5,"ySR":573.95,"xT1":424.9,"yT1":0,"xT2":1058.1,"yT2":0,"toosoon":0,"cond_shown":"randomdotsizeEA","ratio_trial":250,"smaller_num":"2","larger_num":"8","correct_side":1,"subjID":"GinaIsabelaCameloRocha9","gender":"1","age":"10","school":"4"},{"start_time":1552069654702,"click_time":1552069656469,"finger_time":1552069656149,"fix_duration":250,"trial":36,"RT":1447,"MT":320,"sideResp":2,"stimulus":"img/250/equaldotanddens/R/10_Ratio_250_L_4_R_16.png","xmouse":[786,786,786,786,786,786,786,786,786,786,786,786,786,786,786,786,786,786,786,786,786,786,786,786,786,786,786,786,786,786,786,786,786,786,786,786,786,786,786,786,786,786,786,786,786,786,785,785,785,785,785,785,786,786,786,786,786,788,796,803,803,803,803,803,803,803,803,803,803,803,805,819,893,932,968,1006,1050,1063,1066,1069,1069,1071,1073,1074,1075,1077,1086,1087,1090],"ymouse":[627,627,627,627,627,627,627,627,627,627,627,627,627,627,627,627,627,627,627,627,627,627,627,627,627,627,627,627,627,627,627,627,627,627,627,627,627,627,627,627,627,627,627,627,627,627,627,627,625,622,618,615,608,608,608,608,608,607,607,607,607,607,607,607,607,607,607,607,607,607,602,583,495,447,393,326,237,206,201,187,182,175,160,151,142,130,103,102,98],"timestamp_mouse":[7,41,47,67,87,108,126,147,167,187,208,227,248,268,288,307,327,347,368,388,408,426,448,468,487,507,527,548,568,588,608,627,648,668,688,707,727,747,768,787,807,827,848,867,888,907,927,947,967,988,1008,1027,1048,1068,1088,1107,1128,1148,1167,1187,1207,1227,1248,1267,1288,1308,1326,1348,1367,1388,1407,1427,1447,1467,1488,1508,1529,1547,1568,1587,1608,1628,1647,1667,1686,1708,1728,1747,1767],"xSR":741.5,"ySR":573.95,"xT1":424.9,"yT1":0,"xT2":1058.1,"yT2":0,"toosoon":0,"cond_shown":"equaldotanddens","ratio_trial":250,"smaller_num":"4","larger_num":"16","correct_side":2,"subjID":"GinaIsabelaCameloRocha9","gender":"1","age":"10","school":"4"},{"start_time":1552069658304,"click_time":1552069659049,"finger_time":1552069658829,"fix_duration":974.1874064708734,"trial":37,"RT":525,"MT":220,"sideResp":1,"stimulus":"img/750/equaldotsize/L/14_Ratio_750_L_8_R_6.png","xmouse":[780,780,780,780,780,780,780,780,780,780,780,780,780,780,780,780,780,780,780,780,780,780,781,781,779,773,763,715,678,630,576,539,517,516,512,500,483,453],"ymouse":[613,613,613,613,613,613,613,613,613,613,613,613,613,613,613,613,613,613,613,613,613,613,613,613,606,581,553,417,344,263,194,156,134,131,127,119,109,94],"timestamp_mouse":[5,25,47,66,84,105,126,145,165,186,206,225,246,266,286,306,325,346,366,385,405,425,445,466,486,506,525,545,566,585,605,626,645,665,685,706,726,745],"xSR":741.5,"ySR":573.95,"xT1":424.9,"yT1":0,"xT2":1058.1,"yT2":0,"toosoon":0,"cond_shown":"equaldotsize","ratio_trial":750,"smaller_num":"6","larger_num":"8","correct_side":1,"subjID":"GinaIsabelaCameloRocha9","gender":"1","age":"10","school":"4"},{"start_time":1552069660217,"click_time":1552069661349,"finger_time":1552069660870,"fix_duration":406.4574405423994,"trial":38,"RT":653,"MT":479,"sideResp":1,"stimulus":"img/750/equaldotanddens/L/6_Ratio_750_L_24_R_18.png","xmouse":[814,814,814,814,814,814,814,814,814,814,814,814,814,814,814,814,814,814,814,814,814,814,814,814,814,814,814,814,814,812,807,778,754,717,685,645,549,502,482,476,475,480,484,487,488,491,492,493,493,494,495,498,498,498,497,494,469],"ymouse":[637,637,637,637,637,637,637,637,637,637,637,637,637,637,637,637,637,637,637,637,637,637,637,637,637,637,637,637,637,635,627,597,569,519,463,394,258,204,182,176,175,170,164,156,151,145,141,141,140,137,136,130,128,124,119,115,92],"timestamp_mouse":[13,33,52,73,92,112,133,152,173,192,213,232,252,273,293,313,332,353,372,393,412,432,453,473,493,513,533,552,573,593,612,633,653,673,693,713,732,751,772,793,813,832,852,872,892,912,932,952,973,992,1012,1032,1053,1072,1093,1113,1132],"xSR":741.5,"ySR":573.95,"xT1":424.9,"yT1":0,"xT2":1058.1,"yT2":0,"toosoon":0,"cond_shown":"equaldotanddens","ratio_trial":750,"smaller_num":"18","larger_num":"24","correct_side":1,"subjID":"GinaIsabelaCameloRocha9","gender":"1","age":"10","school":"4"},{"start_time":1552069663414,"click_time":1552069664009,"finger_time":1552069663850,"fix_duration":1223.2894067564691,"trial":39,"RT":436,"MT":159,"sideResp":2,"stimulus":"img/900/randomdotsizeEA/R/3_Ratio_900_L_9_R_10.png","xmouse":[776,776,776,776,777,777,778,778,778,778,778,778,778,778,778,778,778,778,778,783,799,853,875,893,907,922,973,1011,1045,1066],"ymouse":[609,609,609,609,610,611,612,612,612,612,612,612,612,612,612,612,612,612,613,611,596,528,480,422,373,324,220,160,116,79],"timestamp_mouse":[16,38,55,75,96,116,135,156,175,196,216,235,256,276,296,315,334,355,375,395,416,436,455,475,496,516,535,555,575,595],"xSR":741.5,"ySR":573.95,"xT1":424.9,"yT1":0,"xT2":1058.1,"yT2":0,"toosoon":0,"cond_shown":"randomdotsizeEA","ratio_trial":900,"smaller_num":"9","larger_num":"10","correct_side":2,"subjID":"GinaIsabelaCameloRocha9","gender":"1","age":"10","school":"4"},{"start_time":1552069666068,"click_time":1552069666630,"finger_time":1552069666550,"fix_duration":1115.6194517343247,"trial":40,"RT":482,"MT":80,"sideResp":1,"stimulus":"img/500/randomdotsizeEA/L/8_Ratio_500_L_8_R_4.png","xmouse":[787,787,787,787,787,787,787,787,787,787,787,787,787,787,787,787,787,787,787,787,788,789,789,789,783,708,595,515,442],"ymouse":[628,627,627,627,627,627,627,627,627,627,627,627,627,627,627,626,626,626,626,625,621,614,606,591,571,452,315,203,98],"timestamp_mouse":[11,23,48,61,82,102,122,141,161,182,200,221,242,261,281,301,322,342,361,382,402,422,441,461,482,502,522,541,562],"xSR":741.5,"ySR":573.95,"xT1":424.9,"yT1":0,"xT2":1058.1,"yT2":0,"toosoon":0,"cond_shown":"randomdotsizeEA","ratio_trial":500,"smaller_num":"4","larger_num":"8","correct_side":1,"subjID":"GinaIsabelaCameloRocha9","gender":"1","age":"10","school":"4"},{"start_time":1552069669171,"click_time":1552069669929,"finger_time":1552069669829,"fix_duration":1418.3273813829421,"trial":41,"RT":658,"MT":100,"sideResp":2,"stimulus":"img/250/randomdotsizeEA/R/9_Ratio_250_L_3_R_12.png","xmouse":[791,791,791,791,791,791,791,791,792,792,792,792,792,792,792,792,792,792,792,792,792,792,792,792,792,792,792,792,792,792,792,792,802,827,867,953,992,1038,1065],"ymouse":[610,610,610,610,610,610,610,610,610,610,611,611,611,611,611,611,611,611,611,611,611,611,611,611,611,611,611,611,611,611,611,612,601,570,512,373,281,153,81],"timestamp_mouse":[1,19,38,59,79,99,117,139,158,178,198,219,238,258,278,298,319,338,359,378,398,419,438,459,478,498,518,538,559,578,598,619,639,658,679,698,719,739,758],"xSR":741.5,"ySR":573.95,"xT1":424.9,"yT1":0,"xT2":1058.1,"yT2":0,"toosoon":0,"cond_shown":"randomdotsizeEA","ratio_trial":250,"smaller_num":"3","larger_num":"12","correct_side":2,"subjID":"GinaIsabelaCameloRocha9","gender":"1","age":"10","school":"4"},{"start_time":1552069671200,"click_time":1552069672429,"finger_time":1552069672169,"fix_duration":250,"trial":42,"RT":969,"MT":260,"sideResp":1,"stimulus":"img/750/equaldotsize/R/12_Ratio_750_L_3_R_4.png","xmouse":[778,778,778,778,778,778,778,778,778,778,778,778,778,778,778,778,778,778,778,778,778,778,778,778,778,778,778,778,778,778,778,778,778,778,778,778,778,778,778,778,778,778,778,778,778,777,765,752,649,587,556,543,535,532,532,532,532,532,530,523,517,510],"ymouse":[615,615,615,615,615,615,615,615,615,615,615,615,615,615,615,615,615,615,615,615,615,615,615,615,615,615,615,615,615,615,615,615,615,615,615,615,615,615,615,615,615,615,615,615,615,615,607,585,477,406,360,326,297,259,243,218,200,180,157,111,100,92],"timestamp_mouse":[14,36,49,69,90,110,130,148,169,189,210,229,249,269,289,310,329,350,369,389,409,429,449,469,490,509,530,549,569,589,609,629,649,669,690,709,728,750,769,790,809,829,849,869,890,909,929,950,969,990,1009,1030,1049,1070,1089,1110,1130,1149,1169,1189,1210,1229],"xSR":741.5,"ySR":573.95,"xT1":424.9,"yT1":0,"xT2":1058.1,"yT2":0,"toosoon":0,"cond_shown":"equaldotsize","ratio_trial":750,"smaller_num":"3","larger_num":"4","correct_side":2,"subjID":"GinaIsabelaCameloRocha9","gender":"1","age":"10","school":"4"},{"start_time":1552069675005,"click_time":1552069675790,"finger_time":1552069675690,"fix_duration":1414.9028152693656,"trial":43,"RT":685,"MT":100,"sideResp":1,"stimulus":"img/750/equaldotanddens/L/14_Ratio_750_L_8_R_6.png","xmouse":[780,780,780,780,781,782,783,784,784,784,784,784,784,784,784,784,784,784,784,784,784,784,784,784,784,784,784,784,784,784,786,786,786,783,736,692,634,569,499,429],"ymouse":[616,616,616,616,616,616,616,616,616,616,616,616,616,616,616,616,616,616,616,616,616,616,616,616,616,616,616,616,616,616,615,612,604,589,496,423,332,234,144,38],"timestamp_mouse":[10,24,45,65,85,104,125,143,165,185,205,225,244,265,285,305,324,345,364,384,403,425,445,465,485,505,525,544,565,584,605,624,645,665,685,703,724,745,764,785],"xSR":741.5,"ySR":573.95,"xT1":424.9,"yT1":0,"xT2":1058.1,"yT2":0,"toosoon":0,"cond_shown":"equaldotanddens","ratio_trial":750,"smaller_num":"6","larger_num":"8","correct_side":1,"subjID":"GinaIsabelaCameloRocha9","gender":"1","age":"10","school":"4"},{"start_time":1552069678016,"click_time":1552069679049,"finger_time":1552069678389,"fix_duration":1463.3451156027463,"trial":44,"RT":373,"MT":660,"sideResp":1,"stimulus":"img/750/equaldotsize/L/8_Ratio_750_L_4_R_3.png","xmouse":[784,784,784,784,784,784,784,784,784,784,784,784,784,784,784,794,811,829,844,847,851,859,876,904,919,933,950,968,971,968,963,958,940,833,729,621,541,510,503,503,503,502,492,486,486,486,490,493,494,494,489,479],"ymouse":[628,628,628,628,628,628,628,628,628,628,628,628,628,628,627,617,604,589,567,562,554,540,516,460,415,378,331,281,264,257,257,257,264,317,358,383,389,384,360,335,306,275,239,211,198,183,168,156,139,127,109,96],"timestamp_mouse":[13,36,53,74,93,114,134,153,174,194,214,232,254,274,293,314,334,354,373,392,413,434,453,473,494,513,533,554,573,593,613,633,654,673,693,713,734,753,773,793,813,833,853,873,894,914,934,954,972,993,1013,1033],"xSR":741.5,"ySR":573.95,"xT1":424.9,"yT1":0,"xT2":1058.1,"yT2":0,"toosoon":0,"cond_shown":"equaldotsize","ratio_trial":750,"smaller_num":"3","larger_num":"4","correct_side":1,"subjID":"GinaIsabelaCameloRocha9","gender":"1","age":"10","school":"4"},{"start_time":1552069680709,"click_time":1552069681309,"finger_time":1552069681190,"fix_duration":736.2471446786425,"trial":45,"RT":481,"MT":119,"sideResp":2,"stimulus":"img/250/equaldotsize/R/4_Ratio_250_L_3_R_12.png","xmouse":[782,782,782,782,782,782,782,783,783,783,783,783,785,787,792,794,795,796,796,798,803,808,815,827,867,902,950,1005,1080,1116,1128],"ymouse":[633,633,633,633,633,633,633,633,633,633,633,633,633,633,628,627,625,625,624,623,615,608,596,575,487,437,369,290,182,105,81],"timestamp_mouse":[9,21,41,61,80,100,120,141,161,180,201,220,240,260,281,300,320,341,360,380,400,421,441,459,481,500,520,540,560,580,599],"xSR":741.5,"ySR":573.95,"xT1":424.9,"yT1":0,"xT2":1058.1,"yT2":0,"toosoon":0,"cond_shown":"equaldotsize","ratio_trial":250,"smaller_num":"3","larger_num":"12","correct_side":2,"subjID":"GinaIsabelaCameloRocha9","gender":"1","age":"10","school":"4"},{"start_time":1552069683744,"click_time":1552069684649,"finger_time":1552069684330,"fix_duration":1053.6429079685724,"trial":46,"RT":586,"MT":319,"sideResp":1,"stimulus":"img/750/equaldotanddens/L/8_Ratio_750_L_4_R_3.png","xmouse":[799,799,799,799,799,799,799,799,799,799,799,799,799,799,799,799,799,799,799,799,799,799,799,799,799,799,799,799,785,731,660,598,538,437,391,386,386,387,393,396,400,403,406,410,415,427],"ymouse":[627,627,627,627,627,627,627,627,627,627,627,627,627,627,627,627,627,627,627,627,627,627,627,627,627,627,627,626,611,568,517,458,384,225,140,124,120,118,109,104,96,92,89,86,85,83],"timestamp_mouse":[10,25,44,64,85,105,125,146,166,184,204,225,246,264,286,304,325,346,366,385,406,425,444,465,484,504,525,544,564,586,606,625,646,665,686,705,724,745,766,784,806,825,846,866,886,905],"xSR":741.5,"ySR":573.95,"xT1":424.9,"yT1":0,"xT2":1058.1,"yT2":0,"toosoon":0,"cond_shown":"equaldotanddens","ratio_trial":750,"smaller_num":"3","larger_num":"4","correct_side":1,"subjID":"GinaIsabelaCameloRocha9","gender":"1","age":"10","school":"4"},{"start_time":1552069686614,"click_time":1552069688149,"finger_time":1552069687649,"fix_duration":1083.833002402956,"trial":47,"RT":1035,"MT":500,"sideResp":2,"stimulus":"img/900/equaldotsize/R/9_Ratio_900_L_18_R_20.png","xmouse":[795,795,795,795,795,795,795,795,795,795,795,795,795,795,795,795,795,796,796,796,796,796,796,796,796,796,796,796,796,796,796,796,796,796,796,796,796,796,796,796,796,796,796,796,796,796,796,796,796,796,808,843,895,945,1000,1012,1021,1030,1043,1056,1061,1061,1063,1066,1072,1073,1074,1073,1073,1072,1072,1072,1072,1072,1074,1076,1076],"ymouse":[637,637,637,637,637,637,637,637,637,637,637,637,637,637,637,637,637,637,637,637,637,637,637,637,637,637,637,637,637,637,637,637,637,637,637,637,637,637,637,637,637,637,637,637,637,637,637,637,637,637,632,598,554,501,420,390,368,344,304,255,236,220,204,189,167,160,158,153,151,145,142,137,132,128,112,104,92],"timestamp_mouse":[16,42,55,75,95,116,135,156,175,195,216,235,254,276,294,315,334,356,376,395,414,434,455,476,495,515,535,554,575,595,616,636,654,674,695,715,735,755,775,795,815,835,855,875,896,914,936,954,975,994,1015,1035,1055,1076,1095,1115,1136,1156,1175,1195,1215,1234,1254,1276,1295,1314,1335,1355,1375,1395,1416,1434,1455,1475,1495,1514,1535],"xSR":741.5,"ySR":573.95,"xT1":424.9,"yT1":0,"xT2":1058.1,"yT2":0,"toosoon":0,"cond_shown":"equaldotsize","ratio_trial":900,"smaller_num":"18","larger_num":"20","correct_side":2,"subjID":"GinaIsabelaCameloRocha9","gender":"1","age":"10","school":"4"},{"start_time":1552069689528,"click_time":1552069691611,"finger_time":1552069690269,"fix_duration":656.0118902961414,"trial":48,"RT":741,"MT":1342,"sideResp":1,"stimulus":"img/750/randomdotsizeEA/L/9_Ratio_750_L_4_R_3.png","xmouse":[774,774,774,774,774,774,774,774,774,774,774,774,774,774,774,774,774,774,774,774,774,774,774,774,774,774,774,774,774,774,774,774,774,774,774,802,841,868,901,947,959,962,971,976,983,984,985,987,992,1006,1014,1021,1030,1039,1075,1082,1086,1089,1089,1091,1095,1097,1097,1097,1097,1097,1097,1097,1097,1097,1097,1097,1095,1087,1044,1009,979,955,936,920,823,791,690,633,586,551,545,543,540,525,452,439,438,438,438,438,438,438,438,438,438,438,438,438,438],"ymouse":[640,640,640,640,640,640,640,640,640,640,640,640,640,640,640,640,640,640,640,640,640,640,640,640,640,640,640,640,640,640,640,640,640,640,640,629,592,564,515,405,362,336,301,280,251,245,238,227,215,186,178,172,165,161,147,142,135,130,124,118,107,103,103,102,102,102,102,102,102,102,102,104,114,128,178,199,206,207,203,195,128,109,53,28,14,4,1,0,0,0,0,0,0,0,0,0,0,0,0,0,0,0,0,0,1],"timestamp_mouse":[9,21,47,61,81,100,120,141,161,181,200,220,242,262,281,301,321,340,362,381,401,421,442,462,481,501,522,542,560,581,602,622,642,660,682,702,722,741,762,781,801,820,841,861,881,901,921,942,962,981,1001,1020,1041,1062,1081,1101,1121,1142,1161,1182,1202,1221,1240,1262,1282,1302,1322,1340,1361,1382,1400,1421,1442,1461,1481,1501,1521,1541,1561,1580,1600,1621,1641,1661,1681,1701,1721,1742,1761,1782,1801,1821,1840,1860,1880,1901,1920,1941,1961,1982,2000,2022,2042,2061,2083],"xSR":741.5,"ySR":573.95,"xT1":424.9,"yT1":0,"xT2":1058.1,"yT2":0,"toosoon":0,"cond_shown":"randomdotsizeEA","ratio_trial":750,"smaller_num":"3","larger_num":"4","correct_side":1,"subjID":"GinaIsabelaCameloRocha9","gender":"1","age":"10","school":"4"},{"start_time":1552069693937,"click_time":1552069695150,"finger_time":1552069694469,"fix_duration":1326.023198612203,"trial":49,"RT":532,"MT":681,"sideResp":2,"stimulus":"img/900/equaldotsize/R/15_Ratio_900_L_9_R_10.png","xmouse":[799,799,799,799,799,799,798,798,798,798,798,798,798,798,798,798,798,798,798,798,798,798,798,798,813,837,868,891,916,933,946,968,993,1016,1031,1031,1032,1032,1032,1032,1032,1033,1036,1037,1041,1041,1042,1043,1045,1050,1053,1054,1056,1058,1062,1065,1070,1074,1079,1087,1089],"ymouse":[621,621,621,621,621,621,621,621,621,621,621,621,621,621,621,621,621,621,621,621,621,621,621,615,599,579,555,537,502,450,408,360,322,291,259,249,240,235,227,215,208,200,191,187,181,180,179,176,172,159,153,149,144,141,130,127,119,114,109,100,95],"timestamp_mouse":[12,31,52,71,93,112,132,151,171,192,213,232,253,273,292,313,332,351,372,393,412,432,453,472,493,512,532,553,573,592,612,632,653,673,692,713,732,753,773,791,812,832,852,872,893,911,932,953,972,993,1013,1032,1052,1073,1092,1112,1132,1151,1172,1192,1212],"xSR":741.5,"ySR":573.95,"xT1":424.9,"yT1":0,"xT2":1058.1,"yT2":0,"toosoon":0,"cond_shown":"equaldotsize","ratio_trial":900,"smaller_num":"9","larger_num":"10","correct_side":2,"subjID":"GinaIsabelaCameloRocha9","gender":"1","age":"10","school":"4"},{"start_time":1552069696261,"click_time":1552069697309,"finger_time":1552069697190,"fix_duration":250,"trial":50,"RT":929,"MT":119,"sideResp":1,"stimulus":"img/750/randomdotsizeEA/L/9_Ratio_750_L_4_R_3.png","xmouse":[811,811,811,810,810,810,810,810,810,810,810,810,810,810,810,810,810,810,810,810,810,810,810,810,810,810,810,810,810,810,810,810,810,810,810,810,810,810,810,810,810,810,810,805,786,748,657,552,471,468,472,494,497],"ymouse":[661,661,661,660,660,660,660,660,660,660,660,660,660,660,660,660,660,660,660,660,660,660,660,660,660,660,660,660,660,660,660,660,660,660,660,660,660,660,660,660,660,660,660,657,629,579,504,412,264,225,181,102,75],"timestamp_mouse":[12,37,49,67,88,107,129,149,167,188,208,229,247,267,289,308,329,348,368,387,409,429,449,467,489,509,527,548,568,587,607,628,649,669,688,709,729,749,768,788,808,828,848,868,888,909,929,948,967,988,1009,1028,1048],"xSR":741.5,"ySR":573.95,"xT1":424.9,"yT1":0,"xT2":1058.1,"yT2":0,"toosoon":0,"cond_shown":"randomdotsizeEA","ratio_trial":750,"smaller_num":"3","larger_num":"4","correct_side":1,"subjID":"GinaIsabelaCameloRocha9","gender":"1","age":"10","school":"4"},{"start_time":1552069698500,"click_time":1552069699430,"finger_time":1552069699149,"fix_duration":250,"trial":51,"RT":649,"MT":281,"sideResp":1,"stimulus":"img/250/randomdotsizeEA/L/1_Ratio_250_L_8_R_2.png","xmouse":[794,794,794,794,793,793,793,793,793,793,793,793,793,793,793,793,791,790,789,789,788,788,788,788,788,788,788,788,788,788,787,782,728,675,597,535,516,516,516,516,515,512,510,510,510,510,511],"ymouse":[647,647,647,647,647,647,647,647,647,647,647,647,647,647,647,647,647,646,644,642,638,638,638,638,638,638,638,638,638,636,636,625,537,446,335,243,192,179,160,148,139,125,110,107,105,104,99],"timestamp_mouse":[12,28,49,69,89,109,129,150,170,189,209,229,249,269,289,309,329,350,368,389,408,430,449,470,489,508,530,549,570,588,609,629,649,670,690,709,729,749,769,789,810,830,850,869,890,909,929],"xSR":741.5,"ySR":573.95,"xT1":424.9,"yT1":0,"xT2":1058.1,"yT2":0,"toosoon":0,"cond_shown":"randomdotsizeEA","ratio_trial":250,"smaller_num":"2","larger_num":"8","correct_side":1,"subjID":"GinaIsabelaCameloRocha9","gender":"1","age":"10","school":"4"},{"start_time":1552069700816,"click_time":1552069701949,"finger_time":1552069701530,"fix_duration":725.1068461796663,"trial":52,"RT":714,"MT":419,"sideResp":2,"stimulus":"img/900/equaldotanddens/R/5_Ratio_900_L_9_R_10.png","xmouse":[782,782,782,782,782,782,782,782,782,782,782,782,782,782,782,782,782,782,782,781,780,777,777,777,777,777,777,777,777,777,777,777,778,782,798,866,894,918,936,947,969,984,986,987,992,998,1011,1015,1019,1023,1025,1036,1041,1047,1053,1058,1063],"ymouse":[635,635,635,635,635,635,635,635,635,635,635,635,635,635,635,635,635,635,635,634,633,625,624,624,624,624,624,624,624,624,624,624,624,622,606,537,485,416,340,264,185,148,142,135,125,114,95,90,85,81,79,75,70,60,46,33,24],"timestamp_mouse":[14,43,53,73,93,112,132,153,173,193,213,234,254,274,293,312,334,352,372,394,413,433,454,474,492,514,533,554,572,594,613,634,654,674,693,714,733,754,772,794,813,832,853,873,893,914,934,953,972,993,1012,1032,1054,1073,1093,1114,1133],"xSR":741.5,"ySR":573.95,"xT1":424.9,"yT1":0,"xT2":1058.1,"yT2":0,"toosoon":0,"cond_shown":"equaldotanddens","ratio_trial":900,"smaller_num":"9","larger_num":"10","correct_side":2,"subjID":"GinaIsabelaCameloRocha9","gender":"1","age":"10","school":"4"},{"start_time":1552069704030,"click_time":1552069704630,"finger_time":1552069704449,"fix_duration":1258.2055950651802,"trial":53,"RT":419,"MT":181,"sideResp":1,"stimulus":"img/750/equaldotsize/L/9_Ratio_750_L_4_R_3.png","xmouse":[785,785,785,785,785,785,785,785,785,785,785,785,785,785,785,785,785,785,785,785,785,770,748,702,642,595,513,488,478,476,471],"ymouse":[633,633,633,633,633,633,633,633,633,633,633,633,633,633,633,633,633,633,633,624,604,550,503,423,346,280,172,137,120,110,95],"timestamp_mouse":[1,18,38,59,80,99,120,138,159,179,198,219,238,260,279,299,319,340,359,379,400,419,439,460,478,500,519,538,559,579,600],"xSR":741.5,"ySR":573.95,"xT1":424.9,"yT1":0,"xT2":1058.1,"yT2":0,"toosoon":0,"cond_shown":"equaldotsize","ratio_trial":750,"smaller_num":"3","larger_num":"4","correct_side":1,"subjID":"GinaIsabelaCameloRocha9","gender":"1","age":"10","school":"4"},{"start_time":1552069706016,"click_time":1552069706589,"finger_time":1552069706449,"fix_duration":304.1289960578779,"trial":54,"RT":433,"MT":140,"sideResp":1,"stimulus":"img/750/equaldotsize/L/9_Ratio_750_L_4_R_3.png","xmouse":[800,800,800,800,800,800,800,800,800,800,800,800,800,800,800,800,800,799,798,793,783,765,747,723,699,674,649,550,505],"ymouse":[622,622,622,622,622,622,622,622,622,622,622,622,622,622,622,622,622,620,619,611,592,550,507,453,394,339,278,148,92],"timestamp_mouse":[13,33,54,74,92,113,133,153,173,193,213,233,253,273,294,313,333,353,374,393,414,433,453,472,493,513,533,554,573],"xSR":741.5,"ySR":573.95,"xT1":424.9,"yT1":0,"xT2":1058.1,"yT2":0,"toosoon":0,"cond_shown":"equaldotsize","ratio_trial":750,"smaller_num":"3","larger_num":"4","correct_side":1,"subjID":"GinaIsabelaCameloRocha9","gender":"1","age":"10","school":"4"},{"start_time":1552069708034,"click_time":1552069709270,"finger_time":1552069708489,"fix_duration":625.673275146701,"trial":55,"RT":455,"MT":781,"sideResp":1,"stimulus":"img/900/equaldotsize/R/13_Ratio_900_L_18_R_20.png","xmouse":[788,788,788,788,788,788,788,788,788,788,788,788,788,788,788,788,788,788,788,788,801,822,842,859,870,876,873,865,841,820,743,683,629,577,523,448,436,436,436,436,437,438,439,440,445,450,455,457,458,458,458,458,458,458,458,457,457,457,457,457,457,457],"ymouse":[614,614,614,614,614,614,614,614,614,614,614,614,614,614,614,614,614,614,614,614,610,599,582,563,544,525,479,469,439,425,390,364,340,301,243,157,136,132,130,129,126,126,125,123,121,118,115,113,113,113,113,113,113,111,106,104,103,103,103,103,102,95],"timestamp_mouse":[15,35,54,75,95,116,135,156,175,195,215,234,254,274,296,316,336,354,376,396,415,435,455,475,494,515,535,556,576,595,616,635,655,676,696,715,735,755,775,795,816,835,855,876,895,916,935,956,976,994,1014,1036,1055,1075,1095,1115,1135,1155,1175,1195,1216,1236],"xSR":741.5,"ySR":573.95,"xT1":424.9,"yT1":0,"xT2":1058.1,"yT2":0,"toosoon":0,"cond_shown":"equaldotsize","ratio_trial":900,"smaller_num":"18","larger_num":"20","correct_side":2,"subjID":"GinaIsabelaCameloRocha9","gender":"1","age":"10","school":"4"},{"start_time":1552069711923,"click_time":1552069712809,"finger_time":1552069712509,"fix_duration":332.9587186856234,"trial":56,"RT":586,"MT":300,"sideResp":1,"stimulus":"img/250/equaldotanddens/L/2_Ratio_250_L_16_R_4.png","xmouse":[775,775,775,775,775,775,775,775,775,775,775,775,775,775,775,775,775,775,775,775,775,775,775,775,775,775,775,772,745,674,588,575,570,578,589,596,597,576,561,552,546,543,477,448,440],"ymouse":[614,614,614,614,614,614,614,614,614,614,614,614,614,614,614,614,614,614,614,614,614,614,614,614,614,614,614,614,606,571,505,488,473,460,440,423,410,363,340,324,297,285,145,103,90],"timestamp_mouse":[14,27,46,66,85,105,126,146,167,186,205,226,247,267,286,305,326,347,367,387,405,427,446,467,485,506,526,547,566,586,606,625,646,667,686,706,726,746,767,786,807,826,846,866,886],"xSR":741.5,"ySR":573.95,"xT1":424.9,"yT1":0,"xT2":1058.1,"yT2":0,"toosoon":0,"cond_shown":"equaldotanddens","ratio_trial":250,"smaller_num":"4","larger_num":"16","correct_side":1,"subjID":"GinaIsabelaCameloRocha9","gender":"1","age":"10","school":"4"},{"start_time":1552069714152,"click_time":1552069714949,"finger_time":1552069714509,"fix_duration":261.6946143192391,"trial":57,"RT":357,"MT":440,"sideResp":1,"stimulus":"img/250/equaldotanddens/L/5_Ratio_250_L_24_R_6.png","xmouse":[805,805,804,804,804,803,802,802,802,802,802,802,802,802,802,795,779,759,739,698,642,631,617,602,596,596,596,596,596,596,597,597,597,597,595,592,564,538,529,524],"ymouse":[617,617,617,617,617,617,617,617,617,617,617,617,617,617,617,614,597,573,554,504,401,360,311,259,216,171,152,127,116,109,100,97,93,91,88,86,73,62,58,57],"timestamp_mouse":[21,44,58,76,97,117,137,158,176,196,217,237,256,277,298,316,337,357,376,396,416,436,457,478,498,518,537,556,576,597,617,637,656,677,698,717,738,757,778,796],"xSR":741.5,"ySR":573.95,"xT1":424.9,"yT1":0,"xT2":1058.1,"yT2":0,"toosoon":0,"cond_shown":"equaldotanddens","ratio_trial":250,"smaller_num":"6","larger_num":"24","correct_side":1,"subjID":"GinaIsabelaCameloRocha9","gender":"1","age":"10","school":"4"},{"start_time":1552069716680,"click_time":1552069717790,"finger_time":1552069717230,"fix_duration":808.2757500471605,"trial":58,"RT":550,"MT":560,"sideResp":2,"stimulus":"img/500/equaldotsize/R/12_Ratio_500_L_1_R_2.png","xmouse":[784,784,784,784,784,784,784,784,784,784,784,784,784,784,784,784,784,784,784,784,784,784,784,784,784,789,808,862,900,917,921,925,930,933,943,947,953,959,964,970,983,994,1003,1010,1019,1022,1023,1024,1025,1032,1036,1042,1046,1050,1053,1062],"ymouse":[609,609,609,609,609,609,609,609,609,609,609,609,609,609,609,609,609,609,609,609,609,609,609,609,609,604,579,522,465,404,366,336,312,293,263,250,237,227,216,206,176,149,126,112,96,92,90,84,80,68,61,54,50,48,48,47],"timestamp_mouse":[10,29,49,69,90,110,129,150,168,189,209,230,250,270,289,310,329,348,370,388,409,430,450,470,488,508,529,550,570,590,608,628,648,669,689,709,729,749,769,790,810,830,848,869,890,909,929,949,970,988,1008,1028,1049,1070,1089,1110],"xSR":741.5,"ySR":573.95,"xT1":424.9,"yT1":0,"xT2":1058.1,"yT2":0,"toosoon":0,"cond_shown":"equaldotsize","ratio_trial":500,"smaller_num":"1","larger_num":"2","correct_side":2,"subjID":"GinaIsabelaCameloRocha9","gender":"1","age":"10","school":"4"},{"start_time":1552069721486,"click_time":1552069722570,"finger_time":1552069721929,"fix_duration":1094.8478799586128,"trial":59,"RT":443,"MT":641,"sideResp":2,"stimulus":"img/500/equaldotanddens/R/15_Ratio_500_L_1_R_2.png","xmouse":[768,768,768,768,768,768,768,768,768,768,768,768,768,768,768,768,768,768,768,768,779,804,841,884,911,946,969,1005,1053,1105,1247,1272,1282,1282,1282,1282,1280,1277,1273,1270,1263,1257,1244,1232,1221,1202,1197,1193,1191,1191,1189,1186,1177,1167,1157],"ymouse":[608,608,608,608,608,608,608,608,608,608,608,608,608,608,608,608,608,608,608,608,601,582,550,514,482,412,365,296,228,160,7,0,0,0,0,0,0,0,0,0,0,1,9,18,27,41,42,43,43,43,43,43,43,43,43],"timestamp_mouse":[21,38,42,62,83,104,124,144,163,183,203,223,244,264,283,303,324,342,364,383,403,424,443,463,483,503,522,544,562,583,603,623,642,663,682,703,723,742,763,784,803,822,843,863,883,905,923,943,963,983,1003,1024,1043,1063,1084],"xSR":741.5,"ySR":573.95,"xT1":424.9,"yT1":0,"xT2":1058.1,"yT2":0,"toosoon":0,"cond_shown":"equaldotanddens","ratio_trial":500,"smaller_num":"1","larger_num":"2","correct_side":2,"subjID":"GinaIsabelaCameloRocha9","gender":"1","age":"10","school":"4"},{"start_time":1552069725047,"click_time":1552069726129,"finger_time":1552069725649,"fix_duration":1214.3971298904282,"trial":60,"RT":602,"MT":480,"sideResp":1,"stimulus":"img/750/randomdotsizeEA/L/6_Ratio_750_L_24_R_18.png","xmouse":[794,794,794,794,794,794,794,794,794,794,794,794,794,794,794,794,794,794,794,794,794,794,794,794,794,794,792,790,779,762,746,728,698,694,694,694,694,679,654,607,574,547,527,517,520,524,526,525,523,523,523,523,522,520,515],"ymouse":[643,643,643,643,643,643,643,643,643,643,643,643,643,643,643,643,643,643,643,643,643,643,643,643,642,642,641,635,614,584,562,537,495,489,488,488,486,449,395,281,188,93,15,0,0,0,0,0,0,0,0,0,0,0,6],"timestamp_mouse":[13,23,42,63,83,102,122,142,161,182,203,222,241,263,282,302,323,342,363,382,402,422,443,461,482,503,522,543,563,581,602,623,643,662,681,702,722,744,762,783,801,822,843,864,882,902,922,943,961,982,1003,1022,1043,1062,1082],"xSR":741.5,"ySR":573.95,"xT1":424.9,"yT1":0,"xT2":1058.1,"yT2":0,"toosoon":0,"cond_shown":"randomdotsizeEA","ratio_trial":750,"smaller_num":"18","larger_num":"24","correct_side":1,"subjID":"GinaIsabelaCameloRocha9","gender":"1","age":"10","school":"4"},{"start_time":1552069728562,"click_time":1552069729370,"finger_time":1552069729130,"fix_duration":250,"trial":61,"RT":568,"MT":240,"sideResp":2,"stimulus":"img/500/equaldotsize/R/1_Ratio_500_L_9_R_18.png","xmouse":[807,807,807,807,805,805,805,805,805,805,805,805,805,805,805,805,805,805,805,805,805,805,805,805,805,805,805,809,842,901,973,1066,1096,1106,1117,1126,1131,1135,1135,1132,1129],"ymouse":[642,642,642,642,640,638,634,631,629,628,627,625,622,622,622,622,622,622,622,622,622,622,622,622,622,622,622,615,574,511,428,322,264,227,182,155,136,115,106,100,92],"timestamp_mouse":[14,27,47,67,87,107,127,147,167,188,207,227,247,267,286,306,328,347,368,388,408,427,448,468,487,508,526,547,568,588,607,627,647,668,687,707,727,747,767,788,808],"xSR":741.5,"ySR":573.95,"xT1":424.9,"yT1":0,"xT2":1058.1,"yT2":0,"toosoon":0,"cond_shown":"equaldotsize","ratio_trial":500,"smaller_num":"9","larger_num":"18","correct_side":2,"subjID":"GinaIsabelaCameloRocha9","gender":"1","age":"10","school":"4"},{"start_time":1552069731109,"click_time":1552069731710,"finger_time":1552069731590,"fix_duration":817.8891133778744,"trial":62,"RT":481,"MT":120,"sideResp":1,"stimulus":"img/750/equaldotanddens/L/8_Ratio_750_L_4_R_3.png","xmouse":[802,802,802,802,802,802,802,802,802,802,802,802,802,802,802,802,802,802,802,802,802,802,800,796,788,754,721,672,614,545,490],"ymouse":[594,594,594,594,594,594,594,594,594,594,594,594,594,594,594,594,594,594,594,594,594,594,589,579,558,478,415,332,233,138,52],"timestamp_mouse":[1,19,40,61,80,100,120,139,161,180,201,219,239,261,280,299,319,341,360,381,400,419,441,461,481,499,520,540,561,580,601],"xSR":741.5,"ySR":573.95,"xT1":424.9,"yT1":0,"xT2":1058.1,"yT2":0,"toosoon":0,"cond_shown":"equaldotanddens","ratio_trial":750,"smaller_num":"3","larger_num":"4","correct_side":1,"subjID":"GinaIsabelaCameloRocha9","gender":"1","age":"10","school":"4"},{"start_time":1552069735402,"click_time":1552069736010,"finger_time":1552069735948,"fix_duration":1412.8333418691536,"trial":63,"RT":546,"MT":62,"sideResp":1,"stimulus":"img/500/equaldotsize/L/8_Ratio_500_L_8_R_4.png","xmouse":[786,786,786,785,782,778,775,775,774,773,773,773,773,773,773,773,773,773,773,773,773,773,773,773,773,773,772,764,709,610,483],"ymouse":[586,586,586,585,589,592,598,599,600,602,602,602,603,603,603,603,603,603,603,603,603,603,603,603,603,603,603,563,437,273,87],"timestamp_mouse":[9,28,49,67,87,106,127,146,167,187,208,228,247,268,287,307,327,347,368,387,408,427,446,468,486,508,527,546,567,588,608],"xSR":741.5,"ySR":573.95,"xT1":424.9,"yT1":0,"xT2":1058.1,"yT2":0,"toosoon":0,"cond_shown":"equaldotsize","ratio_trial":500,"smaller_num":"4","larger_num":"8","correct_side":1,"subjID":"GinaIsabelaCameloRocha9","gender":"1","age":"10","school":"4"},{"start_time":1552069741180,"click_time":1552069742950,"finger_time":1552069741650,"fix_duration":889.2361735325777,"trial":64,"RT":470,"MT":1300,"sideResp":1,"stimulus":"img/250/randomdotsizeEA/L/15_Ratio_250_L_12_R_3.png","xmouse":[796,796,796,796,796,796,796,796,796,796,796,796,796,796,796,796,796,796,796,796,796,796,795,746,717,606,549,495,494,494,494,494,495,498,500,504,505,505,505,505,505,505,505,505,505,505,505,505,505,507,517,558,677,715,733,748,768,832,875,897,910,924,959,977,1002,1007,1009,1009,1009,1009,1009,1009,1008,988,917,857,789,705,691,683,675,669,657,635,623,585,554,526,501],"ymouse":[610,610,610,610,610,610,610,610,610,610,610,610,610,610,610,610,610,610,610,610,610,610,609,544,503,366,291,219,210,205,202,197,184,176,168,160,159,158,158,158,158,157,157,157,157,157,157,157,157,157,161,169,174,172,166,159,149,112,94,84,78,74,73,73,73,75,75,76,76,76,76,76,77,82,89,89,89,89,89,89,89,89,79,62,57,45,41,39,39],"timestamp_mouse":[9,38,49,69,90,108,129,149,170,190,210,228,249,270,290,309,329,349,370,390,410,430,449,470,490,508,529,549,568,589,610,630,649,668,688,709,730,749,770,789,808,828,849,870,890,908,930,949,969,989,1010,1029,1049,1069,1090,1109,1129,1149,1169,1189,1208,1229,1250,1269,1289,1309,1330,1349,1370,1389,1409,1429,1450,1469,1489,1509,1530,1550,1569,1589,1610,1630,1650,1669,1689,1709,1730,1749,1770],"xSR":741.5,"ySR":573.95,"xT1":424.9,"yT1":0,"xT2":1058.1,"yT2":0,"toosoon":0,"cond_shown":"randomdotsizeEA","ratio_trial":250,"smaller_num":"3","larger_num":"12","correct_side":1,"subjID":"GinaIsabelaCameloRocha9","gender":"1","age":"10","school":"4"},{"start_time":1552069744298,"click_time":1552069745649,"finger_time":1552069744969,"fix_duration":506.24255553544737,"trial":65,"RT":671,"MT":680,"sideResp":1,"stimulus":"img/500/randomdotsizeEA/L/13_Ratio_500_L_12_R_6.png","xmouse":[804,803,803,800,800,800,799,799,799,799,799,799,799,799,799,799,799,799,799,799,799,799,799,799,799,799,799,798,798,796,795,792,785,783,780,780,777,775,775,775,775,775,775,775,775,775,775,775,775,775,775,774,756,707,630,543,471,413,413,413,413,413,414,414,414,414,420,428],"ymouse":[617,617,617,618,618,618,618,618,618,618,618,618,618,618,618,618,618,618,618,618,618,618,618,618,618,618,618,618,618,618,617,611,574,562,551,543,538,532,532,532,532,532,532,532,532,532,532,532,532,532,532,531,514,451,371,277,198,112,111,110,110,109,107,107,107,106,97,87],"timestamp_mouse":[16,31,52,71,91,113,132,152,171,192,212,232,251,272,292,312,332,351,371,391,411,432,451,471,491,511,532,552,572,592,612,631,651,671,691,712,732,752,772,792,813,832,851,871,892,911,931,951,972,992,1011,1032,1051,1072,1091,1111,1132,1151,1171,1191,1212,1232,1251,1272,1292,1311,1333,1351],"xSR":741.5,"ySR":573.95,"xT1":424.9,"yT1":0,"xT2":1058.1,"yT2":0,"toosoon":0,"cond_shown":"randomdotsizeEA","ratio_trial":500,"smaller_num":"6","larger_num":"12","correct_side":1,"subjID":"GinaIsabelaCameloRocha9","gender":"1","age":"10","school":"4"},{"start_time":1552069748240,"click_time":1552069749351,"finger_time":1552069748949,"fix_duration":250,"trial":66,"RT":709,"MT":402,"sideResp":1,"stimulus":"img/500/equaldotsize/L/11_Ratio_500_L_12_R_6.png","xmouse":[797,797,797,797,797,797,797,797,797,797,797,797,797,797,797,797,797,797,797,797,797,797,797,797,797,797,797,797,797,797,797,797,797,793,787,743,726,714,709,701,694,644,579,506,432,365,364,364,364,364,366,370,373,379,390,432],"ymouse":[614,614,614,614,614,614,614,614,614,614,614,614,614,614,614,614,614,614,614,614,614,614,614,614,614,614,614,614,614,614,614,614,614,602,586,479,438,402,382,364,353,309,268,219,168,116,114,111,110,104,94,89,85,82,81,81],"timestamp_mouse":[15,29,50,70,89,109,129,149,169,190,210,230,250,270,290,310,330,350,370,389,411,430,450,470,490,509,529,549,570,590,609,630,650,670,690,709,729,749,770,790,809,830,850,869,890,909,929,949,969,989,1009,1029,1050,1070,1089,1110],"xSR":741.5,"ySR":573.95,"xT1":424.9,"yT1":0,"xT2":1058.1,"yT2":0,"toosoon":0,"cond_shown":"equaldotsize","ratio_trial":500,"smaller_num":"6","larger_num":"12","correct_side":1,"subjID":"GinaIsabelaCameloRocha9","gender":"1","age":"10","school":"4"},{"start_time":1552069750642,"click_time":1552069751610,"finger_time":1552069751470,"fix_duration":250,"trial":67,"RT":828,"MT":140,"sideResp":2,"stimulus":"img/900/equaldotsize/L/8_Ratio_900_L_20_R_18.png","xmouse":[804,804,804,804,804,804,804,804,804,804,804,804,804,804,804,804,804,804,804,804,804,804,804,804,804,804,804,804,804,804,804,804,804,804,804,804,804,804,806,814,823,859,879,894,911,972,1010,1051,1113],"ymouse":[608,608,608,608,608,608,608,608,608,608,608,608,608,608,608,608,608,608,608,608,608,608,608,608,608,608,608,608,608,608,608,608,608,608,608,608,608,608,608,601,591,560,541,516,476,336,252,180,73],"timestamp_mouse":[10,35,48,67,88,107,128,148,168,187,208,227,248,268,287,308,328,348,368,388,407,427,448,468,488,507,527,548,568,587,608,627,648,667,688,708,728,747,767,787,807,828,848,868,887,908,927,947,967],"xSR":741.5,"ySR":573.95,"xT1":424.9,"yT1":0,"xT2":1058.1,"yT2":0,"toosoon":0,"cond_shown":"equaldotsize","ratio_trial":900,"smaller_num":"18","larger_num":"20","correct_side":1,"subjID":"GinaIsabelaCameloRocha9","gender":"1","age":"10","school":"4"},{"start_time":1552069755618,"click_time":1552069757170,"finger_time":1552069756569,"fix_duration":606.5981370175525,"trial":68,"RT":951,"MT":601,"sideResp":2,"stimulus":"img/750/equaldotsize/R/2_Ratio_750_L_6_R_8.png","xmouse":[826,826,825,825,825,825,825,825,825,825,825,825,823,823,823,822,822,822,822,822,822,822,822,822,822,822,822,822,822,822,822,822,822,822,822,822,822,822,822,822,822,822,822,820,819,811,801,782,761,743,729,716,706,706,706,710,713,808,903,1009,1091,1144,1194,1195,1196,1201,1206,1215,1215,1214,1212,1212,1210,1204,1193,1171,1161,1158],"ymouse":[621,621,620,620,620,620,620,620,620,620,620,619,619,619,619,619,619,619,619,619,619,619,619,619,619,619,619,619,619,619,619,619,619,619,619,619,619,619,619,619,619,619,619,617,617,601,581,507,461,425,400,379,365,364,361,358,356,335,319,287,246,205,140,132,125,117,103,76,64,57,55,54,54,54,54,57,58,58],"timestamp_mouse":[17,31,51,71,91,111,131,151,171,191,211,231,251,271,292,311,331,351,372,391,411,432,451,472,491,511,532,551,572,592,612,631,652,671,692,711,732,751,772,791,812,832,851,871,892,912,931,951,971,992,1011,1032,1052,1071,1091,1112,1131,1151,1173,1191,1212,1231,1251,1270,1291,1311,1332,1352,1371,1391,1412,1431,1451,1471,1490,1511,1532,1552],"xSR":741.5,"ySR":573.95,"xT1":424.9,"yT1":0,"xT2":1058.1,"yT2":0,"toosoon":0,"cond_shown":"equaldotsize","ratio_trial":750,"smaller_num":"6","larger_num":"8","correct_side":2,"subjID":"GinaIsabelaCameloRocha9","gender":"1","age":"10","school":"4"},{"start_time":1552069760247,"click_time":1552069761129,"finger_time":1552069760929,"fix_duration":854.592115534972,"trial":69,"RT":682,"MT":200,"sideResp":2,"stimulus":"img/250/equaldotanddens/R/10_Ratio_250_L_4_R_16.png","xmouse":[782,782,782,782,782,782,782,782,782,782,782,782,782,782,782,782,782,782,782,782,782,782,782,782,782,782,782,782,782,782,782,782,782,793,822,856,938,977,1007,1025,1033,1035,1046,1054,1064],"ymouse":[634,634,634,634,634,634,634,634,634,634,634,634,634,634,634,634,634,634,634,634,634,634,634,634,634,634,634,634,634,634,634,634,634,615,565,504,362,288,235,192,166,146,113,99,84],"timestamp_mouse":[13,22,43,63,83,102,122,143,163,183,203,222,243,262,283,302,323,343,362,382,403,423,443,463,482,502,522,542,563,583,603,623,643,663,682,703,723,742,763,782,802,823,842,862,882],"xSR":741.5,"ySR":573.95,"xT1":424.9,"yT1":0,"xT2":1058.1,"yT2":0,"toosoon":0,"cond_shown":"equaldotanddens","ratio_trial":250,"smaller_num":"4","larger_num":"16","correct_side":2,"subjID":"GinaIsabelaCameloRocha9","gender":"1","age":"10","school":"4"},{"start_time":1552069764930,"click_time":1552069765929,"finger_time":1552069765590,"fix_duration":1357.7311092233697,"trial":70,"RT":660,"MT":339,"sideResp":1,"stimulus":"img/900/equaldotsize/R/13_Ratio_900_L_18_R_20.png","xmouse":[768,768,768,768,768,768,768,768,768,768,768,768,768,768,768,768,768,768,768,768,768,768,768,768,768,768,768,768,767,767,767,766,760,726,679,599,492,354,297,297,297,297,301,320,329,338,347,355,384,415,448],"ymouse":[642,642,642,642,642,642,642,642,642,642,642,642,642,642,642,642,642,642,642,642,642,642,642,642,642,642,642,642,642,636,622,609,581,498,426,332,234,119,69,69,69,67,59,34,22,12,4,0,0,0,1],"timestamp_mouse":[1,20,39,60,80,99,119,140,159,179,200,219,240,259,280,298,320,339,359,380,400,419,440,459,479,500,519,540,559,579,599,619,640,660,679,700,720,740,759,780,799,820,840,860,880,900,920,939,960,980,999],"xSR":741.5,"ySR":573.95,"xT1":424.9,"yT1":0,"xT2":1058.1,"yT2":0,"toosoon":0,"cond_shown":"equaldotsize","ratio_trial":900,"smaller_num":"18","larger_num":"20","correct_side":2,"subjID":"GinaIsabelaCameloRocha9","gender":"1","age":"10","school":"4"},{"start_time":1552069769281,"click_time":1552069770290,"finger_time":1552069770209,"fix_duration":1029.0592292351091,"trial":71,"RT":928,"MT":81,"sideResp":1,"stimulus":"img/900/randomdotsizeEA/L/4_Ratio_900_L_20_R_18.png","xmouse":[790,790,790,790,790,790,790,790,790,790,790,790,790,790,790,790,790,790,790,790,790,790,790,790,790,790,790,790,790,791,792,793,794,794,794,794,794,794,794,794,794,794,789,787,781,769,735,688,646,589,460],"ymouse":[626,626,626,626,626,626,626,626,626,626,626,626,626,626,626,626,626,626,626,626,626,626,626,626,626,626,626,626,626,626,626,626,626,626,626,626,626,626,626,626,626,626,626,625,622,615,578,493,399,287,80],"timestamp_mouse":[9,28,48,69,88,108,129,149,168,189,210,228,248,269,288,309,329,349,368,388,408,429,448,469,488,509,528,548,568,588,608,628,649,668,689,709,728,749,769,789,808,828,848,869,888,908,928,948,969,988,1009],"xSR":741.5,"ySR":573.95,"xT1":424.9,"yT1":0,"xT2":1058.1,"yT2":0,"toosoon":0,"cond_shown":"randomdotsizeEA","ratio_trial":900,"smaller_num":"18","larger_num":"20","correct_side":1,"subjID":"GinaIsabelaCameloRocha9","gender":"1","age":"10","school":"4"},{"start_time":1552069772679,"click_time":1552069773510,"finger_time":1552069773329,"fix_duration":1328.658045585883,"trial":72,"RT":650,"MT":181,"sideResp":2,"stimulus":"img/500/equaldotanddens/R/9_Ratio_500_L_2_R_4.png","xmouse":[787,785,775,768,767,767,767,767,767,767,767,766,766,766,766,766,767,768,769,769,769,769,769,769,769,769,769,770,773,778,789,814,824,839,863,891,999,1035,1061,1075,1083,1104],"ymouse":[591,588,586,586,586,586,586,586,586,586,586,586,586,586,586,587,595,597,599,599,599,599,599,599,599,599,599,599,599,599,598,581,564,530,472,407,247,197,161,137,116,79],"timestamp_mouse":[10,31,50,71,90,110,131,151,170,191,211,231,251,271,290,310,330,350,370,391,410,431,450,471,491,511,530,551,571,590,611,630,650,670,690,711,730,750,770,790,811,830],"xSR":741.5,"ySR":573.95,"xT1":424.9,"yT1":0,"xT2":1058.1,"yT2":0,"toosoon":0,"cond_shown":"equaldotanddens","ratio_trial":500,"smaller_num":"2","larger_num":"4","correct_side":2,"subjID":"GinaIsabelaCameloRocha9","gender":"1","age":"10","school":"4"},{"start_time":1552069777084,"click_time":1552069778130,"finger_time":1552069777689,"fix_duration":1154.9611277262989,"trial":73,"RT":605,"MT":441,"sideResp":2,"stimulus":"img/250/equaldotsize/R/13_Ratio_250_L_2_R_8.png","xmouse":[765,765,765,765,765,765,765,766,766,766,767,769,769,769,769,769,769,769,771,773,774,776,776,778,778,778,781,786,802,824,844,885,911,934,958,975,1016,1027,1031,1034,1036,1036,1036,1037,1037,1037,1039,1041,1044,1046,1054,1067,1098],"ymouse":[653,653,653,653,653,653,653,652,652,652,651,650,650,650,650,650,650,649,649,647,647,641,638,633,631,629,625,618,605,593,576,535,497,455,385,345,271,256,248,243,241,241,241,241,241,241,234,226,219,206,185,156,93],"timestamp_mouse":[12,42,45,66,85,105,125,145,165,185,206,226,246,265,286,306,325,345,366,386,405,426,445,466,486,506,526,545,566,586,605,626,645,665,685,705,726,745,766,785,805,826,846,865,885,906,926,945,966,985,1005,1026,1046],"xSR":741.5,"ySR":573.95,"xT1":424.9,"yT1":0,"xT2":1058.1,"yT2":0,"toosoon":0,"cond_shown":"equaldotsize","ratio_trial":250,"smaller_num":"2","larger_num":"8","correct_side":2,"subjID":"GinaIsabelaCameloRocha9","gender":"1","age":"10","school":"4"},{"start_time":1552069779346,"click_time":1552069780230,"finger_time":1552069779729,"fix_duration":375.1518856558158,"trial":74,"RT":383,"MT":501,"sideResp":1,"stimulus":"img/500/equaldotanddens/L/13_Ratio_500_L_12_R_6.png","xmouse":[806,806,806,806,806,806,806,806,806,806,806,806,806,806,806,806,806,806,809,824,837,843,843,838,813,803,795,784,774,719,677,630,594,573,563,563,563,563,563,545,515,500,497,497,492],"ymouse":[633,632,632,632,632,632,632,632,632,632,632,632,632,632,632,632,632,632,591,539,497,454,421,386,349,346,346,346,343,277,200,119,53,20,8,8,8,8,8,4,0,0,0,0,13],"timestamp_mouse":[4,37,44,64,83,103,124,143,163,183,203,224,244,263,283,303,323,343,365,383,404,423,444,463,483,503,524,544,564,583,603,623,643,663,684,704,723,745,764,785,803,823,843,863,884],"xSR":741.5,"ySR":573.95,"xT1":424.9,"yT1":0,"xT2":1058.1,"yT2":0,"toosoon":0,"cond_shown":"equaldotanddens","ratio_trial":500,"smaller_num":"6","larger_num":"12","correct_side":1,"subjID":"GinaIsabelaCameloRocha9","gender":"1","age":"10","school":"4"},{"start_time":155206978