[{"start_time":1552309501209,"click_time":1552309503878,"finger_time":1552309503678,"fix_duration":768.5139201222458,"trial":0,"RT":2469,"MT":200,"sideResp":1,"stimulus":"img/250/equaldotsize/L/15_Ratio_250_L_12_R_3.png","xmouse":[805,805,805,805,805,805,805,805,805,805,805,805,805,805,805,805,805,805,805,805,805,805,805,805,805,805,805,805,805,805,805,805,805,805,805,805,805,805,805,805,805,805,805,805,805,805,805,805,805,805,805,805,805,805,805,805,805,805,805,805,805,805,805,805,805,805,805,805,805,805,805,805,805,805,805,805,805,805,805,805,805,805,805,805,805,805,805,805,805,805,805,805,805,805,805,805,805,805,805,805,805,805,805,805,805,805,805,805,805,805,805,805,805,805,805,805,805,805,805,805,805,806,819,841,853,844,834,817,792,719,674,611,535,473],"ymouse":[550,550,550,550,550,550,550,550,550,550,550,550,550,550,550,550,550,550,550,550,550,550,550,550,550,550,550,550,550,550,550,550,550,550,550,550,550,550,550,550,550,550,550,550,550,550,550,550,550,550,550,550,550,550,550,550,550,550,550,550,550,550,550,550,550,550,550,550,550,550,550,550,550,550,550,550,550,550,550,550,550,550,550,550,550,550,550,550,550,550,550,550,550,550,550,550,550,550,550,550,550,550,550,550,550,550,550,550,550,550,550,550,550,550,550,550,550,550,550,550,550,540,501,417,350,317,291,270,250,198,165,120,66,25],"timestamp_mouse":[11,42,47,67,88,108,128,149,168,189,209,229,248,268,289,309,329,348,368,389,409,429,448,467,488,509,529,548,569,588,609,629,648,669,688,708,729,749,768,787,809,828,849,869,887,909,928,948,968,988,1009,1029,1048,1069,1088,1108,1129,1149,1169,1188,1209,1229,1249,1268,1288,1308,1329,1349,1369,1389,1409,1429,1448,1469,1489,1508,1529,1548,1569,1588,1609,1629,1648,1668,1689,1709,1729,1749,1769,1788,1809,1828,1848,1869,1888,1908,1929,1948,1969,1988,2008,2029,2048,2069,2088,2109,2129,2149,2168,2188,2208,2229,2249,2269,2289,2309,2328,2349,2368,2389,2408,2429,2449,2469,2488,2507,2528,2548,2568,2590,2608,2629,2648,2668],"xSR":741.5,"ySR":501.8,"xT1":424.9,"yT1":0,"xT2":1058.1,"yT2":0,"toosoon":0,"cond_shown":"equaldotsize","ratio_trial":250,"smaller_num":"3","larger_num":"12","correct_side":1,"subjID":"isabellacardenas15","gender":"1","age":"9","school":"4","test":{"fix_dur":[250,1500],"timestim":300,"targets_dim":[100,100],"targets_relative_coord":[0.3,0.7],"size_stim":[880,420],"start_dim":[100,100],"size_start":[300,300],"size_fix":60,"samplingrate":20,"img_types":["equaldotsize","equaldotanddens","randomdotsizeEA"],"ratios":[250,500,750,900],"rep_conds":9,"nTrials":120,"trials_to_rest":500,"Trials_order":[36,104,32,19,4,31,107,91,65,116,106,86,39,101,114,69,99,84,2,49,96,45,52,108,73,63,28,83,64,11,111,13,14,43,67,27,26,94,44,68,22,34,62,71,7,17,76,87,33,118,58,93,0,100,55,85,21,15,74,48,102,1,8,3,25,50,20,89,6,53,92,24,47,77,72,54,9,59,40,79,97,80,81,60,37,115,75,35,29,57,98,110,95,46,12,18,10,66,16,61,5,23,41,113,70,112,90,88,103,38,56,82,109,30,78,105,42,117,119,51],"cond_shown":["equaldotsize","randomdotsizeEA","randomdotsizeEA","equaldotanddens","equaldotanddens","equaldotanddens","randomdotsizeEA","equaldotanddens","randomdotsizeEA","randomdotsizeEA","equaldotanddens","randomdotsizeEA","equaldotsize","randomdotsizeEA","equaldotsize","equaldotsize","equaldotsize","equaldotsize","randomdotsizeEA","equaldotanddens","equaldotsize","equaldotsize","equaldotanddens","equaldotsize","equaldotanddens","equaldotsize","equaldotanddens","randomdotsizeEA","equaldotanddens","randomdotsizeEA","equaldotsize","equaldotanddens","randomdotsizeEA","equaldotanddens","equaldotanddens","equaldotsize","randomdotsizeEA","equaldotanddens","randomdotsizeEA","randomdotsizeEA","equaldotanddens","equaldotanddens","randomdotsizeEA","randomdotsizeEA","equaldotanddens","randomdotsizeEA","equaldotanddens","equaldotsize","equaldotsize","equaldotanddens","equaldotanddens","equaldotsize","equaldotsize","equaldotanddens","equaldotanddens","equaldotanddens","equaldotsize","equaldotsize","randomdotsizeEA","equaldotsize","equaldotsize","equaldotanddens","randomdotsizeEA","equaldotsize","equaldotanddens","randomdotsizeEA","randomdotsizeEA","randomdotsizeEA","equaldotsize","randomdotsizeEA","randomdotsizeEA","equaldotsize","randomdotsizeEA","randomdotsizeEA","equaldotsize","equaldotsize","equaldotsize","randomdotsizeEA","equaldotanddens","equaldotanddens","equaldotanddens","randomdotsizeEA","equaldotsize","equaldotsize","equaldotanddens","equaldotanddens","equaldotsize","randomdotsizeEA","randomdotsizeEA","equaldotsize","randomdotsizeEA","randomdotsizeEA","randomdotsizeEA","equaldotanddens","equaldotsize","equaldotsize","equaldotanddens","equaldotsize","equaldotanddens","equaldotanddens","randomdotsizeEA","randomdotsizeEA","randomdotsizeEA","randomdotsizeEA","equaldotanddens","equaldotanddens","equaldotsize","equaldotanddens","equaldotanddens","randomdotsizeEA","randomdotsizeEA","equaldotanddens","equaldotanddens","equaldotsize","equaldotsize","equaldotsize","equaldotsize","equaldotsize","randomdotsizeEA","equaldotsize"],"ratio_trial":[250,750,750,750,500,750,900,750,500,750,900,250,500,500,750,900,500,250,250,250,250,900,500,250,250,500,500,900,500,900,500,250,250,750,750,500,250,900,750,750,900,900,250,900,750,500,500,500,900,900,900,900,250,500,750,250,900,500,250,250,750,250,750,500,250,250,750,500,750,500,750,250,900,500,250,750,900,900,500,750,250,750,900,250,250,750,500,900,500,900,250,250,900,900,250,750,900,750,500,250,500,900,500,500,900,500,750,500,750,250,750,900,250,750,750,900,750,900,900,500],"smaller_num":["3","6","3","15","6","3","9","6","2","3","9","4","6","2","3","18","6","3","4","3","4","18","1","2","2","2","1","18","2","18","9","5","3","3","3","6","6","9","15","3","9","9","3","9","15","6","2","1","9","9","18","9","2","1","15","2","18","2","3","6","3","4","3","2","5","1","3","9","18","3","12","5","9","9","5","15","18","18","2","3","2","15","18","2","2","15","5","18","3","9","6","3","18","9","2","18","18","15","1","2","1","18","9","5","18","1","15","4","18","3","3","18","6","6","15","9","15","18","18","4"],"larger_num":["12","8","4","20","12","4","10","8","4","4","10","16","12","4","4","20","12","12","16","12","16","20","2","8","8","4","2","20","4","20","18","20","12","4","4","12","24","10","20","4","10","10","12","10","20","12","4","2","10","10","20","10","8","2","20","8","20","4","12","24","4","16","4","4","20","4","4","18","24","6","16","20","10","18","20","20","20","20","4","4","8","20","20","8","8","20","10","20","6","10","24","12","20","10","8","24","20","20","2","8","2","20","18","10","20","2","20","8","24","12","4","20","24","8","20","10","20","20","20","8"],"correct_side":[1,1,2,2,1,2,2,1,2,1,2,2,1,1,1,2,1,2,2,1,2,2,2,2,1,1,2,2,2,1,2,2,2,1,2,1,2,2,1,1,2,1,2,1,2,1,1,2,2,1,1,2,1,2,2,1,1,2,1,1,1,2,1,2,2,2,1,1,1,2,2,2,2,2,2,2,1,1,2,1,1,2,1,1,1,2,2,2,2,2,2,1,1,2,1,1,1,1,2,1,2,1,2,2,2,2,2,1,1,2,1,2,2,1,2,1,2,2,1,1],"img_shown":["img/250/equaldotsize/L/15_Ratio_250_L_12_R_3.png","img/750/randomdotsizeEA/L/13_Ratio_750_L_8_R_6.png","img/750/randomdotsizeEA/R/7_Ratio_750_L_3_R_4.png","img/750/equaldotanddens/R/3_Ratio_750_L_15_R_20.png","img/500/equaldotanddens/L/13_Ratio_500_L_12_R_6.png","img/750/equaldotanddens/R/12_Ratio_750_L_3_R_4.png","img/900/randomdotsizeEA/R/5_Ratio_900_L_9_R_10.png","img/750/equaldotanddens/L/14_Ratio_750_L_8_R_6.png","img/500/randomdotsizeEA/R/9_Ratio_500_L_2_R_4.png","img/750/randomdotsizeEA/L/9_Ratio_750_L_4_R_3.png","img/900/equaldotanddens/R/7_Ratio_900_L_9_R_10.png","img/250/randomdotsizeEA/R/10_Ratio_250_L_4_R_16.png","img/500/equaldotsize/L/13_Ratio_500_L_12_R_6.png","img/500/randomdotsizeEA/L/5_Ratio_500_L_4_R_2.png","img/750/equaldotsize/L/9_Ratio_750_L_4_R_3.png","img/900/equaldotsize/R/13_Ratio_900_L_18_R_20.png","img/500/equaldotsize/L/11_Ratio_500_L_12_R_6.png","img/250/equaldotsize/R/9_Ratio_250_L_3_R_12.png","img/250/randomdotsizeEA/R/10_Ratio_250_L_4_R_16.png","img/250/equaldotanddens/L/15_Ratio_250_L_12_R_3.png","img/250/equaldotsize/R/10_Ratio_250_L_4_R_16.png","img/900/equaldotsize/R/13_Ratio_900_L_18_R_20.png","img/500/equaldotanddens/R/15_Ratio_500_L_1_R_2.png","img/250/equaldotsize/R/13_Ratio_250_L_2_R_8.png","img/250/equaldotanddens/L/3_Ratio_250_L_8_R_2.png","img/500/equaldotsize/L/5_Ratio_500_L_4_R_2.png","img/500/equaldotanddens/R/12_Ratio_500_L_1_R_2.png","img/900/randomdotsizeEA/R/12_Ratio_900_L_18_R_20.png","img/500/equaldotanddens/R/9_Ratio_500_L_2_R_4.png","img/900/randomdotsizeEA/L/2_Ratio_900_L_20_R_18.png","img/500/equaldotsize/R/6_Ratio_500_L_9_R_18.png","img/250/equaldotanddens/R/12_Ratio_250_L_5_R_20.png","img/250/randomdotsizeEA/R/4_Ratio_250_L_3_R_12.png","img/750/equaldotanddens/L/10_Ratio_750_L_4_R_3.png","img/750/equaldotanddens/R/7_Ratio_750_L_3_R_4.png","img/500/equaldotsize/L/11_Ratio_500_L_12_R_6.png","img/250/randomdotsizeEA/R/6_Ratio_250_L_6_R_24.png","img/900/equaldotanddens/R/5_Ratio_900_L_9_R_10.png","img/750/randomdotsizeEA/L/1_Ratio_750_L_20_R_15.png","img/750/randomdotsizeEA/L/9_Ratio_750_L_4_R_3.png","img/900/equaldotanddens/R/3_Ratio_900_L_9_R_10.png","img/900/equaldotanddens/L/1_Ratio_900_L_10_R_9.png","img/250/randomdotsizeEA/R/11_Ratio_250_L_3_R_12.png","img/900/randomdotsizeEA/L/1_Ratio_900_L_10_R_9.png","img/750/equaldotanddens/R/4_Ratio_750_L_15_R_20.png","img/500/randomdotsizeEA/L/13_Ratio_500_L_12_R_6.png","img/500/equaldotanddens/L/10_Ratio_500_L_4_R_2.png","img/500/equaldotsize/R/12_Ratio_500_L_1_R_2.png","img/900/equaldotsize/R/7_Ratio_900_L_9_R_10.png","img/900/equaldotanddens/L/1_Ratio_900_L_10_R_9.png","img/900/equaldotanddens/L/4_Ratio_900_L_20_R_18.png","img/900/equaldotsize/R/5_Ratio_900_L_9_R_10.png","img/250/equaldotsize/L/3_Ratio_250_L_8_R_2.png","img/500/equaldotanddens/R/12_Ratio_500_L_1_R_2.png","img/750/equaldotanddens/R/3_Ratio_750_L_15_R_20.png","img/250/equaldotanddens/L/3_Ratio_250_L_8_R_2.png","img/900/equaldotsize/L/8_Ratio_900_L_20_R_18.png","img/500/equaldotsize/R/9_Ratio_500_L_2_R_4.png","img/250/randomdotsizeEA/L/14_Ratio_250_L_12_R_3.png","img/250/equaldotsize/L/5_Ratio_250_L_24_R_6.png","img/750/equaldotsize/L/9_Ratio_750_L_4_R_3.png","img/250/equaldotanddens/R/10_Ratio_250_L_4_R_16.png","img/750/randomdotsizeEA/L/9_Ratio_750_L_4_R_3.png","img/500/equaldotsize/R/9_Ratio_500_L_2_R_4.png","img/250/equaldotanddens/R/12_Ratio_250_L_5_R_20.png","img/250/randomdotsizeEA/R/8_Ratio_250_L_1_R_4.png","img/750/randomdotsizeEA/L/9_Ratio_750_L_4_R_3.png","img/500/randomdotsizeEA/L/4_Ratio_500_L_18_R_9.png","img/750/equaldotsize/L/6_Ratio_750_L_24_R_18.png","img/500/randomdotsizeEA/R/2_Ratio_500_L_3_R_6.png","img/750/randomdotsizeEA/R/11_Ratio_750_L_12_R_16.png","img/250/equaldotsize/R/12_Ratio_250_L_5_R_20.png","img/900/randomdotsizeEA/R/15_Ratio_900_L_9_R_10.png","img/500/randomdotsizeEA/R/6_Ratio_500_L_9_R_18.png","img/250/equaldotsize/R/12_Ratio_250_L_5_R_20.png","img/750/equaldotsize/R/5_Ratio_750_L_15_R_20.png","img/900/equaldotsize/L/10_Ratio_900_L_20_R_18.png","img/900/randomdotsizeEA/L/4_Ratio_900_L_20_R_18.png","img/500/equaldotanddens/R/9_Ratio_500_L_2_R_4.png","img/750/equaldotanddens/L/9_Ratio_750_L_4_R_3.png","img/250/equaldotanddens/L/3_Ratio_250_L_8_R_2.png","img/750/randomdotsizeEA/R/4_Ratio_750_L_15_R_20.png","img/900/equaldotsize/L/4_Ratio_900_L_20_R_18.png","img/250/equaldotsize/L/7_Ratio_250_L_8_R_2.png","img/250/equaldotanddens/L/7_Ratio_250_L_8_R_2.png","img/750/equaldotanddens/R/5_Ratio_750_L_15_R_20.png","img/500/equaldotsize/R/14_Ratio_500_L_5_R_10.png","img/900/randomdotsizeEA/R/14_Ratio_900_L_18_R_20.png","img/500/randomdotsizeEA/R/2_Ratio_500_L_3_R_6.png","img/900/equaldotsize/R/7_Ratio_900_L_9_R_10.png","img/250/randomdotsizeEA/R/6_Ratio_250_L_6_R_24.png","img/250/randomdotsizeEA/L/14_Ratio_250_L_12_R_3.png","img/900/randomdotsizeEA/L/8_Ratio_900_L_20_R_18.png","img/900/equaldotanddens/R/15_Ratio_900_L_9_R_10.png","img/250/equaldotsize/L/7_Ratio_250_L_8_R_2.png","img/750/equaldotsize/L/6_Ratio_750_L_24_R_18.png","img/900/equaldotanddens/L/2_Ratio_900_L_20_R_18.png","img/750/equaldotsize/L/1_Ratio_750_L_20_R_15.png","img/500/equaldotanddens/R/12_Ratio_500_L_1_R_2.png","img/250/equaldotanddens/L/1_Ratio_250_L_8_R_2.png","img/500/randomdotsizeEA/R/15_Ratio_500_L_1_R_2.png","img/900/randomdotsizeEA/L/10_Ratio_900_L_20_R_18.png","img/500/randomdotsizeEA/R/1_Ratio_500_L_9_R_18.png","img/500/randomdotsizeEA/R/14_Ratio_500_L_5_R_10.png","img/900/equaldotanddens/R/14_Ratio_900_L_18_R_20.png","img/500/equaldotanddens/R/15_Ratio_500_L_1_R_2.png","img/750/equaldotsize/R/4_Ratio_750_L_15_R_20.png","img/500/equaldotanddens/L/8_Ratio_500_L_8_R_4.png","img/750/equaldotanddens/L/6_Ratio_750_L_24_R_18.png","img/250/randomdotsizeEA/R/4_Ratio_250_L_3_R_12.png","img/750/randomdotsizeEA/L/8_Ratio_750_L_4_R_3.png","img/900/equaldotanddens/R/9_Ratio_900_L_18_R_20.png","img/250/equaldotanddens/R/6_Ratio_250_L_6_R_24.png","img/750/equaldotsize/L/14_Ratio_750_L_8_R_6.png","img/750/equaldotsize/R/3_Ratio_750_L_15_R_20.png","img/900/equaldotsize/L/1_Ratio_900_L_10_R_9.png","img/750/equaldotsize/R/4_Ratio_750_L_15_R_20.png","img/900/equaldotsize/R/9_Ratio_900_L_18_R_20.png","img/900/randomdotsizeEA/L/2_Ratio_900_L_20_R_18.png","img/500/equaldotsize/L/8_Ratio_500_L_8_R_4.png"],"Rat0":[["12_Ratio_0_L_9_R_0.png","13_Ratio_0_L_6_R_0.png","5_Ratio_0_L_2_R_0.png","6_Ratio_0_L_4_R_0.png","8_Ratio_0_L_6_R_0.png"],["1_Ratio_0_L_0_R_17.png","10_Ratio_0_L_0_R_22.png","11_Ratio_0_L_0_R_1.png","14_Ratio_0_L_0_R_24.png","15_Ratio_0_L_0_R_4.png","2_Ratio_0_L_0_R_5.png","3_Ratio_0_L_0_R_17.png","4_Ratio_0_L_0_R_7.png","7_Ratio_0_L_0_R_19.png","9_Ratio_0_L_0_R_15.png"]],"Rat250":[["1_Ratio_250_L_8_R_2.png","14_Ratio_250_L_12_R_3.png","15_Ratio_250_L_12_R_3.png","2_Ratio_250_L_16_R_4.png","3_Ratio_250_L_8_R_2.png","5_Ratio_250_L_24_R_6.png","7_Ratio_250_L_8_R_2.png"],["10_Ratio_250_L_4_R_16.png","11_Ratio_250_L_3_R_12.png","12_Ratio_250_L_5_R_20.png","13_Ratio_250_L_2_R_8.png","4_Ratio_250_L_3_R_12.png","6_Ratio_250_L_6_R_24.png","8_Ratio_250_L_1_R_4.png","9_Ratio_250_L_3_R_12.png"]],"Rat500":[["10_Ratio_500_L_4_R_2.png","11_Ratio_500_L_12_R_6.png","13_Ratio_500_L_12_R_6.png","4_Ratio_500_L_18_R_9.png","5_Ratio_500_L_4_R_2.png","7_Ratio_500_L_10_R_5.png","8_Ratio_500_L_8_R_4.png"],["1_Ratio_500_L_9_R_18.png","12_Ratio_500_L_1_R_2.png","14_Ratio_500_L_5_R_10.png","15_Ratio_500_L_1_R_2.png","2_Ratio_500_L_3_R_6.png","3_Ratio_500_L_10_R_20.png","6_Ratio_500_L_9_R_18.png","9_Ratio_500_L_2_R_4.png"]],"Rat750":[["1_Ratio_750_L_20_R_15.png","10_Ratio_750_L_4_R_3.png","13_Ratio_750_L_8_R_6.png","14_Ratio_750_L_8_R_6.png","6_Ratio_750_L_24_R_18.png","8_Ratio_750_L_4_R_3.png","9_Ratio_750_L_4_R_3.png"],["11_Ratio_750_L_12_R_16.png","12_Ratio_750_L_3_R_4.png","15_Ratio_750_L_9_R_12.png","2_Ratio_750_L_6_R_8.png","3_Ratio_750_L_15_R_20.png","4_Ratio_750_L_15_R_20.png","5_Ratio_750_L_15_R_20.png","7_Ratio_750_L_3_R_4.png"]],"Rat900":[["1_Ratio_900_L_10_R_9.png","10_Ratio_900_L_20_R_18.png","2_Ratio_900_L_20_R_18.png","4_Ratio_900_L_20_R_18.png","8_Ratio_900_L_20_R_18.png"],["11_Ratio_900_L_18_R_20.png","12_Ratio_900_L_18_R_20.png","13_Ratio_900_L_18_R_20.png","14_Ratio_900_L_18_R_20.png","15_Ratio_900_L_9_R_10.png","3_Ratio_900_L_9_R_10.png","5_Ratio_900_L_9_R_10.png","6_Ratio_900_L_9_R_10.png","7_Ratio_900_L_9_R_10.png","9_Ratio_900_L_18_R_20.png"]],"Rat1000":[["10_Ratio_1000_L_16_R_16.png","11_Ratio_1000_L_6_R_6.png","12_Ratio_1000_L_14_R_14.png","13_Ratio_1000_L_20_R_20.png","15_Ratio_1000_L_15_R_15.png","2_Ratio_1000_L_17_R_17.png","4_Ratio_1000_L_9_R_9.png","5_Ratio_1000_L_6_R_6.png","6_Ratio_1000_L_19_R_19.png","8_Ratio_1000_L_14_R_14.png","9_Ratio_1000_L_25_R_25.png"],["1_Ratio_1000_L_1_R_1.png","14_Ratio_1000_L_17_R_17.png","3_Ratio_1000_L_17_R_17.png","7_Ratio_1000_L_6_R_6.png"]]}},{"start_time":1552309508162,"click_time":1552309509937,"finger_time":1552309509198,"fix_duration":722.0460934225106,"trial":1,"RT":1036,"MT":739,"sideResp":2,"stimulus":"img/750/randomdotsizeEA/L/13_Ratio_750_L_8_R_6.png","xmouse":[787,787,787,787,787,787,787,787,787,787,787,787,787,787,787,787,787,787,787,787,787,787,787,787,787,787,787,787,787,787,787,787,787,787,787,787,787,787,787,787,787,787,787,787,787,787,787,788,790,791,793,796,796,797,797,797,797,799,799,803,813,824,876,940,972,992,1001,1007,1008,1009,1009,1010,1016,1023,1027,1032,1036,1060,1075,1092,1111,1119,1122,1123,1124,1125,1125,1125,1125],"ymouse":[523,523,523,523,523,523,523,523,523,523,523,523,523,523,523,523,523,523,523,523,523,523,523,523,523,523,523,523,523,523,523,523,523,523,523,523,523,523,523,523,523,523,523,523,523,523,523,521,513,503,487,465,411,393,368,360,355,350,349,343,332,323,295,268,254,246,240,235,233,232,230,229,216,203,198,192,187,163,150,138,125,118,116,112,110,107,105,102,99],"timestamp_mouse":[16,38,55,76,96,115,136,156,175,196,215,236,255,275,296,315,336,355,376,396,415,436,455,476,495,516,536,556,576,595,616,635,655,676,695,716,736,756,774,796,815,835,855,875,895,915,935,955,974,995,1015,1036,1056,1076,1095,1116,1135,1156,1175,1195,1215,1235,1255,1276,1295,1314,1335,1355,1375,1395,1415,1435,1455,1475,1495,1515,1534,1555,1575,1596,1615,1637,1655,1676,1695,1715,1735,1755,1775],"xSR":741.5,"ySR":469.95,"xT1":424.9,"yT1":0,"xT2":1058.1,"yT2":0,"toosoon":0,"cond_shown":"randomdotsizeEA","ratio_trial":750,"smaller_num":"6","larger_num":"8","correct_side":1,"subjID":"isabellacardenas15","gender":"1","age":"9","school":"4"},{"start_time":1552309512749,"click_time":1552309514337,"finger_time":1552309513777,"fix_duration":1308.3442189642712,"trial":2,"RT":1028,"MT":560,"sideResp":1,"stimulus":"img/750/randomdotsizeEA/R/7_Ratio_750_L_3_R_4.png","xmouse":[808,808,808,808,808,808,808,808,808,808,808,808,808,808,808,808,808,808,808,808,808,808,808,808,808,808,808,808,808,808,808,808,808,808,808,808,808,808,808,808,808,808,808,808,808,807,804,797,776,759,746,732,722,711,706,700,691,682,670,647,639,633,630,625,609,600,590,579,571,563,559,554,545,536,514,506,500,494,489,486],"ymouse":[525,525,525,525,525,525,525,525,525,525,525,525,525,525,525,525,525,525,525,525,525,525,525,525,525,525,525,525,525,525,525,525,525,525,525,525,525,525,525,525,525,525,525,525,525,525,524,519,501,489,478,466,456,447,442,438,433,426,417,399,390,379,369,356,316,298,281,265,252,235,226,213,199,186,153,140,124,111,102,93],"timestamp_mouse":[10,41,49,69,89,109,130,148,168,188,208,228,248,268,289,308,328,348,368,389,408,429,449,469,489,507,528,548,567,588,608,628,649,669,689,708,729,749,769,789,808,829,849,868,889,908,929,948,969,988,1008,1028,1048,1069,1088,1108,1129,1148,1168,1188,1209,1228,1248,1268,1288,1308,1328,1349,1368,1388,1408,1428,1449,1468,1489,1508,1527,1548,1568,1588],"xSR":741.5,"ySR":469.95,"xT1":424.9,"yT1":0,"xT2":1058.1,"yT2":0,"toosoon":0,"cond_shown":"randomdotsizeEA","ratio_trial":750,"smaller_num":"3","larger_num":"4","correct_side":2,"subjID":"isabellacardenas15","gender":"1","age":"9","school":"4"},{"start_time":1552309516246,"click_time":1552309518758,"finger_time":1552309518337,"fix_duration":768.9342773259785,"trial":3,"RT":2091,"MT":421,"sideResp":2,"stimulus":"img/750/equaldotanddens/R/3_Ratio_750_L_15_R_20.png","xmouse":[792,792,792,792,792,792,792,792,792,792,792,792,792,792,792,792,792,792,792,792,792,792,792,792,792,792,792,792,792,792,792,792,792,792,792,792,792,792,792,792,792,792,792,792,792,792,792,792,792,792,792,792,792,792,792,792,792,792,792,792,792,792,792,792,792,792,792,792,792,792,792,792,792,792,792,792,792,792,792,792,792,792,792,792,792,794,796,798,804,826,833,835,835,835,835,835,835,835,835,835,835,835,835,839,859,878,887,895,902,906,915,925,933,941,951,955,960,967,981,1008,1022,1035,1050,1055,1063,1071],"ymouse":[514,514,514,514,514,514,514,514,514,514,514,514,514,514,514,514,514,514,514,514,514,514,514,514,514,514,514,514,514,514,514,514,514,514,514,514,514,514,514,514,514,514,514,514,514,514,514,514,514,514,514,514,514,514,514,514,514,514,514,514,514,514,514,514,514,514,514,514,514,514,514,514,514,514,514,514,514,514,514,514,514,514,514,514,515,515,514,513,510,491,483,480,480,480,480,480,480,480,480,480,480,480,480,477,468,457,445,424,399,371,316,299,290,286,281,276,269,262,248,221,206,190,165,155,135,88],"timestamp_mouse":[11,41,51,72,91,112,131,152,171,191,212,232,252,271,291,312,331,351,371,392,412,432,452,472,491,511,532,551,571,591,612,631,651,671,692,711,731,751,771,791,812,831,852,871,892,912,932,951,971,991,1011,1032,1051,1070,1091,1112,1131,1152,1171,1192,1211,1231,1251,1272,1292,1312,1332,1352,1372,1391,1411,1431,1452,1472,1491,1512,1531,1551,1571,1592,1611,1632,1652,1671,1691,1710,1731,1751,1772,1791,1811,1834,1852,1872,1891,1911,1931,1952,1972,1991,2012,2031,2051,2071,2091,2112,2131,2151,2171,2191,2211,2232,2251,2272,2291,2311,2331,2352,2371,2391,2411,2432,2451,2472,2491,2512],"xSR":741.5,"ySR":469.95,"xT1":424.9,"yT1":0,"xT2":1058.1,"yT2":0,"toosoon":0,"cond_shown":"equaldotanddens","ratio_trial":750,"smaller_num":"15","larger_num":"20","correct_side":2,"subjID":"isabellacardenas15","gender":"1","age":"9","school":"4"},{"start_time":1552309521009,"click_time":1552309523097,"finger_time":1552309522497,"fix_duration":990.832142591307,"trial":4,"RT":1488,"MT":600,"sideResp":1,"stimulus":"img/500/equaldotanddens/L/13_Ratio_500_L_12_R_6.png","xmouse":[809,809,809,809,809,809,809,809,809,809,809,809,809,809,809,809,809,809,809,809,809,809,809,809,809,809,809,809,809,809,809,809,809,809,809,809,809,809,809,809,809,809,809,809,809,809,809,809,809,809,809,809,809,809,809,809,809,809,809,809,809,809,809,809,809,806,802,796,794,790,781,766,756,743,728,701,684,635,614,597,579,563,537,523,511,502,488,476,470,464,457,451,441,438,434,432,432,432,432,432,432,432,432,432,432],"ymouse":[546,546,546,546,546,546,546,546,546,546,546,546,546,546,546,546,546,546,546,546,546,546,546,546,546,546,546,546,546,546,546,546,546,546,546,546,546,546,546,546,546,546,546,546,546,546,546,546,546,546,546,546,546,546,546,546,546,546,546,546,546,546,546,546,546,546,546,545,542,535,522,501,487,472,452,421,401,349,332,318,305,290,264,247,234,222,206,189,180,171,160,148,126,119,114,110,109,109,109,109,109,107,104,101,95],"timestamp_mouse":[10,29,48,69,88,109,128,149,169,189,209,228,249,270,289,309,329,348,368,388,409,428,448,469,489,509,529,548,569,589,609,627,649,669,689,709,728,748,769,788,808,829,848,869,888,908,928,948,969,989,1009,1028,1049,1069,1089,1109,1129,1148,1168,1188,1208,1229,1248,1269,1289,1309,1328,1348,1368,1388,1408,1429,1448,1468,1488,1509,1528,1548,1568,1588,1608,1629,1648,1668,1688,1708,1728,1749,1768,1788,1807,1828,1847,1869,1888,1909,1929,1949,1968,1988,2007,2028,2048,2068,2088],"xSR":741.5,"ySR":469.95,"xT1":424.9,"yT1":0,"xT2":1058.1,"yT2":0,"toosoon":0,"cond_shown":"equaldotanddens","ratio_trial":500,"smaller_num":"6","larger_num":"12","correct_side":1,"subjID":"isabellacardenas15","gender":"1","age":"9","school":"4"},{"start_time":1552309525783,"click_time":1552309527758,"finger_time":1552309527058,"fix_duration":1484.1357782160983,"trial":5,"RT":1275,"MT":700,"sideResp":2,"stimulus":"img/750/equaldotanddens/R/12_Ratio_750_L_3_R_4.png","xmouse":[789,789,789,789,789,789,789,789,789,789,789,789,789,789,789,789,789,789,789,789,789,789,789,789,789,789,789,789,789,789,789,789,789,789,789,789,789,789,789,789,789,789,789,789,789,789,789,789,789,789,789,789,789,789,789,789,789,789,789,789,789,789,791,835,857,939,1014,1115,1310,1374,1420,1446,1457,1458,1458,1458,1458,1458,1439,1430,1420,1411,1399,1364,1340,1335,1332,1327,1314,1307,1302,1297,1289,1268,1245,1224,1204,1182,1144],"ymouse":[512,512,512,512,512,512,512,512,512,512,512,512,512,512,512,512,512,512,512,512,512,512,512,512,512,512,512,512,512,512,512,512,512,512,512,512,512,512,512,512,512,512,512,512,512,512,512,512,512,512,512,512,512,512,512,512,512,512,512,512,512,512,511,468,454,422,391,355,294,274,252,235,222,212,194,182,172,164,135,124,116,109,102,89,81,81,81,83,91,94,96,98,101,103,103,96,90,83,64],"timestamp_mouse":[15,45,54,74,94,115,135,155,174,194,215,235,254,275,294,314,334,355,375,394,415,434,455,474,495,514,534,555,574,595,615,635,655,676,694,714,735,754,775,794,814,835,854,874,895,915,935,955,973,995,1015,1034,1054,1074,1095,1115,1134,1155,1175,1195,1215,1235,1254,1275,1294,1314,1334,1354,1374,1394,1415,1434,1455,1474,1494,1514,1534,1554,1574,1593,1614,1635,1655,1675,1694,1714,1734,1754,1774,1793,1815,1834,1854,1875,1894,1914,1934,1954,1975],"xSR":741.5,"ySR":469.95,"xT1":424.9,"yT1":0,"xT2":1058.1,"yT2":0,"toosoon":0,"cond_shown":"equaldotanddens","ratio_trial":750,"smaller_num":"3","larger_num":"4","correct_side":2,"subjID":"isabellacardenas15","gender":"1","age":"9","school":"4"},{"start_time":1552309529630,"click_time":1552309531957,"finger_time":1552309531358,"fix_duration":692.0852304687777,"trial":6,"RT":1728,"MT":599,"sideResp":1,"stimulus":"img/900/randomdotsizeEA/R/5_Ratio_900_L_9_R_10.png","xmouse":[786,786,786,786,786,786,786,786,786,786,786,785,785,785,785,785,784,784,784,784,784,784,784,784,784,784,784,784,784,784,784,784,784,784,784,784,784,784,784,784,784,784,784,784,784,784,784,784,784,784,784,784,784,784,784,784,784,784,784,784,784,784,784,784,784,784,784,784,784,784,784,784,784,784,784,784,784,784,784,784,784,783,771,766,757,747,717,694,665,629,592,546,540,539,539,539,543,545,546,549,552,557,558,555,549,546,542,538,537,535,532,526,522,515,506,495,487],"ymouse":[491,491,491,491,491,491,491,491,491,491,491,491,492,492,495,497,502,502,502,502,502,503,503,503,503,503,504,504,504,504,504,504,504,504,505,505,505,505,505,505,505,505,505,505,505,505,505,505,505,505,505,505,505,505,505,505,505,505,505,505,505,505,505,505,505,505,505,505,505,505,505,505,505,505,505,505,505,505,505,505,505,505,501,500,498,494,482,472,460,443,428,402,398,396,395,390,362,343,321,299,273,246,206,193,178,168,160,155,155,154,154,152,149,141,128,112,99],"timestamp_mouse":[10,43,47,68,88,107,128,147,168,188,207,227,248,267,287,307,328,347,368,387,408,427,447,468,487,507,527,548,566,587,608,628,648,667,688,708,727,748,768,787,807,828,847,868,887,908,928,947,967,987,1007,1027,1046,1068,1088,1108,1127,1148,1167,1187,1208,1227,1248,1267,1287,1308,1328,1347,1368,1388,1407,1428,1447,1468,1487,1508,1527,1547,1567,1588,1608,1627,1648,1667,1687,1708,1728,1747,1766,1788,1808,1829,1847,1867,1887,1907,1929,1947,1967,1987,2007,2027,2047,2067,2087,2108,2127,2147,2168,2187,2207,2229,2247,2267,2287,2307,2327],"xSR":741.5,"ySR":469.95,"xT1":424.9,"yT1":0,"xT2":1058.1,"yT2":0,"toosoon":0,"cond_shown":"randomdotsizeEA","ratio_trial":900,"smaller_num":"9","larger_num":"10","correct_side":2,"subjID":"isabellacardenas15","gender":"1","age":"9","school":"4"},{"start_time":1552309538210,"click_time":1552309540717,"finger_time":1552309539936,"fix_duration":250,"trial":7,"RT":1726,"MT":781,"sideResp":1,"stimulus":"img/750/equaldotanddens/L/14_Ratio_750_L_8_R_6.png","xmouse":[790,790,790,790,790,790,790,790,790,790,790,790,790,791,791,791,791,791,791,791,791,791,791,791,791,791,791,791,791,791,791,791,791,791,791,791,791,791,791,791,791,791,791,791,791,791,791,791,791,791,791,791,791,791,791,791,791,791,791,791,791,791,791,791,791,791,791,791,791,791,791,791,791,791,791,791,791,791,791,794,794,794,794,794,779,767,748,718,656,563,509,460,419,390,362,357,354,351,348,346,346,346,346,346,346,346,346,346,346,348,356,364,371,379,389,395,401,405,407,409,411,412,414,416,420,425],"ymouse":[538,538,538,538,538,538,538,538,538,538,538,538,538,538,538,538,538,538,538,538,538,538,538,538,538,538,538,538,538,538,538,538,538,538,538,538,538,538,538,538,538,538,538,538,538,538,538,538,538,538,538,538,538,538,538,538,538,538,538,538,538,538,538,538,538,538,538,538,538,538,538,538,538,538,538,538,538,538,538,538,538,538,538,533,514,495,466,423,349,276,238,207,180,158,133,126,120,113,105,90,86,85,85,85,85,85,85,85,85,84,81,78,75,72,67,63,60,58,56,55,54,54,54,54,54,54],"timestamp_mouse":[12,38,45,67,86,107,125,145,166,185,207,227,246,266,285,305,327,347,366,387,406,427,446,466,486,506,527,546,567,585,607,627,647,666,686,705,727,746,765,785,807,827,847,865,887,907,926,946,965,986,1007,1026,1047,1067,1086,1106,1126,1147,1166,1187,1206,1226,1246,1267,1286,1307,1326,1346,1367,1386,1407,1425,1447,1466,1487,1507,1527,1545,1565,1587,1606,1626,1645,1665,1685,1705,1726,1747,1765,1785,1805,1825,1846,1866,1886,1907,1927,1945,1966,1986,2005,2027,2046,2067,2086,2106,2127,2146,2166,2186,2206,2226,2246,2266,2285,2306,2327,2346,2366,2386,2406,2427,2446,2466,2485,2507],"xSR":741.5,"ySR":469.95,"xT1":424.9,"yT1":0,"xT2":1058.1,"yT2":0,"toosoon":0,"cond_shown":"equaldotanddens","ratio_trial":750,"smaller_num":"6","larger_num":"8","correct_side":1,"subjID":"isabellacardenas15","gender":"1","age":"9","school":"4"},{"start_time":1552309545047,"click_time":1552309547556,"finger_time":1552309546696,"fix_duration":250,"trial":8,"RT":1649,"MT":860,"sideResp":2,"stimulus":"img/500/randomdotsizeEA/R/9_Ratio_500_L_2_R_4.png","xmouse":[772,772,772,772,772,772,772,772,772,772,772,772,773,774,774,774,774,774,774,775,776,779,785,789,791,794,796,799,799,799,799,799,799,799,799,799,799,799,799,799,799,799,799,799,799,799,799,799,799,799,799,799,799,799,799,799,799,799,799,799,799,799,799,799,799,799,799,799,799,799,799,799,799,799,800,805,816,823,826,826,826,826,832,854,878,900,915,921,921,921,923,924,924,924,925,928,931,940,953,971,993,1010,1031,1057,1069,1082,1096,1109,1115,1120,1124,1128,1133,1134,1134,1135,1136,1137,1137,1137,1137,1137,1137,1136,1135,1134],"ymouse":[529,529,529,529,529,529,529,529,529,529,529,529,530,532,533,534,534,534,534,535,537,540,545,548,548,550,551,553,553,553,553,553,553,553,553,553,553,553,553,553,553,553,553,553,553,553,553,553,553,553,553,553,553,553,553,553,553,553,553,553,553,553,553,553,553,553,553,553,553,553,553,553,553,553,553,553,539,522,496,493,488,483,466,431,400,375,364,361,361,361,360,359,359,359,358,355,350,337,324,307,291,279,264,241,231,219,208,194,187,181,177,172,162,159,156,152,148,141,138,133,130,124,121,106,101,96],"timestamp_mouse":[10,41,49,69,90,109,130,150,169,189,210,229,248,270,290,309,329,349,369,389,409,428,449,470,488,509,530,549,570,589,609,629,649,668,688,709,730,749,769,790,810,829,849,869,890,909,929,949,970,989,1008,1029,1049,1070,1089,1109,1130,1150,1169,1188,1208,1230,1249,1269,1289,1310,1329,1349,1369,1388,1409,1430,1449,1468,1488,1509,1528,1549,1568,1590,1609,1628,1649,1669,1688,1710,1729,1749,1768,1789,1808,1829,1850,1870,1888,1909,1928,1950,1969,1989,2008,2030,2048,2070,2089,2110,2129,2150,2168,2189,2209,2230,2250,2269,2289,2308,2329,2350,2368,2389,2408,2429,2448,2468,2489,2509],"xSR":741.5,"ySR":469.95,"xT1":424.9,"yT1":0,"xT2":1058.1,"yT2":0,"toosoon":0,"cond_shown":"randomdotsizeEA","ratio_trial":500,"smaller_num":"2","larger_num":"4","correct_side":2,"subjID":"isabellacardenas15","gender":"1","age":"9","school":"4"},{"start_time":1552309550313,"click_time":1552309552216,"finger_time":1552309551616,"fix_duration":1195.0289077036614,"trial":9,"RT":1303,"MT":600,"sideResp":1,"stimulus":"img/750/randomdotsizeEA/L/9_Ratio_750_L_4_R_3.png","xmouse":[778,778,778,778,778,778,778,778,778,778,778,778,778,778,778,778,778,778,778,778,778,778,778,778,778,778,778,778,778,778,778,778,778,778,778,778,778,778,778,778,778,778,778,778,778,778,778,778,778,778,778,778,778,778,778,778,778,778,778,778,778,778,779,779,772,751,747,736,733,732,727,721,716,709,705,701,701,700,699,694,673,658,644,632,625,621,619,617,616,614,602,590,575,559,544,524],"ymouse":[512,512,512,512,512,512,512,512,512,512,512,512,512,512,512,512,512,512,512,512,512,512,512,512,512,512,512,512,512,512,512,512,512,512,512,512,512,512,512,512,512,512,512,512,512,512,512,512,512,512,512,512,512,512,512,512,512,512,512,512,512,512,504,498,479,436,430,415,409,407,396,386,378,369,362,357,357,356,353,342,296,265,235,214,204,198,196,193,191,187,170,155,140,125,111,95],"timestamp_mouse":[11,36,42,62,84,103,124,143,164,184,203,224,243,263,284,303,324,344,363,384,404,424,444,463,483,503,523,544,563,583,604,623,643,664,683,704,724,744,764,784,803,822,843,864,883,904,923,944,963,983,1003,1023,1043,1064,1083,1102,1124,1144,1163,1183,1202,1224,1244,1263,1283,1303,1322,1342,1362,1383,1403,1423,1443,1463,1482,1502,1523,1543,1563,1583,1602,1623,1643,1663,1683,1703,1723,1742,1763,1783,1803,1822,1844,1863,1884,1903],"xSR":741.5,"ySR":469.95,"xT1":424.9,"yT1":0,"xT2":1058.1,"yT2":0,"toosoon":0,"cond_shown":"randomdotsizeEA","ratio_trial":750,"smaller_num":"3","larger_num":"4","correct_side":1,"subjID":"isabellacardenas15","gender":"1","age":"9","school":"4"},{"start_time":1552309554155,"click_time":1552309555796,"finger_time":1552309555096,"fix_duration":417.35469357322677,"trial":10,"RT":941,"MT":700,"sideResp":2,"stimulus":"img/900/equaldotanddens/R/7_Ratio_900_L_9_R_10.png","xmouse":[768,768,768,768,768,768,768,768,768,768,768,768,768,768,768,768,768,768,768,768,768,768,768,768,768,768,768,768,768,768,768,768,768,768,768,768,768,768,770,778,784,789,791,803,816,824,838,857,879,955,1000,1049,1079,1096,1116,1122,1130,1141,1166,1187,1205,1214,1221,1227,1227,1227,1227,1225,1217,1210,1203,1200,1200,1200,1200,1200,1200,1200,1200,1200,1200,1158,1158],"ymouse":[540,540,540,540,540,540,540,540,540,540,540,540,540,540,540,540,540,540,540,540,540,540,540,540,540,540,540,540,540,540,540,540,540,540,540,540,540,540,541,537,535,533,533,535,538,538,538,534,524,471,432,390,366,351,330,321,306,288,229,180,135,107,87,64,54,49,43,37,19,9,2,0,0,0,0,0,0,0,0,0,0,0,1],"timestamp_mouse":[9,21,41,61,82,101,122,141,161,181,201,221,241,261,281,301,322,341,361,381,401,421,442,460,482,502,521,542,561,580,602,621,642,661,681,702,720,740,761,780,802,821,841,861,882,900,921,941,961,981,1002,1020,1042,1061,1082,1100,1120,1140,1161,1180,1201,1220,1240,1261,1281,1301,1320,1341,1362,1380,1401,1421,1442,1460,1480,1501,1526,1541,1561,1581,1600,1620,1640],"xSR":741.5,"ySR":469.95,"xT1":424.9,"yT1":0,"xT2":1058.1,"yT2":0,"toosoon":0,"cond_shown":"equaldotanddens","ratio_trial":900,"smaller_num":"9","larger_num":"10","correct_side":2,"subjID":"isabellacardenas15","gender":"1","age":"9","school":"4"},{"start_time":1552309558427,"click_time":1552309560336,"finger_time":1552309559396,"fix_duration":889.4947360016098,"trial":11,"RT":969,"MT":940,"sideResp":2,"stimulus":"img/250/randomdotsizeEA/R/10_Ratio_250_L_4_R_16.png","xmouse":[788,778,769,769,768,768,768,768,768,768,768,768,768,768,768,768,768,768,768,768,768,768,768,768,768,768,768,768,768,768,768,768,768,768,768,768,768,768,768,768,768,768,770,774,780,784,784,784,785,785,785,785,784,782,779,771,764,754,747,741,727,723,720,717,712,701,695,692,692,692,692,691,691,694,701,730,755,796,826,864,925,944,956,964,967,969,970,973,976,983,1003,1015,1030,1040,1052,1069],"ymouse":[541,557,565,565,566,566,566,566,566,566,566,566,566,566,566,566,566,566,566,566,566,566,566,566,566,566,566,566,566,566,566,566,566,566,566,566,566,566,566,566,566,566,563,557,542,515,492,484,460,449,441,439,438,435,430,417,407,392,384,375,359,353,347,345,340,330,326,324,323,323,323,323,322,318,308,277,255,220,195,168,125,116,111,107,107,105,104,102,101,99,96,95,93,93,93,93],"timestamp_mouse":[14,28,55,69,89,109,130,149,169,188,210,230,250,270,290,308,330,350,370,389,410,429,450,469,488,510,530,548,570,589,610,629,650,668,688,710,730,749,768,789,809,829,848,869,888,908,928,949,969,989,1009,1029,1050,1069,1088,1108,1129,1149,1170,1189,1209,1228,1250,1269,1290,1309,1329,1348,1369,1390,1409,1429,1450,1470,1489,1509,1529,1548,1569,1591,1609,1628,1649,1670,1690,1709,1730,1748,1770,1789,1809,1829,1849,1869,1889,1909],"xSR":741.5,"ySR":469.95,"xT1":424.9,"yT1":0,"xT2":1058.1,"yT2":0,"toosoon":0,"cond_shown":"randomdotsizeEA","ratio_trial":250,"smaller_num":"4","larger_num":"16","correct_side":2,"subjID":"isabellacardenas15","gender":"1","age":"9","school":"4"},{"start_time":1552309562585,"click_time":1552309564577,"finger_time":1552309563895,"fix_duration":827.4653017059625,"trial":12,"RT":1310,"MT":682,"sideResp":2,"stimulus":"img/500/equaldotsize/L/13_Ratio_500_L_12_R_6.png","xmouse":[753,753,753,753,753,753,753,753,753,753,753,753,753,753,753,753,753,753,753,753,753,753,753,753,753,753,753,753,753,753,753,753,753,753,753,753,755,757,759,761,762,762,765,766,769,770,771,773,773,773,773,773,775,776,778,779,781,791,797,801,806,810,816,820,826,830,833,835,843,848,852,854,858,861,866,872,879,894,902,906,909,914,925,935,947,958,966,975,997,1005,1018,1034,1050,1072,1081,1091,1099,1108,1113,1113],"ymouse":[530,530,530,530,530,530,530,530,530,530,530,530,530,530,530,530,530,530,530,530,530,530,531,531,531,531,531,531,531,531,531,531,531,531,531,531,531,531,531,531,531,531,530,530,528,526,525,522,522,522,522,522,522,522,522,522,522,514,507,503,497,492,485,478,471,467,460,459,447,441,438,436,433,430,424,415,405,388,379,373,368,361,342,325,304,286,268,252,209,197,180,162,147,130,125,116,111,104,100,99],"timestamp_mouse":[10,38,51,72,90,112,132,152,171,190,212,231,250,272,292,310,332,351,370,391,412,431,451,470,491,511,531,550,572,592,612,631,650,672,692,712,731,751,772,790,812,830,851,870,890,911,930,952,972,991,1011,1031,1052,1070,1091,1110,1131,1151,1172,1190,1211,1230,1251,1270,1291,1310,1331,1351,1372,1391,1412,1430,1452,1470,1492,1511,1531,1552,1571,1591,1612,1631,1652,1670,1691,1711,1731,1751,1770,1791,1811,1831,1851,1870,1890,1911,1931,1950,1970,1992],"xSR":741.5,"ySR":469.95,"xT1":424.9,"yT1":0,"xT2":1058.1,"yT2":0,"toosoon":0,"cond_shown":"equaldotsize","ratio_trial":500,"smaller_num":"6","larger_num":"12","correct_side":1,"subjID":"isabellacardenas15","gender":"1","age":"9","school":"4"},{"start_time":1552309567931,"click_time":1552309571257,"finger_time":1552309569895,"fix_duration":553.55267816964,"trial":13,"RT":1964,"MT":1362,"sideResp":1,"stimulus":"img/500/randomdotsizeEA/L/5_Ratio_500_L_4_R_2.png","xmouse":[774,774,774,774,774,774,774,774,774,774,774,774,774,774,774,774,774,774,774,774,774,774,774,774,774,774,774,774,774,774,774,774,774,774,774,774,774,774,774,774,774,774,774,774,774,774,774,774,774,774,774,774,774,774,774,774,774,774,774,774,774,774,774,774,774,774,774,774,774,774,774,774,774,774,774,774,774,774,774,774,774,774,774,774,774,774,774,774,774,774,774,774,774,774,774,774,774,762,692,632,570,450,399,368,348,337,333,333,333,333,333,333,333,333,332,332,332,332,332,332,332,332,333,335,338,341,353,366,380,394,406,425,431,435,438,440,441,441,441,441,441,441,441,441,441,441,441,441,441,442,443,444,445,447,448,448,448,448,448,448,448,448,448,448,448,449,451],"ymouse":[526,526,526,526,526,526,526,526,526,526,526,526,526,526,526,526,526,526,526,526,526,526,526,526,526,526,526,526,526,526,526,526,526,526,526,526,526,526,526,526,526,526,526,526,526,526,526,526,526,526,526,526,526,526,526,526,526,526,526,526,526,526,526,526,526,526,526,526,526,526,526,526,526,526,526,526,526,526,526,526,526,526,526,526,526,526,526,526,526,526,526,526,526,526,526,526,526,509,448,419,404,386,374,364,358,356,354,354,354,354,354,354,354,354,354,354,349,349,349,349,349,348,342,338,333,325,305,281,260,237,216,177,160,146,136,131,129,129,129,129,129,129,129,129,129,129,129,129,129,128,124,118,114,109,104,104,104,104,104,104,104,104,104,104,104,102,99],"timestamp_mouse":[9,32,45,66,85,104,125,145,166,185,206,225,246,265,285,306,325,345,366,385,405,425,445,465,485,505,524,544,565,585,604,625,644,665,686,705,726,745,766,786,806,825,846,865,886,906,925,944,966,985,1006,1026,1045,1066,1084,1104,1125,1145,1165,1185,1206,1226,1245,1264,1284,1306,1326,1345,1366,1385,1404,1425,1445,1466,1485,1505,1524,1544,1566,1585,1604,1626,1646,1665,1685,1706,1725,1746,1766,1785,1805,1824,1845,1865,1885,1905,1924,1945,1964,1985,2004,2024,2044,2064,2084,2105,2125,2145,2165,2186,2204,2225,2244,2265,2285,2306,2324,2345,2364,2384,2404,2425,2446,2466,2486,2506,2524,2545,2565,2585,2604,2625,2644,2664,2685,2705,2725,2746,2765,2784,2804,2825,2846,2865,2885,2906,2926,2944,2965,2985,3005,3026,3045,3066,3085,3104,3124,3145,3165,3184,3206,3226,3245,3266,3286,3305,3325],"xSR":741.5,"ySR":469.95,"xT1":424.9,"yT1":0,"xT2":1058.1,"yT2":0,"toosoon":0,"cond_shown":"randomdotsizeEA","ratio_trial":500,"smaller_num":"2","larger_num":"4","correct_side":1,"subjID":"isabellacardenas15","gender":"1","age":"9","school":"4"},{"start_time":1552309580663,"click_time":1552309583056,"finger_time":1552309581316,"fix_duration":765.5405377738809,"trial":14,"RT":653,"MT":1740,"sideResp":1,"stimulus":"img/750/equaldotsize/L/9_Ratio_750_L_4_R_3.png","xmouse":[760,760,760,760,760,760,760,760,760,760,760,760,760,760,760,760,760,760,760,760,760,760,760,760,761,763,770,773,775,777,785,791,800,809,818,838,846,855,864,870,886,896,906,914,922,931,941,944,946,947,947,947,947,947,947,947,947,947,947,944,932,927,923,918,911,883,873,863,855,848,833,823,815,806,799,778,767,756,748,741,735,718,704,691,684,669,665,660,651,645,639,629,623,615,610,601,591,582,575,570,566,558,554,547,540,532,530,530,530,530,530,530,530,530,530,526,526,526,525,522],"ymouse":[508,508,508,508,508,508,508,508,508,508,508,508,508,508,508,508,508,508,508,508,508,508,508,508,507,507,506,505,503,501,491,482,469,457,441,397,379,360,343,326,289,272,253,233,214,187,155,144,136,132,129,129,129,129,129,129,129,129,129,127,127,127,127,127,127,127,127,127,127,127,127,127,127,127,127,127,127,127,127,127,127,125,124,123,122,121,121,120,118,117,115,112,110,107,105,102,97,93,91,89,86,83,81,77,76,70,68,67,65,64,64,61,59,57,54,49,47,45,43,40],"timestamp_mouse":[12,33,62,73,94,112,133,153,173,192,213,234,252,273,293,313,333,353,374,394,413,433,453,473,494,513,533,552,572,593,613,632,653,672,693,714,734,752,773,793,814,832,853,873,894,912,933,953,974,993,1013,1033,1052,1073,1092,1114,1134,1153,1174,1192,1213,1232,1252,1272,1292,1314,1332,1352,1373,1392,1414,1432,1453,1472,1493,1513,1533,1552,1574,1593,1612,1632,1652,1673,1693,1714,1732,1752,1773,1793,1813,1833,1853,1873,1893,1912,1932,1953,1972,1993,2013,2032,2053,2073,2093,2113,2132,2152,2174,2194,2213,2233,2253,2273,2293,2314,2332,2352,2374,2393],"xSR":741.5,"ySR":469.95,"xT1":424.9,"yT1":0,"xT2":1058.1,"yT2":0,"toosoon":0,"cond_shown":"equaldotsize","ratio_trial":750,"smaller_num":"3","larger_num":"4","correct_side":1,"subjID":"isabellacardenas15","gender":"1","age":"9","school":"4"},{"start_time":1552309588508,"click_time":1552309592756,"finger_time":1552309591955,"fix_duration":250,"trial":15,"RT":3447,"MT":801,"sideResp":2,"stimulus":"img/900/equaldotsize/R/13_Ratio_900_L_18_R_20.png","xmouse":[816,816,816,816,811,809,808,807,807,807,807,807,807,807,807,807,807,806,806,806,806,806,806,806,806,806,806,806,805,805,805,805,805,805,805,805,805,805,805,805,805,805,805,805,805,805,805,804,803,803,802,802,802,802,802,802,802,802,802,802,802,802,800,800,798,798,798,798,798,798,797,796,794,793,793,792,792,792,792,792,792,792,792,792,792,792,792,792,792,792,792,792,792,792,792,792,792,792,792,792,792,792,792,792,792,792,792,792,792,792,792,792,792,792,792,792,792,792,792,792,792,792,792,792,792,792,792,792,792,792,792,792,792,792,792,792,792,792,793,795,797,797,797,797,797,797,797,797,797,797,797,797,797,797,797,797,797,797,797,797,798,800,801,803,804,804,804,804,804,805,817,833,855,886,957,988,1018,1039,1065,1080,1108,1124,1142,1155,1170,1185,1185,1185,1185,1185,1185,1185,1185,1185,1185,1185,1185,1185,1185,1185,1185,1185,1185,1185,1185,1185,1185,1185,1185,1185,1185,1185,1117],"ymouse":[514,514,514,514,513,513,513,513,513,513,513,513,513,513,513,513,513,513,514,514,514,514,514,514,514,514,514,514,514,514,514,514,514,514,514,514,514,514,514,514,514,514,514,514,514,514,514,515,515,516,516,516,516,516,516,516,516,516,516,516,516,516,518,520,523,523,523,523,523,523,524,525,529,531,532,534,534,534,534,534,534,534,534,534,534,534,534,534,534,534,534,534,534,534,534,534,534,534,534,534,534,534,534,534,534,534,534,534,534,534,534,534,534,534,534,534,534,534,534,534,534,534,534,534,534,534,534,534,534,534,534,534,534,534,534,534,534,534,533,531,530,530,530,530,530,530,530,530,530,530,530,530,530,530,530,530,530,530,530,529,525,522,517,511,506,505,505,505,505,504,497,493,486,479,459,450,436,424,397,375,314,272,226,180,123,19,19,19,19,19,19,19,19,19,19,19,19,19,19,19,19,19,19,19,19,19,19,19,19,19,19,19,4],"timestamp_mouse":[11,34,49,67,88,107,128,149,168,187,208,227,249,269,289,308,328,349,368,388,407,429,448,469,488,507,529,549,568,588,609,628,649,668,688,708,728,748,767,788,809,829,849,868,888,909,929,947,969,988,1007,1028,1049,1069,1088,1108,1127,1148,1167,1188,1209,1227,1248,1268,1288,1307,1329,1347,1369,1388,1408,1427,1448,1467,1488,1508,1528,1549,1569,1588,1609,1629,1649,1669,1687,1709,1729,1748,1769,1788,1807,1828,1849,1869,1888,1909,1928,1949,1968,1988,2008,2029,2048,2068,2089,2109,2127,2149,2168,2188,2208,2228,2249,2267,2288,2308,2328,2348,2369,2387,2409,2429,2447,2469,2488,2507,2529,2549,2568,2588,2608,2629,2647,2668,2689,2709,2727,2748,2768,2788,2807,2829,2849,2867,2888,2908,2929,2948,2968,2989,3007,3028,3049,3069,3089,3107,3128,3148,3168,3187,3209,3227,3247,3267,3289,3307,3328,3348,3368,3388,3408,3427,3447,3467,3489,3507,3529,3548,3568,3588,3608,3627,3648,3668,3688,3708,3728,3748,3769,3788,3809,3828,3849,3869,3889,3909,3928,3949,3969,3989,4009,4028,4048,4069,4089,4109,4129,4148,4168,4188,4209,4227,4248],"xSR":741.5,"ySR":469.95,"xT1":424.9,"yT1":0,"xT2":1058.1,"yT2":0,"toosoon":0,"cond_shown":"equaldotsize","ratio_trial":900,"smaller_num":"18","larger_num":"20","correct_side":2,"subjID":"isabellacardenas15","gender":"1","age":"9","school":"4"},{"start_time":1552309594669,"click_time":1552309596716,"finger_time":1552309595915,"fix_duration":250,"trial":16,"RT":1246,"MT":801,"sideResp":1,"stimulus":"img/500/equaldotsize/L/11_Ratio_500_L_12_R_6.png","xmouse":[825,825,825,823,821,818,816,812,812,812,812,812,812,812,812,812,812,812,812,812,812,812,812,812,812,812,812,812,812,812,812,812,812,812,812,812,812,812,812,812,812,812,812,812,812,812,812,812,812,812,812,812,812,812,812,812,812,812,812,812,803,791,766,755,749,746,740,726,718,714,712,711,705,703,701,699,697,692,684,676,667,662,656,652,649,644,642,638,635,634,632,628,616,607,596,584,574,557,546,542,538,533,524],"ymouse":[515,515,515,515,516,517,518,520,520,520,520,520,520,520,520,520,520,520,520,520,520,520,520,520,520,520,520,520,520,520,520,520,520,520,520,520,520,520,520,520,520,520,520,520,520,520,520,520,520,520,520,520,520,520,520,520,520,520,520,520,512,500,469,454,441,431,419,390,367,353,340,329,307,299,292,285,278,269,259,247,234,222,204,195,188,178,171,158,149,145,141,136,128,125,123,119,114,110,105,104,101,97,90],"timestamp_mouse":[10,39,47,66,86,108,126,146,168,186,208,228,248,267,288,306,327,348,368,387,406,426,446,466,486,506,527,548,568,588,607,627,647,668,687,708,727,746,766,788,807,827,848,868,888,907,927,946,968,987,1008,1027,1047,1067,1086,1108,1127,1148,1166,1186,1207,1227,1246,1266,1287,1307,1328,1347,1367,1387,1406,1426,1446,1466,1487,1507,1526,1547,1568,1587,1607,1626,1647,1666,1686,1706,1727,1747,1766,1787,1807,1827,1846,1868,1888,1906,1927,1946,1968,1986,2006,2026,2047],"xSR":741.5,"ySR":469.95,"xT1":424.9,"yT1":0,"xT2":1058.1,"yT2":0,"toosoon":0,"cond_shown":"equaldotsize","ratio_trial":500,"smaller_num":"6","larger_num":"12","correct_side":1,"subjID":"isabellacardenas15","gender":"1","age":"9","school":"4"},{"start_time":1552309599758,"click_time":1552309601335,"finger_time":1552309600835,"fix_duration":782.8748886827631,"trial":17,"RT":1077,"MT":500,"sideResp":2,"stimulus":"img/250/equaldotsize/R/9_Ratio_250_L_3_R_12.png","xmouse":[793,793,793,793,793,793,793,793,793,793,793,793,793,793,793,793,793,793,793,793,793,793,793,793,793,793,793,793,793,793,793,793,793,793,793,793,793,793,793,793,793,793,793,793,793,793,794,795,805,812,820,825,828,834,839,843,848,858,864,872,883,887,906,912,918,925,934,945,964,973,983,997,1005,1022,1029,1036,1043,1058,1064],"ymouse":[519,519,519,519,519,519,519,519,519,519,519,519,519,519,519,519,519,519,519,519,519,519,519,519,519,519,519,519,519,519,519,519,519,519,519,519,519,519,519,519,519,519,519,519,519,519,520,520,514,507,499,488,481,466,457,446,438,418,407,395,374,367,333,320,305,289,271,252,216,197,178,150,133,103,89,76,64,45,39],"timestamp_mouse":[16,36,57,77,96,118,137,157,177,197,216,237,258,277,296,317,338,357,377,396,417,436,456,476,496,518,538,556,576,596,618,636,656,677,696,717,736,757,777,798,817,836,857,876,897,916,938,957,977,996,1017,1038,1056,1077,1096,1117,1137,1159,1176,1198,1216,1236,1258,1277,1296,1317,1337,1357,1376,1396,1417,1437,1457,1477,1497,1517,1538,1558,1576],"xSR":741.5,"ySR":469.95,"xT1":424.9,"yT1":0,"xT2":1058.1,"yT2":0,"toosoon":0,"cond_shown":"equaldotsize","ratio_trial":250,"smaller_num":"3","larger_num":"12","correct_side":2,"subjID":"isabellacardenas15","gender":"1","age":"9","school":"4"},{"start_time":1552309603308,"click_time":1552309605135,"finger_time":1552309604395,"fix_duration":250,"trial":18,"RT":1087,"MT":740,"sideResp":2,"stimulus":"img/250/randomdotsizeEA/R/10_Ratio_250_L_4_R_16.png","xmouse":[746,746,746,746,746,746,746,746,746,746,746,746,746,746,746,746,746,746,746,746,746,746,746,746,746,746,746,746,746,746,746,746,746,746,746,746,746,746,746,746,746,746,746,746,746,746,746,749,753,756,762,769,776,782,790,802,829,842,851,858,865,872,876,877,878,878,879,881,887,891,896,911,916,920,926,931,938,941,944,948,953,966,979,987,995,1006,1023,1031,1038,1044,1050,1061],"ymouse":[497,497,497,497,497,497,497,497,497,497,497,497,497,497,497,497,497,497,497,497,497,497,497,497,497,497,497,497,497,497,497,497,497,497,497,497,497,497,497,497,497,497,497,497,497,497,498,498,498,495,492,486,479,471,463,449,422,407,395,385,378,368,363,361,359,359,359,358,355,352,348,337,333,327,320,313,304,297,293,285,276,254,232,218,202,185,149,133,114,99,83,58],"timestamp_mouse":[12,42,46,67,88,106,127,147,167,187,208,227,247,268,287,307,326,346,367,388,408,426,446,468,486,506,528,546,568,587,606,628,648,667,687,707,726,747,768,786,807,827,846,867,887,906,927,946,967,987,1006,1026,1048,1067,1087,1106,1127,1146,1167,1187,1207,1227,1246,1266,1286,1306,1327,1346,1367,1387,1407,1427,1447,1466,1486,1507,1526,1547,1566,1587,1607,1626,1647,1666,1687,1708,1726,1746,1767,1787,1807,1827],"xSR":741.5,"ySR":469.95,"xT1":424.9,"yT1":0,"xT2":1058.1,"yT2":0,"toosoon":0,"cond_shown":"randomdotsizeEA","ratio_trial":250,"smaller_num":"4","larger_num":"16","correct_side":2,"subjID":"isabellacardenas15","gender":"1","age":"9","school":"4"},{"start_time":1552309607741,"click_time":1552309609194,"finger_time":1552309608756,"fix_duration":303.10637588311573,"trial":19,"RT":1015,"MT":438,"sideResp":1,"stimulus":"img/250/equaldotanddens/L/15_Ratio_250_L_12_R_3.png","xmouse":[809,809,809,809,809,809,809,809,809,809,809,809,809,809,809,809,809,809,809,809,809,809,809,809,809,809,809,809,809,809,809,809,809,809,809,809,809,809,809,809,807,801,792,785,776,773,769,765,759,754,736,729,722,715,707,693,686,681,673,664,648,639,630,618,608,583,574,565,551,535,530,526,522],"ymouse":[525,525,525,525,525,525,525,525,525,525,525,525,525,525,525,525,525,525,525,525,525,525,525,525,525,525,525,525,525,525,525,525,525,525,525,525,525,525,525,525,524,524,522,519,516,514,511,508,502,494,459,443,426,409,393,358,339,323,305,283,253,238,224,208,196,167,153,139,116,87,75,66,57],"timestamp_mouse":[14,41,53,73,93,114,134,155,174,194,213,233,253,275,293,313,334,355,375,393,413,434,454,474,494,514,534,555,573,595,613,633,654,674,693,715,736,755,773,794,815,833,854,874,894,913,934,954,973,993,1015,1033,1055,1075,1095,1113,1134,1154,1174,1195,1215,1234,1255,1274,1293,1313,1333,1354,1374,1395,1414,1433,1453],"xSR":741.5,"ySR":469.95,"xT1":424.9,"yT1":0,"xT2":1058.1,"yT2":0,"toosoon":0,"cond_shown":"equaldotanddens","ratio_trial":250,"smaller_num":"3","larger_num":"12","correct_side":1,"subjID":"isabellacardenas15","gender":"1","age":"9","school":"4"},{"start_time":1552309610607,"click_time":1552309611996,"finger_time":1552309611556,"fix_duration":250,"trial":20,"RT":949,"MT":440,"sideResp":2,"stimulus":"img/250/equaldotsize/R/10_Ratio_250_L_4_R_16.png","xmouse":[782,782,782,782,782,782,782,782,782,782,782,782,782,782,782,782,782,782,782,782,782,782,782,782,783,783,783,784,784,784,784,784,784,784,784,784,784,784,784,785,789,791,797,806,815,824,834,860,871,888,901,922,954,976,987,995,1003,1015,1020,1026,1031,1037,1047,1051,1054,1058,1061,1068,1071,1075],"ymouse":[534,534,534,534,534,534,534,534,534,534,534,534,534,534,534,534,534,534,534,534,534,534,534,534,534,534,534,534,534,534,534,534,534,534,534,534,534,534,534,534,533,533,531,526,521,514,506,484,471,453,435,409,363,331,311,294,279,250,237,224,212,199,176,163,153,142,133,115,108,98],"timestamp_mouse":[10,28,48,68,89,107,129,147,169,188,208,228,249,267,288,308,328,347,369,389,407,427,447,468,488,507,527,549,569,587,607,628,648,668,688,707,729,749,768,788,808,828,847,869,888,907,928,949,967,988,1008,1029,1048,1069,1087,1109,1128,1148,1168,1187,1208,1227,1248,1268,1287,1309,1328,1348,1367,1389],"xSR":741.5,"ySR":469.95,"xT1":424.9,"yT1":0,"xT2":1058.1,"yT2":0,"toosoon":0,"cond_shown":"equaldotsize","ratio_trial":250,"smaller_num":"4","larger_num":"16","correct_side":2,"subjID":"isabellacardenas15","gender":"1","age":"9","school":"4"},{"start_time":1552309613527,"click_time":1552309615255,"finger_time":1552309614454,"fix_duration":351.2344063208197,"trial":21,"RT":927,"MT":801,"sideResp":2,"stimulus":"img/900/equaldotsize/R/13_Ratio_900_L_18_R_20.png","xmouse":[822,820,820,819,818,817,815,813,813,813,812,812,812,811,810,810,809,809,809,808,808,808,808,808,808,808,808,808,808,808,808,808,808,808,808,808,808,808,808,809,812,826,831,835,838,841,845,854,857,860,862,866,869,871,874,876,884,889,893,896,900,906,911,917,925,935,961,976,985,993,1001,1015,1020,1025,1030,1033,1038,1039,1040,1041,1041,1041,1047,1052,1056,1057,1061],"ymouse":[509,510,510,511,513,513,516,517,517,517,517,518,518,518,519,519,519,519,519,520,520,520,520,520,520,520,520,520,520,520,520,520,520,520,520,520,520,520,520,520,519,513,508,503,496,488,479,452,440,426,412,386,373,358,344,329,301,281,269,259,247,228,220,210,200,191,169,152,140,128,116,94,86,77,69,64,52,48,47,46,46,46,46,46,46,46,46],"timestamp_mouse":[14,43,49,68,87,108,127,149,169,188,207,229,248,267,288,308,329,347,367,388,409,428,448,468,488,507,527,547,569,588,608,627,647,669,689,709,727,747,768,789,808,828,848,869,887,908,927,947,967,989,1007,1028,1047,1068,1088,1108,1128,1147,1167,1188,1207,1228,1247,1269,1288,1308,1327,1348,1367,1388,1408,1427,1447,1467,1487,1507,1528,1547,1569,1588,1609,1628,1648,1668,1687,1707,1728],"xSR":741.5,"ySR":469.95,"xT1":424.9,"yT1":0,"xT2":1058.1,"yT2":0,"toosoon":0,"cond_shown":"equaldotsize","ratio_trial":900,"smaller_num":"18","larger_num":"20","correct_side":2,"subjID":"isabellacardenas15","gender":"1","age":"9","school":"4"},{"start_time":1552309617556,"click_time":1552309619855,"finger_time":1552309618556,"fix_duration":1200.6044795752784,"trial":22,"RT":1000,"MT":1299,"sideResp":2,"stimulus":"img/500/equaldotanddens/R/15_Ratio_500_L_1_R_2.png","xmouse":[783,783,783,783,783,783,783,783,783,783,783,783,783,783,783,783,783,783,783,783,783,783,783,783,783,783,783,783,783,783,783,783,783,783,783,783,783,783,783,783,782,782,782,780,778,771,765,758,746,708,683,659,639,622,598,574,562,547,532,518,500,497,496,496,496,496,496,496,496,496,498,500,505,509,516,535,549,567,583,597,622,645,660,676,691,730,751,772,791,811,852,870,895,908,917,927,930,933,936,939,956,963,974,980,985,996,1006,1018,1033,1041,1053,1053,1055,1057,1059],"ymouse":[533,533,533,533,533,533,533,533,533,533,533,533,533,533,533,533,533,533,533,533,533,533,533,533,533,533,533,533,533,533,533,533,533,533,531,528,525,524,523,520,519,517,515,513,508,497,492,486,479,458,445,431,417,404,381,353,337,319,302,286,259,250,244,239,237,236,236,236,236,236,236,236,236,237,238,240,243,246,248,250,254,257,258,258,258,258,258,258,258,258,256,250,243,238,233,223,219,212,208,203,193,186,175,166,157,135,125,114,102,91,66,51,48,38,35],"timestamp_mouse":[20,49,59,79,98,118,138,158,179,199,218,239,259,279,300,320,339,360,379,398,419,439,460,479,499,519,539,559,578,598,619,638,659,679,698,720,738,760,779,800,818,840,859,879,899,918,938,959,979,1000,1018,1040,1058,1079,1098,1119,1138,1159,1179,1199,1218,1239,1259,1280,1300,1319,1338,1360,1380,1400,1419,1439,1458,1479,1499,1519,1538,1559,1580,1599,1618,1639,1658,1679,1699,1719,1738,1759,1779,1799,1818,1839,1858,1880,1901,1920,1938,1958,1978,2000,2018,2038,2058,2078,2098,2120,2138,2159,2179,2199,2219,2239,2259,2278,2299],"xSR":741.5,"ySR":469.95,"xT1":424.9,"yT1":0,"xT2":1058.1,"yT2":0,"toosoon":0,"cond_shown":"equaldotanddens","ratio_trial":500,"smaller_num":"1","larger_num":"2","correct_side":2,"subjID":"isabellacardenas15","gender":"1","age":"9","school":"4"},{"start_time":1552309622299,"click_time":1552309623954,"finger_time":1552309623295,"fix_duration":923.9454418816877,"trial":23,"RT":996,"MT":659,"sideResp":2,"stimulus":"img/250/equaldotsize/R/13_Ratio_250_L_2_R_8.png","xmouse":[791,791,791,791,791,791,791,791,791,791,791,791,791,791,791,791,791,791,791,791,791,791,791,791,791,791,791,791,791,791,791,791,791,791,791,791,791,791,791,791,791,791,791,791,791,791,793,796,826,846,864,878,890,921,924,933,940,946,951,959,963,968,974,984,988,993,997,1001,1008,1012,1018,1024,1030,1049,1057,1065,1074,1082,1100,1109,1114,1120,1124],"ymouse":[511,511,511,511,511,511,511,511,511,511,511,511,511,511,511,511,511,511,511,511,511,511,511,511,511,511,511,511,511,511,511,511,511,511,511,511,511,511,511,511,511,511,511,511,511,511,510,509,504,499,494,487,481,460,456,450,445,439,434,424,418,411,403,389,382,376,370,364,355,349,343,333,324,291,277,260,239,218,172,150,130,112,97],"timestamp_mouse":[16,46,57,77,97,116,137,157,175,196,217,237,256,275,296,317,335,356,377,395,415,436,455,476,497,516,537,556,575,596,616,637,655,675,697,717,735,757,776,797,816,836,856,876,896,917,936,955,976,996,1015,1036,1055,1085,1095,1115,1137,1156,1176,1196,1215,1235,1256,1276,1296,1316,1336,1355,1376,1395,1415,1436,1455,1476,1496,1515,1535,1556,1576,1597,1617,1635,1655],"xSR":741.5,"ySR":469.95,"xT1":424.9,"yT1":0,"xT2":1058.1,"yT2":0,"toosoon":0,"cond_shown":"equaldotsize","ratio_trial":250,"smaller_num":"2","larger_num":"8","correct_side":2,"subjID":"isabellacardenas15","gender":"1","age":"9","school":"4"},{"start_time":1552309629764,"click_time":1552309631275,"finger_time":1552309630716,"fix_duration":1487.4554636942357,"trial":24,"RT":952,"MT":559,"sideResp":1,"stimulus":"img/250/equaldotanddens/L/3_Ratio_250_L_8_R_2.png","xmouse":[806,806,806,806,806,806,806,806,806,806,806,806,806,806,806,806,806,806,806,806,806,806,806,806,806,806,806,806,806,806,806,806,806,806,806,806,806,806,806,806,803,800,796,789,779,759,747,739,729,716,702,695,690,685,679,673,666,659,652,645,631,623,615,605,598,575,566,552,543,536,519,513,508,503,499],"ymouse":[515,515,515,515,515,515,515,515,515,515,515,515,515,515,515,515,515,515,515,515,515,515,515,515,515,515,515,515,515,515,515,515,515,515,515,515,515,515,515,515,511,507,501,494,487,476,468,461,455,446,434,427,420,413,405,392,377,368,356,344,323,313,300,287,274,243,230,208,193,180,149,134,120,107,94],"timestamp_mouse":[11,55,72,91,111,130,151,172,191,211,231,252,271,292,310,332,351,371,392,412,430,451,470,490,512,532,550,571,591,611,632,651,670,692,710,732,752,770,791,810,831,851,872,890,911,930,952,970,990,1011,1031,1050,1071,1091,1111,1131,1150,1170,1190,1211,1230,1251,1272,1291,1311,1331,1351,1370,1391,1410,1431,1451,1471,1491,1511],"xSR":741.5,"ySR":469.95,"xT1":424.9,"yT1":0,"xT2":1058.1,"yT2":0,"toosoon":0,"cond_shown":"equaldotanddens","ratio_trial":250,"smaller_num":"2","larger_num":"8","correct_side":1,"subjID":"isabellacardenas15","gender":"1","age":"9","school":"4"},{"start_time":1552309632904,"click_time":1552309635054,"finger_time":1552309634575,"fix_duration":267.9621704845423,"trial":25,"RT":1671,"MT":479,"sideResp":1,"stimulus":"img/500/equaldotsize/L/5_Ratio_500_L_4_R_2.png","xmouse":[803,803,803,803,803,803,803,803,803,803,803,803,803,803,802,802,802,802,802,802,802,802,802,802,802,802,802,802,802,802,802,802,802,802,802,802,802,802,802,802,802,802,802,802,802,802,802,802,802,802,799,794,788,785,784,784,784,784,784,784,784,784,784,784,782,780,778,775,767,764,754,754,754,754,754,754,754,753,752,749,746,744,742,739,731,723,716,708,693,670,637,623,612,600,588,566,555,545,537,522,518,513,511,506,504,500,497,496],"ymouse":[508,508,508,508,508,508,508,508,508,508,508,509,509,511,511,511,511,511,511,511,511,511,511,511,511,511,511,511,511,511,511,511,511,511,511,511,511,511,511,511,511,511,511,511,511,511,511,511,511,511,511,511,510,509,509,509,509,509,509,509,509,509,509,509,509,507,507,506,502,502,499,499,499,499,499,499,498,497,496,493,490,488,484,479,463,451,439,426,408,382,349,333,320,302,286,254,238,221,206,171,161,150,140,130,122,107,100,92],"timestamp_mouse":[24,41,51,71,90,110,132,150,170,191,212,231,251,271,291,312,332,350,370,392,411,431,451,470,492,511,532,551,571,591,612,631,651,671,690,711,730,752,771,791,811,830,850,871,891,911,932,951,970,991,1012,1031,1052,1072,1090,1110,1132,1150,1171,1191,1212,1231,1251,1271,1291,1310,1331,1351,1370,1391,1412,1430,1450,1470,1491,1512,1531,1550,1571,1591,1612,1631,1651,1671,1693,1710,1731,1750,1771,1790,1810,1830,1852,1870,1890,1911,1930,1951,1971,1991,2012,2030,2051,2071,2090,2110,2130,2150],"xSR":741.5,"ySR":469.95,"xT1":424.9,"yT1":0,"xT2":1058.1,"yT2":0,"toosoon":0,"cond_shown":"equaldotsize","ratio_trial":500,"smaller_num":"2","larger_num":"4","correct_side":1,"subjID":"isabellacardenas15","gender":"1","age":"9","school":"4"},{"start_time":1552309638174,"click_time":1552309640134,"finger_time":1552309639135,"fix_duration":1476.8146586756143,"trial":26,"RT":961,"MT":999,"sideResp":2,"stimulus":"img/500/equaldotanddens/R/12_Ratio_500_L_1_R_2.png","xmouse":[788,788,788,788,788,788,788,788,788,788,788,788,788,788,788,788,788,788,788,788,788,788,788,788,788,788,788,788,788,788,788,788,788,788,788,788,788,788,788,788,788,788,789,795,801,807,813,824,833,839,846,853,860,872,877,882,886,892,896,901,905,910,922,929,935,943,951,966,976,986,995,1004,1021,1029,1033,1035,1037,1040,1041,1043,1043,1043,1043,1043,1043,1043,1043,1043,1043,1043,1043,1046,1048,1051,1051,1051,1053,1056,1059],"ymouse":[532,532,532,532,532,532,532,532,532,532,532,532,532,532,532,532,532,532,532,532,532,532,532,532,532,532,532,532,532,532,532,532,532,532,532,532,532,532,532,532,532,532,532,527,520,511,500,476,462,451,439,425,412,384,373,363,353,336,326,314,305,294,271,253,239,225,211,182,166,149,134,120,89,72,60,53,45,33,30,28,28,28,28,28,28,28,28,28,28,28,28,28,29,31,31,31,31,32,32],"timestamp_mouse":[10,22,41,61,82,102,121,141,160,181,201,221,242,261,281,300,321,341,361,380,402,422,440,460,481,502,521,540,560,581,600,621,641,662,681,700,720,741,760,782,802,821,841,862,881,900,921,941,961,981,1001,1020,1041,1061,1080,1102,1121,1141,1160,1181,1201,1221,1241,1260,1280,1301,1320,1341,1362,1382,1402,1421,1440,1461,1480,1502,1521,1540,1561,1581,1600,1622,1641,1661,1682,1701,1722,1740,1760,1781,1800,1820,1841,1861,1881,1900,1921,1941,1960],"xSR":741.5,"ySR":469.95,"xT1":424.9,"yT1":0,"xT2":1058.1,"yT2":0,"toosoon":0,"cond_shown":"equaldotanddens","ratio_trial":500,"smaller_num":"1","larger_num":"2","correct_side":2,"subjID":"isabellacardenas15","gender":"1","age":"9","school":"4"},{"start_time":1552309643170,"click_time":1552309645014,"finger_time":1552309644275,"fix_duration":1291.4913393451623,"trial":27,"RT":1105,"MT":739,"sideResp":2,"stimulus":"img/900/randomdotsizeEA/R/12_Ratio_900_L_18_R_20.png","xmouse":[784,784,784,784,784,784,784,784,784,784,784,784,784,784,784,784,784,784,784,784,784,784,784,784,784,784,784,784,784,784,784,784,784,784,784,784,784,784,784,784,784,784,784,784,784,784,786,787,791,795,798,805,809,820,824,828,833,842,848,854,860,867,890,901,911,921,933,952,960,970,979,987,995,1010,1016,1022,1030,1034,1037,1037,1037,1037,1037,1037,1037,1037,1048,1049,1051,1052,1054,1057,1059],"ymouse":[507,507,507,507,507,507,507,507,507,507,507,507,507,507,507,507,507,507,507,507,507,507,507,507,507,507,507,507,507,507,507,507,507,507,507,507,507,507,507,507,507,507,507,507,507,507,507,507,507,502,499,492,489,480,474,467,458,442,433,422,412,397,352,331,310,286,259,204,177,150,126,104,80,47,34,25,15,7,1,1,1,1,1,1,1,1,1,1,3,5,7,10,11],"timestamp_mouse":[9,25,44,66,86,104,124,145,166,185,206,225,245,264,284,304,326,345,365,384,405,424,444,465,485,505,524,545,564,584,604,626,645,664,685,706,725,745,765,785,805,825,844,866,886,904,925,946,965,984,1004,1025,1045,1066,1085,1105,1124,1146,1164,1184,1204,1224,1246,1264,1285,1304,1325,1346,1365,1385,1405,1425,1444,1464,1484,1505,1526,1545,1565,1586,1604,1624,1645,1665,1686,1705,1725,1746,1764,1784,1804,1824,1844],"xSR":741.5,"ySR":469.95,"xT1":424.9,"yT1":0,"xT2":1058.1,"yT2":0,"toosoon":0,"cond_shown":"randomdotsizeEA","ratio_trial":900,"smaller_num":"18","larger_num":"20","correct_side":2,"subjID":"isabellacardenas15","gender":"1","age":"9","school":"4"},{"start_time":1552309647952,"click_time":1552309649636,"finger_time":1552309648735,"fix_duration":1135.1664451862807,"trial":28,"RT":783,"MT":901,"sideResp":2,"stimulus":"img/500/equaldotanddens/R/9_Ratio_500_L_2_R_4.png","xmouse":[812,812,812,812,812,812,812,812,812,809,808,807,807,807,807,807,807,807,807,807,807,807,807,807,807,807,807,807,807,807,807,807,807,807,807,807,807,807,807,810,819,829,838,846,860,866,874,882,893,911,922,928,936,944,968,982,995,1004,1012,1025,1026,1028,1029,1030,1030,1031,1032,1034,1036,1043,1047,1050,1051,1052,1055,1056,1057,1057,1057,1057,1057,1057,1057,1058,1061],"ymouse":[501,501,501,501,501,501,501,501,501,499,497,496,496,493,493,493,493,493,493,493,493,493,493,493,493,493,493,493,493,493,493,493,493,493,493,493,493,487,483,456,431,416,400,384,353,336,321,304,291,270,256,248,239,229,210,197,184,170,157,125,115,106,102,99,98,94,89,84,74,56,46,42,40,37,33,33,33,33,33,33,33,33,33,33,33],"timestamp_mouse":[9,24,43,62,83,102,122,143,163,183,202,223,244,263,283,302,322,342,363,384,404,422,443,462,484,503,524,544,563,584,603,622,644,663,682,703,723,742,763,783,802,822,843,862,883,902,923,943,963,983,1002,1022,1043,1062,1082,1102,1124,1144,1164,1183,1202,1222,1243,1262,1283,1303,1324,1344,1364,1383,1404,1422,1443,1462,1483,1504,1524,1543,1562,1583,1603,1623,1642,1664,1683],"xSR":741.5,"ySR":469.95,"xT1":424.9,"yT1":0,"xT2":1058.1,"yT2":0,"toosoon":0,"cond_shown":"equaldotanddens","ratio_trial":500,"smaller_num":"2","larger_num":"4","correct_side":2,"subjID":"isabellacardenas15","gender":"1","age":"9","school":"4"},{"start_time":1552309651786,"click_time":1552309654254,"finger_time":1552309653236,"fix_duration":1010.6763292582426,"trial":29,"RT":1450,"MT":1018,"sideResp":2,"stimulus":"img/900/randomdotsizeEA/L/2_Ratio_900_L_20_R_18.png","xmouse":[809,809,809,809,809,809,809,809,809,809,809,809,809,809,809,809,809,809,809,809,809,809,809,809,809,809,809,809,809,809,809,809,809,809,809,809,809,809,809,809,809,809,810,810,810,811,812,813,814,814,814,814,814,814,814,814,814,814,814,814,814,814,814,817,817,818,819,821,826,830,832,834,841,845,846,847,848,849,850,851,854,857,860,867,871,877,880,885,891,895,899,902,906,917,920,925,930,935,945,950,956,959,966,970,974,977,984,987,995,998,1000,1004,1010,1013,1020,1029,1032,1034,1036,1038,1045,1051,1056,1063],"ymouse":[522,522,522,522,522,522,522,522,522,522,522,522,522,522,522,522,522,522,522,522,522,522,522,522,522,522,522,522,522,522,522,522,522,522,522,522,522,522,522,522,522,522,522,522,522,522,522,522,521,521,521,521,521,521,521,521,521,521,521,521,521,521,521,519,518,517,515,511,501,494,487,482,467,460,456,452,451,446,444,440,435,430,426,413,407,397,392,385,374,369,363,358,352,339,331,318,308,296,274,261,248,237,213,202,192,183,168,160,142,136,129,122,115,110,106,102,100,98,95,93,91,90,89,87],"timestamp_mouse":[14,31,48,69,89,109,128,148,168,189,208,230,250,269,290,309,328,349,369,390,408,430,449,469,488,510,530,549,569,589,609,630,648,670,689,708,729,748,769,790,810,829,850,870,888,908,930,949,969,990,1009,1030,1048,1069,1088,1108,1128,1150,1169,1188,1208,1228,1250,1268,1288,1309,1329,1349,1370,1389,1409,1429,1450,1468,1489,1508,1528,1550,1568,1588,1608,1628,1649,1668,1689,1708,1729,1749,1768,1789,1809,1829,1848,1868,1889,1908,1929,1948,1969,1988,2009,2028,2051,2069,2088,2109,2128,2149,2169,2188,2209,2229,2251,2269,2289,2308,2328,2348,2368,2388,2409,2429,2448,2468],"xSR":741.5,"ySR":469.95,"xT1":424.9,"yT1":0,"xT2":1058.1,"yT2":0,"toosoon":0,"cond_shown":"randomdotsizeEA","ratio_trial":900,"smaller_num":"18","larger_num":"20","correct_side":1,"subjID":"isabellacardenas15","gender":"1","age":"9","school":"4"},{"start_time":1552309656780,"click_time":1552309658176,"finger_time":1552309657654,"fix_duration":303.68549242822394,"trial":30,"RT":874,"MT":522,"sideResp":2,"stimulus":"img/500/equaldotsize/R/6_Ratio_500_L_9_R_18.png","xmouse":[760,760,760,760,760,760,760,760,760,760,760,760,760,760,760,760,760,760,760,760,760,760,760,760,760,760,760,760,760,760,760,760,760,760,760,760,760,760,760,762,766,771,774,790,805,823,841,861,897,911,926,938,953,993,1006,1013,1017,1017,1017,1017,1017,1017,1017,1017,1017,1017,1017,1017,1017,1064],"ymouse":[510,510,510,510,510,510,510,510,510,510,510,507,505,505,505,505,505,505,505,505,505,504,502,500,499,499,499,499,499,499,499,499,499,499,499,499,499,499,499,495,492,485,476,418,383,347,316,289,234,208,176,149,118,48,27,9,0,0,0,0,0,0,0,0,0,0,0,0,0,2],"timestamp_mouse":[15,38,56,76,95,115,136,155,174,195,216,235,256,275,295,314,336,354,375,394,414,435,456,474,495,516,536,554,574,596,616,636,656,676,695,714,734,755,776,795,816,835,855,874,894,914,935,955,974,994,1016,1035,1054,1075,1096,1115,1135,1156,1175,1195,1215,1234,1255,1275,1294,1315,1334,1354,1375,1395],"xSR":741.5,"ySR":469.95,"xT1":424.9,"yT1":0,"xT2":1058.1,"yT2":0,"toosoon":0,"cond_shown":"equaldotsize","ratio_trial":500,"smaller_num":"9","larger_num":"18","correct_side":2,"subjID":"isabellacardenas15","gender":"1","age":"9","school":"4"},{"start_time":1552309660743,"click_time":1552309662194,"finger_time":1552309661674,"fix_duration":1007.3132880006924,"trial":31,"RT":931,"MT":520,"sideResp":2,"stimulus":"img/250/equaldotanddens/R/12_Ratio_250_L_5_R_20.png","xmouse":[806,806,806,806,806,806,806,806,806,806,806,806,806,806,806,806,806,806,806,806,806,806,806,806,806,806,806,806,806,806,806,806,806,806,806,806,806,806,806,806,806,807,808,816,820,826,842,856,869,879,889,901,904,908,913,914,922,928,934,939,945,957,963,971,983,992,1012,1023,1033,1043,1050,1060,1061],"ymouse":[510,510,510,510,510,510,510,510,510,510,510,510,510,510,510,510,510,510,510,510,510,510,510,510,510,510,510,510,510,510,510,510,510,510,510,510,510,510,510,510,510,510,510,510,505,495,459,435,411,392,376,356,350,345,339,335,325,318,310,304,297,284,276,266,249,236,201,180,159,140,124,101,98],"timestamp_mouse":[11,38,51,71,91,111,130,151,171,190,211,231,250,271,292,310,331,350,371,391,410,430,451,472,490,510,532,552,571,591,610,630,651,670,690,712,730,751,770,791,810,831,852,871,890,910,931,950,971,991,1013,1030,1050,1070,1090,1110,1130,1151,1171,1192,1211,1230,1250,1270,1291,1312,1332,1351,1371,1391,1411,1430,1450],"xSR":741.5,"ySR":469.95,"xT1":424.9,"yT1":0,"xT2":1058.1,"yT2":0,"toosoon":0,"cond_shown":"equaldotanddens","ratio_trial":250,"smaller_num":"5","larger_num":"20","correct_side":2,"subjID":"isabellacardenas15","gender":"1","age":"9","school":"4"},{"start_time":1552309664735,"click_time":1552309666955,"finger_time":1552309666033,"fix_duration":919.8043975755493,"trial":32,"RT":1298,"MT":922,"sideResp":2,"stimulus":"img/250/randomdotsizeEA/R/4_Ratio_250_L_3_R_12.png","xmouse":[786,786,786,786,786,786,786,786,786,786,786,786,786,786,786,786,786,786,786,786,786,786,786,786,786,786,786,786,786,786,786,786,786,786,786,786,786,786,786,786,786,786,786,786,786,786,786,785,785,785,785,785,785,785,785,785,785,785,785,785,785,785,785,785,786,791,799,820,831,843,852,862,873,879,883,887,891,901,906,912,917,923,942,949,957,962,968,980,985,990,994,997,1002,1005,1007,1008,1011,1015,1018,1020,1022,1023,1027,1032,1038,1040,1042,1044,1047,1050,1056,1061],"ymouse":[536,536,536,536,536,536,536,536,536,536,536,536,536,536,536,536,536,536,536,536,536,536,536,536,536,536,536,536,536,536,536,536,536,536,536,536,536,536,536,536,536,536,536,536,534,533,532,529,527,526,524,522,518,514,511,508,506,502,500,499,497,495,488,480,475,468,459,435,419,403,386,370,346,331,322,313,303,281,269,256,243,233,199,187,173,162,154,139,132,126,119,115,106,101,100,99,97,94,91,89,86,85,82,82,81,80,79,79,79,79,78,77],"timestamp_mouse":[1,19,38,58,79,98,119,138,158,178,199,219,239,258,279,298,319,339,358,378,399,420,438,460,479,498,518,538,558,579,600,618,639,658,680,699,719,738,759,780,798,819,838,858,879,899,919,938,958,979,998,1018,1038,1060,1079,1100,1118,1138,1158,1178,1199,1218,1238,1258,1279,1298,1318,1339,1358,1379,1398,1419,1439,1458,1478,1499,1518,1538,1558,1578,1599,1619,1638,1658,1679,1699,1718,1738,1758,1778,1799,1820,1839,1859,1880,1899,1918,1938,1958,1979,1999,2018,2039,2059,2078,2100,2119,2138,2158,2178,2198,2219],"xSR":741.5,"ySR":469.95,"xT1":424.9,"yT1":0,"xT2":1058.1,"yT2":0,"toosoon":0,"cond_shown":"randomdotsizeEA","ratio_trial":250,"smaller_num":"3","larger_num":"12","correct_side":2,"subjID":"isabellacardenas15","gender":"1","age":"9","school":"4"},{"start_time":1552309669708,"click_time":1552309672234,"finger_time":1552309670773,"fix_duration":1092.5072823138196,"trial":33,"RT":1065,"MT":1461,"sideResp":1,"stimulus":"img/750/equaldotanddens/L/10_Ratio_750_L_4_R_3.png","xmouse":[786,786,786,786,786,786,786,786,786,786,786,786,786,786,786,786,786,786,786,786,786,786,786,786,785,785,785,785,785,785,785,785,785,785,785,785,785,785,785,785,785,785,785,784,780,778,777,777,777,777,777,778,781,785,797,804,808,809,809,810,810,810,810,810,810,810,810,806,802,800,800,799,794,784,758,737,709,682,662,640,639,638,638,637,637,637,638,640,642,642,642,642,642,642,642,642,642,642,642,642,642,642,642,642,642,642,642,642,642,642,642,642,642,642,642,642,642,642,642,642,642,642,642,642,642,642,497],"ymouse":[528,528,528,528,528,528,528,528,528,528,528,528,528,528,528,528,528,528,528,528,528,528,528,527,517,513,510,510,510,510,510,510,510,510,510,510,510,510,510,510,510,510,510,507,495,486,482,479,479,479,479,475,471,465,444,434,428,423,418,415,415,415,415,414,414,413,411,407,397,376,363,358,347,336,321,313,306,299,296,292,292,284,268,248,195,165,133,91,52,11,11,11,11,11,11,11,11,11,11,11,11,11,11,11,11,11,11,11,11,11,11,11,11,11,11,11,11,11,11,11,11,11,11,11,11,11,4],"timestamp_mouse":[14,27,45,67,85,106,126,145,166,187,206,227,247,265,285,306,326,345,365,385,407,425,445,465,485,505,525,545,565,585,606,626,645,665,685,706,725,747,766,786,805,825,846,865,886,905,926,947,965,986,1006,1025,1047,1065,1085,1106,1126,1146,1166,1185,1206,1226,1246,1267,1287,1305,1326,1345,1365,1385,1405,1426,1446,1465,1486,1506,1525,1545,1565,1585,1606,1625,1646,1665,1685,1706,1726,1746,1766,1786,1805,1826,1846,1865,1885,1906,1925,1946,1967,1985,2005,2026,2045,2066,2085,2105,2126,2145,2166,2185,2205,2226,2246,2266,2286,2306,2327,2347,2365,2385,2405,2426,2445,2466,2485,2505,2526],"xSR":741.5,"ySR":469.95,"xT1":424.9,"yT1":0,"xT2":1058.1,"yT2":0,"toosoon":0,"cond_shown":"equaldotanddens","ratio_trial":750,"smaller_num":"3","larger_num":"4","correct_side":1,"subjID":"isabellacardenas15","gender":"1","age":"9","school":"4"},{"start_time":1552309679198,"click_time":1552309683293,"finger_time":1552309682613,"fix_duration":1203.4657383253357,"trial":34,"RT":3415,"MT":680,"sideResp":2,"stimulus":"img/750/equaldotanddens/R/7_Ratio_750_L_3_R_4.png","xmouse":[792,792,792,792,792,792,792,792,792,792,792,792,792,792,792,792,792,792,792,792,792,792,792,792,792,792,792,792,792,792,792,792,792,792,792,792,792,792,792,792,792,792,792,792,792,792,792,792,792,792,792,792,792,792,792,792,792,792,792,792,795,799,801,801,801,801,801,801,801,801,801,801,801,801,801,801,801,801,801,801,801,801,801,801,801,801,801,801,801,801,801,801,801,801,801,801,801,801,801,801,801,801,801,801,801,801,801,801,801,801,801,801,801,801,801,801,800,799,797,794,779,770,770,769,769,769,769,769,769,769,769,769,769,769,769,769,769,769,769,769,769,769,769,769,769,770,772,773,775,777,781,785,788,792,794,796,796,796,797,797,802,803,806,809,813,816,817,818,823,827,846,860,870,877,884,900,910,920,930,938,952,961,967,970,974,979,980,982,985,986,989,992,994,996,998,1008,1017,1029,1042,1057,1077,1089,1097,1104,1108],"ymouse":[536,536,536,536,536,536,536,536,536,536,536,536,536,536,536,536,536,536,536,536,536,536,536,536,536,536,536,536,536,536,536,536,536,536,536,536,536,536,536,536,536,536,536,536,536,536,536,536,536,536,536,536,536,536,536,536,536,536,536,536,536,536,535,535,535,535,535,535,535,535,535,535,535,535,535,535,535,535,535,535,535,535,535,535,535,535,535,535,535,535,535,535,535,535,535,535,535,535,535,535,535,535,535,535,535,535,535,535,535,535,535,535,535,535,535,535,535,535,535,535,537,540,540,540,540,540,540,540,540,540,540,540,540,540,540,540,540,540,540,540,540,540,540,540,540,539,538,537,536,535,530,526,523,521,519,518,518,517,517,516,511,510,508,506,503,501,500,499,497,494,484,475,466,460,451,437,428,414,403,391,370,356,346,340,331,318,312,306,302,297,289,281,277,273,268,253,241,225,207,187,152,128,115,103,94],"timestamp_mouse":[16,36,55,75,95,115,135,155,177,197,217,236,256,276,296,315,337,355,376,396,417,436,456,476,495,515,536,555,575,596,616,636,656,676,697,717,736,755,776,795,815,836,856,875,895,916,937,957,976,996,1015,1035,1057,1077,1095,1115,1135,1157,1176,1195,1215,1235,1257,1276,1295,1317,1335,1355,1377,1396,1416,1435,1455,1477,1497,1517,1535,1555,1576,1597,1616,1636,1655,1675,1695,1717,1736,1757,1776,1795,1816,1836,1856,1876,1895,1917,1936,1957,1976,1996,2016,2035,2057,2077,2096,2116,2136,2156,2175,2195,2217,2236,2257,2276,2297,2317,2336,2355,2375,2396,2415,2435,2455,2476,2495,2516,2536,2556,2576,2595,2615,2636,2655,2675,2695,2717,2736,2757,2776,2796,2816,2835,2856,2875,2895,2916,2935,2955,2977,2997,3015,3035,3055,3075,3095,3117,3135,3156,3175,3197,3216,3236,3255,3276,3295,3316,3335,3355,3376,3396,3415,3435,3455,3476,3495,3516,3537,3555,3575,3596,3616,3635,3655,3675,3695,3715,3736,3756,3776,3795,3816,3836,3855,3876,3895,3916,3935,3956,3975,3995,4015,4035,4055,4076,4095],"xSR":741.5,"ySR":469.95,"xT1":424.9,"yT1":0,"xT2":1058.1,"yT2":0,"toosoon":0,"cond_shown":"equaldotanddens","ratio_trial":750,"smaller_num":"3","larger_num":"4","correct_side":2,"subjID":"isabellacardenas15","gender":"1","age":"9","school":"4"},{"start_time":1552309685646,"click_time":1552309687713,"finger_time":1552309686714,"fix_duration":250,"trial":35,"RT":1068,"MT":999,"sideResp":1,"stimulus":"img/500/equaldotsize/L/11_Ratio_500_L_12_R_6.png","xmouse":[804,804,804,804,804,804,804,804,804,804,804,804,806,806,807,807,807,807,807,807,807,807,807,807,807,807,807,807,807,807,807,807,807,807,807,807,807,807,807,807,808,808,808,808,809,810,810,810,810,810,810,809,806,801,798,796,794,791,784,779,770,760,747,721,702,688,678,671,662,657,650,641,628,595,579,565,557,555,555,555,555,555,554,550,546,538,529,513,490,476,468,463,462,462,462,462,462,462,463,465,469,472,477,479],"ymouse":[513,513,513,513,513,513,513,513,513,513,513,513,514,513,513,513,512,512,512,512,512,512,512,512,512,512,512,512,512,512,512,512,512,512,512,512,512,512,512,512,511,511,511,511,509,508,507,505,501,496,490,484,477,466,461,457,454,451,438,431,420,409,395,373,362,354,348,344,336,332,323,314,298,250,228,211,198,196,196,196,196,196,195,191,187,178,167,149,125,114,107,104,103,103,103,103,103,103,102,102,102,101,100,98],"timestamp_mouse":[11,31,48,68,87,107,127,148,167,188,208,228,247,268,288,308,327,348,367,387,408,427,447,467,489,509,528,548,567,589,609,629,647,667,688,708,729,748,768,787,808,828,847,869,887,908,928,948,968,988,1007,1029,1048,1068,1087,1107,1127,1149,1168,1187,1208,1228,1247,1269,1287,1308,1327,1348,1369,1387,1407,1427,1447,1469,1487,1508,1527,1548,1568,1588,1609,1629,1647,1668,1687,1708,1727,1747,1769,1787,1808,1828,1849,1868,1887,1907,1928,1948,1969,1988,2007,2028,2048,2067],"xSR":741.5,"ySR":469.95,"xT1":424.9,"yT1":0,"xT2":1058.1,"yT2":0,"toosoon":0,"cond_shown":"equaldotsize","ratio_trial":500,"smaller_num":"6","larger_num":"12","correct_side":1,"subjID":"isabellacardenas15","gender":"1","age":"9","school":"4"},{"start_time":1552309689650,"click_time":1552309691253,"finger_time":1552309690613,"fix_duration":854.2443176370987,"trial":36,"RT":963,"MT":640,"sideResp":2,"stimulus":"img/250/randomdotsizeEA/R/6_Ratio_250_L_6_R_24.png","xmouse":[821,821,821,821,820,819,819,819,819,819,819,819,819,819,819,819,819,819,819,819,819,819,819,819,819,819,819,819,818,817,817,816,816,815,815,815,815,815,815,815,815,815,815,816,820,826,832,839,846,871,891,914,937,954,975,987,994,1001,1008,1019,1024,1028,1032,1034,1035,1036,1038,1040,1040,1040,1040,1040,1040,1040,1040,1040,1040,1040,1052,1056,1059],"ymouse":[502,499,497,497,492,490,490,490,490,490,490,490,490,490,490,490,490,490,490,490,489,489,489,489,489,489,489,489,489,490,490,491,493,493,493,493,493,493,493,493,493,493,493,493,489,483,478,472,466,439,415,388,357,334,295,266,250,233,218,182,160,138,112,89,66,30,11,4,4,4,4,4,4,4,4,4,4,4,1,7,11],"timestamp_mouse":[4,26,53,65,84,103,124,145,165,183,204,223,244,263,283,303,324,344,363,384,404,423,443,463,484,503,525,544,563,583,604,623,643,664,685,704,724,743,763,783,803,825,845,864,883,904,923,943,963,983,1005,1025,1044,1064,1083,1103,1123,1144,1163,1183,1204,1224,1243,1265,1284,1304,1323,1343,1364,1383,1404,1424,1444,1463,1484,1504,1524,1544,1565,1585,1603],"xSR":741.5,"ySR":469.95,"xT1":424.9,"yT1":0,"xT2":1058.1,"yT2":0,"toosoon":0,"cond_shown":"randomdotsizeEA","ratio_trial":250,"smaller_num":"6","larger_num":"24","correct_side":2,"subjID":"isabellacardenas15","gender":"1","age":"9","school":"4"},{"start_time":1552309693046,"click_time":1552309694734,"finger_time":1552309693874,"fix_duration":250,"trial":37,"RT":828,"MT":860,"sideResp":2,"stimulus":"img/900/equaldotanddens/R/5_Ratio_900_L_9_R_10.png","xmouse":[796,796,796,796,796,796,796,796,796,796,796,796,796,796,796,796,796,796,796,796,796,796,797,797,797,798,798,798,798,798,798,798,799,800,800,800,801,802,803,806,808,811,813,815,819,819,820,820,820,820,822,824,827,834,858,874,889,904,915,926,941,949,957,967,996,1009,1020,1027,1030,1030,1031,1031,1032,1035,1042,1049,1054,1058,1060,1063,1070,1074,1080,1084,1088],"ymouse":[497,497,497,497,497,497,497,497,497,497,497,497,497,497,497,497,497,497,497,497,497,497,496,495,494,493,493,492,492,492,492,492,492,490,489,488,486,484,482,474,470,463,456,449,435,434,433,433,433,433,429,424,419,411,379,360,339,321,304,289,262,249,239,225,187,171,158,149,145,144,144,144,143,143,141,139,137,135,133,131,124,120,114,106,94],"timestamp_mouse":[10,41,47,69,89,107,128,148,167,189,207,228,248,269,288,308,327,347,368,387,407,428,449,468,488,508,527,549,568,587,608,627,648,668,688,708,727,748,768,788,807,828,847,867,888,907,927,948,967,987,1007,1027,1047,1069,1088,1107,1127,1148,1168,1187,1207,1227,1247,1268,1288,1307,1327,1348,1367,1388,1408,1427,1448,1467,1488,1507,1527,1548,1567,1588,1607,1629,1649,1668,1688],"xSR":741.5,"ySR":469.95,"xT1":424.9,"yT1":0,"xT2":1058.1,"yT2":0,"toosoon":0,"cond_shown":"equaldotanddens","ratio_trial":900,"smaller_num":"9","larger_num":"10","correct_side":2,"subjID":"isabellacardenas15","gender":"1","age":"9","school":"4"},{"start_time":1552309699537,"click_time":1552309701394,"finger_time":1552309700653,"fix_duration":582.8729936686746,"trial":38,"RT":1116,"MT":741,"sideResp":2,"stimulus":"img/750/randomdotsizeEA/L/1_Ratio_750_L_20_R_15.png","xmouse":[782,782,782,782,782,782,782,782,782,782,782,782,782,782,782,782,782,782,782,782,782,782,782,782,782,782,782,782,782,782,782,782,782,782,782,782,782,782,782,782,782,782,782,782,782,782,782,784,785,786,786,786,786,780,764,723,703,692,683,678,663,652,645,636,626,619,611,611,611,611,611,611,611,611,612,615,618,620,624,626,632,636,641,647,652,670,685,708,733,776,921,1000,1081],"ymouse":[504,504,504,504,504,504,504,504,504,504,504,504,504,504,504,504,504,504,504,504,504,504,504,504,504,504,504,504,504,504,504,504,504,504,504,504,504,504,504,504,504,504,504,504,504,504,504,500,498,497,494,493,492,488,480,462,450,443,435,428,416,409,403,395,387,380,373,373,373,373,373,371,368,365,360,345,325,308,289,270,233,219,207,199,192,184,181,176,170,157,111,75,35],"timestamp_mouse":[17,41,57,77,96,117,136,156,177,197,218,237,256,276,297,318,336,356,376,398,418,436,456,476,498,516,536,557,577,596,617,636,658,676,696,716,737,756,777,798,818,837,857,877,896,916,936,956,977,996,1017,1036,1057,1076,1097,1116,1136,1156,1176,1196,1217,1236,1257,1277,1298,1316,1336,1357,1377,1396,1416,1436,1457,1476,1497,1517,1536,1556,1576,1597,1617,1637,1657,1676,1698,1717,1736,1756,1776,1797,1817,1837,1857],"xSR":741.5,"ySR":469.95,"xT1":424.9,"yT1":0,"xT2":1058.1,"yT2":0,"toosoon":0,"cond_shown":"randomdotsizeEA","ratio_trial":750,"smaller_num":"15","larger_num":"20","correct_side":1,"subjID":"isabellacardenas15","gender":"1","age":"9","school":"4"},{"start_time":1552309705145,"click_time":1552309707273,"finger_time":1552309706355,"fix_duration":270.80059051348695,"trial":39,"RT":1210,"MT":918,"sideResp":1,"stimulus":"img/750/randomdotsizeEA/L/9_Ratio_750_L_4_R_3.png","xmouse":[797,797,797,797,797,797,797,797,797,797,797,797,797,797,797,797,797,797,797,797,797,797,797,797,797,797,797,797,797,797,797,797,797,797,797,797,797,797,797,797,797,797,797,797,797,797,797,797,797,797,797,796,796,793,790,788,784,781,777,772,762,757,754,750,745,741,718,695,653,601,548,434,416,370,359,355,355,355,355,355,355,355,356,366,379,390,399,399,399,399,399,399,399,399,401,407,411,415,416,416,416,419,420,421,426,429,442],"ymouse":[533,533,533,533,533,533,533,533,533,533,533,533,533,533,533,533,533,533,533,533,533,533,533,533,533,533,533,533,533,533,533,533,533,533,533,533,533,533,533,533,533,533,533,533,533,533,533,533,533,533,533,527,524,518,513,510,501,497,490,482,468,463,461,457,453,450,435,418,378,317,252,151,140,124,121,121,121,120,120,120,120,120,120,120,118,116,115,115,115,115,115,115,115,114,113,106,104,103,102,102,102,102,102,102,102,102,99],"timestamp_mouse":[12,41,49,68,90,108,129,149,170,190,209,229,250,269,289,310,329,348,369,388,409,430,449,469,488,508,529,550,569,589,609,629,649,670,688,708,729,749,770,790,809,832,848,869,889,908,928,950,969,988,1009,1028,1048,1068,1089,1108,1128,1148,1168,1188,1210,1229,1249,1268,1289,1309,1328,1348,1368,1388,1408,1428,1448,1468,1488,1509,1528,1548,1570,1589,1608,1628,1648,1668,1688,1709,1728,1750,1769,1788,1809,1829,1850,1870,1890,1910,1928,1949,1969,1990,2008,2028,2048,2069,2089,2108,2128],"xSR":741.5,"ySR":469.95,"xT1":424.9,"yT1":0,"xT2":1058.1,"yT2":0,"toosoon":0,"cond_shown":"randomdotsizeEA","ratio_trial":750,"smaller_num":"3","larger_num":"4","correct_side":1,"subjID":"isabellacardenas15","gender":"1","age":"9","school":"4"},{"start_time":1552309709840,"click_time":1552309711813,"finger_time":1552309710773,"fix_duration":1345.002503385962,"trial":40,"RT":933,"MT":1040,"sideResp":2,"stimulus":"img/900/equaldotanddens/R/3_Ratio_900_L_9_R_10.png","xmouse":[783,783,783,783,783,783,783,783,783,783,783,783,783,783,783,783,783,783,783,783,783,783,783,783,783,783,783,783,783,783,783,783,783,783,783,783,783,783,783,783,783,783,783,783,784,785,790,793,794,795,796,802,810,820,827,828,828,832,835,838,843,856,867,883,902,918,975,1015,1064,1134,1215,1335,1335,1335,1335,1335,1335,1335,1335,1335,1335,1335,1335,1335,1335,1335,1335,1335,1335,1335,1335,1335,1335,1335,1335,1335,1174,1160,1154],"ymouse":[492,489,485,483,482,481,479,478,478,478,478,478,477,476,476,476,475,475,475,475,475,475,475,475,475,475,475,475,475,475,475,475,475,475,475,475,475,475,475,475,475,475,475,474,473,472,464,458,457,456,455,438,422,405,394,389,381,371,365,361,355,340,329,317,305,293,248,214,172,124,76,7,7,7,7,7,7,7,7,7,7,7,7,7,7,7,7,7,7,7,7,7,7,7,7,7,9,34,49],"timestamp_mouse":[14,33,53,73,93,113,134,154,174,194,213,234,254,274,293,314,333,354,375,394,414,434,454,473,495,514,533,553,574,594,614,633,654,674,695,714,733,753,773,793,813,833,854,874,893,915,933,954,973,994,1013,1034,1054,1074,1093,1114,1133,1154,1173,1194,1213,1233,1253,1273,1293,1313,1334,1353,1374,1394,1414,1433,1454,1473,1493,1514,1533,1554,1573,1594,1613,1634,1653,1675,1695,1715,1734,1754,1775,1794,1815,1833,1854,1873,1893,1914,1933,1953,1973],"xSR":741.5,"ySR":469.95,"xT1":424.9,"yT1":0,"xT2":1058.1,"yT2":0,"toosoon":0,"cond_shown":"equaldotanddens","ratio_trial":900,"smaller_num":"9","larger_num":"10","correct_side":2,"subjID":"isabellacardenas15","gender":"1","age":"9","school":"4"},{"start_time":1552309713666,"click_time":1552309716293,"finger_time":1552309715854,"fix_duration":250,"trial":41,"RT":2188,"MT":439,"sideResp":1,"stimulus":"img/900/equaldotanddens/L/1_Ratio_900_L_10_R_9.png","xmouse":[760,760,760,760,760,760,760,760,760,760,760,760,760,760,760,760,760,760,760,760,760,760,760,760,760,760,760,760,760,760,760,760,760,760,760,760,760,760,760,760,760,760,760,760,760,760,760,760,760,760,760,760,760,760,760,760,760,760,760,760,760,760,760,760,760,760,760,760,760,760,760,760,760,760,760,760,760,760,760,760,760,760,760,760,760,760,760,760,760,760,760,760,760,760,760,760,760,760,760,760,760,760,760,760,760,760,760,760,761,761,761,757,750,736,726,713,677,657,637,609,581,526,508,486,479,474,460,455,449,442,439,436],"ymouse":[537,537,537,537,537,537,537,537,537,537,537,537,537,537,537,537,537,537,537,537,537,537,537,537,537,537,537,537,529,527,522,517,515,515,515,515,515,515,515,515,515,514,512,506,499,499,499,499,499,499,499,499,499,499,499,499,499,499,499,499,499,499,499,499,499,499,499,499,499,499,499,499,499,499,499,499,499,499,499,499,499,499,499,499,499,499,499,499,499,499,499,499,499,499,499,499,499,499,499,499,499,499,499,499,499,499,496,490,478,468,450,435,419,400,388,371,337,321,307,290,274,250,242,230,222,214,188,175,161,145,129,95],"timestamp_mouse":[10,27,47,67,89,108,127,148,167,187,209,229,248,267,287,308,327,348,369,387,408,428,447,468,488,508,528,547,568,587,607,627,647,669,687,708,728,748,767,789,809,828,847,868,888,907,928,947,967,989,1007,1028,1048,1068,1088,1107,1127,1147,1167,1188,1207,1227,1247,1267,1288,1309,1328,1349,1368,1388,1407,1428,1447,1468,1487,1508,1529,1547,1569,1588,1607,1628,1647,1668,1688,1707,1728,1748,1767,1788,1807,1827,1847,1869,1888,1907,1928,1948,1967,1987,2007,2028,2047,2067,2088,2108,2127,2147,2168,2188,2209,2228,2247,2267,2287,2308,2327,2347,2368,2388,2409,2427,2448,2467,2488,2508,2528,2548,2567,2587,2607,2627],"xSR":741.5,"ySR":469.95,"xT1":424.9,"yT1":0,"xT2":1058.1,"yT2":0,"toosoon":0,"cond_shown":"equaldotanddens","ratio_trial":900,"smaller_num":"9","larger_num":"10","correct_side":1,"subjID":"isabellacardenas15","gender":"1","age":"9","school":"4"},{"start_time":1552309721955,"click_time":1552309724793,"finger_time":1552309722892,"fix_duration":1062.506036098735,"trial":42,"RT":937,"MT":1901,"sideResp":2,"stimulus":"img/250/randomdotsizeEA/R/11_Ratio_250_L_3_R_12.png","xmouse":[792,792,792,792,792,792,792,792,792,792,792,792,792,792,792,792,792,792,792,792,792,792,792,792,792,792,792,792,792,792,792,792,792,792,792,792,792,792,792,794,795,799,802,802,808,824,849,886,890,890,890,893,893,893,893,893,893,893,893,893,893,893,893,893,893,893,893,893,893,893,893,893,893,892,891,889,888,888,888,888,888,888,888,888,888,888,888,886,886,886,886,886,886,886,886,886,886,890,893,897,904,909,920,930,937,945,951,963,968,973,976,979,982,983,985,988,990,994,994,994,994,994,994,996,1002,1003,1004,1007,1007,1007,1009,1014,1021,1021,1022,1023,1025,1035,1041,1049,1056,1059],"ymouse":[508,508,508,508,508,508,508,508,508,508,508,508,508,508,508,508,508,508,508,508,508,508,508,508,508,508,508,508,508,508,507,507,507,507,507,507,507,507,507,507,508,509,510,510,511,519,537,552,554,554,554,556,556,556,556,556,556,556,556,556,556,556,556,556,556,556,556,556,556,556,556,556,556,556,556,556,557,557,557,557,557,557,557,557,557,557,557,555,553,553,553,553,553,553,553,553,551,540,536,529,520,510,474,426,400,374,353,303,268,239,213,190,151,128,113,100,89,77,76,76,76,76,76,75,75,75,75,74,74,74,74,72,72,72,72,72,72,68,66,64,61,59],"timestamp_mouse":[17,41,57,77,98,117,137,157,177,197,218,237,257,278,299,319,338,357,377,398,418,437,457,477,499,518,538,557,577,597,618,638,659,679,698,717,739,758,779,798,819,837,858,878,897,919,937,957,977,997,1017,1037,1057,1078,1098,1118,1137,1157,1178,1197,1218,1239,1258,1277,1298,1317,1338,1357,1378,1399,1417,1438,1457,1477,1498,1517,1538,1557,1577,1598,1617,1638,1657,1678,1697,1717,1737,1757,1779,1797,1818,1837,1857,1878,1898,1917,1937,1958,1978,1997,2017,2037,2057,2078,2097,2118,2137,2157,2177,2197,2218,2238,2257,2277,2297,2318,2337,2357,2377,2398,2417,2438,2461,2478,2498,2518,2537,2557,2577,2597,2617,2639,2657,2677,2698,2718,2738,2757,2777,2797,2817,2838],"xSR":741.5,"ySR":469.95,"xT1":424.9,"yT1":0,"xT2":1058.1,"yT2":0,"toosoon":0,"cond_shown":"randomdotsizeEA","ratio_trial":250,"smaller_num":"3","larger_num":"12","correct_side":2,"subjID":"isabellacardenas15","gender":"1","age":"9","school":"4"},{"start_time":1552309727116,"click_time":1552309737552,"finger_time":1552309731673,"fix_duration":1222.2132078998839,"trial":43,"RT":4557,"MT":5879,"sideResp":2,"stimulus":"img/900/randomdotsizeEA/L/1_Ratio_900_L_10_R_9.png","xmouse":[780,780,780,780,780,780,780,780,780,780,780,780,780,780,780,780,780,780,780,780,780,780,780,780,780,780,780,780,780,780,780,780,780,780,780,780,780,780,780,780,780,780,780,780,780,780,780,780,780,780,780,780,780,780,780,780,780,780,780,780,780,780,780,780,780,780,780,780,780,780,780,780,780,780,780,780,780,780,780,780,780,780,780,780,780,780,780,780,780,780,780,780,780,780,780,780,780,780,780,780,780,780,780,780,780,780,780,780,780,780,780,780,780,779,778,778,778,778,778,778,778,778,778,778,778,778,778,778,778,778,778,778,778,778,778,778,778,778,778,778,778,778,778,778,778,778,778,778,778,778,778,778,778,778,780,785,786,788,788,788,788,788,788,788,788,788,788,788,788,788,788,788,788,788,788,788,788,788,788,788,788,788,788,788,788,788,788,788,788,788,788,788,788,788,788,788,788,788,788,788,788,788,788,788,788,788,788,788,788,787,787,787,787,787,787,787,787,786,786,786,786,785,785,785,784,784,784,784,784,784,783,783,783,783,783,783,783,783,783,783,783,783,783,783,783,783,783,783,782,781,781,780,780,780,780,780,780,780,780,780,780,780,780,780,780,780,780,780,780,780,780,780,780,780,780,780,780,780,780,780,780,780,780,780,780,780,780,780,780,780,780,780,780,780,780,780,780,780,780,780,780,780,780,780,780,780,780,780,780,780,780,780,780,780,780,780,780,780,780,780,780,780,780,779,776,770,770,770,770,770,770,770,770,770,770,770,770,770,770,770,770,770,770,770,769,769,773,779,785,791,798,801,802,804,804,805,805,805,805,805,805,805,805,805,805,805,805,805,805,805,805,805,805,805,804,804,804,804,803,801,800,800,800,800,800,800,800,800,800,800,801,801,801,801,801,801,801,801,801,799,796,793,792,792,792,792,792,792,792,792,792,792,792,792,792,792,791,790,790,788,787,787,787,787,787,787,787,787,787,787,787,787,787,787,787,787,787,787,787,787,787,787,787,787,787,787,787,787,787,787,786,781,776,773,771,770,770,770,770,770,770,770,770,770,770,770,770,770,770,770,770,770,770,770,770,770,770,770,770,770,770,770,770,770,770,769,770,770,773,775,783,788,795,807,816,828,833,838,848,854,863,866,871,880,890,910,922,933,947,965,1001,1007,1017,1030,1043,1070,1081,1089,1096,1100,1106,1109],"ymouse":[517,517,517,517,517,517,517,517,517,517,517,517,517,517,517,517,517,517,517,517,517,517,517,517,517,517,517,517,517,517,517,517,517,517,517,517,517,517,517,517,517,517,517,517,517,517,517,517,517,517,517,517,517,517,517,517,517,517,517,517,517,517,517,517,517,517,517,517,517,517,517,517,517,517,517,517,517,517,517,517,517,517,517,517,517,517,517,517,517,517,517,517,517,517,517,517,517,517,517,517,517,517,515,514,513,513,513,513,513,513,513,513,513,513,514,514,514,514,514,514,514,514,514,514,514,514,514,514,514,514,514,514,514,514,514,514,514,514,514,514,514,514,514,514,514,514,514,514,514,514,514,514,514,513,507,497,493,490,489,489,489,489,489,489,489,489,489,489,489,489,489,489,489,489,489,489,489,489,489,489,489,489,489,489,489,489,489,489,489,489,489,489,489,489,489,489,489,489,489,489,489,489,489,489,489,489,489,488,485,482,479,479,479,479,479,479,479,477,477,477,475,474,474,474,472,471,470,468,467,467,466,466,466,466,466,466,466,466,466,466,466,466,466,466,466,466,466,464,463,460,459,459,459,459,459,459,459,459,459,459,459,459,459,459,459,459,459,459,459,459,459,459,459,459,459,459,459,459,459,459,459,459,459,459,459,459,459,459,459,459,459,459,459,459,459,459,459,459,459,459,459,459,459,459,459,459,459,459,459,459,459,458,456,455,454,452,452,452,452,452,452,452,452,452,452,452,452,452,452,452,452,452,452,452,452,452,452,452,452,452,452,452,452,452,452,459,469,480,493,507,533,548,555,561,563,564,564,564,564,564,564,564,564,564,563,563,563,563,562,562,561,561,561,561,560,559,559,558,555,551,547,547,547,547,547,547,546,545,542,539,532,527,527,527,527,527,527,527,527,528,530,532,533,533,533,533,533,533,533,533,533,533,533,533,533,533,533,533,532,530,528,528,527,527,527,527,527,527,527,527,527,527,527,527,527,527,527,527,527,527,527,527,526,526,526,526,526,526,526,526,525,526,529,531,532,533,533,533,533,533,533,533,533,533,533,533,533,533,533,533,533,533,533,533,533,533,533,533,533,533,533,533,533,533,533,533,527,524,520,514,499,490,473,438,407,368,355,343,329,321,315,313,307,297,285,257,242,230,219,209,194,192,186,177,166,147,138,130,123,117,104,99],"timestamp_mouse":[16,44,56,76,96,118,137,156,176,196,216,237,258,277,297,316,337,357,376,398,417,436,456,477,496,516,538,557,577,597,617,637,657,677,696,717,738,757,777,796,817,836,857,878,896,916,937,958,977,997,1016,1036,1056,1076,1097,1118,1136,1157,1176,1197,1217,1237,1257,1277,1296,1316,1336,1356,1377,1397,1417,1436,1457,1477,1497,1516,1537,1557,1578,1597,1618,1637,1656,1678,1697,1716,1737,1757,1777,1797,1816,1836,1856,1876,1896,1916,1937,1957,1977,1997,2017,2036,2056,2076,2097,2117,2138,2156,2176,2196,2216,2237,2256,2277,2296,2316,2336,2356,2377,2396,2416,2436,2456,2478,2496,2516,2537,2557,2576,2596,2616,2636,2657,2678,2697,2717,2737,2757,2777,2797,2817,2837,2858,2877,2897,2917,2937,2958,2977,2997,3016,3036,3057,3078,3096,3116,3136,3156,3176,3196,3216,3237,3256,3276,3297,3317,3338,3357,3377,3397,3416,3436,3456,3477,3497,3517,3537,3558,3577,3597,3616,3637,3656,3676,3697,3717,3737,3756,3776,3797,3816,3836,3857,3876,3896,3917,3937,3958,3978,3997,4017,4037,4058,4077,4097,4116,4136,4156,4176,4196,4216,4237,4257,4276,4296,4317,4336,4357,4377,4397,4416,4437,4456,4476,4496,4517,4538,4557,4576,4598,4617,4636,4656,4676,4697,4716,4736,4756,4776,4797,4816,4837,4856,4877,4897,4916,4937,4957,4976,4997,5016,5036,5058,5077,5097,5116,5137,5157,5177,5196,5217,5237,5256,5278,5297,5316,5337,5357,5376,5397,5416,5436,5457,5476,5497,5516,5536,5557,5577,5598,5617,5636,5657,5677,5698,5718,5737,5757,5777,5797,5817,5837,5856,5876,5897,5917,5937,5957,5977,5997,6016,6036,6057,6077,6096,6117,6136,6156,6177,6197,6216,6237,6256,6277,6297,6317,6337,6357,6377,6397,6416,6437,6457,6477,6497,6516,6538,6557,6577,6597,6616,6637,6656,6677,6698,6716,6736,6756,6778,6798,6817,6836,6857,6877,6896,6916,6937,6956,6976,6997,7018,7037,7056,7077,7097,7116,7137,7157,7178,7196,7217,7238,7257,7277,7297,7317,7336,7357,7376,7397,7416,7437,7457,7476,7497,7516,7537,7557,7576,7598,7616,7636,7656,7677,7696,7716,7736,7756,7776,7796,7816,7837,7856,7877,7897,7916,7936,7957,7978,7996,8016,8037,8056,8076,8097,8117,8136,8158,8177,8196,8217,8236,8256,8276,8297,8317,8337,8356,8376,8396,8416,8438,8456,8477,8496,8516,8538,8557,8576,8597,8618,8637,8657,8676,8697,8716,8738,8757,8777,8797,8816,8838,8857,8877,8897,8916,8937,8958,8978,8996,9016,9037,9056,9076,9097,9117,9137,9156,9178,9196,9216,9236,9257,9278,9297,9317,9337,9356,9376,9397,9417,9436,9456,9477,9496,9518,9537,9556,9576,9598,9616,9636,9657,9676,9696,9716,9736,9756,9776,9798,9816,9837,9856,9876,9896,9916,9936,9956,9976,9996,10017,10038,10057,10076,10096,10116,10136,10157,10176,10196,10217,10236,10256,10276,10296,10317,10336,10357,10376,10397,10417,10436],"xSR":741.5,"ySR":469.95,"xT1":424.9,"yT1":0,"xT2":1058.1,"yT2":0,"toosoon":0,"cond_shown":"randomdotsizeEA","ratio_trial":900,"smaller_num":"9","larger_num":"10","correct_side":1,"subjID":"isabellacardenas15","gender":"1","age":"9","school":"4"},{"start_time":1552309739676,"click_time":1552309741273,"finger_time":1552309740752,"fix_duration":922.9336326864725,"t