[{"start_time":1552308505233,"click_time":1552308508030,"finger_time":1552308507108,"fix_duration":320.0995065272014,"trial":0,"RT":1875,"MT":922,"sideResp":2,"stimulus":[],"xmouse":[783,783,783,783,783,783,783,783,783,783,783,783,783,783,783,783,783,783,783,783,783,783,783,783,783,783,783,783,783,783,783,783,783,783,783,783,783,783,783,783,783,783,783,783,783,783,783,783,783,783,783,783,783,783,783,783,783,783,783,783,783,783,783,783,783,783,783,783,783,783,783,783,783,783,783,783,783,783,783,783,783,783,783,783,783,783,783,783,783,783,783,783,833,947,1133,1262,1262,1262,1262,1262,1262,1262,1262,1262,1262,1262,1262,1262,1262,1298,1097,971,882,846,847,866,872,875,877,879,889,900,914,926,938,955,965,990,1012,1028,1037,1037,1037,1037,1037,1038,1042,1059,1088,1117],"ymouse":[561,561,561,561,561,561,561,561,561,561,561,561,561,561,561,561,561,561,561,561,561,561,561,561,561,561,561,561,561,561,561,561,561,561,561,561,561,561,561,561,561,561,561,561,561,561,561,561,561,561,561,561,561,561,561,561,561,561,561,561,561,561,561,561,561,561,561,561,561,561,561,561,561,561,561,561,561,561,561,561,561,561,561,561,561,561,561,561,561,561,561,561,483,383,173,17,17,17,17,17,17,17,17,17,17,17,17,17,17,29,183,287,370,416,421,412,407,401,393,387,375,366,354,343,330,292,270,227,185,158,135,124,116,113,112,111,110,107,104,99],"timestamp_mouse":[16,41,55,75,95,115,136,156,176,196,216,235,255,276,295,316,336,356,375,395,416,435,456,475,496,516,535,557,576,596,616,635,656,675,695,716,735,756,776,795,816,835,856,875,896,915,935,956,977,996,1015,1035,1056,1076,1096,1115,1135,1156,1176,1195,1215,1236,1255,1276,1295,1316,1336,1355,1376,1396,1416,1437,1456,1475,1495,1516,1535,1557,1576,1595,1615,1635,1656,1676,1695,1715,1735,1756,1776,1795,1816,1835,1855,1875,1896,1915,1935,1955,1976,1995,2015,2036,2055,2075,2096,2115,2135,2155,2176,2196,2216,2235,2256,2276,2295,2315,2335,2355,2376,2395,2416,2436,2455,2476,2496,2515,2536,2555,2575,2595,2616,2635,2655,2675,2696,2715,2735,2755,2775,2796],"xSR":741.5,"ySR":500.5,"xT1":424.9,"yT1":0,"xT2":1058.1,"yT2":0,"toosoon":0,"cond_shown":"Congruent","ratio_trial":100,"L_num":6,"L_den":12,"R_num":15,"R_den":25,"correct_side":2,"subjID":"isabellacardenassabogal15","gender":"1","age":"9","school":"4","test":{"fix_dur":[250,1500],"timestim":1000,"targets_dim":[100,100],"targets_relative_coord":[0.3,0.7],"size_stim":[880,420],"start_dim":[100,100],"size_start":[300,300],"size_fix":60,"samplingrate":20,"img_types":["Congruent","Incongruent"],"ratios":[100,200,300],"rep_conds":19,"nTrials":120,"trials_to_rest":500,"Trials_order":[102,70,69,91,39,96,103,80,95,54,63,42,87,82,117,110,11,60,88,93,6,7,28,90,75,55,119,58,10,59,16,111,74,45,32,86,48,13,108,47,24,35,68,50,21,37,43,41,56,106,49,14,94,98,38,105,81,29,23,99,2,15,17,34,57,12,51,53,44,76,3,89,64,104,115,31,26,109,100,97,30,83,62,116,112,78,9,22,33,19,18,107,46,36,25,5,71,1,85,114,84,27,77,20,73,113,92,67,61,79,65,66,40,72,8,0,101,4,52,118],"cond_shown":["Congruent","Congruent","Incongruent","Incongruent","Incongruent","Congruent","Incongruent","Congruent","Incongruent","Congruent","Incongruent","Congruent","Incongruent","Congruent","Incongruent","Congruent","Incongruent","Congruent","Congruent","Incongruent","Congruent","Incongruent","Congruent","Congruent","Incongruent","Incongruent","Incongruent","Congruent","Congruent","Incongruent","Congruent","Incongruent","Congruent","Incongruent","Congruent","Congruent","Congruent","Incongruent","Congruent","Incongruent","Congruent","Incongruent","Congruent","Congruent","Incongruent","Incongruent","Incongruent","Incongruent","Congruent","Congruent","Incongruent","Congruent","Congruent","Congruent","Congruent","Incongruent","Incongruent","Incongruent","Incongruent","Incongruent","Congruent","Incongruent","Incongruent","Congruent","Incongruent","Congruent","Incongruent","Incongruent","Congruent","Congruent","Incongruent","Incongruent","Congruent","Congruent","Incongruent","Incongruent","Congruent","Incongruent","Congruent","Incongruent","Congruent","Incongruent","Congruent","Congruent","Congruent","Congruent","Incongruent","Congruent","Incongruent","Incongruent","Congruent","Incongruent","Congruent","Congruent","Incongruent","Incongruent","Incongruent","Incongruent","Incongruent","Congruent","Congruent","Incongruent","Incongruent","Congruent","Incongruent","Incongruent","Congruent","Incongruent","Incongruent","Incongruent","Incongruent","Congruent","Congruent","Congruent","Congruent","Congruent","Incongruent","Congruent","Congruent","Congruent"],"ratio_trial":[100,300,200,100,200,100,100,200,300,100,200,100,200,300,200,200,300,100,300,200,100,100,300,100,200,100,300,300,300,300,300,200,200,200,200,200,100,100,100,300,100,300,200,200,200,100,100,300,200,300,100,200,300,200,200,200,200,300,300,200,200,200,300,300,200,100,200,300,200,300,200,300,300,200,100,100,200,100,300,100,100,300,200,200,300,100,200,300,200,100,100,300,300,100,100,300,300,100,100,100,100,200,300,200,100,300,200,100,100,100,300,100,300,100,200,100,300,300,300,300],"left_num":[6,8,7,3,11,6,13,3,4,4,14,8,14,18,11,20,8,6,20,4,3,6,1,1,4,10,13,5,1,8,20,14,3,3,8,20,1,10,7,3,8,13,3,11,7,12,4,7,9,12,13,9,20,6,6,7,4,13,8,4,3,11,4,4,7,6,4,1,12,11,7,4,3,4,6,10,13,13,8,10,7,13,20,3,3,4,4,2,6,6,8,13,9,2,9,7,7,10,9,15,11,1,3,12,6,7,3,17,9,9,4,15,20,2,9,1,13,3,4,1],"right_num":[15,10,12,4,3,15,6,7,2,15,12,2,6,9,3,9,14,15,5,1,2,13,7,3,1,8,12,7,3,9,13,12,14,1,7,9,3,9,9,4,2,12,9,3,6,9,8,8,13,2,12,13,9,7,3,6,6,12,14,6,9,3,6,2,8,5,14,3,6,2,6,2,11,3,3,8,14,12,10,9,9,12,9,11,11,6,6,10,3,13,2,12,3,11,20,8,8,8,6,13,4,3,4,6,11,8,9,10,14,6,2,13,13,6,4,3,12,11,13,6],"left_den":[12,15,10,6,20,12,26,10,20,10,30,16,30,20,20,25,10,12,25,30,6,10,20,2,30,25,26,25,5,10,25,30,10,10,15,25,2,25,14,6,16,26,12,22,15,24,8,10,30,24,26,30,25,12,15,15,5,26,10,5,12,20,5,5,10,20,6,2,15,22,15,20,12,10,12,25,26,26,15,25,14,26,25,10,12,8,5,20,20,10,16,26,10,5,10,10,10,25,18,25,22,2,6,20,10,10,12,30,15,18,20,25,25,5,20,2,26,12,20,5],"right_den":[25,12,24,10,4,25,10,14,4,30,18,5,9,15,4,15,28,25,10,3,5,26,20,5,3,16,15,14,6,18,26,18,28,2,21,15,5,18,15,20,5,15,20,10,9,15,20,20,26,10,20,26,18,10,15,9,10,15,28,10,20,4,12,4,16,25,30,15,10,10,9,4,20,15,5,16,20,20,12,18,15,15,15,22,20,10,10,25,6,26,5,15,5,22,25,20,20,16,10,26,10,10,20,15,22,20,20,15,28,10,4,26,26,12,16,5,15,20,26,12],"correct_side":[2,2,1,1,2,2,2,2,2,2,2,1,2,1,2,1,1,2,1,2,1,1,2,2,2,2,2,2,2,1,1,2,2,2,1,1,2,2,2,1,1,2,2,1,2,2,1,1,2,1,2,2,1,2,1,2,1,2,1,1,2,2,1,1,1,1,1,1,1,1,2,2,2,1,2,2,2,2,2,2,2,2,1,2,2,2,1,2,2,1,1,2,1,2,1,1,1,2,2,1,1,1,1,1,1,1,2,2,1,2,2,1,1,2,1,2,2,2,2,2],"img_shown":["img2/100/Congruent/R/C_Dist_100_LN_6_LD_12_RN_15_RD_25_1.png","img2/300/Congruent/R/C_Dist_300_LN_8_LD_15_RN_10_RD_12_1.png","img2/200/Incongruent/L/I_Dist_200_LN_7_LD_10_RN_12_RD_24_0.png","img2/100/Incongruent/L/I_Dist_100_LN_3_LD_6_RN_4_RD_10_0.png","img2/200/Incongruent/R/I_Dist_200_LN_11_LD_20_RN_3_RD_4_1.png","img2/100/Congruent/R/C_Dist_100_LN_6_LD_12_RN_15_RD_25_1.png","img2/100/Incongruent/R/I_Dist_100_LN_13_LD_26_RN_6_RD_10_1.png","img2/200/Congruent/R/C_Dist_200_LN_3_LD_10_RN_7_RD_14_1.png","img2/300/Incongruent/R/I_Dist_300_LN_4_LD_20_RN_2_RD_4_1.png","img2/100/Congruent/R/C_Dist_100_LN_4_LD_10_RN_15_RD_30_1.png","img2/200/Incongruent/R/I_Dist_200_LN_14_LD_30_RN_12_RD_18_1.png","img2/100/Congruent/L/C_Dist_100_LN_8_LD_16_RN_2_RD_5_0.png","img2/200/Incongruent/R/I_Dist_200_LN_14_LD_30_RN_6_RD_9_1.png","img2/300/Congruent/L/C_Dist_300_LN_18_LD_20_RN_9_RD_15_0.png","img2/200/Incongruent/R/I_Dist_200_LN_11_LD_20_RN_3_RD_4_1.png","img2/200/Congruent/L/C_Dist_200_LN_20_LD_25_RN_9_RD_15_0.png","img2/300/Incongruent/L/I_Dist_300_LN_8_LD_10_RN_14_RD_28_0.png","img2/100/Congruent/R/C_Dist_100_LN_6_LD_12_RN_15_RD_25_1.png","img2/300/Congruent/L/C_Dist_300_LN_20_LD_25_RN_5_RD_10_0.png","img2/200/Incongruent/R/I_Dist_200_LN_4_LD_30_RN_1_RD_3_1.png","img2/100/Congruent/L/C_Dist_100_LN_3_LD_6_RN_2_RD_5_0.png","img2/100/Incongruent/L/I_Dist_100_LN_6_LD_10_RN_13_RD_26_0.png","img2/300/Congruent/R/C_Dist_300_LN_1_LD_20_RN_7_RD_20_1.png","img2/100/Congruent/R/C_Dist_100_LN_1_LD_2_RN_3_RD_5_1.png","img2/200/Incongruent/R/I_Dist_200_LN_4_LD_30_RN_1_RD_3_1.png","img2/100/Incongruent/R/I_Dist_100_LN_10_LD_25_RN_8_RD_16_1.png","img2/300/Incongruent/R/I_Dist_300_LN_13_LD_26_RN_12_RD_15_1.png","img2/300/Congruent/R/C_Dist_300_LN_5_LD_25_RN_7_RD_14_1.png","img2/300/Congruent/R/C_Dist_300_LN_1_LD_5_RN_3_RD_6_1.png","img2/300/Incongruent/L/I_Dist_300_LN_8_LD_10_RN_9_RD_18_0.png","img2/300/Congruent/L/C_Dist_300_LN_20_LD_25_RN_13_RD_26_0.png","img2/200/Incongruent/R/I_Dist_200_LN_14_LD_30_RN_12_RD_18_1.png","img2/200/Congruent/R/C_Dist_200_LN_3_LD_10_RN_14_RD_28_1.png","img2/200/Incongruent/R/I_Dist_200_LN_3_LD_10_RN_1_RD_2_1.png","img2/200/Congruent/L/C_Dist_200_LN_8_LD_15_RN_7_RD_21_0.png","img2/200/Congruent/L/C_Dist_200_LN_20_LD_25_RN_9_RD_15_0.png","img2/100/Congruent/R/C_Dist_100_LN_1_LD_2_RN_3_RD_5_1.png","img2/100/Incongruent/R/I_Dist_100_LN_10_LD_25_RN_9_RD_18_1.png","img2/100/Congruent/R/C_Dist_100_LN_7_LD_14_RN_9_RD_15_1.png","img2/300/Incongruent/L/I_Dist_300_LN_3_LD_6_RN_4_RD_20_0.png","img2/100/Congruent/L/C_Dist_100_LN_8_LD_16_RN_2_RD_5_0.png","img2/300/Incongruent/R/I_Dist_300_LN_13_LD_26_RN_12_RD_15_1.png","img2/200/Congruent/R/C_Dist_200_LN_3_LD_12_RN_9_RD_20_1.png","img2/200/Congruent/L/C_Dist_200_LN_11_LD_22_RN_3_RD_10_0.png","img2/200/Incongruent/R/I_Dist_200_LN_7_LD_15_RN_6_RD_9_1.png","img2/100/Incongruent/R/I_Dist_100_LN_12_LD_24_RN_9_RD_15_1.png","img2/100/Incongruent/L/I_Dist_100_LN_4_LD_8_RN_8_RD_20_0.png","img2/300/Incongruent/L/I_Dist_300_LN_7_LD_10_RN_8_RD_20_0.png","img2/200/Congruent/R/C_Dist_200_LN_9_LD_30_RN_13_RD_26_1.png","img2/300/Congruent/L/C_Dist_300_LN_12_LD_24_RN_2_RD_10_0.png","img2/100/Incongruent/R/I_Dist_100_LN_13_LD_26_RN_12_RD_20_1.png","img2/200/Congruent/R/C_Dist_200_LN_9_LD_30_RN_13_RD_26_1.png","img2/300/Congruent/L/C_Dist_300_LN_20_LD_25_RN_9_RD_18_0.png","img2/200/Congruent/R/C_Dist_200_LN_6_LD_12_RN_7_RD_10_1.png","img2/200/Congruent/L/C_Dist_200_LN_6_LD_15_RN_3_RD_15_0.png","img2/200/Incongruent/R/I_Dist_200_LN_7_LD_15_RN_6_RD_9_1.png","img2/200/Incongruent/L/I_Dist_200_LN_4_LD_5_RN_6_RD_10_0.png","img2/300/Incongruent/R/I_Dist_300_LN_13_LD_26_RN_12_RD_15_1.png","img2/300/Incongruent/L/I_Dist_300_LN_8_LD_10_RN_14_RD_28_0.png","img2/200/Incongruent/L/I_Dist_200_LN_4_LD_5_RN_6_RD_10_0.png","img2/200/Congruent/R/C_Dist_200_LN_3_LD_12_RN_9_RD_20_1.png","img2/200/Incongruent/R/I_Dist_200_LN_11_LD_20_RN_3_RD_4_1.png","img2/300/Incongruent/L/I_Dist_300_LN_4_LD_5_RN_6_RD_12_0.png","img2/300/Congruent/L/C_Dist_300_LN_4_LD_5_RN_2_RD_4_0.png","img2/200/Incongruent/L/I_Dist_200_LN_7_LD_10_RN_8_RD_16_0.png","img2/100/Congruent/L/C_Dist_100_LN_6_LD_20_RN_5_RD_25_0.png","img2/200/Incongruent/L/I_Dist_200_LN_4_LD_6_RN_14_RD_30_0.png","img2/300/Incongruent/L/I_Dist_300_LN_1_LD_2_RN_3_RD_15_0.png","img2/200/Congruent/L/C_Dist_200_LN_12_LD_15_RN_6_RD_10_0.png","img2/300/Congruent/L/C_Dist_300_LN_11_LD_22_RN_2_RD_10_0.png","img2/200/Incongruent/R/I_Dist_200_LN_7_LD_15_RN_6_RD_9_1.png","img2/300/Incongruent/R/I_Dist_300_LN_4_LD_20_RN_2_RD_4_1.png","img2/300/Congruent/R/C_Dist_300_LN_3_LD_12_RN_11_RD_20_1.png","img2/200/Congruent/L/C_Dist_200_LN_4_LD_10_RN_3_RD_15_0.png","img2/100/Incongruent/R/I_Dist_100_LN_6_LD_12_RN_3_RD_5_1.png","img2/100/Incongruent/R/I_Dist_100_LN_10_LD_25_RN_8_RD_16_1.png","img2/200/Congruent/R/C_Dist_200_LN_13_LD_26_RN_14_RD_20_1.png","img2/100/Incongruent/R/I_Dist_100_LN_13_LD_26_RN_12_RD_20_1.png","img2/300/Congruent/R/C_Dist_300_LN_8_LD_15_RN_10_RD_12_1.png","img2/100/Incongruent/R/I_Dist_100_LN_10_LD_25_RN_9_RD_18_1.png","img2/100/Congruent/R/C_Dist_100_LN_7_LD_14_RN_9_RD_15_1.png","img2/300/Incongruent/R/I_Dist_300_LN_13_LD_26_RN_12_RD_15_1.png","img2/200/Congruent/L/C_Dist_200_LN_20_LD_25_RN_9_RD_15_0.png","img2/200/Congruent/R/C_Dist_200_LN_3_LD_10_RN_11_RD_22_1.png","img2/300/Congruent/R/C_Dist_300_LN_3_LD_12_RN_11_RD_20_1.png","img2/100/Congruent/R/C_Dist_100_LN_4_LD_8_RN_6_RD_10_1.png","img2/200/Incongruent/L/I_Dist_200_LN_4_LD_5_RN_6_RD_10_0.png","img2/300/Congruent/R/C_Dist_300_LN_2_LD_20_RN_10_RD_25_1.png","img2/200/Incongruent/R/I_Dist_200_LN_6_LD_20_RN_3_RD_6_1.png","img2/100/Incongruent/L/I_Dist_100_LN_6_LD_10_RN_13_RD_26_0.png","img2/100/Congruent/L/C_Dist_100_LN_8_LD_16_RN_2_RD_5_0.png","img2/300/Incongruent/R/I_Dist_300_LN_13_LD_26_RN_12_RD_15_1.png","img2/300/Congruent/L/C_Dist_300_LN_9_LD_10_RN_3_RD_5_0.png","img2/100/Congruent/R/C_Dist_100_LN_2_LD_5_RN_11_RD_22_1.png","img2/100/Incongruent/L/I_Dist_100_LN_9_LD_10_RN_20_RD_25_0.png","img2/300/Incongruent/L/I_Dist_300_LN_7_LD_10_RN_8_RD_20_0.png","img2/300/Incongruent/L/I_Dist_300_LN_7_LD_10_RN_8_RD_20_0.png","img2/100/Incongruent/R/I_Dist_100_LN_10_LD_25_RN_8_RD_16_1.png","img2/100/Incongruent/R/I_Dist_100_LN_9_LD_18_RN_6_RD_10_1.png","img2/100/Congruent/L/C_Dist_100_LN_15_LD_25_RN_13_RD_26_0.png","img2/100/Congruent/L/C_Dist_100_LN_11_LD_22_RN_4_RD_10_0.png","img2/200/Incongruent/L/I_Dist_200_LN_1_LD_2_RN_3_RD_10_0.png","img2/300/Incongruent/L/I_Dist_300_LN_3_LD_6_RN_4_RD_20_0.png","img2/200/Congruent/L/C_Dist_200_LN_12_LD_20_RN_6_RD_15_0.png","img2/100/Incongruent/L/I_Dist_100_LN_6_LD_10_RN_11_RD_22_0.png","img2/300/Incongruent/L/I_Dist_300_LN_7_LD_10_RN_8_RD_20_0.png","img2/200/Congruent/R/C_Dist_200_LN_3_LD_12_RN_9_RD_20_1.png","img2/100/Incongruent/R/I_Dist_100_LN_17_LD_30_RN_10_RD_15_1.png","img2/100/Incongruent/L/I_Dist_100_LN_9_LD_15_RN_14_RD_28_0.png","img2/100/Incongruent/R/I_Dist_100_LN_9_LD_18_RN_6_RD_10_1.png","img2/300/Incongruent/R/I_Dist_300_LN_4_LD_20_RN_2_RD_4_1.png","img2/100/Congruent/L/C_Dist_100_LN_15_LD_25_RN_13_RD_26_0.png","img2/300/Congruent/L/C_Dist_300_LN_20_LD_25_RN_13_RD_26_0.png","img2/100/Congruent/R/C_Dist_100_LN_2_LD_5_RN_6_RD_12_1.png","img2/200/Congruent/L/C_Dist_200_LN_9_LD_20_RN_4_RD_16_0.png","img2/100/Congruent/R/C_Dist_100_LN_1_LD_2_RN_3_RD_5_1.png","img2/300/Incongruent/R/I_Dist_300_LN_13_LD_26_RN_12_RD_15_1.png","img2/300/Congruent/R/C_Dist_300_LN_3_LD_12_RN_11_RD_20_1.png","img2/300/Congruent/R/C_Dist_300_LN_4_LD_20_RN_13_RD_26_1.png","img2/300/Congruent/R/C_Dist_300_LN_1_LD_5_RN_6_RD_12_1.png"],"dist100_C":[["C_Dist_100_LN_10_LD_25_RN_3_RD_10_0.png","C_Dist_100_LN_11_LD_22_RN_4_RD_10_0.png","C_Dist_100_LN_11_LD_22_RN_6_RD_15_0.png","C_Dist_100_LN_15_LD_25_RN_13_RD_26_0.png","C_Dist_100_LN_3_LD_6_RN_2_RD_5_0.png","C_Dist_100_LN_6_LD_20_RN_5_RD_25_0.png","C_Dist_100_LN_8_LD_16_RN_2_RD_5_0.png","C_Dist_100_LN_9_LD_15_RN_8_RD_16_0.png"],["C_Dist_100_LN_1_LD_2_RN_18_RD_30_1.png","C_Dist_100_LN_1_LD_2_RN_3_RD_5_1.png","C_Dist_100_LN_12_LD_30_RN_13_RD_26_1.png","C_Dist_100_LN_2_LD_5_RN_11_RD_22_1.png","C_Dist_100_LN_2_LD_5_RN_6_RD_12_1.png","C_Dist_100_LN_3_LD_20_RN_4_RD_16_1.png","C_Dist_100_LN_4_LD_10_RN_15_RD_30_1.png","C_Dist_100_LN_4_LD_8_RN_6_RD_10_1.png","C_Dist_100_LN_6_LD_12_RN_15_RD_25_1.png","C_Dist_100_LN_7_LD_14_RN_15_RD_25_1.png","C_Dist_100_LN_7_LD_14_RN_9_RD_15_1.png"]],"dist100_I":[["I_Dist_100_LN_1_LD_2_RN_8_RD_20_0.png","I_Dist_100_LN_2_LD_4_RN_6_RD_15_0.png","I_Dist_100_LN_2_LD_4_RN_8_RD_20_0.png","I_Dist_100_LN_3_LD_5_RN_11_RD_22_0.png","I_Dist_100_LN_3_LD_5_RN_8_RD_16_0.png","I_Dist_100_LN_3_LD_6_RN_4_RD_10_0.png","I_Dist_100_LN_3_LD_9_RN_7_RD_30_0.png","I_Dist_100_LN_4_LD_8_RN_8_RD_20_0.png","I_Dist_100_LN_6_LD_10_RN_11_RD_22_0.png","I_Dist_100_LN_6_LD_10_RN_13_RD_26_0.png","I_Dist_100_LN_6_LD_10_RN_7_RD_14_0.png","I_Dist_100_LN_9_LD_10_RN_20_RD_25_0.png","I_Dist_100_LN_9_LD_15_RN_13_RD_26_0.png","I_Dist_100_LN_9_LD_15_RN_14_RD_28_0.png"],["I_Dist_100_LN_10_LD_25_RN_8_RD_16_1.png","I_Dist_100_LN_10_LD_25_RN_9_RD_18_1.png","I_Dist_100_LN_11_LD_22_RN_9_RD_15_1.png","I_Dist_100_LN_12_LD_24_RN_9_RD_15_1.png","I_Dist_100_LN_12_LD_30_RN_2_RD_4_1.png","I_Dist_100_LN_13_LD_26_RN_12_RD_20_1.png","I_Dist_100_LN_13_LD_26_RN_6_RD_10_1.png","I_Dist_100_LN_17_LD_30_RN_10_RD_15_1.png","I_Dist_100_LN_6_LD_12_RN_3_RD_5_1.png","I_Dist_100_LN_8_LD_16_RN_6_RD_10_1.png","I_Dist_100_LN_8_LD_20_RN_1_RD_2_1.png","I_Dist_100_LN_9_LD_18_RN_6_RD_10_1.png"]],"dist100_S":[["E_Dist_100_LN_2_LD_12_RN_2_RD_30_0.png","E_Dist_100_LN_6_LD_10_RN_6_RD_12_0.png"],["E_Dist_100_LN_6_LD_12_RN_6_RD_10_1.png"]],"dist200_C":[["C_Dist_200_LN_11_LD_22_RN_3_RD_10_0.png","C_Dist_200_LN_12_LD_15_RN_6_RD_10_0.png","C_Dist_200_LN_12_LD_20_RN_6_RD_15_0.png","C_Dist_200_LN_14_LD_28_RN_6_RD_20_0.png","C_Dist_200_LN_15_LD_25_RN_4_RD_10_0.png","C_Dist_200_LN_16_LD_20_RN_12_RD_20_0.png","C_Dist_200_LN_16_LD_30_RN_9_RD_27_0.png","C_Dist_200_LN_20_LD_25_RN_9_RD_15_0.png","C_Dist_200_LN_21_LD_30_RN_2_RD_4_0.png","C_Dist_200_LN_4_LD_10_RN_3_RD_15_0.png","C_Dist_200_LN_4_LD_8_RN_3_RD_10_0.png","C_Dist_200_LN_6_LD_15_RN_3_RD_15_0.png","C_Dist_200_LN_7_LD_21_RN_2_RD_15_0.png","C_Dist_200_LN_8_LD_15_RN_2_RD_6_0.png","C_Dist_200_LN_8_LD_15_RN_3_RD_9_0.png","C_Dist_200_LN_8_LD_15_RN_7_RD_21_0.png","C_Dist_200_LN_9_LD_20_RN_4_RD_16_0.png"],["C_Dist_200_LN_1_LD_2_RN_21_RD_30_1.png","C_Dist_200_LN_13_LD_26_RN_14_RD_20_1.png","C_Dist_200_LN_3_LD_10_RN_11_RD_22_1.png","C_Dist_200_LN_3_LD_10_RN_14_RD_28_1.png","C_Dist_200_LN_3_LD_10_RN_7_RD_14_1.png","C_Dist_200_LN_3_LD_12_RN_9_RD_20_1.png","C_Dist_200_LN_3_LD_6_RN_14_RD_20_1.png","C_Dist_200_LN_5_LD_10_RN_14_RD_20_1.png","C_Dist_200_LN_6_LD_12_RN_7_RD_10_1.png","C_Dist_200_LN_6_LD_20_RN_11_RD_22_1.png","C_Dist_200_LN_7_LD_15_RN_18_RD_27_1.png","C_Dist_200_LN_9_LD_30_RN_13_RD_26_1.png"]],"dist200_I":[["I_Dist_200_LN_1_LD_2_RN_3_RD_10_0.png","I_Dist_200_LN_1_LD_3_RN_2_RD_15_0.png","I_Dist_200_LN_3_LD_4_RN_11_RD_20_0.png","I_Dist_200_LN_4_LD_5_RN_6_RD_10_0.png","I_Dist_200_LN_4_LD_6_RN_14_RD_30_0.png","I_Dist_200_LN_7_LD_10_RN_12_RD_24_0.png","I_Dist_200_LN_7_LD_10_RN_14_RD_28_0.png","I_Dist_200_LN_7_LD_10_RN_8_RD_16_0.png"],["I_Dist_200_LN_11_LD_20_RN_3_RD_4_1.png","I_Dist_200_LN_14_LD_30_RN_12_RD_18_1.png","I_Dist_200_LN_14_LD_30_RN_6_RD_9_1.png","I_Dist_200_LN_3_LD_10_RN_1_RD_2_1.png","I_Dist_200_LN_4_LD_30_RN_1_RD_3_1.png","I_Dist_200_LN_6_LD_20_RN_3_RD_6_1.png","I_Dist_200_LN_7_LD_15_RN_4_RD_6_1.png","I_Dist_200_LN_7_LD_15_RN_6_RD_9_1.png","I_Dist_200_LN_9_LD_15_RN_8_RD_10_1.png"]],"dist200_S":[["E_Dist_200_LN_3_LD_6_RN_3_RD_10_0.png"],["E_Dist_200_LN_3_LD_10_RN_3_RD_6_1.png"]],"dist300_C":[["C_Dist_300_LN_11_LD_22_RN_1_RD_5_0.png","C_Dist_300_LN_11_LD_22_RN_2_RD_10_0.png","C_Dist_300_LN_11_LD_22_RN_4_RD_20_0.png","C_Dist_300_LN_12_LD_24_RN_2_RD_10_0.png","C_Dist_300_LN_18_LD_20_RN_9_RD_15_0.png","C_Dist_300_LN_20_LD_25_RN_13_RD_26_0.png","C_Dist_300_LN_20_LD_25_RN_14_RD_28_0.png","C_Dist_300_LN_20_LD_25_RN_5_RD_10_0.png","C_Dist_300_LN_20_LD_25_RN_8_RD_16_0.png","C_Dist_300_LN_20_LD_25_RN_9_RD_18_0.png","C_Dist_300_LN_24_LD_30_RN_2_RD_4_0.png","C_Dist_300_LN_24_LD_30_RN_8_RD_16_0.png","C_Dist_300_LN_3_LD_6_RN_2_RD_10_0.png","C_Dist_300_LN_4_LD_10_RN_1_RD_10_0.png","C_Dist_300_LN_4_LD_5_RN_2_RD_4_0.png","C_Dist_300_LN_8_LD_16_RN_1_RD_5_0.png","C_Dist_300_LN_9_LD_10_RN_3_RD_5_0.png"],["C_Dist_300_LN_1_LD_20_RN_7_RD_20_1.png","C_Dist_300_LN_1_LD_3_RN_19_RD_30_1.png","C_Dist_300_LN_1_LD_30_RN_8_RD_24_1.png","C_Dist_300_LN_1_LD_5_RN_11_RD_22_1.png","C_Dist_300_LN_1_LD_5_RN_3_RD_6_1.png","C_Dist_300_LN_1_LD_5_RN_6_RD_12_1.png","C_Dist_300_LN_2_LD_10_RN_12_RD_24_1.png","C_Dist_300_LN_2_LD_20_RN_10_RD_25_1.png","C_Dist_300_LN_3_LD_12_RN_11_RD_20_1.png","C_Dist_300_LN_3_LD_6_RN_4_RD_5_1.png","C_Dist_300_LN_4_LD_20_RN_13_RD_26_1.png","C_Dist_300_LN_5_LD_25_RN_6_RD_12_1.png","C_Dist_300_LN_5_LD_25_RN_7_RD_14_1.png","C_Dist_300_LN_7_LD_14_RN_20_RD_25_1.png","C_Dist_300_LN_8_LD_15_RN_10_RD_12_1.png"]],"dist300_I":[["I_Dist_300_LN_1_LD_2_RN_2_RD_10_0.png","I_Dist_300_LN_1_LD_2_RN_3_RD_15_0.png","I_Dist_300_LN_2_LD_4_RN_6_RD_30_0.png","I_Dist_300_LN_3_LD_6_RN_4_RD_20_0.png","I_Dist_300_LN_4_LD_5_RN_6_RD_12_0.png","I_Dist_300_LN_4_LD_5_RN_8_RD_16_0.png","I_Dist_300_LN_7_LD_10_RN_8_RD_20_0.png","I_Dist_300_LN_8_LD_10_RN_14_RD_28_0.png","I_Dist_300_LN_8_LD_10_RN_9_RD_18_0.png"],["I_Dist_300_LN_13_LD_26_RN_12_RD_15_1.png","I_Dist_300_LN_4_LD_20_RN_2_RD_4_1.png"]],"dist300_S":[["E_Dist_300_LN_9_LD_12_RN_9_RD_20_0.png"],["E_Dist_300_LN_18_LD_30_RN_18_RD_20_1.png","E_Dist_300_LN_3_LD_10_RN_3_RD_5_1.png","E_Dist_300_LN_9_LD_20_RN_9_RD_12_1.png"]],"dist500_C":[["C_Dist_500_LN_10_LD_13_RN_7_RD_26_0.png","C_Dist_500_LN_10_LD_15_RN_4_RD_24_0.png","C_Dist_500_LN_12_LD_16_RN_3_RD_12_0.png","C_Dist_500_LN_12_LD_18_RN_4_RD_24_0.png","C_Dist_500_LN_15_LD_18_RN_5_RD_15_0.png","C_Dist_500_LN_15_LD_20_RN_1_RD_4_0.png","C_Dist_500_LN_18_LD_27_RN_1_RD_6_0.png","C_Dist_500_LN_20_LD_24_RN_1_RD_3_0.png","C_Dist_500_LN_20_LD_24_RN_3_RD_9_0.png","C_Dist_500_LN_20_LD_24_RN_7_RD_21_0.png","C_Dist_500_LN_20_LD_28_RN_3_RD_14_0.png","C_Dist_500_LN_21_LD_28_RN_6_RD_24_0.png","C_Dist_500_LN_22_LD_28_RN_2_RD_7_0.png","C_Dist_500_LN_25_LD_30_RN_9_RD_27_0.png","C_Dist_500_LN_4_LD_6_RN_1_RD_6_0.png","C_Dist_500_LN_5_LD_6_RN_2_RD_6_0.png","C_Dist_500_LN_6_LD_9_RN_1_RD_6_0.png","C_Dist_500_LN_7_LD_10_RN_1_RD_5_0.png","C_Dist_500_LN_8_LD_12_RN_1_RD_6_0.png","C_Dist_500_LN_8_LD_12_RN_4_RD_24_0.png"],["C_Dist_500_LN_1_LD_4_RN_12_RD_16_1.png","C_Dist_500_LN_1_LD_4_RN_9_RD_12_1.png","C_Dist_500_LN_1_LD_9_RN_11_RD_18_1.png","C_Dist_500_LN_10_LD_24_RN_22_RD_24_1.png","C_Dist_500_LN_2_LD_12_RN_10_RD_15_1.png","C_Dist_500_LN_2_LD_12_RN_12_RD_18_1.png","C_Dist_500_LN_2_LD_12_RN_4_RD_6_1.png","C_Dist_500_LN_2_LD_24_RN_7_RD_12_1.png","C_Dist_500_LN_2_LD_5_RN_18_RD_20_1.png","C_Dist_500_LN_2_LD_5_RN_9_RD_10_1.png","C_Dist_500_LN_2_LD_8_RN_12_RD_16_1.png","C_Dist_500_LN_2_LD_8_RN_21_RD_28_1.png","C_Dist_500_LN_3_LD_10_RN_4_RD_5_1.png","C_Dist_500_LN_3_LD_12_RN_15_RD_20_1.png","C_Dist_500_LN_3_LD_30_RN_6_RD_10_1.png","C_Dist_500_LN_3_LD_8_RN_14_RD_16_1.png","C_Dist_500_LN_4_LD_16_RN_15_RD_20_1.png","C_Dist_500_LN_4_LD_24_RN_12_RD_18_1.png","C_Dist_500_LN_5_LD_14_RN_6_RD_7_1.png","C_Dist_500_LN_7_LD_21_RN_20_RD_24_1.png","C_Dist_500_LN_7_LD_28_RN_12_RD_16_1.png","C_Dist_500_LN_7_LD_28_RN_9_RD_12_1.png","C_Dist_500_LN_9_LD_27_RN_20_RD_24_1.png"]],"dist500_I":[["I_Dist_500_LN_2_LD_3_RN_4_RD_24_0.png","I_Dist_500_LN_5_LD_6_RN_6_RD_18_0.png","I_Dist_500_LN_7_LD_8_RN_9_RD_24_0.png"],["I_Dist_500_LN_7_LD_21_RN_5_RD_6_1.png"]],"dist500_S":[["E_Dist_500_LN_6_LD_8_RN_6_RD_24_0.png"],["E_Dist_500_LN_2_LD_12_RN_2_RD_3_1.png","E_Dist_500_LN_6_LD_24_RN_6_RD_8_1.png"]]}},{"start_time":1552308510414,"click_time":1552308512151,"finger_time":1552308511929,"fix_duration":702.1468379938876,"trial":1,"RT":1515,"MT":222,"sideResp":2,"stimulus":[],"xmouse":[766,766,767,768,769,769,769,769,769,769,769,769,769,769,769,769,769,769,771,771,771,771,771,771,771,771,771,771,771,771,771,771,771,771,771,771,771,771,771,771,771,771,771,771,771,771,771,771,771,771,771,771,771,771,771,771,771,771,771,771,771,771,771,771,771,771,771,771,771,771,774,786,801,827,841,850,882,897,909,914,919,931,1007,1017,1046,1065,1087],"ymouse":[544,544,543,542,541,541,541,541,541,541,541,541,541,541,541,541,541,540,540,540,540,540,540,540,540,540,540,540,540,540,540,540,540,540,540,540,540,540,540,540,540,540,540,540,540,540,540,540,540,540,540,540,540,540,540,540,540,540,540,540,540,540,540,540,540,540,540,540,540,540,540,530,520,500,489,476,432,410,394,383,375,365,287,249,156,115,85],"timestamp_mouse":[14,40,55,75,95,115,135,154,175,194,214,234,255,274,295,315,334,355,374,394,414,435,455,475,495,516,534,555,575,594,615,635,656,674,695,715,736,755,774,794,816,835,854,874,895,915,934,955,975,994,1014,1035,1056,1075,1095,1114,1135,1154,1175,1194,1215,1235,1255,1274,1294,1314,1334,1355,1374,1395,1415,1436,1455,1474,1494,1515,1536,1554,1574,1594,1614,1634,1654,1674,1694,1715,1736],"xSR":741.5,"ySR":469.95,"xT1":424.9,"yT1":0,"xT2":1058.1,"yT2":0,"toosoon":0,"cond_shown":"Congruent","ratio_trial":300,"L_num":8,"L_den":15,"R_num":10,"R_den":12,"correct_side":2,"subjID":"isabellacardenassabogal15","gender":"1","school":"4","age":"9"},{"start_time":1552308514454,"click_time":1552308516829,"finger_time":1552308515768,"fix_duration":1042.8888093685875,"trial":2,"RT":1314,"MT":1061,"sideResp":2,"stimulus":[],"xmouse":[799,799,799,799,799,799,799,799,799,799,799,799,799,799,799,799,799,799,799,799,799,799,799,799,799,799,799,799,799,799,799,799,799,799,799,799,799,799,799,799,799,799,799,799,799,799,799,799,799,799,799,799,799,799,799,799,799,799,799,799,799,796,789,779,764,710,674,643,617,594,573,570,560,555,553,550,548,546,542,540,539,538,538,538,538,538,538,538,541,550,631,697,775,863,942,1022,1036,1041,1045,1049,1061,1066,1072,1077,1080,1087,1088,1089,1090,1090,1095,1098,1100,1102,1102,1104,1104,1106,1107],"ymouse":[519,519,519,519,519,519,519,519,519,519,519,519,519,519,519,519,519,519,519,519,519,519,519,519,519,519,519,519,519,519,519,519,519,519,519,519,519,519,519,519,519,519,519,519,519,519,519,519,519,519,519,519,519,519,519,519,519,519,519,519,519,516,513,506,494,455,433,416,400,385,370,365,354,348,345,336,331,325,318,315,313,311,311,310,310,310,310,309,309,309,306,296,285,270,258,231,224,220,217,214,201,194,184,172,161,144,139,134,134,134,122,117,115,113,111,107,106,103,99],"timestamp_mouse":[16,39,54,75,94,114,134,155,175,194,215,235,254,275,294,314,335,354,374,395,415,435,455,474,495,514,535,554,574,594,614,635,655,676,694,715,735,754,775,794,815,835,855,874,895,915,935,955,975,995,1014,1034,1054,1074,1094,1114,1135,1155,1175,1194,1215,1234,1254,1275,1296,1314,1335,1354,1375,1394,1414,1434,1454,1474,1494,1514,1534,1555,1575,1594,1614,1634,1654,1674,1696,1714,1735,1754,1775,1794,1815,1834,1854,1874,1894,1915,1935,1955,1975,1994,2015,2036,2054,2074,2095,2115,2134,2154,2175,2194,2215,2234,2254,2275,2294,2315,2334,2354,2375],"xSR":741.5,"ySR":469.95,"xT1":424.9,"yT1":0,"xT2":1058.1,"yT2":0,"toosoon":0,"cond_shown":"Incongruent","ratio_trial":200,"L_num":7,"L_den":10,"R_num":12,"R_den":24,"correct_side":1,"subjID":"isabellacardenassabogal15","gender":"1","school":"4","age":"9"},{"start_time":1552308518757,"click_time":1552308520588,"finger_time":1552308520329,"fix_duration":288.0048689369046,"trial":3,"RT":1572,"MT":259,"sideResp":2,"stimulus":[],"xmouse":[806,806,806,806,806,806,806,806,806,806,806,806,806,806,806,806,806,806,806,806,806,806,806,806,806,806,806,806,806,806,806,806,806,806,806,806,806,806,806,806,806,806,806,806,806,806,806,806,806,806,806,806,806,806,806,806,806,806,806,806,806,806,806,806,806,806,806,806,806,806,806,806,806,807,807,808,817,826,845,865,887,900,900,901,904,918,927,937,951,975,1016,1110],"ymouse":[511,511,511,511,511,511,511,511,511,511,511,511,511,511,511,511,511,511,511,511,511,511,511,511,511,511,511,511,511,511,511,511,511,511,511,511,511,511,511,511,511,511,511,511,511,511,511,511,511,511,511,511,511,511,511,511,511,511,511,511,511,511,511,511,511,511,511,511,511,511,511,511,511,510,509,505,491,479,438,363,299,249,244,229,211,176,160,144,129,110,81,34],"timestamp_mouse":[11,43,52,72,91,111,131,152,172,192,211,231,251,272,292,311,332,351,371,391,411,432,452,471,492,511,531,551,572,592,612,632,652,673,691,712,731,752,773,792,811,832,852,871,891,911,932,951,972,993,1011,1032,1052,1072,1092,1112,1131,1151,1172,1192,1211,1232,1251,1272,1291,1311,1331,1352,1372,1392,1411,1432,1452,1471,1491,1511,1532,1552,1572,1592,1611,1631,1652,1671,1691,1713,1731,1752,1772,1791,1811,1831],"xSR":741.5,"ySR":469.95,"xT1":424.9,"yT1":0,"xT2":1058.1,"yT2":0,"toosoon":0,"cond_shown":"Incongruent","ratio_trial":100,"L_num":3,"L_den":6,"R_num":4,"R_den":10,"correct_side":1,"subjID":"isabellacardenassabogal15","gender":"1","school":"4","age":"9"},{"start_time":1552308524072,"click_time":1552308525968,"finger_time":1552308525849,"fix_duration":821.8129570477125,"trial":4,"RT":1777,"MT":119,"sideResp":1,"stimulus":[],"xmouse":[784,784,784,784,784,784,784,784,784,784,784,784,784,784,784,784,784,784,784,784,784,784,784,784,784,784,784,784,784,784,784,784,784,784,784,784,784,784,784,784,784,784,784,784,784,784,784,784,784,784,784,784,784,784,784,784,784,784,784,784,784,784,784,784,784,784,784,784,784,784,784,784,784,784,784,784,784,784,784,784,784,784,784,784,784,784,782,772,751,720,649,609,574,539,515],"ymouse":[544,544,544,544,544,544,544,544,544,544,544,544,544,544,544,544,544,544,544,544,544,544,544,544,544,544,544,544,544,544,544,544,544,544,544,544,544,544,544,544,544,544,544,544,544,544,544,544,544,544,544,544,544,544,544,544,544,544,544,544,544,544,544,544,544,544,544,544,544,544,544,544,544,544,544,544,544,544,544,544,544,544,544,544,544,542,528,502,458,400,198,118,74,31,4],"timestamp_mouse":[16,40,57,78,97,117,137,158,177,197,217,236,256,276,297,317,336,357,376,396,417,437,456,477,496,517,537,556,577,597,616,637,657,676,697,716,737,757,776,797,816,837,857,876,897,916,937,956,977,996,1017,1037,1057,1076,1097,1117,1136,1157,1177,1196,1217,1237,1256,1277,1297,1318,1337,1357,1377,1396,1416,1437,1456,1477,1497,1518,1536,1557,1577,1598,1617,1636,1657,1676,1697,1716,1736,1757,1777,1796,1817,1836,1856,1877,1896],"xSR":741.5,"ySR":469.95,"xT1":424.9,"yT1":0,"xT2":1058.1,"yT2":0,"toosoon":0,"cond_shown":"Incongruent","ratio_trial":200,"L_num":11,"L_den":20,"R_num":3,"R_den":4,"correct_side":2,"subjID":"isabellacardenassabogal15","gender":"1","school":"4","age":"9"},{"start_time":1552308528483,"click_time":1552308530109,"finger_time":1552308529708,"fix_duration":1033.4191307250794,"trial":5,"RT":1225,"MT":401,"sideResp":2,"stimulus":[],"xmouse":[797,797,797,797,797,797,797,798,798,799,799,801,802,805,806,806,806,806,806,806,806,806,806,806,806,806,806,806,806,806,806,806,806,806,806,806,806,806,806,806,806,806,806,806,806,806,806,806,806,806,807,807,807,807,807,807,809,811,812,817,829,855,899,945,974,986,988,990,993,993,993,993,993,993,993,993,993,993,993,993,1053,1077],"ymouse":[506,506,506,506,506,506,506,506,506,506,506,507,508,510,512,512,512,512,512,512,512,512,512,512,512,512,512,512,512,512,512,512,512,512,512,512,512,512,512,512,512,512,512,512,512,512,512,512,512,512,512,512,512,512,512,512,511,507,506,498,479,434,290,167,92,53,39,21,8,8,8,8,8,8,8,8,8,8,8,8,18,35],"timestamp_mouse":[13,37,45,66,86,105,125,145,166,185,205,225,246,266,286,307,326,345,366,385,406,427,446,466,485,506,525,546,565,586,605,626,645,665,685,706,726,746,766,785,806,826,845,865,885,906,926,947,966,986,1005,1025,1045,1065,1086,1106,1126,1145,1166,1187,1205,1225,1245,1266,1286,1307,1325,1345,1365,1385,1405,1425,1445,1466,1485,1506,1526,1545,1566,1586,1608,1626],"xSR":741.5,"ySR":469.95,"xT1":424.9,"yT1":0,"xT2":1058.1,"yT2":0,"toosoon":0,"cond_shown":"Congruent","ratio_trial":100,"L_num":6,"L_den":12,"R_num":15,"R_den":25,"correct_side":2,"subjID":"isabellacardenassabogal15","gender":"1","school":"4","age":"9"},{"start_time":1552308532639,"click_time":1552308534409,"finger_time":1552308534088,"fix_duration":1249.735041524896,"trial":6,"RT":1449,"MT":321,"sideResp":1,"stimulus":[],"xmouse":[803,803,803,802,802,802,802,801,801,801,800,800,799,799,799,799,799,799,799,799,799,799,799,799,799,799,799,799,799,799,799,799,799,799,799,799,799,799,799,799,799,799,799,799,799,799,799,799,799,799,799,799,799,799,799,799,799,799,799,799,799,799,799,799,799,799,799,798,796,793,786,765,752,675,645,630,623,620,620,620,620,619,613,599,588,568,550,528,497],"ymouse":[530,530,530,530,530,530,530,530,530,530,530,530,530,530,530,530,530,530,530,530,530,530,530,530,530,530,530,530,530,530,530,530,530,530,530,530,530,530,530,530,530,530,530,530,530,530,530,530,530,530,530,530,530,530,530,530,530,530,530,530,530,530,530,530,530,530,530,530,527,519,506,471,454,289,221,186,169,163,163,163,163,160,151,133,125,116,107,98,87],"timestamp_mouse":[13,29,50,69,89,109,131,149,169,189,210,229,249,270,289,309,329,350,369,389,410,429,451,469,490,510,529,549,569,589,610,629,650,669,690,710,729,750,769,790,811,830,850,871,890,910,929,949,969,990,1009,1030,1050,1069,1089,1109,1130,1150,1169,1190,1209,1231,1250,1269,1291,1310,1330,1349,1369,1390,1409,1429,1449,1469,1489,1509,1529,1550,1570,1589,1609,1630,1649,1670,1689,1710,1730,1749,1770],"xSR":741.5,"ySR":469.95,"xT1":424.9,"yT1":0,"xT2":1058.1,"yT2":0,"toosoon":0,"cond_shown":"Incongruent","ratio_trial":100,"L_num":13,"L_den":26,"R_num":6,"R_den":10,"correct_side":2,"subjID":"isabellacardenassabogal15","gender":"1","school":"4","age":"9"},{"start_time":1552308540562,"click_time":1552308542608,"finger_time":1552308542028,"fix_duration":250,"trial":7,"RT":1466,"MT":580,"sideResp":2,"stimulus":[],"xmouse":[772,772,772,772,772,772,772,772,772,772,772,772,772,772,772,772,772,772,772,772,772,772,772,772,772,772,772,772,772,772,772,772,772,772,772,772,772,772,772,772,772,772,772,772,772,772,772,772,772,772,772,772,772,772,772,772,772,770,769,769,769,769,769,769,769,769,769,769,769,769,771,777,806,872,900,910,914,916,922,923,926,934,943,976,982,983,983,983,988,1002,1016,1030,1039,1048,1048,1048,1048,1048,1048,1048,1049,1051,1062],"ymouse":[532,532,532,532,532,532,532,532,532,532,532,532,532,532,532,532,532,531,531,531,531,531,531,531,531,531,531,531,531,531,531,531,531,531,531,531,531,531,531,531,531,531,531,531,531,531,531,531,531,531,531,531,531,531,531,531,531,533,535,535,535,535,535,535,535,535,535,535,535,535,534,527,490,385,308,248,222,209,193,189,183,170,149,72,67,66,66,66,66,62,57,51,46,40,40,40,40,40,40,40,39,39,37],"timestamp_mouse":[11,38,47,66,86,106,126,147,166,187,206,226,246,266,287,307,326,346,367,386,408,426,446,467,486,506,526,546,566,587,606,627,646,666,687,707,728,747,766,786,807,827,846,866,886,906,927,947,966,986,1006,1026,1046,1066,1085,1107,1127,1145,1165,1186,1205,1225,1245,1265,1286,1306,1326,1346,1365,1387,1407,1426,1446,1466,1485,1506,1526,1545,1566,1587,1605,1626,1645,1666,1686,1706,1727,1747,1766,1785,1806,1826,1845,1866,1886,1907,1926,1945,1965,1985,2005,2026,2046],"xSR":741.5,"ySR":469.95,"xT1":424.9,"yT1":0,"xT2":1058.1,"yT2":0,"toosoon":0,"cond_shown":"Congruent","ratio_trial":200,"L_num":3,"L_den":10,"R_num":7,"R_den":14,"correct_side":2,"subjID":"isabellacardenassabogal15","gender":"1","school":"4","age":"9"},{"start_time":1552308545165,"click_time":1552308547348,"finger_time":1552308546167,"fix_duration":1355.8765409010678,"trial":8,"RT":1002,"MT":1181,"sideResp":2,"stimulus":[],"xmouse":[776,776,776,776,776,776,776,776,776,776,776,776,777,777,777,777,777,777,777,777,777,777,777,777,777,777,777,777,777,777,777,777,777,777,777,777,777,777,777,777,777,777,777,777,777,777,777,777,777,782,810,828,844,855,856,856,856,856,856,856,856,856,856,856,856,856,856,856,856,854,852,851,850,850,847,845,843,839,838,837,837,837,837,837,837,837,840,853,874,921,941,952,956,956,956,958,960,962,978,989,995,1001,1007,1013,1032,1038,1041,1046,1056,1080],"ymouse":[472,472,472,472,472,472,472,471,471,471,471,471,471,476,481,486,491,495,497,497,497,497,497,497,497,497,497,497,497,497,497,497,497,497,497,497,497,497,497,498,498,498,498,498,498,498,498,498,498,494,445,402,362,331,327,326,326,326,326,326,326,326,326,326,326,326,326,326,326,325,326,326,326,327,326,321,311,303,299,298,298,298,298,298,298,296,292,273,248,190,159,139,129,124,117,115,112,111,106,101,96,93,92,89,86,85,85,84,81,76],"timestamp_mouse":[3,25,42,63,83,103,122,142,164,183,203,224,243,263,283,303,324,343,362,383,402,424,443,464,482,502,522,542,563,584,603,623,643,662,684,702,722,743,762,783,803,822,842,864,884,903,922,943,962,982,1002,1023,1042,1064,1082,1103,1122,1142,1164,1183,1204,1223,1244,1263,1282,1302,1322,1342,1364,1382,1403,1423,1443,1463,1482,1502,1522,1542,1563,1583,1603,1622,1644,1662,1682,1703,1723,1743,1763,1782,1802,1822,1842,1862,1882,1902,1922,1942,1964,1982,2003,2022,2042,2063,2082,2102,2122,2142,2162,2183],"xSR":741.5,"ySR":469.95,"xT1":424.9,"yT1":0,"xT2":1058.1,"yT2":0,"toosoon":0,"cond_shown":"Incongruent","ratio_trial":300,"L_num":4,"L_den":20,"R_num":2,"R_den":4,"correct_side":2,"subjID":"isabellacardenassabogal15","gender":"1","school":"4","age":"9"},{"start_time":1552308549087,"click_time":1552308551167,"finger_time":1552308550747,"fix_duration":256.40287367364414,"trial":9,"RT":1660,"MT":420,"sideResp":2,"stimulus":[],"xmouse":[800,800,800,800,800,799,799,799,799,799,799,799,799,799,799,799,799,799,799,799,799,799,799,799,799,799,799,799,799,799,799,799,799,799,799,799,799,799,799,799,800,800,800,800,800,800,800,800,800,800,800,800,800,801,801,801,801,801,801,801,801,801,801,801,801,801,801,801,801,801,801,801,801,801,801,801,801,801,801,801,801,801,802,816,865,899,932,960,978,998,1004,1011,1018,1029,1029,1029,1029,1032,1043,1049,1052,1052,1053,1057,1062],"ymouse":[494,494,494,494,494,496,497,497,497,497,497,497,497,497,497,497,497,498,499,499,499,499,499,499,499,499,499,499,499,499,499,499,499,500,500,501,501,501,501,501,500,499,498,497,497,497,497,497,497,497,497,497,497,497,497,497,497,497,497,497,497,497,497,497,497,497,497,497,497,497,497,497,497,497,497,497,497,497,497,497,497,497,493,469,406,374,340,304,279,244,229,213,198,172,167,159,139,112,75,67,63,62,61,59,58],"timestamp_mouse":[10,21,40,61,80,100,121,142,162,180,201,222,242,261,281,300,322,342,361,382,400,421,441,461,480,500,521,542,562,581,601,620,642,661,681,701,722,740,760,781,801,820,841,861,881,902,921,942,960,982,1001,1021,1041,1061,1080,1101,1121,1140,1160,1182,1202,1221,1240,1261,1282,1302,1321,1341,1362,1382,1400,1420,1441,1460,1482,1502,1520,1541,1561,1581,1601,1621,1640,1660,1681,1701,1720,1740,1760,1781,1802,1822,1840,1861,1880,1901,1921,1941,1960,1981,2001,2020,2040,2061,2080],"xSR":741.5,"ySR":469.95,"xT1":424.9,"yT1":0,"xT2":1058.1,"yT2":0,"toosoon":0,"cond_shown":"Congruent","ratio_trial":100,"L_num":4,"L_den":10,"R_num":15,"R_den":30,"correct_side":2,"subjID":"isabellacardenassabogal15","gender":"1","school":"4","age":"9"},{"start_time":1552308553682,"click_time":1552308555568,"finger_time":1552308555067,"fix_duration":912.5859153709794,"trial":10,"RT":1385,"MT":501,"sideResp":1,"stimulus":[],"xmouse":[795,795,795,795,795,795,795,795,795,795,795,795,795,795,795,795,795,795,795,795,795,795,795,795,795,795,795,795,795,795,795,795,795,795,795,795,795,795,795,795,795,795,795,795,795,795,795,795,795,795,794,794,794,794,794,794,794,794,794,794,794,794,794,794,794,794,791,783,766,697,628,576,532,496,486,483,483,484,489,500,502,505,506,507,512,517,518,519,519,518,516,514,512,508,505],"ymouse":[511,511,511,511,511,511,511,511,511,511,511,511,511,511,511,511,511,511,511,511,511,511,511,511,511,511,511,511,511,511,511,511,511,511,511,511,511,511,511,511,511,511,511,511,511,511,511,511,511,511,510,509,509,509,508,507,507,507,507,507,507,507,507,507,507,503,500,495,485,451,397,350,308,282,279,277,275,272,262,221,203,185,176,171,156,142,132,128,124,117,112,109,106,101,97],"timestamp_mouse":[10,27,46,66,86,107,126,146,166,187,206,225,247,265,286,307,326,345,367,386,405,426,445,466,485,507,525,545,566,587,606,625,647,666,686,706,727,746,766,785,807,825,845,866,886,906,926,946,966,987,1005,1025,1045,1066,1085,1105,1125,1147,1166,1186,1207,1226,1246,1265,1285,1305,1327,1347,1366,1385,1405,1426,1445,1467,1485,1506,1525,1546,1565,1585,1606,1625,1645,1665,1685,1705,1725,1747,1765,1785,1806,1827,1847,1867,1886],"xSR":741.5,"ySR":469.95,"xT1":424.9,"yT1":0,"xT2":1058.1,"yT2":0,"toosoon":0,"cond_shown":"Incongruent","ratio_trial":200,"L_num":14,"L_den":30,"R_num":12,"R_den":18,"correct_side":2,"subjID":"isabellacardenassabogal15","gender":"1","school":"4","age":"9"},{"start_time":1552308561113,"click_time":1552308562488,"finger_time":1552308562368,"fix_duration":1224.2536027112496,"trial":11,"RT":1255,"MT":120,"sideResp":1,"stimulus":[],"xmouse":[820,820,820,820,820,820,820,820,820,820,820,820,820,820,820,820,820,820,820,820,820,820,820,820,820,820,820,820,820,820,820,820,820,820,820,820,820,820,820,820,820,820,820,820,820,820,820,820,820,820,820,820,820,820,820,820,820,820,820,816,813,801,755,721,688,651,621,516,470],"ymouse":[539,539,539,539,539,539,539,539,539,539,539,539,539,539,539,539,539,539,539,539,539,539,539,539,532,530,528,528,528,528,528,528,528,528,528,528,528,528,528,528,528,528,528,528,528,528,528,528,528,528,528,528,528,528,528,528,528,528,528,518,510,492,440,400,370,325,288,131,61],"timestamp_mouse":[15,40,55,75,96,115,134,156,175,196,214,235,255,274,295,316,335,355,374,395,414,436,455,475,494,515,535,555,576,594,614,636,654,675,695,715,736,754,775,796,816,835,855,876,895,916,934,955,974,994,1014,1034,1054,1076,1094,1115,1134,1154,1174,1195,1214,1235,1255,1274,1295,1316,1336,1355,1374],"xSR":741.5,"ySR":469.95,"xT1":424.9,"yT1":0,"xT2":1058.1,"yT2":0,"toosoon":0,"cond_shown":"Congruent","ratio_trial":100,"L_num":8,"L_den":16,"R_num":2,"R_den":5,"correct_side":1,"subjID":"isabellacardenassabogal15","gender":"1","school":"4","age":"9"},{"start_time":1552308564321,"click_time":1552308566327,"finger_time":1552308565948,"fix_duration":250,"trial":12,"RT":1627,"MT":379,"sideResp":1,"stimulus":[],"xmouse":[781,781,781,781,781,781,781,781,781,783,783,783,783,783,783,783,783,783,783,783,783,783,783,783,783,783,783,783,783,783,783,783,783,783,783,783,783,783,783,783,783,783,783,783,783,783,783,783,783,783,783,783,783,783,783,783,783,783,783,783,783,783,783,783,783,783,783,781,777,776,775,775,775,775,775,775,775,775,774,771,767,759,748,665,610,555,555,555,555,555,555,555,555,555,555,555,555,555,555,555,448],"ymouse":[554,554,554,554,554,554,554,554,554,554,554,554,553,552,551,551,551,551,551,551,551,551,551,551,551,551,551,551,551,551,551,551,551,551,551,551,551,551,551,551,551,551,551,551,551,551,551,551,551,551,551,551,551,551,551,551,551,551,551,551,551,551,551,549,546,544,541,536,530,528,527,526,525,525,525,525,520,518,507,497,483,462,434,275,146,40,40,40,40,40,40,40,40,40,40,40,40,40,40,40,43],"timestamp_mouse":[11,40,46,66,87,108,127,146,168,186,208,227,248,266,287,306,326,348,367,388,406,426,447,468,487,507,527,548,567,586,607,626,647,667,687,707,727,748,767,786,807,828,848,867,886,907,927,946,968,986,1006,1027,1047,1067,1087,1107,1126,1146,1168,1187,1206,1228,1246,1266,1287,1307,1327,1346,1367,1388,1407,1426,1446,1467,1486,1507,1526,1548,1566,1587,1607,1627,1647,1666,1687,1706,1726,1747,1767,1787,1806,1826,1847,1867,1887,1907,1927,1947,1967,1986,2006],"xSR":741.5,"ySR":469.95,"xT1":424.9,"yT1":0,"xT2":1058.1,"yT2":0,"toosoon":0,"cond_shown":"Incongruent","ratio_trial":200,"L_num":14,"L_den":30,"R_num":6,"R_den":9,"correct_side":2,"subjID":"isabellacardenassabogal15","gender":"1","school":"4","age":"9"},{"start_time":1552308571331,"click_time":1552308573608,"finger_time":1552308572988,"fix_duration":721.097890454401,"trial":13,"RT":1657,"MT":620,"sideResp":1,"stimulus":[],"xmouse":[764,764,764,764,764,764,764,764,764,764,764,764,764,764,764,764,764,764,764,764,764,764,764,764,764,764,764,764,764,764,764,764,764,764,764,764,764,764,764,764,764,764,764,764,764,764,764,764,764,764,764,764,764,764,764,764,764,764,764,764,764,764,764,764,764,764,764,764,764,764,764,764,764,764,764,764,764,764,764,766,767,765,762,762,762,762,761,758,745,729,720,716,716,710,696,673,634,587,532,523,521,520,520,519,518,518,517,517,519,518,516,513,511,498],"ymouse":[554,554,554,554,554,554,554,554,554,554,554,554,554,554,554,554,554,554,554,554,554,554,554,554,554,554,554,554,554,554,554,554,554,554,554,554,554,554,554,554,554,554,554,554,554,554,554,554,554,554,554,554,554,554,554,554,554,554,554,554,554,554,554,554,554,554,554,554,554,554,554,554,554,554,554,554,554,554,554,542,497,476,469,469,469,469,469,466,453,442,437,435,435,429,413,389,348,303,252,234,225,221,219,217,216,215,214,211,191,170,156,137,118,84],"timestamp_mouse":[22,38,58,78,96,116,136,158,177,197,218,238,256,278,297,316,336,357,377,397,416,436,457,477,496,517,537,557,577,596,616,638,656,677,697,716,737,756,777,797,817,836,856,876,898,916,937,956,978,998,1017,1037,1058,1077,1096,1118,1136,1157,1176,1198,1217,1238,1258,1276,1297,1318,1336,1356,1378,1396,1417,1438,1458,1476,1497,1516,1538,1557,1578,1596,1617,1636,1657,1677,1697,1717,1737,1757,1776,1796,1817,1836,1856,1876,1898,1916,1937,1956,1976,1997,2017,2037,2058,2078,2097,2117,2137,2157,2176,2197,2217,2236,2257,2277],"xSR":741.5,"ySR":469.95,"xT1":424.9,"yT1":0,"xT2":1058.1,"yT2":0,"toosoon":0,"cond_shown":"Congruent","ratio_trial":300,"L_num":18,"L_den":20,"R_num":9,"R_den":15,"correct_side":1,"subjID":"isabellacardenassabogal15","gender":"1","school":"4","age":"9"},{"start_time":1552308577868,"click_time":1552308579888,"finger_time":1552308579528,"fix_duration":1038.6858478438671,"trial":14,"RT":1660,"MT":360,"sideResp":1,"stimulus":[],"xmouse":[781,781,781,781,781,781,781,781,781,781,781,781,781,781,781,781,781,781,781,781,781,781,781,781,781,781,781,781,781,781,781,781,781,781,781,781,781,781,781,781,781,781,781,781,781,781,781,781,781,781,781,781,781,781,781,781,781,781,781,781,781,781,781,781,781,781,781,781,781,781,781,781,781,781,781,781,781,781,781,781,781,782,779,762,747,731,713,674,653,635,607,591,565,551,538,527,516,495,487,478,472,470],"ymouse":[498,498,498,498,498,498,498,498,498,498,498,498,498,498,498,498,498,498,498,498,498,498,498,498,498,498,498,498,498,498,498,498,498,498,498,498,498,498,498,498,498,498,498,498,498,498,498,498,498,498,498,498,498,498,498,498,498,498,498,498,498,498,498,498,498,498,498,498,498,498,498,498,498,498,498,498,498,498,498,498,498,495,488,465,447,430,417,368,335,311,276,253,221,203,190,176,164,141,129,114,106,99],"timestamp_mouse":[1,36,39,60,80,100,121,140,159,181,201,220,240,260,281,300,320,339,359,379,399,420,439,460,481,501,520,539,560,581,600,621,640,660,679,699,720,739,760,779,800,820,839,860,881,900,920,939,960,981,1000,1021,1039,1060,1080,1099,1121,1140,1159,1180,1199,1221,1240,1259,1279,1299,1319,1340,1360,1381,1400,1421,1440,1460,1480,1500,1521,1539,1560,1581,1606,1619,1639,1660,1680,1700,1721,1740,1760,1781,1800,1821,1840,1860,1879,1899,1919,1941,1960,1981,2001,2020],"xSR":741.5,"ySR":469.95,"xT1":424.9,"yT1":0,"xT2":1058.1,"yT2":0,"toosoon":0,"cond_shown":"Incongruent","ratio_trial":200,"L_num":11,"L_den":20,"R_num":3,"R_den":4,"correct_side":2,"subjID":"isabellacardenassabogal15","gender":"1","school":"4","age":"9"},{"start_time":1552308585747,"click_time":1552308587547,"finger_time":1552308587069,"fix_duration":1356.588158970124,"trial":15,"RT":1322,"MT":478,"sideResp":1,"stimulus":[],"xmouse":[783,783,783,783,783,783,783,783,783,783,783,783,783,783,783,783,783,783,783,783,783,783,783,783,783,783,785,785,785,785,785,785,785,785,785,785,785,785,785,785,785,785,785,785,785,785,785,785,785,785,785,785,785,785,785,786,788,789,789,789,789,785,781,774,761,747,730,708,675,598,564,541,530,524,524,522,519,516,512,506,504,502,500,497,494,486,481,477,477,480,482],"ymouse":[542,542,542,542,542,542,542,542,542,542,542,542,542,542,542,542,542,542,542,542,542,542,542,542,542,542,540,540,540,540,540,540,540,540,540,540,540,540,540,540,540,540,540,540,540,540,540,540,540,540,540,540,540,540,540,539,537,532,529,524,520,512,507,499,486,470,451,425,383,294,261,238,222,212,203,193,182,174,169,165,163,161,157,150,143,133,127,120,114,103,98],"timestamp_mouse":[9,21,40,62,82,101,120,142,161,181,202,221,241,262,282,301,320,342,362,381,401,421,442,461,481,501,521,540,561,580,601,622,640,662,680,701,720,740,761,781,801,822,840,861,881,900,922,941,960,981,1002,1022,1041,1061,1080,1101,1121,1140,1160,1181,1201,1221,1240,1260,1280,1301,1322,1342,1362,1382,1400,1420,1441,1461,1482,1501,1520,1542,1562,1582,1600,1620,1640,1660,1680,1700,1720,1740,1761,1781,1800],"xSR":741.5,"ySR":469.95,"xT1":424.9,"yT1":0,"xT2":1058.1,"yT2":0,"toosoon":0,"cond_shown":"Congruent","ratio_trial":200,"L_num":20,"L_den":25,"R_num":9,"R_den":15,"correct_side":1,"subjID":"isabellacardenassabogal15","gender":"1","school":"4","age":"9"},{"start_time":1552308590009,"click_time":1552308592327,"finger_time":1552308591627,"fix_duration":678.527202267249,"trial":16,"RT":1618,"MT":700,"sideResp":2,"stimulus":[],"xmouse":[778,778,778,778,778,778,778,778,778,778,778,778,778,778,778,778,778,778,778,778,778,778,778,778,778,778,778,778,778,778,778,778,778,778,778,778,778,778,778,778,778,778,778,778,778,778,778,778,778,778,778,778,778,778,778,778,778,778,778,778,778,778,778,778,778,778,778,778,778,778,778,778,778,778,778,778,780,790,807,827,846,863,863,864,867,872,884,899,913,928,937,943,946,949,956,963,985,988,989,989,990,1002,1017,1033,1048,1062,1079,1081,1082,1084,1085,1085,1085,1085,1087,1093],"ymouse":[514,514,514,514,514,514,514,514,514,514,514,514,514,514,514,514,514,514,514,514,514,514,514,514,514,514,514,514,514,514,514,514,514,514,514,514,514,514,514,514,514,514,514,514,514,514,514,514,514,514,514,514,514,514,514,514,514,514,514,514,514,514,514,514,514,514,514,514,514,514,514,514,514,514,514,514,514,514,512,509,508,506,506,504,490,471,443,416,393,371,352,330,325,323,321,317,303,300,299,299,299,296,292,283,273,262,244,240,239,238,236,219,194,161,119,65],"timestamp_mouse":[18,39,58,79,100,120,138,158,179,200,219,239,259,279,299,318,340,359,378,399,419,439,458,478,499,520,540,559,579,598,619,639,660,679,700,720,738,759,778,798,819,838,859,880,898,918,939,958,978,1000,1018,1039,1060,1079,1098,1118,1138,1159,1178,1198,1220,1239,1258,1280,1300,1318,1338,1360,1380,1399,1418,1439,1460,1478,1499,1520,1539,1558,1579,1598,1618,1638,1659,1679,1699,1719,1738,1758,1778,1800,1819,1839,1858,1879,1898,1919,1938,1959,1978,1998,2018,2039,2059,2079,2098,2119,2138,2159,2179,2199,2220,2238,2260,2279,2299,2318],"xSR":741.5,"ySR":469.95,"xT1":424.9,"yT1":0,"xT2":1058.1,"yT2":0,"toosoon":0,"cond_shown":"Incongruent","ratio_trial":300,"L_num":8,"L_den":10,"R_num":14,"R_den":28,"correct_side":1,"subjID":"isabellacardenassabogal15","gender":"1","school":"4","age":"9"},{"start_time":1552308599275,"click_time":1552308601368,"finger_time":1552308600789,"fix_duration":286.85549036648916,"trial":17,"RT":1514,"MT":579,"sideResp":2,"stimulus":[],"xmouse":[766,766,766,766,766,766,766,766,766,766,766,766,766,766,766,766,766,766,766,766,766,766,766,766,766,766,766,766,766,766,766,766,766,766,766,766,766,766,766,766,766,766,766,766,766,766,766,766,766,766,766,766,766,766,766,766,766,766,766,766,766,766,766,766,766,766,766,766,766,766,766,766,766,773,795,813,823,836,853,918,952,988,1013,1027,1041,1045,1048,1049,1050,1058,1058,1058,1058,1058,1058,1058,1058,1058,1058,1058,1058,1058,1058,1058,1078],"ymouse":[511,511,511,511,511,511,511,511,511,511,511,511,511,511,511,511,511,511,511,511,511,511,511,511,511,511,511,511,511,511,511,511,511,511,511,511,511,511,511,511,511,511,511,511,511,511,511,511,511,511,511,511,511,511,511,511,511,511,511,511,511,511,511,511,511,511,511,511,511,511,511,511,511,502,476,453,435,417,401,323,277,210,139,87,42,28,21,17,15,3,3,3,3,3,3,3,3,3,3,3,3,3,3,3,3],"timestamp_mouse":[15,39,52,73,94,112,133,152,174,192,213,233,254,273,292,313,332,354,374,393,413,432,454,472,492,513,533,552,574,593,612,633,653,672,694,713,734,753,773,793,813,833,853,874,893,913,932,952,972,994,1014,1033,1053,1072,1093,1112,1134,1153,1173,1194,1214,1233,1253,1272,1293,1312,1332,1353,1372,1394,1414,1434,1453,1472,1492,1514,1532,1553,1573,1592,1613,1632,1653,1673,1693,1713,1733,1753,1773,1792,1812,1832,1852,1873,1893,1912,1932,1952,1972,1992,2012,2033,2053,2073,2092],"xSR":741.5,"ySR":469.95,"xT1":424.9,"yT1":0,"xT2":1058.1,"yT2":0,"toosoon":0,"cond_shown":"Congruent","ratio_trial":100,"L_num":6,"L_den":12,"R_num":15,"R_den":25,"correct_side":2,"subjID":"isabellacardenassabogal15","gender":"1","school":"4","age":"9"},{"start_time":1552308606239,"click_time":1552308608086,"finger_time":1552308606587,"fix_duration":250,"trial":18,"RT":348,"MT":1499,"sideResp":1,"stimulus":[],"xmouse":[809,809,809,809,809,808,808,808,808,808,808,808,808,808,809,809,823,840,853,859,859,859,859,859,859,859,859,859,859,859,859,859,859,859,859,859,859,859,859,859,859,859,836,814,780,744,701,638,627,624,624,624,624,624,624,624,622,583,548,514,492,480,476,476,478,479,480,491,513,530,548,562,572,572,571,569,560,547,531,515,500,495,493,493,493,493,493,493,493,493,493,493,493],"ymouse":[516,516,515,515,515,514,514,514,514,514,514,513,511,511,509,507,484,466,456,453,453,452,452,452,452,452,452,452,452,452,452,452,452,452,452,452,452,452,452,452,452,452,440,426,400,376,339,269,249,242,242,242,242,242,240,240,237,221,206,194,184,177,171,169,169,169,169,167,164,158,152,146,137,131,124,120,117,114,110,108,106,105,105,105,105,105,105,105,105,105,105,104,97],"timestamp_mouse":[9,40,47,67,87,107,128,148,168,188,207,227,247,267,287,308,328,348,367,388,407,428,448,468,487,508,528,547,567,588,607,627,647,668,689,708,728,747,767,788,809,828,847,867,887,908,927,947,967,989,1007,1027,1048,1067,1088,1108,1127,1147,1167,1188,1207,1227,1247,1267,1287,1307,1328,1347,1367,1388,1407,1429,1447,1467,1488,1507,1529,1547,1569,1588,1607,1628,1647,1667,1688,1708,1727,1747,1768,1787,1808,1827,1847],"xSR":741.5,"ySR":469.95,"xT1":424.9,"yT1":0,"xT2":1058.1,"yT2":0,"toosoon":0,"cond_shown":"Congruent","ratio_trial":300,"L_num":20,"L_den":25,"R_num":5,"R_den":10,"correct_side":1,"subjID":"isabellacardenassabogal15","gender":"1","school":"4","age":"9"},{"start_time":1552308609912,"click_time":1552308612248,"finger_time":1552308612007,"fix_duration":524.5077558759517,"trial":19,"RT":2095,"MT":241,"sideResp":1,"stimulus":[],"xmouse":[779,779,779,779,779,779,779,779,779,779,779,779,779,779,780,786,793,794,798,800,802,802,802,802,802,802,802,802,802,802,802,802,802,802,802,802,802,802,802,802,802,802,802,802,802,802,802,802,802,802,802,802,802,802,802,802,802,802,802,802,802,802,802,802,802,802,802,802,802,802,802,802,802,802,802,802,802,802,802,802,802,802,802,802,802,802,802,802,802,802,802,802,802,802,802,802,802,802,802,802,802,802,799,787,747,705,668,638,609,553,533,513,493,471,460,448,437],"ymouse":[535,535,535,535,535,535,535,535,535,535,535,535,535,535,535,534,531,531,528,526,525,525,525,525,525,525,525,525,525,525,525,525,525,525,525,525,525,525,525,525,525,525,525,525,525,525,525,525,525,525,525,525,525,525,525,525,525,525,525,525,525,525,525,525,525,525,525,525,525,525,525,525,525,525,525,525,525,525,525,525,525,525,525,525,525,525,525,525,525,525,525,525,525,525,525,525,525,525,525,525,525,523,519,497,444,395,353,320,285,224,204,184,164,140,125,107,87],"timestamp_mouse":[15,35,55,75,94,114,134,155,174,195,214,234,255,275,295,315,334,355,374,394,415,434,455,475,495,515,535,554,574,594,616,635,654,674,695,714,735,756,776,794,814,836,855,875,894,915,935,954,975,994,1014,1035,1055,1075,1094,1115,1134,1155,1176,1195,1214,1235,1255,1275,1295,1315,1335,1355,1375,1395,1415,1435,1455,1476,1494,1516,1535,1554,1575,1594,1614,1635,1655,1674,1695,1714,1735,1755,1775,1795,1815,1834,1855,1874,1895,1914,1935,1954,1974,1994,2015,2035,2054,2074,2095,2114,2135,2154,2174,2194,2215,2234,2255,2275,2295,2315,2335],"xSR":741.5,"ySR":469.95,"xT1":424.9,"yT1":0,"xT2":1058.1,"yT2":0,"toosoon":0,"cond_shown":"Incongruent","ratio_trial":200,"L_num":4,"L_den":30,"R_num":1,"R_den":3,"correct_side":2,"subjID":"isabellacardenassabogal15","gender":"1","school":"4","age":"9"},{"start_time":1552308616977,"click_time":1552308621287,"finger_time":1552308620427,"fix_duration":250,"trial":20,"RT":3450,"MT":860,"sideResp":1,"stimulus":[],"xmouse":[773,773,773,773,773,773,773,773,773,773,773,773,773,773,773,773,773,773,773,773,773,773,773,773,773,773,773,773,773,773,773,773,773,773,773,773,773,773,773,773,773,773,773,773,773,773,773,773,773,773,773,773,773,773,773,773,773,773,773,773,773,773,773,773,773,773,773,773,773,773,773,773,773,773,773,773,773,773,773,773,773,773,773,773,773,773,773,773,773,773,773,773,773,773,773,773,773,773,773,773,773,773,773,773,773,773,773,773,773,773,773,773,773,773,773,773,773,773,773,773,773,773,773,773,773,773,773,773,773,773,773,773,773,773,773,773,773,773,773,773,773,773,774,775,776,776,776,776,776,776,776,776,776,776,776,776,776,776,776,778,780,783,783,783,783,783,783,783,783,783,783,765,745,720,691,648,631,631,631,631,631,631,631,631,631,631,631,631,631,631,631,631,631,631,631,631,631,631,631,631,631,631,631,631,631,631,631,631,631,631,631,631,551,536,532,523],"ymouse":[550,550,550,550,550,550,550,550,550,550,550,550,550,550,550,550,550,550,550,550,550,550,550,550,550,550,550,550,550,550,550,550,550,550,550,550,550,550,550,550,550,550,550,550,550,550,550,550,550,550,550,550,550,550,550,550,550,550,550,550,550,550,550,550,550,550,550,550,550,550,550,550,550,550,550,550,550,550,550,550,550,550,550,550,550,550,550,550,550,550,550,550,550,550,550,550,550,550,550,550,550,550,550,550,550,550,550,550,550,550,550,550,550,550,550,550,550,550,550,550,550,550,550,550,550,550,550,550,550,550,550,550,550,550,550,550,550,550,550,550,550,550,549,549,549,549,549,549,549,549,549,549,549,549,549,549,549,549,549,548,548,547,547,547,547,547,547,547,547,547,543,485,405,318,213,74,9,9,9,9,9,9,9,9,9,9,9,9,9,9,9,9,9,9,9,9,9,9,9,9,9,9,9,9,9,9,9,9,9,9,9,9,7,17,19,23],"timestamp_mouse":[14,30,50,69,90,109,130,149,169,189,209,229,249,269,290,309,329,349,371,389,409,430,449,470,489,510,529,550,569,590,609,630,650,670,690,710,730,749,770,790,809,830,849,869,889,909,930,950,970,990,1010,1029,1050,1070,1090,1109,1130,1149,1170,1191,1210,1229,1250,1269,1290,1309,1329,1350,1370,1391,1410,1429,1450,1470,1490,1510,1530,1549,1570,1589,1609,1630,1649,1669,1691,1709,1730,1750,1769,1789,1810,1830,1849,1870,1890,1909,1929,1951,1969,1990,2009,2029,2050,2070,2090,2109,2131,2150,2169,2190,2209,2229,2249,2269,2289,2310,2330,2350,2370,2390,2410,2429,2449,2470,2490,2510,2530,2549,2570,2591,2609,2629,2649,2671,2690,2709,2730,2750,2770,2791,2810,2829,2849,2870,2890,2910,2930,2950,2970,2989,3010,3031,3049,3070,3091,3109,3129,3149,3170,3190,3209,3229,3250,3270,3290,3310,3329,3350,3370,3390,3410,3429,3450,3469,3490,3509,3529,3549,3569,3590,3609,3629,3649,3669,3689,3710,3729,3749,3769,3789,3810,3829,3850,3870,3889,3910,3929,3950,3969,3990,4009,4030,4049,4071,4090,4110,4129,4149,4170,4189,4209,4230,4249,4270,4289,4310],"xSR":741.5,"ySR":469.95,"xT1":424.9,"yT1":0,"xT2":1058.1,"yT2":0,"toosoon":0,"cond_shown":"Congruent","ratio_trial":100,"L_num":3,"L_den":6,"R_num":2,"R_den":5,"correct_side":1,"subjID":"isabellacardenassabogal15","gender":"1","school":"4","age":"9"},{"start_time":1552308627520,"click_time":1552308629527,"finger_time":1552308629026,"fix_duration":1091.5347564398992,"trial":21,"RT":1506,"MT":501,"sideResp":2,"stimulus":[],"xmouse":[767,767,767,767,767,767,767,767,767,767,767,767,767,767,767,767,767,767,767,767,767,767,767,767,767,767,767,767,767,767,767,767,767,767,767,767,767,767,767,767,767,767,767,767,767,767,767,767,766,766,766,766,766,766,766,766,766,766,766,766,766,766,766,766,766,766,766,766,766,766,766,766,766,766,767,802,833,871,901,919,944,952,958,963,971,978,981,982,982,982,982,983,984,984,987,1001,1011,1021,1031,1046,1070],"ymouse":[561,561,561,561,561,561,561,561,561,561,561,561,561,561,561,561,561,561,561,561,561,561,561,561,561,561,561,561,561,561,561,561,561,561,561,561,561,561,561,561,561,561,561,561,561,561,561,561,561,561,561,561,561,561,561,561,561,561,561,561,561,561,561,561,561,561,561,561,561,561,561,561,558,554,533,415,339,285,252,233,213,204,196,187,166,139,131,129,129,129,126,123,118,114,109,90,79,69,59,46,22],"timestamp_mouse":[10,32,47,66,87,107,126,147,167,186,207,227,247,267,286,306,327,346,366,386,407,428,446,467,487,506,526,546,566,587,607,626,647,667,687,707,726,747,767,787,806,826,847,867,886,906,927,947,966,987,1007,1026,1046,1067,1087,1106,1126,1148,1168,1187,1206,1226,1247,1268,1287,1306,1326,1347,1366,1387,1406,1428,1446,1466,1487,1506,1526,1546,1566,1587,1606,1626,1646,1667,1686,1707,1726,1747,1766,1786,1807,1826,1846,1866,1887,1906,1927,1947,1966,1986,2007],"xSR":741.5,"ySR":469.95,"xT1":424.9,"yT1":0,"xT2":1058.1,"yT2":0,"toosoon":0,"cond_shown":"Incongruent","ratio_trial":100,"L_num":6,"L_den":10,"R_num":13,"R_den":26,"correct_side":1,"subjID":"isabellacardenassabogal15","gender":"1","school":"4","age":"9"},{"start_time":1552308632886,"click_time":1552308635126,"finger_time":1552308634787,"fix_duration":737.5169875573772,"trial":22,"RT":1901,"MT":339,"sideResp":2,"stimulus":[],"xmouse":[788,788,788,788,788,788,788,788,788,788,788,788,788,788,788,788,788,788,788,788,788,788,788,788,788,788,788,788,788,788,789,789,790,791,791,791,791,791,791,791,791,791,791,791,791,791,791,791,791,791,791,791,791,791,791,791,791,791,791,791,791,791,791,791,791,791,791,791,791,791,791,791,791,791,791,791,791,791,791,791,791,791,791,791,791,791,791,791,791,791,790,788,786,780,775,773,771,771,770,770,776,784,794,820,850,871,899,925,973,1001,1033,1055,1082],"ymouse":[535,535,535,535,535,535,535,535,535,535,535,535,535,535,535,535,535,535,535,535,535,535,535,535,535,535,535,535,535,535,535,534,532,531,531,531,531,531,531,531,531,531,531,531,531,531,531,531,531,531,531,531,531,531,531,531,531,531,531,531,531,531,531,531,531,531,531,531,531,531,531,531,531,531,531,531,531,531,531,531,531,531,531,531,531,531,531,530,520,513,506,500,495,481,473,468,464,460,418,366,330,301,279,237,202,179,155,132,99,87,76,70,60],"timestamp_mouse":[9,20,40,60,81,100,121,142,160,180,201,221,241,260,281,300,320,340,360,380,401,420,440,461,481,500,522,541,561,580,601,621,641,660,681,700,721,741,761,780,801,821,841,860,882,901,921,940,960,982,1000,1020,1040,1061,1081,1101,1121,1140,1160,1180,1200,1221,1241,1260,1281,1301,1320,1341,1360,1380,1401,1421,1442,1461,1480,1500,1520,1540,1561,1581,1600,1621,1641,1661,1681,1700,1720,1740,1760,1781,1801,1821,1841,1861,1881,1901,1921,1941,1960,1981,2000,2020,2040,2060,2080,2100,2120,2141,2161,2180,2201,2221,2240],"xSR":741.5,"ySR":469.95,"xT1":424.9,"yT1":0,"xT2":1058.1,"yT2":0,"toosoon":0,"cond_shown":"Congruent","ratio_trial":300,"L_num":1,"L_den":20,"R_num":7,"R_den":20,"correct_side":2,"subjID":"isabellacardenassabogal15","gender":"1","school":"4","age":"9"},{"start_time":1552308639683,"click_time":1552308641548,"finger_time":1552308641266,"fix_duration":275.33434142692647,"trial":23,"RT":1583,"MT":282,"sideResp":2,"stimulus":[],"xmouse":[797,797,797,797,797,797,797,797,797,797,797,797,797,797,797,797,797,797,797,797,797,797,797,797,797,797,797,798,798,799,799,799,799,799,799,799,799,799,799,799,799,799,799,799,799,799,799,799,799,799,799,799,799,799,799,799,799,799,799,799,799,799,799,799,799,799,799,799,799,799,799,799,799,799,799,799,799,801,815,846,858,905,931,962,976,991,1004,1011,1033,1049,1068,1105,1119,1129],"ymouse":[496,496,496,496,496,496,496,496,496,496,496,496,496,496,496,496,496,496,496,496,496,496,496,496,496,496,496,496,495,495,495,495,495,495,495,495,495,495,495,495,495,495,495,495,495,495,495,495,495,495,495,495,495,495,495,495,495,495,495,495,495,495,495,495,495,495,495,495,495,495,495,495,495,495,495,495,495,495,485,461,447,380,344,300,285,269,255,246,219,199,172,119,101,86],"timestamp_mouse":[10,23,44,64,84,103,124,143,163,183,204,223,244,263,284,303,324,344,363,383,404,423,444,463,483,504,523,543,563,584,603,623,643,663,683,704,723,743,764,783,805,824,843,864,884,904,923,943,964,983,1003,1023,1043,1064,1083,1103,1124,1145,1164,1184,1204,1225,1244,1264,1283,1303,1325,1344,1364,1383,1403,1424,1444,1464,1483,1503,1524,1544,1564,1583,1603,1623,1644,1664,1683,1703,1724,1744,1765,1783,1803,1824,1844,1864],"xSR":741.5,"ySR":469.95,"xT1":424.9,"yT1":0,"xT2":1058.1,"yT2":0,"toosoon":0,"cond_shown":"Congruent","ratio_trial":100,"L_num":1,"L_den":2,"R_num":3,"R_den":5,"correct_side":2,"subjID":"isabellacardenassabogal15","gender":"1","school":"4","age":"9"},{"start_time":1552308643023,"click_time":1552308645387,"finger_time":1552308644946,"fix_duration":374.88355433134245,"trial":24,"RT":1923,"MT":441,"sideResp":1,"stimulus":[],"xmouse":[814,814,814,814,814,814,814,814,814,814,814,814,814,814,814,814,814,814,814,814,814,814,814,814,814,814,814,814,814,814,814,814,814,814,814,814,814,814,814,814,814,814,814,814,814,814,814,814,814,814,814,814,814,814,814,814,814,814,814,814,814,814,814,814,814,814,814,814,814,814,814,814,814,814,814,814,814,814,814,814,814,814,814,814,814,814,814,814,814,814,814,814,813,811,809,804,798,745,726,713,702,694,686,685,683,680,675,663,660,655,652,640,612,600,591,578,563,535,521],"ymouse":[513,513,513,513,513,513,513,513,513,513,513,513,513,513,513,513,513,513,513,513,513,513,513,513,513,513,513,513,513,513,513,513,513,513,513,513,513,513,513,513,513,513,513,513,513,513,513,513,513,513,513,513,513,513,513,513,513,513,513,513,513,513,513,513,513,513,513,513,513,513,513,513,513,513,513,513,513,513,513,513,513,513,513,513,513,513,513,513,513,513,513,513,513,508,500,490,467,333,299,281,266,255,242,240,239,235,232,227,224,220,217,210,187,176,163,148,132,101,86],"timestamp_mouse":[13,23,43,64,83,103,124,143,163,183,203,224,244,264,285,304,324,343,363,383,403,424,444,464,484,503,524,545,564,584,603,624,643,663,683,703,723,744,765,783,804,824,843,863,884,904,923,949,963,983,1003,1024,1043,1063,1083,1103,1123,1144,1164,1183,1203,1223,1243,1263,1284,1303,1323,1343,1364,1383,1404,1423,1445,1463,1484,1503,1523,1544,1563,1584,1604,1623,1644,1664,1683,1703,1723,1744,1765,1783,1803,1823,1844,1863,1884,1904,1923,1943,1963,1984,2004,2023,2043,2063,2083,2103,2123,2143,2163,2184,2203,2224,2244,2263,2283,2303,2324,2344,2364],"xSR":741.5,"ySR":469.95,"xT1":424.9,"yT1":0,"xT2":1058.1,"yT2":0,"toosoon":0,"cond_shown":"Incongruent","ratio_trial":200,"L_num":4,"L_den":30,"R_num":1,"R_den":3,"correct_side":2,"subjID":"isabellacardenassabogal15","gender":"1","school":"4","age":"9"},{"start_time":1552308661932,"click_time":1552308664905,"finger_time":1552308663625,"fix_duration":684.6285035589793,"trial":25,"RT":1693,"MT":1280,"sideResp":1,"stimulus":[],"xmouse":[774,774,774,774,774,774,774,774,774,774,774,774,774,774,774,774,774,774,774,774,774,774,774,774,774,774,774,774,774,774,774,774,774,774,774,774,774,774,774,774,774,774,774,774,774,774,774,774,774,774,774,774,774,774,774,774,774,774,774,774,774,774,774,774,774,774,774,774,774,774,774,774,774,774,774,774,774,775,778,782,786,795,807,831,845,856,865,869,871,871,871,871,871,871,871,871,871,871,871,869,867,860,848,806,771,738,667,618,575,507,485,473,467,436,398,378,378,378,378,378,378,378,378,378,378,378,378,378,378,378,378,378,397,406,408,409,409,409,409,409,409,410,411,414,417,419,419,423,430],"ymouse":[541,541,541,541,541,541,541,541,541,541,541,541,541,541,541,541,541,541,541,541,541,541,541,541,541,541,541,541,541,541,541,541,541,541,541,541,541,541,541,541,541,541,541,541,541,541,541,541,541,541,541,541,541,541,541,541,541,541,541,541,541,541,541,541,541,541,541,541,541,541,541,541,541,541,541,541,541,541,538,535,530,522,507,476,452,429,413,405,396,394,393,392,392,391,391,391,391,390,389,389,388,384,378,358,347,336,307,286,275,255,249,241,229,120,38,6,6,6,6,6,6,6,6,6,6,6,6,6,6,6,6,6,2,12,16,17,17,17,17,17,17,18,18,19,20,21,22,25,31],"timestamp_mouse":[23,37,55,74,94,114,135,154,174,194,214,234,255,275,294,314,335,355,374,395,414,434,455,474,494,514,534,555,574,595,614,633,653,673,693,713,733,754,773,793,814,834,853,874,893,914,934,953,973,992,1013,1034,1053,1074,1094,1113,1134,1154,1174,1193,1213,1233,1254,1274,1294,1313,1333,1354,1374,1393,1414,1434,1453,1474,1493,1512,1534,1553,1572,1594,1614,1633,1653,1673,1693,1713,1733,1752,1773,1793,1813,1833,1852,1873,1893,1913,1933,1953,1973,1994,2012,2032,2053,2073,2093,2113,2134,2154,2173,2194,2214,2234,2254,2274,2294,2314,2333,2353,2373,2394,2414,2433,2452,2474,2494,2513,2533,2554,2573,2593,2614,2633,2653,2673,2693,2713,2733,2754,2774,2793,2812,2833,2853,2873,2894,2912,2933,2954,2973],"xSR":741.5,"ySR":469.95,"xT1":424.9,"yT1":0,"xT2":1058.1,"yT2":0,"toosoon":0,"cond_shown":"Incongruent","ratio_trial":100,"L_num":10,"L_den":25,"R_num":8,"R_den":16,"correct_side":2,"subjID":"isabellacardenassabogal15","gender":"1","school":"4","age":"9"},{"start_time":1552308672804,"click_time":1552308675245,"finger_time":1552308674666,"fix_duration":377.105090747879,"trial":26,"RT":1862,"MT":579,"sideResp":2,"stimulus":[],"xmouse":[797,797,797,797,797,797,797,797,797,797,797,797,797,797,797,797,797,797,797,797,797,797,797,797,797,797,797,797,797,797,797,797,797,797,797,797,797,797,797,797,797,797,797,797,797,797,797,797,797,797,797,797,797,797,797,797,797,797,797,797,797,797,797,797,797,797,797,797,797,797,797,797,797,797,797,797,797,797,797,797,797,797,797,797,797,797,797,797,797,797,800,808,835,846,859,869,902,934,945,992,1023,1057,1062,1064,1064,1064,1066,1073,1082,1098,1101,1102,1103,1103,1103,1103,1103,1103,1103,1103,1103,1102,1101],"ymouse":[540,540,540,540,540,540,540,540,540,540,540,540,540,540,540,540,540,540,540,540,540,540,540,540,540,540,540,540,540,540,540,540,540,540,540,540,540,540,540,540,540,540,540,540,540,540,540,540,540,540,540,540,540,540,540,540,540,540,540,540,540,540,540,540,540,540,540,540,540,540,540,540,540,540,540,540,540,540,540,540,540,540,540,540,540,540,540,540,540,540,538,537,533,530,526,522,493,453,439,366,315,253,237,223,210,199,173,155,137,115,110,108,107,106,106,106,106,106,106,106,105,103,98],"timestamp_mouse":[11,39,40,61,80,101,121,142,161,181,201,221,240,262,280,301,322,342,360,381,402,421,441,460,482,501,521,542,561,580,602,621,642,661,682,701,721,741,762,782,802,821,841,862,880,902,921,941,961,980,1001,1022,1042,1062,1082,1100,1121,1142,1162,1181,1202,1221,1240,1262,1282,1301,1321,1340,1362,1382,1402,1421,1440,1462,1482,1502,1521,1540,1561,1582,1602,1621,1640,1661,1682,1702,1720,1742,1761,1782,1801,1822,1841,1862,1882,1902,1921,1941,1962,1981,2001,2022,2041,2061,2081,2102,2122,2142,2160,2181,2201,2222,2241,2261,2281,2301,2322,2342,2361,2382,2401,2422,2441],"xSR":741.5,"ySR":469.95,"xT1":424.9,"yT1":0,"xT2":1058.1,"yT2":0,"toosoon":0,"cond_shown":"Incongruent","ratio_trial":300,"L_num":13,"L_den":26,"R_num":12,"R_den":15,"correct_side":2,"subjID":"isabellacardenassabogal15","gender":"1","school":"4","age":"9"},{"start_time":1552308683265,"click_time":1552308686205,"finger_time":1552308685646,"fix_duration":756.1616626048925,"trial":27,"RT":2381,"MT":559,"sideResp":2,"stimulus":[],"xmouse":[823,823,823,823,823,823,823,823,822,818,812,810,807,806,805,805,805,805,805,805,805,805,805,805,805,805,805,805,805,805,804,804,804,804,804,804,804,804,804,804,804,804,804,804,804,804,804,804,804,804,804,804,804,804,804,804,804,804,804,804,804,804,804,804,804,804,804,804,804,804,804,804,804,804,804,804,804,804,804,804,804,804,804,804,804,804,804,804,804,804,804,804,804,804,804,804,804,804,804,804,804,804,804,804,804,804,804,804,804,804,804,804,804,804,804,804,804,807,819,871,895,957,1001,1055,1144,1175,1193,1203,1203,1203,1203,1203,1203,1203,1203,1203,1203,1203,1203,1203,1203,1203,1203,1203,1167,1165,1161,1151],"ymouse":[551,551,551,551,551,551,550,549,548,547,544,543,540,539,539,539,539,539,539,539,539,539,539,539,538,538,538,538,538,538,537,537,537,537,537,537,537,537,537,537,537,537,537,537,537,537,537,537,537,537,537,537,537,537,537,537,537,537,537,537,537,537,537,537,537,537,537,537,537,537,537,537,537,537,537,537,537,537,537,537,537,537,537,537,537,537,537,537,537,537,537,537,537,537,537,537,537,537,537,537,537,537,537,537,537,537,537,537,537,537,537,537,537,537,537,537,537,531,526,486,458,382,326,257,115,61,28,7,7,7,7,7,7,7,7,7,7,7,7,7,7,7,7,7,6,15,21,30],"timestamp_mouse":[14,33,49,61,79,101,119,140,161,180,200,220,240,259,281,300,319,340,361,380,401,420,441,460,480,500,520,541,561,580,601,619,640,661,680,700,721,740,761,780,801,821,841,860,880,901,920,941,960,980,999,1019,1040,1061,1081,1099,1121,1141,1161,1180,1201,1221,1240,1259,1279,1301,1321,1340,1360,1380,1400,1420,1440,1461,1481,1500,1521,1541,1560,1580,1601,1621,1640,1660,1681,1700,1720,1741,1761,1780,1799,1821,1840,1861,1880,1901,1920,1941,1959,1981,2000,2020,2041,2061,2080,2100,2119,2140,2161,2181,2199,2220,2240,2261,2280,2301,2319,2341,2360,2381,2399,2421,2439,2460,2482,2500,2520,2540,2560,2581,2600,2620,2640,2661,2680,2701,2720,2740,2760,2781,2800,2820,2841,2861,2881,2900,2919,2940],"xSR":741.5,"ySR":469.95,"xT1":424.9,"yT1":0,"xT2":1058.1,"yT2":0,"toosoon":0,"cond_shown":"Congruent","ratio_trial":300,"L_num":5,"L_den":25,"R_num":7,"R_den":14,"correct_side":2,"subjID":"isabellacardenassabogal15","gender":"1","school":"4","age":"9"},{"start_time":1552308691360,"click_time":1552308697086,"finger_time":1552308696485,"fix_duration":1373.9053890870202,"trial":28,"RT":5125,"MT":601,"sideResp":1,"stimulus":[],"xmouse":[782,782,782,782,782,782,782,782,782,782,782,782,782,782,782,782,782,782,782,782,782,782,782,782,782,782,782,782,782,782,782,782,782,782,782,782,782,782,782,782,782,782,782,782,782,782,782,782,782,782,782,782,782,782,782,782,782,782,782,782,782,782,782,782,782,782,782,782,782,782,782,782,782,782,782,782,782,782,782,782,782,782,782,782,782,782,782,782,782,782,782,782,782,782,782,782,782,782,782,782,783,783,783,783,783,783,783,783,783,783,783,783,783,783,783,783,783,783,783,783,783,783,783,783,783,783,783,783,783,783,783,783,783,783,783,783,783,783,783,783,783,783,783,783,783,783,783,783,783,783,783,783,783,783,783,783,783,783,783,783,783,783,783,783,783,783,783,783,783,783,783,783,783,783,783,783,783,783,783,783,783,783,783,783,783,783,783,783,783,783,783,783,783,783,783,783,783,783,783,783,783,783,783,783,783,783,783,783,783,783,783,783,783,783,783,783,783,783,783,783,783,783,783,783,783,783,783,783,783,783,783,783,783,783,783,783,783,783,783,783,783,783,783,783,783,783,783,783,783,783,783,783,783,783,782,777,738,709,678,654,633,626,625,625,625,625,625,625,625,632,639,631,623,617,611,602,583,575,567,562,558,551,548,543,535,526,517],"ymouse":[532,532,532,532,532,532,532,532,532,532,532,532,532,532,532,532,532,532,532,532,532,532,532,532,532,532,532,532,532,532,532,532,532,532,532,532,532,532,532,532,532,532,532,532,532,532,532,532,532,532,532,532,532,532,532,532,532,532,532,532,532,532,532,532,532,532,532,532,532,532,532,532,532,532,532,532,532,532,532,532,532,532,532,532,532,532,532,532,532,532,532,532,532,532,532,532,532,531,531,530,530,529,529,529,529,529,529,529,529,529,529,529,529,530,531,532,533,533,533,533,533,533,533,533,533,533,533,533,533,532,531,530,530,530,530,530,530,530,530,530,530,530,530,530,530,530,530,530,530,530,530,530,530,530,530,530,530,530,530,530,530,530,530,530,530,530,530,530,530,530,530,530,530,530,530,530,530,530,530,529,529,528,528,527,527,527,527,527,527,527,527,527,527,527,527,527,527,527,527,527,527,527,527,527,527,527,527,527,527,527,527,527,527,527,527,527,527,527,527,527,527,527,527,527,527,527,527,527,527,527,527,527,527,527,527,527,527,527,527,527,527,527,527,527,527,527,527,527,527,527,527,527,527,527,522,521,486,464,443,430,422,419,419,419,419,419,419,418,409,395,363,286,266,253,242,226,190,176,165,158,152,140,135,124,107,91,74],"timestamp_mouse":[9,35,47,66,86,106,125,146,165,186,205,226,245,266,286,306,325,346,366,385,406,426,446,465,486,506,525,545,566,585,605,625,645,666,686,704,726,746,765,786,806,825,846,866,885,906,925,945,966,986,1006,1026,1045,1065,1086,1106,1126,1146,1166,1184,1205,1226,1245,1266,1285,1305,1326,1346,1366,1384,1406,1425,1446,1466,1486,1504,1526,1545,1566,1585,1605,1624,1645,1664,1686,1706,1725,1746,1766,1784,1805,1825,1844,1866,1886,1906,1924,1944,1966,1986,2006,2025,2045,2066,2085,2105,2124,2144,2166,2184,2206,2226,2244,2264,2286,2306,2325,2345,2366,2386,2404,2425,2446,2466,2484,2505,2525,2546,2564,2584,2606,2625,2645,2665,2684,2704,2725,2746,2765,2786,2804,2825,2846,2866,2885,2906,2926,2946,2965,2986,3006,3026,3046,3065,3084,3106,3126,3144,3165,3186,3205,3225,3246,3266,3286,3306,3325,3346,3364,3385,3406,3425,3446,3465,3486,3505,3526,3546,3566,3584,3606,3625,3645,3664,3686,3706,3724,3746,3766,3785,3806,3825,3844,3866,3886,3906,3925,3944,3966,3986,4005,4025,4046,4066,4085,4105,4126,4146,4166,4184,4205,4226,4245,4266,4285,4305,4325,4346,4365,4386,4405,4425,4445,4466,4486,4506,4525,4545,4566,4586,4605,4626,4646,4665,4686,4706,4725,4746,4766,4786,4806,4826,4846,4866,4886,4905,4925,4946,4964,4986,5005,5026,5044,5065,5086,5106,5125,5146,5165,5186,5205,5225,5245,5264,5286,5306,5326,5345,5364,5385,5406,5424,5446,5465,5486,5506,5524,5545,5565,5585,5606,5625,5646,5666,5686,5705,5726],"xSR":741.5,"ySR":469.95,"xT1":424.9,"yT1":0,"xT2":1058.1,"yT2":0,"toosoon":0,"cond_shown":"Congruent","ratio_trial":300,"L_num":1,"L_den":5,"R_num":3,"R_den":6,"correct_side":2,"subjID":"isabellacardenassabogal15","gender":"1","school":"4","age":"9"},{"start_time":1552308699958,"click_time":1552308702187,"finger_time":1552308701586,"fix_duration":1391.287837658483,"trial":29,"RT":1628,"MT":601,"sideResp":1,"stimulus":[],"xmouse":[793,793,793,793,793,793,793,793,793,793,793,793,793,793,793,793,793,793,793,793,793,793,793,793,793,793,793,793,793,793,793,793,793,793,793,793,793,793,793,793,793,793,793,793,793,793,793,793,793,793,793,793,793,793,793,793,793,793,793,793,793,793,793,793,793,793,793,793,793,793,793,793,793,793,793,793,793,793,790,784,775,750,738,724,713,702,687,681,669,657,646,619,608,599,589,580,565,555,548,540,529,515,511,508,506,502,494,490,483,479,475,467],"ymouse":[506,506,506,506,506,506,506,506,506,506,506,506,506,506,506,506,506,506,506,506,506,506,506,506,506,506,506,506,506,506,506,506,506,506,506,506,506,506,506,506,506,506,506,506,506,506,506,506,506,506,506,506,506,506,506,506,506,506,506,506,506,506,506,506,506,506,506,506,506,506,506,506,506,506,506,506,506,506,506,498,485,462,453,446,438,432,424,415,389,374,360,330,319,308,297,285,260,232,212,193,179,161,156,152,148,144,135,130,118,112,107,90],"timestamp_mouse":[10,38,47,68,88,107,128,147,167,188,207,227,247,268,288,306,327,348,368,387,408,428,448,467,486,507,528,548,566,587,608,627,648,667,687,707,728,747,767,787,808,828,847,868,888,907,928,947,967,988,1007,1027,1046,1067,1087,1108,1128,1147,1167,1187,1208,1227,1248,1268,1287,1308,1326,1346,1368,1387,1408,1426,1448,1468,1487,1506,1527,1548,1567,1588,1607,1628,1647,1667,1686,1708,1728,1747,1767,1788,1808,1828,1847,1867,1887,1908,1929,1947,1968,1988,2008,2029,2047,2068,2088,2107,2128,2147,2167,2188,2207,2229],"xSR":741.5,"ySR":469.95,"xT1":424.9,"yT1":0,"xT2":1058.1,"yT2":0,"toosoon":0,"cond_shown":"Incongruent","ratio_trial":300,"L_num":8,"L_den":10,"R_num":9,"R_den":18,"correct_side":1,"subjID":"isabellacardenassabogal15","gender":"1","school":"4","age":"9"},{"start_time":1552308707920,"click_time":1552308709965,"finger_time":1552308709326,"fix_duration":293.14715844493145,"trial":30,"RT":1406,"MT":639,"sideResp":1,"stimulus":[],"xmouse":[795,795,795,795,795,795,795,795,795,795,795,795,795,795,795,795,795,795,795,795,795,795,795,795,795,795,795,795,795,795,795,795,795,795,795,795,795,795,795,795,795,795,795,795,795,795,795,795,795,795,795,795,795,795,795,795,795,795,795,795,795,795,795,795,795,795,795,795,795,794,786,774,759,743,707,690,678,667,656,647,642,634,621,602,572,564,562,554,546,541,538,535,533,531,527,526,526,526,526,524,520,516,509],"ymouse":[498,498,498,498,498,498,498,498,498,498,498,498,498,498,498,498,498,498,498,498,498,498,498,498,498,498,498,498,498,498,498,498,498,498,498,498,498,498,498,498,498,498,498,498,498,498,498,498,498,498,498,498,498,498,498,498,498,498,498,498,498,498,498,498,498,498,498,498,497,484,463,441,421,407,382,370,361,353,342,325,313,300,283,257,217,203,200,184,171,161,155,149,140,128,119,118,118,118,117,112,106,100,90],"timestamp_mouse":[10,42,45,66,85,106,125,145,165,185,205,225,244,266,284,306,326,346,366,385,406,425,446,466,484,506,526,544,566,585,605,625,646,666,685,706,725,746,764,785,806,824,845,865,885,904,925,946,965,985,1005,1025,1045,1066,1085,1104,1125,1146,1166,1186,1206,1225,1245,1266,1285,1306,1326,1345,1365,1385,1406,1426,1445,1466,1486,1505,1525,1546,1565,1586,1605,1626,1646,1666,1686,1705,1725,1746,1764,1786,1805,1826,1844,1865,1886,1905,1925,1945,1965,1985,2005,2025,2044],"xSR":741.5,"ySR":469.95,"xT1":424.9,"yT1":0,"xT2":1058.1,"yT2":0,"toosoon":0,"cond_shown":"Congruent","ratio_trial":300,"L_num":20,"L_den":25,"R_num":13,"R_den":26,"correct_side":1,"subjID":"isabellacardenassabogal15","gender":"1","school":"4","age":"9"},{"start_time":1552308712966,"click_time":1552308715145,"finger_time":1552308714625,"fix_duration":859.8291260326539,"trial":31,"RT":1659,"MT":520,"sideResp":1,"stimulus":[],"xmouse":[780,780,780,780,780,780,780,780,780,780,780,780,780,780,780,780,780,780,780,780,780,780,780,780,780,780,780,780,780,780,780,780,780,780,780,780,780,780,780,780,780,780,780,780,780,780,780,780,780,780,780,780,780,780,780,780,780,780,780,780,780,780,780,780,780,780,780,780,780,780,780,780,780,778,774,767,765,763,763,760,757,750,741,741,741,741,741,741,739,731,717,700,664,653,648,644,638,630,620,604,588,585,568,564,561,555,549,534,524],"ymouse":[524,524,524,524,524,524,524,524,524,524,524,524,524,524,524,524,524,524,524,524,524,524,524,524,524,524,524,524,524,524,524,524,524,524,524,524,524,524,524,524,524,524,524,524,524,524,524,524,524,524,524,524,524,524,524,524,524,524,524,524,524,524,524,524,524,524,524,524,524,524,524,524,524,522,519,513,511,510,510,508,505,501,497,497,497,497,497,497,495,490,484,476,459,450,442,432,412,350,307,257,218,210,171,160,153,140,128,100,87],"timestamp_mouse":[19,39,58,80,100,120,140,160,179,200,220,240,260,278,300,320,339,360,380,400,420,440,460,480,499,518,539,560,580,600,620,639,660,680,700,720,738,758,780,800,820,840,865,880,898,919,939,959,979,1000,1019,1039,1059,1079,1100,1119,1139,1160,1178,1199,1219,1239,1260,1280,1299,1319,1339,1360,1379,1399,1420,1440,1460,1479,1499,1519,1538,1560,1579,1598,1619,1640,1659,1678,1699,1718,1740,1759,1780,1799,1820,1839,1859,1878,1898,1920,1940,1960,1978,2000,2020,2038,2059,2079,2099,2119,2140,2159,2179],"xSR":741.5,"ySR":469.95,"xT1":424.9,"yT1":0,"xT2":1058.1,"yT2":0,"toosoon":0,"cond_shown":"Incongruent","ratio_trial":200,"L_num":14,"L_den":30,"R_num":12,"R_den":18,"correct_side":2,"subjID":"isabellacardenassabogal15","gender":"1","school":"4","age":"9"},{"start_time":1552308720303,"click_time":1552308722546,"finger_time":1552308721865,"fix_duration":1196.6931981877183,"trial":32,"RT":1562,"MT":681,"sideResp":2,"stimulus":[],"xmouse":[778,778,778,778,778,779,779,779,779,779,780,781,783,784,784,784,784,784,784,784,786,786,787,787,787,787,787,787,787,787,787,787,787,787,787,787,787,787,787,787,787,787,786,786,786,786,786,786,787,787,788,789,794,795,795,795,795,795,795,795,795,795,795,795,795,795,795,795,795,795,795,795,795,795,795,795,798,802,812,825,833,838,851,867,881,895,900,901,901,901,903,905,946,963,976,985,994,1015,1029,1043,1053,1058,1058,1058,1058,1058,1058,1058,1058,1058,1058,1058,1060],"ymouse":[522,522,522,522,522,521,521,521,521,521,522,522,522,523,523,523,523,523,523,523,524,524,524,524,524,524,524,524,524,524,524,524,524,524,524,524,524,524,524,524,524,524,524,524,523,520,512,509,507,506,504,502,491,489,488,488,488,488,488,488,488,488,488,488,488,488,488,488,488,488,488,488,488,488,488,488,483,473,457,434,410,390,291,239,199,153,128,122,122,122,120,119,107,93,78,67,63,63,63,61,59,58,58,58,58,58,58,58,58,58,58,58,57],"timestamp_mouse":[10,22,41,63,81,102,121,143,162,182,203,223,242,262,282,303,323,343,364,381,402,423,443,463,483,502,523,542,563,582,602,622,643,662,683,703,721,742,762,783,801,823,842,861,882,902,923,941,961,981,1003,1023,1042,1063,1082,1101,1123,1141,1162,1183,1203,1222,1243,1262,1283,1302,1321,1342,1363,1383,1402,1423,1442,1462,1483,1502,1524,1541,1562,1582,1602,1621,1641,1662,1682,1703,1722,1742,1762,1783,1802,1823,1842,1863,1881,1902,1922,1942,1963,1983,2002,2022,2041,2063,2083,2103,2122,2142,2163,2183,2203,2223,2243],"xSR":741.5,"ySR":469.95,"xT1":424.9,"yT1":0,"xT2":1058.1,"yT2":0,"toosoon":0,"cond_shown":"Congruent","ratio_trial":200,"L_num":3,"L_den":10,"R_num":14,"R_den":28,"correct_side":2,"subjID":"isabellacardenassabogal15","gender":"1","school":"4","age":"9"},{"start_time":1552308724921,"click_time":1552308726505,"finger_time":1552308726224,"fix_duration":995.3069626628063,"trial":33,"RT":1303,"MT":281,"sideResp":1,"stimulus":[],"xmouse":[783,783,783,783,783,783,783,783,784,785,785,785,785,785,785,785,785,785,785,785,785,785,785,785,785,785,785,785,785,786,786,787,788,788,788,788,788,788,788,788,788,788,788,788,788,788,788,788,788,788,788,788,788,788,788,789,790,790,791,791,791,792,793,793,793,793,782,774,754,728,699,633,608,587,565,547,527,519,512,509],"ymouse":[513,513,513,513,513,513,513,513,513,512,511,511,511,511,511,511,511,511,511,511,511,511,511,511,511,511,511,511,510,509,508,506,506,505,505,503,503,503,503,503,503,503,503,503,503,503,503,503,503,503,503,503,503,503,503,502,501,501,500,499,498,494,489,479,470,459,438,425,381,331,281,187,160,137,120,111,103,102,100,99],"timestamp_mouse":[11,22,42,64,83,103,123,142,163,184,204,222,243,263,283,302,323,342,364,384,403,422,443,464,483,503,522,544,563,583,603,622,644,663,683,702,723,744,763,783,804,824,843,863,883,904,924,944,963,983,1003,1023,1044,1062,1084,1103,1124,1143,1163,1183,1202,1223,1242,1263,1283,1303,1323,1342,1363,1384,1402,1423,1442,1463,1484,1503,1524,1542,1562,1584],"xSR":741.5,"ySR":469.95,"xT1":424.9,"yT1":0,"xT2":1058.1,"yT2":0,"toosoon":0,"cond_shown":"Incongruent","ratio_trial":200,"L_num":3,"L_den":10,"R_num":1,"R_den":2,"correct_side":2,"subjID":"isabellacardenassabogal15","gender":"1","school":"4","age":"9"},{"start_time":1552308749902,"click_time":1552308752465,"finger_time":1552308752044,"fix_duration":1016.8553045975867,"trial":34,"RT":2142,"MT":421,"sideResp":2,"stimulus":[],"xmouse":[801,801,801,801,801,801,801,801,801,801,801,801,801,801,801,801,801,801,801,801,801,801,801,801,801,801,801,801,801,801,801,801,801,801,801,801,801,801,801,801,801,801,801,801,801,801,801,801,801,801,801,801,801,801,801,801,801,801,801,801,801,801,801,801,801,801,801,801,801,801,801,801,801,801,801,801,802,802,802,802,802,802,802,802,802,802,802,802,804,804,804,804,804,804,805,805,805,805,805,805,805,805,805,805,805,805,814,849,883,996,1074,1081,1086,1094,1108,1143,1154,1166,1173,1176,1176,1172,1167,1161,1158,1155,1153,1148,1145],"ymouse":[531,531,531,531,531,531,531,531,531,531,531,531,531,531,531,531,531,531,531,531,531,531,531,531,531,531,531,531,531,531,531,531,531,531,531,531,531,531,531,531,531,531,531,531,531,531,531,531,531,531,531,531,531,531,531,531,531,531,531,531,531,531,531,531,531,531,531,531,531,531,531,531,531,531,531,531,531,530,528,527,526,526,526,524,523,520,515,510,507,505,497,495,494,493,492,485,485,485,485,485,485,485,485,485,485,485,485,485,479,464,449,446,442,432,406,334,308,278,253,222,186,170,156,144,135,119,111,101,96],"timestamp_mouse":[9,21,45,63,81,102,122,142,162,183,202,221,242,262,281,303,321,342,361,383,402,423,442,461,481,501,521,543,562,582,601,622,642,663,682,702,722,742,761,781,801,821,843,861,882,901,922,942,962,981,1001,1022,1041,1061,1081,1102,1122,1143,1163,1182,1201,1222,1243,1262,1282,1301,1321,1343,1363,1383,1401,1422,1442,1461,1481,1501,1522,1542,1563,1583,1602,1622,1643,1663,1683,1702,1721,1742,1763,1783,1802,1821,1841,1863,1882,1901,1922,1942,1963,1982,2002,2022,2043,2062,2081,2102,2123,2142,2162,2181,2202,2222,2242,2263,2282,2301,2322,2342,2361,2381,2403,2423,2443,2461,2481,2502,2521,2542,2563],"xSR":741.5,"ySR":469.95,"xT1":424.9,"yT1":0,"xT2":1058.1,"yT2":0,"toosoon":0,"cond_shown":"Congruent","ratio_trial":200,"L_num":8,"L_den":15,"R_num":7,"R_den":21,"correct_side":1,"subjID":"isabellacardenassabogal15","gender":"1","school":"4","age":"9"},{"start_time":1552308759257,"click_time":1552308761064,"finger_time":1552308760583,"fix_duration":250,"trial":35,"RT":1326,"MT":481,"sideResp":1,"stimulus":[],"xmouse":[806,806,806,806,806,806,806,806,806,806,806,806,806,806,806,806,806,806,806,806,806,806,806,806,806,806,806,806,806,806,806,806,806,806,806,806,806,806,806,806,806,806,806,806,806,806,806,806,806,806,806,806,806,806,806,806,806,806,806,806,806,805,805,799,784,757,724,711,687,612,562,519,489,455,446,440,437,434,424,415,409,403,399,395,395,395,397,399,403,411,427],"ymouse":[534,534,534,534,534,534,534,534,534,534,534,534,534,534,534,534,534,534,534,534,534,534,534,534,534,534,534,534,534,534,534,534,534,534,534,534,534,534,534,534,534,534,534,534,534,534,534,534,534,534,534,534,534,534,534,534,534,534,534,534,534,534,534,533,527,515,501,494,479,453,436,402,334,205,179,168,152,137,110,93,75,58,45,31,30,30,29,29,29,36,45],"timestamp_mouse":[13,36,46,66,88,106,128,147,167,188,207,227,248,266,288,306,326,348,368,387,408,428,446,466,487,506,526,548,566,588,606,627,647,667,687,706,727,747,768,787,807,827,847,867,887,907,928,948,966,987,1006,1027,1047,1067,1086,1107,1128,1148,1166,1188,1208,1227,1248,1267,1287,1306,1326,1348,1367,1388,1407,1427,1447,1468,1486,1507,1527,1546,1566,1588,1607,1627,1646,1668,1686,1708,1727,1746,1767,1786,1807],"xSR":741.5,"ySR":469.95,"xT1":424.9,"yT1":0,"xT2":1058.1,"yT2":0,"toosoon":0,"cond_shown":"Congruent","ratio_trial":200,"L_num":20,"L_den":25,"R_num":9,"R_den":15,"correct_side":1,"subjID":"isabellacardenassabogal15","gender":"1","school":"4","age":"9"},{"start_time":1552308766480,"click_time":1552308768325,"finger_time":1552308767884,"fix_duration":834.1566645884665,"trial":36,"RT":1404,"MT":441,"sideResp":2,"stimulus":[],"xmouse":[821,821,821,821,821,821,821,821,821,821,821,821,821,821,821,821,821,821,821,821,821,821,821,821,821,821,821,821,817,815,814,813,812,811,811,811,811,811,811,811,811,811,811,811,811,811,811,811,811,811,811,811,811,811,811,811,811,811,811,811,811,811,811,811,811,811,811,811,813,817,822,826,831,843,851,858,864,869,890,901,910,923,944,973,983,990,994,1001,1018,1028,1039,1051,1061],"ymouse":[538,538,538,537,537,537,537,537,537,537,537,537,537,537,537,537,537,537,537,537,537,537,537,537,537,537,536,533,530,527,526,525,524,523,523,523,523,523,523,523,523,523,523,523,523,523,523,523,523,523,523,523,523,523,523,523,523,523,523,523,523,523,523,523,523,523,523,520,510,494,467,438,408,375,358,342,328,312,273,256,240,222,195,165,156,149,145,138,123,115,107,98,90],"timestamp_mouse":[4,36,44,64,84,104,123,144,163,184,205,224,244,264,284,303,324,343,364,384,403,424,445,464,484,504,524,544,565,585,604,624,644,663,685,704,724,744,763,785,803,823,845,865,884,904,923,944,964,983,1003,1024,1044,1065,1084,1103,1125,1144,1163,1185,1204,1224,1243,1264,1284,1304,1324,1344,1365,1383,1404,1423,1444,1464,1484,1504,1524,1545,1563,1584,1603,1625,1644,1663,1685,1703,1724,1743,1764,1783,1805,1824,1845],"xSR":741.5,"ySR":469.95,"xT1":424.9,"yT1":0,"xT2":1058.1,"yT2":0,"toosoon":0,"cond_shown":"Congruent","ratio_trial":100,"L_num":1,"L_den":2,"R_num":3,"R_den":5,"correct_side":2,"subjID":"isabellacardenassabogal15","gender":"1","school":"4","age":"9"},{"start_time":1552308770095,"click_time":1552308772084,"finger_time":1552308771764,"fix_duration":250,"trial":37,"RT":1669,"MT":320,"sideResp":2,"stimulus":[],"xmouse":[782,782,782,782,782,782,782,782,782,782,782,782,782,782,782,782,782,782,782,782,782,782,782,782,782,782,782,782,782,782,782,782,782,782,782,782,782,782,782,782,782,782,782,782,782,782,782,782,782,782,782,782,782,782,782,782,782,782,782,782,782,782,782,782,782,782,782,782,782,782,782,782,782,782,782,782,782,782,782,782,782,782,779,775,770,767,764,764,764,764,764,767,773,798,830,891,952,1022,1042,1064],"ymouse":[501,501,501,501,501,501,501,501,501,501,501,501,501,501,501,501,501,501,501,501,501,501,501,501,501,501,501,501,501,501,501,501,501,501,501,501,501,501,501,501,501,501,501,501,501,501,501,501,501,501,501,501,501,501,501,501,501,501,501,501,501,501,501,501,501,501,501,501,501,501,501,501,501,501,501,501,501,501,501,501,501,501,492,465,436,417,411,407,404,401,398,390,377,344,295,210,147,103,94,83],"timestamp_mouse":[12,28,48,68,88,110,128,149,169,190,208,230,250,269,289,309,329,350,370,390,408,429,450,468,490,509,528,548,570,590,609,630,649,668,688,708,730,750,769,790,809,829,848,868,889,910,930,950,969,989,1009,1028,1049,1070,1090,1109,1128,1150,1170,1189,1209,1230,1249,1268,1289,1308,1329,1349,1369,1389,1409,1429,1450,1469,1489,1509,1529,1549,1570,1589,1609,1630,1650,1669,1689,1709,1728,1750,1769,1789,1809,1829,1849,1868,1888,1909,1930,1951,1968,1989],"xSR":741.5,"ySR":469.95,"xT1":424.9,"yT1":0,"xT2":1058.1,"yT2":0,"toosoon":0,"cond_shown":"Incongruent","ratio_trial":100,"L_num":10,"L_den":25,"R_num":9,"R_den":18,"correct_side":2,"subjID":"isabellacardenassabogal15","gender":"1","school":"4","age":"9"},{"start_time":1552308774962,"click_time":1552308777204,"finger_time":1552308776624,"fix_duration":1496.1922399498953,"trial":38,"RT":1662,"MT":580,"sideResp":2,"stimulus":[],"xmouse":[808,808,808,808,808,808,808,808,808,808,808,808,808,808,808,808,808,808,808,808,808,808,808,808,808,808,808,808,808,808,808,808,808,808,808,808,808,808,808,808,808,808,808,808,808,808,808,808,808,808,808,808,808,808,808,808,808,808,808,808,808,808,808,808,808,808,808,808,808,808,808,808,808,808,808,809,810,810,811,811,814,817,826,844,856,877,886,892,902,914,944,961,972,983,996,1009,1013,1016,1018,1019,1020,1022,1023,1024,1028,1033,1042,1044,1046,1047,1051,1054,1059],"ymouse":[528,528,528,528,528,528,528,528,528,528,528,528,528,528,528,528,528,528,528,528,528,528,528,528,528,528,528,528,528,528,528,528,528,528,528,528,528,528,528,528,528,528,528,528,528,528,528,528,528,528,528,528,528,528,528,528,528,528,528,528,528,528,528,528,528,528,528,528,528,528,528,528,528,528,528,529,529,529,528,526,520,515,497,461,441,410,397,387,376,362,328,304,283,263,238,207,195,185,180,175,166,161,154,147,134,122,104,97,93,91,82,77,70],"timestamp_mouse":[6,27,42,62,82,102,122,143,162,183,202,222,241,263,281,301,321,342,363,381,402,423,441,461,482,503,522,542,563,582,603,622,642,662,682,703,722,742,762,782,801,822,843,862,882,902,921,942,963,982,1002,1022,1042,1062,1082,1101,1121,1143,1161,1181,1202,1223,1242,1263,1282,1301,1322,1342,1363,1382,1403,1421,1442,1463,1482,1502,1521,1543,1562,1581,1601,1622,1643,1662,1683,1702,1723,1742,1763,1782,1802,1821,1842,1863,1882,1901,1922,1943,1963,1983,2002,2022,2042,2062,2082,2102,2122,2142,2163,2182,2202,2221,2242],"xSR":741.5,"ySR":469.95,"xT1":424.9,"yT1":0,"xT2":1058.1,"yT2":0,"toosoon":0,"cond_shown":"Congruent","ratio_trial":100,"L_num":7,"L_den":14,"R_num":9,"R_den":15,"correct_side":2,"subjID":"isabellacardenassabogal15","gender":"1","school":"4","age":"9"},{"start_time":1552308778510,"click_time":1552308781324,"finger_time":1552308780885,"fix_duration":285.26701638956564,"trial":39,"RT":2375,"MT":439,"sideResp":2,"stimulus":[],"xmouse":[812,812,812,812,812,812,812,812,812,812,812,812,812,812,812,812,812,812,812,812,812,812,812,812,812,812,812,812,812,812,812,812,812,812,812,812,812,812,812,812,812,812,812,812,812,812,812,812,812,812,812,812,812,812,812,812,812,812,812,812,812,812,812,812,812,812,812,812,812,812,812,812,812,812,812,812,812,812,812,812,812,812,812,812,812,812,812,812,812,812,812,812,812,812,812,812,812,812,812,812,812,812,812,812,812,812,812,812,812,812,812,812,812,812,812,816,822,841,861,880,901,921,966,980,995,1001,1004,1007,1010,1014,1018,1025,1035,1050,1057,1059,1061,1063,1068,1071,1075],"ymouse":[547,547,547,547,547,547,547,547,547,547,547,547,547,547,547,547,547,547,547,547,547,547,547,547,547,547,547,547,547,547,547,547,547,547,547,547,547,547,547,547,547,547,547,549,549,550,550,550,550,550,550,550,550,550,550,550,550,550,550,550,550,550,550,550,550,550,550,550,550,550,550,550,550,550,550,550,550,550,550,550,550,550,550,550,550,550,550,550,550,550,550,550,550,550,550,550,550,550,550,550,550,550,550,550,550,550,550,550,550,550,550,550,550,550,549,536,517,474,443,415,376,339,265,239,213,203,197,192,186,181,177,166,153,133,127,125,123,121,110,102,92],"timestamp_mouse":[14,35,54,74,94,114,134,153,173,195,215,233,254,275,294,315,335,353,375,393,413,433,454,474,494,515,533,553,575,593,613,635,654,673,695,714,734,754,775,794,814,834,854,875,894,914,934,954,974,993,1014,1034,1053,1074,1095,1114,1134,1155,1174,1194,1214,1234,1255,1274,1293,1314,1335,1354,1373,1393,1415,1434,1453,1474,1493,1515,1535,1553,1573,1593,1615,1634,1653,1674,1695,1715,1733,1754,1774,1794,1815,1833,1854,1875,1895,1914,1934,1955,1975,1994,2013,2033,2055,2073,2094,2115,2135,2153,2173,2195,2214,2234,2254,2273,2294,2315,2334,2354,2375,2394,2413,2434,2455,2474,2495,2514,2533,2553,2574,2594,2615,2634,2654,2673,2694,2714,2734,2755,2773,2793,2814],"xSR":741.5,"ySR":469.95,"xT1":424.9,"yT1":0,"xT2":1058.1,"yT2":0,"toosoon":0,"cond_shown":"Incongruent","ratio_trial":300,"L_num":3,"L_den":6,"R_num":4,"R_den":20,"correct_side":1,"subjID":"isabellacardenassabogal15","gender":"1","school":"4","age":"9"},{"start_time":1552308792180,"click_time":1552308795303,"finger_time":1552308793902,"fix_duration":694.5350869763441,"trial":40,"RT":1722,"MT":1401,"sideResp":1,"stimulus":[],"xmouse":[817,817,817,817,817,817,817,817,817,817,817,817,817,817,817,817,817,817,817,817,817,817,817,817,817,817,817,817,817,817,817,817,817,817,817,817,817,817,817,817,817,817,817,817,817,817,817,817,817,817,817,817,817,817,817,817,817,817,817,817,817,817,817,817,817,817,817,817,817,817,817,817,817,817,817,817,826,828,828,828,828,828,823,812,799,778,742,722,701,672,642,609,598,591,584,575,568,564,562,561,561,561,559,556,550,547,545,545,545,545,545,545,545,545,544,543,541,530,519,510,508,508,508,508,508,508,508,508,508,508,508,509,509,511,513,520,525,525,526,527,530,530,530,530,530,530,530,530,530,530,530,530,530,529,528,525,521],"ymouse":[538,538,538,538,538,538,538,538,538,538,538,538,538,538,538,538,538,538,538,538,538,538,538,538,538,538,538,538,538,538,538,538,538,538,538,538,538,538,538,538,538,538,538,538,538,538,538,538,538,538,538,538,538,538,538,538,538,538,538,538,538,538,538,538,538,538,538,538,538,538,538,538,538,538,538,538,538,538,538,538,538,538,533,523,512,485,441,420,400,378,359,337,326,313,304,293,284,282,280,279,278,268,263,255,244,239,228,226,226,226,226,226,225,224,221,217,213,200,190,182,179,177,177,176,176,174,170,169,169,169,168,167,166,165,161,149,139,136,126,107,84,63,36,36,36,36,36,36,36,36,36,36,36,36,36,36,36],"timestamp_mouse":[13,35,42,63,82,103,122,143,163,182,202,223,243,262,283,303,323,343,362,383,402,423,442,463,482,503,522,543,562,582,602,622,642,663,682,702,722,744,763,782,802,823,842,863,883,902,923,943,962,983,1002,1022,1042,1062,1083,1102,1123,1144,1162,1183,1202,1223,1243,1263,1283,1302,1322,1343,1363,1382,1403,1422,1442,1462,1482,1503,1522,1542,1563,1582,1602,1623,1642,1663,1683,1703,1722,1742,1762,1782,1803,1823,1842,1862,1882,1903,1922,1942,1962,1983,2002,2022,2042,2063,2083,2102,2122,2143,2163,2183,2202,2223,2243,2263,2283,2302,2322,2342,2362,2382,2402,2423,2442,2463,2483,2502,2522,2542,2562,2583,2603,2623,2642,2663,2683,2703,2723,2743,2763,2782,2803,2822,2842,2862,2882,2902,2922,2943,2962,2982,3002,3022,3043,3062,3083,3102,3123],"xSR":741.5,"ySR":469.95,"xT1":424.9,"yT1":0,"xT2":1058.1,"yT2":0,"toosoon":0,"cond_shown":"Congruent","ratio_trial":100,"L_num":8,"L_den":16,"R_num":2,"R_den":5,"correct_side":1,"subjID":"isabellacardenassabogal15","gender":"1","school":"4","age":"9"},{"start_time":1552308799074,"click_time":1552308800763,"finger_time":1552308800603,"fix_duration":250,"trial":41,"RT":1529,"MT":160,"sideResp":2,"stimulus":[],"xmouse":[770,770,770,770,770,770,770,770,770,770,770,770,770,770,770,770,770,770,770,770,770,770,770,770,770,770,770,770,770,770,770,770,770,770,770,770,770,770,770,770,770,770,770,770,770,770,770,770,770,770,770,770,770,770,770,770,770,770,770,770,770,770,770,770,770,770,770,770,770,770,770,770,770,770,773,779,797,890,926,954,981,1001,1041,1058,1074],"ymouse":[520,520,520,520,520,520,520,520,520,520,520,520,520,520,520,520,520,520,520,520,520,520,520,520,520,520,520,520,520,520,520,520,520,520,520,520,520,520,520,520,520,520,520,520,520,520,520,520,520,520,520,520,520,520,520,520,520,520,520,520,520,520,520,520,520,520,520,520,520,520,520,520,520,520,521,505,448,258,211,183,160,141,89,64,38],"timestamp_mouse":[18,28,48,69,88,108,128,148,168,189,208,228,248,269,289,309,328,348,369,389,409,428,449,469,489,509,528,548,568,589,609,628,649,669,689,708,728,749,770,789,809,829,849,869,889,909,929,949,968,988,1009,1028,1048,1068,1088,1108,1129,1149,1168,1189,1209,1228,1248,1268,1288,1310,1328,1349,1368,1389,1409,1429,1449,1468,1489,1509,1529,1548,1569,1588,1608,1628,1648,1670,1689],"xSR":741.5,"ySR":469.95,"xT1":424.9,"yT1":0,"xT2":1058.1,"yT2":0,"toosoon":0,"cond_shown":"Incongruent","ratio_trial":300,"L_num":13,"L_den":26,"R_num":12,"R_den":15,"correct_side":2,"subjID":"isabellacardenassabogal15","gender":"1","school":"4","age":"9"},{"start_time":1552308802995,"click_time":1552308804602,"finger_time":1552308804322,"fix_duration":1029.3724989735372,"trial":42,"RT":1327,"MT":280,"sideResp":2,"stimulus":[],"xmouse":[783,783,783,783,783,783,783,783,783,783,783,783,783,783,783,783,783,783,783,783,783,783,783,783,783,783,783,7