[{"start_time":1552328356244,"click_time":1552328356964,"finger_time":1552328356605,"fix_duration":1015.621781166681,"trial":0,"RT":361,"MT":359,"sideResp":1,"stimulus":"img/250/equaldotsize/L/14_Ratio_250_L_12_R_3.png","xmouse":[780,780,780,780,780,780,780,780,780,780,780,780,780,780,780,780,780,780,799,829,837,858,865,856,840,818,797,753,714,640,620,588,559,517,499,483,473],"ymouse":[490,490,490,490,490,490,490,490,490,490,490,490,490,490,490,490,490,490,461,393,368,319,271,256,249,242,237,226,215,184,175,162,148,122,109,100,93],"timestamp_mouse":[9,20,40,60,79,100,120,140,159,180,199,220,240,260,279,299,319,340,361,380,399,419,440,461,480,499,519,540,559,580,599,619,640,660,679,700,720],"xSR":741.5,"ySR":469.95,"xT1":424.9,"yT1":0,"xT2":1058.1,"yT2":0,"toosoon":0,"cond_shown":"equaldotsize","ratio_trial":250,"smaller_num":"3","larger_num":"12","correct_side":1,"subjID":"isabellagomez13","gender":"1","age":"9","school":"4","test":{"fix_dur":[250,1500],"timestim":300,"targets_dim":[100,100],"targets_relative_coord":[0.3,0.7],"size_stim":[880,420],"start_dim":[100,100],"size_start":[300,300],"size_fix":60,"samplingrate":20,"img_types":["equaldotsize","equaldotanddens","randomdotsizeEA"],"ratios":[250,500,750,900],"rep_conds":9,"nTrials":120,"trials_to_rest":500,"Trials_order":[84,76,73,111,78,12,17,10,88,105,69,107,74,55,14,110,6,48,49,97,38,64,25,30,72,33,41,29,9,39,45,44,81,58,61,28,22,86,115,103,101,65,87,106,23,94,8,5,60,85,0,82,36,27,63,90,83,75,79,96,67,24,56,31,117,112,42,114,4,57,109,18,19,100,77,113,47,21,68,43,102,99,62,54,80,118,108,59,116,51,119,13,20,70,66,3,11,52,92,32,46,2,104,50,89,7,40,35,34,1,16,15,95,53,37,71,26,91,98,93],"cond_shown":["equaldotsize","equaldotanddens","equaldotanddens","equaldotsize","equaldotsize","equaldotsize","randomdotsizeEA","equaldotanddens","equaldotanddens","equaldotsize","equaldotsize","randomdotsizeEA","randomdotsizeEA","equaldotanddens","randomdotsizeEA","randomdotsizeEA","equaldotsize","equaldotsize","equaldotanddens","equaldotanddens","randomdotsizeEA","equaldotanddens","equaldotanddens","equaldotsize","equaldotsize","equaldotsize","randomdotsizeEA","randomdotsizeEA","equaldotsize","equaldotsize","equaldotsize","randomdotsizeEA","equaldotsize","equaldotanddens","equaldotanddens","equaldotanddens","equaldotanddens","randomdotsizeEA","equaldotanddens","equaldotanddens","randomdotsizeEA","randomdotsizeEA","equaldotsize","equaldotanddens","randomdotsizeEA","equaldotanddens","randomdotsizeEA","randomdotsizeEA","equaldotsize","equaldotanddens","equaldotsize","equaldotanddens","equaldotsize","equaldotsize","equaldotsize","equaldotsize","randomdotsizeEA","equaldotsize","equaldotanddens","equaldotsize","equaldotanddens","equaldotsize","randomdotsizeEA","equaldotanddens","equaldotsize","equaldotanddens","equaldotsize","equaldotsize","equaldotanddens","equaldotsize","equaldotanddens","equaldotsize","equaldotanddens","equaldotanddens","randomdotsizeEA","randomdotsizeEA","randomdotsizeEA","equaldotsize","randomdotsizeEA","equaldotanddens","equaldotsize","equaldotsize","randomdotsizeEA","equaldotsize","randomdotsizeEA","equaldotanddens","equaldotsize","randomdotsizeEA","randomdotsizeEA","equaldotsize","randomdotsizeEA","equaldotanddens","randomdotsizeEA","equaldotanddens","equaldotsize","equaldotsize","randomdotsizeEA","equaldotanddens","randomdotsizeEA","randomdotsizeEA","equaldotanddens","randomdotsizeEA","randomdotsizeEA","randomdotsizeEA","randomdotsizeEA","equaldotanddens","equaldotanddens","randomdotsizeEA","equaldotanddens","equaldotanddens","equaldotanddens","equaldotsize","randomdotsizeEA","randomdotsizeEA","equaldotanddens","randomdotsizeEA","randomdotsizeEA","equaldotanddens","randomdotsizeEA","equaldotsize"],"ratio_trial":[250,500,250,500,750,250,500,900,500,900,900,900,250,750,250,250,750,250,250,250,250,500,250,750,250,900,500,500,900,500,900,750,900,900,250,500,900,250,750,750,500,500,500,900,900,900,750,500,250,250,250,900,250,500,500,750,900,500,750,250,750,250,750,750,900,500,750,750,500,900,250,750,750,500,500,500,900,900,750,750,750,500,250,750,750,900,250,900,750,500,900,250,750,900,750,500,900,500,750,750,900,250,750,250,500,750,500,900,900,250,500,500,900,500,250,900,250,750,250,900],"smaller_num":["3","3","3","2","3","1","9","18","1","9","18","9","2","15","3","2","3","2","3","6","2","6","2","3","4","9","9","2","9","5","18","15","18","9","2","3","18","3","9","15","9","9","4","9","9","18","3","2","2","6","4","9","3","6","2","3","18","2","3","3","15","3","9","15","18","9","15","15","2","18","1","15","15","2","9","1","18","18","6","6","18","4","3","3","3","9","3","9","6","1","9","2","3","18","6","5","9","6","12","3","18","6","15","2","9","12","1","18","9","2","9","10","18","3","3","9","6","15","2","9"],"larger_num":["12","6","12","4","4","4","18","20","2","10","20","10","8","20","12","8","4","8","12","24","8","12","8","4","16","10","18","4","10","10","20","20","20","10","8","6","20","12","12","20","18","18","8","10","10","20","4","4","8","24","16","10","12","12","4","4","20","4","4","12","20","12","12","20","20","18","20","20","4","20","4","20","20","4","18","2","20","20","8","8","24","8","12","4","4","10","12","10","8","2","10","8","4","20","8","10","10","12","16","4","20","24","20","8","18","16","2","20","10","8","18","20","20","6","12","10","24","20","8","10"],"correct_side":[1,2,2,1,1,2,2,2,2,2,1,1,1,2,2,1,2,1,2,2,1,1,1,1,2,2,1,1,1,1,2,2,2,2,1,2,2,1,2,2,2,2,1,2,1,2,2,2,1,2,1,2,2,1,2,1,1,1,1,2,2,2,2,2,1,2,1,1,1,2,2,2,2,1,2,2,1,2,1,1,1,1,1,1,1,1,1,2,1,2,2,2,2,1,2,2,1,1,2,2,1,1,1,1,2,2,2,1,2,1,2,2,2,2,1,1,1,2,1,2],"img_shown":["img/250/equaldotsize/L/14_Ratio_250_L_12_R_3.png","img/500/equaldotanddens/R/2_Ratio_500_L_3_R_6.png","img/250/equaldotanddens/R/11_Ratio_250_L_3_R_12.png","img/500/equaldotsize/L/10_Ratio_500_L_4_R_2.png","img/750/equaldotsize/L/10_Ratio_750_L_4_R_3.png","img/250/equaldotsize/R/8_Ratio_250_L_1_R_4.png","img/500/randomdotsizeEA/R/1_Ratio_500_L_9_R_18.png","img/900/equaldotanddens/R/11_Ratio_900_L_18_R_20.png","img/500/equaldotanddens/R/12_Ratio_500_L_1_R_2.png","img/900/equaldotsize/R/3_Ratio_900_L_9_R_10.png","img/900/equaldotsize/L/4_Ratio_900_L_20_R_18.png","img/900/randomdotsizeEA/L/1_Ratio_900_L_10_R_9.png","img/250/randomdotsizeEA/L/1_Ratio_250_L_8_R_2.png","img/750/equaldotanddens/R/3_Ratio_750_L_15_R_20.png","img/250/randomdotsizeEA/R/4_Ratio_250_L_3_R_12.png","img/250/randomdotsizeEA/L/3_Ratio_250_L_8_R_2.png","img/750/equaldotsize/R/7_Ratio_750_L_3_R_4.png","img/250/equaldotsize/L/3_Ratio_250_L_8_R_2.png","img/250/equaldotanddens/R/11_Ratio_250_L_3_R_12.png","img/250/equaldotanddens/R/6_Ratio_250_L_6_R_24.png","img/250/randomdotsizeEA/L/7_Ratio_250_L_8_R_2.png","img/500/equaldotanddens/L/13_Ratio_500_L_12_R_6.png","img/250/equaldotanddens/L/3_Ratio_250_L_8_R_2.png","img/750/equaldotsize/L/10_Ratio_750_L_4_R_3.png","img/250/equaldotsize/R/10_Ratio_250_L_4_R_16.png","img/900/equaldotsize/R/15_Ratio_900_L_9_R_10.png","img/500/randomdotsizeEA/L/4_Ratio_500_L_18_R_9.png","img/500/randomdotsizeEA/L/10_Ratio_500_L_4_R_2.png","img/900/equaldotsize/L/1_Ratio_900_L_10_R_9.png","img/500/equaldotsize/L/7_Ratio_500_L_10_R_5.png","img/900/equaldotsize/R/9_Ratio_900_L_18_R_20.png","img/750/randomdotsizeEA/R/4_Ratio_750_L_15_R_20.png","img/900/equaldotsize/R/11_Ratio_900_L_18_R_20.png","img/900/equaldotanddens/R/15_Ratio_900_L_9_R_10.png","img/250/equaldotanddens/L/3_Ratio_250_L_8_R_2.png","img/500/equaldotanddens/R/2_Ratio_500_L_3_R_6.png","img/900/equaldotanddens/R/12_Ratio_900_L_18_R_20.png","img/250/randomdotsizeEA/L/14_Ratio_250_L_12_R_3.png","img/750/equaldotanddens/R/15_Ratio_750_L_9_R_12.png","img/750/equaldotanddens/R/5_Ratio_750_L_15_R_20.png","img/500/randomdotsizeEA/R/1_Ratio_500_L_9_R_18.png","img/500/randomdotsizeEA/R/1_Ratio_500_L_9_R_18.png","img/500/equaldotsize/L/8_Ratio_500_L_8_R_4.png","img/900/equaldotanddens/R/6_Ratio_900_L_9_R_10.png","img/900/randomdotsizeEA/L/1_Ratio_900_L_10_R_9.png","img/900/equaldotanddens/R/9_Ratio_900_L_18_R_20.png","img/750/randomdotsizeEA/R/7_Ratio_750_L_3_R_4.png","img/500/randomdotsizeEA/R/9_Ratio_500_L_2_R_4.png","img/250/equaldotsize/L/1_Ratio_250_L_8_R_2.png","img/250/equaldotanddens/R/6_Ratio_250_L_6_R_24.png","img/250/equaldotsize/L/2_Ratio_250_L_16_R_4.png","img/900/equaldotanddens/R/5_Ratio_900_L_9_R_10.png","img/250/equaldotsize/R/9_Ratio_250_L_3_R_12.png","img/500/equaldotsize/L/13_Ratio_500_L_12_R_6.png","img/500/equaldotsize/R/9_Ratio_500_L_2_R_4.png","img/750/equaldotsize/L/10_Ratio_750_L_4_R_3.png","img/900/randomdotsizeEA/L/8_Ratio_900_L_20_R_18.png","img/500/equaldotsize/L/10_Ratio_500_L_4_R_2.png","img/750/equaldotanddens/L/10_Ratio_750_L_4_R_3.png","img/250/equaldotsize/R/11_Ratio_250_L_3_R_12.png","img/750/equaldotanddens/R/4_Ratio_750_L_15_R_20.png","img/250/equaldotsize/R/9_Ratio_250_L_3_R_12.png","img/750/randomdotsizeEA/R/15_Ratio_750_L_9_R_12.png","img/750/equaldotanddens/R/4_Ratio_750_L_15_R_20.png","img/900/equaldotsize/L/8_Ratio_900_L_20_R_18.png","img/500/equaldotanddens/R/1_Ratio_500_L_9_R_18.png","img/750/equaldotsize/L/1_Ratio_750_L_20_R_15.png","img/750/equaldotsize/L/1_Ratio_750_L_20_R_15.png","img/500/equaldotanddens/L/5_Ratio_500_L_4_R_2.png","img/900/equaldotsize/R/11_Ratio_900_L_18_R_20.png","img/250/equaldotanddens/R/8_Ratio_250_L_1_R_4.png","img/750/equaldotsize/R/5_Ratio_750_L_15_R_20.png","img/750/equaldotanddens/R/3_Ratio_750_L_15_R_20.png","img/500/equaldotanddens/L/10_Ratio_500_L_4_R_2.png","img/500/randomdotsizeEA/R/6_Ratio_500_L_9_R_18.png","img/500/randomdotsizeEA/R/15_Ratio_500_L_1_R_2.png","img/900/randomdotsizeEA/L/10_Ratio_900_L_20_R_18.png","img/900/equaldotsize/R/11_Ratio_900_L_18_R_20.png","img/750/randomdotsizeEA/L/13_Ratio_750_L_8_R_6.png","img/750/equaldotanddens/L/13_Ratio_750_L_8_R_6.png","img/750/equaldotsize/L/6_Ratio_750_L_24_R_18.png","img/500/equaldotsize/L/8_Ratio_500_L_8_R_4.png","img/250/randomdotsizeEA/L/15_Ratio_250_L_12_R_3.png","img/750/equaldotsize/L/8_Ratio_750_L_4_R_3.png","img/750/randomdotsizeEA/L/10_Ratio_750_L_4_R_3.png","img/900/equaldotanddens/L/1_Ratio_900_L_10_R_9.png","img/250/equaldotsize/L/14_Ratio_250_L_12_R_3.png","img/900/randomdotsizeEA/R/3_Ratio_900_L_9_R_10.png","img/750/randomdotsizeEA/L/13_Ratio_750_L_8_R_6.png","img/500/equaldotsize/R/15_Ratio_500_L_1_R_2.png","img/900/randomdotsizeEA/R/3_Ratio_900_L_9_R_10.png","img/250/equaldotanddens/R/13_Ratio_250_L_2_R_8.png","img/750/randomdotsizeEA/R/12_Ratio_750_L_3_R_4.png","img/900/equaldotanddens/L/8_Ratio_900_L_20_R_18.png","img/750/equaldotsize/R/2_Ratio_750_L_6_R_8.png","img/500/equaldotsize/R/14_Ratio_500_L_5_R_10.png","img/900/randomdotsizeEA/L/1_Ratio_900_L_10_R_9.png","img/500/equaldotanddens/L/11_Ratio_500_L_12_R_6.png","img/750/randomdotsizeEA/R/11_Ratio_750_L_12_R_16.png","img/750/randomdotsizeEA/R/7_Ratio_750_L_3_R_4.png","img/900/equaldotanddens/L/2_Ratio_900_L_20_R_18.png","img/250/randomdotsizeEA/L/5_Ratio_250_L_24_R_6.png","img/750/randomdotsizeEA/L/1_Ratio_750_L_20_R_15.png","img/250/randomdotsizeEA/L/1_Ratio_250_L_8_R_2.png","img/500/randomdotsizeEA/R/6_Ratio_500_L_9_R_18.png","img/750/equaldotanddens/R/11_Ratio_750_L_12_R_16.png","img/500/equaldotanddens/R/12_Ratio_500_L_1_R_2.png","img/900/randomdotsizeEA/L/2_Ratio_900_L_20_R_18.png","img/900/equaldotanddens/R/3_Ratio_900_L_9_R_10.png","img/250/equaldotanddens/L/1_Ratio_250_L_8_R_2.png","img/500/equaldotanddens/R/6_Ratio_500_L_9_R_18.png","img/500/equaldotsize/R/3_Ratio_500_L_10_R_20.png","img/900/randomdotsizeEA/R/12_Ratio_900_L_18_R_20.png","img/500/randomdotsizeEA/R/2_Ratio_500_L_3_R_6.png","img/250/equaldotanddens/L/14_Ratio_250_L_12_R_3.png","img/900/randomdotsizeEA/L/1_Ratio_900_L_10_R_9.png","img/250/randomdotsizeEA/L/5_Ratio_250_L_24_R_6.png","img/750/equaldotanddens/R/5_Ratio_750_L_15_R_20.png","img/250/randomdotsizeEA/L/7_Ratio_250_L_8_R_2.png","img/900/equaldotsize/R/3_Ratio_900_L_9_R_10.png"],"Rat0":[["12_Ratio_0_L_9_R_0.png","13_Ratio_0_L_6_R_0.png","5_Ratio_0_L_2_R_0.png","6_Ratio_0_L_4_R_0.png","8_Ratio_0_L_6_R_0.png"],["1_Ratio_0_L_0_R_17.png","10_Ratio_0_L_0_R_22.png","11_Ratio_0_L_0_R_1.png","14_Ratio_0_L_0_R_24.png","15_Ratio_0_L_0_R_4.png","2_Ratio_0_L_0_R_5.png","3_Ratio_0_L_0_R_17.png","4_Ratio_0_L_0_R_7.png","7_Ratio_0_L_0_R_19.png","9_Ratio_0_L_0_R_15.png"]],"Rat250":[["1_Ratio_250_L_8_R_2.png","14_Ratio_250_L_12_R_3.png","15_Ratio_250_L_12_R_3.png","2_Ratio_250_L_16_R_4.png","3_Ratio_250_L_8_R_2.png","5_Ratio_250_L_24_R_6.png","7_Ratio_250_L_8_R_2.png"],["10_Ratio_250_L_4_R_16.png","11_Ratio_250_L_3_R_12.png","12_Ratio_250_L_5_R_20.png","13_Ratio_250_L_2_R_8.png","4_Ratio_250_L_3_R_12.png","6_Ratio_250_L_6_R_24.png","8_Ratio_250_L_1_R_4.png","9_Ratio_250_L_3_R_12.png"]],"Rat500":[["10_Ratio_500_L_4_R_2.png","11_Ratio_500_L_12_R_6.png","13_Ratio_500_L_12_R_6.png","4_Ratio_500_L_18_R_9.png","5_Ratio_500_L_4_R_2.png","7_Ratio_500_L_10_R_5.png","8_Ratio_500_L_8_R_4.png"],["1_Ratio_500_L_9_R_18.png","12_Ratio_500_L_1_R_2.png","14_Ratio_500_L_5_R_10.png","15_Ratio_500_L_1_R_2.png","2_Ratio_500_L_3_R_6.png","3_Ratio_500_L_10_R_20.png","6_Ratio_500_L_9_R_18.png","9_Ratio_500_L_2_R_4.png"]],"Rat750":[["1_Ratio_750_L_20_R_15.png","10_Ratio_750_L_4_R_3.png","13_Ratio_750_L_8_R_6.png","14_Ratio_750_L_8_R_6.png","6_Ratio_750_L_24_R_18.png","8_Ratio_750_L_4_R_3.png","9_Ratio_750_L_4_R_3.png"],["11_Ratio_750_L_12_R_16.png","12_Ratio_750_L_3_R_4.png","15_Ratio_750_L_9_R_12.png","2_Ratio_750_L_6_R_8.png","3_Ratio_750_L_15_R_20.png","4_Ratio_750_L_15_R_20.png","5_Ratio_750_L_15_R_20.png","7_Ratio_750_L_3_R_4.png"]],"Rat900":[["1_Ratio_900_L_10_R_9.png","10_Ratio_900_L_20_R_18.png","2_Ratio_900_L_20_R_18.png","4_Ratio_900_L_20_R_18.png","8_Ratio_900_L_20_R_18.png"],["11_Ratio_900_L_18_R_20.png","12_Ratio_900_L_18_R_20.png","13_Ratio_900_L_18_R_20.png","14_Ratio_900_L_18_R_20.png","15_Ratio_900_L_9_R_10.png","3_Ratio_900_L_9_R_10.png","5_Ratio_900_L_9_R_10.png","6_Ratio_900_L_9_R_10.png","7_Ratio_900_L_9_R_10.png","9_Ratio_900_L_18_R_20.png"]],"Rat1000":[["10_Ratio_1000_L_16_R_16.png","11_Ratio_1000_L_6_R_6.png","12_Ratio_1000_L_14_R_14.png","13_Ratio_1000_L_20_R_20.png","15_Ratio_1000_L_15_R_15.png","2_Ratio_1000_L_17_R_17.png","4_Ratio_1000_L_9_R_9.png","5_Ratio_1000_L_6_R_6.png","6_Ratio_1000_L_19_R_19.png","8_Ratio_1000_L_14_R_14.png","9_Ratio_1000_L_25_R_25.png"],["1_Ratio_1000_L_1_R_1.png","14_Ratio_1000_L_17_R_17.png","3_Ratio_1000_L_17_R_17.png","7_Ratio_1000_L_6_R_6.png"]]}},{"start_time":1552328359308,"click_time":1552328360245,"finger_time":1552328359604,"fix_duration":662.4463253752582,"trial":1,"RT":296,"MT":641,"sideResp":2,"stimulus":"img/500/equaldotanddens/R/2_Ratio_500_L_3_R_6.png","xmouse":[812,812,812,812,812,812,812,812,812,812,812,812,812,810,790,755,712,662,638,613,602,588,570,557,554,556,563,598,620,620,620,620,620,643,665,703,760,851,941,969,978,979,979,997,1021,1047,1061],"ymouse":[494,494,494,494,494,494,494,494,494,494,494,494,494,493,465,413,351,263,218,167,150,136,124,117,115,115,115,119,121,121,121,121,121,121,121,121,121,113,95,88,85,85,85,85,82,76,71],"timestamp_mouse":[17,45,56,75,96,115,135,156,177,196,215,235,255,277,296,315,336,356,376,395,415,436,455,476,496,515,535,555,575,595,616,637,656,676,697,716,736,756,776,795,815,836,856,875,895,915,936],"xSR":741.5,"ySR":469.95,"xT1":424.9,"yT1":0,"xT2":1058.1,"yT2":0,"toosoon":0,"cond_shown":"equaldotanddens","ratio_trial":500,"smaller_num":"3","larger_num":"6","correct_side":2,"subjID":"isabellagomez13","gender":"1","age":"9","school":"4"},{"start_time":1552328366557,"click_time":1552328367224,"finger_time":1552328366864,"fix_duration":250,"trial":2,"RT":307,"MT":360,"sideResp":2,"stimulus":"img/250/equaldotanddens/R/11_Ratio_250_L_3_R_12.png","xmouse":[808,808,808,808,808,808,808,808,808,808,808,808,808,808,808,812,852,872,897,914,930,958,968,974,977,977,977,990,1009,1051,1084,1129,1136,1138],"ymouse":[479,479,479,479,479,479,479,479,479,479,479,479,479,479,478,469,428,407,382,363,346,314,303,293,289,289,289,276,256,225,193,132,114,95],"timestamp_mouse":[9,37,47,66,88,106,126,147,166,187,206,227,248,267,287,307,326,346,366,386,406,427,447,466,487,507,527,546,567,587,606,626,646,666],"xSR":741.5,"ySR":469.95,"xT1":424.9,"yT1":0,"xT2":1058.1,"yT2":0,"toosoon":0,"cond_shown":"equaldotanddens","ratio_trial":250,"smaller_num":"3","larger_num":"12","correct_side":2,"subjID":"isabellagomez13","gender":"1","age":"9","school":"4"},{"start_time":1552328375157,"click_time":1552328376084,"finger_time":1552328375503,"fix_duration":1090.7883861564173,"trial":3,"RT":346,"MT":581,"sideResp":1,"stimulus":"img/500/equaldotsize/L/10_Ratio_500_L_4_R_2.png","xmouse":[799,799,799,799,799,799,799,799,799,799,799,799,799,799,799,799,804,850,878,906,951,951,951,951,951,951,951,951,951,951,951,951,681,663,630,607,576,566,558,552,546,543,534,530,529,527,515],"ymouse":[513,513,513,513,513,513,513,513,513,513,513,513,513,513,513,513,490,371,258,140,13,13,13,13,13,13,13,13,13,13,13,13,2,16,40,56,77,83,87,88,89,89,89,89,89,89,89],"timestamp_mouse":[11,41,47,66,86,106,128,147,167,188,207,227,246,266,287,307,327,346,366,387,406,426,447,467,488,508,527,548,568,587,608,628,647,667,687,706,727,746,767,786,806,826,846,866,887,907,927],"xSR":741.5,"ySR":469.95,"xT1":424.9,"yT1":0,"xT2":1058.1,"yT2":0,"toosoon":0,"cond_shown":"equaldotsize","ratio_trial":500,"smaller_num":"2","larger_num":"4","correct_side":1,"subjID":"isabellagomez13","gender":"1","age":"9","school":"4"},{"start_time":1552328377965,"click_time":1552328378763,"finger_time":1552328378384,"fix_duration":519.0775221434434,"trial":4,"RT":419,"MT":379,"sideResp":2,"stimulus":"img/750/equaldotsize/L/10_Ratio_750_L_4_R_3.png","xmouse":[767,767,767,767,767,767,767,767,767,767,767,767,767,767,767,767,767,769,769,769,769,762,748,744,738,737,737,737,737,742,768,798,854,919,998,1026,1051,1063,1079,1095],"ymouse":[495,495,495,495,495,495,495,495,495,495,495,495,495,495,495,495,495,494,488,481,449,426,386,376,355,351,351,351,350,349,339,316,282,241,187,160,131,119,108,96],"timestamp_mouse":[18,39,67,79,98,118,139,158,179,199,219,239,259,279,299,319,340,359,378,398,419,440,459,479,499,519,538,560,578,598,620,638,659,679,699,719,738,758,779,798],"xSR":741.5,"ySR":469.95,"xT1":424.9,"yT1":0,"xT2":1058.1,"yT2":0,"toosoon":0,"cond_shown":"equaldotsize","ratio_trial":750,"smaller_num":"3","larger_num":"4","correct_side":1,"subjID":"isabellagomez13","gender":"1","age":"9","school":"4"},{"start_time":1552328382484,"click_time":1552328383524,"finger_time":1552328383204,"fix_duration":676.653361328908,"trial":5,"RT":720,"MT":320,"sideResp":1,"stimulus":"img/250/equaldotsize/R/8_Ratio_250_L_1_R_4.png","xmouse":[773,773,773,773,773,773,773,773,773,773,773,773,773,773,773,773,773,773,773,773,773,773,773,773,773,773,773,773,773,773,773,773,773,773,770,747,711,673,632,584,553,547,542,539,535,535,535,535,535,535,535,535,521],"ymouse":[561,561,561,561,561,561,561,561,561,561,561,561,561,561,561,561,561,561,561,561,561,561,561,561,561,561,561,561,561,561,561,561,561,561,550,501,438,354,260,160,92,72,52,32,4,4,4,4,4,4,4,4,10],"timestamp_mouse":[10,35,40,61,79,99,119,141,160,179,200,220,240,260,280,299,321,339,360,379,399,419,440,459,480,500,519,539,560,579,599,621,640,660,680,699,720,739,760,780,800,821,840,860,879,900,920,939,959,979,1000,1019,1039],"xSR":741.5,"ySR":469.95,"xT1":424.9,"yT1":0,"xT2":1058.1,"yT2":0,"toosoon":0,"cond_shown":"equaldotsize","ratio_trial":250,"smaller_num":"1","larger_num":"4","correct_side":2,"subjID":"isabellagomez13","gender":"1","age":"9","school":"4"},{"start_time":1552328385325,"click_time":1552328386045,"finger_time":1552328385644,"fix_duration":379.78054977863763,"trial":6,"RT":319,"MT":401,"sideResp":2,"stimulus":"img/500/randomdotsizeEA/R/1_Ratio_500_L_9_R_18.png","xmouse":[757,757,757,757,757,757,757,757,757,757,757,757,764,780,799,834,891,941,953,961,968,974,981,1000,1012,1038,1046,1070,1074,1075,1075,1075,1076,1078,1079,1082],"ymouse":[529,529,529,529,529,529,529,529,529,529,529,529,522,505,487,458,404,353,337,324,311,300,283,244,222,181,167,128,120,117,115,113,108,105,101,97],"timestamp_mouse":[19,46,59,78,98,119,139,158,180,199,218,239,258,280,299,319,338,359,380,399,418,439,458,478,498,519,539,559,579,599,619,638,659,678,699,720],"xSR":741.5,"ySR":469.95,"xT1":424.9,"yT1":0,"xT2":1058.1,"yT2":0,"toosoon":0,"cond_shown":"randomdotsizeEA","ratio_trial":500,"smaller_num":"9","larger_num":"18","correct_side":2,"subjID":"isabellagomez13","gender":"1","age":"9","school":"4"},{"start_time":1552328387534,"click_time":1552328388265,"finger_time":1552328387964,"fix_duration":687.3738664848347,"trial":7,"RT":430,"MT":301,"sideResp":2,"stimulus":"img/900/equaldotanddens/R/11_Ratio_900_L_18_R_20.png","xmouse":[766,766,766,766,766,766,766,766,766,766,766,766,766,766,766,766,766,766,771,777,786,801,843,861,872,880,881,884,891,905,921,943,995,1016,1039,1055,1070],"ymouse":[506,506,506,506,506,506,506,506,506,506,506,506,506,506,506,506,506,506,500,487,470,440,361,316,282,254,247,239,231,216,197,169,101,73,46,28,15],"timestamp_mouse":[13,37,50,70,91,110,129,150,171,190,210,229,249,269,289,309,329,349,370,390,410,430,450,469,489,510,529,550,571,589,610,630,650,669,689,710,731],"xSR":741.5,"ySR":469.95,"xT1":424.9,"yT1":0,"xT2":1058.1,"yT2":0,"toosoon":0,"cond_shown":"equaldotanddens","ratio_trial":900,"smaller_num":"18","larger_num":"20","correct_side":2,"subjID":"isabellagomez13","gender":"1","age":"9","school":"4"},{"start_time":1552328390420,"click_time":1552328391025,"finger_time":1552328390684,"fix_duration":935.6302615670397,"trial":8,"RT":264,"MT":341,"sideResp":2,"stimulus":"img/500/equaldotanddens/R/12_Ratio_500_L_1_R_2.png","xmouse":[783,783,783,783,783,783,783,783,783,783,783,785,792,810,824,848,872,904,981,1024,1062,1098,1108,1110,1109,1109,1108,1108,1110,1113,1113],"ymouse":[520,520,520,520,520,520,520,520,520,520,520,514,491,454,428,385,348,305,237,211,194,175,169,167,164,160,153,143,117,107,98],"timestamp_mouse":[11,24,47,63,83,103,124,143,163,184,205,224,243,264,284,304,323,344,364,383,404,424,444,464,483,504,523,544,564,585,605],"xSR":741.5,"ySR":469.95,"xT1":424.9,"yT1":0,"xT2":1058.1,"yT2":0,"toosoon":0,"cond_shown":"equaldotanddens","ratio_trial":500,"smaller_num":"1","larger_num":"2","correct_side":2,"subjID":"isabellagomez13","gender":"1","age":"9","school":"4"},{"start_time":1552328394473,"click_time":1552328395883,"finger_time":1552328395284,"fix_duration":1287.4478479514205,"trial":9,"RT":811,"MT":599,"sideResp":2,"stimulus":"img/900/equaldotsize/R/3_Ratio_900_L_9_R_10.png","xmouse":[807,806,804,804,801,800,798,797,797,797,795,795,793,792,790,788,788,788,788,788,788,788,788,788,788,788,788,788,788,788,788,788,788,788,788,788,789,792,795,806,842,873,911,959,999,1071,1104,1135,1162,1192,1217,1221,1223,1223,1220,1218,1217,1216,1214,1213,1212,1209,1206,1201,1199,1187,1177,1173,1171,1170,1157],"ymouse":[506,508,509,509,512,513,515,516,516,516,518,519,521,523,524,526,526,526,526,526,526,526,526,526,526,526,526,526,526,526,526,526,526,526,526,526,525,519,516,503,464,435,398,358,326,276,253,231,214,192,165,153,144,136,130,129,129,129,129,129,129,128,128,127,127,123,117,112,108,104,87],"timestamp_mouse":[20,30,60,70,91,110,131,151,171,191,210,231,252,271,291,311,331,351,372,392,410,431,450,471,492,511,530,551,571,592,611,631,650,670,691,710,731,752,771,791,811,830,850,871,891,911,930,950,971,990,1011,1030,1050,1071,1090,1111,1130,1150,1170,1190,1210,1232,1251,1271,1290,1310,1330,1350,1370,1392,1410],"xSR":741.5,"ySR":469.95,"xT1":424.9,"yT1":0,"xT2":1058.1,"yT2":0,"toosoon":0,"cond_shown":"equaldotsize","ratio_trial":900,"smaller_num":"9","larger_num":"10","correct_side":2,"subjID":"isabellagomez13","gender":"1","age":"9","school":"4"},{"start_time":1552328397110,"click_time":1552328398243,"finger_time":1552328397544,"fix_duration":483.247515578749,"trial":10,"RT":434,"MT":699,"sideResp":2,"stimulus":"img/900/equaldotsize/L/4_Ratio_900_L_20_R_18.png","xmouse":[785,785,785,785,785,785,785,785,785,785,785,785,785,785,785,785,785,785,792,800,812,827,846,878,890,897,901,908,914,939,957,986,1014,1068,1086,1103,1108,1109,1108,1107,1107,1107,1107,1107,1106,1105,1102,1100,1096,1096,1096,1096,1096,1096,1096,1096,1097],"ymouse":[533,533,533,533,533,533,533,533,533,533,533,533,533,533,533,533,533,533,523,503,475,443,408,361,346,336,331,322,316,295,279,254,229,183,163,140,128,124,116,116,116,116,116,116,116,116,114,114,110,106,104,102,102,102,101,101,98],"timestamp_mouse":[16,42,54,75,93,114,135,154,173,194,214,235,253,273,294,313,334,354,373,394,414,434,453,475,493,513,533,554,574,593,613,634,653,673,693,715,735,753,774,793,814,834,853,874,894,914,934,953,974,995,1014,1033,1053,1073,1093,1114,1133],"xSR":741.5,"ySR":469.95,"xT1":424.9,"yT1":0,"xT2":1058.1,"yT2":0,"toosoon":0,"cond_shown":"equaldotsize","ratio_trial":900,"smaller_num":"18","larger_num":"20","correct_side":1,"subjID":"isabellagomez13","gender":"1","age":"9","school":"4"},{"start_time":1552328419415,"click_time":1552328420384,"finger_time":1552328419444,"fix_duration":709.7149697483267,"trial":11,"RT":29,"MT":940,"sideResp":2,"stimulus":"img/900/randomdotsizeEA/L/1_Ratio_900_L_10_R_9.png","xmouse":[779,778,776,771,769,768,768,768,768,768,768,768,768,768,768,773,782,794,826,841,860,883,914,927,937,938,938,940,958,972,986,999,1015,1020,1020,1020,1020,1020,1020,1021,1022,1023,1027,1033,1039,1048,1062,1088,1155],"ymouse":[489,465,453,417,402,391,386,385,385,385,385,385,385,385,371,354,333,308,246,220,198,188,187,187,187,187,187,187,177,170,161,154,145,141,141,141,141,141,141,141,141,141,141,141,140,136,130,120,89],"timestamp_mouse":[10,29,49,68,90,108,130,148,169,190,209,230,250,269,290,309,329,349,369,388,409,430,449,469,489,509,529,549,568,589,609,629,648,669,688,710,730,750,770,789,809,829,849,869,888,910,930,949,969],"xSR":741.5,"ySR":469.95,"xT1":424.9,"yT1":0,"xT2":1058.1,"yT2":0,"toosoon":0,"cond_shown":"randomdotsizeEA","ratio_trial":900,"smaller_num":"9","larger_num":"10","correct_side":1,"subjID":"isabellagomez13","gender":"1","age":"9","school":"4"},{"start_time":1552328423106,"click_time":1552328423884,"finger_time":1552328423464,"fix_duration":1259.0602576127903,"trial":12,"RT":358,"MT":420,"sideResp":1,"stimulus":"img/250/randomdotsizeEA/L/1_Ratio_250_L_8_R_2.png","xmouse":[795,795,795,795,795,794,794,793,793,793,793,793,793,793,789,778,768,728,622,555,479,413,413,413,413,413,413,413,413,413,413,413,413,413,383,394,403,422,468],"ymouse":[546,546,546,546,546,546,545,545,545,545,545,545,545,545,539,524,513,462,336,236,118,28,28,28,28,28,28,28,28,28,28,28,28,28,10,27,41,63,99],"timestamp_mouse":[18,38,58,78,97,118,137,158,178,198,217,239,258,279,298,318,339,358,379,398,418,439,458,478,498,518,539,558,578,598,618,638,658,678,697,719,739,758,778],"xSR":741.5,"ySR":469.95,"xT1":424.9,"yT1":0,"xT2":1058.1,"yT2":0,"toosoon":0,"cond_shown":"randomdotsizeEA","ratio_trial":250,"smaller_num":"2","larger_num":"8","correct_side":1,"subjID":"isabellagomez13","gender":"1","age":"9","school":"4"},{"start_time":1552328425776,"click_time":1552328426784,"finger_time":1552328426543,"fix_duration":250,"trial":13,"RT":767,"MT":241,"sideResp":2,"stimulus":"img/750/equaldotanddens/R/3_Ratio_750_L_15_R_20.png","xmouse":[815,815,815,815,815,815,815,815,815,815,815,815,815,815,815,815,815,815,815,815,815,815,815,815,815,815,815,815,815,815,815,815,815,815,815,815,814,817,826,839,892,925,958,997,1012,1021,1021,1021,1021,1031,1082],"ymouse":[508,508,508,508,508,508,508,508,508,508,508,508,508,508,508,508,508,508,508,508,508,508,508,508,508,508,508,508,508,508,508,508,508,508,508,508,500,482,459,423,335,293,244,204,189,177,177,177,175,146,25],"timestamp_mouse":[10,38,49,68,88,108,128,148,167,189,209,228,248,268,289,308,328,348,368,388,407,429,448,468,488,507,528,549,568,589,609,629,648,669,688,709,729,749,767,788,808,827,848,868,887,908,928,948,969,988,1008],"xSR":741.5,"ySR":469.95,"xT1":424.9,"yT1":0,"xT2":1058.1,"yT2":0,"toosoon":0,"cond_shown":"equaldotanddens","ratio_trial":750,"smaller_num":"15","larger_num":"20","correct_side":2,"subjID":"isabellagomez13","gender":"1","age":"9","school":"4"},{"start_time":1552328438557,"click_time":1552328439804,"finger_time":1552328438944,"fix_duration":510.07151124414906,"trial":14,"RT":387,"MT":860,"sideResp":2,"stimulus":"img/250/randomdotsizeEA/R/4_Ratio_250_L_3_R_12.png","xmouse":[786,786,786,786,786,786,786,786,786,786,786,786,786,786,786,786,786,789,803,823,846,916,949,973,994,1006,1020,1025,1031,1038,1050,1076,1090,1105,1109,1110,1110,1109,1108,1105,1102,1095,1093,1092,1091,1090,1089,1089,1089,1089,1091,1094,1094,1095,1095,1096,1096,1096,1096,1096,1096,1097,1102],"ymouse":[505,505,505,505,505,505,505,505,505,505,505,505,505,505,505,505,505,500,484,467,444,386,357,337,313,297,281,274,264,251,236,201,180,154,145,141,139,139,139,138,135,127,125,120,117,117,114,113,108,107,103,101,101,100,100,100,100,100,100,100,100,100,98],"timestamp_mouse":[13,37,48,67,86,107,128,148,166,187,207,227,246,267,288,307,327,348,368,387,408,427,448,466,487,508,527,547,566,587,608,628,647,667,687,707,728,747,767,788,808,828,846,868,887,906,927,947,968,987,1007,1027,1047,1067,1086,1108,1128,1148,1167,1188,1207,1240,1247],"xSR":741.5,"ySR":469.95,"xT1":424.9,"yT1":0,"xT2":1058.1,"yT2":0,"toosoon":0,"cond_shown":"randomdotsizeEA","ratio_trial":250,"smaller_num":"3","larger_num":"12","correct_side":2,"subjID":"isabellagomez13","gender":"1","age":"9","school":"4"},{"start_time":1552328442107,"click_time":1552328443325,"finger_time":1552328442504,"fix_duration":1121.8124253385533,"trial":15,"RT":397,"MT":821,"sideResp":1,"stimulus":"img/250/randomdotsizeEA/L/3_Ratio_250_L_8_R_2.png","xmouse":[800,800,800,800,800,800,800,800,800,800,800,800,800,800,800,800,800,817,826,862,881,902,924,951,956,959,959,959,959,959,957,952,943,910,870,834,783,757,739,714,686,657,631,582,572,568,568,565,542,529,514,508,507,507,506,506,506,507,509,509,511],"ymouse":[514,514,514,514,514,514,514,514,514,514,514,514,514,514,514,514,514,506,498,471,454,434,417,388,382,378,378,378,378,378,377,376,376,365,350,333,300,280,264,237,208,180,162,130,124,122,122,121,119,117,115,114,114,114,113,113,113,112,105,102,98],"timestamp_mouse":[17,52,57,78,97,117,136,158,178,198,218,238,257,277,297,317,337,357,377,397,418,437,457,477,497,517,537,558,577,597,617,636,656,678,698,716,737,757,777,798,817,838,857,878,898,916,938,957,977,996,1016,1037,1058,1077,1098,1118,1137,1156,1177,1197,1218],"xSR":741.5,"ySR":469.95,"xT1":424.9,"yT1":0,"xT2":1058.1,"yT2":0,"toosoon":0,"cond_shown":"randomdotsizeEA","ratio_trial":250,"smaller_num":"2","larger_num":"8","correct_side":1,"subjID":"isabellagomez13","gender":"1","age":"9","school":"4"},{"start_time":1552328446303,"click_time":1552328447465,"finger_time":1552328446924,"fix_duration":1157.7272735933939,"trial":16,"RT":621,"MT":541,"sideResp":2,"stimulus":"img/750/equaldotsize/R/7_Ratio_750_L_3_R_4.png","xmouse":[839,839,839,839,839,839,839,839,839,838,838,838,838,838,838,838,837,837,837,837,837,837,837,837,837,837,837,837,837,837,839,843,849,858,884,904,928,946,956,966,969,973,981,987,1010,1028,1052,1057,1066,1070,1070,1071,1073,1078,1088,1091,1094,1098,1101],"ymouse":[540,540,540,540,540,540,540,540,540,540,540,540,540,540,540,540,540,540,540,540,540,540,540,540,540,540,540,540,540,532,520,491,445,395,312,277,248,229,217,205,203,199,192,188,181,177,167,163,155,151,151,149,146,141,127,119,111,102,95],"timestamp_mouse":[17,27,40,62,81,101,122,142,161,181,202,221,242,260,281,301,321,341,362,382,402,420,440,461,481,500,522,542,562,581,602,621,642,662,681,702,720,740,761,781,801,821,841,860,882,902,921,941,961,981,1002,1021,1041,1061,1081,1100,1121,1141,1162],"xSR":741.5,"ySR":469.95,"xT1":424.9,"yT1":0,"xT2":1058.1,"yT2":0,"toosoon":0,"cond_shown":"equaldotsize","ratio_trial":750,"smaller_num":"3","larger_num":"4","correct_side":2,"subjID":"isabellagomez13","gender":"1","age":"9","school":"4"},{"start_time":1552328455831,"click_time":1552328456824,"finger_time":1552328456484,"fix_duration":524.7487641290176,"trial":17,"RT":653,"MT":340,"sideResp":1,"stimulus":"img/250/equaldotsize/L/3_Ratio_250_L_8_R_2.png","xmouse":[825,825,825,825,825,825,825,825,825,825,825,825,825,825,825,825,825,825,825,825,825,825,825,825,825,825,825,825,825,825,825,825,811,791,765,731,702,666,659,650,638,636,612,603,597,593,590,563,535,504],"ymouse":[496,496,496,496,496,496,496,496,496,496,496,496,496,496,496,496,496,496,496,496,496,496,496,496,496,496,496,496,496,496,496,497,467,421,357,291,229,150,128,110,90,88,62,54,49,49,48,48,48,48],"timestamp_mouse":[12,49,53,72,94,113,134,154,173,194,214,233,253,274,294,313,333,353,373,394,414,432,452,474,492,512,534,553,574,594,614,634,653,673,693,714,734,753,772,793,813,833,854,873,893,913,934,952,972,992],"xSR":741.5,"ySR":469.95,"xT1":424.9,"yT1":0,"xT2":1058.1,"yT2":0,"toosoon":0,"cond_shown":"equaldotsize","ratio_trial":250,"smaller_num":"2","larger_num":"8","correct_side":1,"subjID":"isabellagomez13","gender":"1","age":"9","school":"4"},{"start_time":1552328458235,"click_time":1552328459004,"finger_time":1552328458784,"fix_duration":250,"trial":18,"RT":549,"MT":220,"sideResp":2,"stimulus":"img/250/equaldotanddens/R/11_Ratio_250_L_3_R_12.png","xmouse":[768,768,768,768,768,768,768,768,768,768,768,768,768,768,768,768,768,768,768,768,768,768,768,768,768,768,768,776,792,814,855,881,924,948,974,997,1015,1049,1068],"ymouse":[487,487,487,487,487,487,487,487,487,487,487,487,487,487,487,487,487,487,487,487,487,487,487,487,487,487,485,464,444,410,348,312,238,199,166,139,119,85,65],"timestamp_mouse":[12,34,49,70,89,110,128,150,169,190,210,230,249,270,288,309,330,350,369,390,408,429,449,470,489,510,528,549,569,589,609,629,649,669,689,710,730,749,769],"xSR":741.5,"ySR":469.95,"xT1":424.9,"yT1":0,"xT2":1058.1,"yT2":0,"toosoon":0,"cond_shown":"equaldotanddens","ratio_trial":250,"smaller_num":"3","larger_num":"12","correct_side":2,"subjID":"isabellagomez13","gender":"1","age":"9","school":"4"},{"start_time":1552328460381,"click_time":1552328461264,"finger_time":1552328460824,"fix_duration":494.14659544878293,"trial":19,"RT":443,"MT":440,"sideResp":2,"stimulus":"img/250/equaldotanddens/R/6_Ratio_250_L_6_R_24.png","xmouse":[819,819,819,819,819,819,819,819,819,819,819,819,819,819,819,819,819,819,819,819,824,835,856,864,898,928,944,963,994,1036,1130,1156,1171,1183,1187,1198,1199,1199,1199,1198,1198,1197,1185,1178,1149],"ymouse":[527,527,527,527,527,527,527,527,527,527,527,527,527,527,527,527,527,527,527,527,525,505,475,464,425,384,362,337,299,251,147,127,113,95,88,52,43,32,26,24,24,24,28,31,44],"timestamp_mouse":[13,26,48,62,83,102,124,143,164,182,202,224,243,264,282,302,323,343,364,384,403,423,443,463,483,504,523,543,564,583,602,623,643,664,683,703,723,743,763,783,803,824,843,864,883],"xSR":741.5,"ySR":469.95,"xT1":424.9,"yT1":0,"xT2":1058.1,"yT2":0,"toosoon":0,"cond_shown":"equaldotanddens","ratio_trial":250,"smaller_num":"6","larger_num":"24","correct_side":2,"subjID":"isabellagomez13","gender":"1","age":"9","school":"4"},{"start_time":1552328462811,"click_time":1552328463624,"finger_time":1552328463164,"fix_duration":285.80786032475294,"trial":20,"RT":353,"MT":460,"sideResp":1,"stimulus":"img/250/randomdotsizeEA/L/7_Ratio_250_L_8_R_2.png","xmouse":[779,779,779,779,779,779,779,779,779,779,779,779,779,779,779,785,798,823,870,896,921,943,958,970,973,974,974,974,974,974,974,974,940,840,777,713,665,633,588,566,518],"ymouse":[482,482,482,482,482,482,482,482,482,482,482,482,482,482,482,480,471,454,416,390,361,330,302,271,261,254,252,251,250,250,250,250,240,197,164,129,102,88,67,59,43],"timestamp_mouse":[13,37,54,73,94,112,133,153,174,194,212,232,254,274,293,313,333,353,373,394,413,434,453,474,493,513,533,554,573,594,614,634,653,673,693,714,734,754,773,794,813],"xSR":741.5,"ySR":469.95,"xT1":424.9,"yT1":0,"xT2":1058.1,"yT2":0,"toosoon":0,"cond_shown":"randomdotsizeEA","ratio_trial":250,"smaller_num":"2","larger_num":"8","correct_side":1,"subjID":"isabellagomez13","gender":"1","age":"9","school":"4"},{"start_time":1552328464855,"click_time":1552328465725,"finger_time":1552328465203,"fix_duration":268.8319600092015,"trial":21,"RT":348,"MT":522,"sideResp":2,"stimulus":"img/500/equaldotanddens/L/13_Ratio_500_L_12_R_6.png","xmouse":[821,821,821,821,821,821,821,821,821,821,821,821,821,821,821,821,827,849,870,886,903,911,925,931,935,941,949,952,955,958,965,983,995,1004,1014,1025,1049,1061,1074,1083,1097,1103,1105,1106],"ymouse":[542,542,542,542,542,542,542,542,542,542,542,542,542,542,542,539,522,462,411,376,337,315,284,272,264,256,245,241,237,231,222,204,194,186,177,169,151,142,132,123,110,103,101,99],"timestamp_mouse":[10,44,50,69,89,110,130,149,169,189,210,230,250,268,289,309,329,348,368,390,410,429,450,468,490,509,529,549,569,588,609,629,649,669,690,709,730,748,769,790,810,830,850,869],"xSR":741.5,"ySR":469.95,"xT1":424.9,"yT1":0,"xT2":1058.1,"yT2":0,"toosoon":0,"cond_shown":"equaldotanddens","ratio_trial":500,"smaller_num":"6","larger_num":"12","correct_side":1,"subjID":"isabellagomez13","gender":"1","age":"9","school":"4"},{"start_time":1552328469732,"click_time":1552328470464,"finger_time":1552328470343,"fix_duration":946.284187270774,"trial":22,"RT":611,"MT":121,"sideResp":1,"stimulus":"img/250/equaldotanddens/L/3_Ratio_250_L_8_R_2.png","xmouse":[783,783,783,783,783,783,783,783,783,783,783,783,783,783,783,783,783,783,783,783,783,783,783,783,783,783,783,783,781,765,742,715,641,602,567,538,511],"ymouse":[515,515,515,515,515,515,515,515,515,515,515,515,515,515,515,515,515,515,515,515,515,515,515,515,515,515,515,515,507,471,434,386,253,189,137,96,61],"timestamp_mouse":[12,33,52,72,91,113,133,153,172,193,212,233,253,271,292,312,331,353,372,393,412,433,453,471,491,512,533,553,572,593,611,632,653,673,692,713,732],"xSR":741.5,"ySR":469.95,"xT1":424.9,"yT1":0,"xT2":1058.1,"yT2":0,"toosoon":0,"cond_shown":"equaldotanddens","ratio_trial":250,"smaller_num":"2","larger_num":"8","correct_side":1,"subjID":"isabellagomez13","gender":"1","age":"9","school":"4"},{"start_time":1552328472475,"click_time":1552328473244,"finger_time":1552328473065,"fix_duration":1028.7160522267675,"trial":23,"RT":590,"MT":179,"sideResp":2,"stimulus":"img/750/equaldotsize/L/10_Ratio_750_L_4_R_3.png","xmouse":[776,776,776,776,776,776,776,776,776,776,776,776,776,776,776,776,777,778,778,778,778,778,779,779,779,781,784,795,805,832,879,905,938,975,1017,1074,1094,1106,1116],"ymouse":[505,505,505,505,505,505,505,505,505,505,505,505,505,505,505,505,505,505,505,505,505,504,504,504,503,503,501,491,480,453,397,370,332,280,215,143,121,101,84],"timestamp_mouse":[13,41,50,69,90,109,128,150,170,190,208,230,250,270,288,309,329,350,369,388,410,430,450,469,490,509,530,549,570,590,609,629,649,670,689,709,729,750,769],"xSR":741.5,"ySR":469.95,"xT1":424.9,"yT1":0,"xT2":1058.1,"yT2":0,"toosoon":0,"cond_shown":"equaldotsize","ratio_trial":750,"smaller_num":"3","larger_num":"4","correct_side":1,"subjID":"isabellagomez13","gender":"1","age":"9","school":"4"},{"start_time":1552328477909,"click_time":1552328478684,"finger_time":1552328478525,"fix_duration":1481.4006142979006,"trial":24,"RT":616,"MT":159,"sideResp":2,"stimulus":"img/250/equaldotsize/R/10_Ratio_250_L_4_R_16.png","xmouse":[836,836,836,836,836,836,836,836,836,836,836,836,836,836,836,836,836,836,836,836,836,836,836,836,836,836,836,836,836,836,836,837,845,878,897,917,938,971,1086],"ymouse":[523,523,523,523,523,523,523,523,523,523,523,523,523,523,523,523,523,523,523,523,523,523,523,523,523,523,523,523,503,486,461,435,404,324,283,239,198,153,24],"timestamp_mouse":[16,39,56,75,95,116,136,156,175,195,215,236,256,275,296,316,336,356,375,396,415,436,456,475,496,515,535,556,575,596,616,635,655,675,694,715,736,756,775],"xSR":741.5,"ySR":469.95,"xT1":424.9,"yT1":0,"xT2":1058.1,"yT2":0,"toosoon":0,"cond_shown":"equaldotsize","ratio_trial":250,"smaller_num":"4","larger_num":"16","correct_side":2,"subjID":"isabellagomez13","gender":"1","age":"9","school":"4"},{"start_time":1552328482816,"click_time":1552328483664,"finger_time":1552328483183,"fix_duration":250,"trial":25,"RT":367,"MT":481,"sideResp":2,"stimulus":"img/900/equaldotsize/R/15_Ratio_900_L_9_R_10.png","xmouse":[819,819,819,819,819,819,819,819,819,819,819,819,819,819,819,819,821,826,834,837,840,842,849,861,869,877,883,889,902,908,921,927,948,980,997,1011,1028,1044,1069,1080,1091,1099,1117],"ymouse":[521,521,521,521,521,521,521,521,521,521,521,521,521,521,521,520,506,489,462,446,431,417,392,363,350,336,325,317,294,286,270,263,243,217,203,190,176,162,135,124,116,108,91],"timestamp_mouse":[11,38,49,68,89,109,129,148,168,188,207,228,248,269,288,308,328,348,367,389,409,428,448,468,489,508,528,549,569,588,609,628,649,668,687,708,728,749,769,788,808,828,848],"xSR":741.5,"ySR":469.95,"xT1":424.9,"yT1":0,"xT2":1058.1,"yT2":0,"toosoon":0,"cond_shown":"equaldotsize","ratio_trial":900,"smaller_num":"9","larger_num":"10","correct_side":2,"subjID":"isabellagomez13","gender":"1","age":"9","school":"4"},{"start_time":1552328495134,"click_time":1552328496024,"finger_time":1552328495524,"fix_duration":888.6943774407249,"trial":26,"RT":390,"MT":500,"sideResp":2,"stimulus":"img/500/randomdotsizeEA/L/4_Ratio_500_L_18_R_9.png","xmouse":[820,820,820,820,820,820,820,820,820,820,820,820,820,820,820,820,820,824,829,845,876,912,978,992,997,999,999,999,1011,1022,1032,1033,1033,1033,1033,1033,1033,1042,1044,1045,1045,1045,1047,1055,1075],"ymouse":[555,555,555,555,555,555,555,555,555,555,555,555,555,555,555,555,554,530,508,465,388,281,142,114,99,91,90,90,71,59,50,48,48,48,48,48,48,63,65,65,65,65,65,65,64],"timestamp_mouse":[10,30,50,70,90,111,131,150,171,190,210,230,251,270,291,311,331,350,371,390,411,430,451,470,491,510,530,550,571,590,610,630,651,669,691,710,730,749,770,790,810,831,851,870,889],"xSR":741.5,"ySR":469.95,"xT1":424.9,"yT1":0,"xT2":1058.1,"yT2":0,"toosoon":0,"cond_shown":"randomdotsizeEA","ratio_trial":500,"smaller_num":"9","larger_num":"18","correct_side":1,"subjID":"isabellagomez13","gender":"1","age":"9","school":"4"},{"start_time":1552328513164,"click_time":1552328514204,"finger_time":1552328513645,"fix_duration":1057.2174928376396,"trial":27,"RT":481,"MT":559,"sideResp":1,"stimulus":"img/500/randomdotsizeEA/L/10_Ratio_500_L_4_R_2.png","xmouse":[805,805,805,805,805,805,805,805,805,805,805,805,805,805,805,805,805,805,805,805,805,805,805,805,797,778,692,647,605,557,488,384,352,316,307,292,290,290,290,291,298,330,343,355,362,366,366,366,367,375,392,413,453],"ymouse":[529,529,529,529,529,529,529,529,529,529,529,529,529,529,529,529,529,529,529,529,529,529,517,482,432,381,284,250,218,191,152,78,52,21,13,1,0,0,0,0,0,5,6,9,11,12,12,12,12,12,18,25,41],"timestamp_mouse":[9,20,41,60,80,100,120,140,160,180,201,220,241,260,280,300,320,339,360,381,401,419,441,461,481,501,520,541,559,580,600,620,641,660,680,701,720,741,760,781,801,820,841,860,880,901,920,940,960,981,1001,1020,1040],"xSR":741.5,"ySR":469.95,"xT1":424.9,"yT1":0,"xT2":1058.1,"yT2":0,"toosoon":0,"cond_shown":"randomdotsizeEA","ratio_trial":500,"smaller_num":"2","larger_num":"4","correct_side":1,"subjID":"isabellagomez13","gender":"1","age":"9","school":"4"},{"start_time":1552328516064,"click_time":1552328516964,"finger_time":1552328516644,"fix_duration":677.1472887891335,"trial":28,"RT":580,"MT":320,"sideResp":2,"stimulus":"img/900/equaldotsize/L/1_Ratio_900_L_10_R_9.png","xmouse":[804,804,804,804,804,804,804,804,804,804,804,804,804,804,804,804,804,804,804,804,804,804,804,804,804,804,804,809,821,859,888,933,945,952,956,960,970,976,985,999,1008,1027,1040,1052,1063,1077],"ymouse":[514,514,514,514,514,514,514,514,514,514,514,514,514,514,514,514,514,514,514,514,514,514,514,514,514,514,514,503,472,380,320,243,224,215,208,205,195,192,187,179,173,157,146,131,115,97],"timestamp_mouse":[10,35,41,60,80,101,120,141,160,180,200,220,241,261,280,299,321,341,360,380,401,421,441,461,481,500,521,540,561,580,600,620,639,660,681,701,720,740,760,780,801,821,840,860,881,900],"xSR":741.5,"ySR":469.95,"xT1":424.9,"yT1":0,"xT2":1058.1,"yT2":0,"toosoon":0,"cond_shown":"equaldotsize","ratio_trial":900,"smaller_num":"9","larger_num":"10","correct_side":1,"subjID":"isabellagomez13","gender":"1","age":"9","school":"4"},{"start_time":1552328521604,"click_time":1552328522965,"finger_time":1552328522704,"fix_duration":1497.8664309511903,"trial":29,"RT":1100,"MT":261,"sideResp":1,"stimulus":"img/500/equaldotsize/L/7_Ratio_500_L_10_R_5.png","xmouse":[788,788,788,788,788,788,788,788,788,788,788,788,788,788,788,788,788,788,788,788,788,788,788,788,788,788,788,788,788,788,788,788,788,788,788,788,788,788,788,788,788,788,788,788,788,788,788,788,788,788,788,787,784,778,755,736,697,640,570,462,436,425,421,421,421,421,421,423,431],"ymouse":[536,536,536,536,536,536,536,536,536,536,536,536,536,536,536,536,536,536,536,536,536,536,536,536,536,536,536,536,536,536,536,536,536,536,536,536,536,536,536,536,536,536,536,536,536,536,536,536,536,536,536,536,536,531,491,458,396,331,255,147,123,111,104,103,103,103,99,86,68],"timestamp_mouse":[10,20,40,60,79,101,120,141,161,180,201,220,241,261,280,300,321,340,361,381,400,419,441,460,480,500,521,541,560,580,600,621,641,660,680,701,721,741,761,780,800,821,841,860,880,901,921,941,960,980,1000,1020,1041,1061,1080,1100,1120,1140,1160,1180,1200,1220,1240,1261,1280,1299,1320,1340,1361],"xSR":741.5,"ySR":469.95,"xT1":424.9,"yT1":0,"xT2":1058.1,"yT2":0,"toosoon":0,"cond_shown":"equaldotsize","ratio_trial":500,"smaller_num":"5","larger_num":"10","correct_side":1,"subjID":"isabellagomez13","gender":"1","age":"9","school":"4"},{"start_time":1552328525101,"click_time":1552328526065,"finger_time":1552328525705,"fix_duration":1215.0071640768415,"trial":30,"RT":604,"MT":360,"sideResp":2,"stimulus":"img/900/equaldotsize/R/9_Ratio_900_L_18_R_20.png","xmouse":[763,763,763,763,763,763,763,763,763,763,763,763,763,763,763,763,763,763,763,763,763,761,758,757,755,755,755,755,755,755,755,758,765,778,822,850,881,927,948,970,975,976,977,979,995,1012,1035,1062,1079],"ymouse":[488,488,488,488,488,488,488,488,488,488,488,488,488,488,488,488,488,488,488,488,488,485,477,475,470,470,470,470,470,470,465,447,433,409,347,314,277,222,192,162,157,157,157,157,151,144,134,116,96],"timestamp_mouse":[10,23,44,62,83,103,123,143,163,183,204,223,244,264,283,303,322,344,364,383,403,423,443,464,483,504,523,544,564,583,604,624,644,663,684,703,723,743,764,783,804,824,843,863,883,903,924,944,964],"xSR":741.5,"ySR":469.95,"xT1":424.9,"yT1":0,"xT2":1058.1,"yT2":0,"toosoon":0,"cond_shown":"equaldotsize","ratio_trial":900,"smaller_num":"18","larger_num":"20","correct_side":2,"subjID":"isabellagomez13","gender":"1","age":"9","school":"4"},{"start_time":1552328527577,"click_time":1552328528365,"finger_time":1552328527925,"fix_duration":250,"trial":31,"RT":348,"MT":440,"sideResp":2,"stimulus":"img/750/randomdotsizeEA/R/4_Ratio_750_L_15_R_20.png","xmouse":[763,763,763,763,763,763,763,763,763,763,763,763,763,763,763,769,797,830,857,882,916,932,955,962,981,999,1003,1006,1008,1010,1016,1028,1036,1037,1039,1041,1044,1049,1055,1064],"ymouse":[524,524,524,524,524,524,524,524,524,524,524,524,524,524,524,521,470,410,369,335,283,260,222,211,178,149,138,133,129,123,115,97,85,83,81,81,81,81,81,80],"timestamp_mouse":[14,41,48,67,87,107,128,148,168,188,206,227,247,267,287,308,328,348,367,388,408,427,447,467,487,507,528,547,567,588,607,627,647,668,687,707,726,748,768,788],"xSR":741.5,"ySR":469.95,"xT1":424.9,"yT1":0,"xT2":1058.1,"yT2":0,"toosoon":0,"cond_shown":"randomdotsizeEA","ratio_trial":750,"smaller_num":"15","larger_num":"20","correct_side":2,"subjID":"isabellagomez13","gender":"1","age":"9","school":"4"},{"start_time":1552328530288,"click_time":1552328530945,"finger_time":1552328530865,"fix_duration":1003.0770436094057,"trial":32,"RT":577,"MT":80,"sideResp":2,"stimulus":"img/900/equaldotsize/R/11_Ratio_900_L_18_R_20.png","xmouse":[776,776,776,776,776,776,776,776,776,776,776,776,776,776,776,776,776,776,776,776,776,776,776,776,776,776,776,788,816,919,991,1074,1138],"ymouse":[504,504,504,504,504,504,504,504,504,504,504,504,504,504,504,504,504,504,504,504,504,504,504,504,504,504,504,487,420,268,192,127,72],"timestamp_mouse":[16,42,56,77,97,115,136,157,177,196,216,236,256,276,296,317,336,357,377,397,416,436,457,476,497,516,537,557,577,595,616,636,656],"xSR":741.5,"ySR":469.95,"xT1":424.9,"yT1":0,"xT2":1058.1,"yT2":0,"toosoon":0,"cond_shown":"equaldotsize","ratio_trial":900,"smaller_num":"18","larger_num":"20","correct_side":2,"subjID":"isabellagomez13","gender":"1","age":"9","school":"4"},{"start_time":1552328532971,"click_time":1552328533965,"finger_time":1552328533404,"fix_duration":705.1230442163801,"trial":33,"RT":433,"MT":561,"sideResp":2,"stimulus":"img/900/equaldotanddens/R/15_Ratio_900_L_9_R_10.png","xmouse":[769,769,769,769,769,769,769,769,769,769,769,769,769,769,769,769,769,769,769,769,769,769,772,779,790,822,841,859,876,890,902,902,900,888,841,778,754,738,729,729,740,767,803,856,924,997,1024,1042,1058,1068],"ymouse":[483,483,483,483,483,483,483,483,483,483,483,483,483,483,483,483,483,483,483,483,483,467,448,417,383,293,265,243,223,202,177,171,162,151,127,107,103,101,101,101,101,105,110,114,114,112,105,98,92,88],"timestamp_mouse":[14,40,53,74,93,112,133,153,174,194,212,234,253,272,294,314,334,353,373,394,414,433,454,473,494,513,533,553,573,594,613,633,653,673,694,713,734,753,773,793,813,833,854,873,893,914,933,953,974,994],"xSR":741.5,"ySR":469.95,"xT1":424.9,"yT1":0,"xT2":1058.1,"yT2":0,"toosoon":0,"cond_shown":"equaldotanddens","ratio_trial":900,"smaller_num":"9","larger_num":"10","correct_side":2,"subjID":"isabellagomez13","gender":"1","age":"9","school":"4"},{"start_time":1552328535276,"click_time":1552328536225,"finger_time":1552328535844,"fix_duration":290.67150712289094,"trial":34,"RT":568,"MT":381,"sideResp":1,"stimulus":"img/250/equaldotanddens/L/3_Ratio_250_L_8_R_2.png","xmouse":[751,751,751,751,751,751,751,751,751,751,751,751,751,751,751,754,757,761,763,764,770,774,781,789,796,810,811,811,801,788,754,736,708,675,650,605,578,560,554,551,551,551,551,549,548,536,527,522],"ymouse":[559,559,559,559,559,559,559,559,559,559,559,559,559,559,559,559,559,559,557,555,549,544,537,529,520,491,486,478,469,460,430,410,371,310,263,172,131,106,95,91,91,91,90,90,89,88,85,83],"timestamp_mouse":[12,35,48,68,87,109,129,148,169,187,209,229,249,269,289,308,329,349,368,389,408,429,448,468,489,508,528,549,568,589,608,628,648,669,688,709,728,749,769,787,808,828,848,869,888,909,929,949],"xSR":741.5,"ySR":469.95,"xT1":424.9,"yT1":0,"xT2":1058.1,"yT2":0,"toosoon":0,"cond_shown":"equaldotanddens","ratio_trial":250,"smaller_num":"2","larger_num":"8","correct_side":1,"subjID":"isabellagomez13","gender":"1","age":"9","school":"4"},{"start_time":1552328538658,"click_time":1552328539424,"finger_time":1552328539265,"fix_duration":1373.5046337686308,"trial":35,"RT":607,"MT":159,"sideResp":2,"stimulus":"img/500/equaldotanddens/R/2_Ratio_500_L_3_R_6.png","xmouse":[791,791,791,791,791,791,791,791,791,791,791,791,791,791,791,791,791,791,791,791,791,791,791,791,791,791,791,791,815,827,886,976,1011,1043,1069,1091,1116,1123,1124],"ymouse":[529,529,529,529,529,529,529,529,529,529,529,529,529,529,529,529,529,529,529,529,529,529,529,529,529,529,529,520,488,473,400,290,252,218,187,162,122,103,96],"timestamp_mouse":[19,28,47,67,86,106,126,146,166,186,206,227,247,267,287,306,326,347,367,387,407,426,446,466,486,507,526,546,566,587,607,626,646,666,687,706,727,747,766],"xSR":741.5,"ySR":469.95,"xT1":424.9,"yT1":0,"xT2":1058.1,"yT2":0,"toosoon":0,"cond_shown":"equaldotanddens","ratio_trial":500,"smaller_num":"3","larger_num":"6","correct_side":2,"subjID":"isabellagomez13","gender":"1","age":"9","school":"4"},{"start_time":1552328541454,"click_time":1552328542266,"finger_time":1552328541944,"fix_duration":628.5182279870312,"trial":36,"RT":490,"MT":322,"sideResp":2,"stimulus":"img/900/equaldotanddens/R/12_Ratio_900_L_18_R_20.png","xmouse":[762,762,762,762,762,762,762,762,762,762,762,762,762,762,762,762,762,762,762,762,762,762,762,782,797,848,970,1017,1047,1065,1074,1079,1084,1088,1095,1102,1117,1120,1121,1121,1117],"ymouse":[495,495,495,495,495,495,495,495,495,495,495,495,495,495,495,495,495,495,495,495,495,495,495,474,460,416,323,287,260,230,214,203,191,182,170,160,134,123,114,105,88],"timestamp_mouse":[10,36,50,70,91,111,130,150,171,191,211,231,251,270,291,310,330,352,371,392,411,430,451,470,490,511,531,550,570,590,610,631,651,670,691,710,730,750,770,791,811],"xSR":741.5,"ySR":469.95,"xT1":424.9,"yT1":0,"xT2":1058.1,"yT2":0,"toosoon":0,"cond_shown":"equaldotanddens","ratio_trial":900,"smaller_num":"18","larger_num":"20","correct_side":2,"subjID":"isabellagomez13","gender":"1","age":"9","school":"4"},{"start_time":1552328550328,"click_time":1552328551304,"finger_time":1552328550924,"fix_duration":1142.9328640803365,"trial":37,"RT":596,"MT":380,"sideResp":1,"stimulus":"img/250/randomdotsizeEA/L/14_Ratio_250_L_12_R_3.png","xmouse":[807,807,807,807,807,807,807,807,807,807,807,807,807,807,807,807,807,807,807,807,807,807,807,807,807,807,807,807,804,770,729,678,605,589,582,579,579,578,572,564,562,562,562,562,562,558,554,534,519],"ymouse":[514,514,514,514,514,514,514,514,514,514,514,514,514,514,514,514,514,514,514,514,514,514,514,514,514,514,514,514,512,460,392,331,232,203,183,124,108,54,39,27,25,25,25,25,25,25,24,27,32],"timestamp_mouse":[17,41,56,77,96,117,137,157,176,197,217,238,257,277,297,316,336,357,377,397,416,436,457,476,497,517,537,556,577,596,617,637,657,677,696,716,736,757,776,796,816,838,857,876,896,916,937,956,976],"xSR":741.5,"ySR":469.95,"xT1":424.9,"yT1":0,"xT2":1058.1,"yT2":0,"toosoon":0,"cond_shown":"randomdotsizeEA","ratio_trial":250,"smaller_num":"3","larger_num":"12","correct_side":1,"subjID":"isabellagomez13","gender":"1","age":"9","school":"4"},{"start_time":1552328554098,"click_time":1552328556044,"finger_time":1552328555745,"fix_duration":250,"trial":38,"RT":1647,"MT":299,"sideResp":2,"stimulus":"img/750/equaldotanddens/R/15_Ratio_750_L_9_R_12.png","xmouse":[783,783,783,783,783,783,783,783,783,783,783,783,783,783,783,783,783,783,783,783,783,783,783,783,783,783,783,783,783,783,783,783,783,783,783,783,783,783,783,783,783,783,783,783,783,783,783,783,783,783,783,783,783,783,783,783,783,783,783,783,783,783,783,783,783,783,783,783,783,783,783,783,783,783,783,783,783,783,783,783,783,787,797,816,858,881,902,920,941,958,965,969,976,983,1003,1031,1040,1062],"ymouse":[521,521,521,521,521,521,521,521,521,521,521,521,521,521,521,521,521,521,521,521,521,521,521,521,521,521,521,521,521,521,521,521,521,521,521,521,521,521,521,521,521,521,521,521,521,521,521,521,521,521,521,521,521,521,521,521,521,521,521,521,521,521,521,521,521,521,521,521,521,521,521,521,521,521,521,521,521,521,521,521,517,492,456,391,282,240,203,167,129,100,89,85,78,76,70,65,63,60],"timestamp_mouse":[14,37,47,67,86,107,127,146,166,186,208,227,247,266,287,306,327,347,367,386,407,427,446,467,486,506,527,546,567,586,607,626,647,666,687,706,727,746,767,787,807,827,847,868,887,906,927,947,966,987,1006,1027,1047,1067,1087,1107,1127,1147,1166,1186,1207,1227,1247,1268,1287,1306,1326,1347,1367,1387,1406,1426,1447,1466,1486,1506,1527,1548,1567,1586,1607,1627,1647,1667,1687,1706,1727,1746,1766,1786,1806,1827,1846,1866,1886,1906,1927,1946],"xSR":741.5,"ySR":469.95,"xT1":424.9,"yT1":0,"xT2":1058.1,"yT2":0,"toosoon":0,"cond_shown":"equaldotanddens","ratio_trial":750,"smaller_num":"9","larger_num":"12","correct_side":2,"subjID":"isabellagomez13","gender":"1","age":"9","school":"4"},{"start_time":1552328559493,"click_time":1552328560145,"finger_time":1552328559965,"fix_duration":1107.8717622984652,"trial":39,"RT":472,"MT":180,"sideResp":2,"stimulus":"img/750/equaldotanddens/R/5_Ratio_750_L_15_R_20.png","xmouse":[793,793,793,793,793,793,793,793,793,793,793,793,793,793,793,793,793,793,793,793,793,793,796,810,871,899,917,926,927,927,956,1042,1154],"ymouse":[520,520,520,520,520,520,520,520,520,520,520,520,520,520,520,520,520,520,520,520,520,512,489,445,304,240,206,178,170,167,144,106,71],"timestamp_mouse":[13,40,51,72,91,111,131,153,171,191,211,233,252,272,291,311,331,351,371,391,411,431,452,472,491,511,532,551,572,591,612,632,652],"xSR":741.5,"ySR":469.95,"xT1":424.9,"yT1":0,"xT2":1058.1,"yT2":0,"toosoon":0,"cond_shown":"equaldotanddens","ratio_trial":750,"smaller_num":"15","larger_num":"20","correct_side":2,"subjID":"isabellagomez13","gender":"1","age":"9","school":"4"},{"start_time":1552328564156,"click_time":1552328565264,"finger_time":1552328564724,"fix_duration":250,"trial":40,"RT":568,"MT":540,"sideResp":2,"stimulus":"img/500/randomdotsizeEA/R/1_Ratio_500_L_9_R_18.png","xmouse":[837,837,837,837,837,837,837,837,837,837,837,837,837,837,837,837,837,837,837,837,837,837,837,837,837,837,837,837,843,857,876,898,944,968,985,995,1019,1029,1039,1045,1051,1053,1053,1053,1051,1051,1051,1052,1055,1057,1058,1063,1069,1075,1086,1101],"ymouse":[495,495,495,495,495,495,495,495,495,495,495,495,495,495,495,495,495,495,495,495,495,495,495,495,495,495,495,495,494,484,471,453,418,393,370,352,322,306,282,268,259,246,240,229,207,197,186,181,177,173,171,159,146,131,111,89],"timestamp_mouse":[26,44,49,68,88,108,128,148,168,188,208,228,248,268,288,309,329,348,368,388,408,428,449,469,488,508,528,549,568,588,608,629,649,669,688,708,728,748,768,788,809,829,849,869,889,909,928,948,968,988,1009,1029,1049,1069,1088,1108],"xSR":741.5,"ySR":469.95,"xT1":424.9,"yT1":0,"xT2":1058.1,"yT2":0,"toosoon":0,"cond_shown":"randomdotsizeEA","ratio_trial":500,"smaller_num":"9","larger_num":"18","correct_side":2,"subjID":"isabellagomez13","gender":"1","age":"9","school":"4"},{"start_time":1552328577963,"click_time":1552328578704,"finger_time":1552328578325,"fix_duration":477.89957391416135,"trial":41,"RT":362,"MT":379,"sideResp":2,"stimulus":"img/500/randomdotsizeEA/R/1_Ratio_500_L_9_R_18.png","xmouse":[766,766,766,766,766,766,766,766,766,766,766,766,766,766,766,766,777,799,826,852,871,892,896,898,899,899,899,899,899,903,913,929,964,988,1022,1045,1064,1096],"ymouse":[546,546,546,546,546,546,546,546,546,546,546,546,546,546,546,546,513,473,426,380,342,292,274,262,259,259,259,259,258,251,240,226,196,176,144,121,101,72],"timestamp_mouse":[9,21,41,62,82,101,121,142,162,181,202,222,241,261,282,302,321,342,362,383,401,422,441,462,482,502,521,541,561,582,601,621,641,663,681,701,721,741],"xSR":741.5,"ySR":469.95,"xT1":424.9,"yT1":0,"xT2":1058.1,"yT2":0,"toosoon":0,"cond_shown":"randomdotsizeEA","ratio_trial":500,"smaller_num":"9","larger_num":"18","correct_side":2,"subjID":"isabellagomez13","gender":"1","age":"9","school":"4"},{"start_time":1552328581127,"click_time":1552328582064,"finger_time":1552328581625,"fix_duration":1479.313519789548,"trial":42,"RT":498,"MT":439,"sideResp":1,"stimulus":"img/500/equaldotsize/L/8_Ratio_500_L_8_R_4.png","xmouse":[804,804,804,804,804,804,804,804,804,804,804,804,804,804,804,804,804,804,804,804,804,804,804,786,746,701,657,566,526,495,476,465,455,452,450,444,441,444,450,455,458,462,465,467,467,467,467],"ymouse":[521,521,521,521,521,521,521,521,521,521,521,521,521,521,521,521,521,521,521,521,521,521,519,487,443,406,376,319,294,271,256,244,236,234,232,222,215,198,188,177,168,159,147,126,111,103,99],"timestamp_mouse":[27,39,57,78,98,117,137,157,178,197,217,237,257,277,297,317,338,357,378,398,417,438,458,478,498,517,538,557,578,597,618,637,657,677,697,718,738,757,777,797,818,839,857,877,898,918,937],"xSR":741.5,"ySR":469.95,"xT1":424.9,"yT1":0,"xT2":1058.1,"yT2":0,"toosoon":0,"cond_shown":"equaldotsize","ratio_trial":500,"smaller_num":"4","larger_num":"8","correct_side":1,"subjID":"isabellagomez13","gender":"1","age":"9","school":"4"},{"start_time":1552328583972,"click_time":1552328584584,"finger_time":1552328584325,"fix_duration":886.7553285998466,"trial":43,"RT":353,"MT":259,"sideResp":2,"stimulus":"img/900/equaldotanddens/R/6_Ratio_900_L_9_R_10.png","xmouse":[819,819,819,819,819,819,819,819,819,819,819,819,819,819,819,819,828,853,887,920,963,972,977,980,981,981,982,988,1004,1037,1116],"ymouse":[516,516,516,516,516,516,516,516,516,516,516,516,516,516,516,516,474,427,373,328,284,275,270,266,263,257,248,230,202,160,53],"timestamp_mouse":[12,38,53,72,92,113,133,152,172,192,213,233,252,273,293,312,333,353,373,392,413,432,452,472,492,513,532,552,573,592,612],"xSR":741.5,"ySR":469.95,"xT1":424.9,"yT1":0,"xT2":1058.1,"yT2":0,"toosoon":0,"cond_shown":"equaldotanddens","ratio_trial":900,"smaller_num":"9","larger_num":"10","correct_side":2,"subjID":"isabellagomez13","gender":"1","age":"9","school":"4"},{"start_time":1552328588430,"click_time":1552328589426,"finger_time":1552328588765,"fix_duration":924.9510660647871,"trial":44,"RT":335,"MT":661,"sideResp":1,"stimulus":"img/900/randomdotsizeEA/L/1_Ratio_900_L_10_R_9.png","xmouse":[790,790,790,790,790,790,790,790,790,790,790,790,790,790,790,790,793,808,838,862,873,893,899,902,904,907,914,924,941,941,941,936,837,710,545,372,222,78,72,72,72,72,83,98,123,164,221,343,407,454],"ymouse":[472,472,472,472,472,472,472,472,472,472,472,472,472,472,472,472,465,447,407,382,370,349,341,335,327,313,293,276,252,244,240,236,217,200,174,146,112,73,71,71,71,71,71,71,71,71,71,71,73,82],"timestamp_mouse":[19,42,54,75,94,114,135,154,174,195,214,235,254,274,295,315,335,354,374,395,415,435,454,475,495,514,534,554,574,595,614,635,654,674,694,714,735,754,774,794,814,834,854,874,894,915,934,955,975,996],"xSR":741.5,"ySR":469.95,"xT1":424.9,"yT1":0,"xT2":1058.1,"yT2":0,"toosoon":0,"cond_shown":"randomdotsizeEA","ratio_trial":900,"smaller_num":"9","larger_num":"10","correct_side":1,"subjID":"isabellagomez13","gender":"1","age":"9","school":"4"},{"start_time":1552328590696,"click_time":1552328591885,"finger_time":1552328591464,"fix_duration":250,"trial":45,"RT":768,"MT":421,"sideResp":2,"stimulus":"img/900/equaldotanddens/R/9_Ratio_900_L_18_R_20.png","xmouse":[789,789,789,789,789,789,789,789,789,789,789,789,789,789,789,789,789,789,789,789,789,789,789,789,789,789,789,789,789,789,789,789,789,789,789,789,791,809,845,969,1027,1075,1105,1119,1118,1113,1111,1110,1110,1105,1105,1105,1104,1104,1104,1104,1109,1110,1115,1119],"ymouse":[488,488,488,488,488,488,488,488,488,488,488,488,488,488,488,488,488,488,488,488,488,488,488,488,488,488,488,488,488,488,488,488,488,488,488,488,488,473,452,387,359,328,306,293,279,274,271,262,248,217,209,202,199,196,189,181,156,146,107,76],"timestamp_mouse":[9,42,48,68,88,108,129,148,168,188,208,229,250,268,288,309,329,350,369,388,408,428,448,469,488,508,529,548,568,588,608,628,648,669,688,708,728,749,768,789,808,828,849,868,888,909,928,949,968,988,1009,1028,1048,1069,1089,1109,1129,1148,1168,1188],"xSR":741.5,"ySR":469.95,"xT1":424.9,"yT1":0,"xT2":1058.1,"yT2":0,"toosoon":0,"cond_shown":"equaldotanddens","ratio_trial":900,"smaller_num":"18","larger_num":"20","correct_side":2,"subjID":"isabellagomez13","gender":"1","age":"9","school":"4"},{"start_time":1552328594528,"click_time":1552328595505,"finger_time":1552328594924,"fix_duration":281.0917990132913,"trial":46,"RT":396,"MT":581,"sideResp":2,"stimulus":"img/750/randomdotsizeEA/R/7_Ratio_750_L_3_R_4.png","xmouse":[840,840,840,840,840,840,840,840,840,839,839,837,837,837,837,835,832,809,786,757,735,716,673,640,613,604,604,625,648,674,703,736,785,804,817,825,829,839,852,871,897,921,948,950,952,969,992,1043,1063],"ymouse":[520,520,520,536,547,547,547,547,547,547,547,547,547,547,547,547,546,519,486,451,429,410,378,355,334,325,321,312,305,297,285,271,239,223,205,188,179,171,168,161,155,147,135,132,129,117,111,94,80],"timestamp_mouse":[23,40,56,76,96,116,137,156,177,197,217,236,256,277,297,317,336,356,377,396,417,436,456,476,498,517,536,556,576,596,616,636,656,678,696,716,737,757,777,797,817,836,856,876,896,917,937,956,977],"xSR":741.5,"ySR":469.95,"xT1":424.9,"yT1":0,"xT2":1058.1,"yT2":0,"toosoon":0,"cond_shown":"randomdotsizeEA","ratio_trial":750,"smaller_num":"3","larger_num":"4","correct_side":2,"subjID":"isabellagomez13","gender":"1","age":"9","school":"4"},{"start_time":1552328599251,"click_time":1552328600025,"finger_time":1552328599744,"fix_duration":1024.2104914917238,"trial":47,"RT":493,"MT":281,"sideResp":2,"stimulus":"img/500/randomdotsizeEA/R/9_Ratio_500_L_2_R_4.png","xmouse":[800,800,800,800,800,800,800,800,800,800,800,800,800,800,800,800,800,800,800,800,801,811,817,826,838,846,867,873,876,875,873,873,884,904,932,965,992,1054,1096],"ymouse":[519,519,519,519,519,519,519,519,519,519,519,519,519,519,519,519,519,519,519,517,511,495,486,477,463,450,407,385,367,343,332,307,286,256,224,189,159,115,92],"timestamp_mouse":[14,35,54,73,93,113,133,153,173,193,213,233,255,273,293,314,334,353,373,393,414,433,453,474,493,513,533,554,574,594,613,633,653,673,694,714,733,754,774],"xSR":741.5,"ySR":469.95,"xT1":424.9,"yT1":0,"xT2":1058.1,"yT2":0,"toosoon":0,"cond_shown":"randomdotsizeEA","ratio_trial":500,"smaller_num":"2","larger_num":"4","correct_side":2,"subjID":"isabellagomez13","gender":"1","age":"9","school":"4"},{"start_time":1552328601418,"click_time":1552328602345,"finger_time":1552328601884,"fix_duration":250,"trial":48,"RT":466,"MT":461,"sideResp":1,"stimulus":"img/250/equaldotsize/L/1_Ratio_250_L_8_R_2.png","xmouse":[809,809,809,809,809,809,809,809,809,809,809,809,809,809,809,809,809,809,809,809,809,809,809,809,802,788,769,731,609,562,528,504,494,485,481,475,472,472,473,475,478,480,481,481,481,481,480],"ymouse":[522,522,522,522,522,522,522,522,522,522,522,522,522,522,522,522,522,522,520,511,498,485,472,437,414,389,365,332,262,245,236,228,223,205,190,168,153,141,128,124,121,118,115,111,106,101,95],"timestamp_mouse":[6,26,51,66,87,106,126,147,167,187,207,228,248,266,288,307,327,347,367,387,407,427,447,466,486,506,526,546,566,586,607,627,646,666,687,706,727,747,766,786,808,827,846,866,887,906,927],"xSR":741.5,"ySR":469.95,"xT1":424.9,"yT1":0,"xT2":1058.1,"yT2":0,"toosoon":0,"cond_shown":"equaldotsize","ratio_trial":250,"smaller_num":"2","larger_num":"8","correct_side":1,"subjID":"isabellagomez13","gender":"1","age":"9","school":"4"},{"start_time":1552328604361,"click_time":1552328605184,"finger_time":1552328604925,"fix_duration":954.1109467431348,"trial":49,"RT":564,"MT":259,"sideResp":2,"stimulus":"img/250/equaldotanddens/R/6_Ratio_250_L_6_R_24.png","xmouse":[761,761,761,761,761,761,761,761,761,761,761,761,761,761,761,761,761,761,761,761,761,761,761,761,761,761,767,779,797,841,894,1012,1057,1084,1100,1102,1102,1102,1103,1110,1118,1121],"ymouse":[499,499,499,499,499,499,499,499,499,499,499,499,499,499,499,499,499,499,499,499,499,499,499,499,499,499,494,473,445,389,332,219,184,163,147,143,142,142,142,135,121,90],"timestamp_mouse":[12,36,43,63,83,103,124,144,163,185,205,225,244,264,283,303,323,343,364,384,404,424,444,465,484,503,523,544,564,584,604,623,645,663,684,704,723,745,764,784,803,823],"xSR":741.5,"ySR":469.95,"xT1":424.9,"yT1":0,"xT2":1058.1,"yT2":0,"toosoon":0,"cond_shown":"equaldotanddens","ratio_trial":250,"smaller_num":"6","larger_num":"24","correct_side":2,"subjID":"isabellagomez13","gender":"1","age":"9","school":"4"},{"start_time":1552328606996,"click_time":1552328607704,"finger_time":1552328607325,"fix_duration":930.7601603628185,"trial":50,"RT":329,"MT":379,"sideResp":1,"stimulus":"img/250/equaldotsize/L/2_Ratio_250_L_16_R_4.png","xmouse":[759,759,759,759,759,759,759,759,759,759,759,759,759,759,758,754,746,733,721,692,679,669,655,639,625,620,613,606,594,548,530,515,505,498,489,484],"ymouse":[474,474,474,474,474,474,474,474,474,474,474,474,474,474,473,472,463,451,437,403,385,369,351,329,299,280,257,236,212,157,138,125,118,111,103,98],"timestamp_mouse":[14,39,49,69,89,109,130,148,168,188,208,229,250,269,288,309,329,349,369,388,409,428,448,469,489,509,528,548,569,588,609,629,649,668,688,708],"xSR":741.5,"ySR":469.95,"xT1":424.9,"yT1":0,"xT2":1058.1,"yT2":0,"toosoon":0,"cond_shown":"equaldotsize","ratio_trial":250,"smaller_num":"4","larger_num":"16","correct_side":1,"subjID":"isabellagomez13","gender":"1","age":"9","school":"4"},{"start_time":1552328610193,"click_time":1552328610984,"finger_time":1552328610644,"fix_duration":907.492813834882,"trial":51,"RT":451,"MT":340,"sideResp":2,"stimulus":"img/900/equaldotanddens/R/5_Ratio_900_L_9_R_10.png","xmouse":[809,809,809,809,809,809,809,809,809,809,809,809,809,809,809,809,809,809,809,809,809,813,820,828,857,878,897,914,940,1002,1032,1089,1103,1140,1161,1163,1164,1164,1164,1151],"ymouse":[502,502,502,502,502,502,502,502,502,502,502,502,502,502,502,502,502,502,502,499,490,479,467,453,412,388,365,342,312,242,217,178,169,146,125,112,95,75,57,24],"timestamp_mouse":[15,43,51,72,91,111,133,152,172,192,212,231,252,272,292,311,332,352,372,392,412,432,451,471,491,512,532,551,573,591,613,632,651,672,691,711,731,752,772,791],"xSR":741.5,"ySR":469.95,"xT1":424.9,"yT1":0,"xT2":1058.1,"yT2":0,"toosoon":0,"cond_shown":"equaldotanddens","ratio_trial":900,"smaller_num":"9","larger_num":"10","correct_side":2,"subjID":"isabellagomez13","gender":"1","age":"9","school":"4"},{"start_time":1552328614277,"click_time":1552328614905,"finger_time":1552328614825,"fix_duration":250,"trial":52,"RT":548,"MT":80,"sideResp":2,"stimulus":"img/250/equaldotsize/R/9_Ratio_250_L_3_R_12.png","xmouse":[799,799,799,799,799,799,799,799,799,799,799,799,799,799,798,795,795,794,794,794,794,794,794,794,794,793,804,823,862,945,1078,1117],"ymouse":[491,491,491,491,491,491,491,491,491,491,491,491,491,491,492,492,492,492,492,492,492,492,492,492,492,491,470,436,374,261,115,69],"timestamp_mouse":[10,41,47,69,88,108,128,147,167,188,208,228,248,267,287,308,327,348,367,388,408,428,447,468,488,508,527,548,567,588,607,628],"xSR":741.5,"ySR":469.95,"xT1":424.9,"yT1":0,"xT2":1058.1,"yT2":0,"toosoon":0,"cond_shown":"equaldotsize","ratio_trial":250,"smaller_num":"3","larger_num":"12","correct_side":2,"subjID":"isabellagomez13","gender":"1","age":"9","school":"4"},{"start_time":1552328616765,"click_time":1552328617785,"finger_time":1552328617145,"fix_duration":757.0573450020987,"trial":53,"RT":380,"MT":640,"sideResp":1,"stimulus":"img/500/equaldotsize/L/13_Ratio_500_L_12_R_6.png","xmouse":[804,804,804,804,804,804,804,804,804,804,804,804,804,804,804,804,804,809,823,836,847,859,860,860,860,860,860,860,860,848,831,805,796,786,782,767,731,712,701,693,687,681,677,672,657,635,587,575,563,554,543,515],"ymouse":[488,488,488,488,488,488,488,488,488,488,488,488,488,488,488,488,488,488,479,468,463,456,456,456,456,456,456,456,455,451,446,435,430,423,420,409,382,366,354,342,329,295,275,254,221,186,132,122,113,109,106,98],"timestamp_mouse":[1,20,40,59,80,99,121,141,161,179,199,219,240,260,280,299,320,339,359,380,400,420,439,460,479,499,519,539,559,579,599,619,640,659,680,700,719,740,759,780,799,820,839,859,880,899,920,940,959,980,999,1020],"xSR":741.5,"ySR":469.95,"xT1":424.9,"yT1":0,"xT2":1058.1,"yT2":0,"toosoon":0,"cond_shown":"equaldotsize","ratio_trial":500,"smaller_num":"6","larger_num":"12","correct_side":1,"subjID":"isabellagomez13","gender":"1","age":"9","school":"4"},{"start_time":1552328619364,"click_time":1552328620165,"finger_time":1552328619925,"fix_duration":537.5693722331424,"trial":54,"RT":561,"MT":240,"sideResp":2,"stimulus":"img/500/equaldotsize/R/9_Ratio_500_L_2_R_4.png","xmouse":[776,776,776,776,776,776,776,776,776,776,776,776,776,776,776,776,776,776,776,776,776,776,776,776,776,776,783,793,810,834,859,947,991,1025,1051,1085,1109,1115,1119,1120,1121],"ymouse":[487,487,487,487,487,487,487,487,487,487,487,487,487,487,487,487,487,487,487,487,487,487,487,487,487,487,482,472,459,445,423,351,313,270,234,183,136,123,110,102,94],"timestamp_mouse":[9,37,40,60,80,101,121,140,160,181,200,220,240,261,280,301,320,341,361,381,400,421,442,461,481,501,521,541,561,581,601,620,640,661,681,700,720,740,761,781,801],"xSR":741.5,"ySR":469.95,"xT1":424.9,"yT1":0,"xT2":1058.1,"yT2":0,"toosoon":0,"cond_shown":"equaldotsize","ratio_trial":500,"smaller_num":"2","larger_num":"4","correct_side":2,"subjID":"isabellagomez13","gender":"1","age":"9","school":"4"},{"start_time":1552328621257,"click_time":1552328622185,"finger_time":1552328621924,"fix_duration":250,"trial":55,"RT":667,"MT":261,"sideResp":1,"stimulus":"img/750/equaldotsize/L/10_Ratio_750_L_4_R_3.png","xmouse":[820,820,820,820,820,818,813,810,810,810,810,809,809,809,809,809,808,807,807,807,807,807,807,807,807,807,807,807,807,806,800,785,776,767,758,751,739,721,715,681,649,593,572,552,536,525,521],"ymouse":[518,518,518,518,519,519,518,517,517,517,517,517,517,517,517,517,517,516,516,516,516,516,516,516,516,516,516,516,516,516,510,491,479,466,454,443,429,408,401,359,323,257,224,190,151,118,78],"timestamp_mouse":[14,37,47,67,87,107,127,148,168,187,207,228,249,268,288,308,328,347,368,387,407,428,447,468,488,507,528,547,568,589,607,627,648,667,688,707,727,747,768,788,807,827,848,868,887,907,927],"xSR":741.5,"ySR":469.95,"xT1":424.9,"yT1":0,"xT2":1058.1,"yT2":0,"toosoon":0,"cond_shown":"equaldotsize","ratio_trial":750,"smaller_num":"3","larger_num":"4","correct_side":1,"subjID":"isabellagomez13","gender":"1","age":"9","school":"4"},{"start_time":1552328624672,"click_time":1552328625465,"finger_time":1552328625184,"fix_duration":1406.4359104782293,"trial":56,"RT":512,"MT":281,"sideResp":2,"stimulus":"img/900/randomdotsizeEA/L/8_Ratio_900_L_20_R_18.png","xmouse":[760,760,760,760,760,760,760,760,760,760,760,760,760,760,760,760,760,760,760,760,760,760,760,762,768,830,881,932,969,997,1010,1012,1017,1022,1026,1048,1059,1070,1078,1090],"ymouse":[519,519,519,519,519,519,519,519,519,519,519,519,519,519,519,519,519,519,519,519,519,519,519,516,508,459,417,372,336,296,260,249,239,229,219,182,161,140,119,95],"timestamp_mouse":[13,45,53,72,93,112,133,152,172,193,214,233,253,272,292,312,333,353,374,393,412,433,453,472,493,512,533,552,572,592,612,633,652,673,693,712,734,752,772,792],"xSR":741.5,"ySR":469.95,"xT1":424.9,"yT1":0,"xT2":1058.1,"yT2":0,"toosoon":0,"cond_shown":"randomdotsizeEA","ratio_trial":900,"smaller_num":"18","larger_num":"20","correct_side":1,"subjID":"isabellagomez13","gender":"1","age":"9","school":"4"},{"start_time":1552328629489,"click_time":1552328630284,"finger_time":1552328630011,"fix_duration":1163.7209413491457,"trial":57,"RT":522,"MT":273,"sideResp":1,"stimulus":"img/500/equaldotsize/L/10_Ratio_500_L_4_R_2.png","xmouse":[789,789,789,789,789,789,788,788,788,788,788,788,788,788,788,788,788,788,788,788,788,788,788,786,767,732,732,703,684,647,633,622,613,604,596,595,594,588,567,516],"ymouse":[546,546,546,546,546,546,546,546,546,546,546,546,546,546,546,546,546,546,546,546,546,546,546,545,509,455,455,414,388,338,314,294,273,255,235,233,230,221,185,97],"timestamp_mouse":[15,41,55,75,96,116,135,155,175,195,215,236,255,276,295,316,336,356,375,396,415,435,455,475,495,522,535,556,576,595,616,636,655,675,696,716,736,755,775,795],"xSR":741.5,"ySR":469.95,"xT1":424.9,"yT1":0,"xT2":1058.1,"yT2":0,"toosoon":0,"cond_shown":"equaldotsize","ratio_trial":500,"smaller_num":"2","larger_num":"4","correct_side":1,"subjID":"isabellagomez13","gender":"1","age":"9","school":"4"},{"start_time":1552328635417,"click_time":1552328635944,"finger_time":1552328635784,"fix_duration":250,"trial":58,"RT":367,"MT":160,"sideResp":2,"stimulus":"img/750/equaldotanddens/L/10_Ratio_750_L_4_R_3.png","xmouse":[768,768,768,768,768,768,768,768,768,768,768,768,768,768,768,768,770,784,806,817,837,866,927,1012,1048,1070,1092],"ymouse":[556,556,556,556,556,556,556,556,556,556,556,556,556,556,556,556,525,500,452,427,395,351,273,171,131,102,69],"timestamp_mouse":[11,35,47,68,87,108,127,147,167,187,207,227,247,268,287,308,328,348,367,387,407,427,448,467,489,507,527],"xSR":741.5,"ySR":469.95,"xT1":424.9,"yT1":0,"xT2":1058.1,"yT2":0,"toosoon":0,"cond_shown":"equaldotanddens","ratio_trial":750,"smaller_num":"3","larger_num":"4","correct_side":1,"subjID":"isabellagomez13","gender":"1","age":"9","school":"4"},{"start_time":1552328637640,"click_time":1552328638225,"finger_time":1552328637925,"fix_duration":454.9863238087204,"trial":59,"RT":285,"MT":300,"sideResp":1,"stimulus":"img/250/equaldotsize/R/11_Ratio_250_L_3_R_12.png","xmouse":[788,788,788,788,788,788,788,778,777,775,773,773,772,771,767,760,747,685,636,579,528,459,407,399,399,399,399,400,407,425],"ymouse":[520,520,520,520,520,519,513,490,485,481,477,475,473,471,465,452,431,349,297,246,202,141,78,58,51,50,49,49,49,51],"timestamp_mouse":[14,29,45,64,85,105,124,144,164,185,204,224,244,264,285,304,325,345,365,385,404,426,445,464,484,504,524,545,566,585],"xSR":741.5,"ySR":469.95,"xT1":424.9,"yT1":0,"xT2":1058.1,"yT2":0,"toosoon":0,"cond_shown":"equaldotsize","ratio_trial":250,"smaller_num":"3","larger_num":"12","correct_side":2,"subjID":"isabellagomez13","gender":"1","age":"9","school":"4"},{"start_time":1552328639645,"click_time":1552328640584,"finger_time":1552328640205,"fix_duration":559.417971403583,"trial":60,"RT":560,"MT":379,"sideResp":2,"stimulus":"img/750/equaldotanddens/R/4_Ratio_750_L_15_R_20.png","xmouse":[781,776,774,774,774,774,774,774,774,774,774,774,774,774,774,774,774,774,774,774,774,774,774,774,778,783,796,828,847,876,886,920,953,965,971,974,974,975,979,984,996,1015,1045,1061,1076,1090,1104,1132],"ymouse":[541,532,531,529,529,528,528,528,528,528,528,528,528,528,528,528,528,528,528,528,528,528,528,528,524,521,512,474,442,396,382,335,286,269,258,253,251,250,246,240,229,206,164,148,133,122,112,94],"timestamp_mouse":[1,20,40,59,80,101,120,139,160,179,199,220,240,260,280,299,319,339,360,381,400,419,439,459,480,500,520,540,560,580,600,620,639,659,679,700,719,739,760,779,799,820,839,860,880,900,921,939],"xSR":741.5,"ySR":469.95,"xT1":424.9,"yT1":0,"xT2":1058.1,"yT2":0,"toosoon":0,"cond_shown":"equaldotanddens","ratio_trial":750,"smaller_num":"15","larger_num":"20","correct_side":2,"subjID":"isabellagomez13","gender":"1","age":"9","school":"4"},{"start_time":1552328642739,"click_time":1552328643785,"finger_time":1552328643285,"fix_duration":1432.0828738036219,"trial":61,"RT":546,"MT":500,"sideResp":2,"stimulus":"img/250/equaldotsize/R/9_Ratio_250_L_3_R_12.png","xmouse":[798,798,798,798,798,798,798,798,798,798,798,798,798,798,798,798,798,798,798,798,798,798,798,798,799,806,819,867,887,910,929,946,962,984,988,993,998,1010,1015,1021,1028,1035,1054,1062,1070,1073,1073,1073,1073,1073,1074,1078,1085],"ymouse":[547,547,547,547,547,547,547,547,547,547,547,547,547,547,547,547,547,547,547,547,547,547,547,547,539,521,491,402,370,339,315,295,279,248,241,233,226,210,203,193,185,174,150,143,135,126,123,120,119,116,112,106,98],"timestamp_mouse":[13,25,46,65,87,106,126,146,166,186,206,226,245,266,286,306,325,346,365,386,406,425,445,465,486,506,526,546,566,586,606,625,645,665,686,706,726,745,766,786,806,825,845,866,887,905,926,945,966,986,1006,1027,1046],"xSR":741.5,"ySR":469.95,"xT1":424.9,"yT1":0,"xT2":1058.1,"yT2":0,"toosoon":0,"cond_shown":"equaldotsize","ratio_trial":250,"smaller_num":"3","larger_num":"12","correct_side":2,"subjID":"isabellagomez13","gender":"1","age":"9","school":"4"},{"start_time":1552328644937,"click_time":1552328646305,"finger_time":1552328645744,"fix_duration":250,"trial":62,"RT":807,"MT":561,"sideResp":2,"stimulus":"img/750/randomdotsizeEA/R/15_Ratio_750_L_9_R_12.png","xmouse":[786,786,786,786,786,786,786,786,786,786,786,786,786,786,786,786,786,786,786,786,786,786,786,786,786,786,786,786,786,786,786,786,786,786,786,786,786,786,788,788,787,776,736,710,693,688,684,676,675,672,672,681,739,791,837,880,898,925,935,946,964,984,1013,1022,1029,1031,1032,1045,1061],"ymouse":[529,529,529,529,529,529,529,529,529,529,529,529,529,529,529,529,529,529,529,529,529,529,529,529,529,529,529,529,529,529,529,529,529,529,529,529,529,507,488,470,451,425,353,317,291,284,274,259,253,244,236,222,191,174,156,134,120,101,95,90,88,86,70,65,60,59,59,59,61],"timestamp_mouse":[8,37,49,69,88,108,128,147,169,187,208,227,249,267,287,308,327,348,367,388,409,427,448,467,487,507,527,547,567,587,607,627,647,668,687,708,728,747,767,787,807,828,847,867,888,907,929,947,968,987,1007,1027,1047,1069,1089,1108,1128,1147,1168,1187,1208,1228,1247,1268,1287,1308,1328,1347,1367],"xSR":741.5,"ySR":469.95,"xT1":424.9,"yT1":0,"xT2":1058.1,"yT2":0,"toosoon":0,"cond_shown":"randomdotsizeEA","ratio_trial":750,"smaller_num":"9","larger_num":"12","correct_side":2,"subjID":"isabellagomez13","gender":"1","age":"9","school":"4"},{"start_time":1552328647776,"click_time":1552328648605,"finger_time":1552328648185,"fix_duration":570.7423546330785,"trial":63,"RT":409,"MT":420,"sideResp":2,"stimulus":"img/750/equaldotanddens/R/4_Ratio_750_L_15_R_20.png","xmouse":[770,770,770,770,770,770,770,770,770,770,770,770,770,770,774,788,795,799,801,804,818,850,909,982,1066,1105,1107,1107,1107,1112,1146,1165,1176,1177,1176,1157,1156,1155,1155,1154,1154,1153],"ymouse":[508,508,508,508,508,508,508,508,508,508,508,508,508,508,508,501,495,492,490,488,463,419,358,297,227,195,193,193,193,193,176,162,149,139,133,128,128,128,128,123,105,93],"timestamp_mouse":[8,37,48,68,90,108,128,149,168,188,208,228,248,269,289,309,329,349,368,389,409,429,448,468,490,508,530,548,568,588,609,630,648,668,689,708,728,748,768,788,808,829],"xSR":741.5,"ySR":469.95,"xT1":424.9,"yT1":0,"xT2":1058.1,"yT2":0,"toosoon":0,"cond_shown":"equaldotanddens","ratio_trial":750,"smaller_num":"15","larger_num":"20","correct_side":2,"subjID":"isabellagomez13","gender":"1","age":"9","school":"4"},{"start_time":1552328649805,"click_time":1552328650866,"finger_time":1552328650465,"fix_duration":517.2063957541419,"trial":64,"RT":660,"MT":401,"sideResp":2,"stimulus":"img/900/equaldotsize/L/8_Ratio_900_L_20_R_18.png","xmouse":[789,789,789,789,789,789,789,789,789,789,789,789,789,789,789,789,789,789,789,789,789,789,789,789,789,789,789,789,789,796,802,816,833,860,895,910,924,933,941,955,960,965,970,979,997,1008,1019,1030,1042,1069,1080,1091,1103,1106],"ymouse":[556,556,556,556,556,556,556,556,556,556,556,556,556,556,556,556,556,556,556,556,556,556,556,556,556,556,556,556,556,546,537,521,501,468,421,400,379,366,354,330,318,307,295,275,246,228,215,200,186,155,139,125,103,95],"timestamp_mouse":[6,24,45,60,80,100,119,140,159,179,200,219,240,259,279,299,320,340,360,381,400,420,439,460,480,500,520,539,559,579,600,620,640,660,679,700,720,740,760,780,799,820,839,859,880,900,920,939,960,980,1000,1020,1039,1061],"xSR":741.5,"ySR":469.95,"xT1":424.9,"yT1":0,"xT2":1058.1,"yT2":0,"toosoon":0,"cond_shown":"equaldotsize","ratio_trial":900,"smaller_num":"18","larger_num":"20","correct_side":1,"subjID":"isabellagomez13","gender":"1","age":"9","school":"4"},{"start_time":1552328653616,"click_time":1552328654704,"finger_time":1552328654324,"fix_duration":250,"trial":65,"RT":708,"MT":380,"sideResp":2,"stimulus":"img/500/equaldotanddens/R/1_Ratio_500_L_9_R_18.png","xmouse":[749,749,749,749,749,749,749,749,749,749,749,749,749,749,749,749,749,749,749,749,749,749,749,749,749,749,749,749,749,749,748,749,756,776,792,809,830,856,908,937,961,981,1004,1039,1057,1072,1086,1096,1105,1105,1105,1105,1105,1108,1109],"ymouse":[546,546,546,546,546,546,546,546,546,546,546,546,546,546,546,546,546,546,546,546,546,546,546,546,546,546,546,546,546,546,546,539,529,501,480,458,432,401,330,291,266,249,228,202,185,172,155,141,124,122,121,120,119,108,98],"timestamp_mouse":[9,39,49,68,88,109,129,150,169,189,209,229,249,269,289,308,329,348,370,390,408,429,449,468,488,508,530,549,568,588,608,629,648,668,689,708,729,748,768,789,809,828,850,868,888,908,929,948,969,988,1008,1028,1050,1068,1088],"xSR":741.5,"ySR":469.95,"xT1":424.9,"yT1":0,"xT2":1058.1,"yT2":0,"toosoon":0,"cond_shown":"equaldotanddens","ratio_trial":500,"smaller_num":"9","larger_num":"18","correct_side":2,"subjID":"isabellagomez13","gender":"1","age":"9","school":"4"},{"start_time":1552328656016,"click_time":1552328656844,"finger_time":1552328656445,"fix_duration":409.83064420389127,"trial":66,"RT":429,"MT":399,"sideResp":1,"stimulus":"img/750/equaldotsize/L/1_Ratio_750_L_20_R_15.png","xmouse":[787,787,787,787,787,787,787,787,787,787,787,787,787,787,787,787,787,787,787,787,789,796,802,803,803,803,803,803,803,803,803,803,803,782,761,739,715,686,619,583,541,497],"ymouse":[477,477,477,477,477,477,477,477,477,477,477,477,477,477,477,477,477,477,477,476,473,467,460,456,456,456,456,456,456,456,456,456,450,424,398,369,338,303,221,180,132,90],"timestamp_mouse":[12,44,48,69,88,108,128,150,168,189,208,228,250,268,289,308,329,350,368,389,409,429,448,468,489,508,528,549,568,589,608,628,649,668,688,709,729,748,768,789,808,828],"xSR":741.5,"ySR":469.95,"xT1":424.9,"yT1":0,"xT2":1058.1,"yT2":0,"toosoon":0,"cond_shown":"equaldotsize","ratio_trial":750,"smaller_num":"15","larger_num":"20","correct_side":1,"subjID":"isabellagomez13","gender":"1","age":"9","school":"4"},{"start_time":1552328658277,"click_time":1552328659124,"finger_time":1552328658726,"fix_duration":250,"trial":67,"RT":449,"MT":398,"sideResp":1,"stimulus":"img/750/equaldotsize/L/1_Ratio_750_L_20_R_15.png","xmouse":[829,829,829,829,829,829,829,829,829,829,829,829,829,829,829,829,829,829,829,829,829,829,829,828,827,816,803,785,757,704,645,626,610,596,583,552,539,533,532,530,529,525,515],"ymouse":[484,484,484,484,484,484,484,484,484,484,484,484,484,484,484,484,484,484,484,484,479,474,469,463,459,438,423,405,383,345,301,282,263,243,225,179,161,150,145,138,125,109,86],"timestamp_mouse":[8,27,48,67,87,108,128,147,167,187,209,229,247,268,287,308,328,348,367,387,408,428,449,468,488,508,527,547,567,589,608,628,648,667,688,708,728,748,768,788,807,828,847],"xSR":741.5,"ySR":469.95,"xT1":424.9,"yT1":0,"xT2":1058.1,"yT2":0,"toosoon":0,"cond_shown":"equaldotsize","ratio_trial":750,"smaller_num":"15","larger_num":"20","correct_side":1,"subjID":"isabellagomez13","gender":"1","age":"9","school":"4"},{"start_time":1552328660975,"click_time":1552328661805,"finger_time":1552328661305,"fix_duration":870.8218558192824,"trial":68,"RT":330,"MT":500,"sideResp":1,"stimulus":"img/500/equaldotanddens/L/5_Ratio_500_L_4_R_2.png","xmouse":[790,790,789,790,791,791,792,792,792,792,792,792,792,793,795,801,804,806,809,811,814,814,815,815,815,815,815,815,811,799,760,733,710,688,677,655,646,635,622,599,528,495],"ymouse":[499,499,496,493,489,488,488,488,488,488,488,488,488,485,483,471,466,459,453,449,443,441,439,439,438,434,429,420,409,395,363,346,333,321,313,294,282,263,241,203,97,55],"timestamp_mouse":[10,38,49,69,90,110,130,150,170,190,209,230,249,270,289,310,330,349,369,389,409,430,449,470,489,509,530,551,570,589,609,629,650,670,689,709,730,750,769,789,810,830],"xSR":741.5,"ySR":469.95,"xT1":424.9,"yT1":0,"xT2":1058.1,"yT2":0,"toosoon":0,"cond_shown":"equaldotanddens","ratio_trial":500,"smaller_num":"2","larger_num":"4","correct_side":1,"subjID":"isabellagomez13","gender":"1","age":"9","school":"4"},{"start_time":1552328669321,"click_time":1552328670365,"finger_time":1552328669984,"fix_duration":434.0951933409857,"trial":69,"RT":663,"MT":381,"sideResp":2,"stimulus":"img/900/equaldotsize/R/11_Ratio_900_L_18_R_20.png","xmouse":[802,802,802,802,802,802,802,802,802,802,802,802,802,802,802,802,802,802,802,802,802,802,802,802,802,802,802,802,802,802,802,802,803,825,852,883,926,981,1022,1038,1051,1057,1057,1057,1057,1057,1057,1057,1057,1057,1057,1057,1099],"ymouse":[483,483,483,483,483,483,483,483,483,483,483,483,483,483,483,483,483,483,483,483,483,483,483,483,483,483,483,483,483,483,483,483,480,435,389,331,254,156,61,30,9,1,1,1,1,1,1,1,1,1,1,1,31],"timestamp_mouse":[12,37,43,63,84,105,124,144,163,183,204,224,245,263,284,304,323,344,363,385,404,425,443,464,484,504,525,544,563,583,603,624,643,663,685,703,723,743,763,784,805,823,844,863,883,903,924,944,963,984,1004,1024,1044],"xSR":741.5,"ySR":469.95,"xT1":424.9,"yT1":0,"xT2":1058.1,"yT2":0,"toosoon":0,"cond_shown":"equaldotsize","ratio_trial":900,"smaller_num":"18","larger_num":"20","correct_side":2,"subjID":"isabellagomez13","gender":"1","age":"9","school":"4"},{"start_time":1552328672265,"click_time":1552328672984,"finger_time":1552328672625,"fix_duration":1098.6128591216693,"trial":70,"RT":360,"MT":359,"sideResp":2,"stimulus":"img/250/equaldotanddens/R/8_Ratio_250_L_1_R_4.png","xmouse":[773,773,773,773,773,773,773,773,773,773,773,773,773,773,773,773,772,764,744,738,716,689,679,675,673,673,683,699,719,738,772,842,893,942,991,1040,1142],"ymouse":[496,496,496,496,496,496,496,496,496,496,496,496,496,496,496,496,496,481,450,440,405,365,351,341,335,332,324,323,323,321,313,288,266,245,213,176,90],"timestamp_mouse":[1,19,39,60,80,99,119,140,159,180,200,220,239,260,280,300,319,340,360,380,400,419,440,459,479,501,520,539,560,579,600,619,640,659,680,700,719],"xSR":741.5,"ySR":469.95,"xT1":424.9,"yT1":0,"xT2":1058.1,"yT2":0,"toosoon":0,"cond_shown":"equaldotanddens","ratio_trial":250,"smaller_num":"1","larger_num":"4","correct_side":2,"subjID":"isabellagomez13","gender":"1","age":"9","school":"4"},{"start_time":1552328675477,"click_time":1552328676544,"finger_time":1552328676345,"fix_duration":250,"trial":71,"RT":868,"MT":199,"sideResp":2,"stimulus":"img/750/equaldotsize/R/5_Ratio_750_L_15_R_20.png","xmouse":[763,763,763,763,763,763,763,763,763,763,763,763,763,763,763,763,763,763,763,763,763,763,763,763,763,763,763,763,763,763,763,763,763,763,763,763,763,763,763,762,772,779,792,808,831,867,878,889,907,925,984,1008,1041,1075],"ymouse":[525,525,525,525,525,525,525,525,525,525,525,525,525,525,525,525,525,525,525,525,525,525,525,525,525,525,525,525,525,525,525,525,525,525,525,525,525,525,525,525,502,489,470,448,417,363,342,321,286,256,169,135,86,40],"timestamp_mouse":[11,41,47,68,88,107,127,148,169,187,208,228,247,268,287,308,328,347,367,387,407,429,447,468,487,507,529,547,568,587,607,628,649,667,688,707,728,748,767,789,807,827,847,868,887,908,928,948,967,989,1007,1028,1049,1067],"xSR":741.5,"ySR":469.95,"xT1":424.9,"yT1":0,"xT2":1058.1,"yT2":0,"toosoon":0,"cond_shown":"equaldotsize","ratio_trial":750,"smaller_num":"15","larger_num":"20","correct_side":2,"subjID":"isabellagomez13","gender":"1","age":"9","school":"4"},{"start_time":1552328679671,"click_time":1552328680606,"finger_time":1552328680184,"fix_duration":1404.4284071207492,"trial":72,"RT":513,"MT":422,"sideResp":2,"stimulus":"img/750/equaldotanddens/R/3_Ratio_750_L_15_R_20.png","xmouse":[778,778,778,778,778,778,778,778,778,778,778,778,778,778,778,778,783,784,788,791,794,795,797,801,808,835,850,867,898,927,1004,1034,1056,1067,1072,1072,1072,1072,1074,1076,1079,1079,1079,1079,1079,1080,1082],"ymouse":[517,517,517,517,517,517,517,517,517,517,517,517,517,517,517,517,514,511,506,500,495,492,488,482,473,441,422,404,368,333,246,217,187,168,156,147,147,146,140,135,126,122,120,119,117,105,99],"timestamp_mouse":[14,45,53,73,93,113,134,154,173,194,213,234,254,274,293,313,334,354,374,394,413,434,455,474,494,513,534,555,575,594,613,633,653,674,693,713,733,755,773,794,813,833,854,874,893,914,935],"xSR":741.5,"ySR":469.95,"xT1":424.9,"yT1":0,"xT2":1058.1,"yT2":0,"toosoon":0,"cond_shown":"equaldotanddens","ratio_trial":750,"smaller_num":"15","larger_num":"20","correct_side":2,"subjID":"isabellagomez13","gender":"1","age":"9","school":"4"},{"start_time":1552328683064,"click_time":1552328684084,"finger_time":1552328683606,"fix_duration":598.805756447898,"trial":73,"RT":542,"MT":478,"sideResp":1,"stimulus":"img/500/equaldotanddens/L/10_Ratio_500_L_4_R_2.png","xmouse":[812,812,812,812,812,812,812,812,812,812,812,812,812,812,812,812,812,812,812,812,813,813,813,813,813,813,803,780,736,723,705,696,693,690,684,676,629,578,553,539,537,537,537,537,534,528,523,522,522,520,513,494],"ymouse":[520,520,520,520,520,520,520,520,520,520,520,520,520,520,520,520,520,520,517,502,493,480,475,474,474,474,471,465,454,448,437,405,383,360,340,322,286,265,250,241,236,210,196,181,162,140,119,117,116,112,104,78],"timestamp_mouse":[9,20,40,60,80,100,120,141,160,181,200,220,240,260,280,301,321,340,362,381,400,420,441,460,480,501,520,542,560,580,600,621,641,660,681,702,721,740,761,781,801,821,841,861,880,901,920,940,960,980,1001,1020],"xSR":741.5,"ySR":469.95,"xT1":424.9,"yT1":0,"xT2":1058.1,"yT2":0,"toosoon":0,"cond_shown":"equaldotanddens","ratio_trial":500,"smaller_num":"2","larger_num":"4","correct_side":1,"subjID":"isabellagomez13","gender":"1","age":"9","school":"4"},{"start_time":1552328685418,"click_time":1552328686404,"finger_time":1552328685964,"fix_duration":250,"trial":74,"RT":546,"MT":440,"sideResp":2,"stimulus":"img/500/randomdotsizeEA/R/6_Ratio_500_L_9_R_18.png","xmouse":[769,769,769,769,769,769,769,769,769,769,769,769,769,769,769,769,769,769,765,765,764,764,764,763,761,760,754,747,742,743,745,761,780,823,841,857,869,880,905,928,934,950,960,968,971,973,980,994,1041,1068],"ymouse":[492,492,492,492,492,492,492,492,492,492,492,492,492,492,492,492,492,492,492,492,492,492,492,492,492,492,478,461,431,413,409,391,379,350,335,316,300,284,253,227,217,197,175,152,149,147,147,145,119,96],"timestamp_mouse":[10,36,47,66,87,106,126,146,166,186,208,228,246,266,286,307,326,346,366,386,408,427,446,466,486,508,527,546,567,586,606,627,647,666,687,707,726,748,766,786,807,826,846,867,887,906,927,947,966,986],"xSR":741.5,"ySR":469.95,"xT1":424.9,"yT1":0,"xT2":1058.1,"yT2":0,"toosoon":0,"cond_shown":"randomdotsizeEA","ratio_trial":500,"smaller_num":"9","larger_num":"18","correct_side":2,"subjID":"isabellagomez13","gender":"1","age":"9","school":"4"},{"start_time":1552328688352,"click_time":1552328689405,"finger_time":1552328688866,"fix_duration":826.7597961653735,"trial":75,"RT":514,"MT":539,"sideResp":1,"stimulus":"img/500/randomdotsizeEA/R/15_Ratio_500_L_1_R_2.png","xmouse":[804,804,804,804,804,804,804,804,804,804,804,804,804,804,804,804,804,804,804,804,804,808,811,815,820,826,840,846,849,849,849,835,822,812,810,809,809,809,806,802,793,763,737,719,707,702,695,687,677,661,643,543,484],"ymouse":[520,520,520,520,520,520,520,520,520,520,520,520,520,520,520,520,520,520,520,520,516,503,495,489,478,467,441,427,418,411,405,392,382,372,363,342,303,283,263,245,229,200,186,177,172,169,159,149,136,118,103,52,29],"timestamp_mouse":[13,40,52,73,92,113,134,152,173,194,212,234,252,272,293,312,334,353,373,393,414,433,453,472,492,514,532,553,573,592,612,633,652,673,692,714,733,753,772,792,812,832,853,873,892,912,932,952,973,992,1012,1033,1053],"xSR":741.5,"ySR":469.95,"xT1":424.9,"yT1":0,"xT2":1058.1,"yT2":0,"toosoon":0,"cond_shown":"randomdotsizeEA","ratio_trial":500,"smaller_num":"1","larger_num":"2","correct_side":2,"subjID":"isabellagomez13","gender":"1","age":"9","school":"4"},{"start_time":1552328697610,"click_time":1552328698324,"finger_time":1552328698005,"fix_duration":1124.0779997229713,"trial":76,"RT":395,"MT":319,"sideResp":2,"stimulus":"img/900/randomdotsizeEA/L/10_Ratio_900_L_20_R_18.png","xmouse":[765,765,765,765,765,765,765,765,765,765,765,765,765,765,765,765,765,772,805,867,961,984,1031,1053,1057,1058,1061,1066,1088,1106,1124,1152,1160,1162,1158,1151],"ymouse":[513,513,513,513,513,513,513,513,513,513,513,513,513,513,513,513,513,505,483,456,412,400,372,355,349,344,338,331,306,286,259,207,177,129,108,85],"timestamp_mouse":[15,36,54,74,94,116,135,155,176,196,215,236,254,275,295,315,335,355,374,395,414,434,454,474,495,515,535,556,574,594,614,636,655,674,695,714],"xSR":741.5,"ySR":469.95,"xT1":424.9,"yT1":0,"xT2":1058.1,"yT2":0,"toosoon":0,"cond_shown":"randomdotsizeEA","ratio_trial":900,"smaller_num":"18","larger_num":"20","correct_side":1,"subjID":"isabellagomez13","gender":"1","age":"9","school":"4"},{"start_time":1552328699758,"click_time":1552328701984,"finger_time":1552328701745,"fix_duration":391.8974369709761,"trial":77,"RT":1987,"MT":239,"sideResp":1,"stimulus":"img/900/equaldotsize/R/11_Ratio_900_L_18_R_20.png","xmouse":[783,783,783,783,783,783,783,783,783,783,783,783,783,783,783,783,783,783,783,783,783,783,783,783,783,783,783,783,783,783,783,783,783,783,783,783,783,783,783,783,783,783,783,783,783,783,783,783,783,783,783,783,783,783,783,783,783,783,783,783,783,783,783,783,783,783,783,783,783,783,783,783,783,783,783,783,783,783,783,783,783,783,783,783,783,783,783,783,783,783,783,783,783,783,783,783,783,781,771,756,731,681,661,646,625,610,587,575,562,547,527,504],"ymouse":[524,524,524,524,524,524,524,524,524,524,524,524,524,524,524,524,524,524,524,524,524,524,524,524,524,524,524,524,524,524,524,524,524,524,524,524,524,524,524,524,524,524,524,524,524,524,524,524,524,524,524,524,524,524,524,524,524,524,524,524,524,524,524,524,524,524,524,524,524,524,524,524,524,524,524,524,524,524,524,524,524,524,524,524,524,524,524,524,524,524,524,524,524,524,524,524,524,513,484,437,371,257,218,194,164,149,130,126,122,115,108,95],"timestamp_mouse":[12,43,46,66,86,107,127,146,168,187,206,227,247,266,286,306,326,346,367,386,406,426,448,468,487,507,526,547,567,588,606,626,646,667,687,707,727,746,766,786,806,827,846,867,887,907,928,947,967,988,1007,1027,1046,1067,1087,1108,1127,1147,1166,1187,1207,1226,1246,1267,1288,1307,1326,1347,1366,1388,1407,1426,1446,1466,1487,1507,1526,1547,1566,1587,1606,1626,1648,1668,1687,1707,1726,1746,1767,1788,1806,1826,1846,1867,1887,1907,1926,1947,1967,1987,2007,2026,2047,2066,2087,2108,2127,2147,2166,2188,2208,2226],"xSR":741.5,"ySR":469.95,"xT1":424.9,"yT1":0,"xT2":1058.1,"yT2":0,"toosoon":0,"cond_shown":"equaldotsize","ratio_trial":900,"smaller_num":"18","larger_num":"20","correct_side":2,"subjID":"isabellagomez13","gender":"1","age":"9","school":"4"},{"start_time":1552328703036,"click_time":1552328704166,"finger_time":1552328703824,"fix_duration":250,"trial":78,"RT":788,"MT":342,"sideResp":2,"stimulus":"img/750/randomdotsizeEA/L/13_Ratio_750_L_8_R_6.png","xmouse":[814,814,814,814,814,814,814,814,814,814,814,814,814,814,814,814,816,817,817,817,817,817,817,817,817,817,817,817,817,817,817,817,817,817,817,817,816,815,822,838,872,898,954,981,1004,1020,1032,1041,1044,1052,1065,1073,1085,1088,1091,1093,1094],"ymouse":[563,563,563,563,563,563,563,563,563,563,563,563,563,563,563,563,563,561,560,560,560,560,560,560,560,560,560,560,560,560,560,560,560,559,553,544,533,496,474,444,397,367,302,279,260,246,236,223,214,199,180,168,144,132,118,104,98],"timestamp_mouse":[13,34,48,68,90,108,129,148,170,188,209,228,248,268,289,309,329,350,369,389,408,428,449,469,488,509,528,548,569,588,608,628,648,668,689,709,730,748,769,788,808,830,849,869,889,909,929,948,969,988,1009,1028,1049,1068,1088,1108,1129],"xSR":741.5,"ySR":469.95,"xT1":424.9,"yT1":0,"xT2":1058.1,"yT2":0,"toosoon":0,"cond_shown":"randomdotsizeEA","ratio_trial":750,"smaller_num":"6","larger_num":"8","correct_side":1,"subjID":"isabellagomez13","gender":"1","age":"9","school":"4"},{"start_time":1552328705976,"click_time":1552328706884,"finger_time":1552328706666,"fix_duration":990.2504515099156,"trial":79,"RT":690,"MT":218,"sideResp":1,"stimulus":"img/750/equaldotanddens/L/13_Ratio_750_L_8_R_6.png","xmouse":[780,780,780,780,780,780,780,780,780,780,780,780,780,780,780,780,780,780,780,780,780,780,780,780,779,774,771,769,768,766,764,759,752,746,733,704,685,661,639,611,537,508,492,488,487,483],"ymouse":[527,527,527,527,527,527,527,527,527,527,527,527,527,527,527,527,527,527,527,527,527,527,527,527,528,524,520,517,515,513,509,502,492,480,457,414,391,364,335,303,215,173,143,124,105,81],"timestamp_mouse":[9,43,49,69,88,108,130,149,169,188,208,230,248,268,288,308,329,349,368,389,409,429,448,470,489,508,529,548,569,588,608,628,650,668,690,709,728,748,768,789,808,828,848,868,888,908],"xSR":741.5,"ySR":469.95,"xT1":424.9,"yT1":0,"xT2":1058.1,"yT2":0,"toosoon":0,"cond_shown":"equaldotanddens","ratio_trial":750,"smaller_num":"6","larger_num":"8","correct_side":1,"subjID":"isabellagomez13","gender":"1","age":"9","school":"4"},{"start_time":1552328708706,"click_time":1552328709805,"finger_time":1552328709265,"fix_duration":940.7519174867081,"trial":80,"RT":559,"MT":540,"sideResp":2,"stimulus":"img/750/equaldotsize/L/6_Ratio_750_L_24_R_18.png","xmouse":[802,802,802,802,802,802,802,802,802,802,802,802,802,802,802,802,802,802,802,802,802,802,802,802,802,805,820,850,918,948,965,974,977,980,980,986,991,1011,1042,1056,1068,1077,1079,1080,1080,1080,1075,1074,1074,1074,1074,1074,1074,1078,1099],"ymouse":[542,542,542,542,542,542,542,542,542,542,542,542,542,542,542,542,542,542,542,542,542,542,542,542,535,513,473,418,317,280,249,231,221,218,217,211,206,186,154,140,130,121,118,115,115,114,113,113,113,113,113,113,113,100,82],"timestamp_mouse":[19,41,58,78,99,119,139,160,180,198,219,239,259,278,300,319,339,359,378,399,418,439,458,478,498,519,539,559,579,599,618,638,659,678,699,719,739,758,778,799,818,838,859,878,898,919,938,959,978,999,1019,1039,1058,1078,1099],"xSR":741.5,"ySR":469.95,"xT1":424.9,"yT1":0,"xT2":1058.1,"yT2":0,"toosoon":0,"cond_shown":"equaldot