[{"start_time":1552327518083,"click_time":1552327519205,"finger_time":1552327518505,"fix_duration":1333.3715320190418,"trial":0,"RT":422,"MT":700,"sideResp":1,"stimulus":[],"xmouse":[745,745,745,745,745,745,745,745,745,745,745,745,745,745,745,745,747,749,761,772,772,756,720,681,647,640,635,633,634,646,661,681,707,810,868,922,963,992,1018,1018,1018,1018,1018,1018,1018,1018,897,840,737,690,671,661,656,629,589,547,521],"ymouse":[515,515,515,515,515,515,515,515,515,515,515,515,515,515,515,515,515,515,515,501,482,451,404,358,317,305,291,276,243,208,186,164,147,101,81,60,41,23,3,3,3,3,3,3,3,3,19,31,45,53,59,61,64,69,73,80,82],"timestamp_mouse":[8,35,42,62,82,102,121,141,161,181,203,222,241,262,282,301,321,341,361,382,401,422,442,462,481,502,521,541,561,581,601,621,641,661,681,701,722,743,761,782,801,822,841,862,881,901,922,942,963,983,1002,1023,1041,1062,1081,1102,1122],"xSR":741.5,"ySR":469.95,"xT1":424.9,"yT1":0,"xT2":1058.1,"yT2":0,"toosoon":0,"cond_shown":"Incongruent","ratio_trial":200,"L_num":4,"L_den":5,"R_num":6,"R_den":10,"correct_side":1,"subjID":"isabellagomez13","gender":"1","age":"9","school":"4","test":{"fix_dur":[250,1500],"timestim":1000,"targets_dim":[100,100],"targets_relative_coord":[0.3,0.7],"size_stim":[880,420],"start_dim":[100,100],"size_start":[300,300],"size_fix":60,"samplingrate":20,"img_types":["Congruent","Incongruent"],"ratios":[100,200,300],"rep_conds":19,"nTrials":120,"trials_to_rest":500,"Trials_order":[3,47,69,30,83,72,44,80,51,38,39,88,84,33,59,85,27,108,40,46,16,22,74,92,26,6,60,9,79,99,103,98,93,61,28,48,101,54,58,64,36,14,8,116,43,50,42,13,56,107,113,77,87,110,68,1,71,21,12,18,37,115,53,97,81,49,119,73,41,94,86,10,29,62,102,32,106,117,7,96,15,2,19,66,89,45,78,100,76,35,109,95,31,63,70,20,23,57,52,111,25,118,34,4,24,0,91,112,65,104,90,105,17,67,5,82,11,55,114,75],"cond_shown":["Incongruent","Incongruent","Incongruent","Congruent","Incongruent","Congruent","Congruent","Congruent","Incongruent","Congruent","Incongruent","Congruent","Congruent","Incongruent","Incongruent","Incongruent","Incongruent","Congruent","Congruent","Congruent","Congruent","Congruent","Congruent","Congruent","Congruent","Congruent","Congruent","Incongruent","Incongruent","Incongruent","Incongruent","Congruent","Incongruent","Incongruent","Congruent","Congruent","Incongruent","Congruent","Congruent","Congruent","Congruent","Congruent","Congruent","Congruent","Incongruent","Congruent","Congruent","Incongruent","Congruent","Incongruent","Incongruent","Incongruent","Incongruent","Congruent","Congruent","Incongruent","Incongruent","Incongruent","Congruent","Congruent","Incongruent","Incongruent","Incongruent","Incongruent","Incongruent","Incongruent","Incongruent","Incongruent","Incongruent","Congruent","Congruent","Congruent","Incongruent","Congruent","Congruent","Congruent","Congruent","Incongruent","Incongruent","Congruent","Incongruent","Congruent","Incongruent","Congruent","Incongruent","Incongruent","Congruent","Congruent","Congruent","Incongruent","Incongruent","Incongruent","Incongruent","Incongruent","Congruent","Congruent","Incongruent","Incongruent","Congruent","Incongruent","Incongruent","Congruent","Congruent","Congruent","Congruent","Congruent","Incongruent","Congruent","Incongruent","Congruent","Congruent","Incongruent","Incongruent","Incongruent","Incongruent","Congruent","Incongruent","Incongruent","Congruent","Incongruent"],"ratio_trial":[200,300,200,100,300,100,200,200,200,200,200,300,100,200,300,100,200,100,300,300,300,300,200,200,200,100,100,200,100,200,100,200,200,100,300,100,300,100,300,300,100,200,200,200,100,200,100,100,200,300,300,300,200,200,200,100,300,200,100,100,100,100,300,100,200,100,300,100,300,300,200,300,300,200,100,200,300,200,100,100,200,200,100,100,300,200,100,300,300,300,100,300,100,200,300,200,300,200,300,200,100,300,300,300,100,100,100,300,300,200,100,200,300,100,300,300,300,100,100,200],"left_num":[4,13,4,15,8,1,3,20,1,3,4,24,15,7,13,8,6,11,11,3,3,20,3,11,3,1,4,4,17,4,12,8,4,1,1,4,1,11,18,1,4,8,7,8,3,9,3,9,8,3,13,2,4,12,14,3,4,14,10,15,9,10,7,9,1,9,4,3,1,20,16,11,13,6,8,11,11,14,12,4,7,9,9,8,13,14,11,5,1,4,8,8,13,14,11,4,3,7,7,1,4,24,4,20,10,6,9,1,4,9,2,7,1,3,4,24,7,12,8,1],"right_num":[6,12,14,13,9,18,14,9,2,14,6,8,13,4,12,1,3,4,4,4,4,13,9,3,11,18,15,1,10,6,2,7,1,8,6,6,2,6,9,3,6,7,2,3,4,4,4,13,2,4,12,6,1,6,6,4,2,12,3,13,14,9,8,6,3,14,2,4,3,14,9,1,12,11,2,3,4,6,2,6,14,4,20,2,12,6,4,6,11,2,1,14,12,12,2,3,4,8,20,2,8,2,2,8,3,5,6,3,2,13,6,8,3,7,2,2,8,2,2,3],"left_den":[5,26,6,25,10,2,10,25,3,6,5,30,25,15,26,20,20,22,22,6,6,25,12,22,10,2,10,30,30,5,30,15,30,2,5,8,2,22,20,5,8,15,21,15,6,20,20,15,15,6,26,4,30,15,28,6,20,30,25,25,15,25,10,18,2,15,20,6,2,25,30,22,26,20,16,22,22,30,30,8,10,20,10,16,26,30,22,25,5,20,20,10,26,30,22,10,6,10,14,3,8,30,5,25,25,20,18,5,20,30,5,10,2,9,20,30,10,30,16,2],"right_den":[10,15,30,26,18,30,28,15,15,20,10,16,26,6,15,2,6,10,20,5,5,26,20,10,22,30,30,3,15,10,4,21,3,20,12,10,10,15,15,6,10,21,15,9,10,16,16,26,6,20,15,30,3,10,20,10,4,18,10,26,28,18,20,10,10,28,4,10,15,28,27,5,15,22,5,10,20,9,4,10,28,16,25,5,15,9,10,12,22,4,2,28,20,18,10,15,20,16,25,15,20,4,4,16,10,25,10,6,4,26,12,16,15,30,4,4,20,4,5,10],"correct_side":[1,2,1,1,1,2,2,1,1,2,1,1,1,2,2,2,2,1,1,2,2,1,2,1,2,2,2,2,2,1,2,1,2,1,2,2,1,1,1,2,2,1,1,1,1,1,2,1,1,1,2,1,2,1,1,1,2,2,1,1,1,2,1,2,1,1,2,1,1,1,1,1,2,2,1,1,1,2,2,2,1,1,1,1,2,2,1,2,2,2,2,1,2,2,1,1,1,1,2,1,1,1,1,1,1,1,2,2,2,2,2,1,1,1,2,1,1,2,1,1],"img_shown":["img2/200/Incongruent/L/I_Dist_200_LN_4_LD_5_RN_6_RD_10_0.png","img2/300/Incongruent/R/I_Dist_300_LN_13_LD_26_RN_12_RD_15_1.png","img2/200/Incongruent/L/I_Dist_200_LN_4_LD_6_RN_14_RD_30_0.png","img2/100/Congruent/L/C_Dist_100_LN_15_LD_25_RN_13_RD_26_0.png","img2/300/Incongruent/L/I_Dist_300_LN_8_LD_10_RN_9_RD_18_0.png","img2/100/Congruent/R/C_Dist_100_LN_1_LD_2_RN_18_RD_30_1.png","img2/200/Congruent/R/C_Dist_200_LN_3_LD_10_RN_14_RD_28_1.png","img2/200/Congruent/L/C_Dist_200_LN_20_LD_25_RN_9_RD_15_0.png","img2/200/Incongruent/L/I_Dist_200_LN_1_LD_3_RN_2_RD_15_0.png","img2/200/Congruent/R/C_Dist_200_LN_3_LD_6_RN_14_RD_20_1.png","img2/200/Incongruent/L/I_Dist_200_LN_4_LD_5_RN_6_RD_10_0.png","img2/300/Congruent/L/C_Dist_300_LN_24_LD_30_RN_8_RD_16_0.png","img2/100/Congruent/L/C_Dist_100_LN_15_LD_25_RN_13_RD_26_0.png","img2/200/Incongruent/R/I_Dist_200_LN_7_LD_15_RN_4_RD_6_1.png","img2/300/Incongruent/R/I_Dist_300_LN_13_LD_26_RN_12_RD_15_1.png","img2/100/Incongruent/R/I_Dist_100_LN_8_LD_20_RN_1_RD_2_1.png","img2/200/Incongruent/R/I_Dist_200_LN_6_LD_20_RN_3_RD_6_1.png","img2/100/Congruent/L/C_Dist_100_LN_11_LD_22_RN_4_RD_10_0.png","img2/300/Congruent/L/C_Dist_300_LN_11_LD_22_RN_4_RD_20_0.png","img2/300/Congruent/R/C_Dist_300_LN_3_LD_6_RN_4_RD_5_1.png","img2/300/Congruent/R/C_Dist_300_LN_3_LD_6_RN_4_RD_5_1.png","img2/300/Congruent/L/C_Dist_300_LN_20_LD_25_RN_13_RD_26_0.png","img2/200/Congruent/R/C_Dist_200_LN_3_LD_12_RN_9_RD_20_1.png","img2/200/Congruent/L/C_Dist_200_LN_11_LD_22_RN_3_RD_10_0.png","img2/200/Congruent/R/C_Dist_200_LN_3_LD_10_RN_11_RD_22_1.png","img2/100/Congruent/R/C_Dist_100_LN_1_LD_2_RN_18_RD_30_1.png","img2/100/Congruent/R/C_Dist_100_LN_4_LD_10_RN_15_RD_30_1.png","img2/200/Incongruent/R/I_Dist_200_LN_4_LD_30_RN_1_RD_3_1.png","img2/100/Incongruent/R/I_Dist_100_LN_17_LD_30_RN_10_RD_15_1.png","img2/200/Incongruent/L/I_Dist_200_LN_4_LD_5_RN_6_RD_10_0.png","img2/100/Incongruent/R/I_Dist_100_LN_12_LD_30_RN_2_RD_4_1.png","img2/200/Congruent/L/C_Dist_200_LN_8_LD_15_RN_7_RD_21_0.png","img2/200/Incongruent/R/I_Dist_200_LN_4_LD_30_RN_1_RD_3_1.png","img2/100/Incongruent/L/I_Dist_100_LN_1_LD_2_RN_8_RD_20_0.png","img2/300/Congruent/R/C_Dist_300_LN_1_LD_5_RN_6_RD_12_1.png","img2/100/Congruent/R/C_Dist_100_LN_4_LD_8_RN_6_RD_10_1.png","img2/300/Incongruent/L/I_Dist_300_LN_1_LD_2_RN_2_RD_10_0.png","img2/100/Congruent/L/C_Dist_100_LN_11_LD_22_RN_6_RD_15_0.png","img2/300/Congruent/L/C_Dist_300_LN_18_LD_20_RN_9_RD_15_0.png","img2/300/Congruent/R/C_Dist_300_LN_1_LD_5_RN_3_RD_6_1.png","img2/100/Congruent/R/C_Dist_100_LN_4_LD_8_RN_6_RD_10_1.png","img2/200/Congruent/L/C_Dist_200_LN_8_LD_15_RN_7_RD_21_0.png","img2/200/Congruent/L/C_Dist_200_LN_7_LD_21_RN_2_RD_15_0.png","img2/200/Congruent/L/C_Dist_200_LN_8_LD_15_RN_3_RD_9_0.png","img2/100/Incongruent/L/I_Dist_100_LN_3_LD_6_RN_4_RD_10_0.png","img2/200/Congruent/L/C_Dist_200_LN_9_LD_20_RN_4_RD_16_0.png","img2/100/Congruent/R/C_Dist_100_LN_3_LD_20_RN_4_RD_16_1.png","img2/100/Incongruent/L/I_Dist_100_LN_9_LD_15_RN_13_RD_26_0.png","img2/200/Congruent/L/C_Dist_200_LN_8_LD_15_RN_2_RD_6_0.png","img2/300/Incongruent/L/I_Dist_300_LN_3_LD_6_RN_4_RD_20_0.png","img2/300/Incongruent/R/I_Dist_300_LN_13_LD_26_RN_12_RD_15_1.png","img2/300/Incongruent/L/I_Dist_300_LN_2_LD_4_RN_6_RD_30_0.png","img2/200/Incongruent/R/I_Dist_200_LN_4_LD_30_RN_1_RD_3_1.png","img2/200/Congruent/L/C_Dist_200_LN_12_LD_15_RN_6_RD_10_0.png","img2/200/Congruent/L/C_Dist_200_LN_14_LD_28_RN_6_RD_20_0.png","img2/100/Incongruent/L/I_Dist_100_LN_3_LD_6_RN_4_RD_10_0.png","img2/300/Incongruent/R/I_Dist_300_LN_4_LD_20_RN_2_RD_4_1.png","img2/200/Incongruent/R/I_Dist_200_LN_14_LD_30_RN_12_RD_18_1.png","img2/100/Congruent/L/C_Dist_100_LN_10_LD_25_RN_3_RD_10_0.png","img2/100/Congruent/L/C_Dist_100_LN_15_LD_25_RN_13_RD_26_0.png","img2/100/Incongruent/L/I_Dist_100_LN_9_LD_15_RN_14_RD_28_0.png","img2/100/Incongruent/R/I_Dist_100_LN_10_LD_25_RN_9_RD_18_1.png","img2/300/Incongruent/L/I_Dist_300_LN_7_LD_10_RN_8_RD_20_0.png","img2/100/Incongruent/R/I_Dist_100_LN_9_LD_18_RN_6_RD_10_1.png","img2/200/Incongruent/L/I_Dist_200_LN_1_LD_2_RN_3_RD_10_0.png","img2/100/Incongruent/L/I_Dist_100_LN_9_LD_15_RN_14_RD_28_0.png","img2/300/Incongruent/R/I_Dist_300_LN_4_LD_20_RN_2_RD_4_1.png","img2/100/Incongruent/L/I_Dist_100_LN_3_LD_6_RN_4_RD_10_0.png","img2/300/Incongruent/L/I_Dist_300_LN_1_LD_2_RN_3_RD_15_0.png","img2/300/Congruent/L/C_Dist_300_LN_20_LD_25_RN_14_RD_28_0.png","img2/200/Congruent/L/C_Dist_200_LN_16_LD_30_RN_9_RD_27_0.png","img2/300/Congruent/L/C_Dist_300_LN_11_LD_22_RN_1_RD_5_0.png","img2/300/Incongruent/R/I_Dist_300_LN_13_LD_26_RN_12_RD_15_1.png","img2/200/Congruent/R/C_Dist_200_LN_6_LD_20_RN_11_RD_22_1.png","img2/100/Congruent/L/C_Dist_100_LN_8_LD_16_RN_2_RD_5_0.png","img2/200/Congruent/L/C_Dist_200_LN_11_LD_22_RN_3_RD_10_0.png","img2/300/Congruent/L/C_Dist_300_LN_11_LD_22_RN_4_RD_20_0.png","img2/200/Incongruent/R/I_Dist_200_LN_14_LD_30_RN_6_RD_9_1.png","img2/100/Incongruent/R/I_Dist_100_LN_12_LD_30_RN_2_RD_4_1.png","img2/100/Congruent/R/C_Dist_100_LN_4_LD_8_RN_6_RD_10_1.png","img2/200/Incongruent/L/I_Dist_200_LN_7_LD_10_RN_14_RD_28_0.png","img2/200/Congruent/L/C_Dist_200_LN_9_LD_20_RN_4_RD_16_0.png","img2/100/Incongruent/L/I_Dist_100_LN_9_LD_10_RN_20_RD_25_0.png","img2/100/Congruent/L/C_Dist_100_LN_8_LD_16_RN_2_RD_5_0.png","img2/300/Incongruent/R/I_Dist_300_LN_13_LD_26_RN_12_RD_15_1.png","img2/200/Incongruent/R/I_Dist_200_LN_14_LD_30_RN_6_RD_9_1.png","img2/100/Congruent/L/C_Dist_100_LN_11_LD_22_RN_4_RD_10_0.png","img2/300/Congruent/R/C_Dist_300_LN_5_LD_25_RN_6_RD_12_1.png","img2/300/Congruent/R/C_Dist_300_LN_1_LD_5_RN_11_RD_22_1.png","img2/300/Incongruent/R/I_Dist_300_LN_4_LD_20_RN_2_RD_4_1.png","img2/100/Incongruent/R/I_Dist_100_LN_8_LD_20_RN_1_RD_2_1.png","img2/300/Incongruent/L/I_Dist_300_LN_8_LD_10_RN_14_RD_28_0.png","img2/100/Incongruent/R/I_Dist_100_LN_13_LD_26_RN_12_RD_20_1.png","img2/200/Incongruent/R/I_Dist_200_LN_14_LD_30_RN_12_RD_18_1.png","img2/300/Congruent/L/C_Dist_300_LN_11_LD_22_RN_2_RD_10_0.png","img2/200/Congruent/L/C_Dist_200_LN_4_LD_10_RN_3_RD_15_0.png","img2/300/Incongruent/L/I_Dist_300_LN_3_LD_6_RN_4_RD_20_0.png","img2/200/Incongruent/L/I_Dist_200_LN_7_LD_10_RN_8_RD_16_0.png","img2/300/Congruent/R/C_Dist_300_LN_7_LD_14_RN_20_RD_25_1.png","img2/200/Incongruent/L/I_Dist_200_LN_1_LD_3_RN_2_RD_15_0.png","img2/100/Incongruent/L/I_Dist_100_LN_4_LD_8_RN_8_RD_20_0.png","img2/300/Congruent/L/C_Dist_300_LN_24_LD_30_RN_2_RD_4_0.png","img2/300/Congruent/L/C_Dist_300_LN_4_LD_5_RN_2_RD_4_0.png","img2/300/Congruent/L/C_Dist_300_LN_20_LD_25_RN_8_RD_16_0.png","img2/100/Congruent/L/C_Dist_100_LN_10_LD_25_RN_3_RD_10_0.png","img2/100/Congruent/L/C_Dist_100_LN_6_LD_20_RN_5_RD_25_0.png","img2/100/Incongruent/R/I_Dist_100_LN_9_LD_18_RN_6_RD_10_1.png","img2/300/Congruent/R/C_Dist_300_LN_1_LD_5_RN_3_RD_6_1.png","img2/300/Incongruent/R/I_Dist_300_LN_4_LD_20_RN_2_RD_4_1.png","img2/200/Congruent/R/C_Dist_200_LN_9_LD_30_RN_13_RD_26_1.png","img2/100/Congruent/R/C_Dist_100_LN_2_LD_5_RN_6_RD_12_1.png","img2/200/Incongruent/L/I_Dist_200_LN_7_LD_10_RN_8_RD_16_0.png","img2/300/Incongruent/L/I_Dist_300_LN_1_LD_2_RN_3_RD_15_0.png","img2/100/Incongruent/L/I_Dist_100_LN_3_LD_9_RN_7_RD_30_0.png","img2/300/Incongruent/R/I_Dist_300_LN_4_LD_20_RN_2_RD_4_1.png","img2/300/Congruent/L/C_Dist_300_LN_24_LD_30_RN_2_RD_4_0.png","img2/300/Incongruent/L/I_Dist_300_LN_7_LD_10_RN_8_RD_20_0.png","img2/100/Incongruent/R/I_Dist_100_LN_12_LD_30_RN_2_RD_4_1.png","img2/100/Congruent/L/C_Dist_100_LN_8_LD_16_RN_2_RD_5_0.png","img2/200/Incongruent/L/I_Dist_200_LN_1_LD_2_RN_3_RD_10_0.png"],"dist100_C":[["C_Dist_100_LN_10_LD_25_RN_3_RD_10_0.png","C_Dist_100_LN_11_LD_22_RN_4_RD_10_0.png","C_Dist_100_LN_11_LD_22_RN_6_RD_15_0.png","C_Dist_100_LN_15_LD_25_RN_13_RD_26_0.png","C_Dist_100_LN_3_LD_6_RN_2_RD_5_0.png","C_Dist_100_LN_6_LD_20_RN_5_RD_25_0.png","C_Dist_100_LN_8_LD_16_RN_2_RD_5_0.png","C_Dist_100_LN_9_LD_15_RN_8_RD_16_0.png"],["C_Dist_100_LN_1_LD_2_RN_18_RD_30_1.png","C_Dist_100_LN_1_LD_2_RN_3_RD_5_1.png","C_Dist_100_LN_12_LD_30_RN_13_RD_26_1.png","C_Dist_100_LN_2_LD_5_RN_11_RD_22_1.png","C_Dist_100_LN_2_LD_5_RN_6_RD_12_1.png","C_Dist_100_LN_3_LD_20_RN_4_RD_16_1.png","C_Dist_100_LN_4_LD_10_RN_15_RD_30_1.png","C_Dist_100_LN_4_LD_8_RN_6_RD_10_1.png","C_Dist_100_LN_6_LD_12_RN_15_RD_25_1.png","C_Dist_100_LN_7_LD_14_RN_15_RD_25_1.png","C_Dist_100_LN_7_LD_14_RN_9_RD_15_1.png"]],"dist100_I":[["I_Dist_100_LN_1_LD_2_RN_8_RD_20_0.png","I_Dist_100_LN_2_LD_4_RN_6_RD_15_0.png","I_Dist_100_LN_2_LD_4_RN_8_RD_20_0.png","I_Dist_100_LN_3_LD_5_RN_11_RD_22_0.png","I_Dist_100_LN_3_LD_5_RN_8_RD_16_0.png","I_Dist_100_LN_3_LD_6_RN_4_RD_10_0.png","I_Dist_100_LN_3_LD_9_RN_7_RD_30_0.png","I_Dist_100_LN_4_LD_8_RN_8_RD_20_0.png","I_Dist_100_LN_6_LD_10_RN_11_RD_22_0.png","I_Dist_100_LN_6_LD_10_RN_13_RD_26_0.png","I_Dist_100_LN_6_LD_10_RN_7_RD_14_0.png","I_Dist_100_LN_9_LD_10_RN_20_RD_25_0.png","I_Dist_100_LN_9_LD_15_RN_13_RD_26_0.png","I_Dist_100_LN_9_LD_15_RN_14_RD_28_0.png"],["I_Dist_100_LN_10_LD_25_RN_8_RD_16_1.png","I_Dist_100_LN_10_LD_25_RN_9_RD_18_1.png","I_Dist_100_LN_11_LD_22_RN_9_RD_15_1.png","I_Dist_100_LN_12_LD_24_RN_9_RD_15_1.png","I_Dist_100_LN_12_LD_30_RN_2_RD_4_1.png","I_Dist_100_LN_13_LD_26_RN_12_RD_20_1.png","I_Dist_100_LN_13_LD_26_RN_6_RD_10_1.png","I_Dist_100_LN_17_LD_30_RN_10_RD_15_1.png","I_Dist_100_LN_6_LD_12_RN_3_RD_5_1.png","I_Dist_100_LN_8_LD_16_RN_6_RD_10_1.png","I_Dist_100_LN_8_LD_20_RN_1_RD_2_1.png","I_Dist_100_LN_9_LD_18_RN_6_RD_10_1.png"]],"dist100_S":[["E_Dist_100_LN_2_LD_12_RN_2_RD_30_0.png","E_Dist_100_LN_6_LD_10_RN_6_RD_12_0.png"],["E_Dist_100_LN_6_LD_12_RN_6_RD_10_1.png"]],"dist200_C":[["C_Dist_200_LN_11_LD_22_RN_3_RD_10_0.png","C_Dist_200_LN_12_LD_15_RN_6_RD_10_0.png","C_Dist_200_LN_12_LD_20_RN_6_RD_15_0.png","C_Dist_200_LN_14_LD_28_RN_6_RD_20_0.png","C_Dist_200_LN_15_LD_25_RN_4_RD_10_0.png","C_Dist_200_LN_16_LD_20_RN_12_RD_20_0.png","C_Dist_200_LN_16_LD_30_RN_9_RD_27_0.png","C_Dist_200_LN_20_LD_25_RN_9_RD_15_0.png","C_Dist_200_LN_21_LD_30_RN_2_RD_4_0.png","C_Dist_200_LN_4_LD_10_RN_3_RD_15_0.png","C_Dist_200_LN_4_LD_8_RN_3_RD_10_0.png","C_Dist_200_LN_6_LD_15_RN_3_RD_15_0.png","C_Dist_200_LN_7_LD_21_RN_2_RD_15_0.png","C_Dist_200_LN_8_LD_15_RN_2_RD_6_0.png","C_Dist_200_LN_8_LD_15_RN_3_RD_9_0.png","C_Dist_200_LN_8_LD_15_RN_7_RD_21_0.png","C_Dist_200_LN_9_LD_20_RN_4_RD_16_0.png"],["C_Dist_200_LN_1_LD_2_RN_21_RD_30_1.png","C_Dist_200_LN_13_LD_26_RN_14_RD_20_1.png","C_Dist_200_LN_3_LD_10_RN_11_RD_22_1.png","C_Dist_200_LN_3_LD_10_RN_14_RD_28_1.png","C_Dist_200_LN_3_LD_10_RN_7_RD_14_1.png","C_Dist_200_LN_3_LD_12_RN_9_RD_20_1.png","C_Dist_200_LN_3_LD_6_RN_14_RD_20_1.png","C_Dist_200_LN_5_LD_10_RN_14_RD_20_1.png","C_Dist_200_LN_6_LD_12_RN_7_RD_10_1.png","C_Dist_200_LN_6_LD_20_RN_11_RD_22_1.png","C_Dist_200_LN_7_LD_15_RN_18_RD_27_1.png","C_Dist_200_LN_9_LD_30_RN_13_RD_26_1.png"]],"dist200_I":[["I_Dist_200_LN_1_LD_2_RN_3_RD_10_0.png","I_Dist_200_LN_1_LD_3_RN_2_RD_15_0.png","I_Dist_200_LN_3_LD_4_RN_11_RD_20_0.png","I_Dist_200_LN_4_LD_5_RN_6_RD_10_0.png","I_Dist_200_LN_4_LD_6_RN_14_RD_30_0.png","I_Dist_200_LN_7_LD_10_RN_12_RD_24_0.png","I_Dist_200_LN_7_LD_10_RN_14_RD_28_0.png","I_Dist_200_LN_7_LD_10_RN_8_RD_16_0.png"],["I_Dist_200_LN_11_LD_20_RN_3_RD_4_1.png","I_Dist_200_LN_14_LD_30_RN_12_RD_18_1.png","I_Dist_200_LN_14_LD_30_RN_6_RD_9_1.png","I_Dist_200_LN_3_LD_10_RN_1_RD_2_1.png","I_Dist_200_LN_4_LD_30_RN_1_RD_3_1.png","I_Dist_200_LN_6_LD_20_RN_3_RD_6_1.png","I_Dist_200_LN_7_LD_15_RN_4_RD_6_1.png","I_Dist_200_LN_7_LD_15_RN_6_RD_9_1.png","I_Dist_200_LN_9_LD_15_RN_8_RD_10_1.png"]],"dist200_S":[["E_Dist_200_LN_3_LD_6_RN_3_RD_10_0.png"],["E_Dist_200_LN_3_LD_10_RN_3_RD_6_1.png"]],"dist300_C":[["C_Dist_300_LN_11_LD_22_RN_1_RD_5_0.png","C_Dist_300_LN_11_LD_22_RN_2_RD_10_0.png","C_Dist_300_LN_11_LD_22_RN_4_RD_20_0.png","C_Dist_300_LN_12_LD_24_RN_2_RD_10_0.png","C_Dist_300_LN_18_LD_20_RN_9_RD_15_0.png","C_Dist_300_LN_20_LD_25_RN_13_RD_26_0.png","C_Dist_300_LN_20_LD_25_RN_14_RD_28_0.png","C_Dist_300_LN_20_LD_25_RN_5_RD_10_0.png","C_Dist_300_LN_20_LD_25_RN_8_RD_16_0.png","C_Dist_300_LN_20_LD_25_RN_9_RD_18_0.png","C_Dist_300_LN_24_LD_30_RN_2_RD_4_0.png","C_Dist_300_LN_24_LD_30_RN_8_RD_16_0.png","C_Dist_300_LN_3_LD_6_RN_2_RD_10_0.png","C_Dist_300_LN_4_LD_10_RN_1_RD_10_0.png","C_Dist_300_LN_4_LD_5_RN_2_RD_4_0.png","C_Dist_300_LN_8_LD_16_RN_1_RD_5_0.png","C_Dist_300_LN_9_LD_10_RN_3_RD_5_0.png"],["C_Dist_300_LN_1_LD_20_RN_7_RD_20_1.png","C_Dist_300_LN_1_LD_3_RN_19_RD_30_1.png","C_Dist_300_LN_1_LD_30_RN_8_RD_24_1.png","C_Dist_300_LN_1_LD_5_RN_11_RD_22_1.png","C_Dist_300_LN_1_LD_5_RN_3_RD_6_1.png","C_Dist_300_LN_1_LD_5_RN_6_RD_12_1.png","C_Dist_300_LN_2_LD_10_RN_12_RD_24_1.png","C_Dist_300_LN_2_LD_20_RN_10_RD_25_1.png","C_Dist_300_LN_3_LD_12_RN_11_RD_20_1.png","C_Dist_300_LN_3_LD_6_RN_4_RD_5_1.png","C_Dist_300_LN_4_LD_20_RN_13_RD_26_1.png","C_Dist_300_LN_5_LD_25_RN_6_RD_12_1.png","C_Dist_300_LN_5_LD_25_RN_7_RD_14_1.png","C_Dist_300_LN_7_LD_14_RN_20_RD_25_1.png","C_Dist_300_LN_8_LD_15_RN_10_RD_12_1.png"]],"dist300_I":[["I_Dist_300_LN_1_LD_2_RN_2_RD_10_0.png","I_Dist_300_LN_1_LD_2_RN_3_RD_15_0.png","I_Dist_300_LN_2_LD_4_RN_6_RD_30_0.png","I_Dist_300_LN_3_LD_6_RN_4_RD_20_0.png","I_Dist_300_LN_4_LD_5_RN_6_RD_12_0.png","I_Dist_300_LN_4_LD_5_RN_8_RD_16_0.png","I_Dist_300_LN_7_LD_10_RN_8_RD_20_0.png","I_Dist_300_LN_8_LD_10_RN_14_RD_28_0.png","I_Dist_300_LN_8_LD_10_RN_9_RD_18_0.png"],["I_Dist_300_LN_13_LD_26_RN_12_RD_15_1.png","I_Dist_300_LN_4_LD_20_RN_2_RD_4_1.png"]],"dist300_S":[["E_Dist_300_LN_9_LD_12_RN_9_RD_20_0.png"],["E_Dist_300_LN_18_LD_30_RN_18_RD_20_1.png","E_Dist_300_LN_3_LD_10_RN_3_RD_5_1.png","E_Dist_300_LN_9_LD_20_RN_9_RD_12_1.png"]],"dist500_C":[["C_Dist_500_LN_10_LD_13_RN_7_RD_26_0.png","C_Dist_500_LN_10_LD_15_RN_4_RD_24_0.png","C_Dist_500_LN_12_LD_16_RN_3_RD_12_0.png","C_Dist_500_LN_12_LD_18_RN_4_RD_24_0.png","C_Dist_500_LN_15_LD_18_RN_5_RD_15_0.png","C_Dist_500_LN_15_LD_20_RN_1_RD_4_0.png","C_Dist_500_LN_18_LD_27_RN_1_RD_6_0.png","C_Dist_500_LN_20_LD_24_RN_1_RD_3_0.png","C_Dist_500_LN_20_LD_24_RN_3_RD_9_0.png","C_Dist_500_LN_20_LD_24_RN_7_RD_21_0.png","C_Dist_500_LN_20_LD_28_RN_3_RD_14_0.png","C_Dist_500_LN_21_LD_28_RN_6_RD_24_0.png","C_Dist_500_LN_22_LD_28_RN_2_RD_7_0.png","C_Dist_500_LN_25_LD_30_RN_9_RD_27_0.png","C_Dist_500_LN_4_LD_6_RN_1_RD_6_0.png","C_Dist_500_LN_5_LD_6_RN_2_RD_6_0.png","C_Dist_500_LN_6_LD_9_RN_1_RD_6_0.png","C_Dist_500_LN_7_LD_10_RN_1_RD_5_0.png","C_Dist_500_LN_8_LD_12_RN_1_RD_6_0.png","C_Dist_500_LN_8_LD_12_RN_4_RD_24_0.png"],["C_Dist_500_LN_1_LD_4_RN_12_RD_16_1.png","C_Dist_500_LN_1_LD_4_RN_9_RD_12_1.png","C_Dist_500_LN_1_LD_9_RN_11_RD_18_1.png","C_Dist_500_LN_10_LD_24_RN_22_RD_24_1.png","C_Dist_500_LN_2_LD_12_RN_10_RD_15_1.png","C_Dist_500_LN_2_LD_12_RN_12_RD_18_1.png","C_Dist_500_LN_2_LD_12_RN_4_RD_6_1.png","C_Dist_500_LN_2_LD_24_RN_7_RD_12_1.png","C_Dist_500_LN_2_LD_5_RN_18_RD_20_1.png","C_Dist_500_LN_2_LD_5_RN_9_RD_10_1.png","C_Dist_500_LN_2_LD_8_RN_12_RD_16_1.png","C_Dist_500_LN_2_LD_8_RN_21_RD_28_1.png","C_Dist_500_LN_3_LD_10_RN_4_RD_5_1.png","C_Dist_500_LN_3_LD_12_RN_15_RD_20_1.png","C_Dist_500_LN_3_LD_30_RN_6_RD_10_1.png","C_Dist_500_LN_3_LD_8_RN_14_RD_16_1.png","C_Dist_500_LN_4_LD_16_RN_15_RD_20_1.png","C_Dist_500_LN_4_LD_24_RN_12_RD_18_1.png","C_Dist_500_LN_5_LD_14_RN_6_RD_7_1.png","C_Dist_500_LN_7_LD_21_RN_20_RD_24_1.png","C_Dist_500_LN_7_LD_28_RN_12_RD_16_1.png","C_Dist_500_LN_7_LD_28_RN_9_RD_12_1.png","C_Dist_500_LN_9_LD_27_RN_20_RD_24_1.png"]],"dist500_I":[["I_Dist_500_LN_2_LD_3_RN_4_RD_24_0.png","I_Dist_500_LN_5_LD_6_RN_6_RD_18_0.png","I_Dist_500_LN_7_LD_8_RN_9_RD_24_0.png"],["I_Dist_500_LN_7_LD_21_RN_5_RD_6_1.png"]],"dist500_S":[["E_Dist_500_LN_6_LD_8_RN_6_RD_24_0.png"],["E_Dist_500_LN_2_LD_12_RN_2_RD_3_1.png","E_Dist_500_LN_6_LD_24_RN_6_RD_8_1.png"]]}},{"start_time":1552327523793,"click_time":1552327524185,"finger_time":1552327524105,"fix_duration":1166.9647332168638,"trial":1,"RT":312,"MT":80,"sideResp":1,"stimulus":[],"xmouse":[817,817,817,817,817,817,817,817,817,817,817,817,817,817,814,795,758,709,524,454],"ymouse":[537,537,537,537,537,537,537,537,537,537,537,537,537,537,518,453,376,291,119,58],"timestamp_mouse":[11,32,52,71,92,112,131,151,172,192,212,233,251,272,291,312,331,352,371,391],"xSR":741.5,"ySR":469.95,"xT1":424.9,"yT1":0,"xT2":1058.1,"yT2":0,"toosoon":0,"cond_shown":"Incongruent","ratio_trial":300,"L_num":13,"L_den":26,"R_num":12,"R_den":15,"correct_side":2,"subjID":"isabellagomez13","gender":"1","school":"4","age":"9"},{"start_time":1552327528993,"click_time":1552327529605,"finger_time":1552327529364,"fix_duration":1365.5815916744712,"trial":2,"RT":371,"MT":241,"sideResp":1,"stimulus":[],"xmouse":[772,772,772,772,772,772,772,772,772,772,772,772,772,773,774,775,775,764,752,740,721,702,671,656,632,605,581,550,538,521,490],"ymouse":[550,550,550,550,550,550,550,550,550,550,550,550,550,550,543,538,526,490,468,447,423,403,376,365,344,303,263,192,164,124,28],"timestamp_mouse":[13,39,52,71,91,111,132,151,173,191,212,232,251,272,291,312,332,351,371,391,411,431,452,471,491,512,531,552,571,591,612],"xSR":741.5,"ySR":469.95,"xT1":424.9,"yT1":0,"xT2":1058.1,"yT2":0,"toosoon":0,"cond_shown":"Incongruent","ratio_trial":200,"L_num":4,"L_den":6,"R_num":14,"R_den":30,"correct_side":1,"subjID":"isabellagomez13","gender":"1","school":"4","age":"9"},{"start_time":1552327531933,"click_time":1552327532564,"finger_time":1552327532205,"fix_duration":747.3561142093345,"trial":3,"RT":272,"MT":359,"sideResp":1,"stimulus":[],"xmouse":[790,790,790,790,790,790,790,790,790,790,788,777,758,722,666,541,482,468,463,462,463,463,464,464,464,464,464,464,464,465,465,467],"ymouse":[499,499,499,499,499,499,499,499,499,499,499,497,479,449,401,283,211,178,158,147,140,138,130,117,108,104,103,103,103,101,101,99],"timestamp_mouse":[13,44,52,71,92,112,132,151,172,191,212,231,252,272,292,313,331,351,371,395,412,432,451,472,492,511,531,551,571,591,612,631],"xSR":741.5,"ySR":469.95,"xT1":424.9,"yT1":0,"xT2":1058.1,"yT2":0,"toosoon":0,"cond_shown":"Congruent","ratio_trial":100,"L_num":15,"L_den":25,"R_num":13,"R_den":26,"correct_side":1,"subjID":"isabellagomez13","gender":"1","school":"4","age":"9"},{"start_time":1552327534915,"click_time":1552327535545,"finger_time":1552327535145,"fix_duration":1287.8267708832593,"trial":4,"RT":230,"MT":400,"sideResp":1,"stimulus":[],"xmouse":[793,793,793,792,791,790,785,779,775,769,760,710,655,592,530,474,420,420,420,420,420,420,420,423,432,442,453,455,456,456,456,456],"ymouse":[510,510,510,510,510,510,510,509,508,504,496,437,372,300,225,164,119,119,119,119,119,119,119,117,117,116,109,107,106,106,104,98],"timestamp_mouse":[9,29,50,71,89,110,129,149,169,190,210,230,249,269,289,309,330,349,369,389,409,429,450,469,489,510,530,549,570,590,609,630],"xSR":741.5,"ySR":469.95,"xT1":424.9,"yT1":0,"xT2":1058.1,"yT2":0,"toosoon":0,"cond_shown":"Incongruent","ratio_trial":300,"L_num":8,"L_den":10,"R_num":9,"R_den":18,"correct_side":1,"subjID":"isabellagomez13","gender":"1","school":"4","age":"9"},{"start_time":1552327539151,"click_time":1552327540066,"finger_time":1552327539505,"fix_duration":345.89110727466675,"trial":5,"RT":354,"MT":561,"sideResp":1,"stimulus":[],"xmouse":[839,839,840,840,832,821,815,812,812,812,812,811,810,808,806,798,787,767,730,572,478,415,401,399,399,399,399,398,398,398,401,416,428,435,441,441,441,443,444,447,447,447,447,448,448,450],"ymouse":[547,547,547,549,559,563,563,563,563,563,563,560,554,546,538,508,490,462,423,317,263,229,218,216,216,215,215,213,213,213,211,200,188,176,165,162,160,155,150,130,117,110,105,101,100,98],"timestamp_mouse":[32,33,53,73,93,114,133,154,174,193,213,234,254,274,293,314,333,354,374,395,413,434,453,473,494,513,533,554,573,593,613,634,654,674,694,713,733,754,774,794,813,834,853,874,894,915],"xSR":741.5,"ySR":469.95,"xT1":424.9,"yT1":0,"xT2":1058.1,"yT2":0,"toosoon":0,"cond_shown":"Congruent","ratio_trial":100,"L_num":1,"L_den":2,"R_num":18,"R_den":30,"correct_side":2,"subjID":"isabellagomez13","gender":"1","school":"4","age":"9"},{"start_time":1552327548476,"click_time":1552327549145,"finger_time":1552327548764,"fix_duration":250,"trial":6,"RT":288,"MT":381,"sideResp":2,"stimulus":[],"xmouse":[790,790,790,790,790,790,790,790,790,790,790,790,790,793,818,858,901,948,981,1007,1012,1015,1015,1016,1025,1042,1053,1061,1070,1077,1081,1088,1094,1104],"ymouse":[474,474,474,474,474,474,474,474,474,474,474,474,474,473,458,424,388,334,282,207,171,158,156,155,152,144,137,130,122,116,112,107,102,91],"timestamp_mouse":[10,28,49,68,89,108,128,149,168,189,208,229,248,269,288,309,335,348,369,389,408,428,449,468,488,508,528,549,569,588,608,629,649,668],"xSR":741.5,"ySR":469.95,"xT1":424.9,"yT1":0,"xT2":1058.1,"yT2":0,"toosoon":0,"cond_shown":"Congruent","ratio_trial":200,"L_num":3,"L_den":10,"R_num":14,"R_den":28,"correct_side":2,"subjID":"isabellagomez13","gender":"1","school":"4","age":"9"},{"start_time":1552327553326,"click_time":1552327553925,"finger_time":1552327553684,"fix_duration":519.7681707073725,"trial":7,"RT":358,"MT":241,"sideResp":2,"stimulus":[],"xmouse":[803,803,803,803,803,803,803,803,803,803,803,803,803,803,803,802,809,820,839,886,1019,1045,1056,1067,1072,1079,1085,1088,1097,1108],"ymouse":[535,535,535,535,535,535,535,535,535,535,535,535,535,535,535,528,484,449,394,330,209,179,166,152,142,128,119,115,105,94],"timestamp_mouse":[20,38,59,78,98,119,140,158,178,199,219,238,259,278,300,318,338,358,378,398,419,438,458,479,498,520,538,558,578,598],"xSR":741.5,"ySR":469.95,"xT1":424.9,"yT1":0,"xT2":1058.1,"yT2":0,"toosoon":0,"cond_shown":"Congruent","ratio_trial":200,"L_num":20,"L_den":25,"R_num":9,"R_den":15,"correct_side":1,"subjID":"isabellagomez13","gender":"1","school":"4","age":"9"},{"start_time":1552327555891,"click_time":1552327556664,"finger_time":1552327556105,"fix_duration":464.19203405649733,"trial":8,"RT":214,"MT":559,"sideResp":1,"stimulus":[],"xmouse":[816,816,816,816,816,816,816,816,802,778,746,710,659,636,617,603,596,591,590,590,589,589,583,576,560,546,533,525,525,525,525,525,525,525,525,525,525,525,524],"ymouse":[531,531,531,531,531,531,531,531,514,488,455,420,369,342,317,298,285,271,260,251,241,232,190,161,122,100,83,71,71,71,71,71,71,71,71,71,71,71,70],"timestamp_mouse":[14,37,54,73,93,113,133,153,174,193,214,233,254,273,294,313,333,354,373,393,414,433,454,473,495,514,534,553,573,593,613,634,654,673,695,713,734,753,773],"xSR":741.5,"ySR":469.95,"xT1":424.9,"yT1":0,"xT2":1058.1,"yT2":0,"toosoon":0,"cond_shown":"Incongruent","ratio_trial":200,"L_num":1,"L_den":3,"R_num":2,"R_den":15,"correct_side":1,"subjID":"isabellagomez13","gender":"1","school":"4","age":"9"},{"start_time":1552327559516,"click_time":1552327560404,"finger_time":1552327559924,"fix_duration":1450.0946185752337,"trial":9,"RT":408,"MT":480,"sideResp":1,"stimulus":[],"xmouse":[766,766,766,766,766,766,766,766,766,766,766,766,766,766,766,766,766,766,766,760,741,689,510,456,438,432,432,435,435,436,438,442,444,447,452,459,465,467,467,467,467,467,468,469,473],"ymouse":[516,516,516,516,516,516,516,516,516,516,516,516,516,516,516,516,516,516,516,511,484,415,228,171,148,133,126,125,125,125,125,123,122,120,118,114,109,105,103,102,102,102,102,101,98],"timestamp_mouse":[10,39,48,68,88,108,130,148,169,188,208,229,249,268,288,309,329,348,368,389,408,429,448,469,488,509,528,548,569,589,609,629,648,669,689,708,729,748,768,788,808,829,848,868,888],"xSR":741.5,"ySR":469.95,"xT1":424.9,"yT1":0,"xT2":1058.1,"yT2":0,"toosoon":0,"cond_shown":"Congruent","ratio_trial":200,"L_num":3,"L_den":6,"R_num":14,"R_den":20,"correct_side":2,"subjID":"isabellagomez13","gender":"1","school":"4","age":"9"},{"start_time":1552327564672,"click_time":1552327565145,"finger_time":1552327564824,"fix_duration":365.73109460750584,"trial":10,"RT":152,"MT":321,"sideResp":2,"stimulus":[],"xmouse":[795,795,795,796,796,797,799,801,806,809,814,819,828,849,867,889,915,943,994,1028,1040,1047,1053,1063],"ymouse":[502,502,502,497,492,484,471,456,420,399,382,366,347,301,265,230,194,164,116,93,83,78,75,67],"timestamp_mouse":[12,38,52,72,92,113,132,152,173,192,212,232,252,272,292,312,332,353,373,392,412,434,453,472],"xSR":741.5,"ySR":469.95,"xT1":424.9,"yT1":0,"xT2":1058.1,"yT2":0,"toosoon":0,"cond_shown":"Incongruent","ratio_trial":200,"L_num":4,"L_den":5,"R_num":6,"R_den":10,"correct_side":1,"subjID":"isabellagomez13","gender":"1","school":"4","age":"9"},{"start_time":1552327571765,"click_time":1552327572284,"finger_time":1552327572125,"fix_duration":1019.6503408174542,"trial":11,"RT":360,"MT":159,"sideResp":1,"stimulus":[],"xmouse":[794,794,794,794,794,794,794,794,794,794,794,794,794,794,794,786,773,749,707,596,543,503,488,481,477,477,479],"ymouse":[511,511,511,511,511,511,511,511,511,511,511,511,511,511,511,510,497,477,437,315,249,207,186,170,138,107,84],"timestamp_mouse":[7,21,39,59,79,100,121,139,159,180,200,219,240,261,280,300,319,339,360,379,399,420,439,459,479,499,519],"xSR":741.5,"ySR":469.95,"xT1":424.9,"yT1":0,"xT2":1058.1,"yT2":0,"toosoon":0,"cond_shown":"Congruent","ratio_trial":300,"L_num":24,"L_den":30,"R_num":8,"R_den":16,"correct_side":1,"subjID":"isabellagomez13","gender":"1","school":"4","age":"9"},{"start_time":1552327573884,"click_time":1552327574266,"finger_time":1552327574205,"fix_duration":416.4718420470821,"trial":12,"RT":321,"MT":61,"sideResp":1,"stimulus":[],"xmouse":[783,783,783,783,783,783,783,783,783,783,783,783,783,783,778,773,762,739,593,518],"ymouse":[512,512,512,512,512,512,512,512,512,512,512,512,512,512,498,478,451,395,159,58],"timestamp_mouse":[9,21,46,62,81,101,122,140,162,180,201,222,241,260,280,301,321,341,362,381],"xSR":741.5,"ySR":469.95,"xT1":424.9,"yT1":0,"xT2":1058.1,"yT2":0,"toosoon":0,"cond_shown":"Congruent","ratio_trial":100,"L_num":15,"L_den":25,"R_num":13,"R_den":26,"correct_side":1,"subjID":"isabellagomez13","gender":"1","school":"4","age":"9"},{"start_time":1552327576490,"click_time":1552327577106,"finger_time":1552327576845,"fix_duration":824.3682498494658,"trial":13,"RT":355,"MT":261,"sideResp":1,"stimulus":[],"xmouse":[769,769,769,769,769,769,769,769,769,769,769,769,769,769,769,767,760,677,619,562,562,562,562,562,562,562,562,562,562,562,509],"ymouse":[501,501,501,501,501,501,501,501,501,501,501,501,501,501,501,493,478,329,197,65,65,65,65,65,65,65,65,65,65,65,1],"timestamp_mouse":[16,35,55,75,96,114,136,156,174,194,214,236,255,276,295,315,335,355,375,395,416,435,455,474,494,514,535,555,575,596,616],"xSR":741.5,"ySR":469.95,"xT1":424.9,"yT1":0,"xT2":1058.1,"yT2":0,"toosoon":0,"cond_shown":"Incongruent","ratio_trial":200,"L_num":7,"L_den":15,"R_num":4,"R_den":6,"correct_side":2,"subjID":"isabellagomez13","gender":"1","school":"4","age":"9"},{"start_time":1552327583812,"click_time":1552327584466,"finger_time":1552327584145,"fix_duration":1145.2328841792921,"trial":14,"RT":333,"MT":321,"sideResp":2,"stimulus":[],"xmouse":[821,821,821,821,821,821,821,821,821,821,821,821,821,821,821,822,859,916,1000,1088,1149,1220,1242,1245,1245,1245,1245,1245,1245,1244,1237,1170,1120],"ymouse":[546,546,546,546,546,546,546,546,546,546,546,546,546,546,546,544,492,439,363,293,236,145,113,109,109,109,109,109,109,108,105,64,28],"timestamp_mouse":[13,38,52,73,94,114,132,152,174,194,213,234,253,273,294,313,333,353,373,393,413,434,452,473,493,514,533,553,572,592,613,634,654],"xSR":741.5,"ySR":469.95,"xT1":424.9,"yT1":0,"xT2":1058.1,"yT2":0,"toosoon":0,"cond_shown":"Incongruent","ratio_trial":300,"L_num":13,"L_den":26,"R_num":12,"R_den":15,"correct_side":2,"subjID":"isabellagomez13","gender":"1","school":"4","age":"9"},{"start_time":1552327595167,"click_time":1552327595925,"finger_time":1552327595364,"fix_duration":680.2393614673575,"trial":15,"RT":197,"MT":561,"sideResp":1,"stimulus":[],"xmouse":[790,791,792,795,796,797,798,800,803,806,808,810,811,814,814,814,810,804,794,788,780,769,758,744,736,724,713,701,668,651,632,620,614,606,593,570,514,446],"ymouse":[533,528,523,513,504,499,493,486,475,468,461,455,450,442,430,419,405,389,366,352,338,325,311,293,284,269,257,242,207,191,173,159,149,137,131,124,103,86],"timestamp_mouse":[18,42,58,77,99,117,138,158,178,197,218,237,258,279,297,317,337,358,378,397,418,438,457,478,498,518,539,558,579,598,617,637,658,679,697,718,738,758],"xSR":741.5,"ySR":469.95,"xT1":424.9,"yT1":0,"xT2":1058.1,"yT2":0,"toosoon":0,"cond_shown":"Incongruent","ratio_trial":100,"L_num":8,"L_den":20,"R_num":1,"R_den":2,"correct_side":2,"subjID":"isabellagomez13","gender":"1","school":"4","age":"9"},{"start_time":1552327602012,"click_time":1552327602446,"finger_time":1552327602345,"fix_duration":803.5691941850714,"trial":16,"RT":333,"MT":101,"sideResp":2,"stimulus":[],"xmouse":[809,809,809,809,809,809,809,809,809,809,809,809,809,809,812,818,864,923,983,1031,1068,1100],"ymouse":[524,524,524,524,524,524,524,524,524,524,524,524,524,524,519,512,441,337,247,177,113,57],"timestamp_mouse":[21,58,58,72,94,114,134,152,172,194,214,232,252,273,294,313,333,352,373,393,413,433],"xSR":741.5,"ySR":469.95,"xT1":424.9,"yT1":0,"xT2":1058.1,"yT2":0,"toosoon":0,"cond_shown":"Incongruent","ratio_trial":200,"L_num":6,"L_den":20,"R_num":3,"R_den":6,"correct_side":2,"subjID":"isabellagomez13","gender":"1","school":"4","age":"9"},{"start_time":1552327604003,"click_time":1552327604685,"finger_time":1552327604304,"fix_duration":535.1284696216718,"trial":17,"RT":301,"MT":381,"sideResp":1,"stimulus":[],"xmouse":[786,786,786,786,786,786,786,786,786,786,786,785,784,778,771,754,732,676,641,610,598,593,591,591,591,591,591,591,591,591,590,590,559,530,512],"ymouse":[523,523,523,523,523,523,523,522,521,521,520,518,512,499,481,441,381,254,168,100,81,71,65,65,65,65,65,65,65,65,64,64,63,63,63],"timestamp_mouse":[6,21,42,62,82,103,121,142,162,182,201,222,241,262,281,301,322,341,362,383,402,423,443,463,482,503,522,542,562,583,602,622,642,662,682],"xSR":741.5,"ySR":469.95,"xT1":424.9,"yT1":0,"xT2":1058.1,"yT2":0,"toosoon":0,"cond_shown":"Congruent","ratio_trial":100,"L_num":11,"L_den":22,"R_num":4,"R_den":10,"correct_side":1,"subjID":"isabellagomez13","gender":"1","school":"4","age":"9"},{"start_time":1552327606907,"click_time":1552327607446,"finger_time":1552327607205,"fix_duration":1141.6540262207936,"trial":18,"RT":298,"MT":241,"sideResp":2,"stimulus":[],"xmouse":[771,771,771,771,771,771,771,771,771,771,771,771,777,804,855,927,1107,1214,1226,1230,1230,1231,1231,1228,1215,1192,1132],"ymouse":[508,508,508,508,508,508,508,508,508,508,508,508,508,486,442,385,211,105,94,89,88,87,87,86,82,74,47],"timestamp_mouse":[19,39,59,78,99,118,137,158,178,199,219,238,257,278,298,319,338,359,378,398,418,438,457,477,498,519,539],"xSR":741.5,"ySR":469.95,"xT1":424.9,"yT1":0,"xT2":1058.1,"yT2":0,"toosoon":0,"cond_shown":"Congruent","ratio_trial":300,"L_num":11,"L_den":22,"R_num":4,"R_den":20,"correct_side":1,"subjID":"isabellagomez13","gender":"1","school":"4","age":"9"},{"start_time":1552327612689,"click_time":1552327612985,"finger_time":1552327612884,"fix_duration":1123.9131432253055,"trial":19,"RT":195,"MT":101,"sideResp":1,"stimulus":[],"xmouse":[776,776,776,776,776,776,776,776,772,762,735,691,548,498,473],"ymouse":[490,490,490,490,490,490,490,490,485,469,433,361,194,128,81],"timestamp_mouse":[16,36,55,75,95,115,137,155,176,195,217,236,256,276,296],"xSR":741.5,"ySR":469.95,"xT1":424.9,"yT1":0,"xT2":1058.1,"yT2":0,"toosoon":0,"cond_shown":"Congruent","ratio_trial":300,"L_num":3,"L_den":6,"R_num":4,"R_den":5,"correct_side":2,"subjID":"isabellagomez13","gender":"1","school":"4","age":"9"},{"start_time":1552327615634,"click_time":1552327615946,"finger_time":1552327615826,"fix_duration":706.0338344271295,"trial":20,"RT":192,"MT":120,"sideResp":2,"stimulus":[],"xmouse":[776,776,776,776,776,776,776,780,791,811,896,967,1000,1019,1036,1099],"ymouse":[510,510,510,510,510,510,510,509,490,454,298,165,102,68,44,9],"timestamp_mouse":[10,31,52,72,90,112,130,151,171,192,212,232,251,271,291,312],"xSR":741.5,"ySR":469.95,"xT1":424.9,"yT1":0,"xT2":1058.1,"yT2":0,"toosoon":0,"cond_shown":"Congruent","ratio_trial":300,"L_num":3,"L_den":6,"R_num":4,"R_den":5,"correct_side":2,"subjID":"isabellagomez13","gender":"1","school":"4","age":"9"},{"start_time":1552327620762,"click_time":1552327621605,"finger_time":1552327621084,"fix_duration":696.7782776642794,"trial":21,"RT":322,"MT":521,"sideResp":1,"stimulus":[],"xmouse":[769,769,769,769,769,769,769,769,769,769,769,769,769,769,769,789,801,801,767,626,626,626,626,626,626,626,626,626,626,626,626,319,324,331,336,344,346,349,354,381,400,416,432],"ymouse":[522,522,522,522,522,522,522,522,522,522,522,522,522,522,522,471,407,328,223,27,27,27,27,27,27,27,27,27,27,27,27,7,14,24,31,41,43,44,44,46,46,43,40],"timestamp_mouse":[9,22,43,63,82,104,124,144,162,184,204,223,242,264,282,304,322,342,362,383,403,424,443,464,483,503,523,543,564,583,604,623,643,662,683,703,722,743,764,783,803,823,843],"xSR":741.5,"ySR":469.95,"xT1":424.9,"yT1":0,"xT2":1058.1,"yT2":0,"toosoon":0,"cond_shown":"Congruent","ratio_trial":300,"L_num":20,"L_den":25,"R_num":13,"R_den":26,"correct_side":1,"subjID":"isabellagomez13","gender":"1","school":"4","age":"9"},{"start_time":1552327622720,"click_time":1552327623785,"finger_time":1552327623525,"fix_duration":435.9325613423364,"trial":22,"RT":805,"MT":260,"sideResp":1,"stimulus":[],"xmouse":[803,803,803,803,803,803,803,803,803,803,803,803,803,803,803,803,803,803,803,803,803,803,803,803,803,803,803,803,803,803,803,803,802,801,800,798,785,770,760,755,753,753,753,753,753,753,744,711,668,619,571,502,484,473],"ymouse":[537,537,537,537,537,537,537,537,537,537,537,537,537,537,537,537,537,537,537,537,537,537,537,537,537,537,535,531,529,526,523,518,517,515,514,512,499,486,476,471,468,468,468,468,468,468,466,442,395,332,261,146,117,94],"timestamp_mouse":[10,41,45,66,85,105,126,145,165,186,205,224,245,265,285,305,326,346,364,386,406,426,445,464,486,506,525,545,564,586,605,625,644,666,685,705,724,746,764,785,805,825,846,865,886,905,925,944,965,984,1004,1025,1044,1065],"xSR":741.5,"ySR":469.95,"xT1":424.9,"yT1":0,"xT2":1058.1,"yT2":0,"toosoon":0,"cond_shown":"Congruent","ratio_trial":200,"L_num":3,"L_den":12,"R_num":9,"R_den":20,"correct_side":2,"subjID":"isabellagomez13","gender":"1","school":"4","age":"9"},{"start_time":1552327642580,"click_time":1552327643045,"finger_time":1552327642664,"fix_duration":553.9761870361128,"trial":23,"RT":84,"MT":381,"sideResp":2,"stimulus":[],"xmouse":[828,828,828,822,812,809,807,807,806,806,805,801,797,784,781,784,792,808,829,887,920,956,985,1065],"ymouse":[508,508,508,481,460,451,446,444,438,431,413,382,331,241,210,191,165,137,102,44,26,14,12,22],"timestamp_mouse":[10,39,45,64,84,104,125,145,164,184,206,225,244,265,284,304,325,344,364,384,405,424,445,465],"xSR":741.5,"ySR":469.95,"xT1":424.9,"yT1":0,"xT2":1058.1,"yT2":0,"toosoon":0,"cond_shown":"Congruent","ratio_trial":200,"L_num":11,"L_den":22,"R_num":3,"R_den":10,"correct_side":1,"subjID":"isabellagomez13","gender":"1","school":"4","age":"9"},{"start_time":1552327661738,"click_time":1552327664865,"finger_time":1552327663844,"fix_duration":250,"trial":24,"RT":2106,"MT":1021,"sideResp":1,"stimulus":[],"xmouse":[787,787,787,787,787,787,787,787,787,787,787,787,787,787,787,787,787,787,787,787,787,787,787,787,787,787,787,787,787,787,787,787,787,787,787,787,787,787,787,787,787,787,787,787,787,787,783,782,782,782,782,782,782,782,782,782,782,782,782,782,782,782,782,782,782,782,782,782,782,782,782,782,782,782,782,782,782,782,782,782,782,782,782,782,782,782,782,782,782,782,782,782,782,782,782,782,782,782,782,782,782,777,770,754,742,741,741,741,741,741,741,741,741,741,741,741,741,741,741,735,668,641,641,641,641,641,641,641,641,181,159,159,161,164,172,190,373,452,479,480,481,482,483,484,484,484,483,482,482,482,482,482,482,482,482,482,483],"ymouse":[479,479,479,479,479,479,479,479,479,479,479,479,479,479,479,479,479,479,479,479,479,479,479,479,479,479,479,479,479,479,479,479,479,479,479,479,479,479,479,479,479,479,479,479,479,479,478,478,478,478,478,478,478,478,478,478,478,478,478,478,478,478,478,478,478,478,478,478,478,478,478,478,478,478,478,478,478,478,478,478,478,478,478,478,478,478,478,478,478,478,478,478,478,478,478,478,478,478,478,478,478,480,485,500,516,521,521,521,521,521,521,521,521,521,521,521,521,521,459,333,75,17,17,17,17,17,17,17,17,18,46,50,54,55,57,63,157,185,190,190,188,183,170,161,149,123,116,115,115,115,113,113,112,112,110,104,99],"timestamp_mouse":[9,28,51,67,87,107,128,146,167,188,206,227,246,268,287,308,327,346,366,386,406,427,446,468,486,507,528,547,567,587,607,628,647,668,687,707,726,748,767,786,807,828,847,868,888,906,927,948,967,986,1007,1026,1046,1068,1088,1107,1128,1147,1167,1188,1207,1227,1247,1268,1287,1307,1327,1348,1367,1387,1407,1428,1448,1466,1486,1507,1528,1546,1568,1587,1606,1627,1646,1667,1688,1707,1727,1747,1766,1787,1807,1828,1846,1866,1886,1907,1928,1948,1968,1987,2006,2027,2047,2067,2087,2106,2127,2148,2167,2188,2207,2228,2247,2266,2288,2307,2328,2346,2367,2387,2407,2427,2447,2467,2487,2507,2527,2548,2568,2588,2607,2628,2648,2667,2688,2706,2728,2748,2767,2787,2806,2826,2847,2867,2887,2907,2928,2946,2966,2986,3007,3027,3048,3067,3088,3107,3126],"xSR":741.5,"ySR":469.95,"xT1":424.9,"yT1":0,"xT2":1058.1,"yT2":0,"toosoon":0,"cond_shown":"Congruent","ratio_trial":200,"L_num":3,"L_den":10,"R_num":11,"R_den":22,"correct_side":2,"subjID":"isabellagomez13","gender":"1","school":"4","age":"9"},{"start_time":1552327670485,"click_time":1552327670805,"finger_time":1552327670624,"fix_duration":1239.7532492511045,"trial":25,"RT":139,"MT":181,"sideResp":2,"stimulus":[],"xmouse":[786,786,786,786,786,786,792,812,912,976,999,1009,1015,1029,1041,1058,1072],"ymouse":[511,511,511,511,511,511,499,464,288,186,159,147,139,121,105,86,70],"timestamp_mouse":[10,21,43,60,80,101,119,139,160,179,199,220,240,259,280,300,320],"xSR":741.5,"ySR":469.95,"xT1":424.9,"yT1":0,"xT2":1058.1,"yT2":0,"toosoon":0,"cond_shown":"Congruent","ratio_trial":100,"L_num":1,"L_den":2,"R_num":18,"R_den":30,"correct_side":2,"subjID":"isabellagomez13","gender":"1","school":"4","age":"9"},{"start_time":1552327674467,"click_time":1552327675085,"finger_time":1552327674724,"fix_duration":899.9464955996789,"trial":26,"RT":257,"MT":361,"sideResp":2,"stimulus":[],"xmouse":[768,768,768,768,768,768,768,768,768,768,770,780,793,844,898,952,1013,1060,1102,1110,1114,1118,1125,1145,1149,1149,1149,1149,1147,1118,1115],"ymouse":[495,495,495,495,495,495,495,495,495,494,489,477,460,398,349,304,258,220,188,177,170,165,159,148,145,142,141,141,138,110,94],"timestamp_mouse":[19,41,57,79,97,118,139,159,177,198,218,239,257,277,298,318,338,358,378,398,417,438,458,477,497,517,537,557,578,598,617],"xSR":741.5,"ySR":469.95,"xT1":424.9,"yT1":0,"xT2":1058.1,"yT2":0,"toosoon":0,"cond_shown":"Congruent","ratio_trial":100,"L_num":4,"L_den":10,"R_num":15,"R_den":30,"correct_side":2,"subjID":"isabellagomez13","gender":"1","school":"4","age":"9"},{"start_time":1552327677056,"click_time":1552327683085,"finger_time":1552327682385,"fix_duration":1010.4333612044935,"trial":27,"RT":5329,"MT":700,"sideResp":2,"stimulus":[],"xmouse":[799,799,799,799,799,799,799,799,799,799,799,799,799,799,799,799,799,799,799,799,799,799,799,799,799,799,799,799,799,799,799,799,799,799,799,799,799,799,799,799,799,799,799,799,799,799,799,799,799,799,799,799,799,799,799,799,799,799,799,799,799,799,799,799,799,799,799,799,799,799,799,799,799,799,799,799,799,799,799,799,799,799,799,799,799,799,799,799,799,799,799,799,799,799,799,799,799,799,799,799,799,799,799,799,799,799,799,799,799,799,799,799,799,799,799,799,799,799,799,799,799,799,799,799,799,799,799,799,799,799,799,799,799,799,799,799,799,799,799,799,799,799,799,799,799,799,799,799,799,799,799,799,799,799,799,799,799,799,799,799,799,799,799,799,799,799,799,799,799,799,799,799,799,799,799,799,799,799,799,799,799,799,799,799,799,799,799,799,799,799,799,799,799,799,799,799,799,799,799,799,799,799,799,799,799,799,799,799,799,799,799,799,799,799,799,799,799,799,799,799,799,799,799,799,799,799,799,799,799,799,799,799,799,799,799,799,799,799,799,799,799,799,799,799,799,799,799,799,799,799,799,799,799,799,799,799,799,799,799,799,799,799,799,799,803,829,852,862,863,863,863,859,849,829,814,913,1045,1199,1199,1199,1199,1497,1512,1519,1525,1535,1546,1559,1568,1569,1568,1557,1539,1517,1481,1430,1377,1315,1261,1217,1154,1140],"ymouse":[505,505,505,505,505,505,505,505,505,505,505,505,505,505,505,505,505,505,505,505,505,505,505,505,505,505,505,505,505,505,505,505,505,505,505,505,505,505,505,505,505,505,505,505,505,505,505,505,505,505,505,505,505,505,505,505,505,505,505,505,505,505,505,505,505,505,505,505,505,505,505,505,505,505,505,505,505,505,505,505,505,505,505,505,505,505,505,505,505,505,505,505,505,505,505,505,505,505,505,505,505,505,505,505,505,505,505,505,505,505,505,505,505,505,505,505,505,505,505,505,505,505,505,505,505,505,505,505,505,505,505,505,505,505,505,505,505,505,505,505,505,505,505,505,505,505,505,505,505,505,505,505,505,505,505,505,505,505,505,505,505,505,505,505,505,505,505,505,505,505,505,505,505,505,505,505,505,505,505,505,505,505,505,505,505,505,505,505,505,505,505,505,505,505,505,505,505,505,505,505,505,505,505,505,505,505,505,505,505,505,505,505,505,505,505,505,505,505,505,505,505,505,505,505,505,505,505,505,505,505,505,505,505,505,505,505,505,505,505,505,505,505,505,505,505,505,505,505,505,505,505,505,505,505,505,505,505,505,505,505,505,505,505,505,505,504,504,505,505,505,505,505,504,502,499,545,609,684,684,684,684,721,686,651,574,529,491,456,437,426,424,422,416,410,399,385,364,329,292,251,140,94],"timestamp_mouse":[14,37,50,68,89,110,128,148,170,189,208,229,250,269,288,309,329,350,368,389,409,428,449,470,489,510,529,549,568,589,608,629,649,669,689,709,728,750,769,788,810,830,849,868,888,908,929,950,969,989,1008,1029,1050,1070,1089,1110,1128,1148,1168,1190,1209,1228,1249,1270,1289,1309,1328,1350,1369,1389,1409,1428,1449,1469,1489,1508,1529,1549,1570,1589,1608,1628,1650,1670,1688,1709,1729,1748,1770,1789,1809,1829,1848,1870,1889,1909,1929,1948,1970,1988,2010,2028,2048,2070,2089,2110,2129,2149,2169,2189,2209,2229,2248,2269,2288,2308,2330,2350,2369,2388,2409,2428,2450,2468,2489,2510,2529,2549,2570,2588,2609,2630,2648,2668,2690,2709,2729,2750,2768,2789,2810,2830,2849,2868,2888,2909,2928,2949,2969,2989,3010,3029,3049,3069,3089,3109,3129,3149,3169,3188,3209,3229,3249,3269,3288,3310,3328,3348,3369,3388,3410,3429,3449,3470,3490,3510,3529,3550,3569,3589,3608,3629,3649,3670,3688,3709,3728,3750,3770,3789,3809,3830,3850,3869,3889,3908,3928,3950,3970,3988,4009,4030,4049,4070,4089,4110,4129,4148,4169,4189,4210,4230,4249,4268,4289,4310,4330,4348,4369,4389,4409,4428,4449,4468,4489,4508,4528,4550,4570,4589,4608,4628,4649,4668,4690,4709,4729,4750,4769,4789,4808,4830,4848,4869,4888,4908,4929,4948,4969,4989,5009,5028,5049,5070,5089,5110,5128,5148,5170,5189,5209,5228,5248,5270,5290,5309,5329,5349,5369,5390,5409,5429,5449,5469,5488,5509,5529,5549,5569,5589,5609,5629,5648,5669,5688,5710,5729,5749,5769,5789,5808,5829,5849,5870,5889,5908,5929,5948,5968,5988,6009,6029],"xSR":741.5,"ySR":469.95,"xT1":424.9,"yT1":0,"xT2":1058.1,"yT2":0,"toosoon":0,"cond_shown":"Incongruent","ratio_trial":200,"L_num":4,"L_den":30,"R_num":1,"R_den":3,"correct_side":2,"subjID":"isabellagomez13","gender":"1","school":"4","age":"9"},{"start_time":1552327684718,"click_time":1552327685586,"finger_time":1552327685044,"fix_duration":292.9229765027531,"trial":28,"RT":326,"MT":542,"sideResp":1,"stimulus":[],"xmouse":[783,783,783,783,783,783,783,783,783,783,783,783,783,783,783,783,798,822,829,829,829,835,840,847,847,833,753,723,723,723,723,723,723,723,723,723,723,723,723,723,723,723,723,442],"ymouse":[481,481,481,481,481,481,481,481,481,481,481,481,481,481,481,479,443,358,312,268,232,184,162,135,106,74,22,10,10,10,10,10,10,10,10,10,10,10,10,10,10,10,10,3],"timestamp_mouse":[7,27,47,67,87,106,127,146,168,186,206,226,247,266,287,307,326,347,366,386,407,428,447,467,486,508,526,547,567,587,606,626,648,667,686,707,727,747,768,787,807,828,847,867],"xSR":741.5,"ySR":469.95,"xT1":424.9,"yT1":0,"xT2":1058.1,"yT2":0,"toosoon":0,"cond_shown":"Incongruent","ratio_trial":100,"L_num":17,"L_den":30,"R_num":10,"R_den":15,"correct_side":2,"subjID":"isabellagomez13","gender":"1","school":"4","age":"9"},{"start_time":1552327688014,"click_time":1552327688405,"finger_time":1552327688265,"fix_duration":448.823657644404,"trial":29,"RT":251,"MT":140,"sideResp":2,"stimulus":[],"xmouse":[784,784,784,784,784,784,784,784,784,784,784,784,789,803,820,848,951,1013,1070,1121],"ymouse":[474,474,474,474,474,474,474,474,474,474,474,474,468,452,432,402,297,236,155,61],"timestamp_mouse":[21,31,51,70,90,110,130,151,171,191,212,231,251,270,291,311,331,350,371,391],"xSR":741.5,"ySR":469.95,"xT1":424.9,"yT1":0,"xT2":1058.1,"yT2":0,"toosoon":0,"cond_shown":"Incongruent","ratio_trial":200,"L_num":4,"L_den":5,"R_num":6,"R_den":10,"correct_side":1,"subjID":"isabellagomez13","gender":"1","school":"4","age":"9"},{"start_time":1552327702475,"click_time":1552327703024,"finger_time":1552327702706,"fix_duration":1288.8964907903874,"trial":30,"RT":231,"MT":318,"sideResp":2,"stimulus":[],"xmouse":[792,792,792,792,792,793,794,796,800,803,813,846,908,1065,1159,1252,1367,1501,1501,1501,1501,1501,1501,1501,1359,1295,1184,1108],"ymouse":[537,537,537,537,534,532,529,527,517,509,490,436,358,215,155,103,60,29,29,29,29,29,29,29,4,4,4,4],"timestamp_mouse":[13,31,49,69,90,111,130,151,170,190,210,231,250,270,290,310,329,350,372,390,410,431,451,470,490,510,531,549],"xSR":741.5,"ySR":469.95,"xT1":424.9,"yT1":0,"xT2":1058.1,"yT2":0,"toosoon":0,"cond_shown":"Incongruent","ratio_trial":100,"L_num":12,"L_den":30,"R_num":2,"R_den":4,"correct_side":2,"subjID":"isabellagomez13","gender":"1","school":"4","age":"9"},{"start_time":1552327709913,"click_time":1552327710626,"finger_time":1552327710525,"fix_duration":427.56754717375554,"trial":31,"RT":612,"MT":101,"sideResp":2,"stimulus":[],"xmouse":[765,765,765,765,765,765,765,765,765,765,765,765,765,765,765,765,765,765,765,765,765,765,765,765,765,765,765,767,777,796,840,959,1017,1061,1089,1104],"ymouse":[519,519,519,519,519,519,519,519,519,519,519,519,519,519,519,519,519,519,519,519,519,519,519,519,519,519,519,519,506,482,431,291,222,164,120,85],"timestamp_mouse":[21,31,51,72,92,111,132,152,172,191,213,232,253,271,291,311,331,351,373,392,412,433,452,472,492,512,533,552,571,593,612,632,651,672,692,712],"xSR":741.5,"ySR":469.95,"xT1":424.9,"yT1":0,"xT2":1058.1,"yT2":0,"toosoon":0,"cond_shown":"Congruent","ratio_trial":200,"L_num":8,"L_den":15,"R_num":7,"R_den":21,"correct_side":1,"subjID":"isabellagomez13","gender":"1","school":"4","age":"9"},{"start_time":1552327714636,"click_time":1552327715245,"finger_time":1552327714844,"fix_duration":368.1639746222588,"trial":32,"RT":208,"MT":401,"sideResp":1,"stimulus":[],"xmouse":[786,786,786,786,786,786,786,786,784,782,739,713,684,662,642,619,585,554,510,468,408,397,397,397,397,404,417,431,440,451,471],"ymouse":[550,550,550,550,550,550,550,550,543,534,457,412,370,333,299,270,232,205,174,145,104,97,97,97,97,107,112,114,114,114,99],"timestamp_mouse":[13,38,48,69,90,109,129,149,169,189,208,229,248,269,289,309,329,350,369,389,408,429,448,468,489,510,528,549,569,588,609],"xSR":741.5,"ySR":469.95,"xT1":424.9,"yT1":0,"xT2":1058.1,"yT2":0,"toosoon":0,"cond_shown":"Incongruent","ratio_trial":200,"L_num":4,"L_den":30,"R_num":1,"R_den":3,"correct_side":2,"subjID":"isabellagomez13","gender":"1","school":"4","age":"9"},{"start_time":1552327717851,"click_time":1552327719246,"finger_time":1552327718985,"fix_duration":1484.0722559630328,"trial":33,"RT":1134,"MT":261,"sideResp":2,"stimulus":[],"xmouse":[760,760,760,760,760,760,760,760,760,760,760,760,760,760,760,760,760,760,760,760,760,760,760,760,760,760,760,760,760,760,760,760,760,760,760,760,760,760,760,760,760,760,760,760,760,760,760,760,760,760,760,760,760,760,760,780,794,843,894,1011,1095,1139,1164,1184,1200,1201,1202,1202,1202,1135],"ymouse":[510,510,510,510,510,510,510,510,510,510,510,510,510,510,510,510,510,510,510,510,510,510,510,510,510,510,510,510,510,510,510,510,510,510,510,510,510,510,510,510,510,510,510,510,510,510,510,510,510,510,510,510,510,510,510,479,457,370,303,213,159,127,109,92,72,66,62,62,62,57],"timestamp_mouse":[13,45,53,74,95,114,134,154,175,194,214,234,255,273,293,315,333,354,375,395,414,434,454,475,495,514,535,554,574,594,613,633,654,674,694,714,734,755,775,793,813,833,854,873,894,914,935,953,973,994,1014,1035,1055,1073,1094,1113,1134,1153,1175,1194,1213,1234,1254,1274,1294,1313,1334,1355,1375,1394],"xSR":741.5,"ySR":469.95,"xT1":424.9,"yT1":0,"xT2":1058.1,"yT2":0,"toosoon":0,"cond_shown":"Incongruent","ratio_trial":100,"L_num":1,"L_den":2,"R_num":8,"R_den":20,"correct_side":1,"subjID":"isabellagomez13","gender":"1","school":"4","age":"9"},{"start_time":1552327723809,"click_time":1552327727045,"finger_time":1552327726545,"fix_duration":882.6883629994759,"trial":34,"RT":2736,"MT":500,"sideResp":1,"stimulus":[],"xmouse":[759,759,759,759,759,759,759,759,759,759,759,759,759,759,759,759,759,759,759,759,759,759,759,759,759,759,759,759,759,759,759,759,759,759,759,759,759,759,759,759,759,759,759,759,759,759,759,759,759,759,759,759,759,759,759,759,759,759,759,759,759,759,759,759,759,759,759,759,759,759,759,759,759,759,759,759,759,759,759,759,759,759,759,759,759,759,759,759,759,759,759,759,759,759,759,759,759,759,759,759,759,759,759,759,759,759,759,759,759,759,759,759,759,759,759,759,759,759,759,759,759,759,759,759,759,759,759,759,759,759,759,759,759,759,759,768,822,904,904,904,904,904,904,904,904,904,904,904,904,801,667,514,442,380,337,318,313,313,313,319,361,440],"ymouse":[507,507,507,507,507,507,507,507,507,507,507,507,507,507,507,507,507,507,507,507,507,507,507,507,507,507,507,507,507,507,507,507,507,507,507,507,507,507,507,507,507,507,507,507,507,507,507,507,507,507,507,507,507,507,507,507,507,507,507,507,507,507,507,507,507,507,507,507,507,507,507,507,507,507,507,507,507,507,507,507,507,507,507,507,507,507,507,507,507,507,507,507,507,507,507,507,507,507,507,507,507,507,507,507,507,507,507,507,507,507,507,507,507,507,507,507,507,507,507,507,507,507,507,507,507,507,507,507,507,507,507,507,507,507,507,482,281,35,35,35,35,35,35,35,35,35,35,35,35,8,73,151,189,217,235,242,243,243,243,233,160,30],"timestamp_mouse":[15,36,55,75,97,115,136,155,177,197,216,236,257,276,296,316,335,357,376,397,417,436,456,475,496,516,537,557,576,596,615,636,655,676,697,716,735,756,775,797,816,836,857,877,897,916,935,956,977,996,1016,1036,1056,1075,1097,1116,1135,1155,1175,1196,1217,1236,1257,1276,1295,1315,1337,1356,1375,1396,1415,1435,1457,1476,1495,1517,1535,1557,1576,1595,1615,1635,1655,1677,1695,1715,1736,1757,1776,1795,1817,1836,1855,1875,1896,1915,1936,1957,1977,1997,2016,2036,2056,2077,2096,2116,2136,2156,2178,2196,2217,2237,2256,2276,2297,2315,2337,2356,2376,2395,2417,2435,2457,2477,2497,2515,2537,2557,2575,2596,2617,2636,2657,2676,2696,2716,2736,2756,2776,2796,2815,2835,2856,2875,2895,2916,2936,2955,2976,2996,3016,3036,3055,3076,3097,3117,3136,3156,3177,3197,3216,3236],"xSR":741.5,"ySR":469.95,"xT1":424.9,"yT1":0,"xT2":1058.1,"yT2":0,"toosoon":0,"cond_shown":"Congruent","ratio_trial":300,"L_num":1,"L_den":5,"R_num":6,"R_den":12,"correct_side":2,"subjID":"isabellagomez13","gender":"1","school":"4","age":"9"},{"start_time":1552327751795,"click_time":1552327752145,"finger_time":1552327752024,"fix_duration":1088.8469290142943,"trial":35,"RT":229,"MT":121,"sideResp":1,"stimulus":[],"xmouse":[764,764,764,764,764,765,766,768,768,769,770,770,760,712,657,602,564,503],"ymouse":[510,510,510,510,510,510,509,500,494,485,474,459,394,267,179,105,61,10],"timestamp_mouse":[13,39,50,70,90,109,129,149,170,189,209,229,250,269,289,310,329,350],"xSR":741.5,"ySR":469.95,"xT1":424.9,"yT1":0,"xT2":1058.1,"yT2":0,"toosoon":0,"cond_shown":"Congruent","ratio_trial":100,"L_num":4,"L_den":8,"R_num":6,"R_den":10,"correct_side":2,"subjID":"isabellagomez13","gender":"1","school":"4","age":"9"},{"start_time":1552327756898,"click_time":1552327757445,"finger_time":1552327757245,"fix_duration":250,"trial":36,"RT":347,"MT":200,"sideResp":2,"stimulus":[],"xmouse":[789,789,789,789,789,789,789,789,789,789,789,789,789,789,795,804,828,924,1011,1065,1105,1126,1133,1133,1133,1133,1133,1132],"ymouse":[560,560,560,560,560,560,560,560,560,560,560,560,560,560,538,521,488,373,282,229,185,156,132,126,124,123,120,95],"timestamp_mouse":[10,28,47,67,87,106,128,147,167,188,208,226,248,267,287,306,327,347,366,386,406,427,447,467,488,507,526,547],"xSR":741.5,"ySR":469.95,"xT1":424.9,"yT1":0,"xT2":1058.1,"yT2":0,"toosoon":0,"cond_shown":"Incongruent","ratio_trial":300,"L_num":1,"L_den":2,"R_num":2,"R_den":10,"correct_side":1,"subjID":"isabellagomez13","gender":"1","school":"4","age":"9"},{"start_time":1552327759663,"click_time":1552327760406,"finger_time":1552327760044,"fix_duration":1356.206983842829,"trial":37,"RT":381,"MT":362,"sideResp":1,"stimulus":[],"xmouse":[796,796,796,796,796,796,796,796,796,796,796,796,796,796,796,796,796,796,796,796,791,772,738,711,689,683,673,659,640,586,577,574,573,573,564,547,528,516],"ymouse":[539,539,539,539,539,539,539,539,539,539,539,539,539,539,539,539,530,526,510,409,313,233,165,121,103,101,99,97,94,91,90,91,91,91,91,91,91,90],"timestamp_mouse":[9,22,48,62,82,101,121,141,163,183,201,221,241,263,283,302,321,341,363,381,402,421,441,462,481,502,521,541,563,582,602,622,642,661,682,701,722,743],"xSR":741.5,"ySR":469.95,"xT1":424.9,"yT1":0,"xT2":1058.1,"yT2":0,"toosoon":0,"cond_shown":"Congruent","ratio_trial":100,"L_num":11,"L_den":22,"R_num":6,"R_den":15,"correct_side":1,"subjID":"isabellagomez13","gender":"1","school":"4","age":"9"},{"start_time":1552327761944,"click_time":1552327762445,"finger_time":1552327762266,"fix_duration":636.0232075647945,"trial":38,"RT":322,"MT":179,"sideResp":1,"stimulus":[],"xmouse":[785,785,785,785,785,785,785,785,785,785,785,785,785,785,785,790,794,796,796,782,711,669,623,575,543,513],"ymouse":[516,516,516,516,516,516,516,516,516,516,516,516,516,516,514,495,469,447,394,330,200,142,101,74,59,47],"timestamp_mouse":[11,25,41,60,81,101,121,140,162,181,200,222,242,261,280,301,322,340,362,381,401,420,440,460,480,501],"xSR":741.5,"ySR":469.95,"xT1":424.9,"yT1":0,"xT2":1058.1,"yT2":0,"toosoon":0,"cond_shown":"Congruent","ratio_trial":300,"L_num":18,"L_den":20,"R_num":9,"R_den":15,"correct_side":1,"subjID":"isabellagomez13","gender":"1","school":"4","age":"9"},{"start_time":1552327763495,"click_time":1552327764106,"finger_time":1552327763745,"fix_duration":250,"trial":39,"RT":250,"MT":361,"sideResp":1,"stimulus":[],"xmouse":[785,785,785,785,785,785,785,785,785,784,782,774,713,664,612,568,525,482,482,482,482,482,482,482,482,484,485,493,493,493,493],"ymouse":[510,510,510,509,509,509,509,509,508,503,498,488,403,349,300,256,210,162,162,162,160,157,145,139,135,133,132,114,109,103,98],"timestamp_mouse":[11,40,50,70,90,109,130,151,170,189,209,229,250,269,290,309,329,349,370,391,410,431,450,470,490,510,529,550,570,589,610],"xSR":741.5,"ySR":469.95,"xT1":424.9,"yT1":0,"xT2":1058.1,"yT2":0,"toosoon":0,"cond_shown":"Congruent","ratio_trial":300,"L_num":1,"L_den":5,"R_num":3,"R_den":6,"correct_side":2,"subjID":"isabellagomez13","gender":"1","school":"4","age":"9"},{"start_time":1552327766161,"click_time":1552327766765,"finger_time":1552327766444,"fix_duration":954.0418597240503,"trial":40,"RT":283,"MT":321,"sideResp":1,"stimulus":[],"xmouse":[781,781,781,781,781,781,781,781,781,781,781,781,781,781,766,735,675,615,549,549,549,549,549,549,549,549,549,549,549,549,481],"ymouse":[480,480,480,480,480,480,480,480,480,480,480,480,480,478,415,320,188,91,1,1,1,1,1,1,1,1,1,1,1,1,56],"timestamp_mouse":[12,32,44,64,83,105,125,143,163,183,205,224,243,264,283,303,323,345,364,384,404,423,444,464,484,504,525,544,564,584,604],"xSR":741.5,"ySR":469.95,"xT1":424.9,"yT1":0,"xT2":1058.1,"yT2":0,"toosoon":0,"cond_shown":"Congruent","ratio_trial":100,"L_num":4,"L_den":8,"R_num":6,"R_den":10,"correct_side":2,"subjID":"isabellagomez13","gender":"1","school":"4","age":"9"},{"start_time":1552327774095,"click_time":1552327774964,"finger_time":1552327774424,"fix_duration":268.588056377545,"trial":41,"RT":329,"MT":540,"sideResp":2,"stimulus":[],"xmouse":[821,821,821,821,821,821,821,821,821,821,821,821,821,820,820,820,822,834,851,867,890,911,942,950,958,966,973,990,996,1010,1029,1048,1078,1089,1099,1110,1121,1133,1137,1138,1138,1138,1138,1120],"ymouse":[501,501,501,501,501,501,501,501,501,501,501,501,501,499,495,486,467,423,394,372,344,317,280,263,242,223,207,190,189,187,184,177,161,152,142,129,116,103,100,100,100,100,100,97],"timestamp_mouse":[13,38,50,71,89,109,131,150,169,190,209,229,250,270,289,310,329,349,370,389,409,429,450,470,489,509,529,550,569,589,610,629,649,669,689,709,731,750,771,794,810,831,850,869],"xSR":741.5,"ySR":469.95,"xT1":424.9,"yT1":0,"xT2":1058.1,"yT2":0,"toosoon":0,"cond_shown":"Congruent","ratio_trial":200,"L_num":8,"L_den":15,"R_num":7,"R_den":21,"correct_side":1,"subjID":"isabellagomez13","gender":"1","school":"4","age":"9"},{"start_time":1552327779076,"click_time":1552327780045,"finger_time":1552327779665,"fix_duration":250,"trial":42,"RT":589,"MT":380,"sideResp":1,"stimulus":[],"xmouse":[745,745,745,745,745,745,747,754,769,771,771,771,771,771,771,771,771,771,771,771,771,771,771,771,771,771,771,771,753,695,616,532,459,418,417,416,416,416,416,416,416,416,416,419,425,429,436,443,453],"ymouse":[521,521,521,521,521,521,521,522,524,525,525,525,525,525,525,525,525,525,525,525,525,525,525,525,525,525,525,525,488,409,322,242,179,137,130,128,128,128,128,128,128,128,127,123,119,115,110,105,96],"timestamp_mouse":[9,29,49,68,89,109,129,148,168,189,210,230,249,270,290,309,328,350,370,390,409,430,448,470,490,508,529,549,568,589,608,629,650,668,689,709,729,748,768,790,810,830,848,869,888,908,929,950,969],"xSR":741.5,"ySR":469.95,"xT1":424.9,"yT1":0,"xT2":1058.1,"yT2":0,"toosoon":0,"cond_shown":"Congruent","ratio_trial":200,"L_num":7,"L_den":21,"R_num":2,"R_den":15,"correct_side":1,"subjID":"isabellagomez13","gender":"1","school":"4","age":"9"},{"start_time":1552327785041,"click_time":1552327785545,"finger_time":1552327785145,"fix_duration":694.9773916910515,"trial":43,"RT":104,"MT":400,"sideResp":1,"stimulus":[],"xmouse":[783,783,783,783,783,775,767,758,747,733,707,685,676,664,649,617,610,602,583,548,520,519,516,513,508,487],"ymouse":[476,476,476,475,472,442,418,396,377,356,326,300,285,265,247,211,204,196,179,152,125,119,112,109,105,92],"timestamp_mouse":[13,38,43,64,83,104,123,144,165,184,204,224,244,264,285,304,323,343,364,384,403,424,443,464,483,504],"xSR":741.5,"ySR":469.95,"xT1":424.9,"yT1":0,"xT2":1058.1,"yT2":0,"toosoon":0,"cond_shown":"Congruent","ratio_trial":200,"L_num":8,"L_den":15,"R_num":3,"R_den":9,"correct_side":1,"subjID":"isabellagomez13","gender":"1","school":"4","age":"9"},{"start_time":1552327805032,"click_time":1552327805945,"finger_time":1552327805305,"fix_duration":1204.0631673502019,"trial":44,"RT":273,"MT":640,"sideResp":2,"stimulus":[],"xmouse":[818,818,818,818,818,818,818,818,818,818,817,826,838,856,879,995,1104,1237,1366,1366,1366,1366,1366,1366,1366,1366,1430,1393,1327,1287,1270,1270,1267,1262,1255,1242,1232,1229,1229,1227,1190,1170,1161,1161,1161,1140],"ymouse":[524,524,524,524,524,524,524,524,524,524,524,504,482,452,415,297,213,117,10,10,10,10,10,10,10,10,22,41,65,71,71,71,71,73,76,80,81,81,81,81,73,70,69,69,69,65],"timestamp_mouse":[12,36,52,74,92,113,134,153,173,194,213,233,252,273,292,313,332,352,373,393,413,433,453,473,493,513,534,554,574,593,614,634,653,673,693,713,733,753,774,794,812,832,853,872,894,912],"xSR":741.5,"ySR":469.95,"xT1":424.9,"yT1":0,"xT2":1058.1,"yT2":0,"toosoon":0,"cond_shown":"Incongruent","ratio_trial":100,"L_num":3,"L_den":6,"R_num":4,"R_den":10,"correct_side":1,"subjID":"isabellagomez13","gender":"1","school":"4","age":"9"},{"start_time":1552327809176,"click_time":1552327821665,"finger_time":1552327821626,"fix_duration":1250.3531980154992,"trial":45,"RT":12450,"MT":39,"sideResp":1,"stimulus":[],"xmouse":[773,773,773,773,773,773,773,773,773,773,773,773,773,773,773,773,773,773,773,773,773,773,773,773,773,773,773,773,773,773,773,773,773,773,773,773,773,773,773,773,773,773,773,773,773,773,773,773,773,773,773,773,773,773,773,773,773,773,773,773,773,773,773,773,773,773,773,773,773,773,773,773,773,773,773,773,773,773,773,773,773,773,773,773,773,773,773,773,773,773,773,773,773,773,773,773,773,773,773,773,773,773,773,773,773,773,773,773,773,773,773,773,773,773,773,773,773,773,773,773,773,773,773,773,773,773,773,773,773,773,773,773,773,773,773,773,773,773,773,773,773,773,773,773,773,773,773,773,773,773,773,773,773,773,773,773,773,773,773,773,773,773,773,773,773,773,773,773,773,773,773,773,773,773,773,773,773,773,773,773,773,773,773,773,773,773,773,773,773,773,773,773,773,773,773,773,773,773,773,773,773,773,773,773,773,773,773,773,773,773,773,773,773,773,773,773,773,773,773,773,773,773,773,773,773,773,773,773,773,773,773,773,773,773,773,773,773,773,773,773,773,773,773,773,773,773,773,773,773,773,773,773,773,773,773,773,773,773,773,773,773,773,773,773,773,773,773,773,773,773,773,773,773,773,773,773,773,773,773,773,773,773,773,773,773,773,773,773,773,773,773,773,773,773,773,773,773,773,773,773,773,773,773,773,773,773,773,773,773,773,773,773,773,773,773,773,773,773,773,773,773,773,773,773,773,773,773,773,773,773,773,773,773,773,773,773,773,773,773,773,773,773,773,773,773,773,773,773,773,773,773,773,773,773,773,773,773,773,773,773,773,773,773,773,773,773,773,773,773,773,773,773,773,773,773,773,773,773,773,773,773,773,773,773,773,773,773,773,773,773,773,773,773,773,773,773,773,773,773,773,773,773,773,773,773,773,773,773,773,773,773,773,773,773,773,773,773,773,773,773,773,773,773,773,773,773,773,773,773,773,773,773,773,773,773,773,773,773,773,773,773,773,773,773,773,773,773,773,773,773,773,773,773,773,773,773,773,773,773,773,773,773,773,773,773,773,773,773,773,773,773,773,773,773,773,773,773,773,773,773,773,773,773,773,773,773,773,773,773,773,773,773,773,773,773,773,773,773,773,773,773,773,773,773,773,773,773,773,773,773,773,773,773,773,773,773,773,773,773,773,773,773,773,773,773,773,773,773,773,773,773,773,773,773,773,773,773,773,773,773,773,773,773,773,773,773,773,773,773,773,773,773,773,773,773,773,773,773,773,773,773,773,773,773,773,773,773,773,773,773,773,773,773,773,773,773,773,773,773,773,773,773,773,773,773,773,773,773,773,773,773,773,773,773,773,773,773,773,773,773,773,773,773,773,773,773,773,773,773,773,773,773,773,773,773,773,773,773,773,773,773,774,754,582,510],"ymouse":[525,525,525,525,525,525,525,525,525,525,525,525,525,525,525,525,525,525,525,525,525,525,525,525,525,525,525,525,525,525,525,525,525,525,525,525,525,525,525,525,525,525,525,525,525,525,525,525,525,525,525,525,525,525,525,525,525,525,525,525,525,525,525,525,525,525,525,525,525,525,525,525,525,525,525,525,525,525,525,525,525,525,525,525,525,525,525,525,525,525,525,525,525,525,525,525,525,525,525,525,525,525,525,525,525,525,525,525,525,525,525,525,525,525,525,525,525,525,525,525,525,525,525,525,525,525,525,525,525,525,525,525,525,525,525,525,525,525,525,525,525,525,525,525,525,525,525,525,525,525,525,525,525,525,525,525,525,525,525,525,525,525,525,525,525,525,525,525,525,525,525,525,525,525,525,525,525,525,525,525,525,525,525,525,525,525,525,525,525,525,525,525,525,525,525,525,525,525,525,525,525,525,525,525,525,525,525,525,525,525,525,525,525,525,525,525,525,525,525,525,525,525,525,525,525,525,525,525,525,525,525,525,525,525,525,525,525,525,525,525,525,525,525,525,525,525,525,525,525,525,525,525,525,525,525,525,525,525,525,525,525,525,525,525,525,525,525,525,525,525,525,525,525,525,525,525,525,525,525,525,525,525,525,525,525,525,525,525,525,525,525,525,525,525,525,525,525,525,525,525,525,525,525,525,525,525,525,525,525,525,525,525,525,525,525,525,525,525,525,525,525,525,525,525,525,525,525,525,525,525,525,525,525,525,525,525,525,525,525,525,525,525,525,525,525,525,525,525,525,525,525,525,525,525,525,525,525,525,525,525,525,525,525,525,525,525,525,525,525,525,525,525,525,525,525,525,525,525,525,525,525,525,525,525,525,525,525,525,525,525,525,525,525,525,525,525,525,525,525,525,525,525,525,525,525,525,525,525,525,525,525,525,525,525,525,525,525,525,525,525,525,525,525,525,525,525,525,525,525,525,525,525,525,525,525,525,525,525,525,525,525,525,525,525,525,525,525,525,525,525,525,525,525,525,525,525,525,525,525,525,525,525,525,525,525,525,525,525,525,525,525,525,525,525,525,525,525,525,525,525,525,525,525,525,525,525,525,525,525,525,525,525,525,525,525,525,525,525,525,525,525,525,525,525,525,525,525,525,525,525,525,525,525,525,525,525,525,525,525,525,525,525,525,525,525,525,525,525,525,525,525,525,525,525,525,525,525,525,525,525,525,525,525,525,525,525,525,525,525,525,525,525,525,525,525,525,525,525,525,525,525,525,525,525,525,525,525,525,525,525,525,525,525,525,525,525,525,525,525,525,525,525,525,525,525,525,525,525,525,525,525,525,525,525,525,525,525,525,525,525,525,525,525,525,525,525,525,525,525,525,525,525,525,525,525,525,525,525,525,525,525,503,446,116,49],"timestamp_mouse":[9,37,49,70,88,108,129,149,169,189,210,229,249,268,290,308,328,348,369,388,410,430,449,469,490,508,528,548,569,588,610,628,648,669,690,708,729,748,769,790,808,830,848,868,889,909,928,949,968,988,1008,1028,1049,1069,1088,1110,1129,1149,1169,1190,1209,1230,1249,1269,1290,1310,1328,1348,1368,1388,1409,1429,1448,1469,1488,1509,1528,1548,1568,1589,1610,1629,1649,1669,1689,1708,1730,1748,1769,1788,1808,1829,1849,1868,1889,1909,1928,1948,1968,1990,2010,2028,2048,2068,2090,2108,2130,2149,2168,2189,2210,2228,2248,2269,2290,2308,2328,2348,2370,2390,2409,2428,2450,2469,2489,2510,2529,2549,2569,2588,2609,2630,2649,2668,2689,2710,2730,2749,2768,2789,2809,2830,2849,2868,2889,2910,2928,2949,2969,2988,3009,3030,3049,3068,3088,3109,3128,3148,3169,3189,3209,3229,3249,3268,3289,3310,3330,3349,3369,3389,3409,3429,3450,3469,3488,3509,3528,3549,3569,3590,3610,3628,3648,3668,3690,3709,3728,3748,3769,3790,3810,3828,3850,3868,3890,3910,3930,3949,3968,3990,4010,4030,4050,4068,4089,4110,4129,4149,4168,4188,4210,4228,4248,4268,4289,4310,4329,4350,4369,4390,4409,4429,4448,4469,4489,4510,4528,4548,4568,4590,4610,4628,4648,4669,4689,4710,4728,4749,4768,4789,4808,4829,4849,4869,4890,4909,4929,4948,4969,4990,5009,5028,5048,5068,5090,5109,5130,5149,5169,5189,5209,5229,5249,5269,5289,5309,5329,5350,5369,5389,5409,5428,5449,5468,5490,5510,5529,5548,5568,5589,5610,5629,5649,5669,5689,5710,5729,5749,5768,5789,5810,5828,5849,5869,5889,5910,5928,5949,5970,5988,6009,6029,6049,6069,6088,6109,6129,6150,6168,6189,6210,6230,6249,6269,6288,6309,6329,6350,6369,6390,6410,6429,6448,6469,6489,6509,6530,6549,6569,6588,6608,6630,6648,6669,6689,6710,6728,6749,6768,6789,6810,6830,6849,6868,6888,6908,6929,6948,6969,6990,7009,7030,7049,7069,7089,7109,7129,7150,7169,7189,7209,7229,7249,7268,7290,7310,7330,7349,7369,7388,7410,7429,7449,7469,7488,7509,7529,7550,7569,7590,7610,7628,7649,7669,7689,7709,7730,7750,7769,7790,7809,7828,7849,7868,7890,7910,7930,7949,7968,7989,8010,8030,8049,8068,8089,8113,8128,8148,8168,8190,8208,8230,8249,8269,8289,8309,8329,8349,8369,8390,8409,8429,8449,8468,8490,8510,8528,8548,8569,8589,8610,8629,8648,8668,8688,8710,8729,8749,8769,8789,8809,8830,8850,8868,8889,8910,8928,8948,8969,8989,9008,9028,9049,9069,9089,9110,9130,9149,9168,9189,9210,9229,9249,9270,9289,9309,9328,9349,9369,9389,9408,9430,9448,9468,9490,9510,9530,9549,9568,9588,9609,9629,9649,9668,9689,9710,9729,9749,9769,9789,9809,9830,9848,9868,9889,9910,9929,9949,9969,9989,10010,10028,10048,10068,10089,10110,10129,10148,10168,10189,10208,10230,10250,10268,10289,10309,10329,10348,10369,10390,10410,10428,10448,10469,10489,10509,10528,10550,10570,10588,10610,10630,10648,10668,10689,10709,10730,10748,10768,10789,10809,10829,10849,10869,10888,10908,10929,10949,10969,10989,11010,11029,11049,11068,11089,11110,11130,11149,11168,11188,11210,11229,11249,11269,11289,11309,11329,11349,11368,11388,11409,11430,11449,11468,11489,11510,11528,11550,11568,11590,11610,11629,11648,11669,11689,11708,11729,11750,11769,11790,11809,11828,11849,11869,11889,11910,11930,11950,11968,11989,12010,12029,12048,12068,12090,12109,12130,12149,12169,12188,12208,12228,12248,12269,12289,12310,12328,12348,12368,12389,12409,12429,12450,12469,12489],"xSR":741.5,"ySR":469.95,"xT1":424.9,"yT1":0,"xT2":1058.1,"yT2":0,"toosoon":0,"cond_shown":"Congruent","ratio_trial":200,"L_num":9,"L_den":20,"R_num":4,"R_den":16,"correct_side":1,"subjID":"isabellagomez13","gender":"1","school":"4","age":"9"},{"start_time":1552327823435,"click_time":1552327823805,"finger_time":1552327823704,"fix_duration":328.9377318391106,"trial":46,"RT":269,"MT":101,"sideResp":1,"stimulus":[],"xmouse":[772,772,772,772,772,772,772,772,772,772,772,772,775,760,726,595,508,454,439],"ymouse":[501,501,501,501,501,501,501,501,501,501,501,501,491,461,409,240,152,105,93],"timestamp_mouse":[10,39,51,70,89,110,130,150,171,190,210,230,249,269,291,309,329,349,369],"xSR":741.5,"ySR":469.95,"xT1":424.9,"yT1":0,"xT2":1058.1,"yT2":0,"toosoon":0,"cond_shown":"Congruent","ratio_trial":100,"L_num":3,"L_den":20,"R_num":4,"R_den":16,"correct_side":2,"subjID":"isabellagomez13","gender":"1","school":"4","age":"9"},{"start_time":1552327824962,"click_time":1552327825545,"finger_time":1552327825244,"fix_duration":275.745527551535,"trial":47,"RT":282,"MT":301,"sideResp":1,"stimulus":[],"xmouse":[784,784,784,784,784,784,784,784,784,784,784,785,787,787,767,695,656,608,568,549,549,549,546,543,537,537,537,537,536,515],"ymouse":[557,557,557,557,557,557,557,557,557,557,555,553,543,523,452,280,191,111,44,20,20,19,19,18,18,18,18,18,18,18],"timestamp_mouse":[6,22,43,64,82,103,124,143,164,184,202,223,242,263,282,303,322,343,362,383,404,423,444,464,482,503,524,544,564,583],"xSR":741.5,"ySR":469.95,"xT1":424.9,"yT1":0,"xT2":1058.1,"yT2":0,"toosoon":0,"cond_shown":"Incongruent","ratio_trial":100,"L_num":9,"L_den":15,"R_num":13,"R_den":26,"correct_side":1,"subjID":"isabellagomez13","gender":"1","school":"4","age":"9"},{"start_time":1552327827800,"click_time":1552327828265,"finger_time":1552327827985,"fix_duration":1175.9612334096219,"trial":48,"RT":185,"MT":280,"sideResp":2,"stimulus":[],"xmouse":[778,778,778,778,778,778,778,781,785,792,803,817,883,962,1013,1060,1094,1116,1116,1116,1115,1115,1112,1111],"ymouse":[481,481,481,481,481,481,481,478,473,466,450,426,326,246,206,170,145,125,120,114,111,111,110,97],"timestamp_mouse":[14,26,44,66,86,105,124,145,164,185,206,224,244,265,284,306,325,345,364,386,404,425,444,465],"xSR":741.5,"ySR":469.95,"xT1":424.9,"yT1":0,"xT2":1058.1,"yT2":0,"toosoon":0,"cond_shown":"Congruent","ratio_trial":200,"L_num":8,"L_den":15,"R_num":2,"R_den":6,"correct_side":1,"subjID":"isabellagomez13","gender":"1","school":"4","age":"9"},{"start_time":1552327833361,"click_time":1552327835305,"finger_time":1552327834564,"fix_duration":754.745547735645,"trial":49,"RT":1203,"MT":741,"sideResp":1,"stimulus":[],"xmouse":[801,801,801,801,801,801,801,801,801,801,801,801,801,801,801,801,801,801,801,801,801,801,801,801,801,801,801,801,801,801,801,801,801,801,801,801,801,801,801,801,801,801,801,798,779,775,773,773,773,773,773,773,773,771,771,771,771,771,771,767,743,664,526,392,229,229,229,229,229,229,229,229,229,229,229,229,229,229,249,278,289,294,297,303,329,340,349,356,360,377,385,387,389,390,395,405,416,432],"ymouse":[483,483,483,483,483,483,483,483,483,483,483,483,483,483,483,483,483,483,483,483,483,483,483,483,483,483,483,483,483,483,483,483,483,483,483,483,483,483,483,483,483,483,483,484,477,475,474,474,474,474,474,474,474,474,474,474,474,474,474,472,459,397,298,193,31,31,31,31,31,31,31,31,31,31,31,31,31,31,1,17,26,31,35,39,52,56,59,59,60,63,63,63,64,64,65,66,67,67],"timestamp_mouse":[10,35,44,63,84,104,123,145,164,183,204,225,243,263,284,306,323,345,364,383,403,425,443,463,483,503,525,543,563,585,605,625,645,664,684,704,724,744,764,784,805,824,844,864,883,903,924,943,963,984,1003,1024,1044,1063,1085,1104,1125,1144,1163,1184,1203,1225,1244,1265,1284,1305,1325,1344,1363,1383,1404,1425,1444,1464,1484,1504,1523,1544,1564,1584,1604,1624,1644,1664,1683,1703,1724,1743,1763,1783,1804,1824,1844,1864,1883,1903,1923,1943],"xSR":741.5,"ySR":469.95,"xT1":424.9,"yT1":0,"xT2":1058.1,"yT2":0,"toosoon":0,"cond_shown":"Incongruent","ratio_trial":300,"L_num":3,"L_den":6,"R_num":4,"R_den":20,"correct_side":1,"subjID":"isabellagomez13","gender":"1","school":"4","age":"9"},{"start_time":1552327840011,"click_time":1552327840645,"finger_time":1552327840365,"fix_duration":885.0364298878271,"trial":50,"RT":354,"MT":280,"sideResp":1,"stimulus":[],"xmouse":[785,785,785,785,785,785,785,785,785,785,785,785,785,785,785,785,781,742,684,624,584,553,550,550,550,550,550,546,541,537,531,502],"ymouse":[490,490,490,490,490,490,490,490,490,490,490,490,490,490,490,490,482,418,319,210,131,63,59,59,59,59,59,58,57,56,56,52],"timestamp_mouse":[15,35,54,73,93,114,134,154,173,195,213,233,254,274,295,314,333,354,374,394,414,433,454,473,494,513,534,553,574,594,614,634],"xSR":741.5,"ySR":469.95,"xT1":424.9,"yT1":0,"xT2":1058.1,"yT2":0,"toosoon":0,"cond_shown":"Incongruent","ratio_trial":300,"L_num":13,"L_den":26,"R_num":12,"R_den":15,"correct_side":2,"subjID":"isabellagomez13","gender":"1","school":"4","age":"9"},{"start_time":1552327841797,"click_time":1552327842505,"finger_time":1552327842244,"fix_duration":250,"trial":51,"RT":447,"MT":261,"sideResp":2,"stimulus":[],"xmouse":[792,792,792,792,792,792,792,792,792,792,792,792,792,792,792,792,792,792,792,795,805,826,921,1014,1083,1132,1167,1212,1216,1217,1217,1217,1204,1182,1160,1129],"ymouse":[520,520,520,520,520,520,520,520,520,520,520,520,520,520,520,520,520,520,520,519,514,502,445,348,281,237,199,136,123,122,122,122,117,110,100,82],"timestamp_mouse":[8,30,48,69,87,108,128,148,169,189,209,227,247,268,288,308,329,348,368,388,407,427,447,469,488,507,529,548,567,588,608,627,647,668,687,708],"xSR":741.5,"ySR":469.95,"xT1":424.9,"yT1":0,"xT2":1058.1,"yT2":0,"toosoon":0,"cond_shown":"Incongruent","ratio_trial":300,"L_num":2,"L_den":4,"R_num":6,"R_den":30,"correct_side":1,"subjID":"isabellagomez13","gender":"1","school":"4","age":"9"},{"start_time":1552327844097,"click_time":1552327844845,"finger_time":1552327844444,"fix_duration":250,"trial":52,"RT":347,"MT":401,"sideResp":1,"stimulus":[],"xmouse":[807,807,807,807,807,807,807,807,807,807,807,807,807,805,799,788,770,721,699,668,626,574,530,528,528,529,531,537,540,543,547,547,547,547,547,547,547,522],"ymouse":[556,556,556,556,556,556,556,556,556,556,556,556,557,557,557,544,528,483,453,395,293,197,85,71,67,66,66,66,66,66,66,66,66,66,66,66,67,69],"timestamp_mouse":[12,35,47,67,87,108,127,148,169,187,207,228,247,268,287,307,328,347,367,387,408,427,448,468,488,509,528,548,567,588,608,627,647,667,689,708,728,748],"xSR":741.5,"ySR":469.95,"xT1":424.9,"yT1":0,"xT2":1058.1,"yT2":0,"toosoon":0,"cond_shown":"Incongruent","ratio_trial":200,"L_num":4,"L_den":30,"R_num":1,"R_den":3,"correct_side":2,"subjID":"isabellagomez13","gender":"1","school":"4","age":"9"},{"start_time":1552327846148,"click_time":1552327847006,"finger_time":1552327846445,"fix_duration":283.4589233009516,"trial":53,"RT":297,"MT":561,"sideResp":2,"stimulus":[],"xmouse":[814,817,818,818,820,820,820,820,820,820,820,820,821,825,852,880,915,954,987,1034,1034,1034,1034,1034,1034,1034,1034,1034,1034,1034,1034,1034,1034,1050,1078,1099,1109,1111,1111,1122,1126,1130,1130],"ymouse":[506,505,505,505,504,504,504,504,504,504,504,504,503,494,421,348,258,169,93,4,4,4,4,4,4,4,4,4,4,4,4,4,4,47,126,147,151,151,151,129,113,101,94],"timestamp_mouse":[21,37,65,78,97,117,136,158,176,197,218,237,256,277,297,317,336,356,376,397,416,436,457,477,496,517,537,557,577,596,616,637,657,676,697,716,736,758,778,797,816,838,858],"xSR":741.5,"ySR":469.95,"xT1":424.9,"yT1":0,"xT2":1058.1,"yT2":0,"toosoon":0,"cond_shown":"Congruent","ratio_trial":200,"L_num":12,"L_den":15,"R_num":6,"R_den":10,"correct_side":1,"subjID":"isabellagomez13","gender":"1","school":"4","age":"9"},{"start_time":1552327849925,"click_time":1552327850825,"finger_time":1552327850386,"fix_duration":1479.1287943889618,"trial":54,"RT":461,"MT":439,"sideResp":1,"stimulus":[],"xmouse":[774,774,774,774,774,774,774,774,774,774,774,774,774,774,774,774,774,774,774,774,774,774,774,756,738,698,638,592,573,562,557,536,527,526,528,542,582,592,593,593,593,590,578,557,527,502],"ymouse":[489,489,489,489,489,489,489,489,489,489,489,489,489,489,489,489,489,489,489,489,489,489,489,461,436,392,341,306,289,275,264,214,182,173,173,173,173,171,170,170,167,155,142,124,103,85],"timestamp_mouse":[13,25,40,60,80,100,121,139,160,179,199,220,241,260,280,301,320,339,361,381,399,421,439,461,480,500,519,539,559,581,600,620,639,659,679,699,719,740,760,780,801,820,839,860,880,900],"xSR":741.5,"ySR":469.95,"xT1":424.9,"yT1":0,"xT2":1058.1,"yT2":0,"toosoon":0,"cond_shown":"Congruent","ratio_trial":200,"L_num":14,"L_den":28,"R_num":6,"R_den":20,"correct_side":1,"subjID":"isabellagomez13","gender":"1","school":"4","age":"9"},{"start_time":1552327866615,"click_time":1552327867205,"finger_time":1552327866744,"fix_duration":1369.0901662136268,"trial":55,"RT":129,"MT":461,"sideResp":2,"stimulus":[],"xmouse":[802,802,802,802,802,802,820,832,847,860,873,917,958,969,969,969,969,971,978,989,996,1000,1001,1001,1002,1009,1031,1040,1051,1060],"ymouse":[520,520,520,520,520,514,452,425,387,359,338,298,279,276,276,276,276,276,268,257,252,242,228,205,178,154,114,98,83,72],"timestamp_mouse":[13,45,50,71,91,109,129,151,170,189,210,229,249,269,291,310,329,351,370,390,410,429,450,469,489,510,529,549,569,590],"xSR":741.5,"ySR":469.95,"xT1":424.9,"yT1":0,"xT2":1058.1,"yT2":0,"toosoon":0,"cond_shown":"Incongruent","ratio_trial":100,"L_num":3,"L_den":6,"R_num":4,"R_den":10,"correct_side":1,"subjID":"isabellagomez13","gender":"1","school":"4","age":"9"},{"start_time":1552327869917,"click_time":1552327870145,"finger_time":1552327870084,"fix_duration":1372.1230029748265,"trial":56,"RT":167,"MT":61,"sideResp":1,"stimulus":[],"xmouse":[805,805,805,805,805,805,805,790,760,706,639,501],"ymouse":[498,498,498,498,498,498,496,470,415,334,241,72],"timestamp_mouse":[10,41,48,69,87,108,127,149,167,188,207,227],"xSR":741.5,"ySR":469.95,"xT1":424.9,"yT1":0,"xT2":1058.1,"yT2":0,"toosoon":0,"cond_shown":"Incongruent","ratio_trial":300,"L_num":4,"L_den":20,"R_num":2,"R_den":4,"correct_side":2,"subjID":"isabellagomez13","gender":"1","school":"4","age":"9"},{"start_time":1552327871634,"click_time":1552327872325,"finger_time":1552327871924,"fix_duration":648.0178403057753,"trial":57,"RT":290,"MT":401,"sideResp":2,"stimulus":[],"xmouse":[795,795,795,795,795,795,795,795,795,795,795,796,800,810,822,851,871,893,918,941,982,997,999,1000,999,993,993,993,993,993,997,1013,1027,1047,1071],"ymouse":[491,491,491,491,491,491,491,491,491,491,491,489,484,474,459,419,389,360,330,299,252,224,210,195,182,175,175,175,175,175,156,132,116,102,88],"timestamp_mouse":[17,41,51,71,91,110,130,152,171,191,210,231,252,271,290,310,331,350,372,390,410,430,451,471,491,510,530,551,571,590,610,632,651,671,691],"xSR":741.5,"ySR":469.95,"xT1":424.9,"yT1":0,"xT2":1058.1,"yT2":0,"toosoon":0,"cond_shown":"Incongruent","ratio_trial":200,"L_num":14,"L_den":30,"R_num":12,"R_den":18,"correct_side":2,"subjID":"isabellagomez13","gender":"1","school":"4","age":"9"},{"start_time":1552327874192,"click_time":1552327874885,"finger_time":1552327874484,"fix_duration":1146.5251346323687,"trial":58,"RT":292,"MT":401,"sideResp":2,"stimulus":[],"xmouse":[806,806,806,806,806,806,806,806,806,806,806,806,806,814,839,871,926,990,1018,1034,1046,1062,1125,1141,1146,1146,1146,1129,1110,1088,1071,1068,1067,1067,1071],"ymouse":[507,507,507,507,507,507,507,507,507,507,507,507,507,486,456,423,383,325,265,233,215,198,163,149,140,140,140,143,154,164,166,166,138,113,86],"timestamp_mouse":[14,32,53,74,92,113,133,153,174,193,213,233,252,273,292,313,334,353,372,393,413,434,452,473,492,512,533,552,574,593,612,633,652,674,693],"xSR":741.5,"ySR":469.95,"xT1":424.9,"yT1":0,"xT2":1058.1,"yT2":0,"toosoon":0,"cond_shown":"Congruent","ratio_trial":100,"L_num":10,"L_den":25,"R_num":3,"R_den":10,"correct_side":1,"subjID":"isabellagomez13","gender":"1","school":"4","age":"9"},{"start_time":1552327881637,"click_time":1552327882245,"finger_time":1552327881944,"fix_duration":250,"trial":59,"RT":307,"MT":301,"sideResp":2,"stimulus":[],"xmouse":[759,759,759,759,759,759,759,759,759,759,759,759,759,762,767,821,870,927,988,1041,1103,1104,1101,1089,1075,1077,1087,1098,1100,1100,1086],"ymouse":[508,508,508,508,508,508,508,508,508,508,508,508,508,507,500,450,420,380,335,294,225,201,174,153,134,120,110,102,101,101,98],"timestamp_mouse":[14,41,47,67,87,108,127,148,167,188,207,228,247,269,287,307,328,347,367,387,407,428,447,467,489,508,527,548,569,587,608],"xSR":741.5,"ySR":469.95,"xT1":424.9,"yT1":0,"xT2":1058.1,"yT2":0,"toosoon":0,"cond_shown":"Congruent","ratio_trial":100,"L_num":15,"L_den":25,"R_num":13,"R_den":26,"correct_side":1,"subjID":"isabellagomez13","gender":"1","school":"4","age":"9"},{"start_time":1552327884153,"click_time":1552327884768,"finger_time":1552327884327,"fix_duration":786.2143336243241,"trial":60,"RT":174,"MT":441,"sideResp":1,"stimulus":[],"xmouse":[771,771,771,771,771,771,771,771,764,742,725,710,701,695,671,649,624,576,524,487,487,487,487,487,487,487,487,486,488,499,508],"ymouse":[484,484,484,484,484,484,484,479,462,404,363,328,306,289,257,237,212,182,145,123,123,123,123,123,123,123,123,122,118,105,94],"timestamp_mouse":[15,37,54,75,93,113,134,154,174,193,213,234,255,274,294,315,334,354,373,393,413,433,453,473,494,514,534,554,574,595,615],"xSR":741.5,"ySR":469.95,"xT1":424.9,"yT1":0,"xT2":1058.1,"yT2":0,"toosoon":0,"cond_shown":"Incongruent","ratio_trial":100,"L_num":9,"L_den":15,"R_num":14,"R_den":28,"correct_side":1,"subjID":"isabellagomez13","gender":"1","school":"4","age":"9"},{"start_time":1552327894197,"click_time":1552327896047,"finger_time":1552327895747,"fix_duration":1288.1864256924391,"trial":61,"RT":1550,"MT":300,"sideResp":1,"stimulus":[],"xmouse":[778,777,776,775,775,775,774,774,773,772,771,771,770,770,770,770,770,770,770,770,770,770,770,768,766,765,764,763,763,763,763,763,763,763,763,763,763,763,763,763,763,763,763,763,763,763,763,763,763,763,763,763,763,763,763,763,763,763,763,763,763,763,763,762,762,761,761,761,761,761,761,761,761,761,762,762,761,721,681,637,601,587,576,575,574,570,566,555,541,529,514,497,466],"ymouse":[522,521,521,521,521,521,521,521,521,520,520,520,520,520,520,520,520,520,520,520,520,520,520,519,519,519,519,519,519,519,519,519,519,519,519,519,519,519,519,519,519,519,519,519,519,519,519,519,519,519,519,519,519,519,519,519,519,519,519,519,519,519,519,519,519,519,519,519,519,519,519,519,519,519,518,501,483,418,377,332,294,275,259,257,256,255,255,251,238,220,185,147,53],"timestamp_mouse":[10,38,49,70,90,110,129,149,170,191,211,231,249,270,291,310,331,349,371,389,411,430,450,471,490,509,530,550,569,591,609,630,650,670,691,709,730,750,771,789,811,830,850,870,890,910,929,949,970,989,1009,1029,1051,1071,1090,1110,1130,1150,1170,1190,1209,1230,1249,1270,1289,1311,1330,1349,1370,1390,1411,1431,1449,1470,1490,1510,1530,1550,1570,1589,1610,1630,1650,1670,1690,1711,1731,1750,1769,1790,1809,1830,1850],"xSR":741.5,"ySR":469.95,"xT1":424.9,"yT1":0,"xT2":1058.1,"yT2":0,"toosoon":0,"cond_shown":"Incongruent","ratio_trial":100,"L_num":10,"L_den":25,"R_num":9,"R_den":18,"correct_side":2,"subjID":"isabellagomez13","gender":"1","school":"4","age":"9"},{"start_time":1552327898751,"click_time":1552327910767,"finger_time":1552327910187,"fix_duration":1003.2214167932113,"trial":62,"RT":11436,"MT":580,"sideResp":1,"stimulus":[],"xmouse":[773,773,773,773,773,773,773,773,773,773,773,773,773,773,773,773,773,773,773,773,773,773,773,773,773,773,773,773,773,773,773,773,773,773,773,773,773,773,773,773,773,773,773,773,773,773,773,773,773,773,773,773,773,773,773,773,773,773,773,773,773,773,773,773,773,773,773,773,773,773,773,773,773,773,773,773,773,773,773,773,773,773,773,773,773,773,773,773,773,773,773,773,773,773,773,773,773,773,773,773,773,773,773,773,773,773,773,773,773,773,773,773,773,773,773,773,773,773,773,773,773,773,773,773,773,773,773,773,773,773,773,773,773,773,773,773,773,773,773,773,773,773,773,773,773,773,773,773,773,773,773,773,773,773,773,773,773,773,773,773,773,773,773,773,773,773,773,773,773,773,773,773,773,773,773,773,773,773,773,773,773,773,773,773,773,773,773,773,773,773,773,773,773,773,773,773,773,773,773,773,773,773,773,773,773,773,773,773,773,773,773,773,773,773,773,773,773,773,773,773,773,773,773,773,773,773,773,773,773,773,773,773,773,773,773,773,773,773,773,773,773,773,773,773,773,773,773,773,773,773,773,773,773,773,773,773,773,773,773,773,773,773,773,773,773,773,773,773,773,773,773,773,773,773,773,773,773,773,773,773,773,773,773,773,773,773,773,773,773,773,773,773,773,773,773,773,773,773,773,773,773,773,773,773,773,773,773,773,773,773,773,773,773,773,773,773,773,773,773,773,773,773,773,773,773,773,773,773,773,773,773,773,773,773,773,773,773,773,773,773,773,773,773,773,773,773,773,773,773,773,773,773,773,773,773,773,773,773,773,773,773,773,773,773,773,773,773,773,773,773,773,773,773,773,773,773,773,773,773,773,773,773,773,773,773,773,773,773,773,773,773,773,773,773,773,773,773,773,773,773,773,773,773,773,773,773,773,773,773,773,773,773,773,773,773,773,773,773,773,773,773,773,773,773,773,773,773,773,773,773,773,773,773,773,773,773,773,773,773,773,773,773,773,773,773,773,773,773,773,773,773,773,773,773,773,773,773,773,773,773,773,773,773,773,773,773,773,773,773,773,773,773,773,773,773,773,773,773,773,773,773,773,773,773,773,773,773,773,773,773,773,773,773,773,773,773,773,773,773,773,773,773,773,773,773,773,773,773,773,773,773,773,773,773,773,773,773,773,773,773,773,773,773,773,773,773,773,773,773,773,773,773,773,773,773,773,773,773,773,773,773,773,773,773,773,773,773,773,773,773,773,773,773,773,773,773,773,773,773,773,773,773,773,773,773,773,773,773,774,774,775,772,739,697,641,641,641,641,641,641,641,641,573,589,636,640,640,631,546,546,546,546,546,546,546,546,546,546,546,398,449],"ymouse":[561,561,561,561,561,561,561,561,561,561,561,561,561,561,561,561,561,561,561,561,561,561,561,561,561,561,561,561,561,561,561,561,561,561,561,561,561,561,561,561,561,561,561,561,561,561,561,561,561,561,561,561,561,561,561,561,561,561,561,561,561,561,561,561,561,561,561,561,561,561,561,561,561,561,561,561,561,561,561,561,561,561,561,561,561,561,561,561,561,561,561,561,561,561,561,561,561,561,561,561,561,561,561,561,561,561,561,561,561,561,561,561,561,561,561,561,561,561,561,561,561,561,561,561,561,561,561,561,561,561,561,561,561,561,561,561,561,561,561,561,561,561,561,561,561,561,561,561,561,561,561,561,561,561,561,561,561,561,561,561,561,561,561,561,561,561,561,561,561,561,561,561,561,561,561,561,561,561,561,561,561,561,561,561,561,561,561,561,561,561,561,561,561,561,561,561,561,561,561,561,561,561,561,561,561,561,561,561,561,561,561,561,561,561,561,561,561,561,561,561,561,561,561,561,561,561,561,561,561,561,561,561,561,561,561,561,561,561,561,561,561,561,561,561,561,561,561,561,561,561,561,561,561,561,561,561,561,561,561,561,561,561,561,561,561,561,561,561,561,561,561,561,561,561,561,561,561,561,561,561,561,561,561,561,561,561,561,561,561,561,561,561,561,561,561,561,561,561,561,561,561,561,561,561,561,561,561,561,561,561,561,561,561,561,561,561,561,561,561,561,561,561,561,561,561,561,561,561,561,561,561,561,561,561,561,561,561,561,561,561,561,561,561,561,561,561,561,561,561,561,561,561,561,561,561,561,561,561,561,561,561,561,561,561,561,561,561,561,561,561,561,561,561,561,561,561,561,561,561,561,561,561,561,561,561,561,561,561,561,561,561,561,561,561,561,561,561,561,561,561,561,561,561,561,561,561,561,561,561,561,561,561,561,561,561,561,561,561,561,561,561,561,561,561,561,561,561,561,561,561,561,561,561,561,561,561,561,561,561,561,561,561,561,561,561,561,561,561,561,561,561,561,561,561,561,561,561,561,561,561,561,561,561,561,561,561,561,561,561,561,561,561,561,561,561,561,561,561,561,561,561,561,561,561,561,561,561,561,561,561,561,561,561,561,561,561,561,561,561,561,561,561,561,561,561,561,561,561,561,561,561,561,561,561,561,561,561,561,561,561,561,561,561,561,561,561,561,561,561,561,561,561,561,561,561,561,561,561,561,561,561,561,561,561,561,561,561,561,561,561,561,561,561,561,561,561,561,561,561,561,561,561,561,561,561,561,561,561,561,561,541,443,311,186,30,30,30,30,30,30,30,30,24,39,52,52,52,45,10,10,10,10,10,10,10,10,10,10,10,40,62],"timestamp_mouse":[17,48,57,76,96,117,135,155,176,196,216,237,256,276,296,315,335,357,377,395,416,437,457,476,496,517,537,557,576,596,616,637,657,675,696,715,737,757,777,797,816,836,857,875,896,915,936,957,975,995,1015,1036,1055,1075,1095,1116,1135,1156,1175,1196,1215,1237,1257,1276,1296,1316,1337,1356,1375,1395,1415,1437,1457,1476,1495,1516,1537,1555,1575,1597,1616,1636,1657,1676,1696,1716,1735,1756,1777,1797,1816,1836,1857,1876,1896,1916,1935,1956,1976,1997,2016,2035,2055,2075,2096,2117,2135,2156,2175,2195,2216,2235,2255,2277,2295,2316,2337,2356,2375,2395,2417,2437,2456,2475,2496,2517,2536,2555,2576,2596,2616,2635,2656,2675,2696,2717,2737,2756,2777,2796,2816,2836,2857,2876,2896,2916,2936,2956,2976,2995,3016,3037,3056,3076,3095,3117,3136,3157,3176,3196,3216,3236,3256,3276,3295,3315,3336,3356,3375,3396,3416,3437,3456,3476,3495,3515,3537,3556,3576,3597,3616,3636,3657,3675,3696,3715,3736,3756,3775,3795,3816,3837,3855,3876,3897,3917,3935,3956,3977,3997,4016,4036,4055,4076,4095,4116,4137,4156,4176,4196,4217,4236,4255,4275,4295,4316,4337,4356,4375,4395,4416,4437,4457,4476,4495,4516,4535,4556,4575,4596,4616,4637,4656,4676,4695,4716,4737,4755,4775,4796,4816,4837,4856,4876,4895,4915,4937,4957,4976,4995,5016,5037,5056,5075,5097,5117,5136,5155,5176,5196,5217,5235,5256,5277,5295,5316,5336,5357,5376,5395,5415,5436,5456,5477,5495,5516,5537,5556,5576,5595,5615,5637,5657,5677,5697,5716,5736,5756,5776,5796,5816,5837,5855,5877,5896,5915,5936,5957,5975,5996,6017,6036,6057,6076,6095,6117,6135,6157,6177,6196,6216,6235,6255,6275,6297,6317,6336,6355,6375,6397,6417,6435,6457,6476,6496,6516,6536,6555,6575,6597,6615,6637,6657,6676,6695,6716,6736,6756,6776,6796,6815,6837,6855,6876,6896,6916,6936,6956,6975,6995,7016,7037,7057,7075,7096,7115,7136,7155,7176,7195,7217,7237,7256,7275,7295,7316,7336,7355,7375,7395,7416,7436,7456,7476,7495,7517,7536,7555,7575,7596,7617,7636,7656,7676,7696,7716,7736,7757,7775,7795,7817,7837,7855,7875,7895,7916,7937,7956,7975,7995,8016,8037,8055,8075,8096,8116,8136,8155,8177,8196,8217,8236,8256,8276,8296,8315,8335,8356,8376,8395,8416,8435,8456,8476,8497,8515,8536,8557,8576,8595,8615,8637,8656,8675,8696,8716,8736,8756,8776,8795,8816,8835,8855,8876,8896,8916,8937,8957,8975,8995,9015,9036,9056,9076,9096,9116,9137,9157,9176,9196,9217,9237,9256,9276,9296,9317,9336,9357,9376,9396,9417,9436,9456,9476,9495,9516,9537,9555,9575,9595,9616,9636,9657,9677,9697,9716,9735,9757,9777,9796,9816,9835,9857,9876,9895,9916,9936,9956,9975,9997,10015,10036,10057,10076,10096,10116,10136,10157,10177,10197,10216,10236,10257,10276,10295,10316,10337,10355,10376,10396,10417,10436,10456,10476,10495,10517,10535,10556,10576,10597,10617,10636,10656,10677,10695,10716,10737,10756,10775,10795,10816,10835,10857,10876,10896,10917,10937,10956,10975,10995,11017,11035,11056,11075,11095,11116,11135,11155,11175,11195,11216,11237,11256,11275,11297,11317,11336,11356,11376,11396,11416,11436,11455,11475,11495,11515,11535,11555,11577,11597,11616,11636,11656,11675,11696,11715,11736,11755,11777,11796,11816,11836,11855,11875,11896,11915,11935,11956,11977,11996,12016],"xSR":741.5,"ySR":469.95,"xT1":424.9,"yT1":0,"xT2":1058.1,"yT2":0,"toosoon":0,"cond_shown":"Incongruent","ratio_trial":300,"L_num":7,"L_den":10,"R_num":8,"R_den":20,"correct_side":1,"subjID":"isabellagomez13","gender":"1","school":"4","age":"9"},{"start_time":1552327913859,"click_time":1552327914647,"finger_time":1552327914188,"fix_duration":250,"trial":63,"RT":329,"MT":459,"sideResp":2,"stimulus":[],"xmouse":[781,781,781,781,781,781,781,781,781,781,781,781,781,781,798,826,861,891,910,927,930,933,938,947,999,1030,1053,1058,1058,1053,1042,1034,1024,1020,1021,1028,1028,1028,1028,1074],"ymouse":[538,538,538,538,538,538,538,538,538,538,538,538,538,538,517,481,452,419,394,363,356,348,341,331,287,258,216,184,155,111,99,88,71,55,13,1,1,1,1,18],"timestamp_mouse":[10,40,47,67,89,107,129,147,167,188,209,229,248,267,287,308,329,349,368,387,408,428,448,469,487,509,528,549,568,587,608,627,649,668,687,709,728,748,767,788],"xSR":741.5,"ySR":469.95,"xT1":424.9,"yT1":0,"xT2":1058.1,"yT2":0,"toosoon":0,"cond_shown":"Incongruent","ratio_trial":100,"L_num":9,"L_den":18,"R_num":6,"R_den":10,"correct_side":2,"subjID":"isabellagomez13","gender":"1","school":"4","age":"9"},{"start_time":1552327918319,"click_time":1552327919147,"finger_time":1552327918427,"fix_duration":250,"trial":64,"RT":108,"MT":720,"sideResp":2,"stimulus":[],"xmouse":[768,768,768,770,771,774,774,774,774,774,774,776,783,793,809,843,1007,1092,1185,1278,1324,1324,1324,1324,1324,1324,1324,1324,1324,1324,1324,1220,1207,1199,1195,1195,1195,1195,1195,1193,1186,1157],"ymouse":[514,514,514,493,481,464,441,433,423,413,397,366,348,330,308,279,183,134,83,31,3,3,3,3,3,3,3,3,3,3,3,4,16,27,36,39,45,45,46,49,51,55],"timestamp_mouse":[9,27,47,69,88,108,127,148,168,189,207,227,248,268,287,307,327,348,368,389,410,429,448,468,488,508,529,549,569,588,607,627,647,668,687,709,728,747,768,787,809,828],"xSR":741.5,"ySR":469.95,"xT1":424.9,"yT1":0,"xT2":1058.1,"yT2":0,"toosoon":0,"cond_shown":"Incongruent","ratio_trial":200,"L_num":1,"L_den":2,"R_num":3,"R_den":10,"correct_side":1,"subjID":"isabellagomez13","gender":"1","school":"4","age":"9"},{"start_time":1552327923281,"click_time":1552327923927,"finger_time":1552327923587,"fix_duration":553.3869532195254,"trial":65,"RT":306,"MT":340,"sideResp":1,"stimulus":[],"xmouse":[798,798,798,798,798,798,798,798,798,798,798,798,796,787,768,737,701,640,580,569,567,567,567,567,564,558,552,547,541,539,535,528,517],"ymouse":[489,489,489,489,489,489,489,489,489,489,489,489,489,489,475,448,414,360,305,297,295,295,295,295,289,264,239,208,157,145,131,116,99],"timestamp_mouse":[14,39,47,65,85,106,126,145,165,185,205,225,246,266,287,306,325,346,366,386,405,426,447,465,485,505,527,546,565,587,606,626,646],"xSR":741.5,"ySR":469.95,"xT1":424.9,"yT1":0,"xT2":1058.1,"yT2":0,"toosoon":0,"cond_shown":"Incongruent","ratio_trial":100,"L_num":9,"L_den":15,"R_num":14,"R_den":28,"correct_side":1,"subjID":"isabellagomez13","gender":"1","school":"4","age":"9"},{"start_time":1552327925508,"click_time":1552327926346,"finger_time":1552327925848,"fix_duration":420.2612759616454,"trial":66,"RT":340,"MT":498,"sideResp":1,"stimulus":[],"xmouse":[801,801,801,801,801,801,801,801,801,801,801,801,801,801,793,783,739,689,661,639,625,607,595,582,570,562,556,553,549,540,522,476,447,424,415,414,413,413,413,413,417,429],"ymouse":[517,517,517,517,517,517,517,517,517,517,517,517,517,517,515,510,477,438,411,385,359,319,299,284,265,249,200,183,174,167,161,144,130,116,108,103,96,96,96,96,95,94],"timestamp_mouse":[18,39