[{"start_time":1552073927047,"click_time":1552073928980,"finger_time":1552073928600,"fix_duration":902.6879590187365,"trial":0,"RT":1553,"MT":380,"sideResp":2,"stimulus":"img/900/equaldotanddens/L/4_Ratio_900_L_20_R_18.png","xmouse":[812,812,812,812,812,812,812,812,812,812,812,812,812,812,812,812,812,812,812,812,812,812,812,812,812,812,812,812,812,812,812,812,812,812,812,812,812,812,812,812,812,812,812,812,812,812,812,812,812,812,812,812,812,812,812,812,812,812,812,812,812,812,812,812,812,812,812,812,812,812,812,812,812,811,811,796,778,775,771,783,803,818,829,843,855,885,909,923,938,958,963,968,979,983,998,1048,1064],"ymouse":[540,540,540,540,540,540,540,540,540,540,540,540,540,540,540,540,540,540,540,540,540,540,540,540,540,540,540,540,540,540,540,540,540,540,540,540,540,540,540,540,540,540,540,540,540,540,540,540,540,540,540,540,540,540,540,540,540,540,540,540,540,540,540,540,540,540,540,540,540,540,540,540,540,535,524,484,452,445,415,366,336,305,282,260,241,193,149,125,104,80,80,80,80,80,80,78,72],"timestamp_mouse":[12,50,53,73,93,112,132,152,173,193,214,233,253,273,292,313,332,352,372,392,412,433,454,473,492,513,534,552,572,592,613,633,653,673,693,712,733,752,772,793,813,833,854,873,893,913,933,952,973,992,1012,1033,1053,1073,1093,1114,1132,1152,1173,1193,1213,1232,1252,1272,1293,1314,1334,1353,1373,1393,1414,1434,1453,1472,1492,1513,1532,1553,1573,1594,1614,1632,1652,1672,1693,1713,1732,1752,1773,1793,1813,1834,1853,1872,1893,1912,1932],"xSR":741.5,"ySR":481,"xT1":424.9,"yT1":0,"xT2":1058.1,"yT2":0,"toosoon":0,"cond_shown":"equaldotanddens","ratio_trial":900,"smaller_num":"18","larger_num":"20","correct_side":1,"subjID":"isabellamarulandavelez17","gender":"1","age":"9","school":"4","test":{"fix_dur":[250,1500],"timestim":300,"targets_dim":[100,100],"targets_relative_coord":[0.3,0.7],"size_stim":[880,420],"start_dim":[100,100],"size_start":[300,300],"size_fix":60,"samplingrate":20,"img_types":["equaldotsize","equaldotanddens","randomdotsizeEA"],"ratios":[250,500,750,900],"rep_conds":9,"nTrials":120,"trials_to_rest":500,"Trials_order":[10,33,71,102,66,118,87,105,103,50,104,89,108,68,86,5,117,91,57,36,41,95,39,115,27,26,15,40,21,17,107,37,98,83,30,110,106,77,11,31,22,112,93,7,92,42,54,23,6,101,4,119,90,73,9,59,70,48,99,2,47,14,0,19,46,114,43,24,84,52,45,113,49,8,116,58,80,29,81,74,25,88,82,111,75,100,64,3,78,13,109,79,28,38,69,34,61,67,35,56,12,96,44,65,32,76,55,1,94,20,62,18,63,97,53,85,16,60,72,51],"cond_shown":["equaldotanddens","equaldotsize","randomdotsizeEA","equaldotsize","equaldotsize","equaldotanddens","equaldotsize","equaldotsize","equaldotanddens","randomdotsizeEA","randomdotsizeEA","randomdotsizeEA","equaldotsize","randomdotsizeEA","randomdotsizeEA","randomdotsizeEA","equaldotsize","equaldotanddens","equaldotsize","equaldotsize","randomdotsizeEA","randomdotsizeEA","equaldotsize","equaldotanddens","equaldotsize","randomdotsizeEA","equaldotsize","equaldotanddens","equaldotsize","randomdotsizeEA","randomdotsizeEA","equaldotanddens","randomdotsizeEA","randomdotsizeEA","equaldotsize","randomdotsizeEA","equaldotanddens","randomdotsizeEA","randomdotsizeEA","equaldotanddens","equaldotanddens","equaldotanddens","equaldotsize","equaldotanddens","randomdotsizeEA","equaldotsize","equaldotsize","randomdotsizeEA","equaldotsize","randomdotsizeEA","equaldotanddens","randomdotsizeEA","equaldotsize","equaldotanddens","equaldotsize","randomdotsizeEA","equaldotanddens","equaldotsize","equaldotsize","randomdotsizeEA","randomdotsizeEA","randomdotsizeEA","equaldotsize","equaldotanddens","equaldotanddens","equaldotsize","equaldotanddens","equaldotsize","equaldotsize","equaldotanddens","equaldotsize","randomdotsizeEA","equaldotanddens","randomdotsizeEA","randomdotsizeEA","equaldotanddens","randomdotsizeEA","randomdotsizeEA","equaldotsize","randomdotsizeEA","equaldotanddens","equaldotanddens","equaldotanddens","equaldotsize","equaldotsize","equaldotanddens","equaldotanddens","equaldotsize","equaldotsize","equaldotanddens","equaldotanddens","equaldotanddens","equaldotanddens","randomdotsizeEA","equaldotsize","equaldotanddens","equaldotanddens","equaldotanddens","randomdotsizeEA","randomdotsizeEA","equaldotsize","equaldotsize","randomdotsizeEA","randomdotsizeEA","randomdotsizeEA","equaldotanddens","equaldotanddens","equaldotanddens","equaldotanddens","randomdotsizeEA","randomdotsizeEA","equaldotsize","equaldotsize","equaldotanddens","randomdotsizeEA","equaldotanddens","equaldotanddens","equaldotsize","equaldotsize","equaldotsize"],"ratio_trial":[900,900,900,750,750,900,500,900,750,250,750,500,250,750,250,500,900,750,900,250,500,900,500,750,500,250,500,500,900,500,900,250,250,900,750,250,900,500,900,750,900,500,900,750,750,750,750,900,750,500,500,900,750,250,900,900,900,250,500,250,900,250,250,750,900,750,750,250,250,500,900,500,250,750,750,900,750,500,900,250,250,500,900,500,500,500,500,500,750,250,250,750,500,250,900,900,250,750,900,750,250,250,750,500,750,500,750,250,900,750,250,750,500,250,500,250,500,250,250,500],"smaller_num":["18","18","9","6","3","9","2","18","18","3","6","5","3","15","4","6","9","9","18","4","1","18","5","15","9","3","2","5","18","9","18","2","3","18","3","3","18","10","9","18","18","4","18","12","12","3","15","18","9","1","2","18","15","3","18","9","18","3","10","2","18","3","1","3","9","3","6","4","6","6","18","10","3","3","3","18","15","10","9","6","6","2","18","2","9","5","10","3","6","3","3","3","6","3","18","18","6","3","18","3","2","2","3","2","15","9","15","2","18","6","4","6","6","3","5","3","9","3","3","9"],"larger_num":["20","20","10","8","4","10","4","20","24","12","8","10","12","20","16","12","10","12","20","16","2","20","10","20","18","12","4","10","20","18","20","8","12","20","4","12","20","20","10","24","20","8","20","16","16","4","20","20","12","2","4","20","20","12","20","10","20","12","20","8","20","12","4","4","10","4","8","16","24","12","20","20","12","4","4","20","20","20","10","24","24","4","20","4","18","10","20","6","8","12","12","4","12","12","20","20","24","4","20","4","8","8","4","4","20","18","20","8","20","8","16","8","12","12","10","12","18","12","12","18"],"correct_side":[1,2,2,1,2,1,1,2,1,1,2,1,2,1,1,1,1,2,1,1,2,2,1,2,2,1,2,2,2,1,1,2,1,1,1,1,2,2,1,1,1,1,1,2,2,2,2,1,2,2,1,1,2,2,1,2,1,2,2,1,1,2,2,1,2,2,1,1,1,1,1,2,2,2,2,1,1,2,2,2,1,1,2,2,2,1,2,2,1,2,2,2,1,2,1,1,2,2,1,1,2,1,1,2,1,2,2,2,2,1,1,1,1,2,1,1,1,2,2,2],"img_shown":["img/900/equaldotanddens/L/4_Ratio_900_L_20_R_18.png","img/900/equaldotsize/R/11_Ratio_900_L_18_R_20.png","img/900/randomdotsizeEA/R/15_Ratio_900_L_9_R_10.png","img/750/equaldotsize/L/14_Ratio_750_L_8_R_6.png","img/750/equaldotsize/R/7_Ratio_750_L_3_R_4.png","img/900/equaldotanddens/L/1_Ratio_900_L_10_R_9.png","img/500/equaldotsize/L/5_Ratio_500_L_4_R_2.png","img/900/equaldotsize/R/13_Ratio_900_L_18_R_20.png","img/750/equaldotanddens/L/6_Ratio_750_L_24_R_18.png","img/250/randomdotsizeEA/L/14_Ratio_250_L_12_R_3.png","img/750/randomdotsizeEA/R/2_Ratio_750_L_6_R_8.png","img/500/randomdotsizeEA/L/7_Ratio_500_L_10_R_5.png","img/250/equaldotsize/R/9_Ratio_250_L_3_R_12.png","img/750/randomdotsizeEA/L/1_Ratio_750_L_20_R_15.png","img/250/randomdotsizeEA/L/2_Ratio_250_L_16_R_4.png","img/500/randomdotsizeEA/L/13_Ratio_500_L_12_R_6.png","img/900/equaldotsize/L/1_Ratio_900_L_10_R_9.png","img/750/equaldotanddens/R/15_Ratio_750_L_9_R_12.png","img/900/equaldotsize/L/10_Ratio_900_L_20_R_18.png","img/250/equaldotsize/L/2_Ratio_250_L_16_R_4.png","img/500/randomdotsizeEA/R/12_Ratio_500_L_1_R_2.png","img/900/randomdotsizeEA/R/9_Ratio_900_L_18_R_20.png","img/500/equaldotsize/L/7_Ratio_500_L_10_R_5.png","img/750/equaldotanddens/R/4_Ratio_750_L_15_R_20.png","img/500/equaldotsize/R/6_Ratio_500_L_9_R_18.png","img/250/randomdotsizeEA/L/14_Ratio_250_L_12_R_3.png","img/500/equaldotsize/R/9_Ratio_500_L_2_R_4.png","img/500/equaldotanddens/R/14_Ratio_500_L_5_R_10.png","img/900/equaldotsize/R/12_Ratio_900_L_18_R_20.png","img/500/randomdotsizeEA/L/4_Ratio_500_L_18_R_9.png","img/900/randomdotsizeEA/L/10_Ratio_900_L_20_R_18.png","img/250/equaldotanddens/R/13_Ratio_250_L_2_R_8.png","img/250/randomdotsizeEA/L/15_Ratio_250_L_12_R_3.png","img/900/randomdotsizeEA/L/8_Ratio_900_L_20_R_18.png","img/750/equaldotsize/L/10_Ratio_750_L_4_R_3.png","img/250/randomdotsizeEA/L/15_Ratio_250_L_12_R_3.png","img/900/equaldotanddens/R/11_Ratio_900_L_18_R_20.png","img/500/randomdotsizeEA/R/3_Ratio_500_L_10_R_20.png","img/900/randomdotsizeEA/L/1_Ratio_900_L_10_R_9.png","img/750/equaldotanddens/L/6_Ratio_750_L_24_R_18.png","img/900/equaldotanddens/L/8_Ratio_900_L_20_R_18.png","img/500/equaldotanddens/L/8_Ratio_500_L_8_R_4.png","img/900/equaldotsize/L/2_Ratio_900_L_20_R_18.png","img/750/equaldotanddens/R/11_Ratio_750_L_12_R_16.png","img/750/randomdotsizeEA/R/11_Ratio_750_L_12_R_16.png","img/750/equaldotsize/R/7_Ratio_750_L_3_R_4.png","img/750/equaldotsize/R/3_Ratio_750_L_15_R_20.png","img/900/randomdotsizeEA/L/8_Ratio_900_L_20_R_18.png","img/750/equaldotsize/R/15_Ratio_750_L_9_R_12.png","img/500/randomdotsizeEA/R/15_Ratio_500_L_1_R_2.png","img/500/equaldotanddens/L/5_Ratio_500_L_4_R_2.png","img/900/randomdotsizeEA/L/2_Ratio_900_L_20_R_18.png","img/750/equaldotsize/R/5_Ratio_750_L_15_R_20.png","img/250/equaldotanddens/R/4_Ratio_250_L_3_R_12.png","img/900/equaldotsize/L/10_Ratio_900_L_20_R_18.png","img/900/randomdotsizeEA/R/3_Ratio_900_L_9_R_10.png","img/900/equaldotanddens/L/4_Ratio_900_L_20_R_18.png","img/250/equaldotsize/R/9_Ratio_250_L_3_R_12.png","img/500/equaldotsize/R/3_Ratio_500_L_10_R_20.png","img/250/randomdotsizeEA/L/7_Ratio_250_L_8_R_2.png","img/900/randomdotsizeEA/L/8_Ratio_900_L_20_R_18.png","img/250/randomdotsizeEA/R/11_Ratio_250_L_3_R_12.png","img/250/equaldotsize/R/8_Ratio_250_L_1_R_4.png","img/750/equaldotanddens/L/10_Ratio_750_L_4_R_3.png","img/900/equaldotanddens/R/6_Ratio_900_L_9_R_10.png","img/750/equaldotsize/R/7_Ratio_750_L_3_R_4.png","img/750/equaldotanddens/L/13_Ratio_750_L_8_R_6.png","img/250/equaldotsize/L/2_Ratio_250_L_16_R_4.png","img/250/equaldotsize/L/5_Ratio_250_L_24_R_6.png","img/500/equaldotanddens/L/11_Ratio_500_L_12_R_6.png","img/900/equaldotsize/L/10_Ratio_900_L_20_R_18.png","img/500/randomdotsizeEA/R/3_Ratio_500_L_10_R_20.png","img/250/equaldotanddens/R/4_Ratio_250_L_3_R_12.png","img/750/randomdotsizeEA/R/12_Ratio_750_L_3_R_4.png","img/750/randomdotsizeEA/R/7_Ratio_750_L_3_R_4.png","img/900/equaldotanddens/L/2_Ratio_900_L_20_R_18.png","img/750/randomdotsizeEA/L/1_Ratio_750_L_20_R_15.png","img/500/randomdotsizeEA/R/3_Ratio_500_L_10_R_20.png","img/900/equaldotsize/R/5_Ratio_900_L_9_R_10.png","img/250/randomdotsizeEA/R/6_Ratio_250_L_6_R_24.png","img/250/equaldotanddens/L/5_Ratio_250_L_24_R_6.png","img/500/equaldotanddens/L/10_Ratio_500_L_4_R_2.png","img/900/equaldotanddens/R/11_Ratio_900_L_18_R_20.png","img/500/equaldotsize/R/9_Ratio_500_L_2_R_4.png","img/500/equaldotsize/R/1_Ratio_500_L_9_R_18.png","img/500/equaldotanddens/L/7_Ratio_500_L_10_R_5.png","img/500/equaldotanddens/R/3_Ratio_500_L_10_R_20.png","img/500/equaldotsize/R/2_Ratio_500_L_3_R_6.png","img/750/equaldotsize/L/13_Ratio_750_L_8_R_6.png","img/250/equaldotanddens/R/11_Ratio_250_L_3_R_12.png","img/250/equaldotanddens/R/11_Ratio_250_L_3_R_12.png","img/750/equaldotanddens/R/7_Ratio_750_L_3_R_4.png","img/500/equaldotanddens/L/11_Ratio_500_L_12_R_6.png","img/250/randomdotsizeEA/R/11_Ratio_250_L_3_R_12.png","img/900/equaldotsize/L/4_Ratio_900_L_20_R_18.png","img/900/equaldotanddens/L/2_Ratio_900_L_20_R_18.png","img/250/equaldotanddens/R/6_Ratio_250_L_6_R_24.png","img/750/equaldotanddens/R/12_Ratio_750_L_3_R_4.png","img/900/randomdotsizeEA/L/10_Ratio_900_L_20_R_18.png","img/750/randomdotsizeEA/L/10_Ratio_750_L_4_R_3.png","img/250/equaldotsize/R/13_Ratio_250_L_2_R_8.png","img/250/equaldotsize/L/1_Ratio_250_L_8_R_2.png","img/750/randomdotsizeEA/L/9_Ratio_750_L_4_R_3.png","img/500/randomdotsizeEA/R/9_Ratio_500_L_2_R_4.png","img/750/randomdotsizeEA/L/1_Ratio_750_L_20_R_15.png","img/500/equaldotanddens/R/6_Ratio_500_L_9_R_18.png","img/750/equaldotanddens/R/4_Ratio_750_L_15_R_20.png","img/250/equaldotanddens/R/13_Ratio_250_L_2_R_8.png","img/900/equaldotanddens/R/9_Ratio_900_L_18_R_20.png","img/750/randomdotsizeEA/L/14_Ratio_750_L_8_R_6.png","img/250/randomdotsizeEA/L/2_Ratio_250_L_16_R_4.png","img/750/equaldotsize/L/14_Ratio_750_L_8_R_6.png","img/500/equaldotsize/L/11_Ratio_500_L_12_R_6.png","img/250/equaldotanddens/R/9_Ratio_250_L_3_R_12.png","img/500/randomdotsizeEA/L/7_Ratio_500_L_10_R_5.png","img/250/equaldotanddens/L/15_Ratio_250_L_12_R_3.png","img/500/equaldotanddens/L/4_Ratio_500_L_18_R_9.png","img/250/equaldotsize/R/9_Ratio_250_L_3_R_12.png","img/250/equaldotsize/R/9_Ratio_250_L_3_R_12.png","img/500/equaldotsize/R/6_Ratio_500_L_9_R_18.png"],"Rat0":[["12_Ratio_0_L_9_R_0.png","13_Ratio_0_L_6_R_0.png","5_Ratio_0_L_2_R_0.png","6_Ratio_0_L_4_R_0.png","8_Ratio_0_L_6_R_0.png"],["1_Ratio_0_L_0_R_17.png","10_Ratio_0_L_0_R_22.png","11_Ratio_0_L_0_R_1.png","14_Ratio_0_L_0_R_24.png","15_Ratio_0_L_0_R_4.png","2_Ratio_0_L_0_R_5.png","3_Ratio_0_L_0_R_17.png","4_Ratio_0_L_0_R_7.png","7_Ratio_0_L_0_R_19.png","9_Ratio_0_L_0_R_15.png"]],"Rat250":[["1_Ratio_250_L_8_R_2.png","14_Ratio_250_L_12_R_3.png","15_Ratio_250_L_12_R_3.png","2_Ratio_250_L_16_R_4.png","3_Ratio_250_L_8_R_2.png","5_Ratio_250_L_24_R_6.png","7_Ratio_250_L_8_R_2.png"],["10_Ratio_250_L_4_R_16.png","11_Ratio_250_L_3_R_12.png","12_Ratio_250_L_5_R_20.png","13_Ratio_250_L_2_R_8.png","4_Ratio_250_L_3_R_12.png","6_Ratio_250_L_6_R_24.png","8_Ratio_250_L_1_R_4.png","9_Ratio_250_L_3_R_12.png"]],"Rat500":[["10_Ratio_500_L_4_R_2.png","11_Ratio_500_L_12_R_6.png","13_Ratio_500_L_12_R_6.png","4_Ratio_500_L_18_R_9.png","5_Ratio_500_L_4_R_2.png","7_Ratio_500_L_10_R_5.png","8_Ratio_500_L_8_R_4.png"],["1_Ratio_500_L_9_R_18.png","12_Ratio_500_L_1_R_2.png","14_Ratio_500_L_5_R_10.png","15_Ratio_500_L_1_R_2.png","2_Ratio_500_L_3_R_6.png","3_Ratio_500_L_10_R_20.png","6_Ratio_500_L_9_R_18.png","9_Ratio_500_L_2_R_4.png"]],"Rat750":[["1_Ratio_750_L_20_R_15.png","10_Ratio_750_L_4_R_3.png","13_Ratio_750_L_8_R_6.png","14_Ratio_750_L_8_R_6.png","6_Ratio_750_L_24_R_18.png","8_Ratio_750_L_4_R_3.png","9_Ratio_750_L_4_R_3.png"],["11_Ratio_750_L_12_R_16.png","12_Ratio_750_L_3_R_4.png","15_Ratio_750_L_9_R_12.png","2_Ratio_750_L_6_R_8.png","3_Ratio_750_L_15_R_20.png","4_Ratio_750_L_15_R_20.png","5_Ratio_750_L_15_R_20.png","7_Ratio_750_L_3_R_4.png"]],"Rat900":[["1_Ratio_900_L_10_R_9.png","10_Ratio_900_L_20_R_18.png","2_Ratio_900_L_20_R_18.png","4_Ratio_900_L_20_R_18.png","8_Ratio_900_L_20_R_18.png"],["11_Ratio_900_L_18_R_20.png","12_Ratio_900_L_18_R_20.png","13_Ratio_900_L_18_R_20.png","14_Ratio_900_L_18_R_20.png","15_Ratio_900_L_9_R_10.png","3_Ratio_900_L_9_R_10.png","5_Ratio_900_L_9_R_10.png","6_Ratio_900_L_9_R_10.png","7_Ratio_900_L_9_R_10.png","9_Ratio_900_L_18_R_20.png"]],"Rat1000":[["10_Ratio_1000_L_16_R_16.png","11_Ratio_1000_L_6_R_6.png","12_Ratio_1000_L_14_R_14.png","13_Ratio_1000_L_20_R_20.png","15_Ratio_1000_L_15_R_15.png","2_Ratio_1000_L_17_R_17.png","4_Ratio_1000_L_9_R_9.png","5_Ratio_1000_L_6_R_6.png","6_Ratio_1000_L_19_R_19.png","8_Ratio_1000_L_14_R_14.png","9_Ratio_1000_L_25_R_25.png"],["1_Ratio_1000_L_1_R_1.png","14_Ratio_1000_L_17_R_17.png","3_Ratio_1000_L_17_R_17.png","7_Ratio_1000_L_6_R_6.png"]]}},{"start_time":1552073931312,"click_time":1552073932341,"finger_time":1552073931779,"fix_duration":1370.9021923398418,"trial":1,"RT":467,"MT":562,"sideResp":1,"stimulus":"img/900/equaldotsize/R/11_Ratio_900_L_18_R_20.png","xmouse":[782,782,783,783,783,783,783,783,783,783,783,783,783,783,783,783,783,783,783,783,783,783,779,753,678,626,606,606,606,606,606,606,606,606,606,606,606,606,550,549,549,549,549,549,549,549,549,549,549,549,533,458],"ymouse":[499,499,499,499,499,499,499,499,499,499,499,499,499,499,499,499,499,499,499,499,499,499,469,384,200,82,35,35,35,35,35,35,35,35,35,35,35,35,20,27,28,28,28,28,28,28,28,28,28,28,33,46],"timestamp_mouse":[7,35,48,68,88,107,128,148,167,187,207,228,248,269,287,307,328,348,369,387,407,428,448,467,487,507,527,547,567,587,609,628,648,669,687,708,729,748,769,788,808,828,847,867,887,907,928,947,967,987,1008,1028],"xSR":741.5,"ySR":449.15000000000003,"xT1":424.9,"yT1":0,"xT2":1058.1,"yT2":0,"toosoon":0,"cond_shown":"equaldotsize","ratio_trial":900,"smaller_num":"18","larger_num":"20","correct_side":2,"subjID":"isabellamarulandavelez17","gender":"1","age":"9","school":"4"},{"start_time":1552073936428,"click_time":1552073936860,"finger_time":1552073936820,"fix_duration":1266.436071733062,"trial":2,"RT":392,"MT":40,"sideResp":2,"stimulus":"img/900/randomdotsizeEA/R/15_Ratio_900_L_9_R_10.png","xmouse":[797,797,797,797,797,797,797,797,797,797,797,797,797,797,797,797,797,797,815,877,1034,1103],"ymouse":[505,505,505,505,505,505,505,505,505,505,505,505,505,505,505,505,505,505,481,401,186,89],"timestamp_mouse":[18,37,52,73,91,112,132,152,172,191,212,232,252,272,291,311,333,352,371,392,413,432],"xSR":741.5,"ySR":449.15000000000003,"xT1":424.9,"yT1":0,"xT2":1058.1,"yT2":0,"toosoon":0,"cond_shown":"randomdotsizeEA","ratio_trial":900,"smaller_num":"9","larger_num":"10","correct_side":2,"subjID":"isabellamarulandavelez17","gender":"1","age":"9","school":"4"},{"start_time":1552073938581,"click_time":1552073939320,"finger_time":1552073938979,"fix_duration":519.5786479421463,"trial":3,"RT":398,"MT":341,"sideResp":2,"stimulus":"img/750/equaldotsize/L/14_Ratio_750_L_8_R_6.png","xmouse":[797,797,797,797,797,797,797,797,797,797,797,797,797,797,797,797,797,797,812,824,858,926,994,1009,1023,1034,1040,1043,1049,1050,1050,1050,1050,1053,1060,1064,1068],"ymouse":[472,472,472,472,472,472,472,472,472,472,472,472,472,472,472,472,472,472,456,442,402,320,240,220,203,188,173,159,139,136,136,136,136,127,115,105,94],"timestamp_mouse":[19,39,59,78,98,119,138,159,178,199,219,239,258,278,299,319,340,359,379,398,418,440,459,479,498,518,539,558,578,599,619,638,659,678,698,718,739],"xSR":741.5,"ySR":449.15000000000003,"xT1":424.9,"yT1":0,"xT2":1058.1,"yT2":0,"toosoon":0,"cond_shown":"equaldotsize","ratio_trial":750,"smaller_num":"6","larger_num":"8","correct_side":1,"subjID":"isabellamarulandavelez17","gender":"1","age":"9","school":"4"},{"start_time":1552073941852,"click_time":1552073942880,"finger_time":1552073942840,"fix_duration":250,"trial":4,"RT":988,"MT":40,"sideResp":2,"stimulus":"img/750/equaldotsize/R/7_Ratio_750_L_3_R_4.png","xmouse":[804,804,804,804,804,804,804,804,804,804,804,804,804,804,804,804,804,804,804,802,800,800,800,800,800,800,800,800,800,800,800,800,800,800,800,800,800,800,800,800,800,800,800,800,800,800,800,806,822,991,1082,1157],"ymouse":[482,482,482,482,482,482,482,482,482,482,482,482,482,482,482,482,482,482,482,480,480,480,480,480,480,480,480,480,480,480,480,480,480,480,480,480,480,480,480,480,480,480,480,480,480,480,480,474,461,276,167,76],"timestamp_mouse":[15,32,48,68,87,108,128,148,168,188,207,227,248,268,288,307,327,349,368,388,408,427,447,467,488,508,529,547,568,588,608,628,649,669,687,707,727,748,768,787,808,829,849,867,888,908,927,948,968,988,1007,1028],"xSR":741.5,"ySR":449.15000000000003,"xT1":424.9,"yT1":0,"xT2":1058.1,"yT2":0,"toosoon":0,"cond_shown":"equaldotsize","ratio_trial":750,"smaller_num":"3","larger_num":"4","correct_side":2,"subjID":"isabellamarulandavelez17","gender":"1","age":"9","school":"4"},{"start_time":1552073944657,"click_time":1552073945081,"finger_time":1552073945019,"fix_duration":475.8832979489137,"trial":5,"RT":362,"MT":62,"sideResp":2,"stimulus":"img/900/equaldotanddens/L/1_Ratio_900_L_10_R_9.png","xmouse":[800,800,800,800,800,800,800,800,800,800,800,800,800,800,800,800,802,812,879,1004,1065,1123],"ymouse":[475,475,475,475,475,475,475,475,475,475,475,475,475,475,475,475,474,457,371,231,156,79],"timestamp_mouse":[12,30,43,62,83,103,123,143,163,183,203,222,242,263,283,302,322,343,362,383,402,424],"xSR":741.5,"ySR":449.15000000000003,"xT1":424.9,"yT1":0,"xT2":1058.1,"yT2":0,"toosoon":0,"cond_shown":"equaldotanddens","ratio_trial":900,"smaller_num":"9","larger_num":"10","correct_side":1,"subjID":"isabellamarulandavelez17","gender":"1","age":"9","school":"4"},{"start_time":1552073947007,"click_time":1552073947620,"finger_time":1552073947440,"fix_duration":625.3432977476333,"trial":6,"RT":433,"MT":180,"sideResp":2,"stimulus":"img/500/equaldotsize/L/5_Ratio_500_L_4_R_2.png","xmouse":[810,810,810,810,810,810,810,810,810,810,810,810,810,810,810,810,810,810,810,809,818,853,886,910,939,972,1028,1040,1049,1054,1062],"ymouse":[503,503,503,503,503,503,503,503,503,503,503,503,503,503,503,503,503,503,503,502,484,424,356,272,177,116,47,35,28,25,22],"timestamp_mouse":[12,32,53,72,92,113,133,152,173,192,213,233,253,272,293,313,333,354,373,394,414,433,453,473,493,512,533,552,573,593,612],"xSR":741.5,"ySR":449.15000000000003,"xT1":424.9,"yT1":0,"xT2":1058.1,"yT2":0,"toosoon":0,"cond_shown":"equaldotsize","ratio_trial":500,"smaller_num":"2","larger_num":"4","correct_side":1,"subjID":"isabellamarulandavelez17","gender":"1","age":"9","school":"4"},{"start_time":1552073950131,"click_time":1552073950740,"finger_time":1552073950561,"fix_duration":1429.8913140272946,"trial":7,"RT":430,"MT":179,"sideResp":1,"stimulus":"img/900/equaldotsize/R/13_Ratio_900_L_18_R_20.png","xmouse":[789,789,789,789,789,789,789,789,789,789,789,789,789,789,789,789,789,789,789,790,790,785,762,716,634,562,550,545,544,541,513],"ymouse":[497,497,497,497,497,497,497,497,497,497,497,497,497,497,497,497,497,497,497,491,466,422,351,248,136,91,89,89,90,90,57],"timestamp_mouse":[12,37,48,68,89,108,128,149,168,188,208,228,249,269,289,309,329,348,369,389,409,430,450,470,489,509,530,548,568,590,609],"xSR":741.5,"ySR":449.15000000000003,"xT1":424.9,"yT1":0,"xT2":1058.1,"yT2":0,"toosoon":0,"cond_shown":"equaldotsize","ratio_trial":900,"smaller_num":"18","larger_num":"20","correct_side":2,"subjID":"isabellamarulandavelez17","gender":"1","age":"9","school":"4"},{"start_time":1552073952126,"click_time":1552073953021,"finger_time":1552073952680,"fix_duration":363.222534278327,"trial":8,"RT":554,"MT":341,"sideResp":2,"stimulus":"img/750/equaldotanddens/L/6_Ratio_750_L_24_R_18.png","xmouse":[785,785,785,785,785,785,785,785,785,785,785,785,785,785,785,785,785,785,785,785,785,785,785,785,785,795,819,862,925,985,1045,1129,1148,1160,1162,1165,1176,1196,1212,1222,1225,1222,1207,1167,1138],"ymouse":[524,524,524,524,524,524,524,524,524,524,524,524,524,524,524,524,524,524,524,524,524,524,524,524,524,519,499,462,401,321,242,129,106,90,88,85,81,70,56,38,24,18,17,17,25],"timestamp_mouse":[28,35,53,74,95,114,135,155,173,193,214,234,255,273,293,314,334,354,373,394,414,434,453,475,494,514,535,554,574,594,613,634,654,673,693,714,733,754,774,794,814,833,853,873,895],"xSR":741.5,"ySR":449.15000000000003,"xT1":424.9,"yT1":0,"xT2":1058.1,"yT2":0,"toosoon":0,"cond_shown":"equaldotanddens","ratio_trial":750,"smaller_num":"18","larger_num":"24","correct_side":1,"subjID":"isabellamarulandavelez17","gender":"1","age":"9","school":"4"},{"start_time":1552073956496,"click_time":1552073957941,"finger_time":1552073957279,"fix_duration":716.6759416923217,"trial":9,"RT":783,"MT":662,"sideResp":2,"stimulus":"img/250/randomdotsizeEA/L/14_Ratio_250_L_12_R_3.png","xmouse":[827,827,827,827,827,826,824,822,821,818,817,817,817,817,817,815,814,810,808,807,807,807,807,805,805,805,804,804,804,804,804,802,800,800,800,800,800,800,830,882,962,1055,1231,1256,1266,1267,1267,1271,1273,1273,1273,1273,1273,1273,1055,980,952,938,938,937,937,937,1078,1209,1376,1400,1413,1401,1370,1307,1230,1166,1113],"ymouse":[514,515,515,515,515,514,513,512,512,512,512,512,512,512,512,512,513,513,514,515,515,515,515,515,515,515,515,515,515,515,515,519,521,521,521,521,521,521,461,381,287,191,55,33,23,20,20,13,5,5,5,5,5,5,5,69,112,158,159,160,160,160,160,152,128,122,111,92,74,56,41,35,35],"timestamp_mouse":[4,30,44,64,84,104,124,144,163,184,204,224,244,264,283,304,323,343,364,384,404,425,443,463,484,504,523,543,565,585,604,623,643,663,683,703,723,744,764,783,804,823,844,864,883,903,923,944,964,984,1003,1023,1044,1064,1084,1103,1123,1144,1164,1183,1203,1223,1245,1263,1284,1303,1323,1344,1365,1384,1403,1424,1445],"xSR":741.5,"ySR":449.15000000000003,"xT1":424.9,"yT1":0,"xT2":1058.1,"yT2":0,"toosoon":0,"cond_shown":"randomdotsizeEA","ratio_trial":250,"smaller_num":"3","larger_num":"12","correct_side":1,"subjID":"isabellamarulandavelez17","gender":"1","age":"9","school":"4"},{"start_time":1552073960004,"click_time":1552073960880,"finger_time":1552073960520,"fix_duration":660.2375665384293,"trial":10,"RT":516,"MT":360,"sideResp":1,"stimulus":"img/750/randomdotsizeEA/R/2_Ratio_750_L_6_R_8.png","xmouse":[759,759,759,759,759,759,759,759,759,759,759,759,759,759,759,759,759,759,759,759,759,759,759,759,755,731,666,623,584,568,568,568,568,568,568,568,568,568,568,568,412,416,423,431],"ymouse":[509,509,509,509,509,509,509,509,509,509,509,509,509,509,509,509,509,509,509,509,509,509,509,501,472,391,200,102,31,0,0,0,0,0,0,0,0,0,0,0,11,35,45,51],"timestamp_mouse":[15,36,57,76,96,116,136,156,175,195,215,236,256,275,295,316,336,356,376,395,415,436,455,475,496,516,536,555,577,596,616,635,656,677,696,716,736,756,775,795,815,836,855,876],"xSR":741.5,"ySR":449.15000000000003,"xT1":424.9,"yT1":0,"xT2":1058.1,"yT2":0,"toosoon":0,"cond_shown":"randomdotsizeEA","ratio_trial":750,"smaller_num":"6","larger_num":"8","correct_side":2,"subjID":"isabellamarulandavelez17","gender":"1","age":"9","school":"4"},{"start_time":1552073963572,"click_time":1552073964600,"finger_time":1552073964061,"fix_duration":330.0432019793036,"trial":11,"RT":489,"MT":539,"sideResp":2,"stimulus":"img/500/randomdotsizeEA/L/7_Ratio_500_L_10_R_5.png","xmouse":[764,768,782,791,796,796,796,796,796,796,796,796,796,796,796,796,796,796,796,796,797,797,805,820,875,918,946,987,1106,1177,1210,1210,1210,1210,1210,1210,1210,1210,1210,1210,1210,967,921,909,903,903,903,904,917,975,1046,1114],"ymouse":[514,513,517,520,520,520,520,520,520,520,520,520,520,520,520,520,520,520,520,520,520,516,500,480,416,360,320,267,125,44,5,5,5,5,5,5,5,5,5,5,5,18,58,78,95,96,96,97,97,83,62,43],"timestamp_mouse":[13,31,47,68,87,108,127,148,167,189,209,228,247,268,289,309,328,348,368,388,408,428,447,468,489,508,528,549,569,589,607,627,647,668,688,707,727,747,769,788,808,828,848,868,887,908,927,947,967,987,1009,1028],"xSR":741.5,"ySR":449.15000000000003,"xT1":424.9,"yT1":0,"xT2":1058.1,"yT2":0,"toosoon":0,"cond_shown":"randomdotsizeEA","ratio_trial":500,"smaller_num":"5","larger_num":"10","correct_side":1,"subjID":"isabellamarulandavelez17","gender":"1","age":"9","school":"4"},{"start_time":1552073967504,"click_time":1552073968720,"finger_time":1552073968020,"fix_duration":423.8788069026026,"trial":12,"RT":516,"MT":700,"sideResp":2,"stimulus":"img/250/equaldotsize/R/9_Ratio_250_L_3_R_12.png","xmouse":[783,783,783,783,783,783,783,783,783,783,783,783,783,783,783,783,783,783,783,783,783,783,783,783,764,713,617,588,576,571,567,562,558,553,548,548,548,548,548,548,548,636,776,1017,1097,1348,1473,1576,1579,1580,1577,1569,1561,1550,1524,1454,1389,1251,1202,1171,1157],"ymouse":[487,487,487,487,487,487,487,487,487,487,487,487,487,487,487,487,487,487,487,487,487,487,487,487,459,395,278,237,212,196,185,169,162,151,141,139,135,135,135,135,134,146,182,236,254,293,303,293,284,266,243,198,172,149,117,68,47,32,32,33,37],"timestamp_mouse":[17,35,55,75,96,116,135,157,176,195,215,236,256,275,295,316,336,355,375,397,416,436,456,475,496,516,536,556,575,596,616,636,655,676,696,715,736,755,776,796,816,836,855,875,895,916,936,956,975,996,1016,1037,1055,1077,1096,1115,1136,1155,1175,1195,1215],"xSR":741.5,"ySR":449.15000000000003,"xT1":424.9,"yT1":0,"xT2":1058.1,"yT2":0,"toosoon":0,"cond_shown":"equaldotsize","ratio_trial":250,"smaller_num":"3","larger_num":"12","correct_side":2,"subjID":"isabellamarulandavelez17","gender":"1","age":"9","school":"4"},{"start_time":1552073970521,"click_time":1552073971700,"finger_time":1552073971061,"fix_duration":759.6980856619499,"trial":13,"RT":540,"MT":639,"sideResp":2,"stimulus":"img/750/randomdotsizeEA/L/1_Ratio_750_L_20_R_15.png","xmouse":[794,794,794,794,794,794,794,794,794,794,794,794,794,794,794,794,794,794,794,794,794,794,794,794,794,794,810,861,936,1019,1093,1200,1239,1259,1259,1259,1259,1259,1259,1259,1259,1259,1194,1181,1171,1164,1162,1162,1162,1162,1162,1162,1162,1162,1162,1162,1161,1161,1161,1157],"ymouse":[529,529,529,529,529,529,529,529,529,529,529,529,529,529,529,529,529,529,529,529,529,529,529,529,529,529,508,463,400,326,245,100,38,2,2,2,2,2,2,2,2,2,12,26,38,48,51,51,51,51,51,51,51,51,51,51,52,52,52,52],"timestamp_mouse":[1,32,39,59,79,99,120,140,159,180,199,219,239,259,279,299,320,339,360,380,399,419,439,459,479,500,519,540,559,579,599,619,640,659,680,700,719,739,759,779,799,819,839,859,879,900,920,940,959,979,999,1019,1040,1059,1079,1099,1119,1139,1159,1179],"xSR":741.5,"ySR":449.15000000000003,"xT1":424.9,"yT1":0,"xT2":1058.1,"yT2":0,"toosoon":0,"cond_shown":"randomdotsizeEA","ratio_trial":750,"smaller_num":"15","larger_num":"20","correct_side":1,"subjID":"isabellamarulandavelez17","gender":"1","age":"9","school":"4"},{"start_time":1552073974100,"click_time":1552073974921,"finger_time":1552073974580,"fix_duration":1338.6385162767517,"trial":14,"RT":480,"MT":341,"sideResp":2,"stimulus":"img/250/randomdotsizeEA/L/2_Ratio_250_L_16_R_4.png","xmouse":[785,785,785,785,785,785,785,785,785,785,785,785,785,785,785,785,785,785,785,785,785,785,801,829,870,885,904,932,947,962,975,985,1002,1006,1011,1015,1016,1026,1035,1047,1060,1071],"ymouse":[512,512,512,512,512,512,512,512,512,512,512,512,512,512,512,512,512,511,511,511,511,511,499,484,454,442,421,383,359,335,308,284,244,234,214,199,192,160,146,128,110,95],"timestamp_mouse":[2,21,40,60,81,100,120,140,161,180,200,220,240,260,281,300,321,341,361,380,400,421,440,461,480,500,520,541,560,580,600,620,641,660,680,701,720,741,760,780,800,820],"xSR":741.5,"ySR":449.15000000000003,"xT1":424.9,"yT1":0,"xT2":1058.1,"yT2":0,"toosoon":0,"cond_shown":"randomdotsizeEA","ratio_trial":250,"smaller_num":"4","larger_num":"16","correct_side":1,"subjID":"isabellamarulandavelez17","gender":"1","age":"9","school":"4"},{"start_time":1552073977033,"click_time":1552073977641,"finger_time":1552073977481,"fix_duration":911.9455207456417,"trial":15,"RT":448,"MT":160,"sideResp":2,"stimulus":"img/500/randomdotsizeEA/L/13_Ratio_500_L_12_R_6.png","xmouse":[838,838,838,838,838,838,838,838,838,838,838,838,838,838,838,838,838,838,838,838,838,838,843,849,858,881,900,921,959,991,1064],"ymouse":[502,502,502,502,502,502,502,502,502,502,502,502,502,502,502,502,502,503,503,503,503,503,498,483,463,398,345,289,221,174,82],"timestamp_mouse":[12,36,47,67,88,107,128,147,167,187,208,228,247,267,287,307,327,347,367,387,407,427,448,467,487,508,527,548,568,588,607],"xSR":741.5,"ySR":449.15000000000003,"xT1":424.9,"yT1":0,"xT2":1058.1,"yT2":0,"toosoon":0,"cond_shown":"randomdotsizeEA","ratio_trial":500,"smaller_num":"6","larger_num":"12","correct_side":1,"subjID":"isabellamarulandavelez17","gender":"1","age":"9","school":"4"},{"start_time":1552073980084,"click_time":1552073980901,"finger_time":1552073980620,"fix_duration":1202.334648164037,"trial":16,"RT":536,"MT":281,"sideResp":1,"stimulus":"img/900/equaldotsize/L/1_Ratio_900_L_10_R_9.png","xmouse":[780,780,780,780,780,780,780,780,780,780,780,780,780,780,780,780,780,780,780,780,780,780,780,780,780,774,721,675,604,595,594,594,594,594,594,594,594,594,567,529,471],"ymouse":[509,509,509,509,509,509,509,509,509,509,509,509,509,509,509,509,509,509,509,509,509,509,509,509,507,496,401,333,230,214,212,212,212,212,212,212,212,212,173,125,67],"timestamp_mouse":[17,38,56,76,96,116,136,156,176,196,216,236,256,276,296,316,337,356,376,396,416,436,457,476,496,516,536,557,576,596,617,636,657,676,717,718,736,757,776,796,817],"xSR":741.5,"ySR":449.15000000000003,"xT1":424.9,"yT1":0,"xT2":1058.1,"yT2":0,"toosoon":0,"cond_shown":"equaldotsize","ratio_trial":900,"smaller_num":"9","larger_num":"10","correct_side":1,"subjID":"isabellamarulandavelez17","gender":"1","age":"9","school":"4"},{"start_time":1552073983195,"click_time":1552073983921,"finger_time":1552073983780,"fix_duration":1073.774972335522,"trial":17,"RT":585,"MT":141,"sideResp":2,"stimulus":"img/750/equaldotanddens/R/15_Ratio_750_L_9_R_12.png","xmouse":[791,791,791,791,791,791,791,791,791,791,791,791,791,791,791,791,791,791,791,791,791,791,791,791,791,791,791,791,805,839,879,951,1030,1051,1067,1078,1089],"ymouse":[508,508,508,508,508,508,508,508,508,508,508,508,508,508,508,508,508,508,508,508,508,508,508,508,508,508,508,508,488,445,397,303,196,161,132,111,93],"timestamp_mouse":[14,25,45,65,86,105,126,146,165,185,205,225,245,265,285,306,325,345,365,386,406,427,446,466,485,505,525,546,566,585,605,625,646,665,686,705,726],"xSR":741.5,"ySR":449.15000000000003,"xT1":424.9,"yT1":0,"xT2":1058.1,"yT2":0,"toosoon":0,"cond_shown":"equaldotanddens","ratio_trial":750,"smaller_num":"9","larger_num":"12","correct_side":2,"subjID":"isabellamarulandavelez17","gender":"1","age":"9","school":"4"},{"start_time":1552073989221,"click_time":1552073989841,"finger_time":1552073989761,"fix_duration":1120.6608234056562,"trial":18,"RT":540,"MT":80,"sideResp":2,"stimulus":"img/900/equaldotsize/L/10_Ratio_900_L_20_R_18.png","xmouse":[785,785,785,785,785,785,785,785,785,785,785,785,785,785,785,785,785,785,785,785,785,785,785,785,785,793,818,857,905,991,1070],"ymouse":[491,491,491,491,491,491,491,491,491,491,491,491,491,491,491,491,491,491,491,491,491,491,491,491,491,485,445,383,300,185,82],"timestamp_mouse":[30,39,59,80,99,119,140,159,180,200,219,239,259,279,302,320,339,359,379,399,419,440,459,479,500,519,540,559,579,600,619],"xSR":741.5,"ySR":449.15000000000003,"xT1":424.9,"yT1":0,"xT2":1058.1,"yT2":0,"toosoon":0,"cond_shown":"equaldotsize","ratio_trial":900,"smaller_num":"18","larger_num":"20","correct_side":1,"subjID":"isabellamarulandavelez17","gender":"1","age":"9","school":"4"},{"start_time":1552073992373,"click_time":1552073993341,"finger_time":1552073993061,"fix_duration":250,"trial":19,"RT":688,"MT":280,"sideResp":1,"stimulus":"img/250/equaldotsize/L/2_Ratio_250_L_16_R_4.png","xmouse":[776,776,776,776,776,776,776,776,776,776,777,778,778,779,779,779,779,779,779,779,779,779,779,779,780,781,781,781,781,781,781,777,771,760,706,677,653,641,635,633,633,631,627,608,581,540,494,475,460],"ymouse":[510,510,510,510,510,510,510,510,510,510,510,510,510,508,506,506,505,505,505,505,505,505,505,505,505,504,504,504,504,504,502,493,480,461,401,373,345,327,307,301,296,293,285,258,230,191,152,129,97],"timestamp_mouse":[13,31,48,67,87,107,127,147,167,187,207,228,247,268,287,307,327,347,367,388,407,427,447,467,488,508,527,547,567,588,607,627,648,667,688,708,727,748,767,787,807,827,847,867,887,907,927,947,968],"xSR":741.5,"ySR":449.15000000000003,"xT1":424.9,"yT1":0,"xT2":1058.1,"yT2":0,"toosoon":0,"cond_shown":"equaldotsize","ratio_trial":250,"smaller_num":"4","larger_num":"16","correct_side":1,"subjID":"isabellamarulandavelez17","gender":"1","age":"9","school":"4"},{"start_time":1552073995917,"click_time":1552073996541,"finger_time":1552073996420,"fix_duration":1434.4574029217501,"trial":20,"RT":503,"MT":121,"sideResp":1,"stimulus":"img/500/randomdotsizeEA/R/12_Ratio_500_L_1_R_2.png","xmouse":[820,820,820,820,820,820,820,820,820,820,820,820,820,820,820,820,820,820,820,820,820,820,820,817,810,775,744,666,611,567,529,511],"ymouse":[504,504,504,504,504,504,504,504,504,504,504,504,504,504,504,504,504,504,504,504,504,504,504,502,489,424,361,210,136,78,33,7],"timestamp_mouse":[14,38,43,63,84,104,123,143,163,183,203,223,244,263,283,304,324,343,364,383,403,423,444,464,483,503,524,543,563,584,603,624],"xSR":741.5,"ySR":449.15000000000003,"xT1":424.9,"yT1":0,"xT2":1058.1,"yT2":0,"toosoon":0,"cond_shown":"randomdotsizeEA","ratio_trial":500,"smaller_num":"1","larger_num":"2","correct_side":2,"subjID":"isabellamarulandavelez17","gender":"1","age":"9","school":"4"},{"start_time":1552073998562,"click_time":1552073999520,"finger_time":1552073999060,"fix_duration":699.2266129327145,"trial":21,"RT":498,"MT":460,"sideResp":2,"stimulus":"img/900/randomdotsizeEA/R/9_Ratio_900_L_18_R_20.png","xmouse":[794,794,794,794,794,794,794,794,794,794,794,794,794,794,794,794,794,794,794,794,794,794,794,795,824,848,883,928,967,1053,1102,1140,1162,1175,1178,1178,1178,1179,1182,1184,1185,1185,1182,1178,1177,1176,1171,1165,1157],"ymouse":[512,512,512,512,512,512,512,512,512,512,512,512,512,512,512,512,512,512,512,512,512,512,512,512,477,444,396,343,297,200,154,121,102,91,89,89,89,89,81,70,51,41,36,33,33,33,35,45,55],"timestamp_mouse":[2,19,40,59,78,98,119,138,159,179,199,218,238,259,279,299,318,339,358,378,398,419,438,459,478,498,519,538,558,580,598,618,639,658,679,698,718,738,758,779,799,818,838,858,879,898,918,939,958],"xSR":741.5,"ySR":449.15000000000003,"xT1":424.9,"yT1":0,"xT2":1058.1,"yT2":0,"toosoon":0,"cond_shown":"randomdotsizeEA","ratio_trial":900,"smaller_num":"18","larger_num":"20","correct_side":2,"subjID":"isabellamarulandavelez17","gender":"1","age":"9","school":"4"},{"start_time":1552074002013,"click_time":1552074002700,"finger_time":1552074002601,"fix_duration":1250.035704224767,"trial":22,"RT":588,"MT":99,"sideResp":1,"stimulus":"img/500/equaldotsize/L/7_Ratio_500_L_10_R_5.png","xmouse":[792,792,792,792,792,792,792,792,792,792,792,792,792,792,792,792,792,792,792,792,792,792,792,792,792,792,792,786,764,740,712,632,594,557,524],"ymouse":[504,504,504,504,504,504,504,504,504,504,504,504,504,504,504,504,504,504,504,504,504,504,504,504,504,504,504,490,453,410,371,259,206,147,98],"timestamp_mouse":[14,41,48,67,87,108,127,147,167,188,208,227,247,267,288,308,328,348,367,388,407,427,447,468,488,508,528,547,567,588,608,628,647,667,687],"xSR":741.5,"ySR":449.15000000000003,"xT1":424.9,"yT1":0,"xT2":1058.1,"yT2":0,"toosoon":0,"cond_shown":"equaldotsize","ratio_trial":500,"smaller_num":"5","larger_num":"10","correct_side":1,"subjID":"isabellamarulandavelez17","gender":"1","age":"9","school":"4"},{"start_time":1552074004937,"click_time":1552074006500,"finger_time":1552074006140,"fix_duration":996.6121372428786,"trial":23,"RT":1203,"MT":360,"sideResp":2,"stimulus":"img/750/equaldotanddens/R/4_Ratio_750_L_15_R_20.png","xmouse":[788,788,788,788,788,788,788,788,788,788,788,788,788,788,788,788,788,788,788,788,788,788,788,788,788,788,788,788,788,788,788,788,788,788,788,788,788,788,788,788,788,788,788,788,788,788,788,788,788,788,788,788,788,788,788,788,788,788,788,789,845,898,944,977,1005,1024,1028,1031,1036,1042,1052,1055,1058,1061,1064,1068,1071,1072,1073],"ymouse":[480,480,480,480,480,480,480,480,480,480,480,480,480,480,480,480,480,480,480,480,480,480,480,480,480,480,480,480,480,480,480,480,480,480,480,480,480,480,480,480,480,480,480,480,480,480,480,480,480,480,480,480,480,480,480,480,480,480,480,477,427,370,321,279,240,197,183,170,160,149,134,129,124,118,114,109,103,100,99],"timestamp_mouse":[12,32,43,64,84,104,124,144,163,183,204,223,243,263,283,303,324,346,363,383,403,423,443,463,483,503,523,543,563,583,603,623,643,663,684,703,724,743,763,783,803,823,843,863,883,903,923,943,963,984,1003,1023,1043,1063,1083,1103,1123,1143,1163,1183,1203,1223,1243,1263,1283,1303,1323,1345,1363,1383,1404,1423,1443,1463,1483,1504,1523,1543,1563],"xSR":741.5,"ySR":449.15000000000003,"xT1":424.9,"yT1":0,"xT2":1058.1,"yT2":0,"toosoon":0,"cond_shown":"equaldotanddens","ratio_trial":750,"smaller_num":"15","larger_num":"20","correct_side":2,"subjID":"isabellamarulandavelez17","gender":"1","age":"9","school":"4"},{"start_time":1552074008092,"click_time":1552074008801,"finger_time":1552074008540,"fix_duration":250,"trial":24,"RT":448,"MT":261,"sideResp":2,"stimulus":"img/500/equaldotsize/R/6_Ratio_500_L_9_R_18.png","xmouse":[818,818,818,818,818,818,818,818,818,818,818,818,818,818,818,818,818,818,818,818,818,826,875,905,928,941,957,990,1016,1035,1044,1050,1052,1052,1055,1061],"ymouse":[512,512,512,512,512,512,512,512,512,512,512,512,512,512,512,512,512,512,512,512,510,495,408,360,315,284,247,187,153,127,110,100,96,96,91,81],"timestamp_mouse":[11,33,49,69,88,108,128,148,169,188,208,228,248,269,289,308,328,348,369,388,409,428,448,468,488,508,528,549,569,588,608,629,648,668,688,708],"xSR":741.5,"ySR":449.15000000000003,"xT1":424.9,"yT1":0,"xT2":1058.1,"yT2":0,"toosoon":0,"cond_shown":"equaldotsize","ratio_trial":500,"smaller_num":"9","larger_num":"18","correct_side":2,"subjID":"isabellamarulandavelez17","gender":"1","age":"9","school":"4"},{"start_time":1552074011562,"click_time":1552074012320,"finger_time":1552074011960,"fix_duration":440.7421332818598,"trial":25,"RT":398,"MT":360,"sideResp":2,"stimulus":"img/250/randomdotsizeEA/L/14_Ratio_250_L_12_R_3.png","xmouse":[772,772,772,772,772,772,772,772,772,772,772,772,772,772,772,772,772,775,792,859,896,935,941,962,992,1002,1011,1015,1024,1031,1051,1059,1063,1067,1068,1070,1075,1081],"ymouse":[521,521,521,521,521,521,521,521,521,521,521,521,521,521,521,521,521,512,487,408,358,309,299,270,225,208,192,184,174,166,149,140,131,122,118,111,100,87],"timestamp_mouse":[18,40,58,78,98,118,138,158,178,198,218,238,258,278,298,318,339,358,378,398,418,439,459,478,498,519,538,559,579,598,619,638,658,679,699,718,738,758],"xSR":741.5,"ySR":449.15000000000003,"xT1":424.9,"yT1":0,"xT2":1058.1,"yT2":0,"toosoon":0,"cond_shown":"randomdotsizeEA","ratio_trial":250,"smaller_num":"3","larger_num":"12","correct_side":1,"subjID":"isabellamarulandavelez17","gender":"1","age":"9","school":"4"},{"start_time":1552074013558,"click_time":1552074015281,"finger_time":1552074014881,"fix_duration":394.17185908887785,"trial":26,"RT":1323,"MT":400,"sideResp":2,"stimulus":"img/500/equaldotsize/R/9_Ratio_500_L_2_R_4.png","xmouse":[778,778,778,778,778,778,778,778,778,778,778,778,778,778,778,778,771,767,766,765,765,765,765,765,765,765,765,765,765,765,765,765,765,765,765,765,765,765,765,765,765,765,765,765,767,769,769,769,770,774,778,781,782,782,782,782,782,782,782,782,782,782,782,784,806,820,840,866,886,926,941,949,968,982,1016,1039,1042,1045,1046,1047,1047,1049,1050,1053,1062,1071,1084],"ymouse":[510,510,510,510,510,510,510,510,510,510,510,510,510,510,510,510,505,502,502,501,501,501,499,489,468,461,457,457,457,457,457,457,457,457,457,457,457,457,457,457,457,457,457,460,464,469,469,469,472,491,514,533,545,545,545,545,545,545,545,545,541,537,531,523,478,454,426,396,379,355,344,337,317,301,254,223,216,204,199,193,190,188,184,178,153,126,95],"timestamp_mouse":[8,29,43,62,82,102,123,142,162,182,202,222,242,262,283,302,322,342,363,382,403,422,442,462,483,503,522,542,563,582,602,622,642,662,682,702,722,742,762,782,803,822,842,862,882,902,924,943,963,982,1003,1022,1043,1062,1082,1102,1122,1142,1162,1182,1202,1222,1242,1262,1283,1302,1323,1342,1362,1383,1402,1422,1442,1462,1482,1502,1522,1542,1562,1582,1602,1622,1643,1663,1682,1702,1722],"xSR":741.5,"ySR":449.15000000000003,"xT1":424.9,"yT1":0,"xT2":1058.1,"yT2":0,"toosoon":0,"cond_shown":"equaldotsize","ratio_trial":500,"smaller_num":"2","larger_num":"4","correct_side":2,"subjID":"isabellamarulandavelez17","gender":"1","age":"9","school":"4"},{"start_time":1552074018919,"click_time":1552074019860,"finger_time":1552074019361,"fix_duration":1236.753288541437,"trial":27,"RT":442,"MT":499,"sideResp":2,"stimulus":"img/500/equaldotanddens/R/14_Ratio_500_L_5_R_10.png","xmouse":[818,818,818,818,818,818,818,818,818,818,818,818,818,818,818,818,818,818,818,818,818,818,829,864,883,932,995,1011,1015,1015,1016,1019,1027,1046,1066,1075,1075,1075,1075,1075,1075,1075,1075,1075,1075,1075,1075,1076],"ymouse":[468,468,468,468,468,468,468,468,468,468,468,468,468,468,468,468,468,468,468,468,468,468,444,396,369,302,212,185,171,167,164,157,147,131,116,107,107,107,107,107,107,107,107,107,107,107,107,99],"timestamp_mouse":[10,22,42,61,81,101,122,142,161,181,201,221,242,261,282,301,322,341,361,381,401,422,442,462,481,501,522,541,562,582,603,621,641,661,682,701,722,741,761,781,801,821,841,861,881,901,921,941],"xSR":741.5,"ySR":449.15000000000003,"xT1":424.9,"yT1":0,"xT2":1058.1,"yT2":0,"toosoon":0,"cond_shown":"equaldotanddens","ratio_trial":500,"smaller_num":"5","larger_num":"10","correct_side":2,"subjID":"isabellamarulandavelez17","gender":"1","age":"9","school":"4"},{"start_time":1552074022135,"click_time":1552074022620,"finger_time":1552074022540,"fix_duration":1173.0085271166608,"trial":28,"RT":405,"MT":80,"sideResp":2,"stimulus":"img/900/equaldotsize/R/12_Ratio_900_L_18_R_20.png","xmouse":[800,800,800,800,800,800,800,800,800,800,800,800,800,800,800,800,800,800,804,813,875,919,971,1032,1128],"ymouse":[465,465,465,465,465,465,465,465,465,465,465,465,465,465,465,465,465,465,464,451,365,300,229,156,59],"timestamp_mouse":[12,37,45,65,86,105,126,145,165,185,205,226,245,265,286,306,326,345,365,385,405,425,445,465,485],"xSR":741.5,"ySR":449.15000000000003,"xT1":424.9,"yT1":0,"xT2":1058.1,"yT2":0,"toosoon":0,"cond_shown":"equaldotsize","ratio_trial":900,"smaller_num":"18","larger_num":"20","correct_side":2,"subjID":"isabellamarulandavelez17","gender":"1","age":"9","school":"4"},{"start_time":1552074026667,"click_time":1552074027441,"finger_time":1552074027140,"fix_duration":1485.9370662081637,"trial":29,"RT":473,"MT":301,"sideResp":2,"stimulus":"img/500/randomdotsizeEA/L/4_Ratio_500_L_18_R_9.png","xmouse":[771,771,771,771,771,771,771,771,771,771,771,771,771,771,771,771,771,771,771,771,771,774,786,883,952,1026,1071,1100,1109,1111,1114,1114,1115,1117,1120,1122,1123,1123,1123],"ymouse":[513,513,513,513,513,513,513,513,513,513,513,513,513,513,513,513,513,513,513,513,513,508,496,412,358,303,268,237,216,209,200,196,188,180,152,129,121,100,84],"timestamp_mouse":[13,35,53,73,93,113,133,153,173,194,213,233,254,274,294,313,333,353,373,394,413,433,453,473,493,513,534,553,574,593,613,633,654,674,693,713,733,753,774],"xSR":741.5,"ySR":449.15000000000003,"xT1":424.9,"yT1":0,"xT2":1058.1,"yT2":0,"toosoon":0,"cond_shown":"randomdotsizeEA","ratio_trial":500,"smaller_num":"9","larger_num":"18","correct_side":1,"subjID":"isabellamarulandavelez17","gender":"1","age":"9","school":"4"},{"start_time":1552074029664,"click_time":1552074030380,"finger_time":1552074030160,"fix_duration":1282.6762141932484,"trial":30,"RT":496,"MT":220,"sideResp":2,"stimulus":"img/900/randomdotsizeEA/L/10_Ratio_900_L_20_R_18.png","xmouse":[812,812,812,812,812,812,812,812,812,812,812,812,812,812,812,812,812,812,812,812,812,812,821,840,852,864,880,912,938,979,993,1004,1017,1040,1051,1062],"ymouse":[518,518,518,518,518,518,518,518,518,518,518,518,518,518,518,518,518,518,518,518,518,518,501,472,454,433,409,351,306,232,202,173,145,91,64,42],"timestamp_mouse":[20,37,56,76,96,116,136,156,176,196,216,236,257,276,296,316,336,356,376,396,416,437,456,477,496,517,536,556,577,596,616,636,656,678,696,716],"xSR":741.5,"ySR":449.15000000000003,"xT1":424.9,"yT1":0,"xT2":1058.1,"yT2":0,"toosoon":0,"cond_shown":"randomdotsizeEA","ratio_trial":900,"smaller_num":"18","larger_num":"20","correct_side":1,"subjID":"isabellamarulandavelez17","gender":"1","age":"9","school":"4"},{"start_time":1552074032015,"click_time":1552074043800,"finger_time":1552074042380,"fix_duration":354.7480897823149,"trial":31,"RT":10365,"MT":1420,"sideResp":2,"stimulus":"img/250/equaldotanddens/R/13_Ratio_250_L_2_R_8.png","xmouse":[800,800,800,800,800,800,800,800,800,800,800,800,800,800,800,800,800,800,800,800,800,800,800,800,800,800,800,800,800,800,800,800,800,800,800,800,800,800,800,800,800,800,800,800,800,800,800,800,800,800,800,800,800,800,800,800,800,800,800,800,800,800,800,800,800,800,800,800,800,800,800,800,800,800,800,800,800,800,800,800,800,800,800,800,800,800,800,800,800,800,800,800,800,800,800,800,800,800,800,800,800,800,800,800,800,800,800,800,800,800,800,800,800,800,800,800,800,800,800,800,800,800,800,800,800,800,800,800,800,800,800,800,800,800,800,800,800,800,800,800,800,800,800,800,800,800,800,800,800,800,800,800,800,800,800,800,800,800,800,800,800,800,800,800,800,800,800,800,800,800,800,800,800,800,800,800,800,800,800,800,800,800,800,800,800,800,800,800,800,800,800,800,800,800,800,800,800,800,800,800,800,800,800,800,800,800,800,800,800,800,800,800,800,800,800,800,800,800,800,800,800,800,800,800,800,800,800,800,800,800,800,800,800,800,800,800,800,800,800,800,800,800,800,800,800,800,800,800,800,800,800,800,800,800,800,800,800,800,800,800,800,800,800,800,800,800,800,800,800,800,800,800,800,800,800,800,800,800,800,800,800,800,800,800,800,800,800,800,800,800,800,800,800,800,800,800,800,800,800,800,800,800,800,800,800,800,800,800,800,800,800,800,800,800,800,800,800,800,800,800,800,800,800,800,800,800,800,800,800,800,800,800,800,800,800,800,800,800,800,800,800,800,800,800,800,800,800,800,800,800,800,800,800,800,800,800,800,800,800,800,800,800,800,800,800,800,800,800,800,800,800,800,800,800,800,800,800,800,800,800,800,800,800,800,800,800,800,800,800,800,800,800,800,800,800,800,800,800,800,800,800,800,800,800,800,800,800,800,800,800,800,800,800,800,800,800,800,800,800,800,800,800,800,800,800,800,800,800,800,800,800,800,800,800,800,800,800,800,800,800,800,800,800,800,800,800,800,800,800,800,800,800,800,800,800,800,800,800,800,800,800,800,800,800,800,800,800,800,800,800,800,800,800,800,800,800,800,800,800,800,800,800,800,800,800,800,800,800,800,800,800,800,800,800,800,800,800,800,800,800,800,800,800,800,800,800,800,800,800,800,800,800,800,800,800,801,819,840,864,881,892,893,893,893,893,893,893,893,893,893,893,893,893,893,893,893,893,891,878,859,820,809,809,816,820,821,822,823,823,823,823,823,823,823,823,823,821,810,797,794,794,794,794,794,794,794,794,794,794,794,794,794,794,794,794,793,793,793,793,793,793,793,793,797,808,834,922,980,1043,1099],"ymouse":[513,513,513,513,513,513,513,513,513,513,513,513,513,513,513,513,513,513,513,513,513,513,513,513,513,513,513,513,513,513,513,513,513,513,513,513,513,513,513,513,513,513,513,513,513,513,513,513,513,513,513,513,513,513,513,513,513,513,513,513,513,513,513,513,513,513,513,513,513,513,513,513,513,513,513,513,513,513,513,513,513,513,513,513,513,513,513,513,513,513,513,513,513,513,513,513,513,513,513,513,513,513,513,513,513,513,513,513,513,513,513,513,513,513,513,513,513,513,513,513,513,513,513,513,513,513,513,513,513,513,513,513,513,513,513,513,513,513,513,513,513,513,513,513,513,513,513,513,513,513,513,513,513,513,513,513,513,513,513,513,513,513,513,513,513,513,513,513,513,513,513,513,513,513,513,513,513,513,513,513,513,513,513,513,513,513,513,513,513,513,513,513,513,513,513,513,513,513,513,513,513,513,513,513,513,513,513,513,513,513,513,513,513,513,513,513,513,513,513,513,513,513,513,513,513,513,513,513,513,513,513,513,513,513,513,513,513,513,513,513,513,514,514,514,514,514,514,514,514,514,514,514,514,514,514,514,514,514,514,514,514,514,514,514,514,514,514,514,514,514,514,514,514,514,514,514,514,514,514,514,514,514,514,514,514,514,514,514,514,514,514,514,514,514,514,514,514,514,514,514,514,514,514,514,514,514,514,514,514,514,514,514,514,514,514,514,514,514,514,514,514,514,514,514,514,514,514,514,514,514,514,514,514,514,514,514,514,514,514,514,514,514,514,514,514,514,514,514,514,514,514,514,514,514,514,514,514,514,514,514,514,514,514,514,514,514,514,514,514,514,514,514,514,514,514,514,514,514,514,514,514,514,514,514,514,514,514,514,514,514,514,514,514,514,514,514,514,514,514,514,514,514,514,514,514,514,514,514,514,514,514,514,514,514,514,514,514,514,514,514,514,514,514,514,514,514,514,514,514,514,514,514,514,514,514,514,514,514,514,514,514,514,514,514,514,514,514,514,514,514,514,514,514,514,514,514,514,514,514,514,514,514,514,514,514,514,514,514,514,514,514,514,514,514,514,514,514,514,514,514,514,514,514,514,514,514,514,514,514,514,514,514,514,514,514,514,514,514,514,514,514,514,514,514,514,514,514,514,514,514,514,514,514,514,514,514,510,516,529,538,543,544,544,544,544,544,544,544,544,544,544,544,544,544,544,544,544,542,537,526,507,509,513,517,519,519,520,520,520,520,520,520,520,520,520,520,520,516,515,515,515,515,515,515,515,515,515,515,515,515,515,515,515,515,515,516,516,516,516,516,516,516,516,509,488,436,289,195,98,2],"timestamp_mouse":[12,37,45,65,85,106,125,146,165,185,205,225,246,264,285,305,325,345,365,385,405,425,445,466,486,505,525,545,565,585,605,625,645,665,686,705,726,745,764,785,805,825,845,865,885,906,925,945,966,985,1006,1026,1045,1066,1085,1104,1126,1146,1166,1185,1205,1225,1246,1265,1285,1305,1325,1346,1366,1385,1406,1425,1446,1465,1484,1504,1526,1546,1566,1585,1605,1625,1645,1665,1685,1706,1725,1745,1765,1785,1805,1825,1845,1865,1885,1905,1925,1945,1965,1984,2005,2025,2045,2065,2086,2106,2125,2145,2165,2185,2205,2225,2245,2264,2286,2306,2325,2345,2366,2385,2405,2425,2445,2465,2485,2505,2525,2546,2566,2585,2605,2624,2645,2665,2685,2705,2725,2746,2765,2785,2805,2825,2845,2865,2885,2905,2925,2945,2965,2985,3005,3025,3046,3065,3085,3105,3124,3146,3165,3185,3204,3225,3246,3265,3285,3305,3325,3345,3365,3385,3406,3425,3446,3465,3485,3504,3525,3546,3565,3585,3605,3625,3645,3665,3685,3705,3725,3745,3764,3785,3805,3825,3845,3866,3885,3905,3925,3944,3965,3985,4006,4025,4046,4066,4085,4105,4125,4145,4166,4185,4205,4225,4246,4266,4285,4305,4325,4346,4366,4385,4406,4425,4446,4466,4484,4505,4525,4545,4565,4585,4605,4625,4645,4665,4685,4705,4725,4745,4765,4785,4806,4825,4845,4864,4885,4905,4925,4946,4965,4985,5005,5025,5046,5066,5086,5105,5124,5146,5165,5185,5205,5225,5245,5264,5285,5305,5325,5346,5366,5385,5405,5426,5446,5465,5485,5505,5525,5546,5565,5585,5605,5625,5645,5665,5685,5705,5725,5746,5765,5785,5805,5825,5844,5866,5885,5906,5925,5945,5965,5985,6005,6025,6045,6065,6085,6105,6125,6145,6165,6185,6205,6225,6244,6264,6285,6306,6325,6345,6365,6386,6405,6425,6445,6465,6485,6505,6525,6546,6565,6585,6605,6626,6645,6666,6685,6705,6726,6746,6766,6784,6806,6825,6846,6865,6885,6906,6925,6945,6966,6985,7005,7025,7046,7066,7085,7104,7125,7146,7166,7185,7204,7225,7246,7265,7285,7305,7325,7345,7366,7385,7405,7425,7446,7465,7485,7505,7525,7546,7565,7586,7605,7625,7646,7665,7684,7705,7725,7746,7765,7785,7805,7825,7846,7866,7885,7905,7926,7946,7965,7985,8005,8025,8046,8066,8086,8105,8125,8146,8165,8185,8205,8225,8246,8265,8285,8305,8325,8346,8365,8385,8405,8425,8446,8465,8485,8505,8524,8546,8565,8585,8605,8625,8646,8665,8684,8705,8726,8745,8766,8785,8805,8825,8845,8865,8885,8905,8926,8946,8965,8985,9005,9025,9046,9065,9085,9105,9126,9146,9166,9184,9206,9225,9246,9265,9285,9306,9325,9346,9365,9385,9405,9425,9444,9465,9485,9505,9525,9546,9566,9585,9605,9625,9646,9666,9685,9705,9725,9745,9765,9785,9805,9825,9845,9865,9885,9905,9925,9945,9965,9985,10005,10025,10046,10065,10085,10105,10126,10144,10165,10185,10206,10225,10246,10265,10285,10305,10325,10345,10365,10386,10406,10425,10445,10464,10485,10505,10526,10546,10565,10585,10605,10625,10645,10665,10686,10706,10725,10745,10766,10786,10805,10825,10846,10866,10885,10905,10925,10946,10966,10985,11005,11025,11046,11065,11086,11105,11125,11146,11165,11186,11205,11225,11245,11264,11285,11305,11325,11346,11365,11386,11405,11425,11445,11465,11485,11505,11525,11545,11565,11585,11606,11624,11646,11665,11685,11705,11726,11745,11765,11785],"xSR":741.5,"ySR":449.15000000000003,"xT1":424.9,"yT1":0,"xT2":1058.1,"yT2":0,"toosoon":0,"cond_shown":"equaldotanddens","ratio_trial":250,"smaller_num":"2","larger_num":"8","correct_side":2,"subjID":"isabellamarulandavelez17","gender":"1","age":"9","school":"4"},{"start_time":1552074049716,"click_time":1552074061400,"finger_time":1552074060921,"fix_duration":732.7179701212985,"trial":32,"RT":11205,"MT":479,"sideResp":2,"stimulus":"img/250/randomdotsizeEA/L/15_Ratio_250_L_12_R_3.png","xmouse":[775,775,775,775,775,775,775,775,775,775,775,775,775,775,775,775,775,775,775,775,775,775,775,775,775,775,775,775,775,775,775,775,775,775,774,772,768,764,761,760,758,756,756,756,756,756,756,756,756,756,756,756,756,756,756,756,756,756,756,756,756,756,756,756,756,756,756,756,756,756,756,756,756,756,756,756,756,756,756,756,756,756,756,756,756,756,756,756,756,756,756,756,756,756,756,756,756,756,756,756,756,756,756,756,756,756,756,756,756,756,756,756,756,756,756,756,756,756,756,756,756,756,756,756,756,756,756,756,756,756,756,756,756,756,756,756,756,756,756,756,756,756,756,756,756,756,756,756,756,756,756,756,756,756,756,756,756,756,756,756,756,756,756,756,756,756,756,756,756,756,756,756,756,756,756,756,756,756,756,756,756,756,756,756,756,756,756,756,756,756,756,756,756,756,756,756,756,756,756,756,756,756,756,756,756,756,756,756,756,756,756,756,756,756,756,756,756,756,756,756,756,756,756,756,756,756,756,756,756,756,756,756,756,756,756,756,756,756,756,756,756,756,756,756,756,756,756,756,756,756,756,756,756,756,756,756,756,756,756,756,756,756,756,756,756,756,756,756,756,756,756,756,756,756,756,756,756,756,756,756,756,756,756,756,756,756,756,756,756,756,756,756,756,756,756,756,756,756,756,756,756,756,756,756,756,756,756,756,756,756,756,756,756,756,756,756,756,756,756,756,756,756,756,756,756,756,756,756,756,756,756,756,756,756,756,756,756,756,756,756,756,756,756,756,756,756,756,756,756,756,756,756,756,756,756,756,756,756,756,756,756,756,756,756,756,756,756,756,756,756,756,756,756,756,756,756,756,756,756,756,756,756,756,756,756,756,756,756,756,756,756,756,756,756,756,756,756,756,756,756,756,756,756,756,756,756,756,756,756,756,756,756,756,756,756,756,756,756,756,756,756,756,756,756,756,756,756,756,756,756,756,756,756,756,753,753,753,753,753,753,753,753,753,753,753,753,753,753,753,753,753,753,753,753,753,753,753,753,753,753,753,753,753,753,753,753,753,753,753,753,753,753,753,753,753,753,753,753,753,753,753,753,753,753,753,753,753,753,753,753,753,753,753,753,753,753,753,753,753,753,753,753,753,753,753,753,753,753,753,753,753,753,753,753,753,753,753,753,753,753,754,754,754,754,754,754,754,754,754,754,754,754,754,754,754,754,754,754,754,754,754,754,754,754,754,754,754,754,754,754,754,754,754,754,754,755,765,770,776,782,790,830,862,890,920,933,956,971,983,993,1003,1019,1023,1027,1027,1027,1031,1037,1041,1043,1043,1044,1049,1058,1068],"ymouse":[505,505,505,505,505,505,505,505,505,505,505,505,505,505,505,505,505,505,505,505,505,505,505,505,505,505,505,505,505,505,505,505,505,505,506,508,509,511,512,513,515,517,517,517,517,517,517,517,517,517,517,517,517,517,517,517,517,517,517,517,517,517,517,517,517,517,517,517,517,517,517,517,517,517,517,517,517,517,517,517,517,517,517,517,517,517,517,517,517,517,517,517,517,517,517,517,517,517,517,517,517,517,517,517,517,517,517,517,517,517,517,517,517,517,517,517,517,517,517,517,517,517,517,517,517,517,517,517,517,517,517,517,517,517,517,517,517,517,517,517,517,517,517,517,517,517,517,517,517,517,517,517,517,517,517,517,517,517,517,517,517,517,517,517,517,517,517,517,517,517,517,517,517,517,517,517,517,517,517,517,517,517,517,517,517,517,517,517,517,517,517,517,517,517,517,517,517,517,517,517,517,517,517,517,517,517,517,517,517,517,517,517,517,517,517,517,517,517,517,517,517,517,517,517,517,517,517,517,517,517,517,517,517,517,517,517,517,517,517,517,517,517,517,517,517,517,517,517,517,517,517,517,517,517,517,517,517,517,517,517,517,517,517,517,517,517,517,517,517,517,517,517,517,517,517,517,517,517,517,517,517,517,517,517,517,517,517,517,517,517,517,517,517,517,517,517,517,517,517,517,517,517,517,517,517,517,517,517,517,517,517,517,517,517,517,517,517,517,517,517,517,517,517,517,517,517,517,517,517,517,517,517,517,517,517,517,517,517,517,517,517,517,517,517,517,517,517,517,517,517,517,517,517,517,517,517,517,517,517,517,517,517,517,517,517,517,517,517,517,517,517,517,517,517,517,517,517,517,517,517,517,517,517,517,517,517,517,517,517,517,517,517,517,517,517,517,517,517,517,517,517,517,517,517,517,517,517,517,517,517,517,517,517,517,517,517,517,517,517,517,517,517,517,517,517,517,517,517,517,517,517,517,517,517,518,518,518,518,518,518,518,518,518,518,518,518,518,518,518,518,518,518,518,518,518,518,518,518,518,518,518,518,518,518,518,518,518,518,518,518,518,518,518,518,518,518,518,518,518,518,518,518,518,518,518,518,518,518,518,518,518,518,518,518,518,518,518,518,518,518,518,518,518,518,518,518,518,518,518,518,518,518,518,518,518,518,518,518,518,518,519,519,519,519,519,519,519,519,519,519,519,519,519,519,519,519,519,519,519,519,519,519,519,519,519,519,519,519,519,519,519,519,519,519,519,510,489,482,470,457,439,366,295,228,164,132,73,49,32,21,13,3,1,0,0,0,1,13,24,30,33,34,35,35,35],"timestamp_mouse":[13,25,45,64,84,104,124,144,164,184,204,224,245,264,284,304,324,344,364,383,404,424,444,464,484,504,525,545,564,584,604,624,644,664,684,704,724,744,764,784,805,824,844,864,884,904,924,944,964,984,1004,1024,1043,1064,1084,1104,1124,1144,1164,1184,1205,1224,1245,1265,1284,1304,1325,1345,1364,1384,1404,1424,1446,1466,1484,1504,1524,1545,1564,1584,1604,1624,1644,1664,1684,1704,1724,1744,1764,1784,1804,1824,1844,1865,1884,1904,1924,1944,1964,1984,2004,2024,2045,2064,2084,2104,2124,2144,2164,2184,2204,2224,2244,2265,2283,2304,2324,2343,2364,2384,2404,2424,2444,2465,2484,2504,2524,2544,2564,2584,2605,2624,2645,2663,2684,2704,2724,2744,2764,2785,2804,2824,2844,2863,2884,2904,2924,2945,2964,2983,3004,3025,3045,3064,3084,3104,3124,3145,3164,3184,3204,3224,3244,3264,3284,3304,3324,3345,3364,3384,3404,3424,3445,3464,3484,3504,3524,3544,3565,3584,3604,3624,3645,3665,3683,3703,3724,3745,3765,3783,3804,3823,3845,3864,3884,3904,3924,3944,3965,3983,4005,4024,4044,4065,4085,4105,4124,4145,4164,4185,4205,4224,4245,4265,4283,4304,4324,4345,4364,4384,4404,4423,4445,4464,4485,4504,4524,4544,4564,4584,4604,4624,4645,4665,4683,4705,4724,4745,4764,4784,4804,4824,4844,4864,4884,4904,4924,4944,4964,4984,5004,5024,5044,5064,5084,5104,5124,5145,5164,5184,5205,5224,5245,5265,5285,5304,5325,5345,5364,5384,5404,5424,5445,5464,5484,5504,5524,5545,5563,5583,5604,5624,5644,5665,5684,5704,5724,5744,5765,5784,5804,5823,5844,5864,5884,5904,5924,5944,5964,5984,6004,6025,6045,6065,6084,6104,6124,6144,6164,6184,6204,6224,6244,6270,6284,6304,6324,6344,6364,6385,6403,6424,6444,6463,6484,6504,6524,6544,6565,6583,6604,6624,6645,6665,6684,6705,6724,6745,6765,6784,6804,6825,6845,6864,6885,6904,6924,6945,6963,6984,7004,7025,7045,7065,7084,7105,7124,7145,7165,7184,7204,7224,7244,7265,7284,7303,7324,7345,7364,7384,7404,7424,7444,7463,7485,7504,7524,7544,7564,7584,7605,7624,7644,7665,7684,7704,7724,7744,7765,7784,7804,7825,7843,7864,7884,7905,7924,7945,7964,7984,8004,8024,8044,8063,8085,8104,8124,8145,8164,8185,8204,8224,8244,8265,8283,8303,8324,8344,8364,8384,8404,8424,8444,8463,8485,8504,8524,8544,8564,8584,8605,8624,8645,8664,8684,8705,8724,8744,8764,8784,8804,8824,8845,8864,8884,8904,8924,8945,8964,8984,9004,9025,9045,9064,9084,9104,9124,9145,9165,9183,9204,9224,9244,9265,9285,9303,9324,9344,9363,9385,9404,9424,9444,9463,9484,9505,9524,9545,9565,9584,9604,9624,9644,9664,9685,9705,9724,9744,9764,9784,9804,9824,9844,9865,9884,9904,9924,9944,9965,9984,10004,10024,10043,10065,10085,10104,10124,10145,10164,10184,10204,10225,10244,10264,10284,10304,10324,10344,10364,10384,10404,10424,10444,10464,10484,10504,10524,10544,10564,10584,10604,10624,10644,10664,10684,10704,10723,10745,10764,10784,10804,10824,10845,10864,10884,10904,10924,10944,10964,10984,11004,11025,11043,11064,11084,11104,11124,11144,11165,11184,11205,11224,11245,11265,11284,11304,11324,11343,11364,11384,11404,11424,11444,11465,11484,11504,11524,11544,11564,11584,11604,11625,11644,11665,11684],"xSR":741.5,"ySR":449.15000000000003,"xT1":424.9,"yT1":0,"xT2":1058.1,"yT2":0,"toosoon":0,"cond_shown":"randomdotsizeEA","ratio_trial":250,"smaller_num":"3","larger_num":"12","correct_side":1,"subjID":"isabellamarulandavelez17","gender":"1","age":"9","school":"4"},{"start_time":1552074064161,"click_time":1552074068600,"finger_time":1552074068300,"fix_duration":1458.5437765280772,"trial":33,"RT":4139,"MT":300,"sideResp":2,"stimulus":"img/900/randomdotsizeEA/L/8_Ratio_900_L_20_R_18.png","xmouse":[788,788,788,788,788,788,788,788,788,788,788,788,788,788,788,788,787,787,787,787,787,787,787,787,787,787,787,787,787,787,787,787,787,787,787,787,787,787,787,787,787,787,787,787,787,787,787,787,787,787,787,787,787,787,787,787,787,787,787,787,787,787,787,787,787,787,787,785,784,781,780,780,780,780,780,780,780,780,780,780,780,780,780,780,780,780,780,780,780,780,780,780,780,780,780,780,780,780,780,780,780,780,780,780,780,780,780,780,780,780,780,780,780,780,780,780,780,780,780,780,780,780,780,780,780,780,780,780,780,780,780,780,780,780,780,780,780,780,780,780,780,780,780,780,780,780,780,780,780,780,780,780,780,780,780,780,780,780,780,780,780,780,780,780,780,780,780,780,780,780,780,780,780,780,780,780,780,780,780,780,780,780,780,780,780,780,780,780,780,780,780,780,780,780,780,780,780,780,780,780,780,780,780,779,779,786,791,797,805,832,860,922,937,950,951,951,951,951,964,986,1044,1056,1067],"ymouse":[498,498,498,498,498,498,498,498,498,498,498,498,498,498,498,498,498,498,498,498,498,498,498,498,498,498,498,498,498,498,498,498,498,498,498,498,498,498,498,498,498,498,498,498,498,498,498,498,498,498,498,498,498,498,498,498,498,498,498,498,498,498,498,498,498,498,498,498,497,496,495,495,495,495,495,495,495,495,495,495,495,495,495,495,495,495,495,495,495,495,495,495,495,495,495,495,495,495,495,495,495,495,495,495,495,495,495,495,495,495,495,495,495,495,495,495,495,495,495,495,495,495,495,495,495,495,495,495,495,495,495,495,495,495,495,495,495,495,495,495,495,495,495,495,495,495,495,495,495,495,495,495,495,495,495,495,495,495,495,495,495,495,495,495,495,495,495,495,495,495,495,495,495,495,495,495,495,495,495,495,495,495,495,495,495,495,495,495,495,495,495,495,495,495,495,495,495,495,495,495,495,495,495,495,494,470,452,436,411,325,263,173,153,136,134,134,134,134,125,109,74,67,62],"timestamp_mouse":[1,20,39,59,79,99,120,139,159,179,199,219,239,259,279,298,319,339,359,379,398,420,439,459,479,499,519,539,560,579,600,620,639,659,679,699,719,739,760,779,800,818,839,859,879,899,918,940,960,979,1000,1019,1040,1059,1079,1099,1119,1138,1159,1179,1198,1219,1239,1259,1279,1300,1319,1339,1360,1379,1400,1419,1440,1459,1479,1498,1519,1539,1559,1579,1600,1619,1639,1659,1679,1699,1719,1739,1759,1779,1799,1819,1839,1859,1879,1899,1919,1939,1960,1979,1999,2020,2039,2059,2079,2099,2119,2139,2159,2180,2199,2220,2239,2260,2279,2299,2319,2339,2358,2380,2398,2419,2439,2459,2479,2498,2519,2539,2559,2579,2600,2619,2639,2659,2679,2699,2719,2739,2759,2779,2799,2819,2839,2859,2879,2899,2918,2939,2959,2979,2999,3020,3039,3059,3079,3099,3119,3139,3159,3179,3200,3219,3239,3260,3279,3300,3320,3339,3359,3379,3399,3419,3439,3459,3479,3499,3519,3539,3559,3579,3599,3619,3639,3659,3679,3700,3720,3739,3759,3778,3800,3819,3839,3859,3879,3900,3919,3939,3959,3979,4000,4020,4039,4059,4078,4100,4120,4139,4159,4179,4199,4219,4239,4260,4279,4299,4320,4338,4359,4379,4399,4420,4439],"xSR":741.5,"ySR":449.15000000000003,"xT1":424.9,"yT1":0,"xT2":1058.1,"yT2":0,"toosoon":0,"cond_shown":"randomdotsizeEA","ratio_trial":900,"smaller_num":"18","larger_num":"20","correct_side":1,"subjID":"isabellamarulandavelez17","gender":"1","age":"9","school":"4"},{"start_time":1552074070338,"click_time":1552074071040,"finger_time":1552074071000,"fix_duration":396.17600000148343,"trial":34,"RT":662,"MT":40,"sideResp":2,"stimulus":"img/750/equaldotsize/L/10_Ratio_750_L_4_R_3.png","xmouse":[773,773,773,773,773,773,773,773,773,773,773,773,773,773,773,773,773,773,773,773,773,773,773,773,773,773,773,773,773,773,773,773,776,830,935,1113],"ymouse":[515,515,515,515,515,515,515,515,515,515,515,515,515,515,515,515,515,515,515,515,515,515,515,515,515,515,515,515,515,515,515,515,510,410,256,42],"timestamp_mouse":[12,32,42,62,82,103,123,143,162,181,202,222,242,262,282,302,323,342,362,382,402,422,442,463,482,502,522,543,562,583,602,622,642,662,683,702],"xSR":741.5,"ySR":449.15000000000003,"xT1":424.9,"yT1":0,"xT2":1058.1,"yT2":0,"toosoon":0,"cond_shown":"equaldotsize","ratio_trial":750,"smaller_num":"3","larger_num":"4","correct_side":1,"subjID":"isabellamarulandavelez17","gender":"1","age":"9","school":"4"},{"start_time":1552074073622,"click_time":1552074074261,"finger_time":1552074074180,"fix_duration":1358.3837202606123,"trial":35,"RT":558,"MT":81,"sideResp":1,"stimulus":"img/250/randomdotsizeEA/L/15_Ratio_250_L_12_R_3.png","xmouse":[804,804,804,804,804,804,804,804,804,804,804,804,804,804,804,804,804,804,804,804,804,804,804,804,804,803,802,787,749,703,610,512,500],"ymouse":[505,505,505,505,505,505,505,505,505,505,505,505,505,505,505,505,505,505,505,505,505,505,505,505,505,505,504,482,439,383,267,106,38],"timestamp_mouse":[6,19,39,59,78,98,118,138,158,178,198,218,239,258,278,298,318,338,358,378,398,418,439,458,478,498,518,539,558,578,598,618,639],"xSR":741.5,"ySR":449.15000000000003,"xT1":424.9,"yT1":0,"xT2":1058.1,"yT2":0,"toosoon":0,"cond_shown":"randomdotsizeEA","ratio_trial":250,"smaller_num":"3","larger_num":"12","correct_side":1,"subjID":"isabellamarulandavelez17","gender":"1","age":"9","school":"4"},{"start_time":1552074078191,"click_time":1552074079020,"finger_time":1552074078661,"fix_duration":328.56720422195787,"trial":36,"RT":470,"MT":359,"sideResp":2,"stimulus":"img/900/equaldotanddens/R/11_Ratio_900_L_18_R_20.png","xmouse":[794,794,794,794,794,794,794,794,794,794,794,794,794,794,794,794,794,794,794,794,794,794,808,832,870,915,965,1016,1016,1016,1016,1016,1016,1016,1016,1016,1016,1016,1016,1016,1016,1139],"ymouse":[505,505,505,505,505,505,505,505,505,505,505,505,505,505,505,505,505,505,505,505,505,505,460,396,309,220,127,17,17,17,17,17,17,17,17,17,17,17,17,17,17,38],"timestamp_mouse":[12,35,49,70,90,109,129,149,169,190,209,229,249,270,290,309,329,349,370,390,409,428,449,470,489,510,529,550,569,590,610,629,649,669,689,709,729,749,769,789,809,829],"xSR":741.5,"ySR":449.15000000000003,"xT1":424.9,"yT1":0,"xT2":1058.1,"yT2":0,"toosoon":0,"cond_shown":"equaldotanddens","ratio_trial":900,"smaller_num":"18","larger_num":"20","correct_side":2,"subjID":"isabellamarulandavelez17","gender":"1","age":"9","school":"4"},{"start_time":1552074080557,"click_time":1552074081241,"finger_time":1552074080981,"fix_duration":395.84350799275524,"trial":37,"RT":424,"MT":260,"sideResp":2,"stimulus":"img/500/randomdotsizeEA/R/3_Ratio_500_L_10_R_20.png","xmouse":[773,773,773,773,773,773,773,773,773,773,773,773,773,773,771,764,761,759,759,759,761,801,840,965,1055,1063,1068,1082,1095,1107,1111,1113,1116,1123,1129],"ymouse":[506,506,506,506,506,506,506,506,506,506,506,506,506,506,506,502,501,500,500,500,490,438,405,315,247,229,218,200,184,169,163,158,150,126,97],"timestamp_mouse":[12,31,43,62,83,104,123,144,163,183,203,223,243,263,283,303,323,343,363,383,404,424,443,464,484,503,523,543,563,584,603,623,643,664,683],"xSR":741.5,"ySR":449.15000000000003,"xT1":424.9,"yT1":0,"xT2":1058.1,"yT2":0,"toosoon":0,"cond_shown":"randomdotsizeEA","ratio_trial":500,"smaller_num":"10","larger_num":"20","correct_side":2,"subjID":"isabellamarulandavelez17","gender":"1","age":"9","school":"4"},{"start_time":1552074083177,"click_time":1552074084520,"finger_time":1552074083640,"fix_duration":1096.1268697117787,"trial":38,"RT":463,"MT":880,"sideResp":1,"stimulus":"img/900/randomdotsizeEA/L/1_Ratio_900_L_10_R_9.png","xmouse":[772,772,772,772,772,772,772,772,772,772,772,772,772,772,772,772,772,772,772,772,772,772,772,772,771,768,760,749,721,698,678,653,647,642,639,633,626,616,591,582,577,573,556,536,451,402,373,366,366,366,373,382,398,415,419,420,420,420,420,420,420,420,420,420,420,420,422,429],"ymouse":[507,507,507,507,507,507,507,507,507,507,507,507,507,507,507,507,507,507,507,495,486,473,455,433,426,417,403,384,342,310,281,241,224,209,204,197,189,178,156,151,148,145,141,139,127,119,114,113,113,111,99,86,68,50,48,47,47,47,47,47,47,47,47,47,47,47,47,47],"timestamp_mouse":[12,32,43,63,83,103,123,143,163,184,203,223,243,263,284,303,323,343,363,383,403,423,443,463,483,503,523,543,563,583,603,624,643,664,684,703,723,743,764,783,803,823,844,864,883,904,923,943,964,983,1004,1023,1043,1064,1083,1103,1123,1143,1163,1183,1203,1223,1243,1264,1283,1303,1323,1343],"xSR":741.5,"ySR":449.15000000000003,"xT1":424.9,"yT1":0,"xT2":1058.1,"yT2":0,"toosoon":0,"cond_shown":"randomdotsizeEA","ratio_trial":900,"smaller_num":"9","larger_num":"10","correct_side":1,"subjID":"isabellamarulandavelez17","gender":"1","age":"9","school":"4"},{"start_time":1552074090040,"click_time":1552074092162,"finger_time":1552074092080,"fix_duration":278.38718291155106,"trial":39,"RT":2040,"MT":82,"sideResp":2,"stimulus":"img/750/equaldotanddens/L/6_Ratio_750_L_24_R_18.png","xmouse":[807,807,807,807,807,807,807,807,807,807,807,807,807,807,807,807,807,807,807,807,807,807,807,807,807,807,807,807,807,807,807,807,807,807,807,807,807,807,807,807,807,807,807,807,807,807,807,807,807,807,807,807,807,807,807,807,807,807,807,807,807,807,807,807,807,807,807,807,807,807,807,807,807,807,807,807,807,807,807,807,807,807,807,807,807,807,807,807,807,807,807,807,807,807,807,807,807,807,807,807,807,812,868,929,993,1104,1134],"ymouse":[475,475,475,475,475,475,475,475,475,475,475,475,475,475,475,475,475,475,475,475,475,475,475,475,475,475,475,475,475,475,475,475,475,475,475,475,475,475,475,475,475,475,475,475,475,475,475,475,475,475,475,475,475,475,475,475,475,475,475,475,475,475,475,475,475,475,475,475,475,475,475,475,475,475,475,475,475,475,475,475,475,475,475,475,475,475,475,475,475,475,475,475,475,475,475,475,475,475,475,475,475,469,394,321,244,110,77],"timestamp_mouse":[9,30,39,60,80,100,120,141,160,180,200,220,240,260,280,300,320,340,360,380,400,420,440,461,480,500,520,540,560,581,600,620,639,660,681,700,720,741,760,780,800,820,840,861,880,900,920,940,960,981,1000,1020,1040,1060,1080,1100,1121,1140,1160,1180,1200,1220,1240,1260,1280,1300,1320,1340,1361,1380,1400,1420,1441,1460,1481,1500,1521,1540,1560,1580,1600,1621,1640,1660,1680,1701,1721,1740,1760,1780,1800,1821,1840,1860,1880,1900,1920,1940,1960,1980,2000,2020,2040,2060,2080,2101,2121],"xSR":741.5,"ySR":449.15000000000003,"xT1":424.9,"yT1":0,"xT2":1058.1,"yT2":0,"toosoon":0,"cond_shown":"equaldotanddens","ratio_trial":750,"smaller_num":"18","larger_num":"24","correct_side":1,"subjID":"isabellamarulandavelez17","gender":"1","age":"9","school":"4"},{"start_time":1552074094577,"click_time":1552074095541,"finger_time":1552074095060,"fix_duration":596.1525199852401,"trial":40,"RT":483,"MT":481,"sideResp":1,"stimulus":"img/900/equaldotanddens/L/8_Ratio_900_L_20_R_18.png","xmouse":[766,766,766,766,766,766,766,766,766,766,766,766,766,766,766,766,766,766,766,766,766,765,765,750,703,658,616,590,572,571,571,570,563,552,550,549,549,549,547,544,540,536,535,535,535,535,535,531,495],"ymouse":[483,483,483,483,483,483,483,483,483,483,483,483,483,483,483,483,483,483,483,483,483,483,483,453,368,293,233,197,169,167,165,164,155,137,132,127,122,118,105,96,89,82,79,79,79,79,79,78,73],"timestamp_mouse":[12,33,43,64,83,103,122,143,163,184,203,223,243,263,284,302,323,344,363,383,403,423,443,463,483,504,523,544,563,583,603,624,643,663,683,703,723,743,764,783,803,823,843,863,883,903,923,943,963],"xSR":741.5,"ySR":449.15000000000003,"xT1":424.9,"yT1":0,"xT2":1058.1,"yT2":0,"toosoon":0,"cond_shown":"equaldotanddens","ratio_trial":900,"smaller_num":"18","larger_num":"20","correct_side":1,"subjID":"isabellamarulandavelez17","gender":"1","age":"9","school":"4"},{"start_time":1552074099333,"click_time":1552074100941,"finger_time":1552074100540,"fix_duration":870.3318617813584,"trial":41,"RT":1207,"MT":401,"sideResp":1,"stimulus":"img/500/equaldotanddens/L/8_Ratio_500_L_8_R_4.png","xmouse":[799,799,799,799,799,799,799,803,804,806,806,806,806,806,806,806,806,806,806,806,806,806,806,806,806,806,806,806,806,806,806,806,806,806,806,806,806,806,806,806,806,806,806,806,806,806,806,806,806,806,806,806,806,806,806,806,808,808,808,806,790,772,735,692,643,589,535,530,529,529,529,496,437,419,409,417,420,420,420,420,430],"ymouse":[501,501,501,501,501,501,501,495,493,493,493,493,493,493,493,493,493,493,493,493,493,493,493,493,493,493,493,493,493,493,493,493,493,493,493,493,493,493,493,493,493,493,493,493,493,493,493,493,493,493,493,493,493,493,493,493,493,493,493,478,427,386,320,267,217,174,137,131,130,130,129,122,106,99,91,82,80,79,79,79,77],"timestamp_mouse":[18,38,47,67,87,107,127,147,167,187,207,227,247,267,287,308,327,347,367,387,407,427,447,467,487,507,528,547,567,587,608,628,647,667,687,707,728,748,767,788,807,828,847,867,887,907,928,947,967,988,1007,1027,1047,1067,1087,1107,1128,1147,1167,1188,1207,1228,1248,1267,1288,1307,1327,1347,1368,1387,1408,1427,1447,1468,1486,1507,1527,1548,1567,1587,1607],"xSR":741.5,"ySR":449.15000000000003,"xT1":424.9,"yT1":0,"xT2":1058.1,"yT2":0,"toosoon":0,"cond_shown":"equaldotanddens","ratio_trial":500,"smaller_num":"4","larger_num":"8","correct_side":1,"subjID":"isabellamarulandavelez17","gender":"1","age":"9","school":"4"},{"start_time":1552074103712,"click_time":1552074104720,"finger_time":1552074104480,"fix_duration":250,"trial":42,"RT":768,"MT":240,"sideResp":2,"stimulus":"img/900/equaldotsize/L/2_Ratio_900_L_20_R_18.png","xmouse":[809,809,809,809,809,809,809,808,805,805,805,805,805,805,805,805,805,805,805,805,805,805,805,805,805,805,805,805,805,805,805,805,805,805,805,805,803,817,844,890,948,1010,1019,1022,1022,1021,1019,1019,1027,1045,1059],"ymouse":[504,504,504,504,504,504,504,503,502,502,502,502,502,502,502,502,502,502,502,502,502,502,502,502,502,502,502,502,502,502,502,502,502,502,502,502,501,453,405,337,268,196,178,166,153,147,142,134,120,100,86],"timestamp_mouse":[12,42,48,68,88,108,128,149,168,188,208,228,248,269,287,308,328,348,368,388,408,428,448,468,488,508,528,549,568,588,609,628,649,668,689,709,728,748,768,788,808,829,848,868,889,909,929,949,968,989,1008],"xSR":741.5,"ySR":449.15000000000003,"xT1":424.9,"yT1":0,"xT2":1058.1,"yT2":0,"toosoon":0,"cond_shown":"equaldotsize","ratio_trial":900,"smaller_num":"18","larger_num":"20","correct_side":1,"subjID":"isabellamarulandavelez17","gender":"1","age":"9","school":"4"},{"start_time":1552074107408,"click_time":1552074108981,"finger_time":1552074108600,"fix_duration":306.0576875168464,"trial":43,"RT":1192,"MT":381,"sideResp":2,"stimulus":"img/750/equaldotanddens/R/11_Ratio_750_L_12_R_16.png","xmouse":[759,759,761,761,761,763,774,777,777,777,777,777,777,777,777,777,777,777,777,777,777,777,777,777,777,777,777,777,777,777,777,777,777,777,777,777,777,777,777,777,777,777,777,777,777,777,777,777,778,778,777,774,772,770,768,765,761,749,743,739,737,737,737,737,738,741,766,791,850,871,922,963,978,994,1008,1023,1038,1076,1099],"ymouse":[517,517,517,517,517,517,515,515,515,515,515,515,515,515,515,515,515,515,515,515,515,515,515,515,515,515,515,515,515,515,515,515,515,515,515,515,515,515,515,515,515,515,515,515,515,515,515,515,514,513,512,510,508,505,501,496,487,464,452,443,435,434,432,431,429,422,395,377,340,328,296,266,253,236,221,205,188,120,76],"timestamp_mouse":[18,32,53,72,92,112,132,153,172,193,212,232,253,272,292,312,332,352,372,392,412,432,453,472,492,511,532,552,573,592,612,632,652,672,692,712,732,752,772,792,812,832,852,873,893,912,932,952,973,992,1013,1032,1052,1073,1092,1112,1132,1153,1172,1192,1212,1233,1252,1272,1292,1312,1333,1353,1372,1392,1412,1433,1453,1472,1492,1513,1532,1552,1572],"xSR":741.5,"ySR":449.15000000000003,"xT1":424.9,"yT1":0,"xT2":1058.1,"yT2":0,"toosoon":0,"cond_shown":"equaldotanddens","ratio_trial":750,"smaller_num":"12","larger_num":"16","correct_side":2,"subjID":"isabellamarulandavelez17","gender":"1","age":"9","school":"4"},{"start_time":1552074110928,"click_time":1552074112400,"finger_time":1552074112040,"fix_duration":1127.9022313769478,"trial":44,"RT":1112,"MT":360,"sideResp":1,"stimulus":"img/750/randomdotsizeEA/R/11_Ratio_750_L_12_R_16.png","xmouse":[816,816,816,816,816,816,816,816,816,816,816,816,816,816,816,816,816,816,816,816,816,816,816,816,816,816,816,816,816,816,816,816,816,816,816,816,816,816,816,816,816,816,816,816,816,816,816,816,816,816,816,816,816,816,814,738,676,621,576,547,536,536,536,536,536,536,535,535,535,535,535,532,511,493],"ymouse":[509,509,509,509,509,509,509,509,509,509,509,509,509,509,509,509,509,509,509,509,509,509,509,509,509,509,509,509,509,509,509,509,509,509,509,509,509,509,509,509,509,509,509,509,509,509,509,509,509,509,509,509,509,509,509,391,323,259,208,166,136,134,134,134,132,122,117,114,113,112,112,107,100,96],"timestamp_mouse":[14,44,52,73,93,112,132,152,172,192,212,232,252,272,292,312,332,352,372,392,412,433,452,472,493,512,532,552,573,592,612,632,652,672,692,712,733,753,772,792,812,832,852,872,892,913,932,952,972,992,1012,1032,1053,1072,1092,1112,1132,1152,1172,1193,1212,1232,1252,1273,1292,1312,1332,1352,1372,1392,1412,1432,1452,1472],"xSR":741.5,"ySR":449.15000000000003,"xT1":424.9,"yT1":0,"xT2":1058.1,"yT2":0,"toosoon":0,"cond_shown":"randomdotsizeEA","ratio_trial":750,"smaller_num":"12","larger_num":"16","correct_side":2,"subjID":"isabellamarulandavelez17","gender":"1","age":"9","school":"4"},{"start_time":1552074114733,"click_time":1552074115620,"finger_time":1552074115541,"fix_duration":1392.48402735001,"trial":45,"RT":808,"MT":79,"sideResp":2,"stimulus":"img/750/equaldotsize/R/7_Ratio_750_L_3_R_4.png","xmouse":[787,787,787,787,787,787,787,787,787,787,787,787,787,787,787,787,787,787,787,787,787,787,787,787,787,787,787,787,787,787,787,787,787,787,787,787,787,790,803,819,890,947,1030,1048,1135],"ymouse":[496,496,496,496,496,496,496,496,496,496,496,496,496,496,496,496,496,496,496,496,496,496,496,496,496,496,496,496,496,496,496,496,496,496,496,496,496,496,486,472,384,313,200,168,48],"timestamp_mouse":[12,35,48,67,88,107,128,147,167,188,207,228,247,267,288,307,327,347,367,387,407,427,447,467,486,507,528,547,567,587,607,628,647,667,687,707,727,747,768,787,808,827,847,867,887],"xSR":741.5,"ySR":449.15000000000003,"xT1":424.9,"yT1":0,"xT2":1058.1,"yT2":0,"toosoon":0,"cond_shown":"equaldotsize","ratio_trial":750,"smaller_num":"3","larger_num":"4","correct_side":2,"subjID":"isabellamarulandavelez17","gender":"1","age":"9","school":"4"},{"start_time":1552074117381,"click_time":1552074118280,"finger_time":1552074117780,"fix_duration":639.0059447188804,"trial":46,"RT":399,"MT":500,"sideResp":2,"stimulus":"img/750/equaldotsize/R/3_Ratio_750_L_15_R_20.png","xmouse":[778,778,778,778,778,778,778,778,778,778,778,778,778,778,778,778,778,781,800,819,832,843,850,862,871,880,889,896,902,913,918,923,931,988,1027,1027,1027,1027,1027,1027,1027,1027,1195,1176,1164,1153],"ymouse":[494,494,494,494,494,494,494,494,494,494,494,494,494,494,494,494,494,494,479,459,444,433,418,389,370,350,328,305,279,182,141,105,86,27,10,10,10,10,10,10,10,10,1,48,69,84],"timestamp_mouse":[1,20,40,59,79,99,118,139,159,179,199,219,239,259,279,299,319,339,359,379,399,419,439,460,479,499,519,539,559,579,600,619,639,659,679,699,719,740,758,779,800,820,839,860,881,899],"xSR":741.5,"ySR":449.15000000000003,"xT1":424.9,"yT1":0,"xT2":1058.1,"yT2":0,"toosoon":0,"cond_shown":"equaldotsize","ratio_trial":750,"smaller_num":"15","larger_num":"20","correct_side":2,"subjID":"isabellamarulandavelez17","gender":"1","age":"9","school":"4"},{"start_time":1552074119795,"click_time":1552074120660,"finger_time":1552074120480,"fix_duration":472.2994232086536,"trial":47,"RT":685,"MT":180,"sideResp":2,"stimulus":"img/900/randomdotsizeEA/L/8_Ratio_900_L_20_R_18.png","xmouse":[773,773,773,773,773,773,773,773,773,773,773,773,773,773,773,773,773,773,773,773,773,773,773,773,773,773,773,773,773,773,773,773,773,787,824,858,873,889,908,964,990,1055,1102,1114],"ymouse":[496,496,496,496,496,496,496,496,496,496,496,496,496,496,496,496,496,496,496,497,497,497,497,497,497,497,497,497,497,497,497,497,497,481,435,399,382,353,331,279,257,185,121,97],"timestamp_mouse":[12,25,45,65,85,105,125,146,165,185,205,225,245,265,285,305,325,344,366,385,405,425,445,465,485,505,525,545,565,585,605,625,645,665,685,705,725,746,764,785,805,825,845,865],"xSR":741.5,"ySR":449.15000000000003,"xT1":424.9,"yT1":0,"xT2":1058.1,"yT2":0,"toosoon":0,"cond_shown":"randomdotsizeEA","ratio_trial":900,"smaller_num":"18","larger_num":"20","correct_side":1,"subjID":"isabellamarulandavelez17","gender":"1","age":"9","school":"4"},{"start_time":1552074124056,"click_time":1552074125341,"finger_time":1552074124821,"fix_duration":1134.0387577213078,"trial":48,"RT":765,"MT":520,"sideResp":2,"stimulus":"img/750/equaldotsize/R/15_Ratio_750_L_9_R_12.png","xmouse":[788,788,788,788,788,788,788,788,788,788,788,788,788,788,788,788,788,788,788,788,788,788,788,788,788,788,788,788,788,788,788,788,788,788,788,788,782,772,727,652,612,588,572,564,560,560,560,566,604,771,860,929,970,1000,1035,1047,1062,1077,1098,1137,1147,1148,1148,1141,1129],"ymouse":[470,470,470,470,470,470,470,470,470,470,470,470,470,470,470,470,470,470,470,470,470,470,470,470,470,470,470,470,470,470,470,470,470,470,470,470,462,453,417,356,322,295,271,252,229,222,217,212,209,244,281,304,311,314,300,283,249,225,200,159,143,128,113,100,81],"timestamp_mouse":[16,28,45,64,84,105,124,144,164,184,204,224,244,263,284,304,324,344,365,384,405,425,444,464,484,505,524,544,564,584,605,624,644,664,684,704,725,744,765,784,804,824,844,864,884,904,924,944,964,984,1004,1024,1044,1064,1085,1104,1125,1144,1165,1185,1204,1224,1244,1264,1284],"xSR":741.5,"ySR":449.15000000000003,"xT1":424.9,"yT1":0,"xT2":1058.1,"yT2":0,"toosoon":0,"cond_shown":"equaldotsize","ratio_trial":750,"smaller_num":"9","larger_num":"12","correct_side":2,"subjID":"isabellamarulandavelez17","gender":"1","age":"9","school":"4"},{"start_time":1552074126992,"click_time":1552074128280,"finger_time":1552074127028,"fix_duration":250,"trial":49,"RT":36,"MT":1252,"sideResp":2,"stimulus":"img/500/randomdotsizeEA/R/15_Ratio_500_L_1_R_2.png","xmouse":[787,787,788,788,788,789,791,791,791,791,791,791,791,791,791,791,789,789,789,789,789,788,788,788,788,788,788,788,788,788,788,788,788,788,788,788,788,788,788,788,788,788,788,788,788,788,788,788,788,788,788,788,788,788,788,788,793,806,855,883,912,971,1030,1052,1068],"ymouse":[452,448,447,447,447,450,455,457,457,457,457,457,458,468,473,479,483,487,487,487,487,487,487,487,487,487,487,487,487,487,487,487,487,487,487,487,487,487,487,487,487,487,487,487,487,487,487,487,487,487,487,487,487,487,487,487,476,447,360,310,259,172,83,54,39],"timestamp_mouse":[10,36,49,68,88,109,128,148,168,188,208,228,249,268,289,308,328,348,368,389,408,429,448,468,488,508,528,548,568,588,608,629,648,668,688,708,728,748,768,788,808,829,848,868,888,908,928,948,968,988,1008,1028,1048,1069,1088,1108,1128,1148,1169,1188,1208,1228,1248,1268,1288],"xSR":741.5,"ySR":449.15000000000003,"xT1":424.9,"yT1":0,"xT2":1058.1,"yT2":0,"toosoon":0,"cond_shown":"randomdotsizeEA","ratio_trial":500,"smaller_num":"1","larger_num":"2","correct_side":2,"subjID":"isabellamarulandavelez17","gender":"1","age":"9","school":"4"},{"start_time":1552074129792,"click_time":1552074131280,"finger_time":1552074130420,"fix_duration":250,"trial":50,"RT":628,"MT":860,"sideResp":1,"stimulus":"img/500/equaldotanddens/L/5_Ratio_500_L_4_R_2.png","xmouse":[792,792,792,792,792,792,792,792,792,792,792,792,792,792,792,792,792,792,792,792,792,792,792,792,792,792,792,792,792,801,810,844,905,933,962,984,999,1022,1027,1028,1030,1030,1030,1030,1030,1025,996,757,557,262,189,120,125,134,139,141,142,143,143,143,198,247,285,295,301,305,312,331,341,348,348,350,376,403,429],"ymouse":[493,493,493,493,493,493,493,493,493,493,493,493,493,493,493,493,493,493,493,493,493,493,493,493,493,493,493,493,493,473,455,394,299,256,208,179,162,143,139,138,136,135,135,135,134,134,134,122,97,57,37,14,9,5,2,1,1,0,0,0,1,12,28,31,33,34,35,37,39,40,40,40,45,49,54],"timestamp_mouse":[11,33,49,69,88,108,129,148,169,188,208,229,248,269,288,308,328,348,369,388,408,428,448,469,488,508,528,548,569,589,608,628,649,667,689,708,728,749,768,788,809,828,848,868,888,908,928,949,968,988,1008,1028,1048,1068,1088,1108,1128,1148,1168,1188,1208,1229,1249,1268,1288,1308,1328,1349,1368,1388,1408,1428,1449,1468,1488],"xSR":741.5,"ySR":449.15000000000003,"xT1":424.9,"yT1":0,"xT2":1058.1,"yT2":0,"toosoon":0,"cond_shown":"equaldotanddens","ratio_trial":500,"smaller_num":"2","larger_num":"4","correct_side":1,"subjID":"isabellamarulandavelez17","gender":"1","age":"9","school":"4"},{"start_time":1552074135049,"click_time":1552074135960,"finger_time":1552074135900,"fix_duration":1127.0815954504637,"trial":51,"RT":851,"MT":60,"sideResp":2,"stimulus":"img/900/randomdotsizeEA/L/2_Ratio_900_L_20_R_18.png","xmouse":[789,789,789,789,789,789,789,789,789,789,789,789,789,789,789,789,789,789,789,789,789,789,789,789,789,789,789,789,789,789,789,789,789,789,789,789,789,789,789,790,792,810,841,882,998,1068],"ymouse":[499,499,499,499,499,499,499,499,499,499,499,499,499,499,499,499,499,499,499,499,499,499,499,499,499,499,499,499,499,499,499,499,499,499,499,499,499,499,499,499,499,470,428,364,176,78],"timestamp_mouse":[12,37,51,71,91,111,131,151,171,191,212,231,251,272,291,311,331,351,371,390,412,432,451,471,491,512,531,551,571,591,611,631,651,671,691,711,731,751,771,791,811,832,851,871,893,911],"xSR":741.5,"ySR":449.15000000000003,"xT1":424.9,"yT1":0,"xT2":1058.1,"yT2":0,"toosoon":0,"cond_shown":"randomdotsizeEA","ratio_trial":900,"smaller_num":"18","larger_num":"20","correct_side":1,"subjID":"isabellamarulandavelez17","gender":"1","age":"9","school":"4"},{"start_time":1552074138988,"click_time":1552074140380,"finger_time":1552074140081,"fix_duration":727.359198117227,"trial":52,"RT":1093,"MT":299,"sideResp":2,"stimulus":"img/750/equaldotsize/R/5_Ratio_750_L_15_R_20.png","xmouse":[779,779,779,779,779,779,779,779,779,779,779,779,779,779,779,779,779,779,779,779,779,779,779,779,779,779,779,779,779,779,779,779,779,779,779,779,779,779,779,779,779,779,779,779,779,779,779,779,779,779,779,779,779,823,911,1025,1168,1168,1168,1168,1168,1168,1168,1168,1168,1168,1168,1182,1168,1149],"ymouse":[535,535,535,535,535,535,535,535,535,535,535,535,535,535,535,535,535,535,535,535,535,535,535,535,535,535,535,535,535,535,535,535,535,535,535,535,535,535,535,535,535,535,535,535,535,535,535,535,535,535,535,535,535,466,341,207,32,32,32,32,32,32,32,32,32,32,32,14,38,73],"timestamp_mouse":[14,35,52,72,92,112,133,152,172,192,212,232,252,272,292,313,332,352,372,392,412,432,453,473,493,513,532,552,573,592,612,632,652,673,692,713,732,752,772,792,812,832,852,873,892,913,932,952,973,993,1012,1033,1053,1073,1093,1112,1132,1153,1172,1193,1213,1233,1253,1273,1292,1312,1332,1354,1372,1392],"xSR":741.5,"ySR":449.15000000000003,"xT1":424.9,"yT1":0,"xT2":1058.1,"yT2":0,"toosoon":0,"cond_shown":"equaldotsize","ratio_trial":750,"smaller_num":"15","larger_num":"20","correct_side":2,"subjID":"isabellamarulandavelez17","gender":"1","age":"9","school":"4"},{"start_time":1552074141431,"click_time":1552074142881,"finger_time":1552074142441,"fix_duration":250,"trial":53,"RT":1010,"MT":440,"sideResp":2,"stimulus":"img/250/equaldotanddens/R/4_Ratio_250_L_3_R_12.png","xmouse":[780,780,780,780,780,780,780,780,780,780,780,779,776,774,770,768,765,765,765,765,765,768,771,772,772,772,772,772,772,772,772,772,772,772,772,772,772,772,772,772,772,772,772,772,772,772,772,772,775,785,832,870,902,935,952,981,989,997,1005,1018,1029,1045,1054,1058,1060,1061,1062,1062,1062,1062,1062,1065,1075],"ymouse":[518,518,518,518,518,518,518,518,518,518,518,517,515,515,513,512,511,511,511,511,512,513,514,514,514,514,514,514,514,514,514,514,514,514,514,514,514,514,514,514,514,514,514,514,514,514,514,514,514,500,448,407,374,336,315,280,270,261,252,237,224,201,184,174,168,164,164,161,160,154,140,125,96],"timestamp_mouse":[17,38,49,69,88,109,129,149,170,189,209,229,249,269,289,309,329,350,369,389,410,430,449,470,489,509,528,549,569,589,609,630,649,669,689,709,730,749,769,789,809,830,850,870,889,909,929,949,969,989,1009,1029,1049,1069,1090,1110,1129,1150,1169,1190,1210,1229,1249,1270,1290,1309,1330,1350,1369,1389,1410,1430,1450],"xSR":741.5,"ySR":449.15000000000003,"xT1":424.9,"yT1":0,"xT2":1058.1,"yT2":0,"toosoon":0,"cond_shown":"equaldotanddens","ratio_trial":250,"smaller_num":"3","larger_num":"12","correct_side":2,"subjID":"isabellamarulandavelez17","gender":"1","age":"9","school":"4"},{"start_time":1552074145448,"click_time":1552074146941,"finger_time":1552074146460,"fix_duration":367.53764009090264,"trial":54,"RT":1012,"MT":481,"sideResp":2,"stimulus":"img/900/equaldotsize/L/10_Ratio_900_L_20_R_18.png","xmouse":[771,771,771,771,771,771,771,771,771,771,771,771,771,771,771,771,771,771,771,771,771,771,771,771,771,771,771,771,771,771,771,771,771,771,771,771,771,771,771,771,771,771,771,771,771,771,771,771,774,786,854,895,923,936,944,950,952,953,956,961,965,971,981,1001,1032,1033,1034,1034,1037,1043,1051,1059,1068,1077,1089],"ymouse":[488,488,488,488,488,488,488,488,488,488,488,488,488,488,488,488,488,488,488,488,488,488,488,488,488,488,488,488,488,488,488,488,488,488,488,488,488,488,488,488,488,488,488,488,488,488,488,488,488,463,356,298,257,236,223,212,209,205,202,195,190,186,182,174,165,164,164,163,157,148,138,131,123,111,92],"timestamp_mouse":[13,40,52,72,92,112,133,153,172,192,212,233,252,272,292,313,332,352,372,392,413,432,452,472,492,511,533,552,572,592,612,632,653,672,693,713,732,752,772,792,813,832,852,872,892,913,932,953,972,992,1012,1032,1053,1072,1093,1112,1133,1152,1172,1192,1212,1232,1253,1272,1292,1312,1332,1352,1372,1392,1412,1432,1453,1472,1493],"xSR":741.5,"ySR":449.15000000000003,"xT1":424.9,"yT1":0,"xT2":1058.1,"yT2":0,"toosoon":0,"cond_shown":"equaldotsize","ratio_trial":900,"smaller_num":"18","larger_num":"20","correct_side":1,"subjID":"isabellamarulandavelez17","gender":"1","age":"9","school":"4"},{"start_time":1552074149786,"click_time":1552074151220,"finger_time":1552074150780,"fix_duration":384.84944333717476,"trial":55,"RT":994,"MT":440,"sideResp":2,"stimulus":"img/900/randomdotsizeEA/R/3_Ratio_900_L_9_R_10.png","xmouse":[781,781,781,781,781,781,781,781,781,781,781,781,781,781,781,781,781,781,781,781,781,781,781,781,781,781,781,781,781,781,781,781,781,781,781,781,781,781,781,781,781,781,781,781,781,781,781,784,799,823,876,922,995,1022,1045,1053,1056,1058,1060,1067,1068,1073,1075,1076,1076,1078,1079,1080,1085,1093,1094,1096],"ymouse":[504,504,504,504,504,504,504,504,504,504,504,504,504,504,504,504,504,504,504,504,504,504,504,504,504,504,504,504,504,504,504,504,504,504,504,504,504,504,504,504,504,504,504,504,504,504,504,498,473,441,386,347,290,267,249,241,237,233,227,215,211,198,188,183,178,172,167,160,140,113,105,97],"timestamp_mouse":[14,34,54,74,94,114,135,154,174,195,214,234,254,274,295,314,334,354,374,395,414,434,454,473,494,514,534,553,575,594,614,634,654,674,694,714,735,754,775,794,814,834,854,874,894,914,935,954,974,994,1014,1035,1054,1074,1095,1115,1134,1155,1174,1194,1214,1234,1254,1274,1294,1314,1335,1354,1374,1394,1415,1434],"xSR":741.5,"ySR":449.15000000000003,"xT1":424.9,"yT1":0,"xT2":1058.1,"yT2":0,"toosoon":0,"cond_shown":"randomdotsizeEA","ratio_trial":900,"smaller_num":"9","larger_num":"10","correct_side":2,"subjID":"isabellamarulandavelez17","gender":"1","age":"9","school":"4"},{"start_time":1552074153048,"click_time":1552074154320,"finger_time":1552074154180,"fix_duration":1086.924715504562,"trial":56,"RT":1132,"MT":140,"sideResp":1,"stimulus":"img/900/equaldotanddens/L/4_Ratio_900_L_20_R_18.png","xmouse":[779,779,779,779,779,779,779,779,779,779,779,779,779,779,779,779,779,779,779,779,779,779,779,779,779,779,779,779,779,779,779,779,779,779,779,779,779,779,779,779,779,779,779,779,779,779,784,793,797,799,800,800,800,800,800,800,772,757,688,641,547,516,500,495],"ymouse":[502,502,502,502,502,502,502,502,502,502,502,502,502,502,502,502,502,502,502,502,502,502,502,502,502,502,502,502,502,502,502,502,502,502,502,502,502,502,502,502,502,502,502,502,502,502,493,480,473,467,460,460,460,460,460,455,430,417,358,310,189,135,102,88],"timestamp_mouse":[13,40,52,72,92,112,132,152,172,192,212,232,252,273,292,313,332,352,373,392,412,433,452,472,493,513,532,552,572,592,613,632,652,672,693,713,733,752,772,792,812,832,853,872,892,912,932,952,973,992,1012,1032,1052,1072,1093,1113,1132,1152,1172,1192,1213,1232,1252,1272],"xSR":741.5,"ySR":449.15000000000003,"xT1":424.9,"yT1":0,"xT2":1058.1,"yT2":0,"toosoon":0,"cond_shown":"equaldotanddens","ratio_trial":900,"smaller_num":"18","larger_num":"20","correct_side":1,"subjID":"isabellamarulandavelez17","gender":"1","age":"9","school":"4"},{"start_time":1552074157698,"click_time":1552074158740,"finger_time":1552074158461,"fix_duration":996.3628226827318,"trial":57,"RT":763,"MT":279,"sideResp":2,"stimulus":"img/250/equaldotsize/R/9_Ratio_250_L_3_R_12.png","xmouse":[795,795,795,795,795,795,795,795,795,795,795,795,795,795,795,795,795,795,795,795,795,795,795,795,795,795,795,795,795,795,795,795,795,795,795,795,795,812,852,901,959,1010,1075,1088,1097,1104,1119,1136,1140,1142,1142,1142,1142],"ymouse":[508,508,508,508,508,508,508,508,508,508,508,508,508,508,508,508,508,508,508,508,508,508,508,508,508,508,508,508,508,508,508,508,508,508,508,508,508,474,423,371,325,279,212,190,168,153,132,113,109,106,104,101,99],"timestamp_mouse":[11,22,42,62,82,102,122,143,163,183,202,222,242,262,282,303,322,343,363,383,402,423,442,462,482,502,522,542,562,582,603,623,642,662,683,702,723,742,763,782,802,822,843,861,882,902,922,943,964,982,1002,1023,1042],"xSR":741.5,"ySR":449.15000000000003,"xT1":424.9,"yT1":0,"xT2":1058.1,"yT2":0,"toosoon":0,"cond_shown":"equaldotsize","ratio_trial":250,"smaller_num":"3","larger_num":"12","correct_side":2,"subjID":"isabellamarulandavelez17","gender":"1","age":"9","school":"4"},{"start_time":1552074161233,"click_time":1552074162181,"finger_time":1552074162060,"fix_duration":250,"trial":58,"RT":827,"MT":121,"sideResp":2,"stimulus":"img/500/equaldotsize/R/3_Ratio_500_L_10_R_20.png","xmouse":[789,789,789,789,789,789,789,789,789,789,789,789,789,789,789,789,786,786,786,786,786,786,786,786,786,786,786,786,786,786,786,786,786,786,786,786,786,786,787,799,816,875,920,970,1007,1047,1054,1060],"ymouse":[497,497,497,497,497,497,497,497,497,497,497,497,497,497,497,497,495,495,495,495,495,495,495,495,495,495,495,495,495,495,495,495,495,495,495,495,495,495,493,481,465,394,331,260,199,122,104,88],"timestamp_mouse":[12,39,48,68,88,107,128,147,167,188,207,227,247,267,287,308,327,347,367,387,408,428,448,467,487,508,528,547,567,587,607,628,648,667,688,707,728,747,768,787,807,827,847,867,887,907,927,948],"xSR":741.5,"ySR":449.15000000000003,"xT1":424.9,"yT1":0,"xT2":1058.1,"yT2":0,"toosoon":0,"cond_shown":"equaldotsize","ratio_trial":500,"smaller_num":"10","larger_num":"20","correct_side":2,"subjID":"isabellamarulandavelez17","gender":"1","age":"9","school":"4"},{"start_time":1552074163424,"click_time":1552074164780,"finger_time":1552074164460,"fix_duration":603.6740972138551,"trial":59,"RT":1036,"MT":320,"sideResp":1,"stimulus":"img/250/randomdotsizeEA/L/7_Ratio_250_L_8_R_2.png","xmouse":[780,780,780,780,780,780,780,780,780,780,780,780,780,780,780,780,780,780,780,780,780,780,780,780,780,780,780,780,780,780,780,780,780,780,778,775,770,769,769,769,769,769,769,769,769,767,766,764,759,754,744,737,728,720,708,689,681,664,659,646,615,589,560,517,469,423,423,431],"ymouse":[514,514,514,514,514,514,514,514,514,514,514,514,514,514,514,514,514,514,514,514,514,514,514,514,514,514,514,514,514,514,514,514,514,514,513,513,513,513,513,513,513,513,513,513,513,512,511,509,504,498,485,478,470,462,452,438,432,422,419,400,333,283,230,184,134,86,75,63],"timestamp_mouse":[16,36,57,76,96,116,137,157,176,197,216,237,256,276,296,316,337,357,377,396,416,437,456,476,496,516,536,556,576,596,617,637,656,676,696,716,737,756,776,796,816,836,856,876,896,916,937,956,976,997,1016,1036,1056,1076,1096,1117,1136,1156,1176,1196,1216,1236,1256,1276,1297,1317,1336,1356],"xSR":741.5,"ySR":449.15000000000003,"xT1":424.9,"yT1":0,"xT2":1058.1,"yT2":0,"toosoon":0,"cond_shown":"randomdotsizeEA","ratio_trial":250,"smaller_num":"2","larger_num":"8","correct_side":1,"subjID":"isabellamarulandavelez17","gender":"1","age":"9","school":"4"},{"start_time":1552074166678,"click_time":1552074167900,"finger_time":1552074167500,"fix_duration":894.3235697896072,"trial":60,"RT":822,"MT":400,"sideResp":2,"stimulus":"img/900/randomdotsizeEA/L/8_Ratio_900_L_20_R_18.png","xmouse":[797,797,797,797,797,797,797,797,797,797,797,797,797,797,797,797,797,797,797,797,797,797,797,797,797,797,797,797,797,797,797,797,797,797,797,797,797,797,807,818,830,844,859,896,916,953,980,1006,1030,1047,1049,1049,1049,1049,1051,1053,1054,1055,1056,1056,1057,1059],"ymouse":[525,525,525,525,525,525,525,525,525,525,525,525,525,525,525,525,525,525,525,525,525,525,525,525,525,525,525,525,525,525,525,525,525,525,524,524,524,524,511,499,486,468,440,356,310,244,197,151,114,86,83,83,83,79,74,68,63,61,60,58,58,56],"timestamp_mouse":[19,25,43,62,82,102,122,143,162,182,202