[{"start_time":1552073440981,"click_time":1552073441587,"finger_time":1552073440993,"fix_duration":869.2944120229008,"trial":0,"RT":12,"MT":594,"sideResp":1,"stimulus":[],"xmouse":[781,781,781,781,781,781,781,781,781,781,781,781,781,781,781,781,767,662,616,595,581,564,554,550,543,540,538,536,534,529,519],"ymouse":[549,549,549,549,549,549,549,549,549,549,549,549,549,549,549,548,502,320,250,222,202,182,162,152,140,133,129,120,107,96,80],"timestamp_mouse":[12,28,45,65,86,106,126,146,167,186,206,226,246,265,285,306,327,345,366,386,406,427,446,466,486,505,525,545,566,585,605],"xSR":741.5,"ySR":481,"xT1":424.9,"yT1":0,"xT2":1058.1,"yT2":0,"toosoon":0,"cond_shown":"Incongruent","ratio_trial":100,"L_num":3,"L_den":5,"R_num":8,"R_den":16,"correct_side":1,"subjID":"isabellamarulandavelez17","gender":"1","age":"9","school":"4","test":{"fix_dur":[250,1500],"timestim":1000,"targets_dim":[100,100],"targets_relative_coord":[0.3,0.7],"size_stim":[880,420],"start_dim":[100,100],"size_start":[300,300],"size_fix":60,"samplingrate":20,"img_types":["Congruent","Incongruent"],"ratios":[100,200,300],"rep_conds":19,"nTrials":120,"trials_to_rest":500,"Trials_order":[79,28,106,116,31,111,63,42,88,57,85,44,5,107,53,99,61,84,19,11,52,87,55,41,89,32,114,95,60,27,49,1,3,4,81,109,10,67,22,86,110,33,29,30,38,62,72,45,119,83,108,8,43,46,69,97,102,51,118,105,100,20,90,39,74,94,75,73,7,16,98,93,48,65,12,14,21,64,34,101,96,23,35,36,76,80,2,104,117,26,18,24,0,70,56,50,112,78,25,17,15,59,113,40,103,58,37,66,92,6,47,82,13,68,71,91,115,9,54,77],"cond_shown":["Incongruent","Congruent","Congruent","Congruent","Incongruent","Incongruent","Incongruent","Congruent","Congruent","Incongruent","Incongruent","Congruent","Incongruent","Incongruent","Incongruent","Incongruent","Incongruent","Congruent","Incongruent","Incongruent","Congruent","Incongruent","Incongruent","Incongruent","Incongruent","Congruent","Congruent","Incongruent","Congruent","Incongruent","Incongruent","Incongruent","Incongruent","Congruent","Incongruent","Incongruent","Congruent","Incongruent","Congruent","Congruent","Congruent","Incongruent","Incongruent","Congruent","Congruent","Congruent","Congruent","Incongruent","Incongruent","Incongruent","Congruent","Congruent","Incongruent","Congruent","Incongruent","Incongruent","Congruent","Incongruent","Congruent","Incongruent","Congruent","Congruent","Congruent","Incongruent","Congruent","Congruent","Incongruent","Incongruent","Incongruent","Congruent","Congruent","Incongruent","Congruent","Incongruent","Congruent","Congruent","Incongruent","Congruent","Congruent","Incongruent","Congruent","Incongruent","Incongruent","Congruent","Congruent","Congruent","Congruent","Congruent","Incongruent","Congruent","Congruent","Congruent","Congruent","Congruent","Congruent","Congruent","Congruent","Congruent","Incongruent","Incongruent","Incongruent","Incongruent","Incongruent","Congruent","Incongruent","Congruent","Incongruent","Congruent","Congruent","Congruent","Incongruent","Congruent","Incongruent","Congruent","Incongruent","Incongruent","Incongruent","Incongruent","Congruent","Incongruent"],"ratio_trial":[100,300,300,200,100,200,200,100,300,200,100,200,300,300,300,200,100,100,100,300,300,200,100,300,300,200,100,300,100,200,100,100,200,300,200,100,300,100,300,200,200,200,300,100,200,200,100,200,300,300,100,200,100,300,200,100,100,200,300,200,300,200,100,200,200,300,200,100,100,300,200,200,100,300,100,200,200,300,300,300,100,300,300,100,300,200,200,200,200,200,100,100,100,300,200,200,300,100,100,300,200,300,300,300,100,300,100,100,200,100,300,300,100,200,300,100,100,200,100,300],"left_num":[3,11,2,7,9,7,3,4,24,6,3,4,4,8,3,14,3,7,3,8,3,4,6,3,4,11,4,13,2,7,6,3,3,5,1,11,1,3,11,7,3,11,4,12,3,12,4,7,4,7,10,3,17,5,6,9,6,9,11,1,20,3,10,3,1,7,1,3,6,8,3,7,3,4,2,9,1,8,3,8,7,1,4,8,4,3,6,20,14,14,15,3,10,1,6,8,7,2,9,4,7,4,1,20,11,5,4,2,9,8,8,1,8,9,1,12,3,3,10,7],"right_num":[8,1,12,2,20,4,11,15,8,3,7,3,2,14,4,12,7,15,7,14,11,6,7,4,2,3,15,12,6,12,3,8,1,7,3,9,19,7,1,2,14,3,6,13,9,6,6,14,6,8,3,9,10,6,3,14,15,8,1,3,5,9,3,11,21,20,2,8,13,1,7,4,2,2,11,13,3,10,4,14,9,2,2,2,2,11,11,9,6,6,13,2,3,3,11,3,20,11,6,2,4,8,2,9,9,6,8,6,4,2,9,19,6,4,3,2,8,11,3,8],"left_den":[5,22,10,21,10,15,4,10,30,20,9,10,20,10,6,30,9,14,9,10,12,5,10,6,20,22,10,26,5,10,12,5,10,25,2,22,3,9,22,21,10,20,5,30,12,20,8,10,5,10,25,12,30,25,20,15,12,15,22,2,25,12,25,4,2,14,3,5,10,16,10,15,6,20,5,30,2,15,6,10,14,2,20,16,5,10,20,25,30,28,25,6,25,5,20,15,14,5,18,20,15,5,2,25,22,25,8,5,20,16,10,3,16,20,2,30,5,4,25,10],"right_den":[16,5,24,15,25,6,20,30,16,6,30,15,4,28,20,18,30,25,30,28,20,10,14,20,4,10,30,15,12,24,5,16,2,14,10,15,30,30,5,15,28,4,12,26,20,15,10,28,12,20,10,20,15,12,6,28,25,10,5,10,10,20,10,20,30,25,15,16,26,5,14,6,5,4,22,26,10,12,5,28,15,10,4,5,4,22,22,15,9,20,26,5,10,6,22,9,25,22,10,4,6,16,10,18,15,12,20,12,16,5,18,30,10,16,15,4,16,20,10,20],"correct_side":[1,1,2,1,1,2,1,2,1,2,1,1,2,1,1,2,1,2,1,1,2,1,1,1,2,1,2,2,2,1,2,1,2,2,1,2,2,1,1,1,2,2,1,2,2,1,2,1,1,1,1,2,2,2,2,1,2,2,1,1,1,2,1,1,2,2,1,1,1,1,2,2,1,2,2,2,1,2,2,1,2,1,2,1,1,2,2,1,2,1,1,1,1,2,2,1,2,2,2,2,2,1,1,1,2,2,1,2,1,1,1,2,2,1,1,2,1,1,1,1],"img_shown":["img2/100/Incongruent/L/I_Dist_100_LN_3_LD_5_RN_8_RD_16_0.png","img2/300/Congruent/L/C_Dist_300_LN_11_LD_22_RN_1_RD_5_0.png","img2/300/Congruent/R/C_Dist_300_LN_2_LD_10_RN_12_RD_24_1.png","img2/200/Congruent/L/C_Dist_200_LN_7_LD_21_RN_2_RD_15_0.png","img2/100/Incongruent/L/I_Dist_100_LN_9_LD_10_RN_20_RD_25_0.png","img2/200/Incongruent/R/I_Dist_200_LN_7_LD_15_RN_4_RD_6_1.png","img2/200/Incongruent/L/I_Dist_200_LN_3_LD_4_RN_11_RD_20_0.png","img2/100/Congruent/R/C_Dist_100_LN_4_LD_10_RN_15_RD_30_1.png","img2/300/Congruent/L/C_Dist_300_LN_24_LD_30_RN_8_RD_16_0.png","img2/200/Incongruent/R/I_Dist_200_LN_6_LD_20_RN_3_RD_6_1.png","img2/100/Incongruent/L/I_Dist_100_LN_3_LD_9_RN_7_RD_30_0.png","img2/200/Congruent/L/C_Dist_200_LN_4_LD_10_RN_3_RD_15_0.png","img2/300/Incongruent/R/I_Dist_300_LN_4_LD_20_RN_2_RD_4_1.png","img2/300/Incongruent/L/I_Dist_300_LN_8_LD_10_RN_14_RD_28_0.png","img2/300/Incongruent/L/I_Dist_300_LN_3_LD_6_RN_4_RD_20_0.png","img2/200/Incongruent/R/I_Dist_200_LN_14_LD_30_RN_12_RD_18_1.png","img2/100/Incongruent/L/I_Dist_100_LN_3_LD_9_RN_7_RD_30_0.png","img2/100/Congruent/R/C_Dist_100_LN_7_LD_14_RN_15_RD_25_1.png","img2/100/Incongruent/L/I_Dist_100_LN_3_LD_9_RN_7_RD_30_0.png","img2/300/Incongruent/L/I_Dist_300_LN_8_LD_10_RN_14_RD_28_0.png","img2/300/Congruent/R/C_Dist_300_LN_3_LD_12_RN_11_RD_20_1.png","img2/200/Incongruent/L/I_Dist_200_LN_4_LD_5_RN_6_RD_10_0.png","img2/100/Incongruent/L/I_Dist_100_LN_6_LD_10_RN_7_RD_14_0.png","img2/300/Incongruent/L/I_Dist_300_LN_3_LD_6_RN_4_RD_20_0.png","img2/300/Incongruent/R/I_Dist_300_LN_4_LD_20_RN_2_RD_4_1.png","img2/200/Congruent/L/C_Dist_200_LN_11_LD_22_RN_3_RD_10_0.png","img2/100/Congruent/R/C_Dist_100_LN_4_LD_10_RN_15_RD_30_1.png","img2/300/Incongruent/R/I_Dist_300_LN_13_LD_26_RN_12_RD_15_1.png","img2/100/Congruent/R/C_Dist_100_LN_2_LD_5_RN_6_RD_12_1.png","img2/200/Incongruent/L/I_Dist_200_LN_7_LD_10_RN_12_RD_24_0.png","img2/100/Incongruent/R/I_Dist_100_LN_6_LD_12_RN_3_RD_5_1.png","img2/100/Incongruent/L/I_Dist_100_LN_3_LD_5_RN_8_RD_16_0.png","img2/200/Incongruent/R/I_Dist_200_LN_3_LD_10_RN_1_RD_2_1.png","img2/300/Congruent/R/C_Dist_300_LN_5_LD_25_RN_7_RD_14_1.png","img2/200/Incongruent/L/I_Dist_200_LN_1_LD_2_RN_3_RD_10_0.png","img2/100/Incongruent/R/I_Dist_100_LN_11_LD_22_RN_9_RD_15_1.png","img2/300/Congruent/R/C_Dist_300_LN_1_LD_3_RN_19_RD_30_1.png","img2/100/Incongruent/L/I_Dist_100_LN_3_LD_9_RN_7_RD_30_0.png","img2/300/Congruent/L/C_Dist_300_LN_11_LD_22_RN_1_RD_5_0.png","img2/200/Congruent/L/C_Dist_200_LN_7_LD_21_RN_2_RD_15_0.png","img2/200/Congruent/R/C_Dist_200_LN_3_LD_10_RN_14_RD_28_1.png","img2/200/Incongruent/R/I_Dist_200_LN_11_LD_20_RN_3_RD_4_1.png","img2/300/Incongruent/L/I_Dist_300_LN_4_LD_5_RN_6_RD_12_0.png","img2/100/Congruent/R/C_Dist_100_LN_12_LD_30_RN_13_RD_26_1.png","img2/200/Congruent/R/C_Dist_200_LN_3_LD_12_RN_9_RD_20_1.png","img2/200/Congruent/L/C_Dist_200_LN_12_LD_20_RN_6_RD_15_0.png","img2/100/Congruent/R/C_Dist_100_LN_4_LD_8_RN_6_RD_10_1.png","img2/200/Incongruent/L/I_Dist_200_LN_7_LD_10_RN_14_RD_28_0.png","img2/300/Incongruent/L/I_Dist_300_LN_4_LD_5_RN_6_RD_12_0.png","img2/300/Incongruent/L/I_Dist_300_LN_7_LD_10_RN_8_RD_20_0.png","img2/100/Congruent/L/C_Dist_100_LN_10_LD_25_RN_3_RD_10_0.png","img2/200/Congruent/R/C_Dist_200_LN_3_LD_12_RN_9_RD_20_1.png","img2/100/Incongruent/R/I_Dist_100_LN_17_LD_30_RN_10_RD_15_1.png","img2/300/Congruent/R/C_Dist_300_LN_5_LD_25_RN_6_RD_12_1.png","img2/200/Incongruent/R/I_Dist_200_LN_6_LD_20_RN_3_RD_6_1.png","img2/100/Incongruent/L/I_Dist_100_LN_9_LD_15_RN_14_RD_28_0.png","img2/100/Congruent/R/C_Dist_100_LN_6_LD_12_RN_15_RD_25_1.png","img2/200/Incongruent/R/I_Dist_200_LN_9_LD_15_RN_8_RD_10_1.png","img2/300/Congruent/L/C_Dist_300_LN_11_LD_22_RN_1_RD_5_0.png","img2/200/Incongruent/L/I_Dist_200_LN_1_LD_2_RN_3_RD_10_0.png","img2/300/Congruent/L/C_Dist_300_LN_20_LD_25_RN_5_RD_10_0.png","img2/200/Congruent/R/C_Dist_200_LN_3_LD_12_RN_9_RD_20_1.png","img2/100/Congruent/L/C_Dist_100_LN_10_LD_25_RN_3_RD_10_0.png","img2/200/Incongruent/L/I_Dist_200_LN_3_LD_4_RN_11_RD_20_0.png","img2/200/Congruent/R/C_Dist_200_LN_1_LD_2_RN_21_RD_30_1.png","img2/300/Congruent/R/C_Dist_300_LN_7_LD_14_RN_20_RD_25_1.png","img2/200/Incongruent/L/I_Dist_200_LN_1_LD_3_RN_2_RD_15_0.png","img2/100/Incongruent/L/I_Dist_100_LN_3_LD_5_RN_8_RD_16_0.png","img2/100/Incongruent/L/I_Dist_100_LN_6_LD_10_RN_13_RD_26_0.png","img2/300/Congruent/L/C_Dist_300_LN_8_LD_16_RN_1_RD_5_0.png","img2/200/Congruent/R/C_Dist_200_LN_3_LD_10_RN_7_RD_14_1.png","img2/200/Incongruent/R/I_Dist_200_LN_7_LD_15_RN_4_RD_6_1.png","img2/100/Congruent/L/C_Dist_100_LN_3_LD_6_RN_2_RD_5_0.png","img2/300/Incongruent/R/I_Dist_300_LN_4_LD_20_RN_2_RD_4_1.png","img2/100/Congruent/R/C_Dist_100_LN_2_LD_5_RN_11_RD_22_1.png","img2/200/Congruent/R/C_Dist_200_LN_9_LD_30_RN_13_RD_26_1.png","img2/200/Incongruent/L/I_Dist_200_LN_1_LD_2_RN_3_RD_10_0.png","img2/300/Congruent/R/C_Dist_300_LN_8_LD_15_RN_10_RD_12_1.png","img2/300/Congruent/R/C_Dist_300_LN_3_LD_6_RN_4_RD_5_1.png","img2/300/Incongruent/L/I_Dist_300_LN_8_LD_10_RN_14_RD_28_0.png","img2/100/Congruent/R/C_Dist_100_LN_7_LD_14_RN_9_RD_15_1.png","img2/300/Incongruent/L/I_Dist_300_LN_1_LD_2_RN_2_RD_10_0.png","img2/300/Incongruent/R/I_Dist_300_LN_4_LD_20_RN_2_RD_4_1.png","img2/100/Congruent/L/C_Dist_100_LN_8_LD_16_RN_2_RD_5_0.png","img2/300/Congruent/L/C_Dist_300_LN_4_LD_5_RN_2_RD_4_0.png","img2/200/Congruent/R/C_Dist_200_LN_3_LD_10_RN_11_RD_22_1.png","img2/200/Congruent/R/C_Dist_200_LN_6_LD_20_RN_11_RD_22_1.png","img2/200/Congruent/L/C_Dist_200_LN_20_LD_25_RN_9_RD_15_0.png","img2/200/Incongruent/R/I_Dist_200_LN_14_LD_30_RN_6_RD_9_1.png","img2/200/Congruent/L/C_Dist_200_LN_14_LD_28_RN_6_RD_20_0.png","img2/100/Congruent/L/C_Dist_100_LN_15_LD_25_RN_13_RD_26_0.png","img2/100/Congruent/L/C_Dist_100_LN_3_LD_6_RN_2_RD_5_0.png","img2/100/Congruent/L/C_Dist_100_LN_10_LD_25_RN_3_RD_10_0.png","img2/300/Congruent/R/C_Dist_300_LN_1_LD_5_RN_3_RD_6_1.png","img2/200/Congruent/R/C_Dist_200_LN_6_LD_20_RN_11_RD_22_1.png","img2/200/Congruent/L/C_Dist_200_LN_8_LD_15_RN_3_RD_9_0.png","img2/300/Congruent/R/C_Dist_300_LN_7_LD_14_RN_20_RD_25_1.png","img2/100/Congruent/R/C_Dist_100_LN_2_LD_5_RN_11_RD_22_1.png","img2/100/Incongruent/R/I_Dist_100_LN_9_LD_18_RN_6_RD_10_1.png","img2/300/Incongruent/R/I_Dist_300_LN_4_LD_20_RN_2_RD_4_1.png","img2/200/Incongruent/R/I_Dist_200_LN_7_LD_15_RN_4_RD_6_1.png","img2/300/Incongruent/L/I_Dist_300_LN_4_LD_5_RN_8_RD_16_0.png","img2/300/Incongruent/L/I_Dist_300_LN_1_LD_2_RN_2_RD_10_0.png","img2/300/Congruent/L/C_Dist_300_LN_20_LD_25_RN_9_RD_18_0.png","img2/100/Incongruent/R/I_Dist_100_LN_11_LD_22_RN_9_RD_15_1.png","img2/300/Congruent/R/C_Dist_300_LN_5_LD_25_RN_6_RD_12_1.png","img2/100/Incongruent/L/I_Dist_100_LN_4_LD_8_RN_8_RD_20_0.png","img2/100/Congruent/R/C_Dist_100_LN_2_LD_5_RN_6_RD_12_1.png","img2/200/Congruent/L/C_Dist_200_LN_9_LD_20_RN_4_RD_16_0.png","img2/100/Congruent/L/C_Dist_100_LN_8_LD_16_RN_2_RD_5_0.png","img2/300/Incongruent/L/I_Dist_300_LN_8_LD_10_RN_9_RD_18_0.png","img2/300/Congruent/R/C_Dist_300_LN_1_LD_3_RN_19_RD_30_1.png","img2/100/Incongruent/R/I_Dist_100_LN_8_LD_16_RN_6_RD_10_1.png","img2/200/Congruent/L/C_Dist_200_LN_9_LD_20_RN_4_RD_16_0.png","img2/300/Incongruent/L/I_Dist_300_LN_1_LD_2_RN_3_RD_15_0.png","img2/100/Incongruent/R/I_Dist_100_LN_12_LD_30_RN_2_RD_4_1.png","img2/100/Incongruent/L/I_Dist_100_LN_3_LD_5_RN_8_RD_16_0.png","img2/200/Incongruent/L/I_Dist_200_LN_3_LD_4_RN_11_RD_20_0.png","img2/100/Congruent/L/C_Dist_100_LN_10_LD_25_RN_3_RD_10_0.png","img2/300/Incongruent/L/I_Dist_300_LN_7_LD_10_RN_8_RD_20_0.png"],"dist100_C":[["C_Dist_100_LN_10_LD_25_RN_3_RD_10_0.png","C_Dist_100_LN_11_LD_22_RN_4_RD_10_0.png","C_Dist_100_LN_11_LD_22_RN_6_RD_15_0.png","C_Dist_100_LN_15_LD_25_RN_13_RD_26_0.png","C_Dist_100_LN_3_LD_6_RN_2_RD_5_0.png","C_Dist_100_LN_6_LD_20_RN_5_RD_25_0.png","C_Dist_100_LN_8_LD_16_RN_2_RD_5_0.png","C_Dist_100_LN_9_LD_15_RN_8_RD_16_0.png"],["C_Dist_100_LN_1_LD_2_RN_18_RD_30_1.png","C_Dist_100_LN_1_LD_2_RN_3_RD_5_1.png","C_Dist_100_LN_12_LD_30_RN_13_RD_26_1.png","C_Dist_100_LN_2_LD_5_RN_11_RD_22_1.png","C_Dist_100_LN_2_LD_5_RN_6_RD_12_1.png","C_Dist_100_LN_3_LD_20_RN_4_RD_16_1.png","C_Dist_100_LN_4_LD_10_RN_15_RD_30_1.png","C_Dist_100_LN_4_LD_8_RN_6_RD_10_1.png","C_Dist_100_LN_6_LD_12_RN_15_RD_25_1.png","C_Dist_100_LN_7_LD_14_RN_15_RD_25_1.png","C_Dist_100_LN_7_LD_14_RN_9_RD_15_1.png"]],"dist100_I":[["I_Dist_100_LN_1_LD_2_RN_8_RD_20_0.png","I_Dist_100_LN_2_LD_4_RN_6_RD_15_0.png","I_Dist_100_LN_2_LD_4_RN_8_RD_20_0.png","I_Dist_100_LN_3_LD_5_RN_11_RD_22_0.png","I_Dist_100_LN_3_LD_5_RN_8_RD_16_0.png","I_Dist_100_LN_3_LD_6_RN_4_RD_10_0.png","I_Dist_100_LN_3_LD_9_RN_7_RD_30_0.png","I_Dist_100_LN_4_LD_8_RN_8_RD_20_0.png","I_Dist_100_LN_6_LD_10_RN_11_RD_22_0.png","I_Dist_100_LN_6_LD_10_RN_13_RD_26_0.png","I_Dist_100_LN_6_LD_10_RN_7_RD_14_0.png","I_Dist_100_LN_9_LD_10_RN_20_RD_25_0.png","I_Dist_100_LN_9_LD_15_RN_13_RD_26_0.png","I_Dist_100_LN_9_LD_15_RN_14_RD_28_0.png"],["I_Dist_100_LN_10_LD_25_RN_8_RD_16_1.png","I_Dist_100_LN_10_LD_25_RN_9_RD_18_1.png","I_Dist_100_LN_11_LD_22_RN_9_RD_15_1.png","I_Dist_100_LN_12_LD_24_RN_9_RD_15_1.png","I_Dist_100_LN_12_LD_30_RN_2_RD_4_1.png","I_Dist_100_LN_13_LD_26_RN_12_RD_20_1.png","I_Dist_100_LN_13_LD_26_RN_6_RD_10_1.png","I_Dist_100_LN_17_LD_30_RN_10_RD_15_1.png","I_Dist_100_LN_6_LD_12_RN_3_RD_5_1.png","I_Dist_100_LN_8_LD_16_RN_6_RD_10_1.png","I_Dist_100_LN_8_LD_20_RN_1_RD_2_1.png","I_Dist_100_LN_9_LD_18_RN_6_RD_10_1.png"]],"dist100_S":[["E_Dist_100_LN_2_LD_12_RN_2_RD_30_0.png","E_Dist_100_LN_6_LD_10_RN_6_RD_12_0.png"],["E_Dist_100_LN_6_LD_12_RN_6_RD_10_1.png"]],"dist200_C":[["C_Dist_200_LN_11_LD_22_RN_3_RD_10_0.png","C_Dist_200_LN_12_LD_15_RN_6_RD_10_0.png","C_Dist_200_LN_12_LD_20_RN_6_RD_15_0.png","C_Dist_200_LN_14_LD_28_RN_6_RD_20_0.png","C_Dist_200_LN_15_LD_25_RN_4_RD_10_0.png","C_Dist_200_LN_16_LD_20_RN_12_RD_20_0.png","C_Dist_200_LN_16_LD_30_RN_9_RD_27_0.png","C_Dist_200_LN_20_LD_25_RN_9_RD_15_0.png","C_Dist_200_LN_21_LD_30_RN_2_RD_4_0.png","C_Dist_200_LN_4_LD_10_RN_3_RD_15_0.png","C_Dist_200_LN_4_LD_8_RN_3_RD_10_0.png","C_Dist_200_LN_6_LD_15_RN_3_RD_15_0.png","C_Dist_200_LN_7_LD_21_RN_2_RD_15_0.png","C_Dist_200_LN_8_LD_15_RN_2_RD_6_0.png","C_Dist_200_LN_8_LD_15_RN_3_RD_9_0.png","C_Dist_200_LN_8_LD_15_RN_7_RD_21_0.png","C_Dist_200_LN_9_LD_20_RN_4_RD_16_0.png"],["C_Dist_200_LN_1_LD_2_RN_21_RD_30_1.png","C_Dist_200_LN_13_LD_26_RN_14_RD_20_1.png","C_Dist_200_LN_3_LD_10_RN_11_RD_22_1.png","C_Dist_200_LN_3_LD_10_RN_14_RD_28_1.png","C_Dist_200_LN_3_LD_10_RN_7_RD_14_1.png","C_Dist_200_LN_3_LD_12_RN_9_RD_20_1.png","C_Dist_200_LN_3_LD_6_RN_14_RD_20_1.png","C_Dist_200_LN_5_LD_10_RN_14_RD_20_1.png","C_Dist_200_LN_6_LD_12_RN_7_RD_10_1.png","C_Dist_200_LN_6_LD_20_RN_11_RD_22_1.png","C_Dist_200_LN_7_LD_15_RN_18_RD_27_1.png","C_Dist_200_LN_9_LD_30_RN_13_RD_26_1.png"]],"dist200_I":[["I_Dist_200_LN_1_LD_2_RN_3_RD_10_0.png","I_Dist_200_LN_1_LD_3_RN_2_RD_15_0.png","I_Dist_200_LN_3_LD_4_RN_11_RD_20_0.png","I_Dist_200_LN_4_LD_5_RN_6_RD_10_0.png","I_Dist_200_LN_4_LD_6_RN_14_RD_30_0.png","I_Dist_200_LN_7_LD_10_RN_12_RD_24_0.png","I_Dist_200_LN_7_LD_10_RN_14_RD_28_0.png","I_Dist_200_LN_7_LD_10_RN_8_RD_16_0.png"],["I_Dist_200_LN_11_LD_20_RN_3_RD_4_1.png","I_Dist_200_LN_14_LD_30_RN_12_RD_18_1.png","I_Dist_200_LN_14_LD_30_RN_6_RD_9_1.png","I_Dist_200_LN_3_LD_10_RN_1_RD_2_1.png","I_Dist_200_LN_4_LD_30_RN_1_RD_3_1.png","I_Dist_200_LN_6_LD_20_RN_3_RD_6_1.png","I_Dist_200_LN_7_LD_15_RN_4_RD_6_1.png","I_Dist_200_LN_7_LD_15_RN_6_RD_9_1.png","I_Dist_200_LN_9_LD_15_RN_8_RD_10_1.png"]],"dist200_S":[["E_Dist_200_LN_3_LD_6_RN_3_RD_10_0.png"],["E_Dist_200_LN_3_LD_10_RN_3_RD_6_1.png"]],"dist300_C":[["C_Dist_300_LN_11_LD_22_RN_1_RD_5_0.png","C_Dist_300_LN_11_LD_22_RN_2_RD_10_0.png","C_Dist_300_LN_11_LD_22_RN_4_RD_20_0.png","C_Dist_300_LN_12_LD_24_RN_2_RD_10_0.png","C_Dist_300_LN_18_LD_20_RN_9_RD_15_0.png","C_Dist_300_LN_20_LD_25_RN_13_RD_26_0.png","C_Dist_300_LN_20_LD_25_RN_14_RD_28_0.png","C_Dist_300_LN_20_LD_25_RN_5_RD_10_0.png","C_Dist_300_LN_20_LD_25_RN_8_RD_16_0.png","C_Dist_300_LN_20_LD_25_RN_9_RD_18_0.png","C_Dist_300_LN_24_LD_30_RN_2_RD_4_0.png","C_Dist_300_LN_24_LD_30_RN_8_RD_16_0.png","C_Dist_300_LN_3_LD_6_RN_2_RD_10_0.png","C_Dist_300_LN_4_LD_10_RN_1_RD_10_0.png","C_Dist_300_LN_4_LD_5_RN_2_RD_4_0.png","C_Dist_300_LN_8_LD_16_RN_1_RD_5_0.png","C_Dist_300_LN_9_LD_10_RN_3_RD_5_0.png"],["C_Dist_300_LN_1_LD_20_RN_7_RD_20_1.png","C_Dist_300_LN_1_LD_3_RN_19_RD_30_1.png","C_Dist_300_LN_1_LD_30_RN_8_RD_24_1.png","C_Dist_300_LN_1_LD_5_RN_11_RD_22_1.png","C_Dist_300_LN_1_LD_5_RN_3_RD_6_1.png","C_Dist_300_LN_1_LD_5_RN_6_RD_12_1.png","C_Dist_300_LN_2_LD_10_RN_12_RD_24_1.png","C_Dist_300_LN_2_LD_20_RN_10_RD_25_1.png","C_Dist_300_LN_3_LD_12_RN_11_RD_20_1.png","C_Dist_300_LN_3_LD_6_RN_4_RD_5_1.png","C_Dist_300_LN_4_LD_20_RN_13_RD_26_1.png","C_Dist_300_LN_5_LD_25_RN_6_RD_12_1.png","C_Dist_300_LN_5_LD_25_RN_7_RD_14_1.png","C_Dist_300_LN_7_LD_14_RN_20_RD_25_1.png","C_Dist_300_LN_8_LD_15_RN_10_RD_12_1.png"]],"dist300_I":[["I_Dist_300_LN_1_LD_2_RN_2_RD_10_0.png","I_Dist_300_LN_1_LD_2_RN_3_RD_15_0.png","I_Dist_300_LN_2_LD_4_RN_6_RD_30_0.png","I_Dist_300_LN_3_LD_6_RN_4_RD_20_0.png","I_Dist_300_LN_4_LD_5_RN_6_RD_12_0.png","I_Dist_300_LN_4_LD_5_RN_8_RD_16_0.png","I_Dist_300_LN_7_LD_10_RN_8_RD_20_0.png","I_Dist_300_LN_8_LD_10_RN_14_RD_28_0.png","I_Dist_300_LN_8_LD_10_RN_9_RD_18_0.png"],["I_Dist_300_LN_13_LD_26_RN_12_RD_15_1.png","I_Dist_300_LN_4_LD_20_RN_2_RD_4_1.png"]],"dist300_S":[["E_Dist_300_LN_9_LD_12_RN_9_RD_20_0.png"],["E_Dist_300_LN_18_LD_30_RN_18_RD_20_1.png","E_Dist_300_LN_3_LD_10_RN_3_RD_5_1.png","E_Dist_300_LN_9_LD_20_RN_9_RD_12_1.png"]],"dist500_C":[["C_Dist_500_LN_10_LD_13_RN_7_RD_26_0.png","C_Dist_500_LN_10_LD_15_RN_4_RD_24_0.png","C_Dist_500_LN_12_LD_16_RN_3_RD_12_0.png","C_Dist_500_LN_12_LD_18_RN_4_RD_24_0.png","C_Dist_500_LN_15_LD_18_RN_5_RD_15_0.png","C_Dist_500_LN_15_LD_20_RN_1_RD_4_0.png","C_Dist_500_LN_18_LD_27_RN_1_RD_6_0.png","C_Dist_500_LN_20_LD_24_RN_1_RD_3_0.png","C_Dist_500_LN_20_LD_24_RN_3_RD_9_0.png","C_Dist_500_LN_20_LD_24_RN_7_RD_21_0.png","C_Dist_500_LN_20_LD_28_RN_3_RD_14_0.png","C_Dist_500_LN_21_LD_28_RN_6_RD_24_0.png","C_Dist_500_LN_22_LD_28_RN_2_RD_7_0.png","C_Dist_500_LN_25_LD_30_RN_9_RD_27_0.png","C_Dist_500_LN_4_LD_6_RN_1_RD_6_0.png","C_Dist_500_LN_5_LD_6_RN_2_RD_6_0.png","C_Dist_500_LN_6_LD_9_RN_1_RD_6_0.png","C_Dist_500_LN_7_LD_10_RN_1_RD_5_0.png","C_Dist_500_LN_8_LD_12_RN_1_RD_6_0.png","C_Dist_500_LN_8_LD_12_RN_4_RD_24_0.png"],["C_Dist_500_LN_1_LD_4_RN_12_RD_16_1.png","C_Dist_500_LN_1_LD_4_RN_9_RD_12_1.png","C_Dist_500_LN_1_LD_9_RN_11_RD_18_1.png","C_Dist_500_LN_10_LD_24_RN_22_RD_24_1.png","C_Dist_500_LN_2_LD_12_RN_10_RD_15_1.png","C_Dist_500_LN_2_LD_12_RN_12_RD_18_1.png","C_Dist_500_LN_2_LD_12_RN_4_RD_6_1.png","C_Dist_500_LN_2_LD_24_RN_7_RD_12_1.png","C_Dist_500_LN_2_LD_5_RN_18_RD_20_1.png","C_Dist_500_LN_2_LD_5_RN_9_RD_10_1.png","C_Dist_500_LN_2_LD_8_RN_12_RD_16_1.png","C_Dist_500_LN_2_LD_8_RN_21_RD_28_1.png","C_Dist_500_LN_3_LD_10_RN_4_RD_5_1.png","C_Dist_500_LN_3_LD_12_RN_15_RD_20_1.png","C_Dist_500_LN_3_LD_30_RN_6_RD_10_1.png","C_Dist_500_LN_3_LD_8_RN_14_RD_16_1.png","C_Dist_500_LN_4_LD_16_RN_15_RD_20_1.png","C_Dist_500_LN_4_LD_24_RN_12_RD_18_1.png","C_Dist_500_LN_5_LD_14_RN_6_RD_7_1.png","C_Dist_500_LN_7_LD_21_RN_20_RD_24_1.png","C_Dist_500_LN_7_LD_28_RN_12_RD_16_1.png","C_Dist_500_LN_7_LD_28_RN_9_RD_12_1.png","C_Dist_500_LN_9_LD_27_RN_20_RD_24_1.png"]],"dist500_I":[["I_Dist_500_LN_2_LD_3_RN_4_RD_24_0.png","I_Dist_500_LN_5_LD_6_RN_6_RD_18_0.png","I_Dist_500_LN_7_LD_8_RN_9_RD_24_0.png"],["I_Dist_500_LN_7_LD_21_RN_5_RD_6_1.png"]],"dist500_S":[["E_Dist_500_LN_6_LD_8_RN_6_RD_24_0.png"],["E_Dist_500_LN_2_LD_12_RN_2_RD_3_1.png","E_Dist_500_LN_6_LD_24_RN_6_RD_8_1.png"]]}},{"start_time":1552073442659,"click_time":1552073444527,"finger_time":1552073443807,"fix_duration":250,"trial":1,"RT":1148,"MT":720,"sideResp":1,"stimulus":[],"xmouse":[801,801,801,801,801,801,801,801,801,801,801,801,801,801,801,801,801,801,801,801,801,801,801,801,801,801,801,801,801,801,801,801,801,801,801,801,801,801,801,801,801,801,801,801,801,801,801,801,801,801,801,801,801,801,801,801,818,888,977,995,996,996,996,996,996,996,996,995,984,983,981,977,955,932,903,872,809,748,601,572,567,567,565,558,552,539,520,472,453,452,452,452,452,485],"ymouse":[628,628,628,628,628,628,628,628,628,628,628,628,628,628,628,628,628,628,628,628,628,628,628,628,628,628,628,628,628,628,628,628,628,628,628,628,628,628,628,628,628,628,628,628,628,628,628,628,628,628,628,628,628,628,628,628,607,544,477,454,449,448,448,448,448,448,441,434,398,391,381,370,323,251,149,35,0,0,0,0,0,0,7,69,86,97,103,104,102,102,102,102,102,94],"timestamp_mouse":[8,37,48,67,88,109,128,147,167,188,209,228,247,269,288,308,328,348,368,388,407,427,447,468,487,507,528,547,567,588,607,629,649,668,688,708,728,748,767,787,808,828,848,869,888,908,928,949,968,987,1008,1029,1048,1068,1087,1108,1128,1148,1168,1188,1207,1228,1248,1268,1288,1308,1327,1348,1368,1388,1409,1429,1448,1468,1489,1508,1528,1549,1569,1588,1608,1628,1648,1667,1687,1708,1728,1749,1767,1788,1808,1827,1849,1867],"xSR":741.5,"ySR":573.95,"xT1":424.9,"yT1":0,"xT2":1058.1,"yT2":0,"toosoon":0,"cond_shown":"Congruent","ratio_trial":300,"L_num":11,"L_den":22,"R_num":1,"R_den":5,"correct_side":1,"subjID":"isabellamarulandavelez17","gender":"1","school":"4","age":"9"},{"start_time":1552073446318,"click_time":1552073447007,"finger_time":1552073446707,"fix_duration":490.2128294195717,"trial":2,"RT":389,"MT":300,"sideResp":2,"stimulus":[],"xmouse":[781,781,781,781,781,781,781,781,781,781,781,781,781,781,781,781,786,796,806,854,918,1009,1105,1189,1275,1292,1295,1295,1291,1287,1277,1264,1241,1213,1148],"ymouse":[612,612,612,612,612,612,612,612,612,612,612,612,612,612,612,612,605,589,574,518,467,416,360,305,240,209,191,170,150,132,112,105,102,97,88],"timestamp_mouse":[14,34,48,69,89,108,129,148,169,189,208,229,249,270,289,308,329,349,369,389,408,428,450,468,489,508,529,549,568,589,609,629,650,669,689],"xSR":741.5,"ySR":573.95,"xT1":424.9,"yT1":0,"xT2":1058.1,"yT2":0,"toosoon":0,"cond_shown":"Congruent","ratio_trial":300,"L_num":2,"L_den":10,"R_num":12,"R_den":24,"correct_side":2,"subjID":"isabellamarulandavelez17","gender":"1","school":"4","age":"9"},{"start_time":1552073448991,"click_time":1552073449767,"finger_time":1552073449307,"fix_duration":762.2344055137863,"trial":3,"RT":316,"MT":460,"sideResp":2,"stimulus":[],"xmouse":[834,834,834,834,834,834,834,834,834,834,834,834,834,834,834,887,983,1126,1260,1384,1506,1542,1557,1565,1567,1567,1567,1567,1559,1501,1327,1218,1218,1218,1218,1200,1183,1168,1154],"ymouse":[578,578,578,578,578,578,578,578,578,578,578,578,578,579,581,525,422,292,185,76,0,0,0,0,0,0,0,0,0,0,0,0,0,0,0,10,17,23,28],"timestamp_mouse":[16,35,55,76,96,116,136,155,176,195,215,236,256,276,296,316,335,357,377,396,416,435,455,476,495,516,537,556,576,595,617,636,656,677,696,716,735,756,776],"xSR":741.5,"ySR":573.95,"xT1":424.9,"yT1":0,"xT2":1058.1,"yT2":0,"toosoon":0,"cond_shown":"Congruent","ratio_trial":200,"L_num":7,"L_den":21,"R_num":2,"R_den":15,"correct_side":1,"subjID":"isabellamarulandavelez17","gender":"1","school":"4","age":"9"},{"start_time":1552073455508,"click_time":1552073456106,"finger_time":1552073455646,"fix_duration":1240.9805544680248,"trial":4,"RT":138,"MT":460,"sideResp":1,"stimulus":[],"xmouse":[798,798,798,798,798,792,787,774,745,684,672,665,661,655,622,593,587,587,587,587,585,580,570,560,544,541,541,541,528,482],"ymouse":[618,618,618,618,615,575,544,481,391,238,211,195,187,178,136,108,103,103,103,103,103,103,103,103,102,102,102,102,98,82],"timestamp_mouse":[32,39,58,78,99,118,138,159,180,199,218,239,258,280,299,320,339,359,379,399,419,440,459,478,499,519,539,559,579,598],"xSR":741.5,"ySR":573.95,"xT1":424.9,"yT1":0,"xT2":1058.1,"yT2":0,"toosoon":0,"cond_shown":"Incongruent","ratio_trial":100,"L_num":9,"L_den":10,"R_num":20,"R_den":25,"correct_side":1,"subjID":"isabellamarulandavelez17","gender":"1","school":"4","age":"9"},{"start_time":1552073458585,"click_time":1552073458687,"finger_time":1552073458586,"fix_duration":677.4600157751529,"trial":5,"RT":1,"MT":101,"sideResp":1,"stimulus":[],"xmouse":[772,737,604,532,491,479],"ymouse":[569,476,254,165,115,98],"timestamp_mouse":[1,21,41,61,82,102],"xSR":741.5,"ySR":573.95,"xT1":424.9,"yT1":0,"xT2":1058.1,"yT2":0,"toosoon":0,"cond_shown":"Incongruent","ratio_trial":200,"L_num":7,"L_den":15,"R_num":4,"R_den":6,"correct_side":2,"subjID":"isabellamarulandavelez17","gender":"1","school":"4","age":"9"},{"start_time":1552073460259,"click_time":1552073460666,"finger_time":1552073460567,"fix_duration":250,"trial":6,"RT":308,"MT":99,"sideResp":2,"stimulus":[],"xmouse":[782,782,782,782,782,782,782,782,782,782,782,782,782,788,817,875,957,1085,1124,1130,1119],"ymouse":[627,627,627,627,627,627,627,627,627,627,627,627,627,626,599,541,459,309,198,124,65],"timestamp_mouse":[9,29,48,67,87,108,127,148,169,188,208,227,248,268,287,308,328,348,367,387,407],"xSR":741.5,"ySR":573.95,"xT1":424.9,"yT1":0,"xT2":1058.1,"yT2":0,"toosoon":0,"cond_shown":"Incongruent","ratio_trial":200,"L_num":3,"L_den":4,"R_num":11,"R_den":20,"correct_side":1,"subjID":"isabellamarulandavelez17","gender":"1","school":"4","age":"9"},{"start_time":1552073463327,"click_time":1552073464047,"finger_time":1552073463586,"fix_duration":1319.191166329804,"trial":7,"RT":259,"MT":461,"sideResp":2,"stimulus":[],"xmouse":[793,793,793,793,793,793,793,793,793,793,793,793,793,864,917,1251,1349,1379,1385,1382,1374,1374,1374,1374,1373,1366,1358,1347,1328,1272,1241,1210,1192,1184,1176,1165,1158],"ymouse":[649,649,649,649,649,649,649,649,649,649,649,649,649,582,539,248,137,75,39,13,0,0,0,0,0,0,0,0,0,3,12,25,34,40,47,52,55],"timestamp_mouse":[2,33,40,60,80,100,120,139,159,180,200,221,240,259,280,299,320,339,359,380,400,421,439,461,479,500,520,540,559,580,599,619,639,659,680,700,720],"xSR":741.5,"ySR":573.95,"xT1":424.9,"yT1":0,"xT2":1058.1,"yT2":0,"toosoon":0,"cond_shown":"Congruent","ratio_trial":100,"L_num":4,"L_den":10,"R_num":15,"R_den":30,"correct_side":2,"subjID":"isabellamarulandavelez17","gender":"1","school":"4","age":"9"},{"start_time":1552073465638,"click_time":1552073466408,"finger_time":1552073465987,"fix_duration":250,"trial":8,"RT":349,"MT":421,"sideResp":2,"stimulus":[],"xmouse":[804,804,804,804,804,804,804,804,804,804,804,804,804,804,804,818,833,876,1001,1082,1116,1137,1159,1180,1183,1184,1184,1184,1184,1184,1184,1184,1184,1170,1149,1143,1140,1140,1139],"ymouse":[634,634,634,634,634,634,634,634,634,634,634,634,634,634,634,613,593,530,378,259,181,105,34,0,0,0,0,0,0,0,0,0,0,0,0,0,0,0,1],"timestamp_mouse":[13,35,48,68,88,108,129,149,169,190,209,229,249,269,288,308,329,349,369,388,409,429,449,470,488,510,529,549,571,589,609,629,648,671,688,708,728,748,770],"xSR":741.5,"ySR":573.95,"xT1":424.9,"yT1":0,"xT2":1058.1,"yT2":0,"toosoon":0,"cond_shown":"Congruent","ratio_trial":300,"L_num":24,"L_den":30,"R_num":8,"R_den":16,"correct_side":1,"subjID":"isabellamarulandavelez17","gender":"1","school":"4","age":"9"},{"start_time":1552073467857,"click_time":1552073468628,"finger_time":1552073468307,"fix_duration":269.18236919329075,"trial":9,"RT":450,"MT":321,"sideResp":1,"stimulus":[],"xmouse":[770,770,770,770,770,770,770,770,770,770,770,770,770,770,770,770,770,770,770,770,770,770,759,734,700,661,637,618,606,595,577,568,562,562,562,562,559,548,495],"ymouse":[643,643,643,643,643,643,643,643,643,643,643,643,643,643,643,643,643,643,643,643,643,638,551,460,351,254,181,103,69,46,19,5,0,0,0,0,0,7,41],"timestamp_mouse":[13,33,50,69,91,111,130,150,170,190,210,229,250,269,291,310,329,350,371,390,409,430,450,470,489,510,530,550,569,590,611,630,649,671,690,710,730,750,771],"xSR":741.5,"ySR":573.95,"xT1":424.9,"yT1":0,"xT2":1058.1,"yT2":0,"toosoon":0,"cond_shown":"Incongruent","ratio_trial":200,"L_num":6,"L_den":20,"R_num":3,"R_den":6,"correct_side":2,"subjID":"isabellamarulandavelez17","gender":"1","school":"4","age":"9"},{"start_time":1552073473805,"click_time":1552073474746,"finger_time":1552073474126,"fix_duration":1277.4476788243542,"trial":10,"RT":321,"MT":620,"sideResp":1,"stimulus":[],"xmouse":[789,789,789,789,789,789,789,789,789,789,789,789,789,789,789,789,764,710,630,534,349,284,280,280,280,285,288,292,294,297,298,322,339,355,371,384,384,385,387,393,393,393,393,393,393,409,422,428],"ymouse":[615,615,615,615,615,615,615,615,615,615,615,615,615,615,615,615,552,458,347,232,19,0,0,0,0,0,0,0,0,0,0,0,0,0,0,0,0,0,0,0,0,0,0,0,0,2,4,4],"timestamp_mouse":[20,35,43,62,82,102,122,143,162,182,202,222,242,262,282,302,321,341,362,382,402,421,442,462,482,502,522,542,562,582,602,622,642,663,682,703,722,742,762,781,803,822,841,861,881,903,921,941],"xSR":741.5,"ySR":573.95,"xT1":424.9,"yT1":0,"xT2":1058.1,"yT2":0,"toosoon":0,"cond_shown":"Incongruent","ratio_trial":100,"L_num":3,"L_den":9,"R_num":7,"R_den":30,"correct_side":1,"subjID":"isabellamarulandavelez17","gender":"1","school":"4","age":"9"},{"start_time":1552073476753,"click_time":1552073477107,"finger_time":1552073477026,"fix_duration":785.6779603749028,"trial":11,"RT":273,"MT":81,"sideResp":1,"stimulus":[],"xmouse":[775,775,775,775,775,775,775,775,775,775,775,775,775,763,722,663,583,475],"ymouse":[611,611,611,611,611,611,611,611,611,611,611,611,611,563,451,318,184,30],"timestamp_mouse":[15,33,54,74,94,114,134,153,173,194,213,233,254,273,294,314,333,354],"xSR":741.5,"ySR":573.95,"xT1":424.9,"yT1":0,"xT2":1058.1,"yT2":0,"toosoon":0,"cond_shown":"Congruent","ratio_trial":200,"L_num":4,"L_den":10,"R_num":3,"R_den":15,"correct_side":1,"subjID":"isabellamarulandavelez17","gender":"1","school":"4","age":"9"},{"start_time":1552073478549,"click_time":1552073479207,"finger_time":1552073478887,"fix_duration":321.4553148544858,"trial":12,"RT":338,"MT":320,"sideResp":1,"stimulus":[],"xmouse":[795,795,795,795,795,795,795,795,795,795,795,795,795,795,795,795,762,713,624,610,609,609,600,565,525,507,504,506,509,511,514,515,519],"ymouse":[607,607,607,607,607,607,607,607,607,607,607,607,607,607,607,594,536,474,379,355,345,338,315,288,266,252,243,229,215,198,164,124,38],"timestamp_mouse":[20,38,58,78,98,118,138,158,178,199,218,238,258,278,298,318,338,359,378,398,418,439,458,477,498,519,538,558,577,598,618,638,658],"xSR":741.5,"ySR":573.95,"xT1":424.9,"yT1":0,"xT2":1058.1,"yT2":0,"toosoon":0,"cond_shown":"Incongruent","ratio_trial":300,"L_num":4,"L_den":20,"R_num":2,"R_den":4,"correct_side":2,"subjID":"isabellamarulandavelez17","gender":"1","school":"4","age":"9"},{"start_time":1552073480694,"click_time":1552073481327,"finger_time":1552073481007,"fix_duration":665.0116604562938,"trial":13,"RT":313,"MT":320,"sideResp":2,"stimulus":[],"xmouse":[800,800,800,800,800,800,800,800,800,800,800,800,800,800,819,889,982,1067,1142,1195,1233,1239,1244,1250,1253,1253,1253,1253,1247,1229,1165,1150],"ymouse":[611,611,611,611,611,611,611,611,611,611,611,611,611,611,602,537,416,317,235,162,76,49,28,15,10,9,9,9,9,8,6,10],"timestamp_mouse":[30,33,53,73,93,113,134,154,173,193,213,234,254,273,293,313,333,353,373,393,413,433,454,473,494,513,533,554,573,594,613,633],"xSR":741.5,"ySR":573.95,"xT1":424.9,"yT1":0,"xT2":1058.1,"yT2":0,"toosoon":0,"cond_shown":"Incongruent","ratio_trial":300,"L_num":8,"L_den":10,"R_num":14,"R_den":28,"correct_side":1,"subjID":"isabellamarulandavelez17","gender":"1","school":"4","age":"9"},{"start_time":1552073485446,"click_time":1552073485809,"finger_time":1552073485568,"fix_duration":1476.6876661217489,"trial":14,"RT":122,"MT":241,"sideResp":2,"stimulus":[],"xmouse":[779,779,779,779,779,784,796,830,915,996,1017,1026,1043,1047,1047,1047,1047,1049,1059],"ymouse":[597,597,597,597,597,586,553,487,337,129,51,23,0,0,0,0,0,0,4],"timestamp_mouse":[9,21,42,61,82,102,122,141,161,182,201,221,241,261,281,301,322,340,363],"xSR":741.5,"ySR":573.95,"xT1":424.9,"yT1":0,"xT2":1058.1,"yT2":0,"toosoon":0,"cond_shown":"Incongruent","ratio_trial":300,"L_num":3,"L_den":6,"R_num":4,"R_den":20,"correct_side":1,"subjID":"isabellamarulandavelez17","gender":"1","school":"4","age":"9"},{"start_time":1552073487700,"click_time":1552073488487,"finger_time":1552073488087,"fix_duration":691.1423194276005,"trial":15,"RT":387,"MT":400,"sideResp":1,"stimulus":[],"xmouse":[777,777,777,777,777,777,777,777,777,777,777,777,777,777,777,777,777,777,769,737,585,488,396,345,328,325,325,325,325,327,335,367,387,402,411,414,415,415,421,429],"ymouse":[636,636,636,636,636,636,636,636,636,636,636,636,636,636,636,636,635,616,585,520,318,217,131,85,70,65,65,65,65,65,65,64,61,59,55,50,49,48,48,47],"timestamp_mouse":[12,36,47,67,87,107,128,147,167,187,207,227,247,267,286,307,328,347,367,387,407,427,448,467,487,507,528,547,567,587,607,627,648,667,686,708,727,747,767,787],"xSR":741.5,"ySR":573.95,"xT1":424.9,"yT1":0,"xT2":1058.1,"yT2":0,"toosoon":0,"cond_shown":"Incongruent","ratio_trial":200,"L_num":14,"L_den":30,"R_num":12,"R_den":18,"correct_side":2,"subjID":"isabellamarulandavelez17","gender":"1","school":"4","age":"9"},{"start_time":1552073490226,"click_time":1552073491267,"finger_time":1552073490786,"fix_duration":617.9135221872068,"trial":16,"RT":560,"MT":481,"sideResp":1,"stimulus":[],"xmouse":[780,780,780,780,780,780,780,780,780,780,780,780,780,780,780,780,780,780,780,780,780,780,780,780,780,780,780,772,763,665,582,559,552,549,543,535,525,520,519,519,519,519,519,519,519,495,472,450,437,432,432,432,432],"ymouse":[607,607,607,607,607,607,607,607,607,607,607,607,607,607,607,607,607,607,607,607,607,607,607,607,607,607,607,586,566,442,364,337,318,302,262,239,219,207,203,199,199,199,199,199,199,182,167,152,140,115,107,102,98],"timestamp_mouse":[10,34,41,61,81,100,131,141,161,181,201,221,241,261,281,301,321,341,361,381,401,421,441,461,481,501,522,541,560,581,600,621,642,661,681,701,721,741,761,781,801,821,842,861,881,901,921,941,961,982,1001,1021,1041],"xSR":741.5,"ySR":573.95,"xT1":424.9,"yT1":0,"xT2":1058.1,"yT2":0,"toosoon":0,"cond_shown":"Incongruent","ratio_trial":100,"L_num":3,"L_den":9,"R_num":7,"R_den":30,"correct_side":1,"subjID":"isabellamarulandavelez17","gender":"1","school":"4","age":"9"},{"start_time":1552073493485,"click_time":1552073493947,"finger_time":1552073493907,"fix_duration":1096.242478025794,"trial":17,"RT":422,"MT":40,"sideResp":2,"stimulus":[],"xmouse":[824,824,824,824,824,824,824,824,824,824,824,824,824,824,824,824,824,824,824,827,840,874,1008,1093],"ymouse":[637,637,637,637,637,637,637,637,637,637,637,637,637,637,637,637,637,637,637,623,577,474,198,64],"timestamp_mouse":[14,22,43,61,82,103,122,142,162,182,202,222,242,262,282,302,322,341,361,382,402,422,442,462],"xSR":741.5,"ySR":573.95,"xT1":424.9,"yT1":0,"xT2":1058.1,"yT2":0,"toosoon":0,"cond_shown":"Congruent","ratio_trial":100,"L_num":7,"L_den":14,"R_num":15,"R_den":25,"correct_side":2,"subjID":"isabellamarulandavelez17","gender":"1","school":"4","age":"9"},{"start_time":1552073497303,"click_time":1552073497887,"finger_time":1552073497748,"fix_duration":932.7004228586426,"trial":18,"RT":445,"MT":139,"sideResp":1,"stimulus":[],"xmouse":[796,796,796,796,796,796,796,796,796,796,796,796,796,796,796,796,796,796,796,796,788,767,734,695,658,585,536,510,497,496],"ymouse":[612,612,612,612,612,612,612,612,612,612,612,612,612,612,612,612,612,612,612,612,606,589,561,515,467,337,230,166,112,80],"timestamp_mouse":[12,37,45,64,84,104,124,144,164,184,204,224,245,263,284,304,325,343,364,384,404,424,445,464,484,504,524,544,564,584],"xSR":741.5,"ySR":573.95,"xT1":424.9,"yT1":0,"xT2":1058.1,"yT2":0,"toosoon":0,"cond_shown":"Incongruent","ratio_trial":100,"L_num":3,"L_den":9,"R_num":7,"R_den":30,"correct_side":1,"subjID":"isabellamarulandavelez17","gender":"1","school":"4","age":"9"},{"start_time":1552073500241,"click_time":1552073501288,"finger_time":1552073500927,"fix_duration":1312.0639994528694,"trial":19,"RT":686,"MT":361,"sideResp":1,"stimulus":[],"xmouse":[776,776,776,776,776,776,776,776,776,776,776,776,776,776,776,776,776,776,776,776,776,776,776,776,776,776,776,776,776,776,776,776,775,771,727,678,616,563,536,543,546,546,546,546,546,546,546,544,520,507,506,506,505],"ymouse":[628,628,628,628,628,628,628,628,628,628,628,628,628,628,628,628,628,628,628,628,628,628,628,628,628,628,628,628,628,628,628,628,623,610,532,437,304,173,32,0,0,0,0,0,0,0,0,0,0,0,0,0,1],"timestamp_mouse":[19,26,51,65,85,106,126,146,166,186,206,226,246,266,286,306,326,345,366,385,406,426,446,466,485,507,527,546,566,586,607,626,646,666,686,705,727,746,766,786,806,826,846,866,886,906,926,946,968,986,1006,1027,1047],"xSR":741.5,"ySR":573.95,"xT1":424.9,"yT1":0,"xT2":1058.1,"yT2":0,"toosoon":0,"cond_shown":"Incongruent","ratio_trial":300,"L_num":8,"L_den":10,"R_num":14,"R_den":28,"correct_side":1,"subjID":"isabellamarulandavelez17","gender":"1","school":"4","age":"9"},{"start_time":1552073502719,"click_time":1552073503507,"finger_time":1552073503187,"fix_duration":250,"trial":20,"RT":468,"MT":320,"sideResp":1,"stimulus":[],"xmouse":[770,770,770,770,770,770,770,772,773,773,773,773,773,773,773,773,773,773,773,773,773,771,763,728,688,599,570,569,569,566,560,555,554,553,553,553,553,543,528,507],"ymouse":[606,606,606,606,606,607,610,613,615,615,615,615,615,615,615,615,615,615,615,615,615,599,581,502,406,194,99,69,49,37,33,30,27,25,22,21,20,20,20,20],"timestamp_mouse":[13,34,48,68,88,108,128,148,168,188,208,228,248,268,288,308,328,349,368,388,408,428,448,468,488,508,528,548,568,589,608,628,648,669,688,708,728,748,768,788],"xSR":741.5,"ySR":573.95,"xT1":424.9,"yT1":0,"xT2":1058.1,"yT2":0,"toosoon":0,"cond_shown":"Congruent","ratio_trial":300,"L_num":3,"L_den":12,"R_num":11,"R_den":20,"correct_side":2,"subjID":"isabellamarulandavelez17","gender":"1","school":"4","age":"9"},{"start_time":1552073505914,"click_time":1552073506628,"finger_time":1552073506307,"fix_duration":1325.3998369561991,"trial":21,"RT":393,"MT":321,"sideResp":2,"stimulus":[],"xmouse":[811,811,811,811,811,811,811,811,811,811,811,811,811,811,811,811,811,814,820,858,885,914,947,972,1002,1079,1098,1107,1110,1110,1110,1110,1110,1110,1110,1110],"ymouse":[636,636,636,636,636,636,636,636,636,636,636,636,636,636,636,636,636,628,610,531,471,409,336,246,144,0,0,0,0,0,0,0,0,0,0,12],"timestamp_mouse":[18,39,53,73,93,113,133,153,173,193,213,233,253,274,292,313,333,353,373,393,412,434,453,473,493,514,533,553,573,594,613,634,653,673,693,714],"xSR":741.5,"ySR":573.95,"xT1":424.9,"yT1":0,"xT2":1058.1,"yT2":0,"toosoon":0,"cond_shown":"Incongruent","ratio_trial":200,"L_num":4,"L_den":5,"R_num":6,"R_den":10,"correct_side":1,"subjID":"isabellamarulandavelez17","gender":"1","school":"4","age":"9"},{"start_time":1552073507856,"click_time":1552073508548,"finger_time":1552073508127,"fix_duration":328.8550931036719,"trial":22,"RT":271,"MT":421,"sideResp":2,"stimulus":[],"xmouse":[791,791,791,791,791,791,791,791,791,791,791,792,822,855,903,954,1000,1055,1066,1071,1073,1075,1076,1087,1093,1094,1095,1096,1100,1103,1106,1107,1108,1111,1114],"ymouse":[645,645,645,645,645,645,645,645,645,645,645,645,625,593,536,463,390,276,229,213,207,205,204,189,178,174,173,169,157,145,138,131,125,109,99],"timestamp_mouse":[11,32,51,71,92,111,131,151,172,191,211,231,251,271,291,310,331,351,371,391,411,430,451,471,491,511,531,551,571,591,611,631,651,671,691],"xSR":741.5,"ySR":573.95,"xT1":424.9,"yT1":0,"xT2":1058.1,"yT2":0,"toosoon":0,"cond_shown":"Incongruent","ratio_trial":100,"L_num":6,"L_den":10,"R_num":7,"R_den":14,"correct_side":1,"subjID":"isabellamarulandavelez17","gender":"1","school":"4","age":"9"},{"start_time":1552073511460,"click_time":1552073512208,"finger_time":1552073511827,"fix_duration":611.1576652887857,"trial":23,"RT":367,"MT":381,"sideResp":2,"stimulus":[],"xmouse":[769,769,769,769,769,769,769,769,769,769,769,769,769,769,769,769,769,769,800,827,848,864,879,912,937,962,987,1016,1024,1027,1027,1027,1028,1029,1032,1038,1056,1072],"ymouse":[601,601,601,601,601,601,601,601,601,601,601,601,601,601,601,601,601,601,556,506,455,408,363,264,210,153,106,38,4,0,0,0,0,0,0,0,4,8],"timestamp_mouse":[12,32,47,68,87,107,128,148,167,188,207,227,247,267,287,307,326,347,367,387,408,428,447,467,487,507,527,547,566,588,607,627,648,666,687,707,726,748],"xSR":741.5,"ySR":573.95,"xT1":424.9,"yT1":0,"xT2":1058.1,"yT2":0,"toosoon":0,"cond_shown":"Incongruent","ratio_trial":300,"L_num":3,"L_den":6,"R_num":4,"R_den":20,"correct_side":1,"subjID":"isabellamarulandavelez17","gender":"1","school":"4","age":"9"},{"start_time":1552073514578,"click_time":1552073515627,"finger_time":1552073514948,"fix_duration":1009.2446146242374,"trial":24,"RT":370,"MT":679,"sideResp":2,"stimulus":[],"xmouse":[779,779,779,779,779,779,779,779,779,779,779,779,779,779,779,779,781,816,864,910,971,1121,1211,1233,1236,1236,1236,1235,1228,1220,1216,1215,1214,1214,1214,1214,1214,1214,1214,1211,1200,1179,1179,1179,1179,1174,1164,1162,1162,1162,1162,1159,1150],"ymouse":[640,640,640,640,640,640,640,640,640,640,640,640,640,640,640,640,636,576,488,373,241,0,0,0,0,0,0,6,29,50,62,72,73,73,73,74,74,74,74,74,72,67,67,67,67,67,67,68,68,68,68,68,68],"timestamp_mouse":[11,33,49,69,89,109,130,149,170,189,210,229,249,269,289,308,330,349,370,389,409,429,450,469,489,509,530,549,569,589,610,629,649,669,689,709,729,749,769,789,809,829,849,870,889,909,930,949,969,989,1009,1029,1048],"xSR":741.5,"ySR":573.95,"xT1":424.9,"yT1":0,"xT2":1058.1,"yT2":0,"toosoon":0,"cond_shown":"Incongruent","ratio_trial":300,"L_num":4,"L_den":20,"R_num":2,"R_den":4,"correct_side":2,"subjID":"isabellamarulandavelez17","gender":"1","school":"4","age":"9"},{"start_time":1552073516938,"click_time":1552073517708,"finger_time":1552073517267,"fix_duration":250,"trial":25,"RT":329,"MT":441,"sideResp":2,"stimulus":[],"xmouse":[781,781,781,781,781,781,781,781,781,781,781,781,781,781,781,793,819,856,921,936,946,954,961,971,988,991,991,991,991,991,991,991,992,998,1024,1044,1060,1067,1074],"ymouse":[599,599,599,599,599,599,599,599,599,599,599,599,599,599,599,585,551,499,403,366,333,306,277,243,186,176,175,175,175,175,175,175,173,165,148,136,122,111,97],"timestamp_mouse":[12,35,48,69,89,110,129,149,169,190,210,229,249,269,290,309,329,349,369,388,409,430,450,469,489,509,530,550,569,589,609,629,649,669,689,709,728,749,770],"xSR":741.5,"ySR":573.95,"xT1":424.9,"yT1":0,"xT2":1058.1,"yT2":0,"toosoon":0,"cond_shown":"Congruent","ratio_trial":200,"L_num":11,"L_den":22,"R_num":3,"R_den":10,"correct_side":1,"subjID":"isabellamarulandavelez17","gender":"1","school":"4","age":"9"},{"start_time":1552073523290,"click_time":1552073524048,"finger_time":1552073523607,"fix_duration":761.99667195459,"trial":26,"RT":317,"MT":441,"sideResp":1,"stimulus":[],"xmouse":[778,778,778,778,778,778,778,778,778,778,778,778,778,778,778,746,686,646,602,563,539,529,529,529,529,529,529,529,527,524,515,498,495,493,489,477,472,469],"ymouse":[637,637,637,637,637,637,637,637,637,637,637,637,637,633,623,535,422,355,295,242,209,191,191,191,191,191,191,191,186,180,169,151,144,135,126,107,101,98],"timestamp_mouse":[17,37,58,77,97,117,137,158,177,197,217,237,257,277,297,317,337,357,376,398,417,437,457,477,497,517,537,557,577,597,617,637,658,677,696,718,737,757],"xSR":741.5,"ySR":573.95,"xT1":424.9,"yT1":0,"xT2":1058.1,"yT2":0,"toosoon":0,"cond_shown":"Congruent","ratio_trial":100,"L_num":4,"L_den":10,"R_num":15,"R_den":30,"correct_side":2,"subjID":"isabellamarulandavelez17","gender":"1","school":"4","age":"9"},{"start_time":1552073525779,"click_time":1552073526427,"finger_time":1552073526347,"fix_duration":411.0725655370556,"trial":27,"RT":568,"MT":80,"sideResp":2,"stimulus":[],"xmouse":[790,790,790,790,790,790,790,790,790,790,790,790,790,790,790,790,790,790,790,790,790,790,790,790,790,790,791,805,830,862,905,1015,1086],"ymouse":[596,596,596,596,596,596,596,596,596,596,596,596,596,596,596,596,596,596,596,596,596,596,596,596,596,596,596,576,534,485,413,218,40],"timestamp_mouse":[12,28,49,69,89,107,128,148,168,188,208,228,248,268,288,309,329,348,368,388,408,428,448,469,488,508,528,548,568,589,609,628,648],"xSR":741.5,"ySR":573.95,"xT1":424.9,"yT1":0,"xT2":1058.1,"yT2":0,"toosoon":0,"cond_shown":"Incongruent","ratio_trial":300,"L_num":13,"L_den":26,"R_num":12,"R_den":15,"correct_side":2,"subjID":"isabellamarulandavelez17","gender":"1","school":"4","age":"9"},{"start_time":1552073529139,"click_time":1552073529908,"finger_time":1552073529488,"fix_duration":250,"trial":28,"RT":349,"MT":420,"sideResp":2,"stimulus":[],"xmouse":[793,793,793,793,793,793,793,793,793,793,793,793,793,793,793,807,837,882,927,1000,1018,1027,1030,1040,1046,1053,1059,1065,1071,1077,1079,1079,1081,1095,1108,1112,1116,1117,1117],"ymouse":[618,618,618,618,618,618,618,618,618,618,618,618,618,618,618,610,588,554,510,417,360,315,285,227,211,202,193,184,175,163,159,159,156,148,141,137,131,125,97],"timestamp_mouse":[12,34,48,68,88,108,128,147,168,188,208,228,248,269,288,308,327,349,369,388,408,428,448,469,488,509,528,548,569,588,608,628,648,668,688,708,728,748,768],"xSR":741.5,"ySR":573.95,"xT1":424.9,"yT1":0,"xT2":1058.1,"yT2":0,"toosoon":0,"cond_shown":"Congruent","ratio_trial":100,"L_num":2,"L_den":5,"R_num":6,"R_den":12,"correct_side":2,"subjID":"isabellamarulandavelez17","gender":"1","school":"4","age":"9"},{"start_time":1552073531338,"click_time":1552073533227,"finger_time":1552073533127,"fix_duration":250,"trial":29,"RT":1789,"MT":100,"sideResp":2,"stimulus":[],"xmouse":[801,801,801,801,801,801,801,801,801,801,801,801,801,801,801,801,801,801,801,801,801,801,801,801,801,801,801,801,801,801,801,801,801,801,801,801,801,801,801,801,801,801,801,801,801,801,801,801,801,801,801,801,801,801,801,801,801,801,801,801,801,801,801,801,801,801,801,801,801,801,801,801,801,801,801,801,801,801,801,801,801,801,801,801,801,801,801,801,804,854,919,980,1020,1054,1068],"ymouse":[610,610,610,610,610,610,610,610,610,610,610,610,610,610,610,610,610,610,610,610,610,610,610,610,610,610,610,610,610,610,610,610,610,610,610,610,610,610,610,610,610,610,610,610,610,610,610,610,610,610,610,610,610,610,610,610,610,610,610,610,610,610,610,610,610,610,610,610,610,610,610,610,610,610,610,610,610,610,610,610,610,610,610,610,610,610,610,610,601,545,463,361,274,145,66],"timestamp_mouse":[20,37,49,70,90,109,129,149,169,189,209,229,249,269,288,309,329,349,369,388,410,429,449,470,489,509,529,549,570,589,609,629,649,669,689,709,729,750,769,789,809,829,849,868,889,909,929,948,969,989,1009,1029,1050,1069,1089,1109,1130,1148,1170,1189,1210,1229,1250,1269,1289,1309,1328,1350,1369,1389,1409,1429,1449,1469,1489,1509,1529,1549,1569,1589,1609,1629,1649,1669,1690,1709,1729,1749,1770,1789,1809,1830,1849,1869,1889],"xSR":741.5,"ySR":573.95,"xT1":424.9,"yT1":0,"xT2":1058.1,"yT2":0,"toosoon":0,"cond_shown":"Incongruent","ratio_trial":200,"L_num":7,"L_den":10,"R_num":12,"R_den":24,"correct_side":1,"subjID":"isabellamarulandavelez17","gender":"1","school":"4","age":"9"},{"start_time":1552073536278,"click_time":1552073537388,"finger_time":1552073537187,"fix_duration":250,"trial":30,"RT":909,"MT":201,"sideResp":2,"stimulus":[],"xmouse":[773,773,773,773,773,773,773,773,773,773,773,773,773,773,773,773,773,773,773,773,773,773,773,773,773,773,773,773,773,773,773,773,773,773,773,773,773,773,773,773,777,790,798,805,811,814,824,830,835,843,848,875,908,961,1006,1069],"ymouse":[644,644,644,644,644,644,644,644,644,644,644,644,644,644,644,644,644,644,644,644,644,644,644,644,644,644,644,644,644,644,644,644,644,644,644,644,644,644,644,644,640,625,610,595,577,555,488,445,414,354,316,250,205,152,117,74],"timestamp_mouse":[13,42,49,69,89,109,129,149,169,189,209,229,249,269,288,309,330,349,369,389,409,429,449,469,489,509,529,549,569,589,609,630,649,670,688,709,729,749,768,788,809,829,849,869,890,909,929,949,969,990,1010,1029,1049,1069,1090,1110],"xSR":741.5,"ySR":573.95,"xT1":424.9,"yT1":0,"xT2":1058.1,"yT2":0,"toosoon":0,"cond_shown":"Incongruent","ratio_trial":100,"L_num":6,"L_den":12,"R_num":3,"R_den":5,"correct_side":2,"subjID":"isabellamarulandavelez17","gender":"1","school":"4","age":"9"},{"start_time":1552073539604,"click_time":1552073540847,"finger_time":1552073540407,"fix_duration":1035.0996074660052,"trial":31,"RT":803,"MT":440,"sideResp":2,"stimulus":[],"xmouse":[794,794,794,794,794,794,794,794,794,794,794,794,794,794,794,794,794,794,794,794,794,794,794,794,794,794,794,794,794,794,794,794,794,794,794,794,794,800,808,817,839,854,859,867,881,928,961,989,1004,1012,1017,1029,1035,1040,1043,1050,1050,1052,1053,1054,1054,1056,1075],"ymouse":[641,641,641,641,641,641,641,641,641,641,641,641,641,641,641,641,641,641,641,641,641,641,641,641,641,641,641,641,641,641,641,641,641,641,641,641,634,619,602,580,543,520,512,500,479,395,337,291,260,242,228,195,181,168,154,126,110,96,88,86,86,85,85],"timestamp_mouse":[12,32,43,63,83,103,123,143,162,183,203,223,243,263,283,303,324,343,364,383,403,424,443,463,483,503,523,542,563,583,603,624,643,663,683,703,723,744,763,783,803,823,843,864,883,903,923,943,964,984,1003,1023,1043,1063,1084,1103,1123,1144,1164,1183,1202,1223,1243],"xSR":741.5,"ySR":573.95,"xT1":424.9,"yT1":0,"xT2":1058.1,"yT2":0,"toosoon":0,"cond_shown":"Incongruent","ratio_trial":100,"L_num":3,"L_den":5,"R_num":8,"R_den":16,"correct_side":1,"subjID":"isabellamarulandavelez17","gender":"1","school":"4","age":"9"},{"start_time":1552073542123,"click_time":1552073543087,"finger_time":1552073542947,"fix_duration":274.2216495255817,"trial":32,"RT":824,"MT":140,"sideResp":2,"stimulus":[],"xmouse":[791,791,791,791,791,791,791,791,791,791,791,791,791,791,791,791,791,791,791,791,791,791,791,791,791,791,791,791,791,791,791,791,791,791,791,791,791,791,791,794,803,813,832,860,904,989,1041,1075,1103],"ymouse":[633,633,633,632,632,632,632,632,632,632,632,632,632,632,632,632,632,632,632,632,632,632,632,632,632,632,632,632,632,632,632,632,632,632,632,632,632,632,632,618,589,546,488,423,358,233,157,100,62],"timestamp_mouse":[12,33,44,64,84,103,124,144,164,185,203,223,243,264,284,305,324,344,363,384,404,424,445,464,484,504,524,544,564,584,604,624,645,664,684,705,725,744,764,784,804,824,844,864,884,904,924,944,964],"xSR":741.5,"ySR":573.95,"xT1":424.9,"yT1":0,"xT2":1058.1,"yT2":0,"toosoon":0,"cond_shown":"Incongruent","ratio_trial":200,"L_num":3,"L_den":10,"R_num":1,"R_den":2,"correct_side":2,"subjID":"isabellamarulandavelez17","gender":"1","school":"4","age":"9"},{"start_time":1552073546362,"click_time":1552073547827,"finger_time":1552073547426,"fix_duration":654.4263891950014,"trial":33,"RT":1064,"MT":401,"sideResp":2,"stimulus":[],"xmouse":[784,784,784,784,784,784,784,784,784,784,784,784,784,784,784,784,784,784,784,784,784,784,784,784,784,784,784,784,784,784,784,784,784,784,784,784,784,784,784,784,784,784,784,784,784,784,784,784,784,784,784,784,784,806,836,870,903,941,958,974,984,1006,1019,1030,1030,1034,1036,1036,1036,1036,1036,1037,1037,1074],"ymouse":[607,607,607,607,607,607,607,607,607,607,607,607,607,607,607,607,607,607,607,607,607,607,607,607,607,607,607,607,607,607,607,607,607,607,607,607,607,607,607,607,607,607,607,607,607,607,607,607,607,607,607,607,602,521,444,353,263,144,107,80,69,48,32,8,5,0,0,0,0,0,0,0,0,8],"timestamp_mouse":[13,24,44,65,85,105,125,145,165,184,205,225,244,265,286,305,325,345,365,385,405,425,445,466,485,505,525,545,566,586,606,626,645,665,686,705,725,745,766,786,805,824,845,864,885,905,925,944,965,986,1006,1026,1045,1064,1085,1104,1125,1145,1164,1185,1205,1225,1245,1264,1286,1305,1326,1346,1365,1384,1404,1424,1445,1465],"xSR":741.5,"ySR":573.95,"xT1":424.9,"yT1":0,"xT2":1058.1,"yT2":0,"toosoon":0,"cond_shown":"Congruent","ratio_trial":300,"L_num":5,"L_den":25,"R_num":7,"R_den":14,"correct_side":2,"subjID":"isabellamarulandavelez17","gender":"1","school":"4","age":"9"},{"start_time":1552073549888,"click_time":1552073550727,"finger_time":1552073550288,"fix_duration":1199.577438223032,"trial":34,"RT":400,"MT":439,"sideResp":2,"stimulus":[],"xmouse":[806,806,806,806,806,806,806,806,806,806,806,806,806,806,806,806,806,806,813,823,834,874,896,914,924,931,948,953,953,953,953,953,953,953,953,956,962,985,999,1009,1015,1026,1066],"ymouse":[605,605,605,605,605,605,605,605,605,605,605,605,605,605,605,605,605,605,596,578,559,462,388,318,250,216,150,126,124,124,124,124,124,124,124,121,118,108,101,96,94,90,82],"timestamp_mouse":[7,20,43,60,79,99,119,139,159,179,200,219,240,259,280,299,319,339,359,379,400,419,439,459,479,499,519,539,559,579,599,619,640,659,679,699,719,739,759,779,799,819,839],"xSR":741.5,"ySR":573.95,"xT1":424.9,"yT1":0,"xT2":1058.1,"yT2":0,"toosoon":0,"cond_shown":"Incongruent","ratio_trial":200,"L_num":1,"L_den":2,"R_num":3,"R_den":10,"correct_side":1,"subjID":"isabellamarulandavelez17","gender":"1","school":"4","age":"9"},{"start_time":1552073554532,"click_time":1552073555207,"finger_time":1552073554847,"fix_duration":1203.3178650157065,"trial":35,"RT":315,"MT":360,"sideResp":1,"stimulus":[],"xmouse":[789,789,789,789,789,789,789,789,789,789,789,789,789,789,781,752,709,646,470,381,310,275,265,265,265,267,276,282,305,346,365,393,418,426],"ymouse":[610,610,610,610,610,610,610,610,610,610,610,610,610,610,579,522,450,365,170,68,0,0,0,0,0,0,1,2,3,3,3,5,6,6],"timestamp_mouse":[15,35,55,75,95,115,135,155,175,195,214,234,254,275,295,315,335,355,375,395,415,435,455,476,495,515,535,554,576,594,615,634,655,675],"xSR":741.5,"ySR":573.95,"xT1":424.9,"yT1":0,"xT2":1058.1,"yT2":0,"toosoon":0,"cond_shown":"Incongruent","ratio_trial":100,"L_num":11,"L_den":22,"R_num":9,"R_den":15,"correct_side":2,"subjID":"isabellamarulandavelez17","gender":"1","school":"4","age":"9"},{"start_time":1552073557203,"click_time":1552073558127,"finger_time":1552073557827,"fix_duration":794.3393218913504,"trial":36,"RT":624,"MT":300,"sideResp":2,"stimulus":[],"xmouse":[798,798,798,798,798,798,798,798,798,798,798,798,798,798,798,798,798,798,798,798,798,798,798,798,798,798,798,800,802,808,821,892,924,952,973,997,1005,1014,1024,1031,1046,1060,1067,1069,1069,1069,1070],"ymouse":[622,622,622,622,622,622,622,622,622,622,622,622,622,622,622,622,622,622,622,622,622,622,622,622,622,622,622,617,613,601,581,476,411,358,314,256,234,213,194,176,146,122,110,104,103,100,99],"timestamp_mouse":[13,36,45,64,84,104,124,144,164,184,204,224,244,265,284,304,324,345,364,384,404,424,445,463,484,504,524,544,563,584,604,624,644,665,684,704,723,745,764,783,804,825,844,865,885,904,924],"xSR":741.5,"ySR":573.95,"xT1":424.9,"yT1":0,"xT2":1058.1,"yT2":0,"toosoon":0,"cond_shown":"Congruent","ratio_trial":300,"L_num":1,"L_den":3,"R_num":19,"R_den":30,"correct_side":2,"subjID":"isabellamarulandavelez17","gender":"1","school":"4","age":"9"},{"start_time":1552073560106,"click_time":1552073560987,"finger_time":1552073560588,"fix_duration":977.3744205093283,"trial":37,"RT":482,"MT":399,"sideResp":1,"stimulus":[],"xmouse":[763,763,763,763,763,763,763,763,763,763,763,763,763,763,763,763,763,763,763,763,763,763,763,759,754,712,647,583,522,490,480,477,477,477,475,467,467,467,472,479,480,482,482,482,482],"ymouse":[612,612,612,612,612,612,612,612,612,612,612,612,612,612,612,612,612,612,612,612,612,612,612,587,571,501,440,401,370,343,327,294,265,232,206,172,158,151,142,130,122,109,106,102,99],"timestamp_mouse":[9,31,41,61,81,101,121,142,161,181,201,221,240,261,281,301,321,342,362,381,401,422,440,461,482,501,522,541,560,582,602,621,642,661,681,702,722,741,760,781,800,820,841,860,881],"xSR":741.5,"ySR":573.95,"xT1":424.9,"yT1":0,"xT2":1058.1,"yT2":0,"toosoon":0,"cond_shown":"Incongruent","ratio_trial":100,"L_num":3,"L_den":9,"R_num":7,"R_den":30,"correct_side":1,"subjID":"isabellamarulandavelez17","gender":"1","school":"4","age":"9"},{"start_time":1552073562263,"click_time":1552073562727,"finger_time":1552073562647,"fix_duration":273.73213687104317,"trial":38,"RT":384,"MT":80,"sideResp":1,"stimulus":[],"xmouse":[778,778,778,778,778,778,778,778,778,778,778,778,778,778,778,778,778,778,775,760,717,655,533,489],"ymouse":[626,626,626,626,626,626,626,626,626,626,626,626,626,626,626,626,626,626,616,560,468,359,177,98],"timestamp_mouse":[12,24,43,64,84,104,125,144,164,185,204,224,244,263,285,303,324,344,364,384,404,424,444,463],"xSR":741.5,"ySR":573.95,"xT1":424.9,"yT1":0,"xT2":1058.1,"yT2":0,"toosoon":0,"cond_shown":"Congruent","ratio_trial":300,"L_num":11,"L_den":22,"R_num":1,"R_den":5,"correct_side":1,"subjID":"isabellamarulandavelez17","gender":"1","school":"4","age":"9"},{"start_time":1552073563878,"click_time":1552073564389,"finger_time":1552073564287,"fix_duration":250,"trial":39,"RT":409,"MT":102,"sideResp":1,"stimulus":[],"xmouse":[781,781,781,781,781,781,781,781,781,781,781,781,781,781,781,781,781,781,781,779,768,741,651,593,529,488],"ymouse":[606,606,606,606,606,606,606,606,606,606,606,606,606,606,606,606,606,606,606,599,562,495,292,183,91,38],"timestamp_mouse":[9,28,49,69,89,109,129,149,169,189,209,229,249,268,289,309,329,348,369,389,409,429,449,469,489,510],"xSR":741.5,"ySR":573.95,"xT1":424.9,"yT1":0,"xT2":1058.1,"yT2":0,"toosoon":0,"cond_shown":"Congruent","ratio_trial":200,"L_num":7,"L_den":21,"R_num":2,"R_den":15,"correct_side":1,"subjID":"isabellamarulandavelez17","gender":"1","school":"4","age":"9"},{"start_time":1552073569478,"click_time":1552073570888,"finger_time":1552073570647,"fix_duration":250,"trial":40,"RT":1169,"MT":241,"sideResp":1,"stimulus":[],"xmouse":[787,787,787,787,787,787,787,787,787,787,787,787,787,787,787,787,787,787,787,787,787,787,787,786,786,786,786,786,785,783,782,781,781,781,781,781,781,781,781,781,781,781,781,781,781,781,781,781,781,781,781,781,781,781,781,781,781,767,745,712,676,615,606,587,573,560,532,525,519,515,512],"ymouse":[673,673,673,673,673,673,673,673,673,673,673,673,673,673,673,673,673,673,666,662,657,645,640,637,636,636,636,632,627,622,617,616,616,616,616,616,616,616,616,616,616,616,616,616,616,616,616,616,616,616,616,616,616,616,616,616,616,582,533,455,374,231,212,175,158,146,129,123,118,107,92],"timestamp_mouse":[12,34,49,70,89,109,129,150,168,189,210,229,250,268,288,309,329,348,368,390,409,429,449,470,489,508,529,549,569,589,609,629,650,669,690,709,729,750,769,789,809,829,850,869,889,909,930,949,969,989,1009,1029,1049,1068,1089,1109,1129,1149,1169,1189,1209,1229,1248,1269,1289,1309,1329,1349,1370,1389,1410],"xSR":741.5,"ySR":573.95,"xT1":424.9,"yT1":0,"xT2":1058.1,"yT2":0,"toosoon":0,"cond_shown":"Congruent","ratio_trial":200,"L_num":3,"L_den":10,"R_num":14,"R_den":28,"correct_side":2,"subjID":"isabellamarulandavelez17","gender":"1","school":"4","age":"9"},{"start_time":1552073572960,"click_time":1552073573587,"finger_time":1552073573487,"fix_duration":971.3175154098125,"trial":41,"RT":527,"MT":100,"sideResp":2,"stimulus":[],"xmouse":[791,791,791,791,791,791,791,791,791,791,791,791,791,791,791,791,791,791,791,791,791,791,791,791,791,801,817,861,960,1010,1044,1066],"ymouse":[615,615,615,615,615,615,615,615,615,615,615,615,615,615,615,615,615,615,615,615,615,615,615,615,615,588,554,472,301,218,147,89],"timestamp_mouse":[13,32,47,67,88,107,126,148,167,187,208,227,247,266,287,307,326,347,367,387,408,427,447,468,488,507,527,546,567,588,608,627],"xSR":741.5,"ySR":573.95,"xT1":424.9,"yT1":0,"xT2":1058.1,"yT2":0,"toosoon":0,"cond_shown":"Incongruent","ratio_trial":200,"L_num":11,"L_den":20,"R_num":3,"R_den":4,"correct_side":2,"subjID":"isabellamarulandavelez17","gender":"1","school":"4","age":"9"},{"start_time":1552073576066,"click_time":1552073576788,"finger_time":1552073576586,"fix_duration":1257.60400702386,"trial":42,"RT":520,"MT":202,"sideResp":2,"stimulus":[],"xmouse":[790,790,790,790,790,790,790,790,790,790,790,790,790,790,790,790,790,790,790,790,790,790,790,796,802,806,808,811,847,878,905,928,946,985,1017,1055,1098],"ymouse":[620,620,620,620,620,620,620,620,620,620,620,620,620,620,620,620,620,620,620,620,620,620,617,601,585,574,567,554,460,393,330,289,252,182,135,76,16],"timestamp_mouse":[10,21,41,61,81,102,121,141,161,181,201,221,241,261,281,301,321,341,362,381,401,421,441,461,481,501,520,542,561,581,601,621,641,661,682,702,722],"xSR":741.5,"ySR":573.95,"xT1":424.9,"yT1":0,"xT2":1058.1,"yT2":0,"toosoon":0,"cond_shown":"Incongruent","ratio_trial":300,"L_num":4,"L_den":5,"R_num":6,"R_den":12,"correct_side":1,"subjID":"isabellamarulandavelez17","gender":"1","school":"4","age":"9"},{"start_time":1552073579065,"click_time":1552073580008,"finger_time":1552073579607,"fix_duration":1096.7171399037468,"trial":43,"RT":542,"MT":401,"sideResp":2,"stimulus":[],"xmouse":[781,781,781,781,781,781,781,781,781,781,781,781,781,781,781,781,781,781,781,781,781,781,781,781,783,788,797,850,889,899,902,903,906,912,919,930,948,971,995,995,995,995,995,995,1000,1008,1033,1063],"ymouse":[637,637,637,637,637,637,637,637,637,637,637,637,637,637,637,637,637,637,637,637,637,637,637,637,635,628,607,492,374,316,269,233,179,156,132,107,82,57,36,36,36,36,36,36,36,36,36,34],"timestamp_mouse":[10,22,42,62,82,102,122,142,162,182,202,222,242,262,281,302,322,342,362,382,402,422,442,462,482,503,522,542,562,582,602,622,642,662,682,703,722,742,761,782,803,822,842,863,882,903,923,942],"xSR":741.5,"ySR":573.95,"xT1":424.9,"yT1":0,"xT2":1058.1,"yT2":0,"toosoon":0,"cond_shown":"Congruent","ratio_trial":100,"L_num":12,"L_den":30,"R_num":13,"R_den":26,"correct_side":2,"subjID":"isabellamarulandavelez17","gender":"1","school":"4","age":"9"},{"start_time":1552073581623,"click_time":1552073582387,"finger_time":1552073582028,"fix_duration":514.8767044231134,"trial":44,"RT":405,"MT":359,"sideResp":2,"stimulus":[],"xmouse":[791,791,791,791,791,798,802,804,807,807,807,807,807,807,807,807,811,815,822,833,851,853,856,860,864,885,903,923,942,968,985,991,1000,1002,1015,1024,1042,1058,1072],"ymouse":[630,630,630,630,630,627,625,624,623,623,623,623,623,623,623,623,621,618,611,591,540,528,519,510,499,442,385,322,259,177,115,98,86,83,68,58,47,40,36],"timestamp_mouse":[11,32,44,64,84,103,124,145,164,184,204,225,245,264,284,304,324,344,365,384,405,424,444,465,484,504,524,544,564,584,604,624,645,664,684,703,724,744,764],"xSR":741.5,"ySR":573.95,"xT1":424.9,"yT1":0,"xT2":1058.1,"yT2":0,"toosoon":0,"cond_shown":"Congruent","ratio_trial":200,"L_num":3,"L_den":12,"R_num":9,"R_den":20,"correct_side":2,"subjID":"isabellamarulandavelez17","gender":"1","school":"4","age":"9"},{"start_time":1552073584238,"click_time":1552073584927,"finger_time":1552073584627,"fix_duration":250,"trial":45,"RT":389,"MT":300,"sideResp":2,"stimulus":[],"xmouse":[773,773,773,773,773,773,773,773,773,773,773,773,773,773,773,773,773,776,784,844,865,884,894,902,911,928,952,984,1025,1056,1057,1057,1057,1057,1061],"ymouse":[604,604,604,604,604,604,604,604,604,604,604,604,604,604,604,604,604,602,598,548,513,455,397,312,265,225,195,175,158,140,135,128,121,105,93],"timestamp_mouse":[13,33,49,69,89,109,129,149,169,188,209,228,249,269,289,308,329,349,369,389,409,429,449,469,488,508,529,549,569,589,609,629,650,669,689],"xSR":741.5,"ySR":573.95,"xT1":424.9,"yT1":0,"xT2":1058.1,"yT2":0,"toosoon":0,"cond_shown":"Congruent","ratio_trial":200,"L_num":12,"L_den":20,"R_num":6,"R_den":15,"correct_side":1,"subjID":"isabellamarulandavelez17","gender":"1","school":"4","age":"9"},{"start_time":1552073586734,"click_time":1552073587368,"finger_time":1552073587007,"fix_duration":525.7687593328199,"trial":46,"RT":273,"MT":361,"sideResp":2,"stimulus":[],"xmouse":[754,754,754,754,754,754,754,754,754,754,760,775,795,863,890,904,929,954,976,1002,1002,1002,1004,1004,1009,1011,1012,1012,1012,1015,1030,1063],"ymouse":[642,642,642,642,642,642,642,642,642,642,633,611,579,394,302,244,157,81,20,0,0,0,0,0,0,0,0,0,0,0,3,9],"timestamp_mouse":[12,36,54,73,93,114,133,153,173,193,213,233,254,273,293,313,333,353,374,393,414,433,454,473,494,513,533,553,574,593,614,633],"xSR":741.5,"ySR":573.95,"xT1":424.9,"yT1":0,"xT2":1058.1,"yT2":0,"toosoon":0,"cond_shown":"Congruent","ratio_trial":100,"L_num":4,"L_den":8,"R_num":6,"R_den":10,"correct_side":2,"subjID":"isabellamarulandavelez17","gender":"1","school":"4","age":"9"},{"start_time":1552073591077,"click_time":1552073591567,"finger_time":1552073591507,"fix_duration":669.382464954056,"trial":47,"RT":430,"MT":60,"sideResp":2,"stimulus":[],"xmouse":[789,789,790,790,790,790,790,791,792,793,793,795,796,798,798,798,799,799,804,813,828,907,969,1043,1107],"ymouse":[628,623,619,619,619,619,619,619,619,619,619,620,620,621,621,622,622,622,623,614,589,446,334,188,30],"timestamp_mouse":[10,32,51,70,91,110,130,150,170,190,210,230,250,270,290,310,330,350,370,390,410,430,449,470,490],"xSR":741.5,"ySR":573.95,"xT1":424.9,"yT1":0,"xT2":1058.1,"yT2":0,"toosoon":0,"cond_shown":"Incongruent","ratio_trial":200,"L_num":7,"L_den":10,"R_num":14,"R_den":28,"correct_side":1,"subjID":"isabellamarulandavelez17","gender":"1","school":"4","age":"9"},{"start_time":1552073593200,"click_time":1552073593667,"finger_time":1552073593587,"fix_duration":250,"trial":48,"RT":387,"MT":80,"sideResp":1,"stimulus":[],"xmouse":[794,794,794,794,794,794,794,794,794,794,794,794,794,794,794,794,794,794,784,761,642,590,549,524],"ymouse":[640,640,640,640,640,640,640,640,640,640,640,640,640,640,640,640,640,634,593,525,269,166,77,5],"timestamp_mouse":[19,37,47,66,87,107,127,147,167,186,207,227,246,267,287,307,327,347,368,387,408,427,447,467],"xSR":741.5,"ySR":573.95,"xT1":424.9,"yT1":0,"xT2":1058.1,"yT2":0,"toosoon":0,"cond_shown":"Incongruent","ratio_trial":300,"L_num":4,"L_den":5,"R_num":6,"R_den":12,"correct_side":1,"subjID":"isabellamarulandavelez17","gender":"1","school":"4","age":"9"},{"start_time":1552073595564,"click_time":1552073596027,"finger_time":1552073595967,"fix_duration":856.6605260618468,"trial":49,"RT":403,"MT":60,"sideResp":1,"stimulus":[],"xmouse":[791,791,791,791,791,791,791,791,791,791,791,791,791,791,791,791,791,791,788,773,746,691,628,432],"ymouse":[607,607,607,607,607,607,607,607,607,607,607,607,607,607,607,607,607,607,604,587,546,477,387,83],"timestamp_mouse":[4,33,43,64,83,103,123,143,162,184,203,223,243,262,284,303,323,343,363,383,403,423,443,463],"xSR":741.5,"ySR":573.95,"xT1":424.9,"yT1":0,"xT2":1058.1,"yT2":0,"toosoon":0,"cond_shown":"Incongruent","ratio_trial":300,"L_num":7,"L_den":10,"R_num":8,"R_den":20,"correct_side":1,"subjID":"isabellamarulandavelez17","gender":"1","school":"4","age":"9"},{"start_time":1552073598126,"click_time":1552073599868,"finger_time":1552073599307,"fix_duration":1317.2034266494993,"trial":50,"RT":1181,"MT":561,"sideResp":2,"stimulus":[],"xmouse":[775,775,775,775,775,775,775,775,775,775,775,775,775,775,775,775,775,775,775,775,775,775,775,775,775,775,775,775,775,775,775,775,775,775,775,775,775,775,775,775,775,775,775,775,775,775,775,775,775,775,775,775,775,775,775,775,775,775,776,793,818,848,878,918,1030,1094,1114,1129,1142,1151,1166,1170,1170,1170,1170,1170,1171,1172,1172,1172,1172,1172,1172,1172,1172,1170,1163,1152],"ymouse":[611,611,611,611,611,611,611,611,611,611,611,611,611,611,611,611,611,611,611,611,611,611,611,611,611,611,611,611,611,611,611,611,611,611,611,611,611,611,611,611,611,611,611,611,611,611,611,611,611,611,611,611,611,611,611,611,611,611,610,554,467,362,254,119,0,0,0,0,0,0,0,0,0,0,0,10,16,18,21,21,21,21,21,21,21,24,26,29],"timestamp_mouse":[12,34,41,61,81,101,121,141,161,181,202,222,241,261,281,300,322,341,361,381,400,422,441,461,482,501,521,541,561,581,602,620,640,661,681,702,720,741,761,781,800,822,841,862,881,900,922,942,961,981,1001,1021,1041,1060,1081,1100,1121,1141,1161,1181,1201,1221,1241,1260,1281,1300,1321,1341,1361,1381,1401,1422,1442,1461,1481,1501,1521,1541,1561,1581,1601,1621,1641,1660,1681,1701,1722,1742],"xSR":741.5,"ySR":573.95,"xT1":424.9,"yT1":0,"xT2":1058.1,"yT2":0,"toosoon":0,"cond_shown":"Congruent","ratio_trial":100,"L_num":10,"L_den":25,"R_num":3,"R_den":10,"correct_side":1,"subjID":"isabellamarulandavelez17","gender":"1","school":"4","age":"9"},{"start_time":1552073602347,"click_time":1552073603127,"finger_time":1552073602726,"fix_duration":1439.968143976757,"trial":51,"RT":379,"MT":401,"sideResp":1,"stimulus":[],"xmouse":[792,792,792,792,792,792,792,792,792,792,792,792,792,792,792,792,792,784,764,742,718,707,694,671,646,616,600,595,594,593,593,593,593,593,593,593,592,538,479],"ymouse":[632,632,632,632,632,632,632,632,632,632,632,632,632,632,632,632,632,614,572,526,474,418,292,183,119,63,44,42,42,42,43,43,43,43,43,43,44,54,62],"timestamp_mouse":[20,40,60,80,100,120,140,160,180,201,219,239,260,280,300,319,339,360,379,400,420,440,460,479,500,520,540,560,580,599,619,639,659,679,699,720,739,759,779],"xSR":741.5,"ySR":573.95,"xT1":424.9,"yT1":0,"xT2":1058.1,"yT2":0,"toosoon":0,"cond_shown":"Congruent","ratio_trial":200,"L_num":3,"L_den":12,"R_num":9,"R_den":20,"correct_side":2,"subjID":"isabellamarulandavelez17","gender":"1","school":"4","age":"9"},{"start_time":1552073605708,"click_time":1552073606687,"finger_time":1552073606406,"fix_duration":1339.4678134383473,"trial":52,"RT":698,"MT":281,"sideResp":1,"stimulus":[],"xmouse":[789,789,789,790,792,792,792,792,792,792,792,792,792,792,792,792,792,792,792,792,793,795,795,795,796,798,799,799,799,799,799,799,798,797,776,695,642,614,553,540,538,538,538,538,538,535,520,495,467],"ymouse":[602,602,602,600,598,598,598,598,598,598,598,598,598,598,598,598,598,598,598,598,598,600,606,617,626,641,643,643,643,643,643,643,633,614,472,188,62,14,0,0,0,0,0,0,0,0,0,0,1],"timestamp_mouse":[19,46,59,78,98,118,140,159,180,199,218,238,259,279,299,318,340,359,380,398,418,440,459,479,499,518,540,559,578,599,619,639,658,678,698,719,739,759,779,799,819,839,860,879,899,918,939,960,979],"xSR":741.5,"ySR":573.95,"xT1":424.9,"yT1":0,"xT2":1058.1,"yT2":0,"toosoon":0,"cond_shown":"Incongruent","ratio_trial":100,"L_num":17,"L_den":30,"R_num":10,"R_den":15,"correct_side":2,"subjID":"isabellamarulandavelez17","gender":"1","school":"4","age":"9"},{"start_time":1552073608059,"click_time":1552073609026,"finger_time":1552073608567,"fix_duration":250,"trial":53,"RT":508,"MT":459,"sideResp":1,"stimulus":[],"xmouse":[767,767,767,768,769,769,769,769,769,769,769,769,769,769,769,769,769,769,769,769,769,769,769,769,769,769,759,733,709,693,675,659,649,646,644,641,632,590,554,540,536,536,536,536,534,530,527,521,519],"ymouse":[597,597,597,599,600,601,601,601,601,601,601,601,601,601,601,601,601,601,601,601,601,601,601,600,583,559,521,453,402,375,347,320,302,300,298,296,291,272,258,246,233,223,205,197,185,172,156,113,83],"timestamp_mouse":[13,33,48,68,87,107,128,148,169,189,208,229,248,267,287,307,328,348,368,388,408,427,448,467,488,508,528,548,567,588,607,628,648,667,689,708,727,748,767,788,809,828,848,867,888,908,929,948,967],"xSR":741.5,"ySR":573.95,"xT1":424.9,"yT1":0,"xT2":1058.1,"yT2":0,"toosoon":0,"cond_shown":"Congruent","ratio_trial":300,"L_num":5,"L_den":25,"R_num":6,"R_den":12,"correct_side":2,"subjID":"isabellamarulandavelez17","gender":"1","school":"4","age":"9"},{"start_time":1552073610415,"click_time":1552073611407,"finger_time":1552073611107,"fix_duration":367.94489349068436,"trial":54,"RT":692,"MT":300,"sideResp":2,"stimulus":[],"xmouse":[841,841,841,841,841,841,841,841,841,841,841,841,841,841,841,841,837,830,817,791,781,779,778,776,772,771,771,771,771,771,771,771,771,772,787,806,831,868,919,1021,1059,1066,1066,1066,1066,1066,1066,1066,1067,1067],"ymouse":[602,602,602,602,602,602,602,602,602,602,602,602,602,602,602,602,604,607,613,624,627,627,627,628,628,628,628,628,628,628,628,628,628,612,560,497,410,309,203,24,0,0,0,0,0,0,0,0,0,5],"timestamp_mouse":[17,38,52,72,92,113,132,152,172,192,213,231,251,271,292,311,332,353,372,392,413,432,452,472,492,512,532,551,571,592,612,631,651,671,692,712,731,752,772,792,811,832,852,872,893,912,932,951,971,991],"xSR":741.5,"ySR":573.95,"xT1":424.9,"yT1":0,"xT2":1058.1,"yT2":0,"toosoon":0,"cond_shown":"Incongruent","ratio_trial":200,"L_num":6,"L_den":20,"R_num":3,"R_den":6,"correct_side":2,"subjID":"isabellamarulandavelez17","gender":"1","school":"4","age":"9"},{"start_time":1552073613330,"click_time":1552073614087,"finger_time":1552073613668,"fix_duration":841.7438132309159,"trial":55,"RT":338,"MT":419,"sideResp":2,"stimulus":[],"xmouse":[781,781,781,781,781,781,781,781,781,781,781,781,781,781,781,783,816,865,917,920,926,932,939,957,971,987,997,1005,1009,1009,1009,1010,1011,1016,1023,1030,1052,1086],"ymouse":[637,637,637,637,637,637,637,637,637,637,637,637,637,637,637,633,562,472,322,269,220,187,164,117,85,52,25,8,0,0,0,0,0,0,0,0,2,10],"timestamp_mouse":[17,39,58,77,96,118,137,157,176,196,217,237,257,277,298,316,338,357,377,396,416,437,456,477,497,516,538,558,578,597,617,637,657,677,696,716,737,757],"xSR":741.5,"ySR":573.95,"xT1":424.9,"yT1":0,"xT2":1058.1,"yT2":0,"toosoon":0,"cond_shown":"Incongruent","ratio_trial":100,"L_num":9,"L_den":15,"R_num":14,"R_den":28,"correct_side":1,"subjID":"isabellamarulandavelez17","gender":"1","school":"4","age":"9"},{"start_time":1552073616045,"click_time":1552073617126,"finger_time":1552073616666,"fix_duration":736.5034461151777,"trial":56,"RT":621,"MT":460,"sideResp":1,"stimulus":[],"xmouse":[840,840,840,840,840,840,840,840,840,839,838,838,838,838,838,838,837,837,837,837,837,837,837,837,837,837,832,830,824,803,793,778,762,710,677,636,601,572,556,538,537,533,529,527,528,530,531,531,531,512,490,465,448,440,437],"ymouse":[650,650,650,650,650,650,650,651,651,651,651,650,650,650,650,650,650,650,650,650,650,650,650,650,650,650,647,643,635,610,595,572,547,459,408,355,310,275,254,218,208,198,188,175,169,163,158,153,148,136,129,119,109,103,94],"timestamp_mouse":[12,41,42,62,81,101,121,141,161,182,201,221,242,262,282,301,322,342,362,382,402,422,442,462,481,503,521,543,561,582,601,621,642,662,681,702,722,743,761,782,802,822,842,862,882,903,922,942,962,981,1002,1021,1041,1061,1081],"xSR":741.5,"ySR":573.95,"xT1":424.9,"yT1":0,"xT2":1058.1,"yT2":0,"toosoon":0,"cond_shown":"Congruent","ratio_trial":100,"L_num":6,"L_den":12,"R_num":15,"R_den":25,"correct_side":2,"subjID":"isabellamarulandavelez17","gender":"1","school":"4","age":"9"},{"start_time":1552073619479,"click_time":1552073620647,"finger_time":1552073620207,"fix_duration":331.51956639877,"trial":57,"RT":728,"MT":440,"sideResp":2,"stimulus":[],"xmouse":[789,789,789,789,789,789,789,789,789,789,789,789,789,789,789,789,789,789,789,789,789,789,789,789,789,789,789,789,789,789,789,789,789,789,789,795,813,814,828,841,858,877,926,959,985,1005,1015,1026,1031,1038,1046,1058,1059,1060,1060,1061,1062,1069,1085],"ymouse":[590,590,590,590,590,590,590,590,590,590,590,590,590,590,590,595,599,600,600,600,600,600,600,600,600,600,600,600,600,600,600,600,600,600,600,588,551,548,512,458,393,328,205,147,104,67,44,7,0,0,0,0,0,0,0,0,0,0,5],"timestamp_mouse":[13,27,49,68,88,108,128,147,168,188,208,228,249,268,287,308,328,347,367,387,408,428,447,468,488,508,528,548,568,587,607,628,647,667,687,709,728,747,768,789,808,828,847,867,888,908,928,947,968,987,1007,1029,1047,1067,1087,1107,1128,1147,1168],"xSR":741.5,"ySR":573.95,"xT1":424.9,"yT1":0,"xT2":1058.1,"yT2":0,"toosoon":0,"cond_shown":"Incongruent","ratio_trial":200,"L_num":9,"L_den":15,"R_num":8,"R_den":10,"correct_side":2,"subjID":"isabellamarulandavelez17","gender":"1","school":"4","age":"9"},{"start_time":1552073624921,"click_time":1552073625587,"finger_time":1552073625228,"fix_duration":690.730064990048,"trial":58,"RT":307,"MT":359,"sideResp":1,"stimulus":[],"xmouse":[788,788,788,788,788,788,788,788,788,788,788,788,788,788,785,769,742,711,680,641,626,618,612,605,559,501,477,469,467,468,469,469,469,469],"ymouse":[631,631,631,631,631,631,631,631,631,631,631,631,631,631,610,538,472,411,363,315,304,298,293,287,247,193,171,154,141,122,116,110,101,90],"timestamp_mouse":[12,35,46,65,86,107,126,145,165,186,206,226,245,265,286,307,326,345,366,386,405,425,447,467,486,505,526,547,566,586,605,626,645,666],"xSR":741.5,"ySR":573.95,"xT1":424.9,"yT1":0,"xT2":1058.1,"yT2":0,"toosoon":0,"cond_shown":"Congruent","ratio_trial":300,"L_num":11,"L_den":22,"R_num":1,"R_den":5,"correct_side":1,"subjID":"isabellamarulandavelez17","gender":"1","school":"4","age":"9"},{"start_time":1552073626619,"click_time":1552073627427,"finger_time":1552073627126,"fix_duration":250,"trial":59,"RT":507,"MT":301,"sideResp":1,"stimulus":[],"xmouse":[784,784,784,784,784,784,784,784,784,784,784,784,784,784,784,784,784,784,784,784,784,784,784,784,783,764,736,698,651,611,557,543,529,512,486,484,484,484,487,487,488],"ymouse":[614,614,614,614,614,614,614,614,614,614,614,614,614,614,614,614,614,614,614,614,614,614,614,614,597,538,463,379,304,247,173,154,146,137,122,120,118,115,109,102,81],"timestamp_mouse":[9,34,48,68,88,107,127,147,168,188,208,228,248,267,287,308,327,348,368,388,409,428,447,469,488,507,527,548,568,588,609,628,648,668,688,707,728,748,768,788,808],"xSR":741.5,"ySR":573.95,"xT1":424.9,"yT1":0,"xT2":1058.1,"yT2":0,"toosoon":0,"cond_shown":"Incongruent","ratio_trial":200,"L_num":1,"L_den":2,"R_num":3,"R_den":10,"correct_side":1,"subjID":"isabellamarulandavelez17","gender":"1","school":"4","age":"9"},{"start_time":1552073633179,"click_time":1552073634026,"finger_time":1552073633607,"fix_duration":250,"trial":60,"RT":428,"MT":419,"sideResp":2,"stimulus":[],"xmouse":[787,787,787,787,787,788,788,788,788,788,788,788,788,788,788,788,788,788,788,788,794,848,890,938,987,1012,1110,1140,1169,1185,1196,1209,1209,1209,1209,1208,1202,1198,1193,1188,1179,1169,1154],"ymouse":[631,631,631,626,622,615,610,603,602,602,602,602,602,602,602,602,602,602,602,602,590,462,357,239,105,40,0,0,0,0,0,0,0,0,0,2,43,58,67,73,79,82,85],"timestamp_mouse":[10,28,49,67,88,107,127,147,169,187,208,228,248,268,287,308,327,347,369,387,408,428,447,468,488,508,529,547,567,587,607,628,647,669,688,707,727,747,768,788,808,827,847],"xSR":741.5,"ySR":573.95,"xT1":424.9,"yT1":0,"xT2":1058.1,"yT2":0,"toosoon":0,"cond_shown":"Congruent","ratio_trial":300,"L_num":20,"L_den":25,"R_num":5,"R_den":10,"correct_side":1,"subjID":"isabellamarulandavelez17","gender":"1","school":"4","age":"9"},{"start_time":1552073635758,"click_time":1552073636447,"finger_time":1552073636126,"fix_duration":669.4214003129489,"trial":61,"RT":368,"MT":321,"sideResp":1,"stimulus":[],"xmouse":[784,784,784,784,784,784,784,784,784,784,784,784,784,784,784,784,784,760,683,592,515,453,411,365,361,361,361,361,366,370,371,373,380,411,438],"ymouse":[620,620,620,620,620,620,620,620,620,620,620,620,620,620,620,620,620,585,496,386,275,168,66,0,0,0,0,0,0,0,0,0,0,0,6],"timestamp_mouse":[11,31,49,68,89,109,129,149,168,188,209,229,248,268,288,309,328,349,368,390,409,428,448,470,490,508,528,548,568,589,609,628,650,668,689],"xSR":741.5,"ySR":573.95,"xT1":424.9,"yT1":0,"xT2":1058.1,"yT2":0,"toosoon":0,"cond_shown":"Congruent","ratio_trial":200,"L_num":3,"L_den":12,"R_num":9,"R_den":20,"correct_side":2,"subjID":"isabellamarulandavelez17","gender":"1","school":"4","age":"9"},{"start_time":1552073639193,"click_time":1552073640147,"finger_time":1552073639707,"fix_duration":285.3385548518437,"trial":62,"RT":514,"MT":440,"sideResp":2,"stimulus":[],"xmouse":[796,796,796,796,796,796,796,796,796,796,796,796,796,796,796,796,796,796,796,796,796,796,796,801,807,821,823,823,840,867,1016,1083,1133,1165,1181,1192,1192,1192,1192,1192,1195,1208,1208,1208,1208,1201,1155,1128],"ymouse":[617,617,617,617,617,617,617,617,617,617,617,617,617,617,617,617,617,617,617,617,617,617,617,604,578,469,376,260,104,0,0,0,0,0,0,0,0,0,10,34,66,119,121,121,121,122,101,90],"timestamp_mouse":[17,38,55,74,94,114,133,153,174,194,214,234,254,274,293,313,334,353,375,394,414,435,453,473,494,514,533,553,574,594,616,633,654,673,694,716,733,753,773,794,814,834,853,875,895,914,933,954],"xSR":741.5,"ySR":573.95,"xT1":424.9,"yT1":0,"xT2":1058.1,"yT2":0,"toosoon":0,"cond_shown":"Congruent","ratio_trial":100,"L_num":10,"L_den":25,"R_num":3,"R_den":10,"correct_side":1,"subjID":"isabellamarulandavelez17","gender":"1","school":"4","age":"9"},{"start_time":1552073642321,"click_time":1552073643067,"finger_time":1552073642507,"fix_duration":1152.4328163558814,"trial":63,"RT":186,"MT":560,"sideResp":1,"stimulus":[],"xmouse":[781,781,781,781,781,781,781,780,777,758,739,715,691,662,590,556,541,500,484,480,480,480,480,480,480,480,480,480,480,480,480,480,480,480,480,480,480,480],"ymouse":[627,627,627,627,627,627,627,626,622,558,495,414,327,255,104,40,14,0,0,0,0,0,0,0,0,0,0,0,0,0,0,0,0,0,0,0,0,1],"timestamp_mouse":[12,33,45,65,85,106,127,147,166,186,205,225,246,265,286,305,327,347,365,385,405,425,446,467,485,506,525,546,566,585,606,626,645,665,686,705,725,746],"xSR":741.5,"ySR":573.95,"xT1":424.9,"yT1":0,"xT2":1058.1,"yT2":0,"toosoon":0,"cond_shown":"Incongruent","ratio_trial":200,"L_num":3,"L_den":4,"R_num":11,"R_den":20,"correct_side":1,"subjID":"isabellamarulandavelez17","gender":"1","school":"4","age":"9"},{"start_time":1552073645262,"click_time":1552073645807,"finger_time":1552073645706,"fix_duration":1313.6336944386087,"trial":64,"RT":444,"MT":101,"sideResp":2,"stimulus":[],"xmouse":[784,784,784,784,784,784,784,784,784,784,784,784,784,784,784,784,784,784,784,784,784,801,875,952,1022,1076,1108,1124],"ymouse":[634,634,634,634,634,634,634,634,634,634,634,634,634,634,634,634,634,634,634,634,634,613,503,394,291,210,147,94],"timestamp_mouse":[14,26,46,65,84,104,125,145,165,184,204,225,245,264,286,304,324,344,364,384,404,424,444,464,484,504,525,545],"xSR":741.5,"ySR":573.95,"xT1":424.9,"yT1":0,"xT2":1058.1,"yT2":0,"toosoon":0,"cond_shown":"Congruent","ratio_trial":200,"L_num":1,"L_den":2,"R_num":21,"R_den":30,"correct_side":2,"subjID":"isabellamarulandavelez17","gender":"1","school":"4","age":"9"},{"start_time":1552073649091,"click_time":1552073651687,"finger_time":1552073649607,"fix_duration":702.9894333439896,"trial":65,"RT":516,"MT":2080,"sideResp":1,"stimulus":[],"xmouse":[785,785,785,785,785,785,785,785,785,785,785,785,785,785,785,785,785,785,785,785,785,785,785,785,785,777,768,764,759,755,754,754,754,752,750,746,738,738,738,738,741,741,741,741,741,741,743,746,749,752,760,767,772,774,776,778,778,778,778,778,778,778,778,778,778,778,778,778,778,778,778,778,778,778,778,778,778,778,778,778,778,778,778,778,778,778,778,778,778,778,778,778,778,778,778,778,778,778,778,778,778,778,778,778,778,778,778,778,778,778,778,778,778,778,765,696,586,522,473,439,421,415,415,416,416,416,418,419,421,428],"ymouse":[632,632,632,632,632,632,632,632,632,632,632,632,632,632,632,632,632,632,632,632,632,632,632,632,626,545,483,432,393,372,363,363,363,370,394,425,538,579,615,646,669,669,669,669,669,669,667,662,655,650,633,624,617,612,607,602,602,602,602,602,602,602,602,607,609,612,615,615,615,615,615,615,615,615,615,615,615,615,615,615,615,615,615,615,615,615,615,615,615,615,615,615,615,615,615,615,615,615,615,615,615,615,615,615,615,615,615,615,615,615,615,615,615,615,602,538,420,325,237,154,96,39,32,28,27,26,18,15,10,4],"timestamp_mouse":[16,36,57,76,96,116,135,157,176,196,216,235,255,275,296,316,336,356,375,396,416,435,457,475,495,516,535,556,575,595,616,635,657,676,696,715,735,756,776,795,817,835,856,877,896,915,935,955,976,995,1017,1035,1056,1075,1096,1116,1136,1155,1176,1196,1216,1235,1256,1275,1296,1316,1335,1355,1375,1396,1416,1435,1455,1476,1496,1516,1536,1555,1576,1596,1616,1637,1655,1675,1695,1716,1736,1757,1777,1797,1816,1835,1856,1875,1896,1916,1935,1957,1976,1996,2016,2036,2056,2075,2096,2116,2137,2156,2175,2195,2216,2236,2255,2275,2296,2316,2335,2356,2376,2396,2415,2435,2456,2475,2495,2516,2535,2556,2577,2596],"xSR":741.5,"ySR":573.95,"xT1":424.9,"yT1":0,"xT2":1058.1,"yT2":0,"toosoon":0,"cond_shown":"Congruent","ratio_trial":300,"L_num":7,"L_den":14,"R_num":20,"R_den":25,"correct_side":2,"subjID":"isabellamarulandavelez17","gender":"1","school":"4","age":"9"},{"start_time":1552073653122,"click_time":1552073654107,"finger_time":1552073653726,"fix_duration":474.94962445448465,"trial":66,"RT":604,"MT":381,"sideResp":2,"stimulus":[],"xmouse":[793,793,793,793,792,792,792,792,792,792,792,792,792,792,792,792,792,792,792,792,792,792,792,792,792,792,792,792,791,802,814,840,870,914,997,1034,1045,1050,1054,1057,1059,1059,1060,1060,1060,1060,1061,1063,1067,1073],"ymouse":[626,626,626,626,625,625,625,625,625,625,625,625,625,625,625,625,625,625,625,625,625,625,625,625,625,625,625,625,622,595,570,527,476,409,260,196,175,164,158,150,145,140,135,133,125,119,114,109,102,92],"timestamp_mouse":[13,35,45,66,85,105,125,144,164,184,206,225,245,264,284,306,325,345,365,385,406,425,445,464,485,505,524,544,564,585,604,624,644,664,685,705,725,745,765,784,804,826,845,865,884,905,925,945,965,985],"xSR":741.5,"ySR":573.95,"xT1":424.9,"yT1":0,"xT2":1058.1,"yT2":0,"toosoon":0,"cond_shown":"Incongruent","ratio_trial":200,"L_num":1,"L_den":3,"R_num":2,"R_den":15,"correct_side":1,"subjID":"isabellamarulandavelez17","gender":"1","school":"4","age":"9"},{"start_time":1552073656168,"click_time":1552073657607,"finger_time":1552073656786,"fix_duration":1120.0133444444477,"trial":67,"RT":618,"MT":821,"sideResp":1,"stimulus":[],"xmouse":[767,767,767,767,767,767,767,767,767,767,767,767,767,767,767,767,767,767,767,767,767,767,767,767,767,767,767,768,768,768,768,761,744,730,706,683,663,638,630,627,626,625,624,624,624,619,595,481,405,345,325,325,325,324,324,328,345,356,366,374,379,386,396,400,400,400,400,400,400,403,409,425],"ymouse":[620,620,620,620,620,620,620,620,620,620,620,620,620,620,620,620,620,620,620,620,620,620,620,620,620,620,620,620,606,593,570,517,457,403,341,287,239,182,164,150,142,134,133,133,133,133,129,100,76,58,52,52,52,51,48,45,39,36,33,32,31,31,31,31,31,31,31,31,31,31,31,31],"timestamp_mouse":[19,40,58,78,99,119,138,159,179,200,219,240,259,279,299,319,339,359,379,398,419,439,459,480,499,518,539,558,578,599,618,638,659,679,699,718,738,758,780,798,819,839,859,878,899,918,939,958,978,999,1020,1039,1059,1078,1100,1119,1139,1158,1178,1199,1219,1239,1258,1279,1299,1319,1338,1358,1378,1398,1418,1439],"xSR":741.5,"ySR":573.95,"xT1":424.9,"yT1":0,"xT2":1058.1,"yT2":0,"toosoon":0,"cond_shown":"Incongruent","ratio_trial":100,"L_num":3,"L_den":5,"R_num":8,"R_den":16,"correct_side":1,"subjID":"isabellamarulandavelez17","gender":"1","school":"4","age":"9"},{"start_time":1552073660072,"click_time":1552073660887,"finger_time":1552073660766,"fix_duration":1302.3662905410565,"trial":68,"RT":694,"MT":121,"sideResp":1,"stimulus":[],"xmouse":[754,754,754,754,754,754,754,754,754,754,754,754,754,754,754,754,754,754,754,754,754,754,754,754,754,754,754,754,754,754,754,754,754,754,717,692,591,475,451,442,439],"ymouse":[626,626,626,626,626,626,626,626,626,626,626,626,626,626,626,626,626,626,626,626,626,626,626,626,626,626,626,626,626,626,626,626,626,626,580,540,396,193,142,111,95],"timestamp_mouse":[14,34,54,76,95,115,135,155,175,195,215,235,254,276,295,315,335,355,376,395,415,435,455,474,495,515,535,555,575,595,614,636,655,675,694,715,734,754,775,796,815],"xSR":741.5,"ySR":573.95,"xT1":424.9,"yT1":0,"xT2":1058.1,"yT2":0,"toosoon":0,"cond_shown":"Incongruent","ratio_trial":100,"L_num":6,"L_den":10,"R_num":13,"R_den":26,"correct_side":1,"subjID":"isabellamarulandavelez17","gender":"1","school":"4","age":"9"},{"start_time":1552073664776,"click_time":1552073666047,"finger_time":1552073665587,"fix_duration":1248.251784550127,"trial":69,"RT":811,"MT":460,"sideResp":1,"stimulus":[],"xmouse":[807,807,807,807,807,807,807,807,807,807,807,807,807,807,793,780,774,770,770,770,770,770,770,770,770,770,770,770,770,770,770,770,770,770,770,770,770,770,766,760,744,689,631,598,579,559,532,532,532,533,533,526,519,515,512,509,503,497,489,479,470,459,452,453],"ymouse":[625,625,625,625,625,625,625,625,625,625,625,625,625,626,620,615,611,609,609,609,609,609,609,609,609,609,609,609,609,609,609,609,609,609,609,609,609,609,604,593,566,499,441,407,386,364,322,314,305,294,282,255,244,238,234,226,210,200,193,182,166,149,105,89],"timestamp_mouse":[21,31,50,71,91,111,131,151,171,191,211,231,251,271,290,311,331,351,371,391,412,431,452,471,490,511,531,551,571,591,611,631,651,672,691,711,731,751,771,790,811,831,852,871,891,911,931,951,971,991,1011,1031,1051,1071,1091,1111,1131,1151,1172,1191,1211,1231,1251,1271],"xSR":741.5,"ySR":573.95,"xT1":424.9,"yT1":0,"xT2":1058.1,"yT2":0,"toosoon":0,"cond_shown":"Congruent","ratio_trial":300,"L_num":8,"L_den":16,"R_num":1,"R_den":5,"correct_side":1,"subjID":"isabellamarulandavelez17","gender":"1","school":"4","age":"9"},{"start_time":1552073670200,"click_time":1552073671047,"finger_time":1552073670667,"fix_duration":752.7677949131737,"trial":70,"RT":467,"MT":380,"sideResp":2,"stimulus":[],"xmouse":[780,780,780,780,780,780,780,780,780,780,780,780,779,779,779,779,779,779,779,779,779,782,791,805,826,868,881,901,921,953,981,1002,1002,1003,1004,1011,1014,1021,1030,1045,1054,1069,1073],"ymouse":[635,635,635,635,635,635,635,635,635,635,635,635,634,634,634,634,634,634,634,634,634,621,596,563,510,348,264,188,125,48,0,0,0,0,0,0,0,0,0,0,0,0,2],"timestamp_mouse":[8,27,47,67,86,107,127,148,168,187,207,227,247,266,288,307,327,347,367,387,407,426,447,467,488,507,527,547,567,586,607,626,646,666,687,708,726,746,767,787,807,827,847],"xSR":741.5,"ySR":573.95,"xT1":424.9,"yT1":0,"xT2":1058.1,"yT2":0,"toosoon":0,"cond_shown":"Congruent","ratio_trial":200,"L_num":3,"L_den":10,"R_num":7,"R_den":14,"correct_side":2,"subjID":"isabellamarulandavelez17","gender":"1","school":"4","age":"9"},{"start_time":1552073674753,"click_time":1552073676967,"finger_time":1552073676007,"fix_duration":1344.4339616871491,"trial":71,"RT":1254,"MT":960,"sideResp":2,"stimulus":[],"xmouse":[799,799,799,799,799,799,799,799,799,799,799,799,799,799,800,801,802,803,803,803,803,803,803,803,803,803,803,803,803,803,803,803,803,803,803,803,803,803,803,803,803,803,803,803,803,803,803,803,803,803,803,803,803,803,803,803,803,803,803,802,803,814,831,842,857,874,900,920,937,937,937,937,937,938,941,945,947,956,996,1022,1050,1085,1172,1213,1255,1274,1281,1284,1283,1278,1269,1257,1221,1207,1196,1190,1190,1190,1190,1190,1190,1190,1190,1186,1182,1173,1168,1162,1161,1159,1157],"ymouse":[638,638,638,638,638,638,638,638,638,638,638,638,638,640,641,642,642,642,642,642,642,642,642,642,642,642,642,642,642,642,642,642,642,642,642,642,642,642,642,642,642,642,642,642,642,642,642,642,642,642,643,643,643,643,643,643,643,643,643,638,631,607,554,515,459,399,327,288,259,259,259,259,259,258,255,252,249,243,219,203,187,166,78,16,0,0,0,0,5,12,25,43,80,90,97,101,101,101,101,101,98,98,85,79,75,73,72,72,72,72,72],"timestamp_mouse":[15,33,54,73,95,114,134,154,175,193,214,234,254,274,293,313,334,354,374,394,414,434,454,475,493,514,534,554,575,595,613,635,654,674,694,715,734,754,773,794,814,834,854,873,895,914,934,954,974,994,1014,1034,1054,1075,1093,1114,1134,1154,1174,1194,1214,1234,1254,1273,1293,1314,1334,1354,1374,1394,1414,1434,1455,1474,1494,1513,1534,1554,1574,1593,1614,1633,1654,1674,1693,1713,1734,1755,1773,1794,1813,1833,1854,1874,1894,1914,1934,1955,1974,1994,2013,2034,2055,2074,2094,2114,2133,2154,2173,2194,2214],"xSR":741.5,"ySR":573.95,"xT1":424.9,"yT1":0,"xT2":1058.1,"yT2":0,"toosoon":0,"cond_shown":"Incongruent","ratio_trial":200,"L_num":7,"L_den":15,"R_num":4,"R_den":6,"correct_side":2,"subjID":"isabellamarulandavelez17","gender":"1","school":"4","age":"9"},{"start_time":1552073678071,"click_time":1552073678827,"finger_time":1552073678407,"fix_duration":263.73643041534933,"trial":72,"RT":336,"MT":420,"sideResp":2,"stimulus":[],"xmouse":[788,788,788,788,788,788,788,788,788,788,788,788,788,788,790,792,818,830,852,898,953,1015,1040,1056,1065,1069,1073,1074,1074,1075,1075,1076,1076,1076,1076,1077,1078,1080],"ymouse":[609,609,609,609,609,609,609,609,609,609,609,609,609,609,605,596,428,328,249,179,114,38,4,0,0,0,0,0,0,0,0,0,0,0,0,0,0,1],"timestamp_mouse":[20,37,57,75,96,116,136,157,176,197,216,236,257,276,295,317,336,356,376,396,416,436,456,477,496,515,537,555,577,596,616,637,656,676,696,716,737,756],"xSR":741.5,"ySR":573.95,"xT1":424.9,"yT1":0,"xT2":1058.1,"yT2":0,"toosoon":0,"cond_shown":"Congruent","ratio_trial":100,"L_num":3,"L_den":6,"R_num":2,"R_den":5,"correct_side":1,"subjID":"isabellamarulandavelez17","gender":"1","school":"4","age":"9"},{"start_time":1552073680562,"click_time":1552073681368,"finger_time":1552073680966,"fix_duration":853.8219363805749,"trial":73,"RT":404,"MT":402,"sideResp":2,"stimulus":[],"xmouse":[808,808,808,808,808,808,808,808,808,808,808,808,808,808,808,808,808,808,808,819,860,932,1151,1192,1203,1202,1199,1197,1197,1197,1197,1195,1190,1174,1164,1150,1140,1137,1137,1137,1139],"ymouse":[636,636,636,636,636,636,636,636,636,636,636,636,636,636,636,636,636,636,636,626,597,557,390,320,275,247,227,198,190,184,179,173,166,147,136,122,112,105,103,101,96],"timestamp_mouse":[11,31,45,64,86,105,126,146,165,185,204,225,245,266,285,305,325,345,364,384,404,425,445,464,485,506,525,545,565,585,604,625,645,666,685,706,725,745,764,784,805],"xSR":741.5,"ySR":573.95,"xT1":424.9,"yT1":0,"xT2":1058.1,"yT2":0,"toosoon":0,"cond_shown":"Incongruent","ratio_trial":300,"L_num":4,"L_den":20,"R_num":2,"R_den":4,"correct_side":2,"subjID":"isabellamarulandavelez17","gender":"1","school":"4","age":"9"},{"start_time":1552073686698,"click_time":1552073687688,"finger_time":1552073687267,"fix_duration":488.48201445165387,"trial":74,"RT":569,"MT":421,"sideResp":2,"stimulus":[],"xmouse":[794,794,794,794,794,795,795,795,795,795,795,795,795,796,796,796,796,796,796,796,796,795,795,795,795,795,795,798,814,832,863,879,896,922,942,974,987,1004,1018,1027,1038,1040,1040,1042,1046,1047,1051,1057,1067,1080],"ymouse":[596,596,596,596,596,595,596,597,598,598,599,599,599,600,600,600,600,600,601,602,604,608,608,608,608,608,608,600,565,525,442,409,378,342,312,263,243,219,204,191,181,179,178,177,169,166,157,144,123,93],"timestamp_mouse":[13,33,49,69,90,109,130,149,170,188,209,229,249,269,289,309,329,350,368,389,409,430,450,468,490,509,529,549,569,589,609,629,650,669,689,709,728,749,769,789,809,829,849,869,889,909,929,949,969,990],"xSR":741.5,"ySR":573.95,"xT1":424.9,"yT1":0,"xT2":1058.1,"yT2":0,"toosoon":0,"cond_shown":"Congruent","ratio_trial":100,"L_num":2,"L_den":5,"R_num":11,"R_den":22,"correct_side":2,"subjID":"isabellamarulandavelez17","gender":"1","school":"4","age":"9"},{"start_time":1552073692359,"click_time":1552073694527,"finger_time":1552073692827,"fix_duration":291.7640303237896,"trial":75,"RT":468,"MT":1700,"sideResp":1,"stimulus":[],"xmouse":[765,765,765,765,765,765,765,765,765,765,765,765,765,765,765,765,765,765,765,766,765,758,752,714,699,691,689,689,682,673,660,650,650,647,643,643,643,643,641,641,641,641,641,641,641,641,641,641,641,641,641,641,641,641,641,641,641,641,641,641,641,641,641,641,641,641,641,641,641,641,641,641,641,641,641,641,643,638,620,586,553,521,484,446,428,403,373,285,261,253,252,252,262,271,280,285,292,311,368,387,393,394,394,394,394,394,395,409,437],"ymouse":[617,617,617,617,617,617,617,617,617,617,617,617,617,617,617,617,617,617,617,616,612,600,585,555,542,535,530,522,489,469,442,425,425,419,415,415,414,414,401,401,401,401,401,401,401,401,401,401,401,401,401,401,401,401,401,401,401,401,401,401,401,401,401,401,401,401,401,401,401,401,401,401,401,401,401,396,382,278,206,123,50,0,0,0,0,0,0,0,0,0,3,8,27,31,32,32,32,30,21,16,12,12,11,10,10,10,10,11,20],"timestamp_mouse":[10,34,48,69,89,108,128,148,168,189,208,228,248,268,289,308,328,348,368,388,408,428,449,468,488,507,528,548,567,589,608,628,648,669,688,708,728,748,768,788,807,828,848,868,888,908,928,948,969,988,1008,1028,1048,1069,1089,1109,1128,1148,1167,1187,1207,1228,1248,1269,1288,1308,1328,1348,1368,1388,1408,1429,1448,1468,1488,1509,1527,1548,1567,1589,1608,1628,1649,1669,1687,1707,1728,1751,1767,1788,1807,1828,1851,1867,1887,1908,1928,1948,1968,1988,2008,2028,2048,2068,2088,2108,2127,2149,2167],"xSR":741.5,"ySR":573.95,"xT1":424.9,"yT1":0,"xT2":1058.1,"yT2":0,"toosoon":0,"cond_shown":"Congruent","ratio_trial":200,"L_num":9,"L_den":30,"R_num":13,"R_den":26,"correct_side":2,"subjID":"isabellamarulandavelez17","gender":"1","school":"4","age":"9"},{"start_time":1552073696627,"click_time":1552073697527,"finger_time":1552073696987,"fix_duration":798.0731013801972,"trial":76,"RT":360,"MT":540,"sideResp":2,"stimulus":[],"xmouse":[794,794,794,794,794,794,794,794,794,794,794,794,794,794,794,794,799,808,855,870,937,955,974,1006,1096,1145,1199,1247,1286,1312,1312,1312,1312,1308,1304,1293,1289,1285,1281,1278,1268,1261,1254,1240,1190,1137],"ymouse":[657,657,657,657,657,657,657,657,657,657,657,657,657,657,657,657,641,627,542,508,326,261,201,135,0,0,0,0,0,0,0,0,0,10,23,42,48,52,55,57,57,57,57,51,30,10],"timestamp_mouse":[9,33,41,60,80,100,120,140,160,180,200,221,240,260,280,301,321,340,360,379,400,420,440,460,481,500,520,540,560,581,599,620,640,660,680,701,720,740,759,781,799,820,839,859,880,900],"xSR":741.5,"ySR":573.95,"xT1":424.9,"yT1":0,"xT2":1058.1,"yT2":0,"toosoon":0,"cond_shown":"Incongruent","ratio_trial":200,"L_num":1,"L_den":2,"R_num":3,"R_den":10,"correct_side":1,"subjID":"isabellamarulandavelez17","gender":"1","school":"4","age":"9"},{"start_time":1552073699423,"click_time":1552073700129,"finger_time":1552073699886,"fix_duration":1174.8047667770622,"trial":77,"RT":463,"MT":243,"sideResp":1,"stimulus":[],"xmouse":[794,794,794,794,794,794,794,794,794,794,794,794,794,794,794,794,794,794,794,794,794,789,786,783,761,736,692,638,596,551,538,535,534,533,531,522],"ymouse":[626,626,626,626,626,626,626,626,626,626,626,626,626,626,626,626,626,626,626,626,626,604,581,549,434,360,280,208,158,101,79,70,66,63,55,45],"timestamp_mouse":[14,34,44,64,84,104,124,144,164,184,205,224,245,263,283,304,324,344,364,384,405,423,445,463,484,504,524,543,564,584,604,624,645,664,684,705],"xSR":741.5,"ySR":573.95,"xT1":424.9,"yT1":0,"xT2":1058.1,"yT2":0,"toosoon":0,"cond_shown":"Congruent","ratio_trial":300,"L_num":8,"L_den":15,"R_num":10,"R_den":12,"correct_side":2,"subjID":"isabellamarulandavelez17","gender":"1","school":"4","age":"9"},{"start_time":1552073702544,"click_time":1552073703426,"finger_time":1552073703107,"fix_duration":1296.1972860023382,"trial":78,"RT":563,"MT":319,"sideResp":1,"stimulus":[],"xmouse":[811,811,811,811,811,811,811,811,811,811,811,811,811,811,811,811,811,811,811,811,811,811,811,811,811,811,811,811,768,734,699,659,623,539,528,497,483,470,459,450,450,450,450,450,454],"ymouse":[646,646,646,646,646,646,646,646,646,646,646,646,646,646,646,646,646,646,646,646,646,646,646,646,646,646,646,646,564,483,393,288,205,42,23,0,0,0,0,0,0,0,0,0,6],"timestamp_mouse":[19,27,43,63,82,104,123,144,163,182,202,223,243,263,283,303,323,343,364,382,403,423,443,463,482,503,523,543,563,583,604,623,644,663,684,703,723,743,763,783,803,823,843,862,882],"xSR":741.5,"ySR":573.95,"xT1":424.9,"yT1":0,"xT2":1058.1,"yT2":0,"toosoon":0,"cond_shown":"Congruent","ratio_trial":300,"L_num":3,"L_den":6,"R_num":4,"R_den":5,"correct_side":2,"subjID":"isabellamarulandavelez17","gender":"1","school":"4","age":"9"},{"start_time":1552073705858,"click_time":1552073706787,"finger_time":1552073706307,"fix_duration":1209.3559846893224,"trial":79,"RT":449,"MT":480,"sideResp":2,"stimulus":[],"xmouse":[810,810,810,810,810,810,810,810,810,810,810,810,810,810,810,810,810,810,810,810,810,813,843,860,875,889,897,926,966,997,1027,1039,1041,1041,1041,1041,1041,1041,1041,1041,1041,1041,1041,1041,1043,1052,1078],"ymouse":[625,625,625,625,625,625,625,625,625,625,625,625,625,625,625,625,625,625,625,625,624,620,572,541,515,494,472,400,304,204,104,30,0,0,0,0,0,0,0,0,0,0,0,0,0,5,15],"timestamp_mouse":[11,30,49,69,88,109,129,149,169,188,209,229,249,268,289,309,329,349,369,389,408,430,449,468,490,509,529,549,568,589,609,629,651,669,690,708,729,750,768,789,809,829,849,869,889,909,929],"xSR":741.5,"ySR":573.95,"xT1":424.9,"yT1":0,"xT2":1058.1,"yT2":0,"toosoon":0,"cond_shown":"Incongruent","ratio_trial":300,"L_num