[{"start_time":1552313454698,"click_time":1552313457637,"finger_time":1552313456958,"fix_duration":1477.7126382171925,"trial":0,"RT":2260,"MT":679,"sideResp":2,"stimulus":"img/500/randomdotsizeEA/R/14_Ratio_500_L_5_R_10.png","xmouse":[795,795,795,795,795,795,795,795,795,795,795,795,795,795,795,795,795,795,795,795,795,795,795,795,795,795,795,795,795,795,795,795,795,795,795,795,795,795,795,795,795,795,795,795,795,795,795,795,795,795,795,795,795,795,795,795,795,795,795,795,795,795,795,795,795,795,795,795,795,795,795,795,795,795,795,795,795,795,795,795,795,795,795,795,795,795,795,795,795,795,795,795,795,795,795,795,795,795,795,795,795,795,795,795,795,795,795,795,795,795,795,795,795,868,967,1092,1206,1226,1241,1259,1269,1275,1287,1321,1353,1369,1380,1369,1362,1352,1343,1316,1297,1272,1235,1235,1209,1208,1205,1201,1189,1182,1177,1175,1173,1170,1163,1132],"ymouse":[534,534,534,534,534,534,534,534,534,534,534,534,534,534,534,534,534,534,534,534,534,534,534,534,534,534,534,534,534,534,534,534,534,534,534,534,534,534,534,534,534,534,534,534,534,534,534,534,534,534,534,534,534,534,534,534,534,534,534,534,534,534,534,534,534,534,534,534,534,534,534,534,534,534,534,534,534,534,534,534,534,534,534,534,534,534,534,534,534,534,534,534,534,534,534,534,534,534,534,534,534,534,534,534,534,534,534,534,534,534,534,534,534,541,555,563,577,577,570,556,535,516,491,437,372,317,204,136,112,90,72,36,19,8,0,0,3,5,18,29,51,57,60,60,60,60,60,59],"timestamp_mouse":[8,27,39,58,79,98,120,140,159,180,199,219,240,259,280,299,319,339,360,379,399,418,440,459,478,500,519,539,559,578,599,619,640,659,680,700,719,739,758,779,800,820,839,858,880,899,919,938,959,980,999,1019,1040,1060,1079,1100,1120,1140,1159,1178,1199,1219,1239,1260,1278,1298,1320,1339,1360,1379,1398,1419,1438,1458,1480,1499,1520,1540,1559,1579,1599,1619,1640,1659,1680,1699,1718,1739,1759,1779,1800,1819,1839,1859,1879,1900,1919,1940,1959,1980,1999,2018,2040,2060,2080,2098,2118,2140,2160,2179,2200,2219,2239,2260,2278,2299,2318,2339,2359,2380,2400,2419,2438,2458,2478,2499,2519,2539,2560,2578,2599,2620,2639,2659,2679,2699,2719,2739,2760,2779,2801,2819,2838,2860,2878,2899,2918,2938],"xSR":741.5,"ySR":469.95,"xT1":424.9,"yT1":0,"xT2":1058.1,"yT2":0,"toosoon":0,"cond_shown":"randomdotsizeEA","ratio_trial":500,"smaller_num":"5","larger_num":"10","correct_side":2,"subjID":"isabellaramos25","gender":"1","age":"9","school":"4","test":{"fix_dur":[250,1500],"timestim":300,"targets_dim":[100,100],"targets_relative_coord":[0.3,0.7],"size_stim":[880,420],"start_dim":[100,100],"size_start":[300,300],"size_fix":60,"samplingrate":20,"img_types":["equaldotsize","equaldotanddens","randomdotsizeEA"],"ratios":[250,500,750,900],"rep_conds":9,"nTrials":120,"trials_to_rest":500,"Trials_order":[29,12,75,69,25,59,57,58,39,11,93,47,50,84,34,35,112,32,109,73,22,107,44,67,65,78,1,38,103,51,24,72,104,101,79,100,0,97,90,62,15,68,95,28,70,49,80,23,85,60,13,81,43,9,19,3,21,111,118,2,63,116,64,5,36,46,113,83,56,14,87,55,37,18,74,16,88,53,4,96,48,31,76,119,82,40,105,71,106,77,115,66,99,7,86,94,92,26,98,10,33,102,110,17,91,108,52,61,27,20,114,54,41,45,8,6,42,30,117,89],"cond_shown":["randomdotsizeEA","equaldotsize","equaldotsize","equaldotsize","equaldotanddens","randomdotsizeEA","equaldotsize","equaldotanddens","equaldotsize","randomdotsizeEA","equaldotsize","randomdotsizeEA","randomdotsizeEA","equaldotsize","equaldotanddens","randomdotsizeEA","equaldotanddens","randomdotsizeEA","equaldotanddens","equaldotanddens","equaldotanddens","randomdotsizeEA","randomdotsizeEA","equaldotanddens","randomdotsizeEA","equaldotsize","equaldotanddens","randomdotsizeEA","equaldotanddens","equaldotsize","equaldotsize","equaldotsize","randomdotsizeEA","randomdotsizeEA","equaldotanddens","equaldotanddens","equaldotsize","equaldotanddens","equaldotsize","randomdotsizeEA","equaldotsize","randomdotsizeEA","randomdotsizeEA","equaldotanddens","equaldotanddens","equaldotanddens","randomdotsizeEA","randomdotsizeEA","equaldotanddens","equaldotsize","equaldotanddens","equaldotsize","equaldotanddens","equaldotsize","equaldotanddens","equaldotsize","equaldotsize","equaldotsize","equaldotanddens","randomdotsizeEA","equaldotsize","randomdotsizeEA","equaldotanddens","randomdotsizeEA","equaldotsize","equaldotanddens","randomdotsizeEA","randomdotsizeEA","randomdotsizeEA","randomdotsizeEA","equaldotsize","equaldotanddens","equaldotanddens","equaldotsize","randomdotsizeEA","equaldotanddens","equaldotanddens","randomdotsizeEA","equaldotanddens","equaldotsize","equaldotsize","equaldotanddens","equaldotanddens","randomdotsizeEA","equaldotanddens","equaldotanddens","equaldotsize","randomdotsizeEA","equaldotanddens","randomdotsizeEA","equaldotanddens","equaldotsize","equaldotsize","equaldotanddens","randomdotsizeEA","equaldotanddens","randomdotsizeEA","randomdotsizeEA","randomdotsizeEA","equaldotanddens","equaldotsize","equaldotsize","randomdotsizeEA","randomdotsizeEA","equaldotanddens","equaldotsize","equaldotanddens","equaldotanddens","equaldotsize","randomdotsizeEA","equaldotsize","equaldotsize","randomdotsizeEA","equaldotsize","randomdotsizeEA","equaldotsize","equaldotsize","equaldotsize","equaldotsize","randomdotsizeEA"],"ratio_trial":[500,250,500,900,250,900,900,900,500,900,900,900,250,250,900,900,500,750,250,250,900,900,750,750,500,750,250,250,750,500,250,250,750,500,750,500,250,250,750,250,500,750,900,500,900,250,750,900,250,250,250,900,750,900,750,500,900,500,900,250,500,750,500,500,250,900,500,900,750,250,500,750,250,750,250,500,500,500,500,250,250,750,500,900,900,500,900,900,900,500,750,750,500,750,250,900,750,250,250,900,900,750,250,500,750,250,500,250,500,750,750,750,500,900,750,750,750,750,900,500],"smaller_num":["5","3","9","9","4","18","18","18","9","18","9","9","2","4","9","18","2","3","2","1","18","9","3","15","5","3","3","3","18","10","3","3","15","2","3","4","6","6","3","2","6","3","18","1","9","4","3","9","5","3","2","9","15","18","6","5","9","9","9","6","6","6","9","5","3","18","5","18","15","3","6","18","2","15","2","1","2","2","1","2","6","6","10","18","18","1","9","18","18","5","3","3","1","3","2","9","6","4","2","18","18","3","4","1","3","2","2","6","6","6","18","3","9","18","6","6","3","3","18","5"],"larger_num":["10","12","18","10","16","20","20","20","18","20","10","10","8","16","10","20","4","4","8","4","20","10","4","20","10","4","12","12","24","20","12","12","20","4","4","8","24","24","4","8","12","4","20","2","10","16","4","10","20","12","8","10","20","20","8","10","10","18","10","24","12","8","18","10","12","20","10","20","20","12","12","24","8","20","8","2","4","4","2","8","24","8","20","20","20","2","10","20","20","10","4","4","2","4","8","10","8","16","8","20","20","4","16","2","4","8","4","24","12","8","24","4","18","20","8","8","4","4","20","10"],"correct_side":[2,1,1,2,1,1,2,1,1,2,1,2,1,1,1,2,2,1,1,2,1,2,1,1,1,1,2,2,1,2,1,2,2,2,2,1,2,2,1,2,1,1,1,2,1,2,1,2,2,2,1,1,2,1,1,1,2,1,2,1,1,1,2,1,2,1,1,2,2,2,1,1,1,2,1,2,1,1,2,2,2,1,2,1,2,2,1,2,2,1,1,2,2,1,1,2,1,2,2,1,1,1,1,2,2,1,1,1,1,2,1,1,2,2,2,2,1,1,2,1],"img_shown":["img/500/randomdotsizeEA/R/14_Ratio_500_L_5_R_10.png","img/250/equaldotsize/L/15_Ratio_250_L_12_R_3.png","img/500/equaldotsize/L/4_Ratio_500_L_18_R_9.png","img/900/equaldotsize/R/7_Ratio_900_L_9_R_10.png","img/250/equaldotanddens/L/2_Ratio_250_L_16_R_4.png","img/900/randomdotsizeEA/L/10_Ratio_900_L_20_R_18.png","img/900/equaldotsize/R/14_Ratio_900_L_18_R_20.png","img/900/equaldotanddens/L/4_Ratio_900_L_20_R_18.png","img/500/equaldotsize/L/4_Ratio_500_L_18_R_9.png","img/900/randomdotsizeEA/R/13_Ratio_900_L_18_R_20.png","img/900/equaldotsize/L/1_Ratio_900_L_10_R_9.png","img/900/randomdotsizeEA/R/5_Ratio_900_L_9_R_10.png","img/250/randomdotsizeEA/L/1_Ratio_250_L_8_R_2.png","img/250/equaldotsize/L/2_Ratio_250_L_16_R_4.png","img/900/equaldotanddens/L/1_Ratio_900_L_10_R_9.png","img/900/randomdotsizeEA/R/13_Ratio_900_L_18_R_20.png","img/500/equaldotanddens/R/9_Ratio_500_L_2_R_4.png","img/750/randomdotsizeEA/L/10_Ratio_750_L_4_R_3.png","img/250/equaldotanddens/L/1_Ratio_250_L_8_R_2.png","img/250/equaldotanddens/R/8_Ratio_250_L_1_R_4.png","img/900/equaldotanddens/L/2_Ratio_900_L_20_R_18.png","img/900/randomdotsizeEA/R/5_Ratio_900_L_9_R_10.png","img/750/randomdotsizeEA/L/8_Ratio_750_L_4_R_3.png","img/750/equaldotanddens/L/1_Ratio_750_L_20_R_15.png","img/500/randomdotsizeEA/L/7_Ratio_500_L_10_R_5.png","img/750/equaldotsize/L/9_Ratio_750_L_4_R_3.png","img/250/equaldotanddens/R/11_Ratio_250_L_3_R_12.png","img/250/randomdotsizeEA/R/4_Ratio_250_L_3_R_12.png","img/750/equaldotanddens/L/6_Ratio_750_L_24_R_18.png","img/500/equaldotsize/R/3_Ratio_500_L_10_R_20.png","img/250/equaldotsize/L/14_Ratio_250_L_12_R_3.png","img/250/equaldotsize/R/9_Ratio_250_L_3_R_12.png","img/750/randomdotsizeEA/R/4_Ratio_750_L_15_R_20.png","img/500/randomdotsizeEA/R/9_Ratio_500_L_2_R_4.png","img/750/equaldotanddens/R/12_Ratio_750_L_3_R_4.png","img/500/equaldotanddens/L/8_Ratio_500_L_8_R_4.png","img/250/equaldotsize/R/6_Ratio_250_L_6_R_24.png","img/250/equaldotanddens/R/6_Ratio_250_L_6_R_24.png","img/750/equaldotsize/L/8_Ratio_750_L_4_R_3.png","img/250/randomdotsizeEA/R/13_Ratio_250_L_2_R_8.png","img/500/equaldotsize/L/13_Ratio_500_L_12_R_6.png","img/750/randomdotsizeEA/L/8_Ratio_750_L_4_R_3.png","img/900/randomdotsizeEA/L/4_Ratio_900_L_20_R_18.png","img/500/equaldotanddens/R/15_Ratio_500_L_1_R_2.png","img/900/equaldotanddens/L/1_Ratio_900_L_10_R_9.png","img/250/equaldotanddens/R/10_Ratio_250_L_4_R_16.png","img/750/randomdotsizeEA/L/8_Ratio_750_L_4_R_3.png","img/900/randomdotsizeEA/R/15_Ratio_900_L_9_R_10.png","img/250/equaldotanddens/R/12_Ratio_250_L_5_R_20.png","img/250/equaldotsize/R/11_Ratio_250_L_3_R_12.png","img/250/equaldotanddens/L/7_Ratio_250_L_8_R_2.png","img/900/equaldotsize/L/1_Ratio_900_L_10_R_9.png","img/750/equaldotanddens/R/4_Ratio_750_L_15_R_20.png","img/900/equaldotsize/L/2_Ratio_900_L_20_R_18.png","img/750/equaldotanddens/L/13_Ratio_750_L_8_R_6.png","img/500/equaldotsize/L/7_Ratio_500_L_10_R_5.png","img/900/equaldotsize/R/7_Ratio_900_L_9_R_10.png","img/500/equaldotsize/L/4_Ratio_500_L_18_R_9.png","img/900/equaldotanddens/R/7_Ratio_900_L_9_R_10.png","img/250/randomdotsizeEA/L/5_Ratio_250_L_24_R_6.png","img/500/equaldotsize/L/11_Ratio_500_L_12_R_6.png","img/750/randomdotsizeEA/L/13_Ratio_750_L_8_R_6.png","img/500/equaldotanddens/R/1_Ratio_500_L_9_R_18.png","img/500/randomdotsizeEA/L/7_Ratio_500_L_10_R_5.png","img/250/equaldotsize/R/4_Ratio_250_L_3_R_12.png","img/900/equaldotanddens/L/4_Ratio_900_L_20_R_18.png","img/500/randomdotsizeEA/L/7_Ratio_500_L_10_R_5.png","img/900/randomdotsizeEA/R/9_Ratio_900_L_18_R_20.png","img/750/randomdotsizeEA/R/3_Ratio_750_L_15_R_20.png","img/250/randomdotsizeEA/R/9_Ratio_250_L_3_R_12.png","img/500/equaldotsize/L/13_Ratio_500_L_12_R_6.png","img/750/equaldotanddens/L/6_Ratio_750_L_24_R_18.png","img/250/equaldotanddens/L/1_Ratio_250_L_8_R_2.png","img/750/equaldotsize/R/3_Ratio_750_L_15_R_20.png","img/250/randomdotsizeEA/L/7_Ratio_250_L_8_R_2.png","img/500/equaldotanddens/R/15_Ratio_500_L_1_R_2.png","img/500/equaldotanddens/L/5_Ratio_500_L_4_R_2.png","img/500/randomdotsizeEA/L/5_Ratio_500_L_4_R_2.png","img/500/equaldotanddens/R/15_Ratio_500_L_1_R_2.png","img/250/equaldotsize/R/13_Ratio_250_L_2_R_8.png","img/250/equaldotsize/R/6_Ratio_250_L_6_R_24.png","img/750/equaldotanddens/L/13_Ratio_750_L_8_R_6.png","img/500/equaldotanddens/R/3_Ratio_500_L_10_R_20.png","img/900/randomdotsizeEA/L/10_Ratio_900_L_20_R_18.png","img/900/equaldotanddens/R/14_Ratio_900_L_18_R_20.png","img/500/equaldotanddens/R/15_Ratio_500_L_1_R_2.png","img/900/equaldotsize/L/1_Ratio_900_L_10_R_9.png","img/900/randomdotsizeEA/R/13_Ratio_900_L_18_R_20.png","img/900/equaldotanddens/R/11_Ratio_900_L_18_R_20.png","img/500/randomdotsizeEA/L/7_Ratio_500_L_10_R_5.png","img/750/equaldotanddens/L/10_Ratio_750_L_4_R_3.png","img/750/equaldotsize/R/7_Ratio_750_L_3_R_4.png","img/500/equaldotsize/R/15_Ratio_500_L_1_R_2.png","img/750/equaldotanddens/L/8_Ratio_750_L_4_R_3.png","img/250/randomdotsizeEA/L/3_Ratio_250_L_8_R_2.png","img/900/equaldotanddens/R/6_Ratio_900_L_9_R_10.png","img/750/randomdotsizeEA/L/13_Ratio_750_L_8_R_6.png","img/250/randomdotsizeEA/R/10_Ratio_250_L_4_R_16.png","img/250/randomdotsizeEA/R/13_Ratio_250_L_2_R_8.png","img/900/equaldotanddens/L/8_Ratio_900_L_20_R_18.png","img/900/equaldotsize/L/8_Ratio_900_L_20_R_18.png","img/750/equaldotsize/L/10_Ratio_750_L_4_R_3.png","img/250/randomdotsizeEA/L/2_Ratio_250_L_16_R_4.png","img/500/randomdotsizeEA/R/15_Ratio_500_L_1_R_2.png","img/750/equaldotanddens/R/7_Ratio_750_L_3_R_4.png","img/250/equaldotsize/L/3_Ratio_250_L_8_R_2.png","img/500/equaldotanddens/L/5_Ratio_500_L_4_R_2.png","img/250/equaldotanddens/L/5_Ratio_250_L_24_R_6.png","img/500/equaldotsize/L/11_Ratio_500_L_12_R_6.png","img/750/randomdotsizeEA/R/2_Ratio_750_L_6_R_8.png","img/750/equaldotsize/L/6_Ratio_750_L_24_R_18.png","img/750/equaldotsize/L/8_Ratio_750_L_4_R_3.png","img/500/randomdotsizeEA/R/6_Ratio_500_L_9_R_18.png","img/900/equaldotsize/R/13_Ratio_900_L_18_R_20.png","img/750/randomdotsizeEA/R/2_Ratio_750_L_6_R_8.png","img/750/equaldotsize/R/2_Ratio_750_L_6_R_8.png","img/750/equaldotsize/L/9_Ratio_750_L_4_R_3.png","img/750/equaldotsize/L/10_Ratio_750_L_4_R_3.png","img/900/equaldotsize/R/9_Ratio_900_L_18_R_20.png","img/500/randomdotsizeEA/L/7_Ratio_500_L_10_R_5.png"],"Rat0":[["12_Ratio_0_L_9_R_0.png","13_Ratio_0_L_6_R_0.png","5_Ratio_0_L_2_R_0.png","6_Ratio_0_L_4_R_0.png","8_Ratio_0_L_6_R_0.png"],["1_Ratio_0_L_0_R_17.png","10_Ratio_0_L_0_R_22.png","11_Ratio_0_L_0_R_1.png","14_Ratio_0_L_0_R_24.png","15_Ratio_0_L_0_R_4.png","2_Ratio_0_L_0_R_5.png","3_Ratio_0_L_0_R_17.png","4_Ratio_0_L_0_R_7.png","7_Ratio_0_L_0_R_19.png","9_Ratio_0_L_0_R_15.png"]],"Rat250":[["1_Ratio_250_L_8_R_2.png","14_Ratio_250_L_12_R_3.png","15_Ratio_250_L_12_R_3.png","2_Ratio_250_L_16_R_4.png","3_Ratio_250_L_8_R_2.png","5_Ratio_250_L_24_R_6.png","7_Ratio_250_L_8_R_2.png"],["10_Ratio_250_L_4_R_16.png","11_Ratio_250_L_3_R_12.png","12_Ratio_250_L_5_R_20.png","13_Ratio_250_L_2_R_8.png","4_Ratio_250_L_3_R_12.png","6_Ratio_250_L_6_R_24.png","8_Ratio_250_L_1_R_4.png","9_Ratio_250_L_3_R_12.png"]],"Rat500":[["10_Ratio_500_L_4_R_2.png","11_Ratio_500_L_12_R_6.png","13_Ratio_500_L_12_R_6.png","4_Ratio_500_L_18_R_9.png","5_Ratio_500_L_4_R_2.png","7_Ratio_500_L_10_R_5.png","8_Ratio_500_L_8_R_4.png"],["1_Ratio_500_L_9_R_18.png","12_Ratio_500_L_1_R_2.png","14_Ratio_500_L_5_R_10.png","15_Ratio_500_L_1_R_2.png","2_Ratio_500_L_3_R_6.png","3_Ratio_500_L_10_R_20.png","6_Ratio_500_L_9_R_18.png","9_Ratio_500_L_2_R_4.png"]],"Rat750":[["1_Ratio_750_L_20_R_15.png","10_Ratio_750_L_4_R_3.png","13_Ratio_750_L_8_R_6.png","14_Ratio_750_L_8_R_6.png","6_Ratio_750_L_24_R_18.png","8_Ratio_750_L_4_R_3.png","9_Ratio_750_L_4_R_3.png"],["11_Ratio_750_L_12_R_16.png","12_Ratio_750_L_3_R_4.png","15_Ratio_750_L_9_R_12.png","2_Ratio_750_L_6_R_8.png","3_Ratio_750_L_15_R_20.png","4_Ratio_750_L_15_R_20.png","5_Ratio_750_L_15_R_20.png","7_Ratio_750_L_3_R_4.png"]],"Rat900":[["1_Ratio_900_L_10_R_9.png","10_Ratio_900_L_20_R_18.png","2_Ratio_900_L_20_R_18.png","4_Ratio_900_L_20_R_18.png","8_Ratio_900_L_20_R_18.png"],["11_Ratio_900_L_18_R_20.png","12_Ratio_900_L_18_R_20.png","13_Ratio_900_L_18_R_20.png","14_Ratio_900_L_18_R_20.png","15_Ratio_900_L_9_R_10.png","3_Ratio_900_L_9_R_10.png","5_Ratio_900_L_9_R_10.png","6_Ratio_900_L_9_R_10.png","7_Ratio_900_L_9_R_10.png","9_Ratio_900_L_18_R_20.png"]],"Rat1000":[["10_Ratio_1000_L_16_R_16.png","11_Ratio_1000_L_6_R_6.png","12_Ratio_1000_L_14_R_14.png","13_Ratio_1000_L_20_R_20.png","15_Ratio_1000_L_15_R_15.png","2_Ratio_1000_L_17_R_17.png","4_Ratio_1000_L_9_R_9.png","5_Ratio_1000_L_6_R_6.png","6_Ratio_1000_L_19_R_19.png","8_Ratio_1000_L_14_R_14.png","9_Ratio_1000_L_25_R_25.png"],["1_Ratio_1000_L_1_R_1.png","14_Ratio_1000_L_17_R_17.png","3_Ratio_1000_L_17_R_17.png","7_Ratio_1000_L_6_R_6.png"]]}},{"start_time":1552313461158,"click_time":1552313462078,"finger_time":1552313461878,"fix_duration":978.4196653296772,"trial":1,"RT":720,"MT":200,"sideResp":1,"stimulus":"img/250/equaldotsize/L/15_Ratio_250_L_12_R_3.png","xmouse":[786,786,786,786,786,786,786,786,786,786,786,786,786,786,786,786,786,786,786,786,786,786,786,786,786,786,786,786,786,786,786,786,786,782,777,773,768,763,744,726,699,668,630,564,545,531,515],"ymouse":[493,493,493,493,493,493,493,493,493,493,493,493,493,493,493,493,493,493,493,493,493,493,493,493,493,493,493,493,493,493,493,493,494,491,484,477,467,453,401,363,315,266,212,105,70,41,15],"timestamp_mouse":[1,19,39,60,79,100,120,140,160,179,199,220,240,258,280,300,320,339,358,380,400,419,440,460,480,500,520,540,559,579,600,619,639,658,679,699,720,738,759,779,800,820,839,860,879,899,920],"xSR":741.5,"ySR":469.95,"xT1":424.9,"yT1":0,"xT2":1058.1,"yT2":0,"toosoon":0,"cond_shown":"equaldotsize","ratio_trial":250,"smaller_num":"3","larger_num":"12","correct_side":1,"subjID":"isabellaramos25","gender":"1","age":"9","school":"4"},{"start_time":1552313465079,"click_time":1552313466477,"finger_time":1552313465897,"fix_duration":1440.9108146087178,"trial":2,"RT":818,"MT":580,"sideResp":1,"stimulus":"img/500/equaldotsize/L/4_Ratio_500_L_18_R_9.png","xmouse":[782,782,782,782,783,783,783,783,783,783,783,783,783,783,783,783,783,783,783,783,783,783,783,783,783,783,783,783,783,783,783,783,783,783,783,783,784,784,777,768,746,709,597,541,464,440,423,418,417,414,412,411,411,411,411,412,417,429,432,434,434,435,435,435,435,437,441,450,455,456],"ymouse":[514,514,514,514,514,514,514,514,514,514,514,514,514,514,514,514,514,514,514,514,514,514,514,514,514,514,514,514,514,514,514,514,514,514,514,514,514,505,492,473,439,396,309,284,254,243,236,231,225,215,204,189,158,142,136,133,132,129,127,123,119,116,113,113,112,112,110,106,102,98],"timestamp_mouse":[18,37,57,77,98,119,138,159,179,199,218,238,259,279,298,319,339,357,379,399,419,437,458,479,499,519,538,558,579,599,618,639,658,679,698,719,738,759,777,797,818,838,858,877,898,917,938,958,979,997,1018,1039,1058,1078,1097,1117,1138,1158,1178,1199,1219,1239,1259,1278,1299,1319,1338,1357,1378,1398],"xSR":741.5,"ySR":469.95,"xT1":424.9,"yT1":0,"xT2":1058.1,"yT2":0,"toosoon":0,"cond_shown":"equaldotsize","ratio_trial":500,"smaller_num":"9","larger_num":"18","correct_side":1,"subjID":"isabellaramos25","gender":"1","age":"9","school":"4"},{"start_time":1552313467729,"click_time":1552313468777,"finger_time":1552313468496,"fix_duration":250,"trial":3,"RT":767,"MT":281,"sideResp":2,"stimulus":"img/900/equaldotsize/R/7_Ratio_900_L_9_R_10.png","xmouse":[789,789,789,789,789,789,789,789,789,789,789,789,789,789,789,789,789,789,789,789,789,789,789,789,789,789,789,789,789,789,789,789,789,792,793,799,806,816,830,844,879,919,944,966,986,1017,1027,1035,1043,1051,1065,1068,1073],"ymouse":[505,505,505,505,505,505,505,505,505,505,505,505,505,505,505,505,505,505,505,505,505,505,505,505,505,505,505,505,505,505,505,505,505,503,501,495,487,476,459,439,379,330,298,266,236,183,167,152,142,131,109,102,95],"timestamp_mouse":[12,35,49,68,88,108,129,149,169,188,209,228,248,269,287,308,329,349,368,387,409,429,449,468,488,509,529,549,569,588,608,629,648,669,689,708,728,748,767,789,808,828,848,869,888,908,928,947,969,987,1008,1029,1048],"xSR":741.5,"ySR":469.95,"xT1":424.9,"yT1":0,"xT2":1058.1,"yT2":0,"toosoon":0,"cond_shown":"equaldotsize","ratio_trial":900,"smaller_num":"9","larger_num":"10","correct_side":2,"subjID":"isabellaramos25","gender":"1","age":"9","school":"4"},{"start_time":1552313470567,"click_time":1552313471816,"finger_time":1552313471238,"fix_duration":929.6412142741367,"trial":4,"RT":671,"MT":578,"sideResp":1,"stimulus":"img/250/equaldotanddens/L/2_Ratio_250_L_16_R_4.png","xmouse":[785,785,785,785,785,785,785,785,785,785,785,785,784,784,784,784,784,784,784,784,784,784,784,784,784,784,784,784,783,782,780,777,773,746,717,677,640,611,549,530,518,512,508,506,506,506,506,506,507,508,509,509,509,509,508,507,507,507,506,504,499,492,485],"ymouse":[509,509,509,509,509,509,509,509,509,509,509,509,509,509,509,509,509,509,509,509,509,509,509,509,509,509,509,509,509,509,508,504,495,445,406,355,312,275,203,185,176,172,170,170,170,170,168,166,158,152,148,145,142,138,137,136,133,131,122,116,108,100,93],"timestamp_mouse":[11,37,50,70,90,111,130,150,171,190,210,230,256,271,290,310,330,350,370,391,409,431,450,471,489,511,531,551,570,590,609,630,651,671,690,710,729,750,770,789,810,831,849,871,891,910,931,950,970,989,1009,1029,1051,1070,1089,1111,1131,1151,1170,1189,1209,1230,1249],"xSR":741.5,"ySR":469.95,"xT1":424.9,"yT1":0,"xT2":1058.1,"yT2":0,"toosoon":0,"cond_shown":"equaldotanddens","ratio_trial":250,"smaller_num":"4","larger_num":"16","correct_side":1,"subjID":"isabellaramos25","gender":"1","age":"9","school":"4"},{"start_time":1552313472894,"click_time":1552313474997,"finger_time":1552313474138,"fix_duration":296.9803926779716,"trial":5,"RT":1244,"MT":859,"sideResp":2,"stimulus":"img/900/randomdotsizeEA/L/10_Ratio_900_L_20_R_18.png","xmouse":[796,796,796,796,796,796,796,796,796,796,796,796,796,796,796,796,796,796,796,796,796,796,796,796,796,796,796,796,796,796,796,796,796,796,796,796,796,796,796,796,796,796,796,796,796,796,796,796,796,796,796,796,796,796,796,796,796,796,800,802,810,816,837,852,878,903,919,932,942,947,956,965,992,1006,1017,1027,1038,1047,1061,1066,1069,1069,1069,1069,1069,1069,1069,1069,1069,1069,1069,1069,1069,1069,1069,1069,1069,1069,1069,1069,1069,1070,1075,1079,1084,1089],"ymouse":[519,519,519,519,519,519,519,519,519,519,519,519,519,519,519,519,519,519,519,519,519,519,519,519,519,519,519,519,519,519,519,519,519,519,519,519,519,519,519,519,519,519,519,519,519,519,519,519,519,519,519,519,519,519,519,519,519,519,514,511,500,493,464,443,412,386,362,335,300,288,271,258,225,209,195,180,166,157,146,144,143,143,143,143,143,143,143,143,143,143,143,143,143,143,143,143,143,143,143,143,141,139,127,119,108,97],"timestamp_mouse":[11,23,43,63,84,103,123,144,164,183,204,222,244,264,283,302,323,344,363,383,404,423,444,464,483,503,524,544,563,583,603,624,644,664,683,702,724,744,763,784,803,824,843,863,882,903,924,944,964,984,1003,1024,1043,1063,1084,1102,1124,1144,1163,1183,1203,1223,1244,1262,1282,1302,1322,1343,1363,1382,1403,1424,1444,1463,1483,1502,1523,1543,1563,1583,1602,1623,1644,1664,1683,1704,1724,1743,1763,1783,1804,1824,1843,1863,1884,1904,1923,1944,1963,1983,2003,2024,2044,2063,2084,2103],"xSR":741.5,"ySR":469.95,"xT1":424.9,"yT1":0,"xT2":1058.1,"yT2":0,"toosoon":0,"cond_shown":"randomdotsizeEA","ratio_trial":900,"smaller_num":"18","larger_num":"20","correct_side":1,"subjID":"isabellaramos25","gender":"1","age":"9","school":"4"},{"start_time":1552313476221,"click_time":1552313477178,"finger_time":1552313477057,"fix_duration":264.30317837039576,"trial":6,"RT":836,"MT":121,"sideResp":2,"stimulus":"img/900/equaldotsize/R/14_Ratio_900_L_18_R_20.png","xmouse":[777,777,777,777,777,777,777,777,777,777,777,777,777,777,777,777,777,777,777,777,777,777,777,777,777,777,777,777,777,777,777,777,777,777,777,777,777,777,777,785,792,828,881,918,967,1017,1122,1156],"ymouse":[511,511,511,511,511,511,511,511,511,511,511,511,511,511,511,511,511,511,511,511,511,511,511,511,511,511,511,511,511,511,511,511,511,511,511,511,511,511,511,501,493,434,366,317,269,219,107,71],"timestamp_mouse":[16,37,56,77,96,117,136,156,176,196,216,237,255,277,297,316,337,357,376,395,416,437,456,477,497,516,537,557,576,597,617,636,657,676,696,716,736,756,775,795,817,836,857,875,897,916,936,957],"xSR":741.5,"ySR":469.95,"xT1":424.9,"yT1":0,"xT2":1058.1,"yT2":0,"toosoon":0,"cond_shown":"equaldotsize","ratio_trial":900,"smaller_num":"18","larger_num":"20","correct_side":2,"subjID":"isabellaramos25","gender":"1","age":"9","school":"4"},{"start_time":1552313479040,"click_time":1552313480677,"finger_time":1552313480177,"fix_duration":782.4078087229427,"trial":7,"RT":1137,"MT":500,"sideResp":1,"stimulus":"img/900/equaldotanddens/L/4_Ratio_900_L_20_R_18.png","xmouse":[787,787,787,787,787,787,787,787,787,787,787,787,787,787,787,787,787,787,787,787,787,787,787,787,787,787,787,787,787,787,787,787,787,787,787,787,787,787,787,787,787,787,787,787,787,787,787,787,787,787,787,787,787,784,780,771,734,693,638,523,406,381,370,368,368,368,368,368,368,371,384,394,404,414,423,427,427,427,428,429,431,435],"ymouse":[518,518,518,518,518,518,518,518,518,518,518,518,518,518,518,518,518,518,518,518,518,518,518,518,518,518,518,518,518,518,518,518,518,518,518,518,518,518,518,518,518,518,518,518,518,518,518,518,518,518,518,518,518,518,516,504,457,413,358,257,182,163,154,152,152,151,149,144,139,133,120,116,114,112,110,108,108,108,107,106,104,95],"timestamp_mouse":[28,37,57,78,98,117,138,157,178,198,217,237,257,276,298,318,338,358,377,398,418,436,458,476,498,516,536,558,578,598,617,638,657,677,696,717,738,758,777,798,817,836,856,877,898,916,937,956,978,997,1017,1036,1058,1078,1096,1116,1137,1157,1178,1197,1217,1237,1257,1277,1298,1318,1337,1357,1377,1397,1417,1437,1457,1477,1497,1517,1536,1557,1577,1597,1618,1637],"xSR":741.5,"ySR":469.95,"xT1":424.9,"yT1":0,"xT2":1058.1,"yT2":0,"toosoon":0,"cond_shown":"equaldotanddens","ratio_trial":900,"smaller_num":"18","larger_num":"20","correct_side":1,"subjID":"isabellaramos25","gender":"1","age":"9","school":"4"},{"start_time":1552313482188,"click_time":1552313483377,"finger_time":1552313483258,"fix_duration":250,"trial":8,"RT":1070,"MT":119,"sideResp":1,"stimulus":"img/500/equaldotsize/L/4_Ratio_500_L_18_R_9.png","xmouse":[779,779,779,779,779,779,779,779,779,779,779,779,779,779,779,779,779,779,779,779,779,779,779,779,779,779,779,779,779,779,779,779,779,779,779,779,779,779,779,779,779,779,779,779,779,779,779,779,779,779,779,779,778,746,714,671,630,595,564,516],"ymouse":[497,497,497,497,497,497,497,497,497,497,497,497,497,497,497,497,497,497,497,497,497,497,497,497,497,497,497,497,497,497,497,497,497,497,497,497,497,497,497,497,497,497,497,497,497,497,497,497,497,497,497,497,497,460,421,355,284,210,147,70],"timestamp_mouse":[10,31,49,70,89,110,129,150,169,188,210,230,250,269,289,309,330,348,370,390,410,429,449,469,490,509,530,549,570,589,608,630,649,669,689,709,729,748,768,790,808,830,850,869,889,910,930,950,970,989,1010,1029,1049,1070,1088,1110,1130,1150,1169,1188],"xSR":741.5,"ySR":469.95,"xT1":424.9,"yT1":0,"xT2":1058.1,"yT2":0,"toosoon":0,"cond_shown":"equaldotsize","ratio_trial":500,"smaller_num":"9","larger_num":"18","correct_side":1,"subjID":"isabellaramos25","gender":"1","age":"9","school":"4"},{"start_time":1552313486855,"click_time":1552313488076,"finger_time":1552313487758,"fix_duration":895.0868935897796,"trial":9,"RT":903,"MT":318,"sideResp":1,"stimulus":"img/900/randomdotsizeEA/R/13_Ratio_900_L_18_R_20.png","xmouse":[782,782,782,782,782,782,782,782,782,782,782,782,782,782,782,782,782,782,782,782,782,782,782,782,782,782,782,782,782,782,782,782,782,782,782,782,782,782,782,782,782,782,779,778,770,746,719,665,649,634,621,608,589,580,570,552,524,514,502,491,482,467],"ymouse":[502,502,502,502,502,502,502,502,502,502,502,502,502,502,502,502,502,502,502,502,502,502,502,502,502,502,502,502,502,502,502,502,502,502,502,502,502,502,502,502,502,502,502,501,491,461,431,367,342,321,304,290,267,255,244,222,190,174,156,138,119,84],"timestamp_mouse":[9,23,43,62,81,101,122,143,162,181,203,222,242,263,281,301,323,342,363,382,401,423,442,463,482,503,522,541,563,583,602,622,642,663,681,702,723,743,762,781,802,822,842,862,883,903,922,942,962,982,1002,1022,1042,1062,1082,1102,1122,1141,1162,1182,1203,1221],"xSR":741.5,"ySR":469.95,"xT1":424.9,"yT1":0,"xT2":1058.1,"yT2":0,"toosoon":0,"cond_shown":"randomdotsizeEA","ratio_trial":900,"smaller_num":"18","larger_num":"20","correct_side":2,"subjID":"isabellaramos25","gender":"1","age":"9","school":"4"},{"start_time":1552313490471,"click_time":1552313491778,"finger_time":1552313491396,"fix_duration":1493.51161511404,"trial":10,"RT":925,"MT":382,"sideResp":1,"stimulus":"img/900/equaldotsize/L/1_Ratio_900_L_10_R_9.png","xmouse":[792,792,792,792,792,792,792,792,792,792,792,792,792,792,792,792,792,792,792,792,792,792,792,792,792,792,792,792,792,792,792,792,792,792,792,792,792,792,792,792,792,792,792,793,793,793,775,760,737,704,659,589,569,554,551,550,548,546,542,537,532,516,511,510,506,504],"ymouse":[519,519,519,519,519,519,519,519,519,519,519,519,519,519,519,519,519,519,519,519,519,519,519,519,519,519,519,519,519,519,519,519,519,519,519,519,519,519,519,519,519,519,519,513,506,476,371,334,296,258,227,188,178,169,167,166,163,161,158,153,148,135,126,122,112,99],"timestamp_mouse":[5,29,45,67,87,107,126,146,167,186,207,226,246,266,286,307,325,346,367,387,407,427,447,466,487,506,525,545,567,587,606,626,646,666,687,706,725,747,767,787,806,825,847,865,886,906,925,945,965,986,1006,1026,1046,1066,1086,1105,1126,1147,1165,1187,1206,1225,1247,1266,1286,1307],"xSR":741.5,"ySR":469.95,"xT1":424.9,"yT1":0,"xT2":1058.1,"yT2":0,"toosoon":0,"cond_shown":"equaldotsize","ratio_trial":900,"smaller_num":"9","larger_num":"10","correct_side":1,"subjID":"isabellaramos25","gender":"1","age":"9","school":"4"},{"start_time":1552313493938,"click_time":1552313495057,"finger_time":1552313494738,"fix_duration":1038.7342288469833,"trial":11,"RT":800,"MT":319,"sideResp":1,"stimulus":"img/900/randomdotsizeEA/R/5_Ratio_900_L_9_R_10.png","xmouse":[785,785,785,785,785,785,785,785,785,785,785,785,785,785,785,785,785,785,785,785,785,785,785,785,785,785,785,785,785,785,785,785,785,785,785,785,785,785,785,781,773,755,723,641,609,594,583,575,574,573,573,569,563,541,525,511,495],"ymouse":[487,487,487,487,487,487,487,487,487,487,487,487,487,487,487,487,487,487,487,487,487,487,487,487,487,487,487,487,487,487,487,487,487,487,487,487,487,487,487,484,467,435,382,274,234,215,199,192,190,189,185,175,162,131,114,100,83],"timestamp_mouse":[1,19,40,60,80,100,119,139,160,180,200,219,239,260,280,300,318,338,358,379,399,420,439,460,480,500,519,539,559,579,598,620,640,660,679,700,718,739,760,780,800,820,840,859,880,898,920,939,959,979,999,1020,1039,1059,1080,1098,1119],"xSR":741.5,"ySR":469.95,"xT1":424.9,"yT1":0,"xT2":1058.1,"yT2":0,"toosoon":0,"cond_shown":"randomdotsizeEA","ratio_trial":900,"smaller_num":"9","larger_num":"10","correct_side":2,"subjID":"isabellaramos25","gender":"1","age":"9","school":"4"},{"start_time":1552313497228,"click_time":1552313498118,"finger_time":1552313497998,"fix_duration":1270.157860167279,"trial":12,"RT":770,"MT":120,"sideResp":1,"stimulus":"img/250/randomdotsizeEA/L/1_Ratio_250_L_8_R_2.png","xmouse":[799,799,799,799,799,799,799,799,799,799,799,799,799,799,799,799,799,799,799,799,799,799,799,799,799,799,799,799,799,799,799,799,799,799,799,799,797,790,765,701,666,591,565,494,486],"ymouse":[513,513,513,513,513,513,513,513,513,513,513,513,513,513,513,513,513,513,513,513,513,513,513,513,513,513,513,513,513,513,513,513,513,513,513,512,509,495,453,334,282,195,171,103,88],"timestamp_mouse":[10,29,49,69,89,108,129,150,169,191,211,230,250,269,291,311,329,349,369,391,411,431,450,470,489,510,530,551,570,590,611,631,649,670,690,710,731,749,770,789,809,829,850,870,890],"xSR":741.5,"ySR":469.95,"xT1":424.9,"yT1":0,"xT2":1058.1,"yT2":0,"toosoon":0,"cond_shown":"randomdotsizeEA","ratio_trial":250,"smaller_num":"2","larger_num":"8","correct_side":1,"subjID":"isabellaramos25","gender":"1","age":"9","school":"4"},{"start_time":1552313499383,"click_time":1552313500538,"finger_time":1552313500238,"fix_duration":582.022197657889,"trial":13,"RT":855,"MT":300,"sideResp":1,"stimulus":"img/250/equaldotsize/L/2_Ratio_250_L_16_R_4.png","xmouse":[795,795,795,795,795,795,795,795,795,795,795,795,795,795,795,795,795,795,795,795,795,795,795,794,794,793,793,793,793,793,793,793,793,793,793,793,793,793,793,792,790,776,761,746,736,716,702,687,662,633,605,566,550,543,540,538,529,523],"ymouse":[492,492,492,492,492,492,492,492,492,492,492,492,492,492,492,492,492,492,492,492,492,492,492,492,492,492,492,492,492,492,492,492,492,492,492,492,492,492,492,492,491,478,464,438,421,385,361,337,302,270,238,186,158,143,131,120,100,91],"timestamp_mouse":[20,40,56,75,95,115,134,156,174,195,215,234,254,275,294,315,335,355,376,394,414,435,455,474,495,514,536,555,575,596,616,635,655,676,696,715,734,756,776,794,815,835,855,874,895,916,935,956,976,994,1015,1035,1055,1074,1096,1114,1135,1155],"xSR":741.5,"ySR":469.95,"xT1":424.9,"yT1":0,"xT2":1058.1,"yT2":0,"toosoon":0,"cond_shown":"equaldotsize","ratio_trial":250,"smaller_num":"4","larger_num":"16","correct_side":1,"subjID":"isabellaramos25","gender":"1","age":"9","school":"4"},{"start_time":1552313502017,"click_time":1552313503018,"finger_time":1552313502818,"fix_duration":459.7411681154746,"trial":14,"RT":801,"MT":200,"sideResp":1,"stimulus":"img/900/equaldotanddens/L/1_Ratio_900_L_10_R_9.png","xmouse":[796,796,796,796,796,796,796,796,796,796,796,796,796,796,796,796,796,796,796,796,796,796,796,796,796,796,796,796,796,796,796,796,796,796,796,796,796,796,794,789,759,680,606,535,490,461,456,456,456,456,453],"ymouse":[513,513,513,513,513,513,513,513,513,513,513,513,513,513,513,513,513,513,513,513,513,513,513,513,513,513,513,513,513,513,513,513,513,513,513,513,513,513,509,493,431,324,250,198,162,135,122,113,107,101,90],"timestamp_mouse":[8,26,40,60,80,102,122,140,161,180,202,221,241,261,280,301,322,342,361,381,402,422,441,461,482,501,521,540,561,581,602,620,640,662,681,702,722,741,760,780,800,821,841,860,880,900,921,941,962,980,1001],"xSR":741.5,"ySR":469.95,"xT1":424.9,"yT1":0,"xT2":1058.1,"yT2":0,"toosoon":0,"cond_shown":"equaldotanddens","ratio_trial":900,"smaller_num":"9","larger_num":"10","correct_side":1,"subjID":"isabellaramos25","gender":"1","age":"9","school":"4"},{"start_time":1552313505637,"click_time":1552313507238,"finger_time":1552313506958,"fix_duration":1377.4882747399347,"trial":15,"RT":1321,"MT":280,"sideResp":1,"stimulus":"img/900/randomdotsizeEA/R/13_Ratio_900_L_18_R_20.png","xmouse":[778,778,778,778,778,778,778,778,778,778,778,778,778,778,778,778,778,778,778,778,778,778,778,778,778,778,778,778,778,778,778,778,778,778,778,778,778,778,778,778,778,778,778,778,778,778,778,778,778,778,778,778,778,778,778,778,778,778,778,778,778,778,778,779,779,779,766,752,723,661,633,620,613,610,607,604,597,580,564,530,522],"ymouse":[531,531,531,531,531,531,531,531,531,531,531,531,531,531,531,531,531,531,531,531,531,531,531,531,531,531,531,531,531,531,531,531,531,531,531,531,531,531,531,531,531,531,531,531,531,531,531,531,531,531,531,531,531,531,531,531,531,531,531,531,531,531,531,530,519,492,451,409,333,212,176,157,149,145,144,141,135,119,105,78,71],"timestamp_mouse":[8,27,41,61,81,102,121,141,162,181,202,220,242,262,281,301,320,340,361,381,401,421,440,462,481,501,521,541,561,581,601,621,640,662,681,701,720,741,762,781,801,821,840,862,881,901,921,942,962,981,1000,1020,1040,1062,1081,1102,1121,1141,1162,1181,1201,1220,1240,1260,1282,1302,1321,1342,1361,1382,1401,1420,1440,1461,1481,1501,1522,1540,1561,1581,1601],"xSR":741.5,"ySR":469.95,"xT1":424.9,"yT1":0,"xT2":1058.1,"yT2":0,"toosoon":0,"cond_shown":"randomdotsizeEA","ratio_trial":900,"smaller_num":"18","larger_num":"20","correct_side":2,"subjID":"isabellaramos25","gender":"1","age":"9","school":"4"},{"start_time":1552313508969,"click_time":1552313511137,"finger_time":1552313510577,"fix_duration":809.3405099988476,"trial":16,"RT":1608,"MT":560,"sideResp":2,"stimulus":"img/500/equaldotanddens/R/9_Ratio_500_L_2_R_4.png","xmouse":[796,796,796,796,796,796,796,796,794,791,784,782,782,782,782,782,784,788,797,798,798,798,798,798,798,798,798,798,798,798,798,798,798,798,798,800,800,800,800,800,800,800,800,800,800,800,800,800,800,800,800,800,800,800,800,800,799,798,794,794,794,793,792,788,786,784,784,784,781,776,773,771,771,771,771,771,771,771,776,790,811,833,854,883,896,907,914,924,971,1065,1142,1213,1213,1213,1213,1213,1213,1213,1213,1213,1213,1213,1213,1213,1213,1180,1170,1164,1155],"ymouse":[509,509,509,509,509,509,509,509,509,509,509,509,509,509,509,509,509,509,509,509,509,509,509,509,509,509,509,509,509,509,509,509,509,507,503,500,499,499,499,499,499,499,499,499,499,499,499,499,499,499,499,499,499,499,499,499,499,498,498,498,498,498,498,498,498,498,498,498,498,498,498,499,499,499,499,499,499,499,495,482,467,449,430,400,391,382,376,368,319,205,117,4,4,4,4,4,4,4,4,4,4,4,4,4,4,16,34,48,65],"timestamp_mouse":[10,28,49,69,89,110,128,149,168,189,208,230,250,268,289,309,328,348,368,390,410,428,449,469,489,509,529,550,570,589,608,628,649,670,690,708,729,750,768,788,810,830,850,870,890,908,929,948,969,989,1009,1028,1050,1069,1090,1110,1128,1148,1170,1189,1208,1228,1249,1270,1290,1308,1329,1350,1368,1389,1408,1428,1450,1470,1489,1508,1530,1550,1568,1589,1608,1629,1650,1669,1689,1708,1730,1749,1769,1789,1809,1829,1848,1869,1889,1909,1930,1949,1969,1988,2009,2029,2050,2068,2088,2108,2129,2149,2168],"xSR":741.5,"ySR":469.95,"xT1":424.9,"yT1":0,"xT2":1058.1,"yT2":0,"toosoon":0,"cond_shown":"equaldotanddens","ratio_trial":500,"smaller_num":"2","larger_num":"4","correct_side":2,"subjID":"isabellaramos25","gender":"1","age":"9","school":"4"},{"start_time":1552313512770,"click_time":1552313514778,"finger_time":1552313514417,"fix_duration":772.1940076399391,"trial":17,"RT":1647,"MT":361,"sideResp":1,"stimulus":"img/750/randomdotsizeEA/L/10_Ratio_750_L_4_R_3.png","xmouse":[784,784,784,784,784,784,784,784,784,784,784,784,784,784,784,784,784,784,784,784,784,784,784,784,784,784,784,784,784,784,784,784,784,784,784,784,784,784,784,784,784,784,784,784,784,784,784,784,784,784,784,784,784,784,784,784,784,784,784,784,784,784,784,784,784,784,784,784,784,784,784,784,784,784,784,784,784,784,784,784,784,783,776,739,707,671,626,615,588,583,577,568,555,526,513,505,498,491,482,480,477],"ymouse":[489,489,489,489,489,489,489,489,489,489,489,489,489,489,489,489,489,489,489,489,489,489,489,489,489,489,489,489,489,489,489,489,489,489,489,489,489,489,489,489,489,489,489,489,489,489,489,489,489,489,489,489,489,489,489,489,489,489,489,489,489,489,489,489,489,489,489,489,489,489,489,489,489,489,489,489,489,489,489,489,488,481,454,366,320,285,254,249,236,233,231,227,221,206,197,187,174,159,116,103,93],"timestamp_mouse":[9,35,48,67,88,108,129,149,169,188,208,228,249,269,288,308,329,348,368,389,407,428,449,467,487,508,528,548,567,589,608,628,648,667,687,709,728,748,769,788,809,827,848,867,889,908,928,948,967,987,1008,1027,1047,1068,1089,1108,1127,1147,1168,1187,1209,1228,1248,1268,1287,1307,1329,1349,1367,1389,1407,1429,1448,1468,1487,1508,1527,1548,1568,1588,1607,1629,1647,1667,1688,1709,1729,1749,1768,1789,1807,1827,1847,1867,1888,1907,1927,1948,1967,1987,2007],"xSR":741.5,"ySR":469.95,"xT1":424.9,"yT1":0,"xT2":1058.1,"yT2":0,"toosoon":0,"cond_shown":"randomdotsizeEA","ratio_trial":750,"smaller_num":"3","larger_num":"4","correct_side":1,"subjID":"isabellaramos25","gender":"1","age":"9","school":"4"},{"start_time":1552313520247,"click_time":1552313521718,"finger_time":1552313521157,"fix_duration":885.7300234322281,"trial":18,"RT":910,"MT":561,"sideResp":1,"stimulus":"img/250/equaldotanddens/L/1_Ratio_250_L_8_R_2.png","xmouse":[791,791,791,791,791,791,791,791,791,791,791,791,791,791,791,791,791,791,791,791,791,791,791,791,791,791,791,791,791,791,791,791,791,791,789,781,773,766,765,765,765,765,763,763,758,736,721,693,662,623,555,511,495,482,472,462,459,459,458,458,458,458,458,461,464,467,467,467,467,467,467,467,468,468],"ymouse":[509,509,509,509,509,509,509,509,509,509,509,509,509,509,509,509,509,509,509,509,509,509,509,509,509,509,509,509,509,509,509,509,509,509,509,497,490,483,482,482,482,482,481,480,471,432,406,363,314,269,192,158,145,134,125,115,111,108,106,105,105,105,104,104,104,104,104,104,104,104,104,104,100,90],"timestamp_mouse":[11,36,51,70,91,110,130,152,172,190,210,230,250,272,291,311,331,350,371,391,412,431,452,471,491,512,531,552,571,591,612,631,650,671,691,710,730,750,770,791,812,831,850,871,890,910,930,951,970,992,1011,1031,1051,1071,1091,1110,1131,1151,1171,1190,1211,1230,1252,1271,1292,1310,1330,1351,1371,1391,1411,1431,1450,1470],"xSR":741.5,"ySR":469.95,"xT1":424.9,"yT1":0,"xT2":1058.1,"yT2":0,"toosoon":0,"cond_shown":"equaldotanddens","ratio_trial":250,"smaller_num":"2","larger_num":"8","correct_side":1,"subjID":"isabellaramos25","gender":"1","age":"9","school":"4"},{"start_time":1552313525556,"click_time":1552313526898,"finger_time":1552313526477,"fix_duration":916.0810516148671,"trial":19,"RT":921,"MT":421,"sideResp":2,"stimulus":"img/250/equaldotanddens/R/8_Ratio_250_L_1_R_4.png","xmouse":[787,787,787,787,787,787,787,787,787,787,787,787,787,787,787,787,787,787,787,787,787,787,787,787,787,787,787,787,787,787,787,787,787,787,787,787,787,787,787,787,787,790,800,815,826,839,866,881,896,912,926,953,972,981,988,995,1009,1016,1026,1033,1040,1055,1058,1065,1070,1076,1087,1092],"ymouse":[513,513,513,513,513,513,513,513,513,513,513,513,513,513,513,513,513,513,513,513,513,513,513,513,513,513,513,513,513,513,513,513,513,513,513,513,513,513,513,513,513,513,510,506,500,494,475,461,443,423,401,357,328,312,300,288,265,253,239,226,212,183,177,160,149,135,109,97],"timestamp_mouse":[17,42,43,63,82,102,122,143,163,182,203,221,241,262,282,303,322,341,362,382,401,423,441,462,482,503,522,542,562,581,602,623,643,661,681,702,722,742,763,782,803,821,841,863,883,902,921,941,963,981,1002,1022,1043,1062,1083,1103,1121,1141,1163,1182,1202,1222,1241,1261,1281,1302,1322,1342],"xSR":741.5,"ySR":469.95,"xT1":424.9,"yT1":0,"xT2":1058.1,"yT2":0,"toosoon":0,"cond_shown":"equaldotanddens","ratio_trial":250,"smaller_num":"1","larger_num":"4","correct_side":2,"subjID":"isabellaramos25","gender":"1","age":"9","school":"4"},{"start_time":1552313528142,"click_time":1552313529758,"finger_time":1552313529159,"fix_duration":302.04582354347673,"trial":20,"RT":1017,"MT":599,"sideResp":1,"stimulus":"img/900/equaldotanddens/L/2_Ratio_900_L_20_R_18.png","xmouse":[785,782,782,782,781,781,781,781,781,781,781,781,781,781,781,781,781,781,781,781,781,781,781,781,781,781,781,781,781,781,781,781,781,781,781,781,781,781,781,781,781,781,781,781,781,781,781,781,779,774,723,616,593,570,554,542,534,533,533,533,533,533,534,535,536,538,540,540,540,540,540,536,527,518,515,513,509,505,495,485,475],"ymouse":[512,512,512,512,512,512,512,512,512,512,512,512,512,512,512,512,512,512,512,512,512,512,512,512,512,512,512,512,512,512,512,512,512,512,512,512,512,512,512,512,512,512,512,512,512,512,512,512,500,484,406,332,310,298,286,278,264,255,243,228,215,184,164,153,143,136,122,117,113,111,109,108,108,107,106,106,106,105,102,100,98],"timestamp_mouse":[16,45,56,76,96,115,137,155,177,197,216,237,256,277,295,317,337,357,376,396,416,437,455,475,497,516,537,556,577,596,617,635,656,677,696,717,737,757,775,797,817,836,855,877,897,917,936,956,977,997,1017,1037,1056,1075,1095,1115,1135,1156,1176,1197,1215,1235,1255,1276,1297,1316,1336,1357,1376,1396,1416,1436,1456,1476,1495,1516,1536,1556,1577,1597,1616],"xSR":741.5,"ySR":469.95,"xT1":424.9,"yT1":0,"xT2":1058.1,"yT2":0,"toosoon":0,"cond_shown":"equaldotanddens","ratio_trial":900,"smaller_num":"18","larger_num":"20","correct_side":1,"subjID":"isabellaramos25","gender":"1","age":"9","school":"4"},{"start_time":1552313531573,"click_time":1552313533078,"finger_time":1552313532678,"fix_duration":614.6605214074528,"trial":21,"RT":1105,"MT":400,"sideResp":1,"stimulus":"img/900/randomdotsizeEA/R/5_Ratio_900_L_9_R_10.png","xmouse":[798,798,798,798,798,798,798,798,798,798,798,798,798,798,798,798,798,798,798,798,798,798,798,798,798,798,798,798,798,798,798,798,798,798,798,798,798,798,798,798,798,798,798,798,798,798,798,798,798,798,798,796,796,795,793,791,787,784,776,771,752,745,740,733,724,715,686,671,652,623,592,579,568,558,548,522],"ymouse":[515,515,515,515,515,515,515,515,515,515,515,515,515,515,515,515,515,515,515,515,515,515,515,515,515,515,515,515,515,515,515,515,515,515,515,515,515,515,515,515,515,515,515,515,515,515,515,515,515,515,515,512,508,502,493,464,448,429,401,391,355,346,338,328,316,301,264,246,223,190,154,139,127,117,108,91],"timestamp_mouse":[10,32,46,66,84,104,126,146,165,184,205,224,245,264,284,305,326,346,365,386,405,425,446,464,484,505,524,544,564,585,604,624,645,664,686,704,726,744,764,785,805,825,845,866,886,904,926,944,966,985,1005,1025,1044,1065,1086,1105,1125,1144,1164,1185,1205,1225,1244,1264,1285,1304,1324,1344,1364,1384,1405,1424,1444,1465,1486,1505],"xSR":741.5,"ySR":469.95,"xT1":424.9,"yT1":0,"xT2":1058.1,"yT2":0,"toosoon":0,"cond_shown":"randomdotsizeEA","ratio_trial":900,"smaller_num":"9","larger_num":"10","correct_side":2,"subjID":"isabellaramos25","gender":"1","age":"9","school":"4"},{"start_time":1552313534068,"click_time":1552313536697,"finger_time":1552313535657,"fix_duration":250,"trial":22,"RT":1589,"MT":1040,"sideResp":1,"stimulus":"img/750/randomdotsizeEA/L/8_Ratio_750_L_4_R_3.png","xmouse":[793,793,793,793,793,791,790,790,790,790,790,790,790,790,790,790,790,790,790,790,790,790,790,790,790,790,790,790,790,790,790,790,790,790,790,790,790,790,790,790,790,790,790,790,790,790,788,786,784,782,781,781,781,781,781,781,781,781,781,781,780,779,779,779,779,779,779,779,779,779,779,779,779,779,779,779,779,782,791,803,836,860,867,889,905,924,971,1001,1026,1045,1058,1065,1065,1065,1065,1065,1067,1068,1069,1069,1069,1068,1059,1053,1047,1039,1012,992,959,905,844,725,640,582,542,511,480,467,454,438,423,407,403,401,401,404,416,422,430,434,438,447],"ymouse":[496,496,496,496,497,497,497,497,497,497,497,497,497,497,497,497,497,497,497,497,497,497,497,497,497,497,497,497,497,497,497,497,497,497,497,497,497,497,497,497,497,497,497,497,497,497,497,497,497,497,497,498,498,498,498,498,498,498,498,498,498,498,499,500,501,501,501,501,501,501,501,501,501,501,501,501,501,496,484,469,427,393,378,341,320,295,250,230,212,198,188,181,181,181,181,180,173,171,168,165,163,160,159,158,158,158,168,176,183,189,199,205,205,195,186,180,170,166,162,157,150,131,121,113,111,108,105,104,103,102,101,99],"timestamp_mouse":[9,30,50,69,91,110,130,149,171,190,211,229,250,270,289,309,330,350,371,390,409,430,451,469,490,511,529,550,570,591,609,629,651,669,691,711,729,750,770,791,811,831,850,871,891,911,929,949,970,990,1011,1030,1049,1069,1089,1111,1130,1150,1171,1189,1210,1230,1249,1269,1289,1309,1329,1350,1370,1391,1409,1431,1449,1470,1490,1511,1529,1549,1569,1589,1611,1630,1651,1671,1689,1709,1730,1749,1769,1791,1810,1830,1849,1869,1891,1911,1930,1950,1971,1991,2010,2029,2051,2071,2091,2110,2130,2151,2170,2191,2210,2230,2250,2271,2289,2310,2329,2350,2371,2389,2409,2430,2451,2471,2491,2510,2529,2550,2571,2589,2610,2629],"xSR":741.5,"ySR":469.95,"xT1":424.9,"yT1":0,"xT2":1058.1,"yT2":0,"toosoon":0,"cond_shown":"randomdotsizeEA","ratio_trial":750,"smaller_num":"3","larger_num":"4","correct_side":1,"subjID":"isabellaramos25","gender":"1","age":"9","school":"4"},{"start_time":1552313538645,"click_time":1552313541099,"finger_time":1552313540278,"fix_duration":926.1791033567804,"trial":23,"RT":1633,"MT":821,"sideResp":1,"stimulus":"img/750/equaldotanddens/L/1_Ratio_750_L_20_R_15.png","xmouse":[767,767,767,767,767,767,767,767,767,767,767,767,767,767,767,767,767,767,767,767,767,767,767,767,767,767,767,767,767,767,767,767,767,767,767,767,767,767,767,767,767,767,767,767,767,767,767,767,767,767,767,767,767,767,767,767,767,767,767,767,767,767,767,767,767,767,767,767,767,767,767,767,767,767,767,767,766,763,758,750,745,737,722,712,702,689,674,655,646,641,631,621,599,595,590,585,579,564,556,542,515,515,515,515,515,515,515,515,515,515,515,515,515,515,515,515,515,515,515,515,515,515,448],"ymouse":[523,523,523,523,523,523,523,523,523,523,523,523,523,523,523,523,523,523,523,523,523,523,523,523,523,523,523,523,523,523,523,523,523,523,523,523,523,523,523,523,523,523,523,523,523,523,523,523,523,523,523,523,523,523,523,523,523,523,523,523,523,523,523,523,523,523,523,523,523,523,523,523,523,523,523,523,521,518,512,504,491,463,415,394,376,360,349,333,327,323,316,311,292,283,267,249,225,157,117,63,0,0,0,0,0,0,0,0,0,0,0,0,0,0,0,0,0,0,0,0,0,0,13],"timestamp_mouse":[14,33,53,73,93,113,132,153,174,194,214,234,253,272,293,313,334,353,374,393,413,432,453,473,494,513,533,553,574,594,612,632,652,673,694,714,733,753,772,792,814,833,854,872,892,914,933,952,973,992,1014,1034,1053,1073,1093,1114,1133,1152,1173,1194,1213,1234,1252,1273,1293,1314,1333,1353,1373,1392,1413,1434,1453,1472,1492,1513,1532,1553,1574,1592,1612,1633,1652,1672,1693,1713,1733,1752,1773,1793,1812,1833,1852,1873,1893,1913,1934,1954,1974,1993,2013,2032,2053,2073,2092,2112,2133,2152,2173,2192,2213,2233,2252,2273,2292,2313,2332,2353,2372,2392,2413,2432,2454],"xSR":741.5,"ySR":469.95,"xT1":424.9,"yT1":0,"xT2":1058.1,"yT2":0,"toosoon":0,"cond_shown":"equaldotanddens","ratio_trial":750,"smaller_num":"15","larger_num":"20","correct_side":1,"subjID":"isabellaramos25","gender":"1","age":"9","school":"4"},{"start_time":1552313542590,"click_time":1552313544437,"finger_time":1552313543677,"fix_duration":250,"trial":24,"RT":1087,"MT":760,"sideResp":1,"stimulus":"img/500/randomdotsizeEA/L/7_Ratio_500_L_10_R_5.png","xmouse":[786,786,786,786,786,786,786,786,786,786,786,786,786,786,786,786,786,786,786,786,786,786,786,786,786,786,786,786,786,786,786,786,786,786,786,786,786,786,786,786,786,786,786,786,786,786,786,786,786,786,786,786,786,786,786,778,769,762,752,745,735,714,703,682,667,645,645,645,645,645,645,645,645,645,645,645,645,645,645,645,645,645,645,645,645,645,645,645,645,645,645,645,468],"ymouse":[505,505,505,505,505,505,505,505,505,505,505,507,509,509,509,509,509,509,509,509,509,509,509,509,509,509,509,509,509,509,509,509,509,509,509,509,509,509,509,509,509,509,509,509,509,509,509,509,509,509,509,503,499,484,469,433,414,396,377,358,334,267,229,151,86,26,26,26,26,26,26,26,26,26,26,26,26,26,26,26,26,26,26,26,26,26,26,26,26,26,26,26,4],"timestamp_mouse":[10,35,47,69,88,107,127,147,169,188,207,229,247,268,288,308,327,348,369,389,408,429,448,467,489,508,529,549,569,588,608,628,647,667,689,708,728,749,767,788,809,829,848,868,889,909,928,949,967,988,1009,1028,1048,1067,1087,1109,1127,1148,1168,1187,1209,1228,1248,1267,1287,1308,1328,1349,1369,1388,1408,1429,1449,1469,1488,1509,1529,1548,1568,1588,1609,1628,1649,1667,1688,1708,1727,1749,1767,1787,1808,1827,1847],"xSR":741.5,"ySR":469.95,"xT1":424.9,"yT1":0,"xT2":1058.1,"yT2":0,"toosoon":0,"cond_shown":"randomdotsizeEA","ratio_trial":500,"smaller_num":"5","larger_num":"10","correct_side":1,"subjID":"isabellaramos25","gender":"1","age":"9","school":"4"},{"start_time":1552313545871,"click_time":1552313546999,"finger_time":1552313546579,"fix_duration":250,"trial":25,"RT":708,"MT":420,"sideResp":1,"stimulus":"img/750/equaldotsize/L/9_Ratio_750_L_4_R_3.png","xmouse":[800,800,800,800,800,799,799,798,798,798,798,798,798,798,798,798,798,797,797,797,797,797,797,797,797,797,797,797,797,797,797,797,797,795,792,785,775,718,689,670,651,628,594,581,570,560,553,545,544,544,544,544,544,543,540,528,502],"ymouse":[498,498,498,498,498,498,498,499,499,500,500,500,500,500,500,500,500,502,502,502,502,502,502,502,502,502,502,502,502,502,502,502,502,497,489,465,430,306,261,226,202,175,134,115,99,84,73,57,55,55,55,55,55,55,54,52,48],"timestamp_mouse":[10,27,46,67,87,107,127,147,167,187,207,226,248,267,286,306,326,346,367,386,408,428,446,467,486,507,526,546,568,586,606,626,648,667,687,708,727,747,767,786,808,828,847,867,887,908,926,947,966,987,1007,1026,1047,1068,1087,1108,1128],"xSR":741.5,"ySR":469.95,"xT1":424.9,"yT1":0,"xT2":1058.1,"yT2":0,"toosoon":0,"cond_shown":"equaldotsize","ratio_trial":750,"smaller_num":"3","larger_num":"4","correct_side":1,"subjID":"isabellaramos25","gender":"1","age":"9","school":"4"},{"start_time":1552313549295,"click_time":1552313550038,"finger_time":1552313549958,"fix_duration":1274.0641122400893,"trial":26,"RT":663,"MT":80,"sideResp":2,"stimulus":"img/250/equaldotanddens/R/11_Ratio_250_L_3_R_12.png","xmouse":[778,778,778,778,778,778,778,778,778,778,778,778,778,778,778,778,778,778,778,778,778,778,778,778,778,778,778,778,778,778,778,779,791,824,865,943,1043,1078],"ymouse":[498,498,498,498,498,498,498,498,498,498,498,498,498,498,498,498,498,498,498,498,498,498,498,498,498,498,498,498,498,498,498,496,470,397,322,215,120,96],"timestamp_mouse":[12,22,43,63,83,103,123,143,163,183,204,223,242,264,284,302,323,343,364,383,402,423,444,463,483,502,522,544,563,584,603,623,642,663,684,702,723,743],"xSR":741.5,"ySR":469.95,"xT1":424.9,"yT1":0,"xT2":1058.1,"yT2":0,"toosoon":0,"cond_shown":"equaldotanddens","ratio_trial":250,"smaller_num":"3","larger_num":"12","correct_side":2,"subjID":"isabellaramos25","gender":"1","age":"9","school":"4"},{"start_time":1552313551331,"click_time":1552313552798,"finger_time":1552313552217,"fix_duration":250,"trial":27,"RT":886,"MT":581,"sideResp":2,"stimulus":"img/250/randomdotsizeEA/R/4_Ratio_250_L_3_R_12.png","xmouse":[784,784,784,784,784,784,784,784,784,784,784,784,784,784,784,784,784,784,784,784,784,784,784,784,784,784,784,784,784,784,784,784,784,784,784,784,784,784,784,784,784,789,799,811,821,856,888,928,964,993,1015,1016,1016,1016,1016,1019,1022,1026,1031,1034,1036,1036,1036,1036,1036,1038,1040,1042,1044,1048,1056,1061,1069,1074],"ymouse":[502,502,502,502,502,502,502,502,502,502,502,502,502,502,502,502,502,502,502,502,502,502,502,502,502,502,502,502,502,502,502,502,502,502,502,502,502,502,502,502,502,497,487,475,459,403,356,301,252,213,183,181,181,181,176,172,165,156,148,141,137,137,137,137,136,136,135,134,132,128,119,115,104,94],"timestamp_mouse":[11,32,48,67,88,107,127,147,167,187,208,228,247,267,287,306,327,348,366,387,406,426,448,466,487,508,526,546,568,588,607,626,647,667,687,707,726,747,768,788,807,828,847,868,886,906,927,947,967,987,1006,1026,1047,1066,1088,1107,1127,1147,1168,1187,1207,1226,1246,1268,1288,1307,1327,1348,1366,1386,1406,1427,1447,1467],"xSR":741.5,"ySR":469.95,"xT1":424.9,"yT1":0,"xT2":1058.1,"yT2":0,"toosoon":0,"cond_shown":"randomdotsizeEA","ratio_trial":250,"smaller_num":"3","larger_num":"12","correct_side":2,"subjID":"isabellaramos25","gender":"1","age":"9","school":"4"},{"start_time":1552313554382,"click_time":1552313555638,"finger_time":1552313555278,"fix_duration":601.9582893801336,"trial":28,"RT":896,"MT":360,"sideResp":1,"stimulus":"img/750/equaldotanddens/L/6_Ratio_750_L_24_R_18.png","xmouse":[777,777,777,777,777,777,777,777,777,777,777,777,777,777,777,777,777,777,777,777,777,777,777,777,777,777,777,777,777,777,777,777,777,777,777,777,777,777,777,777,777,777,777,767,742,704,667,593,571,549,532,518,515,516,523,528,531,533,533,533,532,527,522],"ymouse":[495,495,495,495,495,495,495,495,495,495,495,495,495,495,495,495,495,495,495,495,495,495,495,495,495,495,495,495,495,495,495,495,495,495,495,495,495,495,495,495,495,495,495,480,447,404,352,238,213,198,189,183,180,177,172,167,159,142,127,120,112,104,94],"timestamp_mouse":[17,36,55,75,97,117,136,155,177,195,215,236,256,277,296,317,336,356,375,396,417,436,456,477,497,516,535,556,576,597,617,637,656,675,696,717,737,756,777,797,817,835,855,876,896,917,936,956,977,995,1016,1035,1056,1077,1095,1115,1136,1156,1177,1196,1217,1236,1255],"xSR":741.5,"ySR":469.95,"xT1":424.9,"yT1":0,"xT2":1058.1,"yT2":0,"toosoon":0,"cond_shown":"equaldotanddens","ratio_trial":750,"smaller_num":"18","larger_num":"24","correct_side":1,"subjID":"isabellaramos25","gender":"1","age":"9","school":"4"},{"start_time":1552313557701,"click_time":1552313558839,"finger_time":1552313558519,"fix_duration":1202.795446362543,"trial":29,"RT":818,"MT":320,"sideResp":2,"stimulus":"img/500/equaldotsize/R/3_Ratio_500_L_10_R_20.png","xmouse":[788,788,788,788,788,788,788,788,788,788,788,788,788,788,788,788,788,788,788,788,788,788,788,788,788,788,788,788,788,788,788,788,788,788,788,788,788,788,792,806,830,933,978,1027,1075,1102,1115,1120,1121,1121,1122,1126,1130,1131,1131,1131,1126],"ymouse":[521,521,521,521,521,521,521,521,521,521,521,521,521,521,521,521,521,521,521,521,521,521,521,521,521,521,521,521,521,521,521,521,521,521,521,521,521,519,515,495,464,347,300,253,215,194,181,173,171,171,165,156,136,126,114,106,98],"timestamp_mouse":[17,36,56,77,97,118,137,158,178,198,218,237,257,277,297,317,337,358,376,398,416,437,456,476,498,518,536,558,578,596,616,637,657,676,697,718,737,756,778,796,818,837,858,877,898,918,938,956,977,998,1017,1036,1058,1077,1098,1118,1138],"xSR":741.5,"ySR":469.95,"xT1":424.9,"yT1":0,"xT2":1058.1,"yT2":0,"toosoon":0,"cond_shown":"equaldotsize","ratio_trial":500,"smaller_num":"10","larger_num":"20","correct_side":2,"subjID":"isabellaramos25","gender":"1","age":"9","school":"4"},{"start_time":1552313562130,"click_time":1552313563078,"finger_time":1552313562798,"fix_duration":250,"trial":30,"RT":668,"MT":280,"sideResp":1,"stimulus":"img/250/equaldotsize/L/14_Ratio_250_L_12_R_3.png","xmouse":[781,781,781,781,781,781,781,781,781,781,781,781,781,781,781,781,781,781,781,781,781,781,781,781,781,781,781,781,781,781,781,781,781,775,768,754,700,649,617,602,592,578,574,569,564,556,534,518],"ymouse":[493,493,493,493,493,493,493,493,493,493,493,493,493,493,493,493,493,493,493,493,493,493,493,493,493,493,493,493,493,493,493,487,473,453,426,395,303,231,192,174,159,138,129,121,115,105,91,81],"timestamp_mouse":[9,27,47,68,89,107,128,149,169,188,207,228,249,267,289,308,328,348,368,389,408,429,448,469,489,508,529,549,568,588,608,628,649,668,689,709,727,749,768,788,809,829,847,868,888,909,927,948],"xSR":741.5,"ySR":469.95,"xT1":424.9,"yT1":0,"xT2":1058.1,"yT2":0,"toosoon":0,"cond_shown":"equaldotsize","ratio_trial":250,"smaller_num":"3","larger_num":"12","correct_side":1,"subjID":"isabellaramos25","gender":"1","age":"9","school":"4"},{"start_time":1552313564522,"click_time":1552313565878,"finger_time":1552313565277,"fix_duration":363.4336943628511,"trial":31,"RT":755,"MT":601,"sideResp":2,"stimulus":"img/250/equaldotsize/R/9_Ratio_250_L_3_R_12.png","xmouse":[791,791,791,791,791,791,791,791,791,791,791,791,791,791,791,791,791,791,791,791,791,791,791,791,791,791,791,791,791,791,791,791,790,791,794,807,814,880,908,920,929,941,949,959,973,985,1009,1017,1024,1032,1036,1044,1047,1050,1055,1058,1061,1062,1063,1063,1063,1065,1069,1071,1074,1076,1080,1082],"ymouse":[526,526,526,526,526,526,526,526,526,526,526,526,526,526,526,526,526,526,526,526,526,526,526,526,526,526,526,526,526,526,526,526,523,520,509,485,472,365,326,308,293,275,266,256,244,232,203,194,186,179,173,163,158,154,146,140,129,126,125,125,125,122,119,117,114,113,103,98],"timestamp_mouse":[16,36,56,75,96,116,137,155,177,197,215,236,256,276,297,316,335,356,376,396,415,437,456,476,495,517,536,557,575,596,615,636,656,676,695,716,735,755,775,796,817,835,855,876,895,916,936,956,977,995,1017,1036,1056,1076,1095,1116,1136,1156,1176,1196,1216,1236,1256,1275,1297,1316,1336,1356],"xSR":741.5,"ySR":469.95,"xT1":424.9,"yT1":0,"xT2":1058.1,"yT2":0,"toosoon":0,"cond_shown":"equaldotsize","ratio_trial":250,"smaller_num":"3","larger_num":"12","correct_side":2,"subjID":"isabellaramos25","gender":"1","age":"9","school":"4"},{"start_time":1552313568051,"click_time":1552313569918,"finger_time":1552313569439,"fix_duration":951.9707860602857,"trial":32,"RT":1388,"MT":479,"sideResp":1,"stimulus":"img/750/randomdotsizeEA/R/4_Ratio_750_L_15_R_20.png","xmouse":[778,778,778,778,778,778,778,778,778,778,778,778,778,778,778,778,778,778,778,778,778,778,778,778,778,778,778,778,778,778,778,778,778,778,778,778,778,778,778,778,778,778,778,778,778,778,778,778,778,778,778,778,778,778,778,778,778,778,778,778,778,778,778,778,778,779,782,782,784,785,785,780,776,769,763,747,741,734,719,709,693,664,651,634,615,597,565,549,533,527,520,515,512,506],"ymouse":[496,496,496,496,496,496,496,496,496,496,496,496,496,496,496,496,496,496,496,496,496,496,496,496,496,496,496,496,496,496,496,496,496,496,496,496,496,496,496,496,496,496,496,496,496,496,496,496,496,496,496,496,496,496,496,496,496,496,496,496,496,496,496,496,494,490,484,482,472,461,432,414,399,382,364,321,298,278,251,237,228,213,205,196,186,175,154,145,135,129,119,110,102,90],"timestamp_mouse":[9,34,47,67,88,107,128,148,167,186,208,228,248,266,287,306,328,347,367,386,407,427,448,467,488,507,527,547,567,587,607,627,647,667,687,708,727,747,768,787,806,827,847,867,887,907,928,948,967,987,1008,1027,1048,1068,1087,1107,1127,1146,1166,1187,1208,1228,1247,1267,1287,1308,1327,1347,1367,1388,1408,1427,1447,1468,1486,1508,1527,1547,1566,1587,1608,1626,1647,1667,1688,1709,1727,1746,1767,1787,1808,1827,1847,1867],"xSR":741.5,"ySR":469.95,"xT1":424.9,"yT1":0,"xT2":1058.1,"yT2":0,"toosoon":0,"cond_shown":"randomdotsizeEA","ratio_trial":750,"smaller_num":"15","larger_num":"20","correct_side":2,"subjID":"isabellaramos25","gender":"1","age":"9","school":"4"},{"start_time":1552313571038,"click_time":1552313572098,"finger_time":1552313571698,"fix_duration":256.41108472006493,"trial":33,"RT":660,"MT":400,"sideResp":2,"stimulus":"img/500/randomdotsizeEA/R/9_Ratio_500_L_2_R_4.png","xmouse":[788,788,788,786,785,783,782,782,782,782,782,782,782,782,782,782,782,782,782,782,782,782,782,782,782,782,782,782,782,782,782,793,821,854,883,930,964,1036,1048,1050,1054,1057,1072,1083,1095,1104,1110,1115,1115,1115,1115,1114,1114,1113],"ymouse":[496,496,496,497,497,499,501,502,502,502,502,502,502,502,502,502,502,502,502,502,502,502,502,502,502,502,502,502,502,502,502,498,476,449,418,373,339,244,222,212,203,196,179,169,158,143,134,123,117,114,111,107,101,98],"timestamp_mouse":[12,21,40,60,80,100,121,141,159,180,200,219,239,260,280,300,319,341,361,380,399,419,440,460,479,499,519,540,560,581,600,620,639,660,681,701,720,740,760,780,800,821,839,861,879,900,920,939,959,981,1000,1020,1039,1060],"xSR":741.5,"ySR":469.95,"xT1":424.9,"yT1":0,"xT2":1058.1,"yT2":0,"toosoon":0,"cond_shown":"randomdotsizeEA","ratio_trial":500,"smaller_num":"2","larger_num":"4","correct_side":2,"subjID":"isabellaramos25","gender":"1","age":"9","school":"4"},{"start_time":1552313574395,"click_time":1552313575459,"finger_time":1552313575139,"fix_duration":1175.6532051067932,"trial":34,"RT":744,"MT":320,"sideResp":1,"stimulus":"img/750/equaldotanddens/R/12_Ratio_750_L_3_R_4.png","xmouse":[790,790,790,790,790,790,790,790,790,790,790,790,790,790,790,790,790,790,790,790,790,790,790,790,790,790,790,790,790,790,790,790,790,790,790,788,785,778,773,754,742,728,709,681,637,617,604,596,587,572,562,552,537,524],"ymouse":[523,523,523,523,523,523,523,523,523,523,523,523,523,523,523,523,523,523,523,523,523,523,523,523,523,523,523,523,523,523,523,523,523,523,516,502,481,455,414,335,300,273,247,222,188,173,160,148,135,104,89,76,61,49],"timestamp_mouse":[11,27,43,63,83,104,122,142,164,183,202,224,242,262,283,302,323,344,364,383,403,424,442,463,483,504,523,544,564,583,603,623,644,663,683,703,722,744,764,783,802,822,843,863,884,902,922,942,963,983,1004,1023,1044,1064],"xSR":741.5,"ySR":469.95,"xT1":424.9,"yT1":0,"xT2":1058.1,"yT2":0,"toosoon":0,"cond_shown":"equaldotanddens","ratio_trial":750,"smaller_num":"3","larger_num":"4","correct_side":2,"subjID":"isabellaramos25","gender":"1","age":"9","school":"4"},{"start_time":1552313577616,"click_time":1552313578758,"finger_time":1552313578438,"fix_duration":1197.153422435209,"trial":35,"RT":822,"MT":320,"sideResp":1,"stimulus":"img/500/equaldotanddens/L/8_Ratio_500_L_8_R_4.png","xmouse":[786,786,786,786,786,786,786,786,786,786,786,786,786,786,786,786,786,786,786,786,786,786,786,786,786,786,786,786,786,786,786,786,786,786,786,786,786,786,786,787,787,781,766,738,689,669,653,644,639,630,625,619,607,596,566,544,530,520],"ymouse":[503,503,503,503,503,503,503,503,503,503,503,503,503,503,503,503,503,503,503,503,503,503,503,503,503,503,503,503,503,503,503,503,503,503,503,503,503,503,503,496,470,426,382,329,258,230,202,187,179,167,163,159,151,141,112,89,73,63],"timestamp_mouse":[10,26,42,63,83,102,123,143,161,183,203,222,242,262,283,302,323,342,363,382,403,421,443,462,483,501,523,543,563,581,602,623,641,663,683,702,722,742,761,783,802,822,843,862,881,901,922,942,963,981,1002,1022,1043,1062,1082,1103,1122,1142],"xSR":741.5,"ySR":469.95,"xT1":424.9,"yT1":0,"xT2":1058.1,"yT2":0,"toosoon":0,"cond_shown":"equaldotanddens","ratio_trial":500,"smaller_num":"4","larger_num":"8","correct_side":1,"subjID":"isabellaramos25","gender":"1","age":"9","school":"4"},{"start_time":1552313580090,"click_time":1552313581339,"finger_time":1552313580798,"fix_duration":250,"trial":36,"RT":708,"MT":541,"sideResp":2,"stimulus":"img/250/equaldotsize/R/6_Ratio_250_L_6_R_24.png","xmouse":[783,783,783,783,783,783,783,783,783,783,783,783,783,783,783,783,783,783,783,783,783,783,783,783,783,783,783,783,783,783,783,783,783,783,789,813,836,857,875,890,929,947,965,978,987,998,1000,1001,1001,1001,1001,1002,1005,1008,1011,1021,1029,1036,1045,1056,1080,1087,1093],"ymouse":[486,486,486,486,486,486,486,486,486,486,486,486,486,486,486,486,486,486,486,486,486,486,486,486,486,486,486,486,486,486,486,486,486,486,482,453,419,389,364,343,293,269,246,226,207,173,166,163,161,161,161,161,160,158,155,149,145,140,135,127,108,100,92],"timestamp_mouse":[11,34,48,68,88,107,129,148,169,188,209,229,249,268,289,308,327,348,368,387,408,428,448,467,487,507,527,547,567,587,607,627,647,668,688,708,727,747,769,790,808,828,849,869,889,907,928,949,969,989,1009,1029,1048,1069,1088,1107,1129,1148,1168,1189,1207,1228,1249],"xSR":741.5,"ySR":469.95,"xT1":424.9,"yT1":0,"xT2":1058.1,"yT2":0,"toosoon":0,"cond_shown":"equaldotsize","ratio_trial":250,"smaller_num":"6","larger_num":"24","correct_side":2,"subjID":"isabellaramos25","gender":"1","age":"9","school":"4"},{"start_time":1552313582876,"click_time":1552313583979,"finger_time":1552313583518,"fix_duration":617.3557716705245,"trial":37,"RT":642,"MT":461,"sideResp":2,"stimulus":"img/250/equaldotanddens/R/6_Ratio_250_L_6_R_24.png","xmouse":[787,787,787,787,787,787,787,787,788,788,788,788,789,789,789,789,789,789,789,789,789,789,789,789,789,789,789,789,790,792,795,814,824,837,853,871,918,944,973,1001,1021,1056,1060,1062,1064,1065,1067,1072,1074,1078,1079,1083,1084,1086,1086,1088],"ymouse":[535,535,535,535,535,534,532,529,527,526,525,524,522,522,521,521,521,521,521,521,521,521,521,521,521,521,521,521,519,516,510,481,466,453,433,414,369,348,320,292,267,223,213,202,192,182,172,156,149,140,133,118,114,109,104,96],"timestamp_mouse":[8,33,41,63,82,102,122,141,162,183,203,222,242,263,282,302,321,342,362,383,402,421,441,463,483,502,521,543,562,581,602,622,642,662,682,703,723,742,762,783,803,822,841,863,883,903,922,943,961,982,1002,1023,1041,1062,1082,1103],"xSR":741.5,"ySR":469.95,"xT1":424.9,"yT1":0,"xT2":1058.1,"yT2":0,"toosoon":0,"cond_shown":"equaldotanddens","ratio_trial":250,"smaller_num":"6","larger_num":"24","correct_side":2,"subjID":"isabellaramos25","gender":"1","age":"9","school":"4"},{"start_time":1552313586439,"click_time":1552313587359,"finger_time":1552313587137,"fix_duration":1338.249495683506,"trial":38,"RT":698,"MT":222,"sideResp":1,"stimulus":"img/750/equaldotsize/L/8_Ratio_750_L_4_R_3.png","xmouse":[781,781,781,781,781,781,781,781,781,781,781,781,781,781,781,781,781,781,781,781,781,781,781,781,781,781,781,781,781,781,781,781,781,781,778,775,768,762,750,712,691,667,632,581,558,532,513],"ymouse":[501,501,501,501,501,501,501,501,501,501,501,501,501,501,501,501,501,501,501,501,501,501,501,501,501,501,501,501,501,501,501,501,501,491,480,468,453,436,414,346,307,272,222,163,136,104,80],"timestamp_mouse":[5,18,39,58,80,100,119,139,158,180,200,219,239,258,280,299,320,339,359,380,400,420,440,459,480,500,519,540,558,580,598,618,640,660,679,698,719,740,759,778,800,819,839,860,879,899,919],"xSR":741.5,"ySR":469.95,"xT1":424.9,"yT1":0,"xT2":1058.1,"yT2":0,"toosoon":0,"cond_shown":"equaldotsize","ratio_trial":750,"smaller_num":"3","larger_num":"4","correct_side":1,"subjID":"isabellaramos25","gender":"1","age":"9","school":"4"},{"start_time":1552313589231,"click_time":1552313590418,"finger_time":1552313589939,"fix_duration":810.7631258220952,"trial":39,"RT":708,"MT":479,"sideResp":2,"stimulus":"img/250/randomdotsizeEA/R/13_Ratio_250_L_2_R_8.png","xmouse":[784,785,785,785,785,785,785,787,789,795,795,795,795,795,795,795,795,795,795,795,795,795,795,795,795,795,795,795,795,795,795,795,795,797,802,807,819,833,852,884,910,926,944,960,996,1014,1034,1052,1064,1076,1078,1079,1080,1083,1091,1094,1099,1102,1102,1105],"ymouse":[494,494,494,494,494,494,494,494,494,496,496,496,496,496,496,496,496,496,496,496,496,496,496,496,496,496,496,496,496,496,496,496,496,495,484,466,444,419,392,356,334,319,298,278,235,215,198,184,172,161,157,156,154,149,135,125,115,107,101,87],"timestamp_mouse":[9,27,47,66,88,108,126,146,168,187,207,228,248,267,288,306,327,347,368,388,408,427,447,466,486,507,528,548,568,586,606,627,648,666,687,708,727,747,766,787,808,826,848,867,887,908,927,948,967,987,1008,1026,1046,1066,1086,1108,1126,1146,1167,1187],"xSR":741.5,"ySR":469.95,"xT1":424.9,"yT1":0,"xT2":1058.1,"yT2":0,"toosoon":0,"cond_shown":"randomdotsizeEA","ratio_trial":250,"smaller_num":"2","larger_num":"8","correct_side":2,"subjID":"isabellaramos25","gender":"1","age":"9","school":"4"},{"start_time":1552313592072,"click_time":1552313593219,"finger_time":1552313592699,"fix_duration":813.2663180363595,"trial":40,"RT":627,"MT":520,"sideResp":1,"stimulus":"img/500/equaldotsize/L/13_Ratio_500_L_12_R_6.png","xmouse":[774,774,774,774,774,774,774,774,774,774,774,774,774,774,774,774,774,774,774,774,774,774,774,774,774,774,774,774,774,774,771,766,741,723,692,651,578,540,530,524,520,519,517,517,517,517,522,534,539,542,542,541,533,532,532,532,531,523],"ymouse":[509,509,509,509,509,509,509,509,509,509,509,509,509,509,509,509,509,509,509,509,509,509,509,509,509,509,509,509,507,496,475,451,408,388,368,349,314,274,252,235,222,217,206,202,198,194,180,153,134,116,101,91,80,78,78,78,78,77],"timestamp_mouse":[10,27,45,67,87,105,127,146,166,187,206,225,246,267,286,306,325,346,366,386,407,426,445,467,487,506,527,546,565,587,607,627,648,666,685,706,727,746,766,785,805,825,845,865,886,907,927,946,966,986,1006,1025,1046,1066,1085,1106,1126,1147],"xSR":741.5,"ySR":469.95,"xT1":424.9,"yT1":0,"xT2":1058.1,"yT2":0,"toosoon":0,"cond_shown":"equaldotsize","ratio_trial":500,"smaller_num":"6","larger_num":"12","correct_side":1,"subjID":"isabellaramos25","gender":"1","age":"9","school":"4"},{"start_time":1552313595051,"click_time":1552313596538,"finger_time":1552313596277,"fix_duration":811.7116462240053,"trial":41,"RT":1226,"MT":261,"sideResp":1,"stimulus":"img/750/randomdotsizeEA/L/8_Ratio_750_L_4_R_3.png","xmouse":[796,796,796,796,796,796,796,796,796,796,796,796,796,796,796,796,796,796,796,796,796,796,796,796,796,796,796,796,796,796,796,796,796,796,796,796,796,796,796,796,796,796,796,796,796,796,796,796,796,796,796,796,796,796,796,796,796,796,790,773,751,729,693,661,591,558,517,499,479,476,474,473,473,472,463],"ymouse":[502,502,502,502,502,502,502,502,502,502,502,502,502,502,502,502,502,502,502,502,502,502,502,502,502,502,502,502,502,502,502,502,502,502,502,502,502,502,502,502,502,502,502,502,502,502,502,502,502,502,502,502,502,502,502,502,502,502,502,494,474,445,404,358,264,226,186,172,154,151,147,142,133,118,83],"timestamp_mouse":[10,28,48,68,86,108,127,147,168,187,206,228,247,268,286,307,327,348,366,388,408,427,447,467,488,507,528,546,568,588,608,627,647,668,687,706,728,747,768,788,806,826,847,866,888,907,927,948,967,988,1008,1027,1048,1068,1087,1107,1127,1148,1168,1186,1208,1226,1248,1268,1288,1306,1326,1347,1368,1387,1407,1428,1447,1467,1487],"xSR":741.5,"ySR":469.95,"xT1":424.9,"yT1":0,"xT2":1058.1,"yT2":0,"toosoon":0,"cond_shown":"randomdotsizeEA","ratio_trial":750,"smaller_num":"3","larger_num":"4","correct_side":1,"subjID":"isabellaramos25","gender":"1","age":"9","school":"4"},{"start_time":1552313598948,"click_time":1552313600758,"finger_time":1552313600479,"fix_duration":1387.5018818316355,"trial":42,"RT":1531,"MT":279,"sideResp":2,"stimulus":"img/900/randomdotsizeEA/L/4_Ratio_900_L_20_R_18.png","xmouse":[787,787,787,787,787,787,787,787,787,787,787,787,787,787,787,787,787,787,787,787,787,787,787,787,787,787,787,787,787,787,787,787,787,787,787,787,787,787,787,787,787,787,787,787,787,787,787,787,787,787,787,787,787,787,787,787,787,787,787,787,787,788,790,795,799,799,799,799,799,799,799,799,799,799,800,804,815,832,853,921,954,976,993,1006,1023,1030,1034,1039,1045,1056,1064],"ymouse":[519,519,519,519,519,519,519,519,519,519,519,519,519,519,519,519,519,519,519,519,519,519,519,519,519,519,519,519,519,519,519,519,519,519,519,519,519,519,519,519,519,519,519,519,519,519,519,519,519,519,519,519,519,519,519,519,519,519,519,519,519,512,508,497,486,486,486,486,486,486,486,486,486,486,485,478,462,438,409,312,270,237,209,186,151,135,121,108,93,76,68],"timestamp_mouse":[10,35,50,71,91,110,131,151,171,190,210,229,251,270,290,311,330,350,370,390,410,430,450,470,491,510,531,550,571,590,610,631,650,670,691,711,729,750,770,791,811,830,851,870,891,910,931,951,970,991,1010,1031,1049,1069,1090,1111,1131,1150,1171,1190,1211,1230,1250,1271,1289,1310,1330,1349,1369,1390,1411,1430,1450,1470,1491,1510,1531,1550,1570,1589,1610,1631,1651,1670,1689,1709,1730,1751,1771,1791,1810],"xSR":741.5,"ySR":469.95,"xT1":424.9,"yT1":0,"xT2":1058.1,"yT2":0,"toosoon":0,"cond_shown":"randomdotsizeEA","ratio_trial":900,"smaller_num":"18","larger_num":"20","correct_side":1,"subjID":"isabellaramos25","gender":"1","age":"9","school":"4"},{"start_time":1552313602669,"click_time":1552313603758,"finger_time":1552313603458,"fix_duration":1148.0637157817519,"trial":43,"RT":789,"MT":300,"sideResp":2,"stimulus":"img/500/equaldotanddens/R/15_Ratio_500_L_1_R_2.png","xmouse":[786,786,786,786,786,786,786,786,786,786,786,786,786,786,786,786,786,786,786,786,786,786,786,786,786,786,786,786,786,786,786,786,786,786,786,786,786,786,797,828,873,937,977,1015,1055,1069,1080,1091,1109,1121,1129,1139,1145,1149,1153],"ymouse":[499,499,499,499,499,499,499,499,499,499,499,499,499,499,499,499,499,499,499,499,499,499,499,499,499,499,499,499,499,499,499,499,499,499,499,499,499,499,488,462,427,370,334,300,260,243,226,210,185,173,162,149,136,124,95],"timestamp_mouse":[10,30,49,69,90,110,129,149,169,190,210,228,249,269,290,310,329,350,369,389,409,430,449,470,489,509,529,550,568,589,608,630,649,669,688,708,728,750,770,789,810,830,849,868,888,908,930,950,969,989,1010,1028,1049,1069,1089],"xSR":741.5,"ySR":469.95,"xT1":424.9,"yT1":0,"xT2":1058.1,"yT2":0,"toosoon":0,"cond_shown":"equaldotanddens","ratio_trial":500,"smaller_num":"1","larger_num":"2","correct_side":2,"subjID":"isabellaramos25","gender":"1","age":"9","school":"4"},{"start_time":1552313605638,"click_time":1552313606777,"finger_time":1552313606519,"fix_duration":1019.344659636362,"trial":44,"RT":881,"MT":258,"sideResp":1,"stimulus":"img/900/equaldotanddens/L/1_Ratio_900_L_10_R_9.png","xmouse":[765,765,765,765,765,765,765,765,765,765,765,765,765,765,765,765,765,765,765,765,765,765,765,765,765,765,765,765,765,765,765,765,765,765,765,765,765,765,765,765,765,765,757,747,737,725,700,691,680,672,665,652,638,624,607,578,515,493],"ymouse":[524,524,524,524,524,524,524,524,524,524,524,524,524,524,524,524,524,524,524,524,524,524,524,524,524,524,524,524,524,524,524,524,524,524,524,524,524,524,524,524,524,524,520,515,506,491,457,441,426,414,402,373,339,308,273,223,107,46],"timestamp_mouse":[8,29,41,59,80,101,120,140,159,180,199,221,241,260,281,300,321,340,360,381,400,421,440,459,481,501,520,539,560,580,600,620,640,659,679,700,720,741,759,779,800,819,840,859,881,901,920,940,960,981,999,1019,1040,1060,1080,1101,1119,1139],"xSR":741.5,"ySR":469.95,"xT1":424.9,"yT1":0,"xT2":1058.1,"yT2":0,"toosoon":0,"cond_shown":"equaldotanddens","ratio_trial":900,"smaller_num":"9","larger_num":"10","correct_side":1,"subjID":"isabellaramos25","gender":"1","age":"9","school":"4"},{"start_time":1552313608290,"click_time":1552313609159,"finger_time":1552313608758,"fix_duration":250,"trial":45,"RT":468,"MT":401,"sideResp":2,"stimulus":"img/250/equaldotanddens/R/10_Ratio_250_L_4_R_16.png","xmouse":[779,779,779,779,779,779,779,780,780,780,780,780,780,780,780,780,780,780,780,780,780,781,784,799,810,823,836,848,898,927,960,994,1013,1039,1045,1048,1050,1054,1064,1076,1088,1098,1103,1106],"ymouse":[508,508,508,508,508,508,508,508,508,508,508,508,508,508,508,508,508,508,508,508,508,508,505,467,441,418,394,375,303,264,226,192,172,152,151,150,149,146,138,131,124,117,109,93],"timestamp_mouse":[13,37,48,68,89,107,129,148,169,188,209,227,248,268,288,308,328,348,369,388,408,429,448,468,488,508,527,548,568,588,608,628,649,668,689,707,728,747,768,787,808,829,848,868],"xSR":741.5,"ySR":469.95,"xT1":424.9,"yT1":0,"xT2":1058.1,"yT2":0,"toosoon":0,"cond_shown":"equaldotanddens","ratio_trial":250,"smaller_num":"4","larger_num":"16","correct_side":2,"subjID":"isabellaramos25","gender":"1","age":"9","school":"4"},{"start_time":1552313610329,"click_time":1552313611477,"finger_time":1552313611137,"fix_duration":250,"trial":46,"RT":808,"MT":340,"sideResp":1,"stimulus":"img/750/randomdotsizeEA/L/8_Ratio_750_L_4_R_3.png","xmouse":[796,796,796,796,796,796,796,796,796,796,796,796,796,796,796,796,796,796,796,796,796,796,796,796,796,796,796,796,796,796,796,794,787,778,769,764,763,763,763,763,763,763,763,758,750,725,658,617,586,561,548,540,531,525,523,513,498,494],"ymouse":[522,522,522,522,522,522,522,522,522,522,522,522,522,522,522,522,522,522,522,522,522,522,522,522,522,522,522,522,522,522,522,520,509,493,479,472,470,470,470,470,469,466,463,452,436,386,287,241,211,189,176,168,154,146,143,128,101,88],"timestamp_mouse":[8,29,50,69,89,109,128,150,170,188,210,229,249,268,288,309,329,350,369,390,409,429,450,469,490,509,528,549,570,589,609,628,650,669,688,708,729,750,770,788,808,829,850,869,889,909,929,949,969,989,1008,1030,1049,1070,1090,1109,1129,1148],"xSR":741.5,"ySR":469.95,"xT1":424.9,"yT1":0,"xT2":1058.1,"yT2":0,"toosoon":0,"cond_shown":"randomdotsizeEA","ratio_trial":750,"smaller_num":"3","larger_num":"4","correct_side":1,"subjID":"isabellaramos25","gender":"1","age":"9","school":"4"},{"start_time":1552313612513,"click_time":1552313613918,"finger_time":1552313613459,"fix_duration":312.7953003555586,"trial":47,"RT":946,"MT":459,"sideResp":2,"stimulus":"img/900/randomdotsizeEA/R/15_Ratio_900_L_9_R_10.png","xmouse":[775,775,775,775,775,775,775,775,775,775,775,775,775,775,775,775,775,775,775,775,775,775,775,775,775,775,775,775,775,775,775,775,775,775,775,775,775,775,775,775,775,776,777,782,790,800,813,844,862,878,898,916,934,962,975,992,1002,1017,1023,1027,1030,1032,1035,1041,1044,1048,1051,1054,1055,1056,1059],"ymouse":[532,532,532,532,532,532,532,532,532,532,532,532,532,532,532,532,531,531,531,531,531,531,531,531,531,531,531,531,531,531,531,531,531,531,531,531,531,531,531,531,531,530,529,524,514,499,480,435,414,396,378,362,341,303,283,255,236,199,182,165,153,142,130,112,106,97,93,84,80,76,72],"timestamp_mouse":[10,26,46,66,84,104,125,146,166,186,206,225,245,266,285,306,324,346,366,385,405,426,446,466,485,505,525,546,565,586,605,625,645,666,686,705,726,746,765,784,806,824,845,866,885,904,925,946,964,985,1005,1024,1046,1065,1085,1104,1125,1146,1165,1184,1205,1225,1246,1265,1284,1305,1324,1346,1365,1385,1405],"xSR":741.5,"ySR":469.95,"xT1":424.9,"yT1":0,"xT2":1058.1,"yT2":0,"toosoon":0,"cond_shown":"randomdotsizeEA","ratio_trial":900,"smaller_num":"9","larger_num":"10","correct_side":2,"subjID":"isabellaramos25","gender":"1","age":"9","school":"4"},{"start_time":1552313615395,"click_time":1552313616697,"finger_time":1552313616038,"fix_duration":593.3524361318862,"trial":48,"RT":643,"MT":659,"sideResp":2,"stimulus":"img/250/equaldotanddens/R/12_Ratio_250_L_5_R_20.png","xmouse":[780,780,780,780,780,780,780,780,780,780,780,780,780,780,780,780,780,780,780,780,780,780,780,780,780,780,780,780,780,780,780,780,774,763,715,695,679,666,656,652,652,652,652,652,656,663,674,686,701,733,757,775,793,814,859,883,904,929,951,1011,1036,1054,1066,1074,1079,1080],"ymouse":[506,506,506,506,506,506,506,506,506,506,506,506,506,506,506,506,506,506,506,506,506,506,506,506,506,506,506,506,506,506,500,487,466,443,391,371,348,326,301,285,284,284,284,284,283,283,283,283,284,284,284,287,290,291,291,291,291,287,277,239,218,194,169,144,107,90],"timestamp_mouse":[8,23,43,62,84,104,123,144,163,183,203,223,242,263,284,304,323,342,364,384,403,423,443,462,483,503,524,543,563,583,603,624,643,663,683,702,724,744,763,783,802,823,844,863,883,903,924,943,962,983,1004,1023,1043,1063,1083,1104,1123,1144,1163,1183,1203,1224,1243,1263,1282,1302],"xSR":741.5,"ySR":469.95,"xT1":424.9,"yT1":0,"xT2":1058.1,"yT2":0,"toosoon":0,"cond_shown":"equaldotanddens","ratio_trial":250,"smaller_num":"5","larger_num":"20","correct_side":2,"subjID":"isabellaramos25","gender":"1","age":"9","school":"4"},{"start_time":1552313618256,"click_time":1552313619298,"finger_time":1552313618898,"fix_duration":535.1858219126182,"trial":49,"RT":642,"MT":400,"sideResp":2,"stimulus":"img/250/equaldotsize/R/11_Ratio_250_L_3_R_12.png","xmouse":[782,782,782,782,782,782,782,782,782,782,782,782,782,782,782,782,782,782,782,782,782,782,782,782,782,782,782,782,782,782,783,788,827,858,888,935,978,995,1012,1026,1037,1063,1076,1087,1099,1102,1106,1106,1106,1107,1110,1117,1119],"ymouse":[497,497,497,497,497,497,497,497,497,497,497,497,497,497,497,497,497,497,497,497,497,497,497,497,497,497,497,497,497,497,494,489,452,419,388,339,294,274,256,238,222,184,168,156,143,140,136,136,135,132,127,108,95],"timestamp_mouse":[9,32,42,63,82,101,121,143,162,183,203,222,243,261,283,302,323,342,363,383,402,422,443,463,482,503,522,543,562,583,602,621,642,663,683,702,722,741,762,783,803,822,842,863,881,902,922,941,962,982,1002,1023,1042],"xSR":741.5,"ySR":469.95,"xT1":424.9,"yT1":0,"xT2":1058.1,"yT2":0,"toosoon":0,"cond_shown":"equaldotsize","ratio_trial":250,"smaller_num":"3","larger_num":"12","correct_side":2,"subjID":"isabellaramos25","gender":"1","age":"9","school":"4"},{"start_time":1552313620768,"click_time":1552313621518,"finger_time":1552313621398,"fix_duration":607.3526770567497,"trial":50,"RT":630,"MT":120,"sideResp":1,"stimulus":"img/250/equaldotanddens/L/7_Ratio_250_L_8_R_2.png","xmouse":[782,782,782,782,782,782,782,782,782,782,782,782,782,782,782,782,782,782,782,782,782,782,782,782,782,782,782,782,782,782,780,763,744,718,678,629,531,478],"ymouse":[494,494,494,494,494,494,494,494,494,494,494,494,494,494,494,494,494,494,494,494,494,494,494,494,494,494,494,494,494,494,493,457,423,376,314,253,126,58],"timestamp_mouse":[17,38,51,70,90,111,131,151,170,190,210,230,251,271,290,311,329,350,371,390,410,429,451,471,489,510,530,549,571,591,611,630,650,671,690,710,730,750],"xSR":741.5,"ySR":469.95,"xT1":424.9,"yT1":0,"xT2":1058.1,"yT2":0,"toosoon":0,"cond_shown":"equaldotanddens","ratio_trial":250,"smaller_num":"2","larger_num":"8","correct_side":1,"subjID":"isabellaramos25","gender":"1","age":"9","school":"4"},{"start_time":1552313622956,"click_time":1552313624259,"finger_time":1552313623978,"fix_duration":375.34770159481445,"trial":51,"RT":1022,"MT":281,"sideResp":1,"stimulus":"img/900/equaldotsize/L/1_Ratio_900_L_10_R_9.png","xmouse":[771,771,772,773,774,774,774,774,774,774,774,774,774,774,774,774,774,774,774,774,774,774,774,774,774,774,774,774,774,774,774,774,774,774,774,774,774,774,774,774,774,774,774,774,774,774,774,774,771,769,765,757,728,705,680,657,628,576,543,530,524,522,521,519,515,509],"ymouse":[494,494,497,498,499,499,499,499,499,500,500,500,500,500,500,500,500,500,500,500,500,500,500,500,500,500,500,500,500,500,500,500,500,500,500,500,500,500,500,500,500,500,500,500,500,500,500,500,497,493,484,469,432,404,374,347,308,240,204,186,173,163,141,128,115,99],"timestamp_mouse":[2,25,42,63,82,102,123,141,163,183,203,222,243,263,282,302,323,343,363,383,402,422,443,462,482,503,522,543,563,583,603,622,642,663,683,703,721,742,763,783,803,822,842,862,883,902,922,941,961,983,1003,1022,1042,1063,1082,1103,1121,1143,1163,1182,1203,1221,1243,1262,1282,1303],"xSR":741.5,"ySR":469.95,"xT1":424.9,"yT1":0,"xT2":1058.1,"yT2":0,"toosoon":0,"cond_shown":"equaldotsize","ratio_trial":900,"smaller_num":"9","larger_num":"10","correct_side":1,"subjID":"isabellaramos25","gender":"1","age":"9","school":"4"},{"start_time":1552313625808,"click_time":1552313627118,"finger_time":1552313626559,"fix_duration":949.5796898752626,"trial":52,"RT":751,"MT":559,"sideResp":2,"stimulus":"img/750/equaldotanddens/R/4_Ratio_750_L_15_R_20.png","xmouse":[778,778,778,778,778,778,778,778,778,778,778,778,778,778,778,778,778,778,778,778,778,778,778,778,778,778,778,778,778,778,778,778,778,778,784,797,818,847,882,963,1002,1040,1069,1102,1129,1139,1147,1153,1160,1168,1171,1171,1171,1169,1141,1131,1126,1124,1124,1121,1120,1118,1116,1114,1111,1111],"ymouse":[523,523,523,523,523,523,523,523,523,523,523,523,523,523,523,523,523,523,523,523,523,523,523,523,523,523,523,523,523,523,523,523,523,523,516,502,479,449,420,368,341,316,298,277,252,237,224,211,200,182,175,170,165,158,142,137,135,131,130,125,122,118,115,111,100,96],"timestamp_mouse":[10,34,51,70,90,111,130,151,170,191,210,231,250,271,290,311,331,351,371,390,410,429,451,471,490,510,530,550,570,590,611,630,651,670,689,711,731,751,770,789,810,829,849,870,891,910,930,950,970,990,1009,1030,1051,1071,1090,1111,1130,1151,1170,1190,1210,1231,1250,1271,1291,1310],"xSR":741.5,"ySR":469.95,"xT1":424.9,"yT1":0,"xT2":1058.1,"yT2":0,"toosoon":0,"cond_shown":"equaldotanddens","ratio_trial":750,"smaller_num":"15","larger_num":"20","correct_side":2,"subjID":"isabellaramos25","gender":"1","age":"9","school":"4"},{"start_time":1552313629265,"click_time":1552313630358,"finger_time":1552313630118,"fix_duration":1204.9743865972698,"trial":53,"RT":853,"MT":240,"sideResp":1,"stimulus":"img/900/equaldotsize/L/2_Ratio_900_L_20_R_18.png","xmouse":[779,779,779,779,779,779,779,779,779,779,779,779,779,779,779,779,779,779,779,779,779,779,779,779,779,779,779,779,779,779,779,779,779,779,779,779,779,779,779,779,780,780,780,770,746,720,692,624,601,586,574,565,542,532,523],"ymouse":[512,512,512,512,512,512,512,512,512,512,512,512,512,512,512,512,512,512,512,512,512,512,512,512,512,512,512,512,512,512,512,512,512,512,512,512,512,512,512,512,509,502,459,416,364,324,276,175,144,121,102,82,51,37,23],"timestamp_mouse":[13,34,61,74,94,113,133,154,173,194,213,233,252,273,293,313,332,353,374,394,413,433,454,472,494,513,533,554,574,593,612,633,654,674,694,713,733,753,774,793,814,833,853,872,893,914,935,952,973,993,1012,1034,1053,1072,1093],"xSR":741.5,"ySR":469.95,"xT1":424.9,"yT1":0,"xT2":1058.1,"yT2":0,"toosoon":0,"cond_shown":"equaldotsize","ratio_trial":900,"smaller_num":"18","larger_num":"20","correct_side":1,"subjID":"isabellaramos25","gender":"1","age":"9","school":"4"},{"start_time":1552313631844,"click_time":1552313632939,"finger_time":1552313632557,"fix_duration":583.2735384818974,"trial":54,"RT":713,"MT":382,"sideResp":1,"stimulus":"img/750/equaldotanddens/L/13_Ratio_750_L_8_R_6.png","xmouse":[792,792,792,792,792,790,790,788,785,785,785,785,785,785,785,785,785,785,785,785,785,785,785,785,785,785,785,785,785,785,785,785,783,767,747,720,684,648,594,566,555,546,541,533,529,527,526,526,525,525,524,522,520,509,504],"ymouse":[534,534,534,534,534,533,531,524,514,513,513,513,513,513,513,513,513,513,513,513,513,513,513,513,513,513,513,513,513,513,513,512,512,500,482,451,410,367,295,249,225,202,181,152,143,139,134,132,126,123,121,117,113,103,99],"timestamp_mouse":[15,34,54,75,95,115,133,155,175,195,213,235,255,275,294,314,334,353,375,394,414,435,455,474,494,515,535,554,574,595,615,634,654,674,695,713,734,755,774,795,814,834,854,875,894,914,934,955,973,994,1013,1034,1055,1074,1095],"xSR":741.5,"ySR":469.95,"xT1":424.9,"yT1":0,"xT2":1058.1,"yT2":0,"toosoon":0,"cond_shown":"equaldotanddens","ratio_trial":750,"smaller_num":"6","larger_num":"8","correct_side":1,"subjID":"isabellaramos25","gender":"1","age":"9","school":"4"},{"start_time":1552313635380,"click_time":1552313636658,"finger_time":1552313636238,"fix_duration":1498.0061027591905,"trial":55,"RT":858,"MT":420,"sideResp":1,"stimulus":"img/500/equaldotsize/L/7_Ratio_500_L_10_R_5.png","xmouse":[783,783,783,783,783,783,783,783,783,783,783,783,783,783,783,783,783,783,783,783,783,783,783,783,783,783,783,783,783,783,783,783,783,783,783,783,783,783,783,783,783,783,772,749,712,663,603,496,461,439,424,420,403,396,392,391,391,391,393,397,400,408,413,424,427],"ymouse":[489,489,489,489,489,489,489,489,489,489,489,489,489,489,489,489,489,489,489,489,489,489,489,489,489,489,489,489,489,489,489,489,489,489,489,489,489,489,489,489,489,489,476,447,405,355,299,211,175,148,112,99,53,45,41,40,40,40,40,40,40,40,40,40,40],"timestamp_mouse":[1,18,38,59,79,97,119,138,159,179,198,218,238,259,279,297,319,338,359,378,398,419,438,458,479,498,519,538,558,578,597,619,637,658,679,699,718,738,757,779,797,819,838,858,878,898,918,938,958,977,997,1018,1038,1059,1078,1099,1118,1139,1159,1179,1198,1217,1238,1258,1278],"xSR":741.5,"ySR":469.95,"xT1":424.9,"yT1":0,"xT2":1058.1,"yT2":0,"toosoon":0,"cond_shown":"equaldotsize","ratio_trial":500,"smaller_num":"5","larger_num":"10","correct_side":1,"subjID":"isabellaramos25","gender":"1","age":"9","school":"4"},{"start_time":1552313639258,"click_time":1552313640758,"finger_time":1552313640118,"fix_duration":1476.466549453999,"trial":56,"RT":860,"MT":640,"sideResp":2,"stimulus":"img/900/equaldotsize/R/7_Ratio_900_L_9_R_10.png","xmouse":[785,785,785,785,785,785,785,785,785,785,785,785,785,785,785,785,785,785,785,785,785,785,785,785,785,785,785,785,785,785,785,785,785,785,785,785,785,785,785,786,787,789,793,802,824,846,863,879,892,926,945,964,981,996,1014,1020,1025,1029,1035,1053,1060,1066,1067,1068,1068,1068,1068,1068,1068,1068,1068,1068,1068,1069,1070,1070],"ymouse":[514,514,514,514,514,514,514,514,514,514,514,514,514,514,514,514,514,514,514,514,514,514,514,514,514,514,514,514,514,514,514,514,514,514,514,514,514,514,513,507,498,489,475,456,410,373,344,320,297,257,235,217,202,192,178,172,166,160,153,134,124,117,113,109,107,107,107,107,107,107,107,107,106,104,101,99],"timestamp_mouse":[8,26,40,61,79,101,120,141,160,181,200,221,241,259,280,299,319,341,361,379,400,420,441,461,479,501,520,541,560,579,601,621,641,661,681,700,720,739,761,779,800,821,840,860,880,900,921,941,961,980,1000,1021,1041,1060,1080,1099,1120,1141,1161,1181,1201,1220,1240,1260,1281,1301,1319,1339,1361,1381,1401,1421,1440,1460,1480,1499],"xSR":741.5,"ySR":469.95,"xT1":424.9,"yT1":0,"xT2":1058.1,"yT2":0,"toosoon":0,"cond_shown":"equaldotsize","ratio_trial":900,"smaller_num":"9","larger_num":"10","correct_side":2,"subjID":"isabellaramos25","gender":"1","age":"9","school":"4"},{"start_time":1552313642637,"click_time":1552313643659,"finger_time":1552313643359,"fix_duration":698.959073357826,"trial":57,"RT":722,"MT":300,"sideResp":1,"stimulus":"img/500/equaldotsize/L/4_Ratio_500_L_18_R_9.png","xmouse":[806,806,806,806,806,806,806,806,806,806,806,806,806,806,806,806,806,806,806,806,806,806,806,806,806,806,806,806,806,806,806,806,806,806,806,790,761,729,699,678,643,625,605,581,566,550,549,548,546,542,526,515],"ymouse":[514,514,514,514,514,514,514,514,514,514,514,514,514,514,514,514,514,514,514,514,514,514,514,514,514,514,514,514,514,514,514,514,514,514,514,499,469,436,392,345,246,200,159,132,113,99,96,96,92,88,79,75],"timestamp_mouse":[9,28,41,61,82,101,121,142,162,181,202,221,241,262,281,301,322,341,361,382,402,421,441,460,481,502,520,541,561,580,601,622,642,660,682,701,722,740,760,782,801,820,841,861,882,901,920,942,962,981,1000,1022],"xSR":741.5,"ySR":469.95,"xT1":424.9,"yT1":0,"xT2":1058.1,"yT2":0,"toosoon":0,"cond_shown":"equaldotsize","ratio_trial":500,"smaller_num":"9","larger_num":"18","correct_side":1,"subjID":"isabellaramos25","gender":"1","age":"9","school":"4"},{"start_time":1552313645512,"click_time":1552313646579,"finger_time":1552313646259,"fix_duration":1091.6859294867152,"trial":58,"RT":747,"MT":320,"sideResp":1,"stimulus":"img/900/equaldotanddens/R/7_Ratio_900_L_9_R_10.png","xmouse":[788,788,788,788,788,788,788,788,788,788,788,788,788,788,788,788,788,788,788,788,788,788,788,788,788,788,788,788,788,788,788,788,788,788,788,789,786,762,723,709,674,660,648,642,638,634,618,608,595,573,561,552,528,514],"ymouse":[514,514,514,514,514,514,514,514,514,514,514,514,514,514,514,514,514,514,514,514,514,514,514,514,514,514,514,514,514,514,514,514,514,514,514,510,499,443,355,331,268,242,209,198,187,178,153,138,123,101,90,80,68,66],"timestamp_mouse":[8,36,47,66,85,106,127,147,166,186,207,226,247,266,287,307,327,347,366,385,407,427,447,465,486,507,526,546,566,587,606,627,647,667,685,706,727,747,767,787,807,827,846,866,885,905,927,946,966,986,1006,1025,1045,1067],"xSR":741.5,"ySR":469.95,"xT1":424.9,"yT1":0,"xT2":1058.1,"yT2":0,"toosoon":0,"cond_shown":"equaldotanddens","ratio_trial":900,"smaller_num":"9","larger_num":"10","correct_side":2,"subjID":"isabellaramos25","gender":"1","age":"9","school":"4"},{"start_time":1552313648242,"click_time":1552313649419,"finger_time":1552313649019,"fix_duration":582.9843308796338,"trial":59,"RT":777,"MT":400,"sideResp":1,"stimulus":"img/250/randomdotsizeEA/L/5_Ratio_250_L_24_R_6.png","xmouse":[792,792,792,792,792,792,792,792,792,792,792,792,792,792,792,792,792,792,792,792,792,792,792,792,792,792,792,792,792,792,792,792,792,792,792,792,781,770,734,697,609,574,553,537,537,537,537,537,537,537,537,537,537,537,537,537,537,537,426],"ymouse":[511,511,511,511,511,511,511,511,511,511,511,511,511,511,511,511,511,511,511,511,511,511,511,511,511,511,511,511,511,511,511,511,511,511,511,511,495,474,408,334,151,87,36,3,3,3,3,3,3,3,3,3,3,3,3,3,3,3,4],"timestamp_mouse":[27,36,55,76,96,117,135,156,176,197,215,236,257,275,297,316,337,355,376,397,415,437,457,475,497,517,537,555,576,597,615,635,657,677,696,717,736,756,777,797,815,836,855,876,897,916,936,957,976,996,1016,1036,1057,1076,1097,1117,1136,1156,1177],"xSR":741.5,"ySR":469.95,"xT1":424.9,"yT1":0,"xT2":1058.1,"yT2":0,"toosoon":0,"cond_shown":"randomdotsizeEA","ratio_trial":250,"smaller_num":"6","larger_num":"24","correct_side":1,"subjID":"isabellaramos25","gender":"1","age":"9","school":"4"},{"start_time":1552313653005,"click_time":1552313654078,"finger_time":1552313653719,"fix_duration":866.6761018941453,"trial":60,"RT":714,"MT":359,"sideResp":1,"stimulus":"img/500/equaldotsize/L/11_Ratio_500_L_12_R_6.png","xmouse":[779,779,779,779,779,779,779,779,779,779,779,779,779,779,779,779,779,779,779,779,779,779,779,779,779,779,779,779,779,779,779,779,779,775,768,760,746,715,690,652,620,590,575,570,565,557,551,534,524,515,505,494,488,482],"ymouse":[515,515,515,515,515,515,515,515,515,515,515,515,515,515,515,515,515,515,515,515,515,515,515,515,515,515,515,515,515,515,515,515,513,492,476,458,436,396,371,344,326,308,289,275,260,243,229,195,179,162,144,125,110,94],"timestamp_mouse":[13,34,53,73,94,113,132,153,173,193,213,234,253,274,293,314,333,354,374,393,414,433,453,474,493,514,533,553,574,594,614,633,653,674,694,714,733,753,773,793,814,833,852,872,893,913,933,954,972,994,1013,1034,1053,1073],"xSR":741.5,"ySR":469.95,"xT1":424.9,"yT1":0,"xT2":1058.1,"yT2":0,"toosoon":0,"cond_shown":"equaldotsize","ratio_trial":500,"smaller_num":"6","larger_num":"12","correct_side":1,"subjID":"isabellaramos25","gender":"1","age":"9","school":"4"},{"start_time":1552313656445,"click_time":1552313657658,"finger_time":1552313657259,"fix_duration":1186.3145192518637,"trial":61,"RT":814,"MT":399,"sideResp":1,"stimulus":"img/750/randomdotsizeEA/L/13_Ratio_750_L_8_R_6.png","xmouse":[798,798,798,798,798,798,798,798,798,798,798,798,798,798,798,798,798,798,798,798,798,798,798,798,798,798,798,798,798,798,798,798,798,798,798,798,798,798,797,794,783,774,762,742,728,716,694,682,670,657,641,608,594,578,562,537,525,511,494,485,475],"ymouse":[503,503,503,503,503,503,503,503,503,503,503,503,503,503,503,503,503,503,503,503,503,503,503,503,503,503,503,503,503,503,503,503,503,503,503,503,503,503,497,491,450,420,386,343,308,282,249,234,224,217,211,195,185,177,167,150,141,130,112,101,90],"timestamp_mouse":[13,33,53,74,92,114,133,154,174,192,214,234,253,272,294,313,333,353,373,394,413,433,453,474,493,513,533,552,572,594,613,634,654,674,693,714,734,754,774,794,814,833,853,874,892,913,933,953,974,994,1014,1033,1053,1074,1094,1114,1132,1152,1173,1193,1213],"xSR":741.5,"ySR":469.95,"xT1":424.9,"yT1":0,"xT2":1058.1,"yT2":0,"toosoon":0,"cond_shown":"randomdotsizeEA","ratio_trial":750,"smaller_num":"6","larger_num":"8","correct_side":1,"subjID":"isabellaramos25","gender":"1","age":"9","school":"4"},{"start_time":1552313659723,"click_time":1552313660998,"finger_time":1552313660358,"fix_duration":1101.8248015866843,"trial":62,"RT":635,"MT":640,"sideResp":2,"stimulus":"img/500/equaldotanddens/R/1_Ratio_500_L_9_R_18.png","xmouse":[786,786,786,786,786,786,786,786,786,786,786,786,786,786,786,786,786,786,786,786,786,786,786,786,786,786,786,788,789,790,790,790,765,727,684,652,629,615,612,610,610,610,604,598,589,579,568,546,537,531,529,528,529,537,549,566,592,651,694,756,824,897,1044,1083],"ymouse":[515,515,515,515,515,515,515,515,515,515,515,515,515,515,515,515,515,515,515,515,515,515,515,515,515,515,513,506,498,487,471,438,377,345,321,293,274,252,242,232,221,206,159,138,116,94,74,43,31,24,21,20,20,21,24,29,36,50,58,66,73,75,75,75],"timestamp_mouse":[15,35,55,76,96,116,136,156,176,196,215,234,256,276,296,315,336,355,376,396,415,436,455,475,496,515,535,555,575,595,615,635,655,674,696,716,734,755,776,796,815,835,855,875,895,914,936,955,974,995,1014,1036,1055,1075,1095,1115,1135,1156,1175,1195,1215,1236,1256,1274],"xSR":741.5,"ySR":469.95,"xT1":424.9,"yT1":0,"xT2":1058.1,"yT2":0,"toosoon":0,"cond_shown":"equaldotanddens","ratio_trial":500,"smaller_num":"9","larger_num":"18","correct_side":2,"subjID":"isabellaramos25","gender":"1","age":"9","school":"4"},{"start_time":1552313662981,"click_time":1552313664179,"finger_time":1552313663839,"fix_duration":840.8313947672892,"trial":63,"RT":858,"MT":340,"sideResp":1,"stimulus":"img/500/randomdotsizeEA/L/7_Ratio_500_L_10_R_5.png","xmouse":[778,778,778,778,778,778,778,778,778,778,778,778,778,778,778,778,778,778,778,778,778,778,778,778,778,778,778,778,778,778,778,778,778,778,778,778,778,778,778,778,780,783,785,786,786,782,771,747,728,706,674,660,649,637,611,597,580,546,529,492],"ymouse":[490,490,490,490,490,490,490,490,490,490,490,490,490,490,490,490,490,490,490,490,490,490,490,490,490,490,490,490,490,490,490,490,490,490,490,490,490,490,490,491,487,476,460,443,416,401,381,350,324,297,253,228,210,190,153,137,120,88,69,31],"timestamp_mouse":[16,36,57,78,97,118,137,157,177,197,217,236,258,276,298,317,338,356,378,397,417,437,458,477,496,518,538,556,577,597,618,638,658,678,698,717,737,758,777,796,817,838,858,876,898,917,937,957,977,999,1018,1038,1056,1078,1098,1117,1137,1157,1176,1197],"xSR":741.5,"ySR":469.95,"xT1":424.9,"yT1":0,"xT2":1058.1,"yT2":0,"toosoon":0,"cond_shown":"randomdotsizeEA","ratio_trial":500,"smaller_num":"5","larger_num":"10","correct_side":1,"subjID":"isabellaramos25","gender":"1","age":"9","school":"4"},{"start_time":1552313665988,"click_time":1552313667198,"finger_time":1552313666719,"fix_duration":1069.7803830930413,"trial":64,"RT":731,"MT":479,"sideResp":2,"stimulus":"img/250/equaldotsize/R/4_Ratio_250_L_3_R_12.png","xmouse":[795,795,795,795,795,795,795,795,795,795,795,795,795,795,795,795,795,795,795,795,795,795,795,795,795,795,795,795,795,795,795,795,795,795,795,833,892,980,1075,1169,1292,1317,1323,1325,1325,1321,1318,1317,1313,1310,1278,1256,1237,1224,1215,1198,1191,1181,1173,1165,1153],"ymouse":[516,516,516,516,516,516,516,516,516,516,516,516,516,516,516,516,516,516,516,516,516,516,516,516,516,516,516,516,516,516,516,516,516,516,517,481,427,359,290,236,152,128,119,113,108,98,90,86,81,79,72,68,66,64,62,62,62,62,62,62,62],"timestamp_mouse":[18,35,50,70,90,109,131,150,170,190,211,231,250,270,290,310,330,351,371,390,411,431,450,469,490,510,530,551,571,591,610,631,650,670,690,710,731,749,770,791,809,830,849,869,890,910,930,949,970,990,1010,1029,1050,1071,1090,1110,1130,1151,1170,1191,1210],"xSR":741.5,"ySR":469.95,"xT1":424.9,"yT1":0,"xT2":1058.1,"yT2":0,"toosoon":0,"cond_shown":"equaldotsize","ratio_trial":250,"smaller_num":"3","larger_num":"12","correct_side":2,"subjID":"isabellaramos25","gender":"1","age":"9","school":"4"},{"start_time":1552313668337,"click_time":1552313669458,"finger_time":1552313669098,"fix_duration":376.71955955058667,"trial":65,"RT":761,"MT":360,"sideResp":1,"stimulus":"img/900/equaldotanddens/L/4_Ratio_900_L_20_R_18.png","xmouse":[793,793,793,793,793,793,793,793,793,793,793,793,793,793,793,793,793,793,793,793,793,793,793,793,793,793,793,793,793,793,793,793,792,792,792,792,791,791,781,770,754,735,717,677,658,645,633,624,596,584,575,568,559,539,533,525,515],"ymouse":[538,538,538,538,538,538,538,538,538,538,538,538,538,538,538,538,538,538,538,538,538,538,538,538,538,538,5