[{"start_time":1552312758994,"click_time":1552312762080,"finger_time":1552312761700,"fix_duration":1409.1858027756425,"trial":0,"RT":2706,"MT":380,"sideResp":2,"stimulus":[],"xmouse":[756,756,756,756,756,756,756,756,756,756,756,756,756,756,756,756,756,756,756,756,756,756,756,756,756,756,756,756,756,756,756,756,756,756,756,756,756,756,756,756,756,756,756,756,756,756,756,756,756,756,756,756,756,756,756,756,756,756,756,756,756,756,756,756,756,756,756,756,756,756,756,756,756,756,756,756,756,756,756,756,756,756,756,756,756,756,756,756,756,756,756,756,756,756,756,756,756,757,757,757,757,757,757,757,757,757,757,757,757,757,763,781,790,796,813,813,813,813,813,813,813,813,813,813,813,814,814,814,814,814,814,814,814,815,817,844,869,895,917,947,962,982,1006,1026,1051,1061,1063,1063,1064,1065,1066,1069,1080,1101,1146],"ymouse":[520,520,520,520,520,520,520,520,520,520,520,520,520,520,520,520,520,520,520,520,520,520,520,520,520,520,520,520,520,520,520,520,520,520,520,520,520,520,520,520,520,520,520,520,520,520,520,520,520,520,520,520,520,520,520,520,520,520,520,520,520,520,520,520,520,520,520,520,520,520,520,520,520,520,520,520,520,520,520,520,520,520,520,520,520,520,520,520,520,520,520,520,520,520,520,520,520,520,520,520,520,520,520,520,520,520,520,520,520,520,520,520,520,519,503,502,502,502,502,502,502,502,502,502,502,501,497,496,496,496,496,496,496,495,490,444,408,370,333,285,267,245,230,219,203,195,193,193,192,190,187,178,155,105,4],"timestamp_mouse":[8,31,44,66,85,106,124,144,165,185,204,225,245,265,284,305,325,346,366,384,406,425,445,465,486,505,526,546,566,585,606,624,644,666,685,704,726,745,765,785,805,825,844,865,886,904,925,946,964,986,1005,1025,1046,1065,1086,1106,1125,1146,1166,1186,1206,1225,1245,1264,1284,1306,1325,1346,1365,1386,1406,1425,1445,1466,1485,1505,1524,1544,1565,1586,1604,1625,1646,1665,1686,1705,1726,1744,1765,1786,1806,1825,1846,1866,1886,1906,1925,1944,1965,1986,2006,2026,2046,2066,2086,2104,2125,2146,2166,2186,2204,2226,2245,2265,2284,2305,2326,2346,2366,2385,2406,2425,2446,2464,2485,2505,2524,2545,2564,2585,2605,2625,2645,2665,2685,2706,2725,2745,2765,2784,2804,2825,2845,2866,2884,2906,2925,2946,2964,2985,3005,3025,3045,3065,3084],"xSR":741.5,"ySR":469.95,"xT1":424.9,"yT1":0,"xT2":1058.1,"yT2":0,"toosoon":0,"cond_shown":"Congruent","ratio_trial":100,"L_num":2,"L_den":5,"R_num":11,"R_den":22,"correct_side":2,"subjID":"isabellaramos25","gender":"1","age":"9","school":"4","test":{"fix_dur":[250,1500],"timestim":1000,"targets_dim":[100,100],"targets_relative_coord":[0.3,0.7],"size_stim":[880,420],"start_dim":[100,100],"size_start":[300,300],"size_fix":60,"samplingrate":20,"img_types":["Congruent","Incongruent"],"ratios":[100,200,300],"rep_conds":19,"nTrials":120,"trials_to_rest":500,"Trials_order":[42,13,11,97,82,35,62,60,100,8,85,17,27,94,49,88,23,38,15,111,92,68,7,1,61,47,71,103,58,3,81,83,70,73,59,101,75,107,43,20,72,44,76,0,113,86,29,116,69,9,118,115,99,51,95,79,56,34,5,89,110,114,46,80,10,4,28,21,102,50,16,39,77,65,54,78,30,93,106,57,36,22,40,12,87,18,112,64,55,53,96,117,67,52,119,105,98,104,45,2,6,14,24,48,91,32,19,84,25,33,26,41,63,109,66,74,108,90,31,37],"cond_shown":["Congruent","Incongruent","Incongruent","Incongruent","Congruent","Incongruent","Congruent","Congruent","Congruent","Congruent","Incongruent","Incongruent","Incongruent","Congruent","Incongruent","Congruent","Incongruent","Congruent","Incongruent","Incongruent","Congruent","Congruent","Incongruent","Incongruent","Incongruent","Incongruent","Incongruent","Incongruent","Congruent","Incongruent","Incongruent","Incongruent","Congruent","Incongruent","Incongruent","Incongruent","Incongruent","Incongruent","Incongruent","Congruent","Congruent","Congruent","Congruent","Congruent","Incongruent","Congruent","Incongruent","Congruent","Incongruent","Incongruent","Congruent","Incongruent","Incongruent","Incongruent","Incongruent","Incongruent","Congruent","Congruent","Incongruent","Incongruent","Congruent","Congruent","Congruent","Congruent","Congruent","Congruent","Congruent","Incongruent","Congruent","Congruent","Congruent","Incongruent","Incongruent","Incongruent","Congruent","Congruent","Congruent","Incongruent","Congruent","Incongruent","Congruent","Congruent","Congruent","Congruent","Incongruent","Congruent","Congruent","Congruent","Incongruent","Incongruent","Congruent","Incongruent","Incongruent","Congruent","Incongruent","Incongruent","Congruent","Congruent","Incongruent","Congruent","Congruent","Congruent","Congruent","Congruent","Incongruent","Congruent","Incongruent","Congruent","Incongruent","Incongruent","Congruent","Incongruent","Incongruent","Incongruent","Congruent","Congruent","Congruent","Congruent","Incongruent","Incongruent"],"ratio_trial":[100,100,300,100,300,300,200,100,300,200,100,300,200,300,100,300,300,200,200,200,200,200,100,100,100,300,300,100,300,200,200,300,300,100,300,300,200,300,100,200,100,200,300,100,300,200,300,200,200,200,300,100,200,200,300,100,200,300,300,300,200,100,300,200,300,300,300,200,100,200,300,200,300,300,100,100,100,200,300,200,100,300,300,100,200,100,300,300,100,300,100,200,100,300,300,200,200,200,200,200,100,200,100,100,100,200,100,100,100,200,200,300,200,100,100,200,100,100,100,100],"left_num":[2,12,8,13,2,4,20,15,4,3,6,4,4,1,8,4,13,4,14,4,14,7,11,8,2,13,3,3,9,3,14,4,3,6,8,1,7,2,3,13,10,9,1,4,7,9,4,3,14,4,1,12,3,1,8,3,7,11,4,13,4,10,1,21,4,8,2,3,7,1,3,9,3,4,10,4,1,4,5,4,11,1,4,2,4,4,8,4,2,4,11,4,3,8,3,4,3,7,1,9,6,7,9,3,9,3,8,3,12,11,5,4,4,2,4,6,6,2,2,6],"right_num":[11,2,14,6,10,2,9,13,13,14,7,2,14,7,6,13,12,3,12,14,6,2,9,1,6,12,4,7,3,11,12,2,4,13,14,2,8,6,11,14,3,13,19,15,8,13,2,14,6,6,6,9,11,2,9,8,2,2,2,12,3,3,11,2,1,10,12,11,15,21,2,8,4,6,3,15,18,6,6,1,6,8,1,11,1,6,10,13,8,2,6,6,8,1,4,14,9,18,2,13,5,18,8,2,20,7,6,4,9,3,14,2,1,8,15,11,5,6,6,3],"left_den":[5,30,10,26,20,20,25,25,20,10,10,20,6,20,16,20,26,8,30,6,28,21,22,20,4,26,6,9,10,4,30,20,6,10,10,2,10,4,5,26,25,30,3,10,10,30,20,10,30,5,5,24,4,3,10,5,21,22,20,26,8,25,5,30,10,15,10,4,14,2,6,15,6,5,25,10,2,5,25,30,22,30,10,5,30,8,15,20,4,20,22,5,5,16,6,6,12,15,3,30,20,15,15,6,10,10,16,20,24,20,10,20,30,4,10,20,20,5,4,12],"right_den":[22,4,28,10,25,4,15,26,26,28,14,4,30,20,10,26,15,10,18,30,20,15,15,2,15,15,20,30,5,20,18,4,5,26,28,10,16,30,22,20,10,26,30,30,20,26,4,28,9,10,12,15,20,15,18,16,15,10,4,15,10,10,22,4,10,12,24,20,25,30,10,10,20,12,10,30,30,10,12,3,15,24,10,22,3,10,12,26,20,4,15,10,16,5,20,30,20,27,15,26,25,27,16,5,25,14,10,16,15,4,20,4,3,20,30,22,25,12,15,5],"correct_side":[2,2,1,2,2,2,1,1,2,2,1,2,1,2,2,2,2,1,2,1,1,1,2,2,1,2,1,1,1,1,2,2,2,1,1,1,1,1,1,2,1,2,2,2,1,2,2,2,2,1,2,2,1,1,1,1,1,1,2,2,1,1,2,1,1,2,2,1,2,2,1,2,1,1,1,2,2,1,2,2,1,2,1,2,2,2,2,2,1,2,1,1,1,1,1,1,2,2,1,2,1,2,1,1,1,2,2,2,2,2,2,2,2,1,2,2,1,2,1,2],"img_shown":["img2/100/Congruent/R/C_Dist_100_LN_2_LD_5_RN_11_RD_22_1.png","img2/100/Incongruent/R/I_Dist_100_LN_12_LD_30_RN_2_RD_4_1.png","img2/300/Incongruent/L/I_Dist_300_LN_8_LD_10_RN_14_RD_28_0.png","img2/100/Incongruent/R/I_Dist_100_LN_13_LD_26_RN_6_RD_10_1.png","img2/300/Congruent/R/C_Dist_300_LN_2_LD_20_RN_10_RD_25_1.png","img2/300/Incongruent/R/I_Dist_300_LN_4_LD_20_RN_2_RD_4_1.png","img2/200/Congruent/L/C_Dist_200_LN_20_LD_25_RN_9_RD_15_0.png","img2/100/Congruent/L/C_Dist_100_LN_15_LD_25_RN_13_RD_26_0.png","img2/300/Congruent/R/C_Dist_300_LN_4_LD_20_RN_13_RD_26_1.png","img2/200/Congruent/R/C_Dist_200_LN_3_LD_10_RN_14_RD_28_1.png","img2/100/Incongruent/L/I_Dist_100_LN_6_LD_10_RN_7_RD_14_0.png","img2/300/Incongruent/R/I_Dist_300_LN_4_LD_20_RN_2_RD_4_1.png","img2/200/Incongruent/L/I_Dist_200_LN_4_LD_6_RN_14_RD_30_0.png","img2/300/Congruent/R/C_Dist_300_LN_1_LD_20_RN_7_RD_20_1.png","img2/100/Incongruent/R/I_Dist_100_LN_8_LD_16_RN_6_RD_10_1.png","img2/300/Congruent/R/C_Dist_300_LN_4_LD_20_RN_13_RD_26_1.png","img2/300/Incongruent/R/I_Dist_300_LN_13_LD_26_RN_12_RD_15_1.png","img2/200/Congruent/L/C_Dist_200_LN_4_LD_8_RN_3_RD_10_0.png","img2/200/Incongruent/R/I_Dist_200_LN_14_LD_30_RN_12_RD_18_1.png","img2/200/Incongruent/L/I_Dist_200_LN_4_LD_6_RN_14_RD_30_0.png","img2/200/Congruent/L/C_Dist_200_LN_14_LD_28_RN_6_RD_20_0.png","img2/200/Congruent/L/C_Dist_200_LN_7_LD_21_RN_2_RD_15_0.png","img2/100/Incongruent/R/I_Dist_100_LN_11_LD_22_RN_9_RD_15_1.png","img2/100/Incongruent/R/I_Dist_100_LN_8_LD_20_RN_1_RD_2_1.png","img2/100/Incongruent/L/I_Dist_100_LN_2_LD_4_RN_6_RD_15_0.png","img2/300/Incongruent/R/I_Dist_300_LN_13_LD_26_RN_12_RD_15_1.png","img2/300/Incongruent/L/I_Dist_300_LN_3_LD_6_RN_4_RD_20_0.png","img2/100/Incongruent/L/I_Dist_100_LN_3_LD_9_RN_7_RD_30_0.png","img2/300/Congruent/L/C_Dist_300_LN_9_LD_10_RN_3_RD_5_0.png","img2/200/Incongruent/L/I_Dist_200_LN_3_LD_4_RN_11_RD_20_0.png","img2/200/Incongruent/R/I_Dist_200_LN_14_LD_30_RN_12_RD_18_1.png","img2/300/Incongruent/R/I_Dist_300_LN_4_LD_20_RN_2_RD_4_1.png","img2/300/Congruent/R/C_Dist_300_LN_3_LD_6_RN_4_RD_5_1.png","img2/100/Incongruent/L/I_Dist_100_LN_6_LD_10_RN_13_RD_26_0.png","img2/300/Incongruent/L/I_Dist_300_LN_8_LD_10_RN_14_RD_28_0.png","img2/300/Incongruent/L/I_Dist_300_LN_1_LD_2_RN_2_RD_10_0.png","img2/200/Incongruent/L/I_Dist_200_LN_7_LD_10_RN_8_RD_16_0.png","img2/300/Incongruent/L/I_Dist_300_LN_2_LD_4_RN_6_RD_30_0.png","img2/100/Incongruent/L/I_Dist_100_LN_3_LD_5_RN_11_RD_22_0.png","img2/200/Congruent/R/C_Dist_200_LN_13_LD_26_RN_14_RD_20_1.png","img2/100/Congruent/L/C_Dist_100_LN_10_LD_25_RN_3_RD_10_0.png","img2/200/Congruent/R/C_Dist_200_LN_9_LD_30_RN_13_RD_26_1.png","img2/300/Congruent/R/C_Dist_300_LN_1_LD_3_RN_19_RD_30_1.png","img2/100/Congruent/R/C_Dist_100_LN_4_LD_10_RN_15_RD_30_1.png","img2/300/Incongruent/L/I_Dist_300_LN_7_LD_10_RN_8_RD_20_0.png","img2/200/Congruent/R/C_Dist_200_LN_9_LD_30_RN_13_RD_26_1.png","img2/300/Incongruent/R/I_Dist_300_LN_4_LD_20_RN_2_RD_4_1.png","img2/200/Congruent/R/C_Dist_200_LN_3_LD_10_RN_14_RD_28_1.png","img2/200/Incongruent/R/I_Dist_200_LN_14_LD_30_RN_6_RD_9_1.png","img2/200/Incongruent/L/I_Dist_200_LN_4_LD_5_RN_6_RD_10_0.png","img2/300/Congruent/R/C_Dist_300_LN_1_LD_5_RN_6_RD_12_1.png","img2/100/Incongruent/R/I_Dist_100_LN_12_LD_24_RN_9_RD_15_1.png","img2/200/Incongruent/L/I_Dist_200_LN_3_LD_4_RN_11_RD_20_0.png","img2/200/Incongruent/L/I_Dist_200_LN_1_LD_3_RN_2_RD_15_0.png","img2/300/Incongruent/L/I_Dist_300_LN_8_LD_10_RN_9_RD_18_0.png","img2/100/Incongruent/L/I_Dist_100_LN_3_LD_5_RN_8_RD_16_0.png","img2/200/Congruent/L/C_Dist_200_LN_7_LD_21_RN_2_RD_15_0.png","img2/300/Congruent/L/C_Dist_300_LN_11_LD_22_RN_2_RD_10_0.png","img2/300/Incongruent/R/I_Dist_300_LN_4_LD_20_RN_2_RD_4_1.png","img2/300/Incongruent/R/I_Dist_300_LN_13_LD_26_RN_12_RD_15_1.png","img2/200/Congruent/L/C_Dist_200_LN_4_LD_8_RN_3_RD_10_0.png","img2/100/Congruent/L/C_Dist_100_LN_10_LD_25_RN_3_RD_10_0.png","img2/300/Congruent/R/C_Dist_300_LN_1_LD_5_RN_11_RD_22_1.png","img2/200/Congruent/L/C_Dist_200_LN_21_LD_30_RN_2_RD_4_0.png","img2/300/Congruent/L/C_Dist_300_LN_4_LD_10_RN_1_RD_10_0.png","img2/300/Congruent/R/C_Dist_300_LN_8_LD_15_RN_10_RD_12_1.png","img2/300/Congruent/R/C_Dist_300_LN_2_LD_10_RN_12_RD_24_1.png","img2/200/Incongruent/L/I_Dist_200_LN_3_LD_4_RN_11_RD_20_0.png","img2/100/Congruent/R/C_Dist_100_LN_7_LD_14_RN_15_RD_25_1.png","img2/200/Congruent/R/C_Dist_200_LN_1_LD_2_RN_21_RD_30_1.png","img2/300/Congruent/L/C_Dist_300_LN_3_LD_6_RN_2_RD_10_0.png","img2/200/Incongruent/R/I_Dist_200_LN_9_LD_15_RN_8_RD_10_1.png","img2/300/Incongruent/L/I_Dist_300_LN_3_LD_6_RN_4_RD_20_0.png","img2/300/Incongruent/L/I_Dist_300_LN_4_LD_5_RN_6_RD_12_0.png","img2/100/Congruent/L/C_Dist_100_LN_10_LD_25_RN_3_RD_10_0.png","img2/100/Congruent/R/C_Dist_100_LN_4_LD_10_RN_15_RD_30_1.png","img2/100/Congruent/R/C_Dist_100_LN_1_LD_2_RN_18_RD_30_1.png","img2/200/Incongruent/L/I_Dist_200_LN_4_LD_5_RN_6_RD_10_0.png","img2/300/Congruent/R/C_Dist_300_LN_5_LD_25_RN_6_RD_12_1.png","img2/200/Incongruent/R/I_Dist_200_LN_4_LD_30_RN_1_RD_3_1.png","img2/100/Congruent/L/C_Dist_100_LN_11_LD_22_RN_6_RD_15_0.png","img2/300/Congruent/R/C_Dist_300_LN_1_LD_30_RN_8_RD_24_1.png","img2/300/Congruent/L/C_Dist_300_LN_4_LD_10_RN_1_RD_10_0.png","img2/100/Congruent/R/C_Dist_100_LN_2_LD_5_RN_11_RD_22_1.png","img2/200/Incongruent/R/I_Dist_200_LN_4_LD_30_RN_1_RD_3_1.png","img2/100/Congruent/R/C_Dist_100_LN_4_LD_8_RN_6_RD_10_1.png","img2/300/Congruent/R/C_Dist_300_LN_8_LD_15_RN_10_RD_12_1.png","img2/300/Congruent/R/C_Dist_300_LN_4_LD_20_RN_13_RD_26_1.png","img2/100/Incongruent/L/I_Dist_100_LN_2_LD_4_RN_8_RD_20_0.png","img2/300/Incongruent/R/I_Dist_300_LN_4_LD_20_RN_2_RD_4_1.png","img2/100/Congruent/L/C_Dist_100_LN_11_LD_22_RN_6_RD_15_0.png","img2/200/Incongruent/L/I_Dist_200_LN_4_LD_5_RN_6_RD_10_0.png","img2/100/Incongruent/L/I_Dist_100_LN_3_LD_5_RN_8_RD_16_0.png","img2/300/Congruent/L/C_Dist_300_LN_8_LD_16_RN_1_RD_5_0.png","img2/300/Incongruent/L/I_Dist_300_LN_3_LD_6_RN_4_RD_20_0.png","img2/200/Incongruent/L/I_Dist_200_LN_4_LD_6_RN_14_RD_30_0.png","img2/200/Congruent/R/C_Dist_200_LN_3_LD_12_RN_9_RD_20_1.png","img2/200/Congruent/R/C_Dist_200_LN_7_LD_15_RN_18_RD_27_1.png","img2/200/Incongruent/L/I_Dist_200_LN_1_LD_3_RN_2_RD_15_0.png","img2/200/Congruent/R/C_Dist_200_LN_9_LD_30_RN_13_RD_26_1.png","img2/100/Congruent/L/C_Dist_100_LN_6_LD_20_RN_5_RD_25_0.png","img2/200/Congruent/R/C_Dist_200_LN_7_LD_15_RN_18_RD_27_1.png","img2/100/Congruent/L/C_Dist_100_LN_9_LD_15_RN_8_RD_16_0.png","img2/100/Congruent/L/C_Dist_100_LN_3_LD_6_RN_2_RD_5_0.png","img2/100/Incongruent/L/I_Dist_100_LN_9_LD_10_RN_20_RD_25_0.png","img2/200/Congruent/R/C_Dist_200_LN_3_LD_10_RN_7_RD_14_1.png","img2/100/Incongruent/R/I_Dist_100_LN_8_LD_16_RN_6_RD_10_1.png","img2/100/Congruent/R/C_Dist_100_LN_3_LD_20_RN_4_RD_16_1.png","img2/100/Incongruent/R/I_Dist_100_LN_12_LD_24_RN_9_RD_15_1.png","img2/200/Incongruent/R/I_Dist_200_LN_11_LD_20_RN_3_RD_4_1.png","img2/200/Congruent/R/C_Dist_200_LN_5_LD_10_RN_14_RD_20_1.png","img2/300/Incongruent/R/I_Dist_300_LN_4_LD_20_RN_2_RD_4_1.png","img2/200/Incongruent/R/I_Dist_200_LN_4_LD_30_RN_1_RD_3_1.png","img2/100/Incongruent/L/I_Dist_100_LN_2_LD_4_RN_8_RD_20_0.png","img2/100/Congruent/R/C_Dist_100_LN_4_LD_10_RN_15_RD_30_1.png","img2/200/Congruent/R/C_Dist_200_LN_6_LD_20_RN_11_RD_22_1.png","img2/100/Congruent/L/C_Dist_100_LN_6_LD_20_RN_5_RD_25_0.png","img2/100/Congruent/R/C_Dist_100_LN_2_LD_5_RN_6_RD_12_1.png","img2/100/Incongruent/L/I_Dist_100_LN_2_LD_4_RN_6_RD_15_0.png","img2/100/Incongruent/R/I_Dist_100_LN_6_LD_12_RN_3_RD_5_1.png"],"dist100_C":[["C_Dist_100_LN_10_LD_25_RN_3_RD_10_0.png","C_Dist_100_LN_11_LD_22_RN_4_RD_10_0.png","C_Dist_100_LN_11_LD_22_RN_6_RD_15_0.png","C_Dist_100_LN_15_LD_25_RN_13_RD_26_0.png","C_Dist_100_LN_3_LD_6_RN_2_RD_5_0.png","C_Dist_100_LN_6_LD_20_RN_5_RD_25_0.png","C_Dist_100_LN_8_LD_16_RN_2_RD_5_0.png","C_Dist_100_LN_9_LD_15_RN_8_RD_16_0.png"],["C_Dist_100_LN_1_LD_2_RN_18_RD_30_1.png","C_Dist_100_LN_1_LD_2_RN_3_RD_5_1.png","C_Dist_100_LN_12_LD_30_RN_13_RD_26_1.png","C_Dist_100_LN_2_LD_5_RN_11_RD_22_1.png","C_Dist_100_LN_2_LD_5_RN_6_RD_12_1.png","C_Dist_100_LN_3_LD_20_RN_4_RD_16_1.png","C_Dist_100_LN_4_LD_10_RN_15_RD_30_1.png","C_Dist_100_LN_4_LD_8_RN_6_RD_10_1.png","C_Dist_100_LN_6_LD_12_RN_15_RD_25_1.png","C_Dist_100_LN_7_LD_14_RN_15_RD_25_1.png","C_Dist_100_LN_7_LD_14_RN_9_RD_15_1.png"]],"dist100_I":[["I_Dist_100_LN_1_LD_2_RN_8_RD_20_0.png","I_Dist_100_LN_2_LD_4_RN_6_RD_15_0.png","I_Dist_100_LN_2_LD_4_RN_8_RD_20_0.png","I_Dist_100_LN_3_LD_5_RN_11_RD_22_0.png","I_Dist_100_LN_3_LD_5_RN_8_RD_16_0.png","I_Dist_100_LN_3_LD_6_RN_4_RD_10_0.png","I_Dist_100_LN_3_LD_9_RN_7_RD_30_0.png","I_Dist_100_LN_4_LD_8_RN_8_RD_20_0.png","I_Dist_100_LN_6_LD_10_RN_11_RD_22_0.png","I_Dist_100_LN_6_LD_10_RN_13_RD_26_0.png","I_Dist_100_LN_6_LD_10_RN_7_RD_14_0.png","I_Dist_100_LN_9_LD_10_RN_20_RD_25_0.png","I_Dist_100_LN_9_LD_15_RN_13_RD_26_0.png","I_Dist_100_LN_9_LD_15_RN_14_RD_28_0.png"],["I_Dist_100_LN_10_LD_25_RN_8_RD_16_1.png","I_Dist_100_LN_10_LD_25_RN_9_RD_18_1.png","I_Dist_100_LN_11_LD_22_RN_9_RD_15_1.png","I_Dist_100_LN_12_LD_24_RN_9_RD_15_1.png","I_Dist_100_LN_12_LD_30_RN_2_RD_4_1.png","I_Dist_100_LN_13_LD_26_RN_12_RD_20_1.png","I_Dist_100_LN_13_LD_26_RN_6_RD_10_1.png","I_Dist_100_LN_17_LD_30_RN_10_RD_15_1.png","I_Dist_100_LN_6_LD_12_RN_3_RD_5_1.png","I_Dist_100_LN_8_LD_16_RN_6_RD_10_1.png","I_Dist_100_LN_8_LD_20_RN_1_RD_2_1.png","I_Dist_100_LN_9_LD_18_RN_6_RD_10_1.png"]],"dist100_S":[["E_Dist_100_LN_2_LD_12_RN_2_RD_30_0.png","E_Dist_100_LN_6_LD_10_RN_6_RD_12_0.png"],["E_Dist_100_LN_6_LD_12_RN_6_RD_10_1.png"]],"dist200_C":[["C_Dist_200_LN_11_LD_22_RN_3_RD_10_0.png","C_Dist_200_LN_12_LD_15_RN_6_RD_10_0.png","C_Dist_200_LN_12_LD_20_RN_6_RD_15_0.png","C_Dist_200_LN_14_LD_28_RN_6_RD_20_0.png","C_Dist_200_LN_15_LD_25_RN_4_RD_10_0.png","C_Dist_200_LN_16_LD_20_RN_12_RD_20_0.png","C_Dist_200_LN_16_LD_30_RN_9_RD_27_0.png","C_Dist_200_LN_20_LD_25_RN_9_RD_15_0.png","C_Dist_200_LN_21_LD_30_RN_2_RD_4_0.png","C_Dist_200_LN_4_LD_10_RN_3_RD_15_0.png","C_Dist_200_LN_4_LD_8_RN_3_RD_10_0.png","C_Dist_200_LN_6_LD_15_RN_3_RD_15_0.png","C_Dist_200_LN_7_LD_21_RN_2_RD_15_0.png","C_Dist_200_LN_8_LD_15_RN_2_RD_6_0.png","C_Dist_200_LN_8_LD_15_RN_3_RD_9_0.png","C_Dist_200_LN_8_LD_15_RN_7_RD_21_0.png","C_Dist_200_LN_9_LD_20_RN_4_RD_16_0.png"],["C_Dist_200_LN_1_LD_2_RN_21_RD_30_1.png","C_Dist_200_LN_13_LD_26_RN_14_RD_20_1.png","C_Dist_200_LN_3_LD_10_RN_11_RD_22_1.png","C_Dist_200_LN_3_LD_10_RN_14_RD_28_1.png","C_Dist_200_LN_3_LD_10_RN_7_RD_14_1.png","C_Dist_200_LN_3_LD_12_RN_9_RD_20_1.png","C_Dist_200_LN_3_LD_6_RN_14_RD_20_1.png","C_Dist_200_LN_5_LD_10_RN_14_RD_20_1.png","C_Dist_200_LN_6_LD_12_RN_7_RD_10_1.png","C_Dist_200_LN_6_LD_20_RN_11_RD_22_1.png","C_Dist_200_LN_7_LD_15_RN_18_RD_27_1.png","C_Dist_200_LN_9_LD_30_RN_13_RD_26_1.png"]],"dist200_I":[["I_Dist_200_LN_1_LD_2_RN_3_RD_10_0.png","I_Dist_200_LN_1_LD_3_RN_2_RD_15_0.png","I_Dist_200_LN_3_LD_4_RN_11_RD_20_0.png","I_Dist_200_LN_4_LD_5_RN_6_RD_10_0.png","I_Dist_200_LN_4_LD_6_RN_14_RD_30_0.png","I_Dist_200_LN_7_LD_10_RN_12_RD_24_0.png","I_Dist_200_LN_7_LD_10_RN_14_RD_28_0.png","I_Dist_200_LN_7_LD_10_RN_8_RD_16_0.png"],["I_Dist_200_LN_11_LD_20_RN_3_RD_4_1.png","I_Dist_200_LN_14_LD_30_RN_12_RD_18_1.png","I_Dist_200_LN_14_LD_30_RN_6_RD_9_1.png","I_Dist_200_LN_3_LD_10_RN_1_RD_2_1.png","I_Dist_200_LN_4_LD_30_RN_1_RD_3_1.png","I_Dist_200_LN_6_LD_20_RN_3_RD_6_1.png","I_Dist_200_LN_7_LD_15_RN_4_RD_6_1.png","I_Dist_200_LN_7_LD_15_RN_6_RD_9_1.png","I_Dist_200_LN_9_LD_15_RN_8_RD_10_1.png"]],"dist200_S":[["E_Dist_200_LN_3_LD_6_RN_3_RD_10_0.png"],["E_Dist_200_LN_3_LD_10_RN_3_RD_6_1.png"]],"dist300_C":[["C_Dist_300_LN_11_LD_22_RN_1_RD_5_0.png","C_Dist_300_LN_11_LD_22_RN_2_RD_10_0.png","C_Dist_300_LN_11_LD_22_RN_4_RD_20_0.png","C_Dist_300_LN_12_LD_24_RN_2_RD_10_0.png","C_Dist_300_LN_18_LD_20_RN_9_RD_15_0.png","C_Dist_300_LN_20_LD_25_RN_13_RD_26_0.png","C_Dist_300_LN_20_LD_25_RN_14_RD_28_0.png","C_Dist_300_LN_20_LD_25_RN_5_RD_10_0.png","C_Dist_300_LN_20_LD_25_RN_8_RD_16_0.png","C_Dist_300_LN_20_LD_25_RN_9_RD_18_0.png","C_Dist_300_LN_24_LD_30_RN_2_RD_4_0.png","C_Dist_300_LN_24_LD_30_RN_8_RD_16_0.png","C_Dist_300_LN_3_LD_6_RN_2_RD_10_0.png","C_Dist_300_LN_4_LD_10_RN_1_RD_10_0.png","C_Dist_300_LN_4_LD_5_RN_2_RD_4_0.png","C_Dist_300_LN_8_LD_16_RN_1_RD_5_0.png","C_Dist_300_LN_9_LD_10_RN_3_RD_5_0.png"],["C_Dist_300_LN_1_LD_20_RN_7_RD_20_1.png","C_Dist_300_LN_1_LD_3_RN_19_RD_30_1.png","C_Dist_300_LN_1_LD_30_RN_8_RD_24_1.png","C_Dist_300_LN_1_LD_5_RN_11_RD_22_1.png","C_Dist_300_LN_1_LD_5_RN_3_RD_6_1.png","C_Dist_300_LN_1_LD_5_RN_6_RD_12_1.png","C_Dist_300_LN_2_LD_10_RN_12_RD_24_1.png","C_Dist_300_LN_2_LD_20_RN_10_RD_25_1.png","C_Dist_300_LN_3_LD_12_RN_11_RD_20_1.png","C_Dist_300_LN_3_LD_6_RN_4_RD_5_1.png","C_Dist_300_LN_4_LD_20_RN_13_RD_26_1.png","C_Dist_300_LN_5_LD_25_RN_6_RD_12_1.png","C_Dist_300_LN_5_LD_25_RN_7_RD_14_1.png","C_Dist_300_LN_7_LD_14_RN_20_RD_25_1.png","C_Dist_300_LN_8_LD_15_RN_10_RD_12_1.png"]],"dist300_I":[["I_Dist_300_LN_1_LD_2_RN_2_RD_10_0.png","I_Dist_300_LN_1_LD_2_RN_3_RD_15_0.png","I_Dist_300_LN_2_LD_4_RN_6_RD_30_0.png","I_Dist_300_LN_3_LD_6_RN_4_RD_20_0.png","I_Dist_300_LN_4_LD_5_RN_6_RD_12_0.png","I_Dist_300_LN_4_LD_5_RN_8_RD_16_0.png","I_Dist_300_LN_7_LD_10_RN_8_RD_20_0.png","I_Dist_300_LN_8_LD_10_RN_14_RD_28_0.png","I_Dist_300_LN_8_LD_10_RN_9_RD_18_0.png"],["I_Dist_300_LN_13_LD_26_RN_12_RD_15_1.png","I_Dist_300_LN_4_LD_20_RN_2_RD_4_1.png"]],"dist300_S":[["E_Dist_300_LN_9_LD_12_RN_9_RD_20_0.png"],["E_Dist_300_LN_18_LD_30_RN_18_RD_20_1.png","E_Dist_300_LN_3_LD_10_RN_3_RD_5_1.png","E_Dist_300_LN_9_LD_20_RN_9_RD_12_1.png"]],"dist500_C":[["C_Dist_500_LN_10_LD_13_RN_7_RD_26_0.png","C_Dist_500_LN_10_LD_15_RN_4_RD_24_0.png","C_Dist_500_LN_12_LD_16_RN_3_RD_12_0.png","C_Dist_500_LN_12_LD_18_RN_4_RD_24_0.png","C_Dist_500_LN_15_LD_18_RN_5_RD_15_0.png","C_Dist_500_LN_15_LD_20_RN_1_RD_4_0.png","C_Dist_500_LN_18_LD_27_RN_1_RD_6_0.png","C_Dist_500_LN_20_LD_24_RN_1_RD_3_0.png","C_Dist_500_LN_20_LD_24_RN_3_RD_9_0.png","C_Dist_500_LN_20_LD_24_RN_7_RD_21_0.png","C_Dist_500_LN_20_LD_28_RN_3_RD_14_0.png","C_Dist_500_LN_21_LD_28_RN_6_RD_24_0.png","C_Dist_500_LN_22_LD_28_RN_2_RD_7_0.png","C_Dist_500_LN_25_LD_30_RN_9_RD_27_0.png","C_Dist_500_LN_4_LD_6_RN_1_RD_6_0.png","C_Dist_500_LN_5_LD_6_RN_2_RD_6_0.png","C_Dist_500_LN_6_LD_9_RN_1_RD_6_0.png","C_Dist_500_LN_7_LD_10_RN_1_RD_5_0.png","C_Dist_500_LN_8_LD_12_RN_1_RD_6_0.png","C_Dist_500_LN_8_LD_12_RN_4_RD_24_0.png"],["C_Dist_500_LN_1_LD_4_RN_12_RD_16_1.png","C_Dist_500_LN_1_LD_4_RN_9_RD_12_1.png","C_Dist_500_LN_1_LD_9_RN_11_RD_18_1.png","C_Dist_500_LN_10_LD_24_RN_22_RD_24_1.png","C_Dist_500_LN_2_LD_12_RN_10_RD_15_1.png","C_Dist_500_LN_2_LD_12_RN_12_RD_18_1.png","C_Dist_500_LN_2_LD_12_RN_4_RD_6_1.png","C_Dist_500_LN_2_LD_24_RN_7_RD_12_1.png","C_Dist_500_LN_2_LD_5_RN_18_RD_20_1.png","C_Dist_500_LN_2_LD_5_RN_9_RD_10_1.png","C_Dist_500_LN_2_LD_8_RN_12_RD_16_1.png","C_Dist_500_LN_2_LD_8_RN_21_RD_28_1.png","C_Dist_500_LN_3_LD_10_RN_4_RD_5_1.png","C_Dist_500_LN_3_LD_12_RN_15_RD_20_1.png","C_Dist_500_LN_3_LD_30_RN_6_RD_10_1.png","C_Dist_500_LN_3_LD_8_RN_14_RD_16_1.png","C_Dist_500_LN_4_LD_16_RN_15_RD_20_1.png","C_Dist_500_LN_4_LD_24_RN_12_RD_18_1.png","C_Dist_500_LN_5_LD_14_RN_6_RD_7_1.png","C_Dist_500_LN_7_LD_21_RN_20_RD_24_1.png","C_Dist_500_LN_7_LD_28_RN_12_RD_16_1.png","C_Dist_500_LN_7_LD_28_RN_9_RD_12_1.png","C_Dist_500_LN_9_LD_27_RN_20_RD_24_1.png"]],"dist500_I":[["I_Dist_500_LN_2_LD_3_RN_4_RD_24_0.png","I_Dist_500_LN_5_LD_6_RN_6_RD_18_0.png","I_Dist_500_LN_7_LD_8_RN_9_RD_24_0.png"],["I_Dist_500_LN_7_LD_21_RN_5_RD_6_1.png"]],"dist500_S":[["E_Dist_500_LN_6_LD_8_RN_6_RD_24_0.png"],["E_Dist_500_LN_2_LD_12_RN_2_RD_3_1.png","E_Dist_500_LN_6_LD_24_RN_6_RD_8_1.png"]]}},{"start_time":1552312767447,"click_time":1552312769759,"finger_time":1552312769198,"fix_duration":1327.6377521415461,"trial":1,"RT":1751,"MT":561,"sideResp":1,"stimulus":[],"xmouse":[792,792,792,792,792,792,792,792,792,792,792,792,792,792,792,792,792,792,792,792,792,792,792,792,792,792,792,792,792,792,792,792,792,792,792,792,792,792,792,792,792,792,792,792,792,792,792,792,792,792,792,792,792,792,792,792,792,792,792,792,792,792,792,792,792,792,792,792,792,792,792,792,792,792,792,792,792,792,792,790,788,785,784,782,781,778,773,748,734,724,719,716,708,703,695,687,675,663,647,639,634,624,590,576,568,564,563,560,558,554,550,545,538,534,527,523],"ymouse":[497,497,497,497,497,497,497,497,497,497,497,497,497,497,497,497,497,497,497,497,497,497,497,497,497,497,497,497,497,497,497,497,497,497,497,497,497,497,497,497,497,497,497,497,497,497,497,497,497,497,497,497,497,497,497,497,497,497,497,497,497,497,497,497,497,497,497,497,497,497,497,497,497,497,497,497,497,497,497,497,497,497,495,494,492,488,482,458,448,437,429,420,392,371,351,327,302,275,232,202,182,158,107,86,74,66,61,59,59,59,59,59,59,59,59,59],"timestamp_mouse":[12,33,52,73,92,112,133,152,172,193,212,232,253,271,292,313,331,353,372,392,412,432,453,473,492,512,532,553,573,591,611,632,653,673,692,712,733,751,771,793,812,833,853,873,892,912,932,951,972,992,1013,1031,1053,1073,1092,1113,1132,1152,1171,1192,1213,1232,1253,1273,1291,1313,1331,1353,1373,1392,1412,1431,1453,1472,1493,1511,1532,1552,1573,1591,1612,1631,1652,1671,1692,1711,1732,1751,1772,1791,1812,1832,1852,1872,1893,1913,1931,1952,1971,1991,2012,2032,2052,2072,2092,2112,2131,2152,2171,2192,2213,2232,2252,2273,2292,2312],"xSR":741.5,"ySR":469.95,"xT1":424.9,"yT1":0,"xT2":1058.1,"yT2":0,"toosoon":0,"cond_shown":"Incongruent","ratio_trial":100,"L_num":12,"L_den":30,"R_num":2,"R_den":4,"correct_side":2,"subjID":"isabellaramos25","gender":"1","school":"4","age":"9"},{"start_time":1552312772497,"click_time":1552312779299,"finger_time":1552312777419,"fix_duration":1076.726533507177,"trial":2,"RT":4922,"MT":1880,"sideResp":2,"stimulus":[],"xmouse":[807,807,807,807,807,807,807,807,807,807,807,807,807,807,807,807,807,807,807,807,807,807,807,807,807,807,807,807,807,807,807,807,807,807,807,807,807,807,807,807,807,807,807,807,807,807,807,807,807,807,807,807,807,807,807,807,807,807,807,807,807,807,807,807,807,807,807,807,807,807,807,807,807,807,807,807,807,807,807,807,807,807,807,807,807,807,807,807,807,807,807,807,807,806,805,804,804,804,804,804,804,804,804,804,804,804,804,804,804,804,804,804,804,804,804,804,804,804,804,804,804,804,804,804,804,804,804,804,804,804,804,804,804,804,804,804,804,804,804,804,804,804,804,804,804,804,804,804,803,802,800,799,799,799,799,799,799,799,799,799,799,799,799,799,799,799,799,799,799,799,799,799,799,799,799,799,799,799,799,799,799,799,799,799,799,799,799,799,799,799,799,799,799,799,799,799,799,799,799,799,799,799,799,799,798,798,798,798,798,798,798,798,798,798,798,798,798,798,798,798,798,798,798,798,798,798,798,798,798,798,798,798,798,798,798,798,798,798,798,798,798,798,798,798,798,798,799,799,799,801,802,804,807,807,807,807,807,807,807,807,807,807,807,807,807,807,808,809,813,819,831,857,879,893,907,917,929,932,933,933,933,933,933,933,933,933,933,933,934,934,935,944,945,950,953,956,959,960,960,960,960,960,960,961,962,963,965,966,968,969,971,975,976,976,977,978,984,988,994,1001,1006,1014,1016,1017,1018,1018,1019,1022,1027,1034,1041,1054,1064,1071,1077,1085,1096,1103,1110,1116,1119],"ymouse":[508,508,508,508,508,508,508,508,508,508,508,508,508,508,508,508,508,508,508,508,508,508,508,508,508,508,508,508,508,508,508,508,508,508,508,508,508,508,508,508,508,508,508,508,508,508,508,508,508,508,508,508,508,508,508,508,508,508,508,508,508,508,508,508,508,508,508,508,508,508,508,508,508,508,508,508,508,508,508,508,508,508,508,508,508,508,508,508,508,508,508,501,494,485,478,474,474,474,474,474,474,474,474,474,474,474,474,474,474,474,474,474,474,474,474,474,474,474,474,474,474,474,474,474,474,474,474,474,474,474,474,474,474,474,474,474,474,474,474,474,474,474,474,474,474,474,474,474,474,474,474,474,474,474,474,474,474,474,474,474,474,474,474,474,474,474,474,474,474,474,474,474,474,474,474,474,474,474,474,474,474,474,474,474,474,474,474,474,474,474,474,474,474,474,474,474,474,474,474,474,474,474,474,474,475,476,476,476,476,476,476,476,476,476,476,476,476,476,476,476,476,476,476,476,476,476,476,476,476,476,476,476,476,476,476,476,476,476,476,476,476,476,476,476,475,473,467,462,458,454,446,429,418,413,412,412,412,412,412,412,412,412,412,412,412,412,412,410,407,401,388,352,321,302,282,270,250,245,244,244,244,244,244,244,244,244,244,244,243,243,243,237,235,230,229,228,228,228,228,228,228,228,228,228,228,228,231,234,238,244,249,255,256,257,257,257,257,257,255,254,252,250,250,249,249,249,249,247,245,241,235,223,210,200,192,181,160,145,129,108,86],"timestamp_mouse":[2,32,41,61,83,102,123,143,161,182,202,223,241,262,283,302,321,341,363,383,402,423,443,461,482,501,522,542,563,581,603,623,641,661,683,701,722,743,763,782,802,821,841,862,883,901,921,942,962,981,1002,1022,1043,1062,1082,1102,1122,1143,1162,1183,1203,1222,1242,1263,1282,1303,1322,1342,1363,1383,1403,1423,1443,1463,1483,1502,1523,1541,1562,1582,1602,1623,1642,1661,1683,1703,1723,1741,1762,1783,1803,1822,1842,1862,1882,1903,1922,1943,1963,1983,2002,2022,2043,2063,2082,2101,2121,2142,2163,2183,2202,2222,2242,2262,2283,2303,2323,2341,2363,2383,2403,2422,2443,2463,2482,2503,2523,2542,2562,2582,2603,2622,2643,2663,2683,2703,2722,2741,2763,2782,2802,2823,2843,2862,2883,2903,2923,2943,2962,2981,3003,3022,3041,3062,3082,3101,3123,3143,3162,3182,3203,3223,3243,3262,3283,3303,3322,3341,3361,3382,3403,3421,3443,3462,3482,3503,3522,3542,3562,3581,3601,3623,3643,3662,3683,3703,3723,3743,3762,3782,3803,3822,3842,3863,3882,3902,3923,3942,3962,3981,4002,4023,4043,4062,4082,4101,4123,4143,4163,4183,4201,4221,4242,4263,4282,4302,4323,4341,4362,4383,4403,4422,4442,4463,4481,4503,4523,4542,4563,4582,4602,4623,4643,4662,4683,4701,4723,4743,4762,4782,4802,4823,4843,4862,4882,4902,4922,4942,4963,4982,5002,5022,5042,5062,5082,5103,5122,5143,5162,5182,5202,5222,5243,5261,5282,5302,5322,5342,5362,5382,5401,5421,5442,5461,5483,5503,5522,5543,5561,5581,5603,5622,5642,5663,5683,5703,5722,5742,5762,5782,5803,5823,5841,5862,5883,5902,5922,5943,5962,5982,6004,6022,6041,6062,6082,6102,6122,6143,6162,6181,6202,6222,6242,6261,6282,6302,6322,6342,6362,6381,6403,6423,6442,6462,6483,6502,6522,6542,6563,6581,6602,6623,6642,6662,6682,6702,6723,6741,6762,6781,6802],"xSR":741.5,"ySR":469.95,"xT1":424.9,"yT1":0,"xT2":1058.1,"yT2":0,"toosoon":0,"cond_shown":"Incongruent","ratio_trial":300,"L_num":8,"L_den":10,"R_num":14,"R_den":28,"correct_side":1,"subjID":"isabellaramos25","gender":"1","school":"4","age":"9"},{"start_time":1552312786572,"click_time":1552312790140,"finger_time":1552312790039,"fix_duration":650.6700502564868,"trial":3,"RT":3467,"MT":101,"sideResp":2,"stimulus":[],"xmouse":[795,795,795,795,795,795,795,795,795,795,795,795,795,795,795,795,795,795,795,795,795,795,795,795,795,795,795,795,795,795,795,795,795,795,795,795,795,795,795,795,795,795,795,795,795,795,795,795,795,795,795,795,795,795,795,795,795,795,795,795,795,795,795,795,795,795,795,795,795,795,795,795,795,795,795,795,795,795,795,795,795,795,795,795,795,795,795,795,795,795,795,795,795,795,795,795,795,795,795,795,795,795,795,795,795,795,795,795,795,795,795,795,795,795,795,795,795,795,795,795,795,795,795,795,795,795,795,795,795,795,795,795,795,795,795,795,795,795,795,795,795,795,795,795,795,795,795,795,795,795,795,795,795,795,795,795,795,795,795,795,795,795,795,795,795,795,795,795,796,804,809,813,818,830,916,970,1028,1084,1149],"ymouse":[517,517,517,517,517,517,517,517,517,517,517,517,517,517,517,517,517,517,517,517,517,517,517,517,517,517,517,517,517,517,517,517,517,517,517,517,517,517,517,517,517,517,517,517,517,517,517,517,517,517,517,517,517,517,517,517,517,517,517,517,517,517,517,517,517,517,517,517,517,517,517,517,517,517,517,517,517,517,517,517,517,517,517,517,517,517,517,517,517,517,517,517,517,517,517,517,517,517,517,517,517,517,517,517,517,517,517,517,517,517,517,517,517,517,517,517,517,517,517,517,517,517,517,517,517,517,517,517,517,517,517,517,517,517,517,517,517,517,517,517,517,517,517,517,517,517,517,517,517,517,517,517,517,517,517,517,517,517,517,517,517,517,517,517,517,517,517,517,512,498,489,481,470,457,344,273,191,112,7],"timestamp_mouse":[10,32,46,67,88,107,128,147,168,188,208,226,247,268,286,308,327,347,368,387,406,428,448,468,487,507,528,547,568,587,608,628,647,668,688,708,728,748,768,787,807,827,847,868,888,908,927,946,967,988,1007,1027,1047,1067,1087,1108,1128,1147,1167,1187,1208,1227,1248,1268,1288,1307,1328,1347,1367,1387,1406,1426,1446,1466,1487,1508,1527,1547,1566,1587,1608,1627,1647,1667,1687,1708,1728,1747,1766,1788,1808,1826,1847,1867,1888,1908,1927,1947,1966,1987,2008,2028,2047,2067,2088,2106,2127,2148,2167,2187,2208,2227,2247,2267,2288,2308,2326,2346,2367,2388,2407,2427,2446,2467,2488,2508,2528,2547,2567,2588,2607,2626,2648,2667,2688,2707,2727,2748,2767,2786,2807,2827,2847,2867,2887,2907,2926,2947,2967,2988,3008,3028,3047,3067,3087,3107,3127,3147,3167,3187,3206,3228,3248,3267,3287,3307,3328,3346,3366,3386,3407,3427,3447,3467,3486,3506,3527,3547,3568],"xSR":741.5,"ySR":469.95,"xT1":424.9,"yT1":0,"xT2":1058.1,"yT2":0,"toosoon":0,"cond_shown":"Incongruent","ratio_trial":100,"L_num":13,"L_den":26,"R_num":6,"R_den":10,"correct_side":2,"subjID":"isabellaramos25","gender":"1","school":"4","age":"9"},{"start_time":1552312792458,"click_time":1552312794540,"finger_time":1552312794059,"fix_duration":397.3205398438626,"trial":4,"RT":1601,"MT":481,"sideResp":1,"stimulus":[],"xmouse":[796,796,796,797,797,797,797,797,797,797,797,797,797,797,797,797,797,797,797,797,797,797,797,797,797,797,797,797,797,797,797,797,797,797,797,797,797,797,797,797,797,797,797,797,797,797,797,797,797,797,797,797,797,797,797,797,797,797,797,797,797,797,797,797,797,797,797,797,797,797,797,797,797,797,797,797,797,796,792,789,762,735,708,691,686,678,671,652,640,623,586,573,560,551,544,536,531,527,525,522,520,520,518,511,502],"ymouse":[518,518,518,515,512,512,512,512,512,512,512,512,512,512,512,512,512,512,512,512,512,512,512,512,512,512,512,512,512,512,512,512,512,512,512,512,512,512,512,512,512,512,512,512,512,512,512,512,512,512,512,512,512,512,512,512,512,512,512,512,512,512,512,512,512,512,512,512,512,512,512,512,511,511,511,511,511,507,497,484,452,433,419,408,406,404,402,396,390,380,359,347,334,320,305,282,264,250,238,223,188,164,139,117,97],"timestamp_mouse":[8,22,40,60,82,102,121,142,160,182,202,221,240,261,282,302,320,342,361,381,401,421,440,461,481,502,520,541,562,582,601,621,641,662,682,700,721,742,761,781,801,821,842,861,881,901,921,941,962,982,1001,1022,1041,1061,1082,1102,1121,1141,1162,1182,1202,1221,1240,1261,1282,1302,1321,1342,1362,1381,1401,1421,1440,1462,1481,1502,1521,1540,1560,1581,1601,1620,1641,1660,1681,1701,1721,1741,1761,1781,1801,1821,1841,1862,1880,1900,1922,1940,1962,1981,2001,2021,2041,2061,2082],"xSR":741.5,"ySR":469.95,"xT1":424.9,"yT1":0,"xT2":1058.1,"yT2":0,"toosoon":0,"cond_shown":"Congruent","ratio_trial":300,"L_num":2,"L_den":20,"R_num":10,"R_den":25,"correct_side":2,"subjID":"isabellaramos25","gender":"1","school":"4","age":"9"},{"start_time":1552312797297,"click_time":1552312799362,"finger_time":1552312798879,"fix_duration":1356.0665480373866,"trial":5,"RT":1582,"MT":483,"sideResp":1,"stimulus":[],"xmouse":[798,798,798,798,798,798,798,798,798,798,798,798,798,798,798,798,798,798,798,798,798,798,798,798,798,798,798,798,798,798,798,798,798,798,798,798,798,798,798,798,798,798,798,798,798,798,798,798,798,798,798,798,798,798,798,798,798,798,798,798,798,798,798,798,798,798,798,798,798,798,798,798,798,798,798,798,798,795,765,746,720,685,628,573,499,486,482,482,479,479,478,477,476,476,476,481,488,491,492,492,490,489,488,487],"ymouse":[514,514,514,514,514,514,514,514,514,514,514,514,514,514,514,514,514,514,514,514,514,514,514,514,514,514,514,514,514,514,514,514,514,514,514,514,514,514,514,514,514,514,514,514,514,514,514,514,514,514,514,514,514,514,514,514,514,514,514,514,514,514,514,514,514,514,514,514,514,514,514,514,514,514,514,514,512,508,485,468,445,409,331,280,227,218,214,213,211,210,208,207,205,199,193,184,176,168,146,133,120,112,106,98],"timestamp_mouse":[10,29,43,63,83,104,123,142,163,183,203,222,244,262,284,303,322,342,362,384,404,424,443,463,484,503,523,543,563,584,604,624,643,663,683,704,724,743,762,783,803,823,844,863,883,902,923,942,963,984,1002,1023,1043,1063,1082,1104,1123,1142,1164,1183,1204,1223,1243,1262,1282,1304,1324,1342,1363,1384,1403,1422,1442,1464,1483,1503,1523,1543,1563,1582,1603,1623,1643,1663,1684,1702,1722,1743,1764,1782,1802,1823,1843,1863,1882,1903,1922,1942,1964,1982,2002,2023,2044,2064],"xSR":741.5,"ySR":469.95,"xT1":424.9,"yT1":0,"xT2":1058.1,"yT2":0,"toosoon":0,"cond_shown":"Incongruent","ratio_trial":300,"L_num":4,"L_den":20,"R_num":2,"R_den":4,"correct_side":2,"subjID":"isabellaramos25","gender":"1","school":"4","age":"9"},{"start_time":1552312802014,"click_time":1552312804941,"finger_time":1552312804379,"fix_duration":433.3396423598024,"trial":6,"RT":2365,"MT":562,"sideResp":1,"stimulus":[],"xmouse":[788,788,788,788,788,788,788,788,788,788,788,788,788,788,788,788,788,788,788,788,788,788,788,788,788,788,788,788,788,788,788,788,788,788,788,788,788,788,788,788,788,788,788,788,788,788,788,788,788,788,788,788,788,788,788,788,788,788,788,788,788,788,788,788,788,788,788,788,788,788,788,788,788,788,788,788,788,788,788,788,788,788,789,790,790,790,790,790,792,793,794,795,795,795,795,795,795,795,795,795,795,795,795,796,796,797,798,799,799,800,800,800,800,800,801,802,802,803,807,809,811,812,812,811,810,804,797,791,764,738,718,699,670,627,613,602,598,593,580,574,568,564,562,553,541,531,520],"ymouse":[519,519,519,519,519,519,519,519,519,519,519,519,519,519,519,519,519,519,519,519,519,519,519,519,519,519,519,519,519,519,519,519,519,519,519,519,519,519,519,519,519,519,519,519,519,519,519,519,519,519,519,519,519,519,519,519,519,519,519,519,519,519,519,519,519,519,519,519,519,519,519,519,519,519,519,519,519,519,519,519,519,517,515,512,511,511,511,509,506,504,503,502,502,502,502,502,502,502,502,502,502,502,502,502,502,500,500,499,497,497,496,495,494,491,488,484,480,477,465,459,451,446,439,417,411,391,375,356,302,265,228,191,157,119,108,99,94,91,88,86,84,83,82,80,76,74,71],"timestamp_mouse":[10,31,46,65,87,106,126,146,165,187,206,226,247,267,286,306,326,346,366,386,406,426,445,467,487,507,527,547,565,587,606,626,646,667,685,705,726,746,765,786,805,825,846,867,885,905,927,945,966,986,1006,1026,1045,1066,1087,1106,1126,1146,1166,1186,1205,1227,1246,1267,1285,1305,1327,1347,1367,1385,1405,1427,1446,1465,1485,1507,1527,1546,1566,1585,1606,1626,1646,1666,1687,1705,1726,1746,1766,1785,1805,1826,1846,1867,1887,1906,1926,1946,1967,1986,2007,2027,2045,2067,2085,2105,2126,2145,2166,2185,2206,2225,2246,2265,2285,2305,2327,2346,2365,2386,2406,2426,2446,2467,2485,2506,2526,2546,2567,2585,2606,2626,2647,2666,2686,2706,2726,2746,2766,2785,2806,2826,2846,2867,2886,2906,2927],"xSR":741.5,"ySR":469.95,"xT1":424.9,"yT1":0,"xT2":1058.1,"yT2":0,"toosoon":0,"cond_shown":"Congruent","ratio_trial":200,"L_num":20,"L_den":25,"R_num":9,"R_den":15,"correct_side":1,"subjID":"isabellaramos25","gender":"1","school":"4","age":"9"},{"start_time":1552312807540,"click_time":1552312812239,"finger_time":1552312811000,"fix_duration":740.1993540917362,"trial":7,"RT":3460,"MT":1239,"sideResp":2,"stimulus":[],"xmouse":[788,788,788,788,788,788,788,788,788,788,788,788,788,788,788,788,788,788,788,788,788,788,788,788,788,788,788,788,788,788,788,788,788,788,788,788,788,788,788,788,788,788,788,788,788,788,788,788,788,788,788,788,788,788,788,788,788,788,788,788,788,788,788,788,788,788,788,788,788,788,788,788,788,788,788,788,788,788,788,788,788,788,788,788,788,788,788,788,788,788,788,788,788,788,788,788,788,788,788,788,788,788,788,788,788,788,788,788,788,788,788,788,788,788,788,788,788,788,788,788,788,788,788,788,788,788,788,788,788,788,788,788,788,788,788,788,788,788,788,788,788,788,788,788,788,788,788,788,788,788,788,788,788,788,788,788,788,788,788,788,788,788,788,788,788,788,788,788,790,791,793,794,796,796,797,798,798,799,799,799,800,800,800,800,794,789,786,784,784,783,781,781,775,768,764,761,760,760,760,760,760,760,765,772,780,784,787,798,808,818,827,833,843,846,853,859,869,890,902,914,930,946,970,987,994,997,999,1009,1017,1027,1037,1045,1061,1073,1080],"ymouse":[496,496,496,496,496,496,496,496,496,496,496,496,496,496,496,496,496,496,496,496,496,496,496,496,496,496,496,496,496,496,496,496,496,496,496,496,496,496,496,496,496,496,496,496,496,496,496,496,496,496,496,496,496,496,496,496,496,496,496,496,496,496,496,496,496,496,496,496,496,496,496,496,496,496,496,496,496,496,496,496,496,496,496,496,496,496,496,496,496,496,496,496,496,496,496,496,496,496,496,496,496,496,496,496,496,496,496,496,496,496,496,496,496,496,496,496,496,496,496,496,496,496,496,496,496,496,496,496,496,496,496,496,496,496,496,496,496,496,496,496,496,496,496,496,496,496,496,496,496,496,496,496,496,496,496,496,496,496,496,496,496,496,496,496,496,496,496,492,487,483,478,473,465,463,459,459,458,456,455,453,452,449,439,433,423,417,414,414,414,413,413,413,411,408,407,406,405,405,405,405,404,404,396,391,386,384,383,380,378,376,373,372,369,368,367,364,360,351,344,337,325,313,288,265,250,233,218,190,177,165,150,139,116,103,96],"timestamp_mouse":[34,40,60,81,101,120,140,161,180,200,219,240,261,280,301,321,341,360,379,401,421,440,460,481,500,520,539,561,581,600,620,641,661,680,700,719,741,761,780,800,821,840,861,879,901,921,940,961,980,1001,1020,1041,1059,1081,1101,1119,1140,1161,1179,1201,1221,1239,1260,1279,1301,1319,1341,1361,1380,1400,1419,1439,1461,1481,1501,1521,1540,1561,1579,1601,1620,1640,1661,1680,1701,1721,1741,1761,1780,1801,1821,1840,1860,1881,1901,1921,1939,1960,1980,2001,2021,2041,2060,2080,2099,2120,2140,2161,2180,2201,2219,2239,2260,2280,2299,2320,2341,2360,2381,2401,2420,2439,2460,2481,2500,2520,2540,2561,2580,2600,2620,2641,2659,2679,2701,2720,2740,2761,2781,2800,2820,2839,2859,2880,2901,2920,2941,2961,2980,3000,3021,3040,3061,3081,3100,3120,3141,3161,3180,3200,3221,3239,3260,3280,3300,3321,3341,3359,3379,3400,3420,3439,3460,3480,3499,3519,3539,3560,3580,3599,3620,3640,3659,3680,3699,3719,3740,3760,3779,3800,3819,3839,3860,3880,3899,3920,3940,3961,3980,3999,4019,4041,4059,4080,4099,4120,4140,4159,4180,4200,4220,4241,4259,4281,4300,4321,4340,4360,4379,4400,4420,4440,4459,4480,4500,4521,4540,4559,4579,4600,4620,4641,4660,4681,4699],"xSR":741.5,"ySR":469.95,"xT1":424.9,"yT1":0,"xT2":1058.1,"yT2":0,"toosoon":0,"cond_shown":"Congruent","ratio_trial":100,"L_num":15,"L_den":25,"R_num":13,"R_den":26,"correct_side":1,"subjID":"isabellaramos25","gender":"1","school":"4","age":"9"},{"start_time":1552312818384,"click_time":1552312820420,"finger_time":1552312819980,"fix_duration":263.2076244546669,"trial":8,"RT":1596,"MT":440,"sideResp":2,"stimulus":[],"xmouse":[774,774,774,774,774,774,774,774,774,774,774,774,774,774,774,774,774,774,774,774,774,774,774,774,774,774,774,774,774,774,774,774,774,774,774,774,774,774,774,774,774,774,774,774,774,774,774,774,774,774,774,774,774,774,774,774,774,774,774,774,774,774,774,774,774,774,774,776,777,777,778,778,781,782,784,786,794,797,806,812,820,838,850,862,873,883,907,915,924,935,939,953,961,966,977,986,1011,1028,1040,1051,1062,1081],"ymouse":[529,529,529,529,529,529,529,529,529,529,529,529,529,529,529,529,529,529,529,529,529,529,529,529,529,529,529,529,529,529,529,529,529,529,529,529,529,529,529,529,529,529,529,529,529,529,529,529,529,529,529,529,529,529,529,529,529,529,529,529,529,529,529,529,529,529,529,528,527,525,524,521,517,514,509,505,490,485,472,459,444,419,403,385,368,350,320,310,299,286,277,257,245,234,220,206,172,148,132,118,105,81],"timestamp_mouse":[16,38,57,77,96,117,135,156,177,196,216,237,256,277,296,317,336,356,377,397,415,436,457,476,497,516,535,556,575,596,617,637,657,677,695,716,735,755,777,797,815,837,857,876,895,916,937,955,975,996,1016,1037,1056,1075,1096,1116,1136,1155,1177,1197,1217,1235,1255,1276,1296,1317,1335,1357,1377,1396,1415,1435,1455,1476,1495,1516,1536,1557,1576,1596,1615,1637,1656,1675,1696,1716,1736,1756,1775,1797,1816,1836,1855,1877,1897,1916,1936,1956,1976,1996,2015,2036],"xSR":741.5,"ySR":469.95,"xT1":424.9,"yT1":0,"xT2":1058.1,"yT2":0,"toosoon":0,"cond_shown":"Congruent","ratio_trial":300,"L_num":4,"L_den":20,"R_num":13,"R_den":26,"correct_side":2,"subjID":"isabellaramos25","gender":"1","school":"4","age":"9"},{"start_time":1552312823431,"click_time":1552312826039,"finger_time":1552312825421,"fix_duration":329.77190496261545,"trial":9,"RT":1990,"MT":618,"sideResp":2,"stimulus":[],"xmouse":[773,773,774,774,775,775,775,775,775,775,775,775,775,775,775,775,775,775,775,775,775,775,775,775,775,775,775,775,775,775,775,775,775,775,775,775,775,775,775,775,775,775,775,775,775,775,775,775,775,775,775,775,775,775,775,775,775,775,775,775,775,775,775,775,775,775,775,775,775,775,775,775,775,775,775,775,775,775,775,775,777,779,782,785,788,789,790,791,791,792,792,793,794,795,801,803,806,809,810,815,818,821,825,828,835,838,841,848,854,868,878,886,895,910,915,940,953,964,976,1000,1009,1019,1026,1034,1043,1047,1051,1055,1058,1059,1062],"ymouse":[547,543,541,538,536,536,536,536,536,536,536,536,536,536,536,536,536,536,536,536,536,536,536,536,536,536,536,536,536,536,536,536,536,536,536,536,536,536,536,536,536,536,536,536,536,536,536,536,536,536,536,536,536,536,536,536,536,536,536,536,536,536,536,536,536,536,536,536,536,536,536,536,536,536,536,536,536,536,532,531,527,523,517,513,506,503,502,502,501,499,498,498,496,495,487,483,479,477,474,468,465,461,456,453,445,442,439,432,425,405,393,379,366,349,343,311,295,279,262,231,214,198,182,166,143,135,126,117,109,100,87],"timestamp_mouse":[14,29,53,70,90,108,129,150,168,189,210,229,249,269,288,310,329,350,368,388,410,428,450,468,489,508,530,548,569,588,610,630,649,669,689,708,730,749,768,788,810,828,848,869,889,910,930,948,970,989,1010,1030,1049,1070,1088,1108,1129,1149,1170,1189,1210,1230,1249,1268,1289,1310,1329,1349,1370,1389,1410,1428,1449,1469,1489,1509,1529,1548,1569,1590,1609,1629,1649,1669,1689,1710,1728,1748,1769,1789,1808,1830,1849,1870,1889,1909,1928,1948,1969,1990,2008,2029,2049,2070,2089,2109,2129,2149,2169,2190,2208,2228,2248,2268,2289,2309,2329,2349,2369,2389,2408,2429,2449,2470,2490,2508,2528,2550,2570,2589,2608],"xSR":741.5,"ySR":469.95,"xT1":424.9,"yT1":0,"xT2":1058.1,"yT2":0,"toosoon":0,"cond_shown":"Congruent","ratio_trial":200,"L_num":3,"L_den":10,"R_num":14,"R_den":28,"correct_side":2,"subjID":"isabellaramos25","gender":"1","school":"4","age":"9"},{"start_time":1552312830122,"click_time":1552312832840,"finger_time":1552312832099,"fix_duration":800.0790862906701,"trial":10,"RT":1977,"MT":741,"sideResp":2,"stimulus":[],"xmouse":[780,780,780,780,780,780,780,780,780,779,779,779,779,779,779,779,779,779,779,779,779,779,779,779,779,779,779,779,779,779,779,779,779,779,779,779,779,779,779,779,779,779,779,779,779,779,779,779,779,779,779,779,779,779,779,779,779,779,779,779,779,779,779,779,779,779,779,779,779,779,779,779,779,779,779,779,779,779,779,779,779,779,779,779,779,779,779,779,779,779,779,779,779,779,780,782,784,787,793,802,819,829,840,844,851,869,888,901,915,929,957,970,984,997,1009,1029,1044,1048,1052,1052,1052,1052,1052,1052,1052,1054,1054,1055,1056,1057,1057,1057,1057,1058,1058,1067],"ymouse":[522,522,522,522,522,522,521,521,521,521,521,521,521,521,521,521,521,521,521,521,521,521,521,521,521,521,521,521,521,521,521,521,521,521,521,521,521,521,521,521,521,521,521,521,521,521,521,521,521,521,521,521,521,521,521,521,521,521,521,521,521,521,521,521,521,521,521,521,521,521,521,521,521,521,521,521,521,521,521,521,521,521,521,521,521,521,521,521,521,521,521,520,517,515,513,505,496,484,467,445,398,378,345,335,316,278,247,227,207,185,140,119,99,78,62,37,25,22,20,20,20,20,20,21,21,25,27,29,29,30,31,31,31,32,32,34],"timestamp_mouse":[30,38,59,78,98,117,138,159,178,197,217,238,258,279,297,319,339,358,379,398,419,437,458,479,498,517,538,558,577,599,619,638,658,678,698,719,738,758,778,797,818,837,859,879,897,917,939,959,978,999,1018,1039,1058,1077,1097,1117,1139,1159,1179,1199,1219,1238,1258,1279,1298,1319,1337,1358,1379,1398,1417,1442,1459,1477,1498,1519,1538,1559,1577,1599,1619,1637,1658,1678,1698,1719,1738,1759,1778,1798,1818,1837,1858,1878,1897,1918,1939,1958,1977,1997,2017,2038,2058,2078,2097,2118,2137,2157,2178,2198,2218,2238,2258,2277,2298,2317,2337,2357,2377,2398,2418,2438,2459,2477,2499,2518,2539,2558,2578,2598,2618,2638,2658,2677,2698,2717],"xSR":741.5,"ySR":469.95,"xT1":424.9,"yT1":0,"xT2":1058.1,"yT2":0,"toosoon":0,"cond_shown":"Incongruent","ratio_trial":100,"L_num":6,"L_den":10,"R_num":7,"R_den":14,"correct_side":1,"subjID":"isabellaramos25","gender":"1","school":"4","age":"9"},{"start_time":1552312835926,"click_time":1552312837921,"finger_time":1552312837560,"fix_duration":565.0389459699098,"trial":11,"RT":1634,"MT":361,"sideResp":1,"stimulus":[],"xmouse":[771,771,771,771,771,771,771,771,771,771,771,771,771,771,771,771,771,771,771,771,771,771,771,771,771,771,771,772,772,773,773,773,773,773,773,773,773,773,773,773,773,773,773,773,773,773,774,774,775,775,775,776,776,776,776,776,776,776,776,776,776,776,776,776,776,776,776,776,777,777,777,776,776,774,774,774,772,771,769,767,762,742,728,688,650,613,558,535,521,509,495,458,453,442,438,437,443,444,444,444],"ymouse":[512,512,512,512,512,512,512,512,512,512,512,512,512,512,512,512,512,512,512,512,512,512,512,512,512,512,512,512,512,513,513,513,513,513,513,513,513,513,513,513,513,513,513,513,513,513,513,513,513,513,513,513,513,513,513,513,513,513,513,513,513,513,513,513,513,513,513,513,512,510,505,497,495,492,491,490,487,485,481,477,470,444,428,398,373,352,317,300,286,272,259,218,210,191,179,163,133,121,107,97],"timestamp_mouse":[14,35,55,73,93,114,134,154,175,193,213,234,255,275,295,314,334,354,375,395,414,434,454,474,493,513,534,555,574,594,613,633,655,674,693,715,734,754,773,795,815,834,853,873,895,913,933,955,974,995,1013,1033,1053,1074,1095,1115,1133,1154,1174,1193,1213,1234,1255,1274,1294,1313,1335,1355,1374,1394,1414,1433,1453,1474,1495,1514,1535,1553,1574,1594,1613,1634,1654,1673,1695,1714,1734,1753,1774,1793,1815,1834,1854,1873,1895,1914,1934,1953,1975,1995],"xSR":741.5,"ySR":469.95,"xT1":424.9,"yT1":0,"xT2":1058.1,"yT2":0,"toosoon":0,"cond_shown":"Incongruent","ratio_trial":300,"L_num":4,"L_den":20,"R_num":2,"R_den":4,"correct_side":2,"subjID":"isabellaramos25","gender":"1","school":"4","age":"9"},{"start_time":1552312842831,"click_time":1552312850919,"finger_time":1552312848300,"fix_duration":250,"trial":12,"RT":5469,"MT":2619,"sideResp":2,"stimulus":[],"xmouse":[798,798,798,798,798,798,798,798,798,798,798,798,798,798,798,798,798,798,798,798,798,798,798,798,798,798,798,798,798,798,798,798,798,798,798,798,798,798,798,798,798,798,798,798,798,798,798,798,798,798,798,798,798,798,798,798,798,798,798,798,798,798,798,798,798,798,798,798,798,798,798,798,798,798,798,798,798,798,798,798,798,798,798,798,798,798,798,798,798,798,798,798,798,798,798,798,798,798,798,798,798,798,798,798,798,798,798,798,798,798,798,798,798,798,798,798,798,798,798,798,798,798,798,798,798,798,798,798,798,798,798,798,798,798,798,798,798,798,798,796,794,793,788,787,785,783,782,782,782,782,782,782,782,782,782,782,782,782,782,782,782,782,782,782,782,782,782,782,782,782,782,782,782,782,782,782,782,782,782,782,782,782,782,782,782,782,782,782,782,782,782,782,782,782,782,782,782,782,782,782,782,782,782,782,782,782,782,782,782,782,782,781,778,776,776,776,776,776,776,777,778,779,780,780,780,780,780,780,780,780,780,780,780,780,780,780,780,780,780,780,780,780,780,780,782,785,791,805,808,809,809,809,809,809,809,809,809,809,809,809,809,809,809,809,809,809,811,814,817,822,823,828,834,845,846,846,846,845,845,845,845,845,845,845,845,845,845,845,845,845,845,845,845,844,844,844,843,842,839,837,837,837,837,837,837,837,837,837,837,837,837,837,837,837,837,837,837,837,837,837,837,837,837,837,837,837,837,837,837,837,837,837,837,837,837,837,837,837,837,837,837,837,837,837,837,837,837,837,837,837,837,837,837,837,837,837,837,837,837,837,837,837,837,837,837,837,837,837,837,837,837,837,836,835,835,834,834,834,834,834,834,834,834,834,834,834,834,834,834,834,834,834,833,833,833,833,833,834,838,847,858,867,888,1059,1144],"ymouse":[523,523,523,523,523,523,523,523,523,523,523,523,523,523,523,523,523,523,523,523,523,523,523,523,523,523,523,523,523,523,523,523,523,523,523,523,523,523,523,523,523,523,523,523,523,523,523,523,523,523,523,523,523,523,523,523,523,523,523,523,523,523,523,523,523,523,523,523,523,523,523,523,523,523,523,523,523,523,523,523,523,523,523,523,523,523,523,523,523,523,523,523,523,523,523,523,523,523,523,523,523,523,523,523,523,523,523,523,523,523,523,523,523,523,523,523,523,523,523,523,523,523,523,523,523,523,523,523,523,523,523,523,523,523,523,523,523,523,522,520,519,518,516,516,516,515,515,515,515,515,515,515,515,515,515,515,515,515,515,515,515,515,515,515,515,515,515,515,515,515,515,515,515,515,515,515,515,515,515,515,515,515,515,515,515,515,515,515,515,515,515,515,515,515,515,515,515,515,515,515,515,515,515,515,515,515,515,515,515,515,515,515,515,515,515,515,513,505,498,492,490,489,488,488,488,488,488,488,488,488,488,488,488,488,488,488,488,488,488,488,489,491,492,492,492,491,487,481,481,481,481,481,481,481,481,481,481,481,481,481,481,481,481,481,481,481,481,481,481,482,482,482,482,482,483,484,485,486,486,486,486,486,486,486,486,486,486,486,486,486,485,485,480,478,477,477,476,476,476,476,476,476,476,476,476,476,476,476,476,476,476,476,476,476,476,476,476,476,476,476,476,476,476,476,476,476,476,476,476,476,476,476,476,476,476,476,476,476,476,476,476,476,476,476,476,476,476,476,476,476,476,476,476,476,476,476,476,476,476,476,476,476,476,476,476,476,476,476,476,476,476,476,476,473,472,471,470,468,468,468,468,468,468,468,468,468,468,468,468,468,468,468,464,460,455,453,453,453,453,452,438,417,341,120,35],"timestamp_mouse":[10,31,50,70,88,109,128,150,168,188,209,229,248,269,290,308,329,349,370,389,409,429,449,469,490,509,530,550,569,590,609,628,650,669,689,710,730,750,769,788,810,829,850,869,890,909,930,948,969,989,1008,1030,1049,1069,1089,1110,1129,1150,1168,1189,1209,1229,1248,1270,1289,1308,1330,1348,1368,1388,1410,1429,1450,1468,1490,1508,1528,1549,1570,1588,1609,1629,1648,1670,1690,1710,1729,1749,1770,1789,1809,1830,1848,1869,1889,1910,1929,1948,1970,1990,2008,2029,2050,2068,2089,2109,2129,2150,2169,2188,2210,2229,2250,2269,2289,2309,2328,2349,2368,2389,2409,2428,2450,2470,2489,2510,2530,2549,2570,2590,2608,2630,2650,2670,2688,2709,2729,2748,2768,2789,2810,2828,2849,2870,2889,2908,2930,2949,2968,2989,3009,3029,3050,3069,3089,3109,3128,3150,3169,3189,3210,3230,3248,3268,3289,3309,3328,3349,3370,3389,3410,3428,3450,3468,3489,3508,3528,3549,3570,3588,3608,3629,3650,3670,3688,3710,3729,3749,3770,3790,3809,3829,3848,3870,3889,3909,3928,3950,3968,3989,4010,4028,4048,4070,4088,4110,4129,4148,4169,4188,4210,4229,4248,4268,4289,4309,4329,4349,4369,4390,4409,4428,4449,4470,4488,4510,4529,4550,4569,4589,4609,4629,4650,4668,4689,4710,4729,4748,4769,4789,4808,4829,4849,4870,4889,4908,4929,4948,4969,4988,5009,5029,5050,5068,5090,5110,5128,5148,5169,5190,5208,5228,5250,5270,5289,5308,5330,5348,5368,5388,5409,5429,5448,5469,5489,5508,5529,5549,5569,5589,5609,5628,5649,5669,5689,5709,5729,5749,5768,5790,5809,5829,5848,5870,5889,5909,5930,5949,5968,5990,6008,6028,6049,6069,6089,6109,6129,6151,6168,6188,6209,6228,6248,6269,6290,6309,6329,6350,6370,6389,6409,6429,6450,6468,6489,6509,6530,6549,6569,6589,6609,6630,6648,6669,6690,6709,6730,6748,6769,6790,6808,6829,6850,6869,6889,6910,6929,6948,6970,6989,7010,7028,7049,7070,7090,7109,7128,7149,7169,7189,7209,7228,7249,7269,7290,7308,7329,7349,7369,7389,7410,7430,7448,7469,7488,7510,7530,7549,7568,7589,7609,7629,7649,7669,7688,7709,7729,7749,7768,7789,7809,7829,7849,7868,7889,7909,7929,7950,7969,7988,8009,8030,8049,8070,8088],"xSR":741.5,"ySR":469.95,"xT1":424.9,"yT1":0,"xT2":1058.1,"yT2":0,"toosoon":0,"cond_shown":"Incongruent","ratio_trial":200,"L_num":4,"L_den":6,"R_num":14,"R_den":30,"correct_side":1,"subjID":"isabellaramos25","gender":"1","school":"4","age":"9"},{"start_time":1552312865390,"click_time":1552312867621,"finger_time":1552312867280,"fix_duration":828.439294292751,"trial":13,"RT":1890,"MT":341,"sideResp":2,"stimulus":[],"xmouse":[824,824,824,824,824,824,823,818,812,810,809,809,809,809,809,809,809,809,809,809,809,809,809,809,809,809,809,809,809,809,809,809,809,809,809,809,809,809,809,809,809,809,809,809,809,809,809,809,809,809,809,809,809,809,809,809,809,809,809,809,809,809,809,809,809,809,809,809,808,808,808,808,808,808,808,808,808,808,808,808,808,808,808,808,808,808,808,809,809,810,812,821,827,837,846,857,870,907,929,949,972,1007,1023,1037,1050,1060,1071,1090,1093,1094,1095,1095],"ymouse":[510,510,510,510,510,510,510,514,519,520,520,520,520,520,520,520,520,520,520,520,520,520,520,520,520,520,520,520,520,520,520,520,520,520,520,520,520,520,520,520,520,520,520,520,520,520,520,520,520,520,520,520,520,520,520,520,520,520,520,520,520,520,520,520,520,520,520,520,520,520,520,516,516,516,516,516,516,516,516,516,516,516,516,513,512,510,509,508,507,506,504,498,492,485,479,471,462,433,418,403,384,349,328,308,284,263,237,174,149,127,107,73],"timestamp_mouse":[9,37,50,70,91,111,130,151,169,191,210,230,250,271,290,311,331,350,370,389,411,429,449,470,491,511,531,550,571,589,609,630,649,671,690,711,729,751,771,791,809,830,851,869,889,910,930,950,971,991,1010,1029,1050,1069,1091,1110,1129,1150,1170,1190,1211,1230,1249,1271,1291,1310,1330,1350,1371,1390,1411,1429,1451,1471,1491,1509,1529,1550,1571,1590,1611,1630,1649,1670,1689,1711,1731,1750,1770,1790,1809,1829,1850,1870,1890,1910,1929,1950,1969,1990,2010,2030,2049,2069,2090,2110,2130,2150,2169,2191,2210,2231],"xSR":741.5,"ySR":469.95,"xT1":424.9,"yT1":0,"xT2":1058.1,"yT2":0,"toosoon":0,"cond_shown":"Congruent","ratio_trial":300,"L_num":1,"L_den":20,"R_num":7,"R_den":20,"correct_side":2,"subjID":"isabellaramos25","gender":"1","school":"4","age":"9"},{"start_time":1552312871239,"click_time":1552312873340,"finger_time":1552312872900,"fix_duration":1216.2987126963849,"trial":14,"RT":1661,"MT":440,"sideResp":1,"stimulus":[],"xmouse":[774,774,774,775,775,776,777,778,778,778,778,778,778,778,778,778,778,778,778,778,778,778,778,778,778,778,778,778,778,778,778,778,778,778,778,778,778,778,778,778,778,778,778,778,778,778,778,778,778,778,778,778,778,778,778,778,778,778,778,778,778,778,778,778,778,778,778,778,778,778,778,778,778,778,778,778,778,778,778,778,778,779,777,769,752,706,691,679,674,671,669,665,655,635,607,546,527,515,508,504,488,486,476,466,464,464],"ymouse":[495,495,495,495,495,495,495,495,495,495,495,495,495,495,495,495,495,495,495,495,495,495,495,495,495,495,495,495,495,495,495,495,495,495,495,495,495,495,495,495,495,495,495,495,495,495,495,495,495,495,495,495,495,495,495,495,495,495,495,495,495,495,495,495,495,495,495,495,495,495,495,495,495,495,495,495,495,495,495,495,495,492,478,453,419,328,306,287,280,277,275,273,266,255,239,201,188,178,172,167,146,144,123,109,103,99],"timestamp_mouse":[9,27,41,62,81,102,120,141,161,180,200,221,240,260,280,302,321,341,362,381,402,421,441,460,482,500,520,541,562,581,600,622,640,660,682,701,720,741,760,781,801,821,842,861,880,901,921,940,962,981,1001,1021,1041,1061,1080,1102,1120,1142,1160,1180,1202,1220,1242,1262,1281,1300,1322,1341,1360,1381,1400,1420,1440,1461,1481,1501,1522,1540,1561,1581,1600,1621,1641,1661,1680,1700,1722,1741,1761,1781,1800,1821,1840,1861,1880,1901,1921,1941,1961,1981,2001,2020,2040,2061,2081,2101],"xSR":741.5,"ySR":469.95,"xT1":424.9,"yT1":0,"xT2":1058.1,"yT2":0,"toosoon":0,"cond_shown":"Incongruent","ratio_trial":100,"L_num":8,"L_den":16,"R_num":6,"R_den":10,"correct_side":2,"subjID":"isabellaramos25","gender":"1","school":"4","age":"9"},{"start_time":1552312876746,"click_time":1552312878621,"finger_time":1552312878380,"fix_duration":605.5918470489962,"trial":15,"RT":1634,"MT":241,"sideResp":2,"stimulus":[],"xmouse":[789,788,788,788,788,788,788,788,788,788,788,788,788,788,788,788,788,788,788,788,788,788,788,788,788,788,788,788,788,788,788,788,788,788,788,788,788,788,788,788,788,788,788,788,788,788,788,788,788,788,788,788,788,788,788,788,788,788,788,788,788,788,788,788,788,788,788,788,788,788,788,788,788,788,788,788,792,799,810,824,838,842,858,867,875,886,890,900,912,934,1010,1064,1076,1099],"ymouse":[503,504,505,506,507,507,507,507,507,507,507,507,507,507,507,507,507,507,507,507,507,507,507,507,507,507,507,507,507,507,507,507,507,507,507,507,507,507,507,507,507,507,507,507,507,507,507,507,507,507,507,507,507,507,507,507,507,507,507,507,507,507,507,507,507,507,507,507,507,507,507,507,507,507,507,508,508,508,508,508,507,503,488,479,465,439,427,408,389,358,251,160,130,53],"timestamp_mouse":[13,42,54,74,95,115,133,155,174,194,213,234,254,275,294,313,335,355,373,395,415,433,455,473,493,515,535,553,574,595,614,635,655,673,694,714,734,754,773,795,815,835,855,873,893,914,933,955,974,994,1014,1033,1055,1075,1094,1114,1135,1155,1174,1194,1215,1233,1254,1275,1293,1315,1335,1353,1375,1395,1414,1435,1454,1473,1495,1515,1534,1555,1574,1595,1614,1634,1654,1673,1693,1714,1734,1754,1774,1794,1813,1835,1854,1875],"xSR":741.5,"ySR":469.95,"xT1":424.9,"yT1":0,"xT2":1058.1,"yT2":0,"toosoon":0,"cond_shown":"Congruent","ratio_trial":300,"L_num":4,"L_den":20,"R_num":13,"R_den":26,"correct_side":2,"subjID":"isabellaramos25","gender":"1","school":"4","age":"9"},{"start_time":1552312882283,"click_time":1552312884381,"finger_time":1552312883880,"fix_duration":880.9261025077775,"trial":16,"RT":1597,"MT":501,"sideResp":2,"stimulus":[],"xmouse":[788,788,788,788,788,788,788,788,788,788,788,788,788,788,788,788,788,788,788,788,788,788,788,788,788,788,788,788,788,788,788,788,788,788,788,788,788,788,788,788,788,788,788,788,788,788,788,788,788,788,788,788,788,788,788,788,788,788,788,788,788,788,788,788,788,788,788,788,788,788,788,788,788,788,788,788,788,787,793,802,812,826,851,941,963,978,988,994,1003,1005,1009,1015,1021,1034,1056,1056,1055,1054,1054,1054,1054,1055,1058,1062,1067],"ymouse":[498,498,498,498,498,498,498,498,498,498,498,498,498,498,498,498,498,498,498,498,498,498,498,498,498,498,498,498,498,498,498,498,498,498,498,498,498,498,498,498,498,498,498,498,498,498,498,498,498,498,498,498,498,498,498,498,498,498,498,498,498,498,498,498,498,498,498,498,498,498,498,498,498,498,498,498,498,496,477,458,438,418,399,357,341,327,314,303,288,282,273,258,240,217,154,137,124,118,115,115,115,114,113,111,92],"timestamp_mouse":[18,40,57,78,96,118,138,156,178,197,218,237,256,278,297,317,337,358,378,398,417,437,457,478,497,517,537,558,578,596,617,636,658,678,698,717,736,758,777,797,816,837,858,878,898,917,937,957,976,996,1016,1037,1058,1078,1097,1118,1138,1158,1176,1198,1217,1236,1257,1277,1297,1318,1337,1357,1376,1397,1418,1437,1458,1476,1497,1518,1538,1557,1576,1597,1617,1637,1658,1678,1697,1717,1737,1757,1777,1797,1816,1837,1858,1877,1896,1916,1937,1956,1978,1998,2017,2037,2058,2076,2097],"xSR":741.5,"ySR":469.95,"xT1":424.9,"yT1":0,"xT2":1058.1,"yT2":0,"toosoon":0,"cond_shown":"Incongruent","ratio_trial":300,"L_num":13,"L_den":26,"R_num":12,"R_den":15,"correct_side":2,"subjID":"isabellaramos25","gender":"1","school":"4","age":"9"},{"start_time":1552312886773,"click_time":1552312893281,"finger_time":1552312891700,"fix_duration":770.9670413957535,"trial":17,"RT":4927,"MT":1581,"sideResp":2,"stimulus":[],"xmouse":[771,771,771,771,771,771,771,771,771,771,771,771,771,771,771,771,771,771,771,771,771,771,771,771,771,771,771,771,771,771,771,771,771,771,771,771,771,771,771,771,771,771,771,771,771,771,771,771,771,771,771,771,771,771,771,771,771,771,771,771,771,771,771,771,771,771,771,771,771,771,771,771,771,771,771,771,771,771,771,771,771,771,771,771,771,771,771,771,771,771,771,771,771,771,771,771,771,771,771,771,771,771,771,771,771,771,771,771,771,771,771,771,771,771,771,771,771,771,771,771,771,771,771,771,771,771,771,771,771,771,771,771,771,771,771,771,771,771,771,771,771,771,771,771,771,771,771,771,771,771,771,771,771,771,771,771,771,771,771,771,771,771,771,770,770,770,770,770,770,770,770,770,770,770,770,770,770,770,770,770,770,770,770,770,770,770,770,770,770,770,770,770,770,770,770,770,770,770,770,770,770,770,770,770,770,770,770,770,770,770,770,770,770,770,770,770,770,770,770,770,770,770,770,770,770,770,770,770,770,770,770,770,770,770,770,770,770,770,770,770,770,770,770,770,772,788,792,798,802,804,807,808,809,810,812,821,829,835,843,849,855,872,882,895,911,947,960,970,977,984,997,1002,1009,1015,1022,1036,1039,1043,1046,1049,1051,1051,1051,1051,1051,1050,1039,1036,1033,1030,1021,1016,1009,998,982,930,911,895,881,870,861,859,858,858,858,863,876,888,900,910,918,937,947,960,976,1004,1009,1013,1016,1019,1025,1028,1032,1036,1043,1073],"ymouse":[496,496,496,496,496,496,496,496,496,496,496,496,496,496,496,496,496,496,496,496,496,496,496,496,496,496,496,496,496,496,496,496,496,496,496,496,496,496,496,496,496,496,496,496,496,496,496,496,496,496,496,496,496,496,496,496,496,496,496,496,496,496,496,496,496,496,496,496,496,496,496,496,496,496,496,496,496,496,496,496,496,496,496,496,496,496,496,496,496,496,496,496,496,496,496,496,496,496,496,496,496,496,496,496,496,496,496,496,496,496,496,496,496,496,496,496,496,496,496,496,496,496,496,496,496,496,496,496,496,496,496,496,496,496,496,496,496,496,496,496,496,496,496,496,496,496,496,496,496,496,496,496,496,496,496,496,496,496,496,496,496,496,496,496,496,496,496,496,496,496,496,496,496,496,496,496,496,496,496,496,496,496,496,496,496,496,496,496,496,496,496,496,496,496,496,496,496,496,496,496,496,496,496,496,496,496,496,496,496,496,496,496,496,496,496,496,496,496,496,496,496,496,496,496,496,496,496,496,496,496,496,496,496,496,496,496,496,496,496,496,496,496,496,494,491,471,466,457,451,447,442,441,440,438,435,416,400,389,375,367,360,345,336,326,314,284,274,265,258,250,232,223,209,196,181,145,133,120,108,102,95,95,95,95,95,94,94,97,101,107,116,119,119,120,120,122,124,129,133,135,136,136,136,136,136,136,137,137,138,139,140,143,143,139,128,106,105,105,105,105,105,105,105,104,102,94],"timestamp_mouse":[8,39,47,68,88,108,126,146,168,188,207,228,246,268,288,307,327,347,367,387,407,428,448,467,487,508,528,547,568,587,607,627,648,667,686,706,727,748,767,786,806,828,848,867,888,907,927,947,966,987,1007,1027,1047,1066,1086,1108,1126,1146,1167,1187,1208,1227,1248,1268,1287,1308,1326,1348,1367,1386,1408,1426,1447,1467,1488,1508,1527,1547,1567,1587,1606,1627,1646,1667,1687,1708,1728,1747,1767,1788,1808,1827,1848,1867,1886,1908,1927,1947,1968,1986,2008,2027,2048,2066,2086,2108,2128,2147,2168,2188,2208,2227,2247,2268,2288,2307,2327,2348,2368,2388,2407,2426,2447,2467,2487,2508,2526,2546,2568,2587,2608,2628,2648,2667,2686,2706,2726,2747,2768,2788,2808,2828,2846,2867,2887,2908,2927,2947,2967,2987,3007,3027,3048,3067,3087,3108,3126,3147,3168,3188,3208,3228,3246,3268,3287,3306,3328,3346,3368,3387,3406,3426,3448,3468,3487,3508,3526,3547,3567,3586,3607,3628,3647,3668,3687,3708,3727,3747,3768,3787,3807,3827,3848,3868,3887,3906,3926,3948,3967,3987,4008,4027,4048,4067,4087,4108,4127,4147,4168,4187,4207,4227,4248,4267,4287,4306,4326,4346,4368,4387,4408,4427,4447,4467,4486,4506,4527,4548,4568,4587,4607,4628,4647,4667,4687,4706,4726,4746,4767,4787,4808,4827,4847,4867,4887,4907,4927,4947,4967,4987,5007,5027,5046,5067,5088,5108,5127,5146,5167,5187,5207,5227,5247,5267,5288,5308,5326,5346,5367,5386,5407,5428,5447,5468,5487,5506,5527,5547,5567,5588,5607,5628,5647,5667,5687,5707,5727,5747,5767,5787,5807,5826,5848,5868,5888,5906,5927,5947,5968,5987,6007,6027,6048,6068,6087,6107,6127,6146,6167,6187,6207,6227,6247,6267,6288,6306,6326,6346,6368,6387,6407,6428,6447,6467,6488,6507],"xSR":741.5,"ySR":469.95,"xT1":424.9,"yT1":0,"xT2":1058.1,"yT2":0,"toosoon":0,"cond_shown":"Congruent","ratio_trial":200,"L_num":4,"L_den":8,"R_num":3,"R_den":10,"correct_side":1,"subjID":"isabellaramos25","gender":"1","school":"4","age":"9"},{"start_time":1552312897575,"click_time":1552312900080,"finger_time":1552312899439,"fix_duration":993.1419174610594,"trial":18,"RT":1864,"MT":641,"sideResp":1,"stimulus":[],"xmouse":[777,777,777,777,777,777,777,777,777,777,777,777,777,777,777,777,777,777,777,777,777,777,777,777,777,777,777,777,777,777,777,777,777,777,777,777,777,777,777,777,777,777,777,777,777,777,777,777,777,777,777,777,777,777,777,777,777,777,777,777,777,777,777,777,777,777,777,777,777,777,777,777,777,777,777,777,777,777,777,777,777,777,777,777,777,777,777,777,777,777,777,775,750,726,681,597,425,385,371,364,360,359,359,361,363,367,377,382,385,389,396,410,422,428,432,435,443,444,446,448,450,451,451,451,451,451],"ymouse":[504,504,504,504,504,504,504,504,504,504,504,504,504,504,504,504,504,504,504,504,504,504,504,504,504,504,504,504,504,504,504,504,504,504,504,504,504,504,504,504,504,504,504,504,504,504,504,504,504,504,504,504,504,504,504,504,504,504,504,505,505,505,505,505,505,505,505,505,505,505,505,505,505,505,505,505,505,505,505,505,505,505,505,505,505,505,505,505,505,505,505,503,480,456,411,352,244,219,209,203,200,199,199,199,198,194,178,170,164,161,159,157,155,154,153,151,143,138,135,131,128,122,114,109,103,96],"timestamp_mouse":[9,24,44,65,85,104,126,146,164,185,206,224,245,264,286,306,326,345,366,386,405,425,446,465,486,505,524,544,566,586,604,625,644,666,686,704,726,745,766,784,804,826,845,866,885,906,926,944,964,986,1006,1025,1045,1065,1084,1105,1126,1146,1164,1185,1205,1226,1246,1266,1286,1306,1325,1346,1365,1386,1404,1426,1446,1466,1486,1506,1524,1545,1566,1585,1605,1624,1645,1666,1685,1705,1724,1745,1766,1785,1805,1824,1845,1864,1884,1905,1925,1944,1965,1985,2005,2025,2044,2064,2086,2105,2125,2145,2165,2184,2205,2225,2245,2264,2286,2305,2324,2344,2364,2385,2405,2425,2444,2464,2486,2505],"xSR":741.5,"ySR":469.95,"xT1":424.9,"yT1":0,"xT2":1058.1,"yT2":0,"toosoon":0,"cond_shown":"Incongruent","ratio_trial":200,"L_num":14,"L_den":30,"R_num":12,"R_den":18,"correct_side":2,"subjID":"isabellaramos25","gender":"1","school":"4","age":"9"},{"start_time":1552312904114,"click_time":1552312905901,"finger_time":1552312905620,"fix_duration":751.5918219846889,"trial":19,"RT":1506,"MT":281,"sideResp":2,"stimulus":[],"xmouse":[785,785,785,785,785,785,785,785,785,785,785,785,785,785,785,785,785,785,785,785,785,785,785,785,785,785,785,785,785,785,785,785,785,785,785,785,785,785,785,785,785,785,785,785,785,785,785,785,785,785,785,785,785,785,785,785,785,785,785,785,785,785,785,785,785,785,785,786,790,792,796,796,796,798,801,821,839,861,882,939,992,1057,1110,1153,1166,1175,1176,1176,1168,1146],"ymouse":[521,521,521,521,521,521,521,521,521,521,521,521,521,521,521,521,521,521,521,521,521,521,521,521,521,521,521,521,521,521,521,521,521,521,521,521,521,521,521,521,521,521,521,521,521,521,521,521,521,521,521,521,521,521,521,521,521,521,521,521,521,521,521,521,521,521,521,517,512,507,497,494,486,479,470,444,432,416,401,355,314,275,242,198,174,134,114,93,69,30],"timestamp_mouse":[11,34,45,66,86,105,125,146,167,186,206,226,247,265,285,305,327,347,366,386,406,427,446,466,487,506,527,545,565,585,606,626,647,666,686,706,727,746,765,786,805,825,847,867,886,907,926,947,966,987,1006,1026,1047,1067,1085,1107,1127,1145,1165,1185,1206,1227,1245,1265,1287,1306,1325,1346,1366,1386,1406,1426,1445,1467,1486,1506,1525,1547,1566,1587,1606,1626,1645,1666,1686,1706,1725,1745,1766,1787],"xSR":741.5,"ySR":469.95,"xT1":424.9,"yT1":0,"xT2":1058.1,"yT2":0,"toosoon":0,"cond_shown":"Incongruent","ratio_trial":200,"L_num":4,"L_den":6,"R_num":14,"R_den":30,"correct_side":1,"subjID":"isabellaramos25","gender":"1","school":"4","age":"9"},{"start_time":1552312909307,"click_time":1552312912020,"finger_time":1552312910900,"fix_duration":1486.7461839663065,"trial":20,"RT":1593,"MT":1120,"sideResp":1,"stimulus":[],"xmouse":[769,769,769,769,769,769,769,769,769,769,769,769,769,769,769,769,769,769,769,769,769,769,769,769,769,769,769,769,769,769,769,769,769,769,769,769,769,769,769,769,769,769,769,769,769,769,769,769,769,769,769,769,769,769,769,769,769,769,769,769,769,769,769,769,769,769,769,769,769,769,769,769,769,769,770,779,791,810,830,856,860,873,873,873,873,873,873,873,873,873,873,873,873,873,873,873,873,873,873,873,873,873,873,873,873,873,873,873,873,873,871,870,867,865,858,829,806,775,732,686,525,480,442,421,409,403,400,398,396,394,394,403,411,422,431,445],"ymouse":[511,511,511,511,511,511,511,511,511,511,511,511,511,511,511,511,511,511,511,511,511,511,511,511,511,511,511,511,511,511,511,511,511,511,511,511,511,511,511,511,511,511,511,511,511,511,511,511,511,511,511,511,511,511,511,511,511,511,511,511,511,511,511,511,511,511,511,511,511,511,511,511,511,511,511,505,497,489,480,469,467,457,457,456,456,456,456,456,456,456,456,456,456,456,456,456,456,456,456,456,456,456,456,456,456,456,456,456,456,456,456,456,457,458,458,454,448,435,417,391,292,264,241,230,223,218,202,191,177,159,150,129,120,110,102,78],"timestamp_mouse":[14,39,53,74,94,114,134,153,172,194,214,233,254,274,292,313,333,353,372,394,414,434,453,474,493,514,532,554,574,593,613,634,654,672,694,712,734,753,773,794,813,833,852,874,893,912,934,954,973,994,1014,1033,1053,1073,1092,1113,1134,1153,1174,1193,1214,1234,1252,1272,1294,1313,1334,1354,1373,1394,1414,1434,1453,1473,1492,1513,1532,1553,1573,1593,1612,1633,1653,1673,1693,1713,1732,1753,1772,1793,1814,1832,1853,1873,1894,1913,1933,1954,1974,1992,2014,2032,2053,2073,2092,2114,2133,2153,2172,2193,2214,2233,2253,2273,2293,2313,2332,2352,2372,2393,2414,2434,2452,2473,2494,2513,2533,2553,2574,2594,2613,2633,2652,2673,2693,2713],"xSR":741.5,"ySR":469.95,"xT1":424.9,"yT1":0,"xT2":1058.1,"yT2":0,"toosoon":0,"cond_shown":"Congruent","ratio_trial":200,"L_num":14,"L_den":28,"R_num":6,"R_den":20,"correct_side":1,"subjID":"isabellaramos25","gender":"1","school":"4","age":"9"},{"start_time":1552312915148,"click_time":1552312917460,"finger_time":1552312917000,"fix_duration":1307.4968998740796,"trial":21,"RT":1852,"MT":460,"sideResp":1,"stimulus":[],"xmouse":[796,796,796,796,796,796,796,796,796,796,796,796,796,796,796,796,796,796,796,796,796,796,796,796,796,796,796,796,796,796,796,796,796,796,796,796,796,796,796,796,796,796,796,796,796,796,796,796,796,796,796,796,796,796,796,796,796,796,796,796,796,796,796,796,796,796,796,796,796,796,796,796,796,796,796,796,796,796,796,796,796,796,796,796,796,796,796,796,796,796,793,789,780,763,696,684,651,632,616,595,587,581,575,569,553,541,531,521,514,505,502,500,497,493,486,480],"ymouse":[493,493,493,493,493,493,493,493,493,493,493,493,493,493,493,493,493,493,493,493,493,493,493,493,493,493,493,493,493,493,493,493,493,493,493,493,493,493,493,493,493,493,493,493,493,493,493,493,493,493,493,493,493,493,493,493,493,493,493,493,493,493,493,493,493,493,493,493,493,493,493,493,493,493,493,493,493,493,493,493,493,493,493,493,493,493,493,493,493,493,492,483,469,452,388,377,343,322,301,264,249,234,221,208,181,161,149,137,131,126,124,121,118,113,103,94],"timestamp_mouse":[17,35,51,72,92,111,132,153,172,191,213,232,252,271,293,312,333,351,371,393,412,432,452,471,493,512,532,552,571,593,613,633,652,672,693,712,732,752,772,791,812,833,852,873,893,911,931,953,972,993,1012,1031,1051,1073,1093,1113,1132,1151,1171,1193,1213,1232,1253,1272,1293,1312,1332,1352,1372,1393,1412,1433,1452,1473,1492,1513,1532,1552,1572,1592,1612,1632,1652,1672,1692,1712,1733,1751,1773,1792,1811,1832,1852,1873,1893,1912,1931,1953,1972,1992,2012,2033,2052,2072,2091,2111,2131,2153,2172,2192,2212,2232,2252,2273,2291,2312],"xSR":741.5,"ySR":469.95,"xT1":424.9,"yT1":0,"xT2":1058.1,"yT2":0,"toosoon":0,"cond_shown":"Congruent","ratio_trial":200,"L_num":7,"L_den":21,"R_num":2,"R_den":15,"correct_side":1,"subjID":"isabellaramos25","gender":"1","school":"4","age":"9"},{"start_time":1552312919292,"click_time":1552312921421,"finger_time":1552312920920,"fix_duration":250,"trial":22,"RT":1628,"MT":501,"sideResp":2,"stimulus":[],"xmouse":[785,785,785,785,785,785,785,785,785,785,785,785,785,785,785,785,785,785,785,785,785,785,785,785,785,785,786,786,786,786,786,786,786,786,786,786,786,786,786,786,786,786,786,786,786,786,786,786,786,786,786,786,786,786,786,786,786,786,786,786,786,786,786,786,786,786,786,786,786,786,786,786,786,786,786,786,788,789,807,820,835,852,894,924,955,980,1003,1042,1052,1061,1069,1075,1086,1088,1090,1091,1092,1092,1091,1091,1091,1091,1098,1102,1105,1107,1107],"ymouse":[503,503,503,503,503,503,503,503,503,503,503,503,503,503,503,503,503,503,503,503,503,503,503,503,503,503,503,503,503,503,503,503,503,503,503,503,503,503,503,503,503,503,503,503,503,503,503,503,503,503,503,503,503,503,503,503,503,503,503,503,503,503,503,503,503,503,503,503,503,503,503,503,503,503,503,503,503,503,497,490,480,467,434,416,398,384,370,337,320,302,285,269,248,241,235,228,220,202,192,184,176,166,141,128,117,105,98],"timestamp_mouse":[8,42,48,68,89,109,128,149,169,189,209,227,247,267,289,308,329,349,369,389,409,429,447,468,489,507,529,548,568,588,608,629,648,667,689,708,728,747,767,789,808,827,848,868,888,907,928,948,968,989,1008,1027,1047,1068,1089,1107,1127,1147,1169,1188,1209,1227,1248,1269,1289,1308,1328,1348,1369,1388,1408,1428,1448,1469,1487,1508,1528,1548,1569,1587,1608,1628,1648,1667,1688,1708,1728,1749,1767,1787,1808,1828,1849,1868,1888,1908,1929,1949,1968,1988,2008,2029,2049,2069,2088,2108,2129],"xSR":741.5,"ySR":469.95,"xT1":424.9,"yT1":0,"xT2":1058.1,"yT2":0,"toosoon":0,"cond_shown":"Incongruent","ratio_trial":100,"L_num":11,"L_den":22,"R_num":9,"R_den":15,"correct_side":2,"subjID":"isabellaramos25","gender":"1","school":"4","age":"9"},{"start_time":1552312926121,"click_time":1552312929141,"finger_time":1552312928541,"fix_duration":1419.1514632837614,"trial":23,"RT":2420,"MT":600,"sideResp":2,"stimulus":[],"xmouse":[784,784,784,784,784,784,784,784,784,784,784,784,784,784,784,784,784,784,784,784,784,784,784,784,784,784,784,784,784,784,784,784,784,784,784,784,784,784,784,784,784,784,784,784,784,784,784,784,784,784,784,784,784,784,784,784,784,784,784,784,784,784,784,784,784,784,784,784,784,784,784,784,784,784,784,784,784,784,784,784,784,784,784,784,784,784,784,784,784,784,784,784,784,784,785,786,788,789,790,790,790,790,790,790,790,790,790,790,790,790,790,790,790,790,790,790,791,791,793,795,797,799,803,811,816,821,828,839,844,852,860,866,876,880,883,888,891,901,905,907,910,916,955,978,1000,1020,1042,1072,1087,1100,1114,1127],"ymouse":[502,502,502,502,502,502,502,502,502,502,502,502,502,502,502,502,502,502,502,502,502,502,502,502,502,502,502,502,502,502,502,502,502,502,502,502,502,502,502,502,502,502,502,502,502,502,502,502,502,502,502,502,502,502,502,502,502,502,502,502,502,502,502,502,502,502,502,502,502,502,502,502,502,502,502,502,502,502,502,502,502,502,502,502,502,502,502,502,502,502,502,502,502,502,500,497,493,489,485,484,484,484,484,484,484,484,484,484,484,484,484,484,484,484,484,484,484,482,480,477,472,466,456,440,429,419,404,379,366,352,340,331,312,304,297,287,281,264,261,259,256,250,219,204,190,179,169,147,133,118,102,87],"timestamp_mouse":[1,19,39,59,80,99,119,139,160,180,200,220,239,260,279,299,320,339,360,380,399,419,439,459,479,500,520,540,559,580,600,619,641,660,679,700,719,739,760,780,800,819,839,860,880,900,920,941,960,980,1000,1021,1039,1060,1079,1100,1120,1140,1160,1179,1200,1219,1239,1259,1280,1301,1320,1339,1359,1381,1400,1419,1439,1459,1479,1499,1520,1539,1560,1579,1599,1620,1639,1660,1680,1700,1719,1739,1760,1779,1800,1820,1839,1859,1879,1900,1919,1939,1960,1980,1999,2019,2039,2059,2080,2100,2120,2139,2159,2179,2199,2219,2239,2259,2280,2300,2319,2339,2359,2379,2399,2420,2439,2459,2479,2499,2519,2539,2559,2579,2599,2619,2639,2659,2679,2700,2719,2739,2759,2780,2800,2819,2840,2860,2879,2900,2920,2939,2959,2979,2999,3020],"xSR":741.5,"ySR":469.95,"xT1":424.9,"yT1":0,"xT2":1058.1,"yT2":0,"toosoon":0,"cond_shown":"Incongruent","ratio_trial":100,"L_num":8,"L_den":20,"R_num":1,"R_den":2,"correct_side":2,"subjID":"isabellaramos25","gender":"1","school":"4","age":"9"},{"start_time":1552312934901,"click_time":1552312937181,"finger_time":1552312936680,"fix_duration":320.7898511183326,"trial":24,"RT":1779,"MT":501,"sideResp":1,"stimulus":[],"xmouse":[797,797,797,797,797,797,797,797,797,797,797,797,797,797,797,797,797,797,797,797,797,797,797,797,797,797,797,797,797,797,797,797,797,797,797,797,797,797,797,797,797,797,797,797,797,797,797,797,797,797,797,797,797,797,797,797,797,797,797,797,797,797,797,797,797,797,797,797,797,797,797,797,797,797,797,797,797,797,797,797,797,797,797,797,795,789,782,772,754,750,746,743,739,727,719,709,697,688,667,659,653,647,642,633,626,616,605,594,562,552,540,530,523,508],"ymouse":[509,509,509,509,509,509,509,509,509,509,509,509,509,509,509,509,509,509,509,509,509,509,509,509,509,509,509,509,509,509,509,509,509,509,509,509,509,509,509,509,509,509,509,509,509,509,509,509,509,509,509,509,509,509,509,509,509,509,509,509,509,509,509,509,509,509,509,509,509,509,509,509,509,509,509,509,509,509,509,509,509,509,508,507,502,494,484,472,431,415,401,386,373,349,337,327,314,307,281,269,260,252,246,235,225,214,201,187,151,137,124,111,101,80],"timestamp_mouse":[19,39,60,79,99,120,139,159,179,199,219,240,260,280,300,320,340,360,379,399,419,439,459,479,499,520,540,560,579,600,620,639,660,680,700,720,740,760,780,800,820,839,859,880,900,920,939,959,980,1000,1020,1040,1059,1080,1100,1120,1140,1159,1180,1199,1220,1240,1259,1279,1300,1321,1340,1359,1379,1399,1420,1439,1459,1479,1500,1519,1540,1560,1579,1600,1620,1639,1659,1679,1699,1720,1739,1760,1779,1800,1819,1839,1859,1880,1899,1920,1939,1960,1979,2000,2019,2040,2059,2079,2099,2120,2140,2159,2180,2199,2219,2240,2259,2280],"xSR":741.5,"ySR":469.95,"xT1":424.9,"yT1":0,"xT2":1058.1,"yT2":0,"toosoon":0,"cond_shown":"Incongruent","ratio_trial":100,"L_num":2,"L_den":4,"R_num":6,"R_den":15,"correct_side":1,"subjID":"isabellaramos25","gender":"1","school":"4","age":"9"},{"start_time":1552312940092,"click_time":1552312941800,"finger_time":1552312941540,"fix_duration":570.0051154444965,"trial":25,"RT":1448,"MT":260,"sideResp":2,"stimulus":[],"xmouse":[801,800,799,799,799,799,799,799,799,799,799,799,799,799,799,799,799,799,799,799,799,799,799,799,799,799,799,799,799,799,799,799,799,799,799,799,799,799,799,799,799,799,799,799,799,799,799,799,799,799,799,799,799,799,799,799,799,799,799,799,799,799,799,799,799,798,798,798,798,799,803,806,810,817,830,886,935,978,1037,1054,1076,1080,1080,1080,1080,1081],"ymouse":[528,527,527,526,526,526,526,526,526,526,526,526,526,526,526,526,526,526,526,526,526,526,526,526,526,526,526,526,526,526,526,526,526,526,526,526,526,526,526,526,526,526,526,526,526,526,526,526,526,526,526,526,526,526,526,526,526,526,526,526,526,526,526,526,526,525,522,516,509,498,483,477,469,458,441,358,296,248,181,158,122,114,111,107,106,99],"timestamp_mouse":[20,37,49,68,89,109,128,149,169,189,208,229,248,268,289,308,328,349,368,389,408,428,448,468,489,508,528,548,569,589,608,628,649,669,689,708,730,748,768,788,808,829,848,869,888,909,928,949,969,989,1009,1028,1048,1069,1089,1108,1130,1149,1169,1189,1209,1230,1248,1268,1289,1308,1329,1348,1369,1388,1408,1429,1448,1468,1488,1508,1529,1548,1569,1588,1608,1628,1648,1668,1688,1708],"xSR":741.5,"ySR":469.95,"xT1":424.9,"yT1":0,"xT2":1058.1,"yT2":0,"toosoon":0,"cond_shown":"Incongruent","ratio_trial":300,"L_num":13,"L_den":26,"R_num":12,"R_den":15,"correct_side":2,"subjID":"isabellaramos25","gender":"1","school":"4","age":"9"},{"start_time":1552312944181,"click_time":1552312946100,"finger_time":1552312945781,"fix_duration":558.322554937714,"trial":26,"RT":1600,"MT":319,"sideResp":1,"stimulus":[],"xmouse":[795,795,795,795,795,795,795,795,795,795,795,795,795,795,795,795,795,795,795,795,795,795,795,795,795,795,795,795,795,795,795,795,795,795,795,795,795,795,795,795,794,794,793,793,793,793,793,793,793,793,793,793,793,793,793,793,793,793,793,793,793,793,793,793,793,793,793,793,793,793,793,793,793,792,790,789,788,784,778,769,739,692,675,661,649,638,619,607,591,570,547,505,495,492,488,483,474],"ymouse":[496,496,496,496,496,496,496,496,496,496,496,496,496,496,496,496,496,496,496,496,496,496,496,496,496,496,496,496,496,496,496,496,496,496,496,496,496,496,496,496,496,496,497,497,497,497,497,497,497,497,497,497,497,497,497,497,497,497,497,497,497,497,497,497,497,497,497,497,497,497,497,497,497,497,496,496,495,492,488,482,463,429,412,393,374,353,309,284,256,227,200,160,148,135,125,113,96],"timestamp_mouse":[1,20,40,60,79,100,121,140,160,179,199,220,239,260,280,300,320,339,360,380,400,420,440,461,479,499,519,539,560,579,599,619,641,660,680,699,719,740,760,780,800,820,840,859,880,899,920,939,960,980,999,1019,1040,1061,1080,1099,1120,1141,1160,1180,1199,1220,1239,1260,1280,1300,1319,1340,1360,1379,1399,1419,1439,1459,1479,1499,1519,1539,1560,1579,1600,1620,1639,1659,1681,1699,1719,1739,1760,1779,1799,1819,1839,1859,1879,1899,1919],"xSR":741.5,"ySR":469.95,"xT1":424.9,"yT1":0,"xT2":1058.1,"yT2":0,"toosoon":0,"cond_shown":"Incongruent","ratio_trial":300,"L_num":3,"L_den":6,"R_num":4,"R_den":20,"correct_side":1,"subjID":"isabellaramos25","gender":"1","school":"4","age":"9"},{"start_time":1552312948609,"click_time":1552312951102,"finger_time":1552312950740,"fix_duration":747.2334365856395,"trial":27,"RT":2131,"MT":362,"sideResp":2,"stimulus":[],"xmouse":[792,792,792,792,792,792,792,792,792,792,792,792,792,792,792,792,792,792,792,792,792,792,792,792,792,792,792,792,792,792,792,792,792,792,792,792,792,792,792,792,792,792,792,792,792,792,792,792,792,792,792,792,792,792,792,792,792,792,792,792,792,792,792,792,792,792,792,792,792,792,792,792,792,792,792,792,792,792,792,792,792,792,792,792,792,792,792,792,792,792,792,792,792,792,792,792,792,792,792,792,792,792,792,792,794,800,806,816,824,836,872,908,949,972,991,1013,1016,1026,1034,1042,1055,1063,1070,1073,1074],"ymouse":[502,502,502,502,502,502,502,502,502,502,502,502,502,502,502,502,502,502,502,502,502,502,502,502,502,502,502,502,502,502,502,502,502,502,502,502,502,502,502,502,502,502,502,502,502,502,502,502,502,502,502,502,502,502,502,502,502,502,502,502,502,502,502,502,502,502,502,502,502,502,502,502,502,502,502,502,502,502,502,502,502,502,502,502,502,502,502,502,502,502,502,502,502,502,502,502,502,502,502,502,502,502,502,500,497,481,460,421,397,370,325,305,287,276,271,264,264,254,241,224,179,153,129,108,96],"timestamp_mouse":[12,39,52,71,92,112,132,151,172,191,211,231,251,272,292,311,333,351,371,392,412,432,452,472,492,512,532,551,572,592,611,631,651,671,691,712,731,752,772,792,813,831,851,872,892,912,931,952,971,992,1011,1031,1051,1072,1091,1111,1132,1151,1171,1191,1212,1231,1252,1272,1292,1312,1331,1352,1372,1393,1412,1432,1451,1471,1491,1511,1532,1551,1572,1591,1611,1632,1651,1671,1693,1712,1731,1752,1772,1792,1812,1833,1852,1872,1892,1912,1931,1952,1971,1991,2012,2032,2051,2072,2091,2111,2131,2151,2172,2191,2211,2231,2251,2271,2291,2312,2332,2351,2372,2391,2411,2431,2452,2471,2492],"xSR":741.5,"ySR":469.95,"xT1":424.9,"yT1":0,"xT2":1058.1,"yT2":0,"toosoon":0,"cond_shown":"Incongruent","ratio_trial":100,"L_num":3,"L_den":9,"R_num":7,"R_den":30,"correct_side":1,"subjID":"isabellaramos25","gender":"1","school":"4","age":"9"},{"start_time":1552312990244,"click_time":1552312993321,"finger_time":1552312992760,"fix_duration":1402.5081057847556,"trial":28,"RT":2516,"MT":561,"sideResp":1,"stimulus":[],"xmouse":[799,799,799,799,799,799,799,799,799,799,799,799,799,799,799,799,799,799,799,799,799,799,799,799,799,799,799,799,799,799,799,799,799,799,799,799,799,799,799,799,799,799,799,799,799,799,799,799,799,799,799,799,799,799,799,799,799,799,799,799,799,799,799,799,799,799,799,799,799,799,799,799,799,799,799,799,799,799,799,799,799,799,799,799,799,799,799,799,799,799,799,799,799,799,799,799,799,799,799,799,799,799,799,799,799,799,799,799,799,799,799,799,799,799,799,799,799,799,799,799,799,799,794,777,755,728,713,701,672,661,658,658,657,649,643,639,629,619,594,580,566,552,535,530,527,526,524,522,515,512,505,499,490,461],"ymouse":[509,509,509,509,509,509,509,509,509,509,509,509,509,509,509,509,509,509,509,509,509,509,509,509,509,509,509,509,509,509,509,509,509,509,509,509,509,509,509,509,509,509,509,509,509,509,509,509,509,509,509,509,509,509,509,509,509,509,509,509,509,509,509,509,509,509,509,509,509,509,509,509,509,509,509,509,509,509,509,509,509,509,509,509,509,509,509,509,509,509,509,509,509,509,509,509,509,509,509,509,509,509,509,509,509,509,509,509,509,509,509,509,509,509,509,509,509,509,509,509,509,509,507,503,494,477,463,441,336,283,236,205,182,154,149,147,144,139,129,124,120,116,114,113,113,113,113,112,112,111,109,107,105,99],"timestamp_mouse":[16,41,57,77,98,116,137,157,176,198,217,237,257,278,297,317,337,357,377,398,417,437,456,477,497,517,538,556,577,597,617,638,656,677,697,717,736,757,776,797,817,836,856,877,897,918,936,956,977,998,1017,1038,1056,1077,1096,1116,1136,1158,1178,1196,1216,1236,1256,1278,1298,1316,1337,1356,1377,1396,1416,1438,1458,1478,1497,1516,1537,1558,1578,1596,1616,1637,1658,1678,1697,1716,1738,1756,1776,1797,1818,1838,1858,1877,1897,1917,1936,1957,1977,1998,2016,2036,2057,2076,2097,2117,2138,2157,2176,2197,2218,2237,2256,2277,2297,2316,2336,2357,2376,2397,2418,2437,2458,2476,2496,2516,2538,2556,2577,2596,2617,2636,2656,2677,2696,2716,2736,2757,2777,2796,2816,2837,2858,2876,2896,2916,2936,2957,2978,2997,3016,3036,3056,3076],"xSR":741.5,"ySR":469.95,"xT1":424.9,"yT1":0,"xT2":1058.1,"yT2":0,"toosoon":0,"cond_shown":"Congruent","ratio_trial":300,"L_num":9,"L_den":10,"R_num":3,"R_den":5,"correct_side":1,"subjID":"isabellaramos25","gender":"1","school":"4","age":"9"},{"start_time":1552312995249,"click_time":1552312997300,"finger_time":1552312996760,"fix_duration":848.7684130686682,"trial":29,"RT":1511,"MT":540,"sideResp":1,"stimulus":[],"xmouse":[784,784,784,784,784,784,784,784,784,784,784,784,784,784,784,784,784,784,784,784,784,784,784,784,784,784,784,784,784,784,784,784,784,784,784,784,784,784,784,784,784,784,784,784,784,784,784,784,784,784,784,784,784,784,784,784,784,784,784,784,784,784,784,784,784,784,784,784,784,784,781,776,768,757,753,750,747,742,727,717,709,700,692,668,657,644,632,621,603,593,587,578,569,544,537,531,529,529,529,529,528,527,522],"ymouse":[512,512,512,512,512,512,512,512,512,512,512,512,512,512,512,512,512,512,512,512,512,512,512,512,512,512,512,512,512,512,512,512,512,512,512,512,512,512,512,512,512,512,512,512,512,512,512,512,512,512,512,512,512,512,512,512,512,512,512,512,512,512,512,512,512,512,512,512,512,512,510,506,498,480,470,459,449,438,411,397,383,369,355,319,302,284,267,251,216,193,169,140,111,50,33,25,22,22,22,22,22,22,22],"timestamp_mouse":[12,32,52,71,93,112,131,152,173,193,212,231,251,272,293,312,332,353,371,392,413,432,451,472,493,513,531,552,571,593,612,633,652,673,692,712,732,753,772,793,812,832,851,872,891,912,932,952,972,992,1012,1032,1051,1073,1092,1112,1132,1153,1173,1192,1212,1231,1253,1271,1291,1313,1331,1352,1372,1391,1411,1432,1451,1471,1492,1511,1531,1551,1571,1591,1613,1631,1651,1671,1691,1711,1732,1751,1771,1791,1812,1832,1851,1871,1891,1911,1932,1951,1971,1992,2013,2031,2051],"xSR":741.5,"ySR":469.95,"xT1":424.9,"yT1":0,"xT2":1058.1,"yT2":0,"toosoon":0,"cond_shown":"Incongruent","ratio_trial":200,"L_num":3,"L_den":4,"R_num":11,"R_den":20,"correct_side":1,"subjID":"isabellaramos25","gender":"1","school":"4","age":"9"},{"start_time":1552312999053,"click_time":1552313000761,"finger_time":1552313000401,"fix_duration":571.80245830813,"trial":30,"RT":1348,"MT":360,"sideResp":2,"stimulus":[],"xmouse":[797,797,797,797,797,797,797,797,797,797,797,797,797,797,797,797,797,797,797,797,797,797,797,797,797,797,797,797,797,797,797,797,797,797,797,797,797,797,797,797,797,797,797,797,797,797,797,797,797,797,797,797,797,797,797,797,797,797,797,797,797,797,797,797,797,808,830,862,895,929,941,962,978,987,1004,1012,1018,1025,1030,1037,1039,1043,1045,1049,1057,1061],"ymouse":[534,530,528,528,528,528,528,528,528,528,528,528,528,528,528,528,528,528,528,528,528,528,528,528,528,528,528,528,528,528,528,528,528,528,528,528,528,528,528,528,528,528,528,528,528,528,528,528,528,528,528,528,528,528,528,528,528,528,528,528,528,528,528,528,522,507,470,423,372,330,317,305,295,288,268,254,237,217,194,150,133,111,98,87,71,66],"timestamp_mouse":[10,27,49,68,87,107,128,147,168,189,208,227,248,267,288,308,329,348,369,387,408,428,447,468,487,507,527,547,569,589,607,627,647,668,689,709,729,748,767,788,808,828,848,868,888,908,927,949,969,988,1007,1028,1048,1069,1088,1107,1127,1147,1168,1187,1208,1229,1249,1268,1287,1308,1328,1348,1367,1387,1407,1428,1449,1468,1488,1507,1528,1547,1567,1588,1607,1627,1647,1667,1687,1708],"xSR":741.5,"ySR":469.95,"xT1":424.9,"yT1":0,"xT2":1058.1,"yT2":0,"toosoon":0,"cond_shown":"Incongruent","ratio_trial":200,"L_num":14,"L_den":30,"R_num":12,"R_den":18,"correct_side":2,"subjID":"isabellaramos25","gender":"1","school":"4","age":"9"},{"start_time":1552313002905,"click_time":1552313005320,"finger_time":1552313004880,"fix_duration":803.4897691732017,"trial":31,"RT":1975,"MT":440,"sideResp":2,"stimulus":[],"xmouse":[778,778,778,778,778,778,778,778,778,778,778,778,778,778,778,778,778,778,778,778,778,778,778,778,778,778,778,778,778,778,778,778,778,778,778,778,778,778,778,778,778,778,778,778,778,778,778,778,778,778,778,778,778,778,778,778,778,778,778,778,778,778,778,778,778,778,778,778,778,778,778,778,778,778,778,778,778,778,778,778,778,778,778,778,778,778,778,778,778,778,778,778,778,778,778,778,787,805,826,847,867,893,901,911,922,935,995,1026,1053,1071,1081,1091,1092,1094,1098,1103,1119,1126,1132,1136,1138],"ymouse":[504,504,504,504,504,504,504,504,504,504,504,504,504,504,504,504,504,504,504,504,504,504,504,504,504,504,504,504,504,504,504,504,504,504,504,504,504,504,504,504,504,504,504,504,504,504,504,504,504,504,504,504,504,504,504,504,504,504,504,504,504,504,504,504,504,504,504,504,504,504,504,504,504,504,504,504,504,504,504,504,504,504,504,504,504,504,504,504,504,504,504,504,504,504,504,504,498,482,464,450,436,418,412,404,394,384,328,297,269,250,235,215,209,203,195,187,154,138,120,107,96],"timestamp_mouse":[16,36,56,77,96,115,136,155,176,195,216,237,256,276,295,315,337,356,375,396,415,437,456,476,495,515,536,555,575,596,616,636,655,675,696,715,737,755,777,795,816,837,856,876,895,915,936,957,975,996,1015,1035,1056,1076,1095,1116,1135,1157,1175,1195,1216,1236,1255,1275,1297,1315,1335,1356,1375,1395,1416,1435,1456,1475,1496,1516,1535,1557,1575,1595,1616,1637,1656,1675,1697,1715,1735,1757,1777,1796,1816,1835,1856,1877,1897,1916,1935,1956,1975,1996,2015,2035,2055,2076,2096,2117,2136,2155,2175,2196,2215,2235,2255,2276,2295,2316,2335,2355,2375,2395,2415],"xSR":741.5,"ySR":469.95,"xT1":424.9,"yT1":0,"xT2":1058.1,"yT2":0,"toosoon":0,"cond_shown":"Incongruent","ratio_trial":300,"L_num":4,"L_den":20,"R_num":2,"R_den":4,"correct_side":2,"subjID":"isabellaramos25","gender":"1","school":"4","age":"9"},{"start_time":1552313007033,"click_time":1552313009000,"finger_time":1552313008601,"fix_duration":250,"trial":32,"RT":1568,"MT":399,"sideResp":2,"stimulus":[],"xmouse":[775,775,775,775,775,775,775,775,775,775,775,775,775,775,775,775,775,775,775,775,775,775,775,775,775,775,775,775,775,775,775,775,775,775,775,775,775,775,775,775,775,775,775,775,775,775,775,775,775,775,775,775,775,775,775,775,775,775,775,775,775,775,775,775,775,775,775,775,775,775,775,775,775,775,775,775,777,794,819,857,906,937,941,943,948,967,980,995,1008,1019,1031,1040,1044,1049,1055,1062,1081,1089,1097],"ymouse":[501,501,501,501,501,501,501,501,501,501,501,501,501,501,501,501,501,501,501,501,501,501,501,501,501,501,501,501,501,501,501,501,501,501,501,501,501,501,501,501,501,501,501,501,501,501,501,501,501,501,501,501,501,501,501,501,501,501,501,501,501,501,501,501,501,501,501,501,501,501,501,501,501,501,501,501,495,484,466,441,410,388,384,382,378,352,335,316,299,283,260,235,224,206,190,170,122,103,84],"timestamp_mouse":[11,38,48,68,89,108,128,148,168,187,208,229,248,268,289,307,328,349,368,387,408,428,449,467,487,509,527,547,567,589,608,628,649,668,688,708,727,747,767,789,807,827,849,867,888,907,927,948,968,989,1008,1028,1047,1069,1088,1107,1127,1148,1169,1188,1207,1227,1248,1268,1288,1308,1328,1348,1367,1389,1408,1429,1447,1468,1489,1508,1527,1548,1568,1587,1607,1627,1648,1667,1688,1709,1728,1748,1769,1787,1807,1827,1847,1868,1889,1909,1928,1947,1967],"xSR":741.5,"ySR":469.95,"xT1":424.9,"yT1":0,"xT2":1058.1,"yT2":0,"toosoon":0,"cond_shown":"Congruent","ratio_trial":300,"L_num":3,"L_den":6,"R_num":4,"R_den":5,"correct_side":2,"subjID":"isabellaramos25","gender":"1","school":"4","age":"9"},{"start_time":1552313010683,"click_time":1552313013880,"finger_time":1552313012121,"fix_duration":620.7580948376121,"trial":33,"RT":1438,"MT":1759,"sideResp":2,"stimulus":[],"xmouse":[795,795,795,795,795,795,795,795,795,795,795,795,795,795,795,795,795,795,795,795,795,795,795,795,795,795,795,795,795,795,795,795,795,795,795,795,795,795,795,795,795,795,795,795,795,795,795,795,795,795,795,795,795,795,795,795,795,795,795,795,795,795,795,795,795,795,795,794,788,779,768,760,752,740,733,728,721,713,703,696,690,684,675,655,640,627,616,607,592,587,583,580,574,565,563,561,559,559,558,558,558,558,558,558,558,558,558,558,558,558,558,558,558,558,558,558,558,558,558,558,558,558,558,569,577,587,602,622,675,695,710,715,717,717,717,717,717,717,717,730,761,799,825,841,841,841,841,841,848,861,874,894,912,952,990,1012,1028,1035,1052,1062],"ymouse":[511,511,511,511,511,511,511,511,511,511,511,511,511,511,511,511,511,511,511,511,511,511,511,511,511,511,511,511,511,511,511,511,511,511,511,511,511,511,511,511,511,511,511,511,511,511,511,511,511,511,511,511,511,511,511,511,511,511,511,511,511,511,511,511,511,511,511,512,505,493,480,466,452,433,426,419,408,395,372,362,352,342,332,310,293,277,261,246,211,201,189,180,170,152,147,145,143,143,141,141,141,141,141,141,141,141,141,141,141,141,141,141,141,141,141,141,141,141,141,141,141,141,141,146,147,149,151,152,162,164,165,165,165,165,165,165,165,165,165,170,177,181,181,183,183,183,183,183,181,176,169,162,151,135,124,117,109,105,92,85],"timestamp_mouse":[18,39,58,78,98,117,137,159,178,197,218,237,258,279,297,317,338,357,378,398,419,438,459,478,498,517,538,557,578,598,619,638,658,677,698,719,739,757,778,798,819,839,859,878,897,918,937,958,978,999,1017,1038,1057,1079,1098,1118,1137,1158,1178,1197,1219,1239,1257,1278,1297,1318,1339,1358,1378,1397,1417,1438,1457,1477,1497,1517,1538,1557,1577,1597,1617,1637,1657,1678,1698,1717,1738,1757,1777,1798,1818,1837,1857,1877,1898,1917,1937,1957,1978,1999,2019,2039,2058,2079,2097,2117,2138,2157,2177,2197,2218,2237,2258,2278,2298,2318,2338,2357,2377,2397,2417,2437,2458,2478,2498,2517,2537,2558,2578,2599,2617,2637,2658,2678,2698,2717,2738,2758,2778,2797,2817,2838,2858,2877,2897,2917,2937,2958,2978,2997,3018,3037,3058,3077,3098,3117,3138,3158,3178,3197],"xSR":741.5,"ySR":469.95,"xT1":424.9,"yT1":0,"xT2":1058.1,"yT2":0,"toosoon":0,"cond_shown":"Incongruent","ratio_trial":100,"L_num":6,"L_den":10,"R_num":13,"R_den":26,"correct_side":1,"subjID":"isabellaramos25","gender":"1","school":"4","age":"9"},{"start_time":1552313028793,"click_time":1552313030501,"finger_time":1552313030181,"fix_duration":271.7389541560695,"trial":34,"RT":1388,"MT":320,"sideResp":1,"stimulus":[],"xmouse":[797,797,797,797,797,796,796,796,796,796,796,796,796,796,796,796,796,796,796,796,796,796,796,796,796,796,796,796,796,796,796,796,796,796,796,796,796,796,796,796,796,796,796,796,796,796,796,796,796,796,796,796,796,796,796,796,796,796,796,796,796,796,796,796,796,795,794,789,782,756,731,721,717,714,701,684,666,648,630,604,593,574,551,530,506],"ymouse":[548,548,548,548,548,548,548,548,548,548,548,548,548,548,548,548,548,548,548,548,548,548,548,548,548,548,548,548,548,548,548,548,548,548,548,548,548,548,548,548,548,548,548,548,548,548,548,548,548,548,548,548,548,548,548,548,548,548,548,548,548,548,548,548,548,542,534,507,462,374,318,294,278,268,248,234,220,197,171,117,98,80,70,63,59],"timestamp_mouse":[28,47,67,87,107,129,149,168,187,207,227,248,268,288,307,327,348,367,387,409,427,447,467,488,507,527,547,569,588,607,627,647,669,687,708,729,748,769,788,808,827,848,867,888,909,927,948,968,989,1007,1028,1048,1068,1088,1108,1128,1149,1169,1188,1208,1229,1248,1269,1288,1307,1327,1348,1367,1388,1408,1428,1447,1468,1487,1508,1528,1548,1568,1588,1607,1629,1648,1667,1688,1708],"xSR":741.5,"ySR":469.95,"xT1":424.9,"yT1":0,"xT2":1058.1,"yT2":0,"toosoon":0,"cond_shown":"Incongruent","ratio_trial":300,"L_num":8,"L_den":10,"R_num":14,"R_den":28,"correct_side":1,"subjID":"isabellaramos25","gender":"1","school":"4","age":"9"},{"start_time":1552313032523,"click_time":1552313034661,"finger_time":1552313034221,"fix_duration":1000.7961341419557,"trial":35,"RT":1698,"MT":440,"sideResp":1,"stimulus":[],"xmouse":[781,781,781,781,781,781,781,781,781,781,781,781,781,781,781,781,781,781,781,781,781,781,781,781,781,781,781,781,781,781,781,781,781,781,781,781,781,781,781,781,781,781,781,781,781,781,781,781,781,781,781,781,781,781,781,781,781,781,781,781,781,781,781,781,781,781,781,781,781,781,781,781,781,781,781,781,781,781,781,781,781,781,781,779,749,729,712,700,688,663,654,646,635,611,601,592,586,575,553,543,536,526,519,514,508,507,506],"ymouse":[501,501,501,501,501,501,501,501,501,501,501,501,501,501,501,501,501,501,501,501,501,501,501,501,501,501,501,501,501,501,501,501,501,501,501,501,501,501,501,501,501,501,501,501,501,501,501,501,501,501,501,501,501,501,501,501,501,501,501,501,501,501,501,501,501,501,501,501,501,501,501,501,501,501,501,501,501,501,501,501,501,501,500,492,424,382,354,333,312,289,280,273,262,245,236,224,210,191,162,149,141,130,124,118,108,102,98],"timestamp_mouse":[30,39,58,78,98,119,139,157,177,198,218,238,257,277,299,317,338,358,378,398,419,438,457,478,497,519,539,558,578,597,617,638,657,678,697,719,737,757,777,799,818,838,858,878,898,919,938,957,97