[{"start_time":1552073553132,"click_time":1552073558563,"finger_time":1552073553143,"fix_duration":946.9842671757109,"trial":0,"RT":11,"MT":5420,"sideResp":1,"stimulus":[],"xmouse":[803,804,807,809,809,809,809,809,806,802,799,796,795,793,792,791,791,791,791,791,791,791,795,799,801,801,801,801,801,801,801,801,801,801,801,801,801,801,801,801,801,801,801,801,801,801,801,801,801,801,801,801,801,801,801,801,801,801,801,801,801,801,801,801,801,801,801,801,801,801,801,801,801,801,801,801,801,801,801,801,801,801,801,801,801,801,801,801,801,801,801,801,801,801,801,801,801,801,801,801,801,801,801,801,801,801,801,801,801,801,801,801,801,801,801,801,801,801,801,801,801,801,801,801,801,801,801,801,801,801,801,801,801,801,801,801,801,801,799,799,799,799,799,799,798,798,797,796,796,796,796,796,796,796,796,796,796,796,796,796,796,796,796,796,796,796,796,796,796,795,795,795,794,793,793,792,792,792,792,792,792,792,792,792,792,792,792,792,792,792,792,792,792,792,792,792,792,792,792,792,792,792,792,792,792,792,792,792,792,791,790,788,787,787,787,787,787,787,787,787,787,787,787,787,787,787,787,787,787,787,787,787,787,787,787,787,786,785,785,785,785,785,785,785,785,785,785,785,785,785,785,785,785,785,785,785,785,785,785,785,785,785,785,785,785,785,785,785,421,421,422,425],"ymouse":[579,581,590,592,594,594,595,595,596,594,592,589,588,581,579,579,579,578,578,578,578,577,567,550,543,540,540,540,540,540,540,539,539,539,539,539,539,539,539,539,539,539,539,539,539,539,539,539,539,539,539,539,539,539,539,539,539,539,539,539,539,539,539,539,539,539,539,539,539,539,539,539,539,539,539,539,539,539,539,539,539,539,539,539,539,539,539,539,539,539,539,539,539,539,539,539,539,539,539,539,539,539,539,539,539,539,539,539,539,539,539,539,539,539,539,539,539,539,539,539,539,539,539,539,539,539,539,539,539,539,539,539,539,539,539,539,539,536,533,531,530,530,530,527,525,522,520,519,519,519,519,519,519,519,519,519,519,514,503,491,480,473,473,473,473,473,473,473,473,472,472,472,472,475,476,478,478,478,478,478,478,478,478,478,478,478,478,478,478,478,478,478,478,478,478,478,478,478,478,478,478,478,478,478,478,478,478,478,478,481,483,487,489,489,489,489,489,489,489,489,489,489,489,489,489,489,489,489,489,489,489,489,489,489,489,489,489,485,485,485,485,485,485,485,485,485,485,485,485,485,485,485,485,485,485,485,485,485,485,485,485,485,485,485,485,485,485,485,15,15,15,16],"timestamp_mouse":[10,29,51,70,90,111,131,149,169,190,210,231,250,271,290,310,330,351,371,391,411,430,450,471,490,511,531,550,571,591,609,630,651,670,690,710,729,750,769,791,810,830,851,871,891,910,930,949,970,991,1010,1029,1050,1071,1090,1110,1131,1149,1171,1191,1211,1230,1250,1269,1291,1309,1330,1350,1371,1391,1410,1430,1449,1471,1490,1510,1531,1549,1570,1591,1610,1631,1649,1671,1689,1710,1730,1750,1770,1790,1810,1830,1849,1870,1890,1909,1931,1951,1969,1991,2011,2031,2051,2070,2090,2110,2129,2151,2171,2191,2211,2230,2251,2271,2291,2311,2329,2349,2371,2390,2410,2429,2451,2471,2490,2510,2529,2551,2570,2591,2611,2630,2650,2671,2691,2711,2730,2751,2769,2791,2809,2830,2849,2871,2890,2910,2930,2951,2969,2990,3010,3031,3051,3070,3090,3110,3130,3150,3170,3190,3210,3231,3250,3271,3291,3310,3330,3350,3370,3391,3410,3430,3450,3471,3489,3510,3531,3550,3569,3591,3611,3629,3649,3670,3691,3711,3731,3750,3770,3790,3810,3831,3851,3869,3889,3910,3930,3949,3971,3990,4011,4030,4051,4071,4091,4110,4131,4149,4171,4190,4210,4231,4250,4271,4291,4311,4330,4350,4370,4391,4410,4429,4450,4470,4491,4510,4531,4551,4571,4591,4611,4631,4651,4670,4691,4711,4731,4750,4770,4790,4811,4831,4850,4870,4890,4911,4930,4951,4971,4990,5009,5031,5051,5070,5090,5111,5130,5151,5170,5191,5209,5231,5250,5271,5289,5310,5331,5350,5370,5391,5409,5430],"xSR":741.5,"ySR":500.5,"xT1":424.9,"yT1":0,"xT2":1058.1,"yT2":0,"toosoon":0,"cond_shown":"Congruent","ratio_trial":200,"L_num":8,"L_den":15,"R_num":2,"R_den":6,"correct_side":1,"subjID":"isabella rincon pinzon 27","gender":"1 ","age":"Isabella Rincon Pinzon 27","school":"4","test":{"fix_dur":[250,1500],"timestim":1000,"targets_dim":[100,100],"targets_relative_coord":[0.3,0.7],"size_stim":[880,420],"start_dim":[100,100],"size_start":[300,300],"size_fix":60,"samplingrate":20,"img_types":["Congruent","Incongruent"],"ratios":[100,200,300],"rep_conds":19,"nTrials":120,"trials_to_rest":500,"Trials_order":[86,94,42,110,78,24,67,58,65,71,47,77,55,101,99,3,118,45,68,75,29,23,59,21,61,105,30,41,104,8,76,54,100,64,52,62,37,12,11,63,34,97,15,20,96,7,57,53,92,112,83,56,84,28,48,10,60,46,82,106,44,43,72,119,40,49,27,31,95,111,116,4,80,18,9,39,117,79,5,33,88,17,109,102,81,98,2,91,6,73,19,107,69,26,113,50,16,85,74,93,25,38,103,32,14,87,13,108,66,1,22,89,36,0,70,35,51,114,90,115],"cond_shown":["Congruent","Congruent","Congruent","Congruent","Congruent","Congruent","Incongruent","Congruent","Incongruent","Incongruent","Incongruent","Incongruent","Incongruent","Incongruent","Incongruent","Incongruent","Congruent","Incongruent","Congruent","Incongruent","Incongruent","Incongruent","Incongruent","Incongruent","Incongruent","Incongruent","Congruent","Incongruent","Congruent","Congruent","Congruent","Congruent","Congruent","Congruent","Congruent","Congruent","Incongruent","Congruent","Incongruent","Incongruent","Congruent","Incongruent","Incongruent","Congruent","Congruent","Incongruent","Incongruent","Incongruent","Congruent","Congruent","Incongruent","Congruent","Congruent","Congruent","Congruent","Congruent","Congruent","Congruent","Congruent","Congruent","Congruent","Incongruent","Congruent","Incongruent","Congruent","Incongruent","Incongruent","Incongruent","Incongruent","Incongruent","Congruent","Congruent","Congruent","Congruent","Incongruent","Incongruent","Incongruent","Incongruent","Incongruent","Incongruent","Congruent","Incongruent","Incongruent","Congruent","Incongruent","Congruent","Congruent","Incongruent","Congruent","Incongruent","Incongruent","Incongruent","Incongruent","Congruent","Incongruent","Congruent","Congruent","Incongruent","Congruent","Incongruent","Incongruent","Congruent","Incongruent","Congruent","Congruent","Incongruent","Incongruent","Congruent","Congruent","Incongruent","Congruent","Incongruent","Congruent","Congruent","Congruent","Incongruent","Incongruent","Congruent","Congruent","Incongruent"],"ratio_trial":[200,300,100,200,100,100,100,300,300,300,300,300,100,300,200,200,300,200,200,200,300,300,300,200,100,200,100,300,200,200,300,100,300,300,300,200,100,100,300,200,300,100,200,200,100,100,200,300,200,300,300,200,100,300,100,300,100,300,300,300,200,100,100,300,300,100,200,100,300,200,200,300,200,100,200,200,200,100,300,200,300,300,100,100,200,200,200,100,100,100,100,300,200,200,300,200,300,100,200,200,100,200,100,200,200,200,100,100,100,100,300,300,100,100,300,300,200,100,100,100],"left_num":[8,18,8,14,9,9,3,1,4,2,4,13,9,4,3,14,2,3,13,3,1,8,8,6,13,7,1,1,12,5,5,3,20,20,20,12,11,11,8,1,2,10,7,3,6,13,11,4,11,11,4,20,2,5,7,18,6,9,4,2,7,9,3,4,11,6,7,9,8,4,3,1,3,3,4,4,7,6,3,6,20,7,12,7,7,6,3,6,11,12,12,8,7,15,13,3,11,6,11,7,6,14,6,3,15,4,3,3,7,10,18,8,15,8,2,7,1,2,6,2],"right_num":[2,9,2,6,8,8,11,6,2,6,6,12,14,2,1,12,10,11,14,1,3,14,9,3,6,12,18,3,6,14,6,4,14,5,8,6,9,6,14,3,12,9,12,11,5,6,3,2,3,2,2,9,11,7,9,9,15,3,2,12,2,14,4,2,1,13,12,6,9,14,14,3,14,2,6,1,6,13,4,3,5,8,9,15,4,11,9,13,4,2,9,14,6,4,12,9,1,3,3,12,3,6,7,14,4,6,7,2,15,8,9,14,13,2,10,8,3,6,15,6],"left_den":[15,20,16,28,15,15,5,5,20,4,5,26,15,20,10,30,20,4,26,10,2,10,10,20,26,10,2,2,20,10,25,20,25,25,25,20,22,22,10,2,10,25,10,10,20,26,20,20,22,22,20,25,5,25,14,20,12,10,5,10,21,15,20,20,22,10,10,18,10,6,10,5,10,6,5,30,15,10,6,20,25,10,24,14,15,20,12,10,22,30,24,10,15,25,26,12,22,12,22,10,12,28,10,6,25,5,9,6,14,25,20,10,25,16,20,10,2,5,12,4],"right_den":[6,15,5,20,16,16,22,12,4,30,12,15,28,4,2,18,25,20,20,2,15,28,18,6,10,24,30,15,15,20,12,16,28,10,16,15,15,15,28,10,24,18,24,22,25,10,4,4,10,10,4,15,22,14,15,15,25,5,4,24,15,28,16,4,5,26,24,10,18,30,28,6,28,5,10,3,9,26,20,6,10,20,15,25,6,22,20,26,10,4,15,28,9,10,15,20,5,5,10,24,5,20,14,20,10,10,30,5,25,16,15,28,26,5,25,20,10,12,25,15],"correct_side":[1,1,1,1,1,1,1,2,2,1,1,2,1,2,2,2,2,1,2,2,1,1,1,2,2,1,2,1,1,2,2,2,1,1,1,1,2,1,1,1,2,2,1,2,1,2,2,2,1,1,2,1,2,2,2,1,2,1,1,2,1,1,2,2,1,1,1,2,1,1,2,2,2,1,1,2,2,1,1,2,1,1,2,2,2,2,2,1,1,2,2,1,2,1,2,2,1,2,1,1,2,1,1,2,1,1,1,1,2,2,1,1,1,1,2,1,1,2,2,1],"img_shown":["img2/200/Congruent/L/C_Dist_200_LN_8_LD_15_RN_2_RD_6_0.png","img2/300/Congruent/L/C_Dist_300_LN_18_LD_20_RN_9_RD_15_0.png","img2/100/Congruent/L/C_Dist_100_LN_8_LD_16_RN_2_RD_5_0.png","img2/200/Congruent/L/C_Dist_200_LN_14_LD_28_RN_6_RD_20_0.png","img2/100/Congruent/L/C_Dist_100_LN_9_LD_15_RN_8_RD_16_0.png","img2/100/Congruent/L/C_Dist_100_LN_9_LD_15_RN_8_RD_16_0.png","img2/100/Incongruent/L/I_Dist_100_LN_3_LD_5_RN_11_RD_22_0.png","img2/300/Congruent/R/C_Dist_300_LN_1_LD_5_RN_6_RD_12_1.png","img2/300/Incongruent/R/I_Dist_300_LN_4_LD_20_RN_2_RD_4_1.png","img2/300/Incongruent/L/I_Dist_300_LN_2_LD_4_RN_6_RD_30_0.png","img2/300/Incongruent/L/I_Dist_300_LN_4_LD_5_RN_6_RD_12_0.png","img2/300/Incongruent/R/I_Dist_300_LN_13_LD_26_RN_12_RD_15_1.png","img2/100/Incongruent/L/I_Dist_100_LN_9_LD_15_RN_14_RD_28_0.png","img2/300/Incongruent/R/I_Dist_300_LN_4_LD_20_RN_2_RD_4_1.png","img2/200/Incongruent/R/I_Dist_200_LN_3_LD_10_RN_1_RD_2_1.png","img2/200/Incongruent/R/I_Dist_200_LN_14_LD_30_RN_12_RD_18_1.png","img2/300/Congruent/R/C_Dist_300_LN_2_LD_20_RN_10_RD_25_1.png","img2/200/Incongruent/L/I_Dist_200_LN_3_LD_4_RN_11_RD_20_0.png","img2/200/Congruent/R/C_Dist_200_LN_13_LD_26_RN_14_RD_20_1.png","img2/200/Incongruent/R/I_Dist_200_LN_3_LD_10_RN_1_RD_2_1.png","img2/300/Incongruent/L/I_Dist_300_LN_1_LD_2_RN_3_RD_15_0.png","img2/300/Incongruent/L/I_Dist_300_LN_8_LD_10_RN_14_RD_28_0.png","img2/300/Incongruent/L/I_Dist_300_LN_8_LD_10_RN_9_RD_18_0.png","img2/200/Incongruent/R/I_Dist_200_LN_6_LD_20_RN_3_RD_6_1.png","img2/100/Incongruent/R/I_Dist_100_LN_13_LD_26_RN_6_RD_10_1.png","img2/200/Incongruent/L/I_Dist_200_LN_7_LD_10_RN_12_RD_24_0.png","img2/100/Congruent/R/C_Dist_100_LN_1_LD_2_RN_18_RD_30_1.png","img2/300/Incongruent/L/I_Dist_300_LN_1_LD_2_RN_3_RD_15_0.png","img2/200/Congruent/L/C_Dist_200_LN_12_LD_20_RN_6_RD_15_0.png","img2/200/Congruent/R/C_Dist_200_LN_5_LD_10_RN_14_RD_20_1.png","img2/300/Congruent/R/C_Dist_300_LN_5_LD_25_RN_6_RD_12_1.png","img2/100/Congruent/R/C_Dist_100_LN_3_LD_20_RN_4_RD_16_1.png","img2/300/Congruent/L/C_Dist_300_LN_20_LD_25_RN_14_RD_28_0.png","img2/300/Congruent/L/C_Dist_300_LN_20_LD_25_RN_5_RD_10_0.png","img2/300/Congruent/L/C_Dist_300_LN_20_LD_25_RN_8_RD_16_0.png","img2/200/Congruent/L/C_Dist_200_LN_12_LD_20_RN_6_RD_15_0.png","img2/100/Incongruent/R/I_Dist_100_LN_11_LD_22_RN_9_RD_15_1.png","img2/100/Congruent/L/C_Dist_100_LN_11_LD_22_RN_6_RD_15_0.png","img2/300/Incongruent/L/I_Dist_300_LN_8_LD_10_RN_14_RD_28_0.png","img2/200/Incongruent/L/I_Dist_200_LN_1_LD_2_RN_3_RD_10_0.png","img2/300/Congruent/R/C_Dist_300_LN_2_LD_10_RN_12_RD_24_1.png","img2/100/Incongruent/R/I_Dist_100_LN_10_LD_25_RN_9_RD_18_1.png","img2/200/Incongruent/L/I_Dist_200_LN_7_LD_10_RN_12_RD_24_0.png","img2/200/Congruent/R/C_Dist_200_LN_3_LD_10_RN_11_RD_22_1.png","img2/100/Congruent/L/C_Dist_100_LN_6_LD_20_RN_5_RD_25_0.png","img2/100/Incongruent/R/I_Dist_100_LN_13_LD_26_RN_6_RD_10_1.png","img2/200/Incongruent/R/I_Dist_200_LN_11_LD_20_RN_3_RD_4_1.png","img2/300/Incongruent/R/I_Dist_300_LN_4_LD_20_RN_2_RD_4_1.png","img2/200/Congruent/L/C_Dist_200_LN_11_LD_22_RN_3_RD_10_0.png","img2/300/Congruent/L/C_Dist_300_LN_11_LD_22_RN_2_RD_10_0.png","img2/300/Incongruent/R/I_Dist_300_LN_4_LD_20_RN_2_RD_4_1.png","img2/200/Congruent/L/C_Dist_200_LN_20_LD_25_RN_9_RD_15_0.png","img2/100/Congruent/R/C_Dist_100_LN_2_LD_5_RN_11_RD_22_1.png","img2/300/Congruent/R/C_Dist_300_LN_5_LD_25_RN_7_RD_14_1.png","img2/100/Congruent/R/C_Dist_100_LN_7_LD_14_RN_9_RD_15_1.png","img2/300/Congruent/L/C_Dist_300_LN_18_LD_20_RN_9_RD_15_0.png","img2/100/Congruent/R/C_Dist_100_LN_6_LD_12_RN_15_RD_25_1.png","img2/300/Congruent/L/C_Dist_300_LN_9_LD_10_RN_3_RD_5_0.png","img2/300/Congruent/L/C_Dist_300_LN_4_LD_5_RN_2_RD_4_0.png","img2/300/Congruent/R/C_Dist_300_LN_2_LD_10_RN_12_RD_24_1.png","img2/200/Congruent/L/C_Dist_200_LN_7_LD_21_RN_2_RD_15_0.png","img2/100/Incongruent/L/I_Dist_100_LN_9_LD_15_RN_14_RD_28_0.png","img2/100/Congruent/R/C_Dist_100_LN_3_LD_20_RN_4_RD_16_1.png","img2/300/Incongruent/R/I_Dist_300_LN_4_LD_20_RN_2_RD_4_1.png","img2/300/Congruent/L/C_Dist_300_LN_11_LD_22_RN_1_RD_5_0.png","img2/100/Incongruent/L/I_Dist_100_LN_6_LD_10_RN_13_RD_26_0.png","img2/200/Incongruent/L/I_Dist_200_LN_7_LD_10_RN_12_RD_24_0.png","img2/100/Incongruent/R/I_Dist_100_LN_9_LD_18_RN_6_RD_10_1.png","img2/300/Incongruent/L/I_Dist_300_LN_8_LD_10_RN_9_RD_18_0.png","img2/200/Incongruent/L/I_Dist_200_LN_4_LD_6_RN_14_RD_30_0.png","img2/200/Congruent/R/C_Dist_200_LN_3_LD_10_RN_14_RD_28_1.png","img2/300/Congruent/R/C_Dist_300_LN_1_LD_5_RN_3_RD_6_1.png","img2/200/Congruent/R/C_Dist_200_LN_3_LD_10_RN_14_RD_28_1.png","img2/100/Congruent/L/C_Dist_100_LN_3_LD_6_RN_2_RD_5_0.png","img2/200/Incongruent/L/I_Dist_200_LN_4_LD_5_RN_6_RD_10_0.png","img2/200/Incongruent/R/I_Dist_200_LN_4_LD_30_RN_1_RD_3_1.png","img2/200/Incongruent/R/I_Dist_200_LN_7_LD_15_RN_6_RD_9_1.png","img2/100/Incongruent/L/I_Dist_100_LN_6_LD_10_RN_13_RD_26_0.png","img2/300/Incongruent/L/I_Dist_300_LN_3_LD_6_RN_4_RD_20_0.png","img2/200/Incongruent/R/I_Dist_200_LN_6_LD_20_RN_3_RD_6_1.png","img2/300/Congruent/L/C_Dist_300_LN_20_LD_25_RN_5_RD_10_0.png","img2/300/Incongruent/L/I_Dist_300_LN_7_LD_10_RN_8_RD_20_0.png","img2/100/Incongruent/R/I_Dist_100_LN_12_LD_24_RN_9_RD_15_1.png","img2/100/Congruent/R/C_Dist_100_LN_7_LD_14_RN_15_RD_25_1.png","img2/200/Incongruent/R/I_Dist_200_LN_7_LD_15_RN_4_RD_6_1.png","img2/200/Congruent/R/C_Dist_200_LN_6_LD_20_RN_11_RD_22_1.png","img2/200/Congruent/R/C_Dist_200_LN_3_LD_12_RN_9_RD_20_1.png","img2/100/Incongruent/L/I_Dist_100_LN_6_LD_10_RN_13_RD_26_0.png","img2/100/Congruent/L/C_Dist_100_LN_11_LD_22_RN_4_RD_10_0.png","img2/100/Incongruent/R/I_Dist_100_LN_12_LD_30_RN_2_RD_4_1.png","img2/100/Incongruent/R/I_Dist_100_LN_12_LD_24_RN_9_RD_15_1.png","img2/300/Incongruent/L/I_Dist_300_LN_8_LD_10_RN_14_RD_28_0.png","img2/200/Incongruent/R/I_Dist_200_LN_7_LD_15_RN_6_RD_9_1.png","img2/200/Congruent/L/C_Dist_200_LN_15_LD_25_RN_4_RD_10_0.png","img2/300/Incongruent/R/I_Dist_300_LN_13_LD_26_RN_12_RD_15_1.png","img2/200/Congruent/R/C_Dist_200_LN_3_LD_12_RN_9_RD_20_1.png","img2/300/Congruent/L/C_Dist_300_LN_11_LD_22_RN_1_RD_5_0.png","img2/100/Incongruent/R/I_Dist_100_LN_6_LD_12_RN_3_RD_5_1.png","img2/200/Congruent/L/C_Dist_200_LN_11_LD_22_RN_3_RD_10_0.png","img2/200/Incongruent/L/I_Dist_200_LN_7_LD_10_RN_12_RD_24_0.png","img2/100/Incongruent/R/I_Dist_100_LN_6_LD_12_RN_3_RD_5_1.png","img2/200/Congruent/L/C_Dist_200_LN_14_LD_28_RN_6_RD_20_0.png","img2/100/Incongruent/L/I_Dist_100_LN_6_LD_10_RN_7_RD_14_0.png","img2/200/Congruent/R/C_Dist_200_LN_3_LD_6_RN_14_RD_20_1.png","img2/200/Congruent/L/C_Dist_200_LN_15_LD_25_RN_4_RD_10_0.png","img2/200/Incongruent/L/I_Dist_200_LN_4_LD_5_RN_6_RD_10_0.png","img2/100/Incongruent/L/I_Dist_100_LN_3_LD_9_RN_7_RD_30_0.png","img2/100/Congruent/L/C_Dist_100_LN_3_LD_6_RN_2_RD_5_0.png","img2/100/Congruent/R/C_Dist_100_LN_7_LD_14_RN_15_RD_25_1.png","img2/100/Incongruent/R/I_Dist_100_LN_10_LD_25_RN_8_RD_16_1.png","img2/300/Congruent/L/C_Dist_300_LN_18_LD_20_RN_9_RD_15_0.png","img2/300/Incongruent/L/I_Dist_300_LN_8_LD_10_RN_14_RD_28_0.png","img2/100/Congruent/L/C_Dist_100_LN_15_LD_25_RN_13_RD_26_0.png","img2/100/Congruent/L/C_Dist_100_LN_8_LD_16_RN_2_RD_5_0.png","img2/300/Congruent/R/C_Dist_300_LN_2_LD_20_RN_10_RD_25_1.png","img2/300/Incongruent/L/I_Dist_300_LN_7_LD_10_RN_8_RD_20_0.png","img2/200/Incongruent/L/I_Dist_200_LN_1_LD_2_RN_3_RD_10_0.png","img2/100/Congruent/R/C_Dist_100_LN_2_LD_5_RN_6_RD_12_1.png","img2/100/Congruent/R/C_Dist_100_LN_6_LD_12_RN_15_RD_25_1.png","img2/100/Incongruent/L/I_Dist_100_LN_2_LD_4_RN_6_RD_15_0.png"],"dist100_C":[["C_Dist_100_LN_10_LD_25_RN_3_RD_10_0.png","C_Dist_100_LN_11_LD_22_RN_4_RD_10_0.png","C_Dist_100_LN_11_LD_22_RN_6_RD_15_0.png","C_Dist_100_LN_15_LD_25_RN_13_RD_26_0.png","C_Dist_100_LN_3_LD_6_RN_2_RD_5_0.png","C_Dist_100_LN_6_LD_20_RN_5_RD_25_0.png","C_Dist_100_LN_8_LD_16_RN_2_RD_5_0.png","C_Dist_100_LN_9_LD_15_RN_8_RD_16_0.png"],["C_Dist_100_LN_1_LD_2_RN_18_RD_30_1.png","C_Dist_100_LN_1_LD_2_RN_3_RD_5_1.png","C_Dist_100_LN_12_LD_30_RN_13_RD_26_1.png","C_Dist_100_LN_2_LD_5_RN_11_RD_22_1.png","C_Dist_100_LN_2_LD_5_RN_6_RD_12_1.png","C_Dist_100_LN_3_LD_20_RN_4_RD_16_1.png","C_Dist_100_LN_4_LD_10_RN_15_RD_30_1.png","C_Dist_100_LN_4_LD_8_RN_6_RD_10_1.png","C_Dist_100_LN_6_LD_12_RN_15_RD_25_1.png","C_Dist_100_LN_7_LD_14_RN_15_RD_25_1.png","C_Dist_100_LN_7_LD_14_RN_9_RD_15_1.png"]],"dist100_I":[["I_Dist_100_LN_1_LD_2_RN_8_RD_20_0.png","I_Dist_100_LN_2_LD_4_RN_6_RD_15_0.png","I_Dist_100_LN_2_LD_4_RN_8_RD_20_0.png","I_Dist_100_LN_3_LD_5_RN_11_RD_22_0.png","I_Dist_100_LN_3_LD_5_RN_8_RD_16_0.png","I_Dist_100_LN_3_LD_6_RN_4_RD_10_0.png","I_Dist_100_LN_3_LD_9_RN_7_RD_30_0.png","I_Dist_100_LN_4_LD_8_RN_8_RD_20_0.png","I_Dist_100_LN_6_LD_10_RN_11_RD_22_0.png","I_Dist_100_LN_6_LD_10_RN_13_RD_26_0.png","I_Dist_100_LN_6_LD_10_RN_7_RD_14_0.png","I_Dist_100_LN_9_LD_10_RN_20_RD_25_0.png","I_Dist_100_LN_9_LD_15_RN_13_RD_26_0.png","I_Dist_100_LN_9_LD_15_RN_14_RD_28_0.png"],["I_Dist_100_LN_10_LD_25_RN_8_RD_16_1.png","I_Dist_100_LN_10_LD_25_RN_9_RD_18_1.png","I_Dist_100_LN_11_LD_22_RN_9_RD_15_1.png","I_Dist_100_LN_12_LD_24_RN_9_RD_15_1.png","I_Dist_100_LN_12_LD_30_RN_2_RD_4_1.png","I_Dist_100_LN_13_LD_26_RN_12_RD_20_1.png","I_Dist_100_LN_13_LD_26_RN_6_RD_10_1.png","I_Dist_100_LN_17_LD_30_RN_10_RD_15_1.png","I_Dist_100_LN_6_LD_12_RN_3_RD_5_1.png","I_Dist_100_LN_8_LD_16_RN_6_RD_10_1.png","I_Dist_100_LN_8_LD_20_RN_1_RD_2_1.png","I_Dist_100_LN_9_LD_18_RN_6_RD_10_1.png"]],"dist100_S":[["E_Dist_100_LN_2_LD_12_RN_2_RD_30_0.png","E_Dist_100_LN_6_LD_10_RN_6_RD_12_0.png"],["E_Dist_100_LN_6_LD_12_RN_6_RD_10_1.png"]],"dist200_C":[["C_Dist_200_LN_11_LD_22_RN_3_RD_10_0.png","C_Dist_200_LN_12_LD_15_RN_6_RD_10_0.png","C_Dist_200_LN_12_LD_20_RN_6_RD_15_0.png","C_Dist_200_LN_14_LD_28_RN_6_RD_20_0.png","C_Dist_200_LN_15_LD_25_RN_4_RD_10_0.png","C_Dist_200_LN_16_LD_20_RN_12_RD_20_0.png","C_Dist_200_LN_16_LD_30_RN_9_RD_27_0.png","C_Dist_200_LN_20_LD_25_RN_9_RD_15_0.png","C_Dist_200_LN_21_LD_30_RN_2_RD_4_0.png","C_Dist_200_LN_4_LD_10_RN_3_RD_15_0.png","C_Dist_200_LN_4_LD_8_RN_3_RD_10_0.png","C_Dist_200_LN_6_LD_15_RN_3_RD_15_0.png","C_Dist_200_LN_7_LD_21_RN_2_RD_15_0.png","C_Dist_200_LN_8_LD_15_RN_2_RD_6_0.png","C_Dist_200_LN_8_LD_15_RN_3_RD_9_0.png","C_Dist_200_LN_8_LD_15_RN_7_RD_21_0.png","C_Dist_200_LN_9_LD_20_RN_4_RD_16_0.png"],["C_Dist_200_LN_1_LD_2_RN_21_RD_30_1.png","C_Dist_200_LN_13_LD_26_RN_14_RD_20_1.png","C_Dist_200_LN_3_LD_10_RN_11_RD_22_1.png","C_Dist_200_LN_3_LD_10_RN_14_RD_28_1.png","C_Dist_200_LN_3_LD_10_RN_7_RD_14_1.png","C_Dist_200_LN_3_LD_12_RN_9_RD_20_1.png","C_Dist_200_LN_3_LD_6_RN_14_RD_20_1.png","C_Dist_200_LN_5_LD_10_RN_14_RD_20_1.png","C_Dist_200_LN_6_LD_12_RN_7_RD_10_1.png","C_Dist_200_LN_6_LD_20_RN_11_RD_22_1.png","C_Dist_200_LN_7_LD_15_RN_18_RD_27_1.png","C_Dist_200_LN_9_LD_30_RN_13_RD_26_1.png"]],"dist200_I":[["I_Dist_200_LN_1_LD_2_RN_3_RD_10_0.png","I_Dist_200_LN_1_LD_3_RN_2_RD_15_0.png","I_Dist_200_LN_3_LD_4_RN_11_RD_20_0.png","I_Dist_200_LN_4_LD_5_RN_6_RD_10_0.png","I_Dist_200_LN_4_LD_6_RN_14_RD_30_0.png","I_Dist_200_LN_7_LD_10_RN_12_RD_24_0.png","I_Dist_200_LN_7_LD_10_RN_14_RD_28_0.png","I_Dist_200_LN_7_LD_10_RN_8_RD_16_0.png"],["I_Dist_200_LN_11_LD_20_RN_3_RD_4_1.png","I_Dist_200_LN_14_LD_30_RN_12_RD_18_1.png","I_Dist_200_LN_14_LD_30_RN_6_RD_9_1.png","I_Dist_200_LN_3_LD_10_RN_1_RD_2_1.png","I_Dist_200_LN_4_LD_30_RN_1_RD_3_1.png","I_Dist_200_LN_6_LD_20_RN_3_RD_6_1.png","I_Dist_200_LN_7_LD_15_RN_4_RD_6_1.png","I_Dist_200_LN_7_LD_15_RN_6_RD_9_1.png","I_Dist_200_LN_9_LD_15_RN_8_RD_10_1.png"]],"dist200_S":[["E_Dist_200_LN_3_LD_6_RN_3_RD_10_0.png"],["E_Dist_200_LN_3_LD_10_RN_3_RD_6_1.png"]],"dist300_C":[["C_Dist_300_LN_11_LD_22_RN_1_RD_5_0.png","C_Dist_300_LN_11_LD_22_RN_2_RD_10_0.png","C_Dist_300_LN_11_LD_22_RN_4_RD_20_0.png","C_Dist_300_LN_12_LD_24_RN_2_RD_10_0.png","C_Dist_300_LN_18_LD_20_RN_9_RD_15_0.png","C_Dist_300_LN_20_LD_25_RN_13_RD_26_0.png","C_Dist_300_LN_20_LD_25_RN_14_RD_28_0.png","C_Dist_300_LN_20_LD_25_RN_5_RD_10_0.png","C_Dist_300_LN_20_LD_25_RN_8_RD_16_0.png","C_Dist_300_LN_20_LD_25_RN_9_RD_18_0.png","C_Dist_300_LN_24_LD_30_RN_2_RD_4_0.png","C_Dist_300_LN_24_LD_30_RN_8_RD_16_0.png","C_Dist_300_LN_3_LD_6_RN_2_RD_10_0.png","C_Dist_300_LN_4_LD_10_RN_1_RD_10_0.png","C_Dist_300_LN_4_LD_5_RN_2_RD_4_0.png","C_Dist_300_LN_8_LD_16_RN_1_RD_5_0.png","C_Dist_300_LN_9_LD_10_RN_3_RD_5_0.png"],["C_Dist_300_LN_1_LD_20_RN_7_RD_20_1.png","C_Dist_300_LN_1_LD_3_RN_19_RD_30_1.png","C_Dist_300_LN_1_LD_30_RN_8_RD_24_1.png","C_Dist_300_LN_1_LD_5_RN_11_RD_22_1.png","C_Dist_300_LN_1_LD_5_RN_3_RD_6_1.png","C_Dist_300_LN_1_LD_5_RN_6_RD_12_1.png","C_Dist_300_LN_2_LD_10_RN_12_RD_24_1.png","C_Dist_300_LN_2_LD_20_RN_10_RD_25_1.png","C_Dist_300_LN_3_LD_12_RN_11_RD_20_1.png","C_Dist_300_LN_3_LD_6_RN_4_RD_5_1.png","C_Dist_300_LN_4_LD_20_RN_13_RD_26_1.png","C_Dist_300_LN_5_LD_25_RN_6_RD_12_1.png","C_Dist_300_LN_5_LD_25_RN_7_RD_14_1.png","C_Dist_300_LN_7_LD_14_RN_20_RD_25_1.png","C_Dist_300_LN_8_LD_15_RN_10_RD_12_1.png"]],"dist300_I":[["I_Dist_300_LN_1_LD_2_RN_2_RD_10_0.png","I_Dist_300_LN_1_LD_2_RN_3_RD_15_0.png","I_Dist_300_LN_2_LD_4_RN_6_RD_30_0.png","I_Dist_300_LN_3_LD_6_RN_4_RD_20_0.png","I_Dist_300_LN_4_LD_5_RN_6_RD_12_0.png","I_Dist_300_LN_4_LD_5_RN_8_RD_16_0.png","I_Dist_300_LN_7_LD_10_RN_8_RD_20_0.png","I_Dist_300_LN_8_LD_10_RN_14_RD_28_0.png","I_Dist_300_LN_8_LD_10_RN_9_RD_18_0.png"],["I_Dist_300_LN_13_LD_26_RN_12_RD_15_1.png","I_Dist_300_LN_4_LD_20_RN_2_RD_4_1.png"]],"dist300_S":[["E_Dist_300_LN_9_LD_12_RN_9_RD_20_0.png"],["E_Dist_300_LN_18_LD_30_RN_18_RD_20_1.png","E_Dist_300_LN_3_LD_10_RN_3_RD_5_1.png","E_Dist_300_LN_9_LD_20_RN_9_RD_12_1.png"]],"dist500_C":[["C_Dist_500_LN_10_LD_13_RN_7_RD_26_0.png","C_Dist_500_LN_10_LD_15_RN_4_RD_24_0.png","C_Dist_500_LN_12_LD_16_RN_3_RD_12_0.png","C_Dist_500_LN_12_LD_18_RN_4_RD_24_0.png","C_Dist_500_LN_15_LD_18_RN_5_RD_15_0.png","C_Dist_500_LN_15_LD_20_RN_1_RD_4_0.png","C_Dist_500_LN_18_LD_27_RN_1_RD_6_0.png","C_Dist_500_LN_20_LD_24_RN_1_RD_3_0.png","C_Dist_500_LN_20_LD_24_RN_3_RD_9_0.png","C_Dist_500_LN_20_LD_24_RN_7_RD_21_0.png","C_Dist_500_LN_20_LD_28_RN_3_RD_14_0.png","C_Dist_500_LN_21_LD_28_RN_6_RD_24_0.png","C_Dist_500_LN_22_LD_28_RN_2_RD_7_0.png","C_Dist_500_LN_25_LD_30_RN_9_RD_27_0.png","C_Dist_500_LN_4_LD_6_RN_1_RD_6_0.png","C_Dist_500_LN_5_LD_6_RN_2_RD_6_0.png","C_Dist_500_LN_6_LD_9_RN_1_RD_6_0.png","C_Dist_500_LN_7_LD_10_RN_1_RD_5_0.png","C_Dist_500_LN_8_LD_12_RN_1_RD_6_0.png","C_Dist_500_LN_8_LD_12_RN_4_RD_24_0.png"],["C_Dist_500_LN_1_LD_4_RN_12_RD_16_1.png","C_Dist_500_LN_1_LD_4_RN_9_RD_12_1.png","C_Dist_500_LN_1_LD_9_RN_11_RD_18_1.png","C_Dist_500_LN_10_LD_24_RN_22_RD_24_1.png","C_Dist_500_LN_2_LD_12_RN_10_RD_15_1.png","C_Dist_500_LN_2_LD_12_RN_12_RD_18_1.png","C_Dist_500_LN_2_LD_12_RN_4_RD_6_1.png","C_Dist_500_LN_2_LD_24_RN_7_RD_12_1.png","C_Dist_500_LN_2_LD_5_RN_18_RD_20_1.png","C_Dist_500_LN_2_LD_5_RN_9_RD_10_1.png","C_Dist_500_LN_2_LD_8_RN_12_RD_16_1.png","C_Dist_500_LN_2_LD_8_RN_21_RD_28_1.png","C_Dist_500_LN_3_LD_10_RN_4_RD_5_1.png","C_Dist_500_LN_3_LD_12_RN_15_RD_20_1.png","C_Dist_500_LN_3_LD_30_RN_6_RD_10_1.png","C_Dist_500_LN_3_LD_8_RN_14_RD_16_1.png","C_Dist_500_LN_4_LD_16_RN_15_RD_20_1.png","C_Dist_500_LN_4_LD_24_RN_12_RD_18_1.png","C_Dist_500_LN_5_LD_14_RN_6_RD_7_1.png","C_Dist_500_LN_7_LD_21_RN_20_RD_24_1.png","C_Dist_500_LN_7_LD_28_RN_12_RD_16_1.png","C_Dist_500_LN_7_LD_28_RN_9_RD_12_1.png","C_Dist_500_LN_9_LD_27_RN_20_RD_24_1.png"]],"dist500_I":[["I_Dist_500_LN_2_LD_3_RN_4_RD_24_0.png","I_Dist_500_LN_5_LD_6_RN_6_RD_18_0.png","I_Dist_500_LN_7_LD_8_RN_9_RD_24_0.png"],["I_Dist_500_LN_7_LD_21_RN_5_RD_6_1.png"]],"dist500_S":[["E_Dist_500_LN_6_LD_8_RN_6_RD_24_0.png"],["E_Dist_500_LN_2_LD_12_RN_2_RD_3_1.png","E_Dist_500_LN_6_LD_24_RN_6_RD_8_1.png"]]}},{"start_time":1552073561972,"click_time":1552073563502,"finger_time":1552073563502,"fix_duration":1408.4290764833536,"trial":1,"RT":1530,"MT":0,"sideResp":2,"stimulus":[],"xmouse":[774,774,774,774,774,774,774,774,774,774,774,774,774,774,774,774,774,774,774,774,774,774,774,774,774,774,774,774,774,774,774,774,774,774,774,774,774,774,774,774,774,774,774,774,774,774,783,783,783,783,783,783,783,783,783,783,783,783,783,783,783,783,783,783,783,783,783,783,783,783,783,783,783,783,783,1077],"ymouse":[524,524,524,524,524,524,524,524,524,524,524,524,524,524,524,524,524,524,524,524,524,524,524,524,524,524,524,524,524,524,524,524,524,524,524,524,524,524,524,524,524,524,524,524,524,524,518,518,518,518,518,518,518,518,518,518,518,518,518,518,518,518,518,518,518,518,518,518,518,518,518,518,518,518,518,27],"timestamp_mouse":[15,56,70,89,110,131,151,171,191,209,230,249,271,291,311,330,351,370,390,409,431,450,470,490,510,530,550,571,591,611,631,651,671,691,710,731,750,770,791,811,831,850,871,890,911,930,950,970,990,1010,1029,1050,1071,1090,1110,1129,1150,1170,1191,1210,1231,1250,1270,1289,1310,1330,1350,1370,1391,1410,1430,1450,1471,1490,1510,1530],"xSR":741.5,"ySR":469.95,"xT1":424.9,"yT1":0,"xT2":1058.1,"yT2":0,"toosoon":0,"cond_shown":"Congruent","ratio_trial":300,"L_num":18,"L_den":20,"R_num":9,"R_den":15,"correct_side":1,"subjID":"isabella rincon pinzon 27","gender":"1 ","school":"4","age":"Isabella Rincon Pinzon 27"},{"start_time":1552073566676,"click_time":1552073568062,"finger_time":1552073568062,"fix_duration":250,"trial":2,"RT":1386,"MT":0,"sideResp":1,"stimulus":[],"xmouse":[790,790,790,790,790,790,790,790,790,790,790,790,790,790,790,790,790,790,790,790,790,790,790,790,790,790,790,790,790,790,790,790,790,790,790,790,790,790,790,790,790,790,790,790,790,790,790,790,790,790,790,790,790,790,790,790,790,790,790,790,790,790,790,790,790,790,790,790,790,467],"ymouse":[521,521,521,521,521,521,521,521,521,521,521,521,521,521,521,521,521,521,521,521,521,521,521,521,521,521,521,521,521,521,521,521,521,521,521,521,521,521,521,521,521,521,521,521,521,521,521,513,513,513,513,513,513,513,513,513,513,513,513,513,513,513,513,513,513,513,513,513,513,56],"timestamp_mouse":[13,29,46,66,87,107,125,146,166,185,205,226,246,266,286,306,326,346,367,387,406,425,446,466,486,507,527,545,566,587,607,627,647,667,687,706,727,746,767,786,806,827,846,866,887,906,927,946,966,985,1007,1026,1047,1066,1086,1106,1127,1145,1166,1186,1207,1225,1246,1265,1286,1307,1327,1347,1367,1386],"xSR":741.5,"ySR":469.95,"xT1":424.9,"yT1":0,"xT2":1058.1,"yT2":0,"toosoon":0,"cond_shown":"Congruent","ratio_trial":100,"L_num":8,"L_den":16,"R_num":2,"R_den":5,"correct_side":1,"subjID":"isabella rincon pinzon 27","gender":"1 ","school":"4","age":"Isabella Rincon Pinzon 27"},{"start_time":1552073570289,"click_time":1552073571303,"finger_time":1552073570982,"fix_duration":986.8392836267387,"trial":3,"RT":693,"MT":321,"sideResp":1,"stimulus":[],"xmouse":[805,805,805,805,805,805,805,805,805,805,805,805,805,805,805,805,805,805,805,805,805,805,805,805,805,805,805,805,805,805,805,805,804,793,757,592,501,430,389,370,370,370,370,370,370,370,370,370,392,413,439],"ymouse":[518,518,518,518,518,518,518,518,518,518,518,518,518,518,518,518,518,518,518,518,518,518,518,518,518,518,518,518,518,518,518,518,512,496,452,285,192,111,49,8,8,8,8,8,8,8,8,8,12,29,45],"timestamp_mouse":[13,47,53,73,93,113,133,154,172,192,214,233,253,274,294,313,332,354,373,393,414,433,454,474,494,514,533,554,573,594,613,633,654,674,693,713,733,753,773,796,813,833,854,873,894,913,932,954,973,992,1014],"xSR":741.5,"ySR":469.95,"xT1":424.9,"yT1":0,"xT2":1058.1,"yT2":0,"toosoon":0,"cond_shown":"Congruent","ratio_trial":200,"L_num":14,"L_den":28,"R_num":6,"R_den":20,"correct_side":1,"subjID":"isabella rincon pinzon 27","gender":"1 ","school":"4","age":"Isabella Rincon Pinzon 27"},{"start_time":1552073577891,"click_time":1552073578883,"finger_time":1552073578622,"fix_duration":1106.5805410061691,"trial":4,"RT":731,"MT":261,"sideResp":2,"stimulus":[],"xmouse":[773,773,773,773,773,773,773,773,773,773,773,773,773,773,773,773,773,773,773,773,773,773,773,773,773,773,773,773,773,773,773,773,773,773,779,829,873,925,970,1044,1060,1071,1080,1086,1093,1097,1099,1100,1101,1101],"ymouse":[552,552,552,552,552,552,552,552,552,552,552,552,552,552,552,552,552,552,552,552,552,552,552,552,552,552,552,552,552,552,552,552,552,552,548,508,477,424,364,248,224,208,186,173,156,130,119,109,103,95],"timestamp_mouse":[10,39,50,70,92,112,131,151,170,192,212,232,250,271,292,312,332,352,372,391,411,432,452,471,492,510,531,552,572,590,612,631,652,672,690,712,731,752,771,792,810,831,851,872,891,912,931,952,971,991],"xSR":741.5,"ySR":469.95,"xT1":424.9,"yT1":0,"xT2":1058.1,"yT2":0,"toosoon":0,"cond_shown":"Congruent","ratio_trial":100,"L_num":9,"L_den":15,"R_num":8,"R_den":16,"correct_side":1,"subjID":"isabella rincon pinzon 27","gender":"1 ","school":"4","age":"Isabella Rincon Pinzon 27"},{"start_time":1552073586807,"click_time":1552073587963,"finger_time":1552073587403,"fix_duration":384.21058620735806,"trial":5,"RT":596,"MT":560,"sideResp":2,"stimulus":[],"xmouse":[812,812,812,812,812,812,812,812,812,812,812,812,812,812,812,812,812,812,812,812,812,812,812,812,812,812,812,811,810,852,889,933,972,1019,1080,1089,1093,1097,1097,1097,1097,1097,1097,1089,1089,1089,1089,1089,1089,1089,1089,1089,1089,1089,1089,1088,1088,1089],"ymouse":[530,530,530,530,530,530,530,530,530,530,530,530,530,530,530,530,530,530,530,530,530,530,530,530,530,530,530,530,526,450,398,343,290,241,162,140,125,115,114,114,114,114,113,112,112,112,112,112,112,112,112,112,112,112,112,108,103,97],"timestamp_mouse":[21,36,55,76,95,115,136,155,174,196,214,235,255,275,296,314,335,356,374,396,416,434,456,475,496,516,536,554,575,596,615,636,655,674,695,716,735,755,775,795,815,835,855,876,895,915,935,955,975,995,1015,1035,1056,1075,1094,1115,1135,1156],"xSR":741.5,"ySR":469.95,"xT1":424.9,"yT1":0,"xT2":1058.1,"yT2":0,"toosoon":0,"cond_shown":"Congruent","ratio_trial":100,"L_num":9,"L_den":15,"R_num":8,"R_den":16,"correct_side":1,"subjID":"isabella rincon pinzon 27","gender":"1 ","school":"4","age":"Isabella Rincon Pinzon 27"},{"start_time":1552073599701,"click_time":1552073600384,"finger_time":1552073600341,"fix_duration":1335.0160456213928,"trial":6,"RT":640,"MT":43,"sideResp":2,"stimulus":[],"xmouse":[777,777,777,777,777,777,777,777,777,777,777,777,777,777,777,777,777,777,777,777,777,777,777,777,777,777,777,777,777,777,788,823,878,942,1072],"ymouse":[548,548,548,548,548,548,548,548,548,548,548,548,548,548,548,548,548,548,548,548,548,548,548,548,548,548,548,548,548,548,526,487,413,326,99],"timestamp_mouse":[9,21,43,62,82,101,121,142,161,182,202,221,242,262,281,302,321,340,362,381,402,421,442,461,481,500,521,542,562,582,601,622,640,662,683],"xSR":741.5,"ySR":469.95,"xT1":424.9,"yT1":0,"xT2":1058.1,"yT2":0,"toosoon":0,"cond_shown":"Incongruent","ratio_trial":100,"L_num":3,"L_den":5,"R_num":11,"R_den":22,"correct_side":1,"subjID":"isabella rincon pinzon 27","gender":"1 ","school":"4","age":"Isabella Rincon Pinzon 27"},{"start_time":1552073603945,"click_time":1552073605323,"finger_time":1552073604922,"fix_duration":299.8610717891641,"trial":7,"RT":977,"MT":401,"sideResp":2,"stimulus":[],"xmouse":[765,765,765,765,765,765,765,765,765,765,765,765,765,765,765,765,765,765,765,765,765,765,765,765,765,765,768,768,768,768,768,768,768,768,768,768,768,768,768,768,768,768,768,768,768,768,768,768,1093,1102,1106,1107,1107,1107,1107,1107,1107,1107,1107,1107,1107,1107,1107,1107,1107,1107,1107,1107,1107],"ymouse":[495,495,495,495,495,495,495,495,495,495,495,495,495,495,495,495,495,495,495,495,495,495,495,495,495,495,490,490,490,490,490,490,490,490,490,490,490,490,490,490,490,490,490,490,490,490,490,490,111,104,102,102,102,102,102,102,102,102,102,102,102,102,102,102,102,102,102,102,94],"timestamp_mouse":[18,37,58,77,97,118,137,158,177,197,216,238,258,278,297,316,338,356,376,397,418,437,458,477,497,517,537,556,578,597,617,636,657,676,697,716,738,756,778,796,817,836,857,876,898,916,938,956,977,998,1017,1036,1058,1077,1097,1117,1138,1157,1176,1197,1218,1237,1258,1277,1297,1318,1337,1357,1377],"xSR":741.5,"ySR":469.95,"xT1":424.9,"yT1":0,"xT2":1058.1,"yT2":0,"toosoon":0,"cond_shown":"Congruent","ratio_trial":300,"L_num":1,"L_den":5,"R_num":6,"R_den":12,"correct_side":2,"subjID":"isabella rincon pinzon 27","gender":"1 ","school":"4","age":"Isabella Rincon Pinzon 27"},{"start_time":1552073626603,"click_time":1552073628082,"finger_time":1552073628082,"fix_duration":1317.8262212907819,"trial":8,"RT":1479,"MT":0,"sideResp":2,"stimulus":[],"xmouse":[800,800,800,800,800,800,800,800,800,800,800,800,800,800,800,800,800,800,800,800,800,800,800,800,800,800,800,800,800,800,800,800,800,800,800,800,800,800,800,800,800,800,800,800,800,800,800,800,800,800,800,800,800,800,800,800,800,800,800,800,800,800,800,800,800,800,800,800,800,800,800,800,800,800,1111],"ymouse":[481,481,481,481,481,481,481,481,481,481,481,481,481,481,481,481,481,481,481,481,481,481,481,481,481,481,481,481,481,481,481,481,481,481,481,481,481,481,481,481,481,481,481,481,481,481,481,481,481,481,481,481,481,481,481,481,481,481,481,481,481,481,481,481,481,481,481,481,481,481,481,481,481,481,56],"timestamp_mouse":[1,20,41,59,79,99,120,139,159,180,200,220,240,259,280,298,319,340,359,379,399,420,440,460,479,499,519,539,560,579,599,618,640,659,679,699,720,740,759,780,799,820,840,860,879,898,920,940,959,979,1000,1018,1039,1060,1080,1098,1120,1139,1160,1179,1199,1220,1238,1259,1278,1299,1320,1340,1360,1380,1399,1420,1440,1460,1479],"xSR":741.5,"ySR":469.95,"xT1":424.9,"yT1":0,"xT2":1058.1,"yT2":0,"toosoon":0,"cond_shown":"Incongruent","ratio_trial":300,"L_num":4,"L_den":20,"R_num":2,"R_den":4,"correct_side":2,"subjID":"isabella rincon pinzon 27","gender":"1 ","school":"4","age":"Isabella Rincon Pinzon 27"},{"start_time":1552073634259,"click_time":1552073635203,"finger_time":1552073635202,"fix_duration":1316.044798910792,"trial":9,"RT":943,"MT":1,"sideResp":2,"stimulus":[],"xmouse":[830,830,830,830,830,830,830,830,830,830,830,830,830,830,830,830,830,830,830,830,830,830,830,830,832,832,832,832,832,832,832,832,832,832,832,832,832,832,832,832,832,832,832,832,832,832,832,1084],"ymouse":[522,522,522,522,522,522,522,522,522,522,522,522,522,522,522,522,522,522,522,522,522,522,522,521,509,509,509,509,509,509,509,509,509,509,509,509,509,509,509,509,509,509,509,509,509,509,509,24],"timestamp_mouse":[10,24,44,64,83,103,123,144,163,184,204,223,243,264,283,304,323,343,363,383,404,424,444,464,483,503,523,544,563,584,603,623,643,664,683,704,724,744,762,783,803,822,843,863,884,904,923,943],"xSR":741.5,"ySR":469.95,"xT1":424.9,"yT1":0,"xT2":1058.1,"yT2":0,"toosoon":0,"cond_shown":"Incongruent","ratio_trial":300,"L_num":2,"L_den":4,"R_num":6,"R_den":30,"correct_side":1,"subjID":"isabella rincon pinzon 27","gender":"1 ","school":"4","age":"Isabella Rincon Pinzon 27"},{"start_time":1552073647681,"click_time":1552073648682,"finger_time":1552073648342,"fix_duration":875.961235865205,"trial":10,"RT":661,"MT":340,"sideResp":1,"stimulus":[],"xmouse":[817,817,817,817,817,817,817,817,817,817,817,817,817,817,817,817,817,817,817,817,817,817,817,814,814,810,809,809,809,809,798,775,747,706,651,645,633,624,620,620,620,620,620,620,620,620,620,620,620,620,437],"ymouse":[550,550,550,550,550,550,550,550,550,550,550,550,550,550,550,550,550,550,550,550,550,550,550,540,534,528,525,525,525,525,517,502,480,434,307,254,48,11,0,0,0,0,0,0,0,0,0,0,0,0,12],"timestamp_mouse":[11,21,41,62,81,101,121,141,162,182,201,221,242,262,281,301,322,342,360,382,402,421,440,460,481,501,520,541,561,581,601,621,641,661,682,701,722,741,761,781,802,821,841,860,882,901,922,941,962,982,1001],"xSR":741.5,"ySR":469.95,"xT1":424.9,"yT1":0,"xT2":1058.1,"yT2":0,"toosoon":0,"cond_shown":"Incongruent","ratio_trial":300,"L_num":4,"L_den":5,"R_num":6,"R_den":12,"correct_side":1,"subjID":"isabella rincon pinzon 27","gender":"1 ","school":"4","age":"Isabella Rincon Pinzon 27"},{"start_time":1552073650074,"click_time":1552073650923,"finger_time":1552073650642,"fix_duration":250,"trial":11,"RT":568,"MT":281,"sideResp":2,"stimulus":[],"xmouse":[772,772,772,772,771,771,771,771,771,771,771,771,771,771,771,771,771,771,771,771,771,771,773,781,789,792,793,798,807,838,917,1097,1167,1198,1208,1210,1210,1210,1210,1208,1192,1172,1153],"ymouse":[490,490,490,490,490,490,490,490,490,490,490,490,490,490,490,490,490,490,490,490,490,489,489,486,484,483,481,477,467,440,384,226,152,101,76,61,61,61,61,60,60,61,61],"timestamp_mouse":[9,40,48,67,88,108,129,147,169,189,208,229,248,268,288,308,328,348,369,388,409,428,448,468,489,508,529,548,568,588,609,628,648,668,688,708,728,748,768,788,810,828,848],"xSR":741.5,"ySR":469.95,"xT1":424.9,"yT1":0,"xT2":1058.1,"yT2":0,"toosoon":0,"cond_shown":"Incongruent","ratio_trial":300,"L_num":13,"L_den":26,"R_num":12,"R_den":15,"correct_side":2,"subjID":"isabella rincon pinzon 27","gender":"1 ","school":"4","age":"Isabella Rincon Pinzon 27"},{"start_time":1552073653335,"click_time":1552073654183,"finger_time":1552073653862,"fix_duration":1270.220764332333,"trial":12,"RT":527,"MT":321,"sideResp":2,"stimulus":[],"xmouse":[775,775,776,776,776,776,776,776,776,776,776,776,776,776,776,776,776,776,776,776,776,776,776,776,785,793,826,886,1070,1149,1189,1200,1200,1200,1200,1200,1200,1200,1200,1200,1180,1168,1076],"ymouse":[514,514,514,514,514,514,514,514,514,514,514,514,514,514,514,514,514,514,514,514,514,514,514,514,500,487,444,398,235,160,112,95,94,94,94,94,94,94,94,93,84,81,60],"timestamp_mouse":[6,29,52,68,87,107,128,147,167,188,206,227,248,267,287,307,328,348,368,388,407,428,448,468,487,508,527,548,566,587,607,628,648,668,687,707,728,747,768,787,807,827,848],"xSR":741.5,"ySR":469.95,"xT1":424.9,"yT1":0,"xT2":1058.1,"yT2":0,"toosoon":0,"cond_shown":"Incongruent","ratio_trial":100,"L_num":9,"L_den":15,"R_num":14,"R_den":28,"correct_side":1,"subjID":"isabella rincon pinzon 27","gender":"1 ","school":"4","age":"Isabella Rincon Pinzon 27"},{"start_time":1552073657680,"click_time":1552073658642,"finger_time":1552073658042,"fix_duration":896.0999950882199,"trial":13,"RT":362,"MT":600,"sideResp":2,"stimulus":[],"xmouse":[775,775,775,775,775,775,775,775,775,775,775,775,775,775,775,775,773,771,769,769,769,786,813,853,896,992,1034,1064,1082,1090,1121,1135,1149,1159,1170,1170,1164,1164,1164,1164,1164,1164,1164,1164,1164,1164,1164,1164,1107],"ymouse":[494,494,494,494,494,494,494,494,494,494,494,494,494,494,494,494,490,476,466,459,450,430,412,384,351,286,255,235,222,218,200,189,176,152,114,43,19,19,19,19,19,19,19,19,19,19,19,19,7],"timestamp_mouse":[13,32,43,62,82,103,123,143,163,183,203,223,243,263,283,303,322,343,362,382,403,422,442,462,482,502,522,542,562,583,602,621,642,662,682,702,722,742,762,781,803,822,842,862,883,903,922,943,962],"xSR":741.5,"ySR":469.95,"xT1":424.9,"yT1":0,"xT2":1058.1,"yT2":0,"toosoon":0,"cond_shown":"Incongruent","ratio_trial":300,"L_num":4,"L_den":20,"R_num":2,"R_den":4,"correct_side":2,"subjID":"isabella rincon pinzon 27","gender":"1 ","school":"4","age":"Isabella Rincon Pinzon 27"},{"start_time":1552073660808,"click_time":1552073662103,"finger_time":1552073661403,"fix_duration":1304.845801499031,"trial":14,"RT":595,"MT":700,"sideResp":2,"stimulus":[],"xmouse":[802,802,802,802,802,802,802,802,802,802,802,802,802,802,802,802,802,802,802,802,802,802,802,802,802,802,802,802,805,900,953,1002,1035,1059,1087,1089,1089,1089,1089,1089,1089,1089,1089,1089,1089,1089,1089,1089,1089,1089,1089,1089,1089,1089,1089,1089,1089,1091,1093,1093,1094,1094,1094,1094,1091],"ymouse":[533,533,533,533,533,533,533,533,533,533,533,533,533,533,533,533,533,533,533,533,533,533,533,533,533,533,533,530,522,406,328,257,206,174,149,148,147,147,147,147,147,147,147,147,147,147,147,147,147,147,147,147,147,147,147,147,147,146,142,139,127,120,115,110,89],"timestamp_mouse":[14,41,54,75,94,114,134,155,175,194,215,235,254,274,295,315,334,355,374,395,415,433,455,474,494,515,535,554,574,595,614,634,655,675,695,715,734,755,775,795,814,835,854,875,894,914,934,954,974,994,1015,1035,1054,1075,1095,1114,1134,1154,1174,1194,1213,1234,1255,1275,1295],"xSR":741.5,"ySR":469.95,"xT1":424.9,"yT1":0,"xT2":1058.1,"yT2":0,"toosoon":0,"cond_shown":"Incongruent","ratio_trial":200,"L_num":3,"L_den":10,"R_num":1,"R_den":2,"correct_side":2,"subjID":"isabella rincon pinzon 27","gender":"1 ","school":"4","age":"Isabella Rincon Pinzon 27"},{"start_time":1552073664387,"click_time":1552073665762,"finger_time":1552073665622,"fix_duration":1261.3392889750633,"trial":15,"RT":1235,"MT":140,"sideResp":2,"stimulus":[],"xmouse":[787,787,787,787,787,787,787,787,787,787,787,787,787,787,787,787,787,787,787,787,787,787,787,787,787,787,787,787,787,787,787,787,787,787,787,787,787,787,787,787,787,787,787,787,787,787,787,787,787,787,787,787,787,787,787,787,787,787,787,794,809,846,893,943,1038,1066,1078,1084,1085],"ymouse":[526,526,526,526,526,526,526,526,526,526,526,526,526,526,526,526,526,526,526,526,526,526,526,526,526,526,526,526,526,526,526,526,526,526,526,526,526,526,526,526,526,526,526,526,526,526,526,526,526,526,526,526,526,526,526,526,526,526,526,515,495,454,393,315,172,128,108,100,99],"timestamp_mouse":[16,38,56,76,95,116,136,156,176,195,214,235,256,276,296,315,335,354,376,396,416,436,456,476,495,516,536,556,575,595,616,635,656,676,696,716,735,755,776,796,815,835,856,875,895,916,936,956,976,994,1014,1035,1056,1075,1096,1116,1135,1156,1176,1195,1216,1235,1255,1275,1296,1314,1336,1356,1375],"xSR":741.5,"ySR":469.95,"xT1":424.9,"yT1":0,"xT2":1058.1,"yT2":0,"toosoon":0,"cond_shown":"Incongruent","ratio_trial":200,"L_num":14,"L_den":30,"R_num":12,"R_den":18,"correct_side":2,"subjID":"isabella rincon pinzon 27","gender":"1 ","school":"4","age":"Isabella Rincon Pinzon 27"},{"start_time":1552073666774,"click_time":1552073671683,"finger_time":1552073667502,"fix_duration":250,"trial":16,"RT":728,"MT":4181,"sideResp":2,"stimulus":[],"xmouse":[786,787,787,787,787,787,787,787,787,787,787,787,787,787,787,787,787,787,787,787,787,787,787,787,787,787,787,788,789,791,793,793,793,793,794,790,784,800,821,821,821,821,821,821,821,821,821,821,821,821,821,821,821,821,821,821,821,821,821,821,821,821,821,821,821,821,821,821,821,821,821,821,821,821,821,821,821,821,821,821,821,821,821,821,821,821,821,821,821,821,821,821,821,821,821,821,821,821,821,821,821,821,821,821,821,821,821,821,821,821,821,821,821,821,821,821,821,821,821,821,821,821,821,821,821,821,821,821,821,821,821,821,821,821,821,821,821,821,821,821,821,821,821,821,821,821,821,821,821,821,821,821,821,821,821,821,821,821,821,821,821,821,821,821,821,821,821,821,821,821,821,821,821,821,821,821,821,821,821,821,821,1069,1111,1123,1123,1121,1121,1121,1121,1121,1121,1121,1121,1086,902,427,235,115,76,71,122,181,250,317,382,511,563,599,624,642,671,701,719,737,753,761,762,762,763,767,770,770,770,770,770,770,770,770,770,770,770,770,770,770,770,770,770,770,775,792,933,995,1042,1077,1100,1112],"ymouse":[539,539,539,539,539,539,539,539,539,539,539,539,539,539,539,539,539,539,539,539,539,539,539,539,539,539,539,538,537,536,536,536,536,536,543,555,632,667,706,706,706,706,706,706,706,706,706,706,706,706,706,706,706,706,706,706,706,706,706,706,706,706,706,706,706,706,706,706,706,706,706,706,706,706,706,706,706,706,706,706,706,706,706,706,706,706,706,706,706,706,706,706,706,706,706,706,706,706,706,706,706,706,706,706,706,706,706,706,706,706,706,706,706,706,706,706,706,706,706,706,706,706,706,706,706,706,706,706,706,706,706,706,706,706,706,706,706,706,706,706,706,706,706,706,706,706,706,706,706,706,706,706,706,706,706,706,706,706,706,706,706,706,706,706,706,706,706,706,706,706,706,706,706,706,706,706,706,706,706,706,706,688,547,445,422,417,417,417,417,417,417,417,416,397,341,304,302,327,356,382,416,432,457,484,502,533,541,541,541,534,524,511,505,495,487,481,480,480,480,480,480,480,480,480,480,480,480,480,480,480,480,480,480,480,480,480,480,480,476,455,259,206,170,139,112,93],"timestamp_mouse":[8,46,48,68,88,108,129,148,168,189,207,229,249,269,289,309,329,348,368,388,407,429,448,469,489,508,528,549,569,588,609,628,648,669,688,708,728,748,768,789,809,828,848,869,889,908,929,948,968,987,1009,1028,1047,1069,1088,1109,1128,1148,1168,1188,1209,1228,1248,1269,1288,1309,1328,1349,1368,1389,1409,1428,1448,1468,1489,1508,1529,1549,1569,1588,1609,1627,1648,1669,1688,1709,1729,1748,1768,1788,1809,1828,1848,1869,1888,1907,1929,1949,1968,1989,2008,2029,2047,2067,2089,2109,2129,2148,2168,2189,2209,2228,2248,2269,2288,2309,2327,2348,2368,2389,2409,2428,2448,2468,2488,2508,2528,2548,2569,2588,2608,2629,2649,2668,2688,2709,2728,2748,2769,2789,2808,2829,2848,2868,2889,2909,2929,2948,2968,2988,3009,3028,3049,3069,3089,3108,3128,3149,3168,3187,3209,3228,3248,3269,3288,3308,3329,3349,3367,3388,3408,3428,3449,3467,3489,3509,3529,3548,3569,3588,3609,3628,3648,3669,3689,3708,3729,3748,3769,3788,3808,3827,3848,3868,3888,3908,3928,3949,3968,3989,4009,4028,4048,4069,4088,4110,4128,4149,4168,4189,4209,4228,4248,4269,4289,4308,4328,4348,4368,4388,4408,4428,4449,4468,4489,4508,4529,4549,4568,4588,4609,4628,4648,4668,4689,4708,4729,4749,4768,4788,4809,4828,4848,4868,4888,4909],"xSR":741.5,"ySR":469.95,"xT1":424.9,"yT1":0,"xT2":1058.1,"yT2":0,"toosoon":0,"cond_shown":"Congruent","ratio_trial":300,"L_num":2,"L_den":20,"R_num":10,"R_den":25,"correct_side":2,"subjID":"isabella rincon pinzon 27","gender":"1 ","school":"4","age":"Isabella Rincon Pinzon 27"},{"start_time":1552073673707,"click_time":1552073674684,"finger_time":1552073674363,"fix_duration":642.5102293723218,"trial":17,"RT":656,"MT":321,"sideResp":1,"stimulus":[],"xmouse":[793,793,793,793,793,793,793,793,793,793,793,793,793,793,793,793,793,793,793,793,793,793,793,793,793,793,793,793,793,793,793,786,761,649,457,401,382,378,375,370,369,368,368,367,368,374,388,411,492],"ymouse":[528,528,528,528,528,528,528,528,528,528,528,528,528,528,528,528,528,528,528,528,528,528,528,528,528,528,528,528,528,528,528,498,458,318,136,76,48,34,15,7,6,5,5,5,14,23,36,55,98],"timestamp_mouse":[23,36,56,77,98,117,137,157,176,197,217,237,256,278,296,316,337,358,378,398,416,437,457,478,496,517,537,556,576,597,616,636,656,677,696,716,738,756,777,796,817,837,856,877,896,916,937,956,976],"xSR":741.5,"ySR":469.95,"xT1":424.9,"yT1":0,"xT2":1058.1,"yT2":0,"toosoon":0,"cond_shown":"Incongruent","ratio_trial":200,"L_num":3,"L_den":4,"R_num":11,"R_den":20,"correct_side":1,"subjID":"isabella rincon pinzon 27","gender":"1 ","school":"4","age":"Isabella Rincon Pinzon 27"},{"start_time":1552073676100,"click_time":1552073678024,"finger_time":1552073677663,"fix_duration":493.1770795510765,"trial":18,"RT":1563,"MT":361,"sideResp":1,"stimulus":[],"xmouse":[794,794,794,794,794,794,794,794,794,794,794,794,794,794,794,794,794,794,794,794,794,794,794,794,794,794,794,794,794,794,794,794,794,794,794,794,794,794,794,794,794,794,794,794,794,794,794,794,794,794,794,794,794,794,794,794,794,794,794,794,794,794,794,794,794,794,794,794,794,794,794,794,794,794,794,794,793,788,776,765,752,746,742,738,735,731,729,726,718,682,655,636,623,611,580,530,512],"ymouse":[487,487,487,487,487,487,487,488,488,488,488,488,488,488,488,488,488,488,488,488,488,488,488,488,488,488,488,488,488,488,488,488,488,488,488,488,488,488,488,488,488,488,488,488,488,488,488,488,488,488,488,488,488,488,488,488,488,488,488,488,488,488,488,488,488,488,488,488,488,488,488,488,488,488,488,488,485,477,459,446,429,421,417,412,409,399,390,384,369,318,282,250,218,190,142,103,93],"timestamp_mouse":[9,39,44,63,84,104,123,145,163,184,204,224,245,263,283,303,324,343,364,383,404,424,444,465,483,504,523,544,564,583,604,625,644,664,684,705,723,744,764,785,805,824,843,864,883,903,924,944,964,984,1003,1023,1044,1065,1084,1104,1123,1145,1164,1183,1204,1224,1243,1265,1284,1304,1324,1344,1364,1383,1404,1423,1444,1463,1484,1505,1524,1544,1563,1584,1603,1623,1643,1663,1684,1704,1723,1745,1764,1785,1803,1823,1843,1864,1883,1904,1924],"xSR":741.5,"ySR":469.95,"xT1":424.9,"yT1":0,"xT2":1058.1,"yT2":0,"toosoon":0,"cond_shown":"Congruent","ratio_trial":200,"L_num":13,"L_den":26,"R_num":14,"R_den":20,"correct_side":2,"subjID":"isabella rincon pinzon 27","gender":"1 ","school":"4","age":"Isabella Rincon Pinzon 27"},{"start_time":1552073702511,"click_time":1552073703244,"finger_time":1552073702883,"fix_duration":1125.0656197037222,"trial":19,"RT":372,"MT":361,"sideResp":2,"stimulus":[],"xmouse":[782,782,782,782,782,782,782,782,782,782,782,782,782,782,782,786,789,793,796,807,814,820,822,826,824,814,792,758,706,683,676,678,708,888,968,1028,1065],"ymouse":[489,489,489,489,489,489,489,489,489,489,489,489,489,489,489,484,481,475,466,442,426,413,402,376,364,350,330,306,276,263,258,246,226,132,86,55,35],"timestamp_mouse":[13,37,53,73,94,113,134,153,172,193,212,232,253,272,293,312,333,352,372,392,412,432,453,473,492,512,532,552,574,592,613,633,654,673,692,712,733],"xSR":741.5,"ySR":469.95,"xT1":424.9,"yT1":0,"xT2":1058.1,"yT2":0,"toosoon":0,"cond_shown":"Incongruent","ratio_trial":200,"L_num":3,"L_den":10,"R_num":1,"R_den":2,"correct_side":2,"subjID":"isabella rincon pinzon 27","gender":"1 ","school":"4","age":"Isabella Rincon Pinzon 27"},{"start_time":1552073704676,"click_time":1552073705385,"finger_time":1552073705183,"fix_duration":250,"trial":20,"RT":507,"MT":202,"sideResp":1,"stimulus":[],"xmouse":[804,804,804,804,804,804,804,804,804,804,804,804,804,804,804,804,804,804,804,804,804,806,811,825,840,857,868,868,868,864,847,755,690,629,562,488],"ymouse":[532,532,532,532,532,532,532,532,532,532,532,532,532,532,532,532,532,532,532,532,532,531,525,505,481,442,409,405,404,403,402,374,327,254,162,26],"timestamp_mouse":[9,43,48,68,87,108,129,149,169,188,208,227,248,269,288,308,327,349,369,387,408,428,448,467,487,507,527,548,567,587,607,627,648,668,688,708],"xSR":741.5,"ySR":469.95,"xT1":424.9,"yT1":0,"xT2":1058.1,"yT2":0,"toosoon":0,"cond_shown":"Incongruent","ratio_trial":300,"L_num":1,"L_den":2,"R_num":3,"R_den":15,"correct_side":1,"subjID":"isabella rincon pinzon 27","gender":"1 ","school":"4","age":"Isabella Rincon Pinzon 27"},{"start_time":1552073706988,"click_time":1552073708085,"finger_time":1552073707605,"fix_duration":723.9083068899395,"trial":21,"RT":617,"MT":480,"sideResp":1,"stimulus":[],"xmouse":[788,788,788,788,788,788,788,788,788,788,788,788,788,788,788,788,788,788,788,788,788,788,788,788,788,788,788,787,781,754,577,459,366,302,286,286,286,286,286,286,316,320,321,321,326,343,347,355,365,372,373,375,393,416,440],"ymouse":[547,547,547,547,547,547,547,547,547,547,547,547,547,547,547,547,547,547,547,547,547,547,547,547,547,547,547,547,547,522,369,247,134,47,4,4,4,4,4,4,9,11,11,11,17,20,20,20,20,20,20,20,31,44,54],"timestamp_mouse":[17,35,56,75,96,115,137,156,175,195,216,236,256,275,296,317,337,355,375,395,415,435,456,475,496,515,536,556,575,595,617,635,655,675,696,715,736,755,775,796,816,835,856,875,896,915,935,955,975,995,1015,1035,1055,1075,1097],"xSR":741.5,"ySR":469.95,"xT1":424.9,"yT1":0,"xT2":1058.1,"yT2":0,"toosoon":0,"cond_shown":"Incongruent","ratio_trial":300,"L_num":8,"L_den":10,"R_num":14,"R_den":28,"correct_side":1,"subjID":"isabella rincon pinzon 27","gender":"1 ","school":"4","age":"Isabella Rincon Pinzon 27"},{"start_time":1552073710195,"click_time":1552073711023,"finger_time":1552073710964,"fix_duration":250,"trial":22,"RT":769,"MT":59,"sideResp":1,"stimulus":[],"xmouse":[834,834,834,834,834,834,834,834,830,818,759,745,743,743,743,743,743,743,743,743,743,743,743,743,743,743,743,743,746,758,763,767,770,771,771,771,772,772,727,658,492,430],"ymouse":[542,542,542,542,542,542,542,542,538,535,520,517,517,517,517,517,517,517,517,517,517,517,517,517,517,517,517,517,517,517,519,520,520,520,520,520,518,506,408,315,138,87],"timestamp_mouse":[10,40,49,70,89,110,129,149,168,188,209,228,248,269,288,308,329,349,369,388,409,428,450,468,489,509,529,550,569,588,609,629,649,668,690,709,729,748,769,788,808,828],"xSR":741.5,"ySR":469.95,"xT1":424.9,"yT1":0,"xT2":1058.1,"yT2":0,"toosoon":0,"cond_shown":"Incongruent","ratio_trial":300,"L_num":8,"L_den":10,"R_num":9,"R_den":18,"correct_side":1,"subjID":"isabella rincon pinzon 27","gender":"1 ","school":"4","age":"Isabella Rincon Pinzon 27"},{"start_time":1552073713161,"click_time":1552073716885,"finger_time":1552073713623,"fix_duration":615.2063355739367,"trial":23,"RT":462,"MT":3262,"sideResp":2,"stimulus":[],"xmouse":[791,791,791,791,791,791,791,791,791,791,791,791,791,791,791,791,791,791,791,791,791,799,821,842,855,864,872,894,908,917,924,937,937,937,937,937,937,937,937,937,937,937,937,937,937,937,937,937,937,937,937,937,937,937,937,937,937,937,937,937,937,937,937,937,937,937,937,937,937,937,937,937,937,937,937,937,937,937,937,937,937,937,937,937,937,937,937,937,937,937,937,937,937,937,937,937,937,937,937,937,937,937,937,937,937,937,937,937,937,937,937,937,937,937,937,937,937,937,937,937,937,937,937,937,937,937,937,937,937,937,937,937,937,937,937,937,937,937,937,937,937,937,937,937,937,937,937,937,937,937,937,937,937,937,937,937,937,937,937,937,937,937,937,937,935,931,931,934,942,966,1006,1094,1124,1152,1180,1199,1209,1200,1183,1183,1183,1183,1183,1183,1183,1183,1088],"ymouse":[491,491,491,491,491,491,491,491,491,491,491,491,491,491,491,491,491,491,491,491,491,488,481,480,480,485,492,514,535,567,603,632,632,632,632,632,632,632,632,632,632,632,632,632,632,632,632,632,632,632,632,632,632,632,632,632,632,632,632,632,632,632,632,632,632,632,632,632,632,632,632,632,632,632,632,632,632,632,632,632,632,632,632,632,632,632,632,632,632,632,632,632,632,632,632,632,632,632,632,632,632,632,632,632,632,632,632,632,632,632,632,632,632,632,632,632,632,632,632,632,632,632,632,632,632,632,632,632,632,632,632,632,632,632,632,632,632,632,632,632,632,632,632,632,632,632,632,632,632,632,632,632,632,632,632,632,632,632,632,632,632,632,632,632,629,625,625,619,612,580,522,354,301,248,186,136,64,30,3,3,3,3,3,3,3,3,4],"timestamp_mouse":[13,27,43,63,82,102,122,142,162,183,202,223,243,264,282,304,323,344,363,383,403,422,444,462,482,502,523,542,562,582,602,622,642,663,682,702,723,743,762,783,803,824,843,862,883,902,923,943,962,983,1002,1023,1043,1062,1082,1103,1123,1143,1163,1183,1202,1223,1242,1262,1283,1304,1323,1343,1362,1383,1403,1423,1442,1463,1484,1504,1523,1543,1562,1582,1603,1623,1642,1663,1683,1703,1723,1743,1762,1783,1803,1823,1842,1862,1883,1904,1922,1943,1963,1983,2003,2023,2043,2062,2084,2104,2123,2143,2163,2183,2203,2222,2243,2263,2283,2303,2323,2343,2362,2382,2403,2422,2443,2462,2484,2504,2523,2542,2563,2582,2602,2623,2643,2662,2683,2702,2723,2743,2763,2782,2802,2823,2842,2863,2883,2904,2923,2943,2963,2983,3003,3022,3042,3063,3083,3103,3123,3143,3163,3183,3203,3223,3243,3263,3283,3303,3324,3342,3362,3383,3403,3423,3443,3462,3482,3502,3524,3542,3563,3583,3602,3623,3642,3662,3683,3702,3724],"xSR":741.5,"ySR":469.95,"xT1":424.9,"yT1":0,"xT2":1058.1,"yT2":0,"toosoon":0,"cond_shown":"Incongruent","ratio_trial":200,"L_num":6,"L_den":20,"R_num":3,"R_den":6,"correct_side":2,"subjID":"isabella rincon pinzon 27","gender":"1 ","school":"4","age":"Isabella Rincon Pinzon 27"},{"start_time":1552073719080,"click_time":1552073720124,"finger_time":1552073719804,"fix_duration":1056.016086505113,"trial":24,"RT":724,"MT":320,"sideResp":2,"stimulus":[],"xmouse":[804,804,804,804,804,804,804,804,804,804,804,804,804,804,804,804,804,804,804,804,804,804,804,804,804,804,804,804,804,804,804,804,804,804,804,804,861,929,1005,1077,1129,1187,1193,1194,1194,1194,1194,1194,1194,1194,1194,1194,1139],"ymouse":[505,505,505,505,505,505,505,505,505,505,505,505,505,505,505,505,505,505,505,505,505,505,505,505,505,505,505,505,505,505,505,505,505,505,505,496,433,371,301,227,156,53,19,5,5,5,5,5,5,5,5,5,19],"timestamp_mouse":[10,39,44,64,83,104,125,144,164,183,204,224,244,264,284,304,324,344,364,383,404,424,444,464,483,505,524,544,564,583,603,624,644,664,684,703,724,743,763,783,804,823,843,864,883,904,923,944,963,984,1003,1023,1044],"xSR":741.5,"ySR":469.95,"xT1":424.9,"yT1":0,"xT2":1058.1,"yT2":0,"toosoon":0,"cond_shown":"Incongruent","ratio_trial":100,"L_num":13,"L_den":26,"R_num":6,"R_den":10,"correct_side":2,"subjID":"isabella rincon pinzon 27","gender":"1 ","school":"4","age":"Isabella Rincon Pinzon 27"},{"start_time":1552073721596,"click_time":1552073722323,"finger_time":1552073721943,"fix_duration":250,"trial":25,"RT":347,"MT":380,"sideResp":2,"stimulus":[],"xmouse":[789,789,789,789,789,789,789,789,789,789,789,789,789,789,789,789,789,791,798,806,822,854,900,951,974,989,989,989,989,990,990,990,990,992,1013,1039,1062],"ymouse":[520,520,520,520,520,520,520,520,520,520,520,520,520,520,520,508,487,440,374,327,305,258,213,171,152,140,140,140,140,139,139,139,139,136,118,106,97],"timestamp_mouse":[11,40,47,69,88,108,128,148,169,189,208,228,247,268,289,308,329,347,367,388,407,428,447,469,488,507,528,547,568,589,609,628,648,667,689,707,727],"xSR":741.5,"ySR":469.95,"xT1":424.9,"yT1":0,"xT2":1058.1,"yT2":0,"toosoon":0,"cond_shown":"Incongruent","ratio_trial":200,"L_num":7,"L_den":10,"R_num":12,"R_den":24,"correct_side":1,"subjID":"isabella rincon pinzon 27","gender":"1 ","school":"4","age":"Isabella Rincon Pinzon 27"},{"start_time":1552073724176,"click_time":1552073725203,"finger_time":1552073724863,"fix_duration":250,"trial":26,"RT":687,"MT":340,"sideResp":1,"stimulus":[],"xmouse":[827,827,827,827,827,827,827,827,827,827,827,827,827,827,827,827,827,827,827,827,827,827,827,827,827,827,827,827,827,828,828,828,828,815,806,762,731,703,624,598,550,526,526,526,526,526,526,526,526,526,526,524],"ymouse":[473,473,473,473,473,473,473,473,473,473,473,473,473,473,473,473,473,473,473,473,473,473,473,473,473,473,473,473,475,483,484,484,484,473,463,426,403,378,254,209,126,97,97,97,97,97,97,97,97,97,97,96],"timestamp_mouse":[10,42,47,68,88,109,128,148,167,187,208,227,248,269,287,308,328,349,368,387,408,429,448,468,488,509,527,548,569,587,608,628,647,667,687,707,727,748,768,787,807,827,848,867,887,907,927,949,968,987,1007,1027],"xSR":741.5,"ySR":469.95,"xT1":424.9,"yT1":0,"xT2":1058.1,"yT2":0,"toosoon":0,"cond_shown":"Congruent","ratio_trial":100,"L_num":1,"L_den":2,"R_num":18,"R_den":30,"correct_side":2,"subjID":"isabella rincon pinzon 27","gender":"1 ","school":"4","age":"Isabella Rincon Pinzon 27"},{"start_time":1552073748664,"click_time":1552073749364,"finger_time":1552073749284,"fix_duration":757.9429489301781,"trial":27,"RT":620,"MT":80,"sideResp":1,"stimulus":[],"xmouse":[798,798,798,798,798,798,798,798,798,798,798,798,798,798,798,798,798,798,798,798,798,798,798,798,798,798,798,798,792,787,770,742,631,564,466,429],"ymouse":[531,531,531,531,531,531,531,531,531,531,531,531,531,531,531,531,531,531,531,531,531,531,531,531,531,531,531,531,517,510,491,454,311,230,119,76],"timestamp_mouse":[11,20,40,61,80,101,121,140,160,181,200,220,241,260,281,302,321,340,360,382,401,420,441,460,480,500,520,540,560,580,600,620,640,660,681,700],"xSR":741.5,"ySR":469.95,"xT1":424.9,"yT1":0,"xT2":1058.1,"yT2":0,"toosoon":0,"cond_shown":"Incongruent","ratio_trial":300,"L_num":1,"L_den":2,"R_num":3,"R_den":15,"correct_side":1,"subjID":"isabella rincon pinzon 27","gender":"1 ","school":"4","age":"Isabella Rincon Pinzon 27"},{"start_time":1552073751704,"click_time":1552073752365,"finger_time":1552073752205,"fix_duration":1298.5512470685971,"trial":28,"RT":501,"MT":160,"sideResp":2,"stimulus":[],"xmouse":[824,824,824,824,824,824,824,824,824,824,824,824,824,824,824,824,824,824,824,824,824,824,824,824,824,837,844,857,879,909,1007,1039,1057,1066],"ymouse":[523,523,523,523,523,523,523,523,523,523,523,523,523,523,523,523,523,523,523,523,523,523,523,523,505,388,304,225,159,113,78,72,72,72],"timestamp_mouse":[9,20,40,60,81,100,121,140,161,180,200,220,241,260,280,302,322,340,360,380,401,421,441,462,481,501,522,542,560,581,600,620,640,661],"xSR":741.5,"ySR":469.95,"xT1":424.9,"yT1":0,"xT2":1058.1,"yT2":0,"toosoon":0,"cond_shown":"Congruent","ratio_trial":200,"L_num":12,"L_den":20,"R_num":6,"R_den":15,"correct_side":1,"subjID":"isabella rincon pinzon 27","gender":"1 ","school":"4","age":"Isabella Rincon Pinzon 27"},{"start_time":1552073754577,"click_time":1552073755664,"finger_time":1552073755405,"fix_duration":731.9213972793963,"trial":29,"RT":828,"MT":259,"sideResp":1,"stimulus":[],"xmouse":[789,789,789,789,789,789,789,789,789,789,789,789,789,789,789,789,789,789,789,789,789,789,789,789,789,789,789,789,789,789,789,789,789,789,789,789,789,789,789,789,789,740,651,551,476,398,394,394,394,394,394,394,394,410,432],"ymouse":[549,549,549,549,549,549,549,549,549,549,549,549,549,549,549,549,549,549,549,549,549,549,549,549,549,549,549,549,549,549,549,549,549,549,549,549,549,549,549,549,548,476,395,306,200,25,2,2,2,2,2,2,2,10,30],"timestamp_mouse":[12,36,47,67,87,108,127,148,168,189,208,227,247,269,287,309,328,347,367,387,409,428,448,468,489,507,527,548,568,588,608,627,648,667,689,707,728,748,767,788,807,828,847,868,888,908,927,947,967,988,1009,1027,1047,1068,1087],"xSR":741.5,"ySR":469.95,"xT1":424.9,"yT1":0,"xT2":1058.1,"yT2":0,"toosoon":0,"cond_shown":"Congruent","ratio_trial":200,"L_num":5,"L_den":10,"R_num":14,"R_den":20,"correct_side":2,"subjID":"isabella rincon pinzon 27","gender":"1 ","school":"4","age":"Isabella Rincon Pinzon 27"},{"start_time":1552073757800,"click_time":1552073758525,"finger_time":1552073758265,"fix_duration":1152.464282132463,"trial":30,"RT":465,"MT":260,"sideResp":2,"stimulus":[],"xmouse":[813,813,813,813,813,813,813,813,813,813,813,813,813,813,813,813,813,813,813,813,821,829,841,865,924,946,968,992,1016,1033,1037,1037,1038,1041,1053,1058,1064],"ymouse":[544,544,544,544,544,544,544,544,544,544,544,544,544,544,544,544,544,540,536,529,514,504,486,446,306,230,157,93,48,24,21,21,21,21,21,21,22],"timestamp_mouse":[9,37,44,65,85,106,125,145,165,185,204,225,244,265,286,304,324,344,364,384,405,424,444,465,486,505,525,545,564,584,605,625,645,664,685,704,725],"xSR":741.5,"ySR":469.95,"xT1":424.9,"yT1":0,"xT2":1058.1,"yT2":0,"toosoon":0,"cond_shown":"Congruent","ratio_trial":300,"L_num":5,"L_den":25,"R_num":6,"R_den":12,"correct_side":2,"subjID":"isabella rincon pinzon 27","gender":"1 ","school":"4","age":"Isabella Rincon Pinzon 27"},{"start_time":1552073759894,"click_time":1552073761044,"finger_time":1552073760604,"fix_duration":308.5973651157392,"trial":31,"RT":710,"MT":440,"sideResp":2,"stimulus":[],"xmouse":[796,796,796,796,796,796,796,796,796,796,796,796,796,796,796,796,796,796,796,796,796,796,796,796,796,796,796,796,796,796,796,796,796,798,807,946,1040,1128,1195,1221,1222,1222,1222,1222,1222,1222,1222,1222,1222,1043,1022,1022,1023,1025,1025,1032,1053,1086],"ymouse":[525,525,525,525,525,525,525,525,525,525,525,525,525,525,525,525,525,525,525,525,525,525,525,525,525,525,525,525,525,525,525,525,525,525,522,457,397,309,212,113,33,33,33,33,33,33,33,33,33,7,59,79,89,93,94,94,94,92],"timestamp_mouse":[15,30,51,70,90,110,130,151,170,191,211,230,251,271,291,311,331,352,372,392,411,431,451,471,492,511,530,551,572,590,611,630,651,671,691,710,730,750,771,790,810,830,851,871,891,911,930,951,971,991,1010,1030,1050,1070,1091,1112,1131,1150],"xSR":741.5,"ySR":469.95,"xT1":424.9,"yT1":0,"xT2":1058.1,"yT2":0,"toosoon":0,"cond_shown":"Congruent","ratio_trial":100,"L_num":3,"L_den":20,"R_num":4,"R_den":16,"correct_side":2,"subjID":"isabella rincon pinzon 27","gender":"1 ","school":"4","age":"Isabella Rincon Pinzon 27"},{"start_time":1552073763414,"click_time":1552073764345,"finger_time":1552073763805,"fix_duration":1029.6341253455598,"trial":32,"RT":391,"MT":540,"sideResp":1,"stimulus":[],"xmouse":[794,794,794,794,794,794,794,794,794,794,794,794,794,794,794,794,794,794,794,770,736,704,670,642,556,501,467,452,457,474,483,487,488,509,523,533,540,544,559,562,562,562,562,557,546,528,516],"ymouse":[501,501,501,501,501,501,501,501,501,501,501,501,501,501,501,501,501,501,499,445,405,377,351,331,246,174,134,114,107,105,104,104,104,122,131,133,133,133,112,101,97,93,92,91,91,88,86],"timestamp_mouse":[11,39,51,71,92,110,130,151,171,192,212,230,252,270,290,310,332,352,370,391,411,430,450,471,490,511,530,550,570,590,610,630,650,671,690,710,730,750,771,790,810,830,850,871,890,910,931],"xSR":741.5,"ySR":469.95,"xT1":424.9,"yT1":0,"xT2":1058.1,"yT2":0,"toosoon":0,"cond_shown":"Congruent","ratio_trial":300,"L_num":20,"L_den":25,"R_num":14,"R_den":28,"correct_side":1,"subjID":"isabella rincon pinzon 27","gender":"1 ","school":"4","age":"Isabella Rincon Pinzon 27"},{"start_time":1552073765875,"click_time":1552073766684,"finger_time":1552073766305,"fix_duration":250,"trial":33,"RT":430,"MT":379,"sideResp":2,"stimulus":[],"xmouse":[799,799,799,799,799,799,799,799,799,799,799,799,799,799,799,799,799,799,799,801,819,860,924,1001,1077,1155,1181,1184,1185,1185,1185,1185,1185,1185,1185,1185,1185,1181,1174,1166,1156],"ymouse":[495,495,495,495,495,495,495,495,495,495,495,495,495,495,495,495,495,495,495,496,489,459,410,346,276,174,86,67,62,61,61,61,61,61,61,61,61,57,56,55,55],"timestamp_mouse":[10,41,50,71,89,109,130,150,170,190,210,229,250,269,290,311,331,349,371,389,409,430,451,469,490,509,530,549,571,590,611,629,650,669,690,710,729,750,770,789,809],"xSR":741.5,"ySR":469.95,"xT1":424.9,"yT1":0,"xT2":1058.1,"yT2":0,"toosoon":0,"cond_shown":"Congruent","ratio_trial":300,"L_num":20,"L_den":25,"R_num":5,"R_den":10,"correct_side":1,"subjID":"isabella rincon pinzon 27","gender":"1 ","school":"4","age":"Isabella Rincon Pinzon 27"},{"start_time":1552073809476,"click_time":1552073810585,"finger_time":1552073809985,"fix_duration":250,"trial":34,"RT":509,"MT":600,"sideResp":1,"stimulus":[],"xmouse":[775,775,775,775,775,775,775,775,775,775,775,775,775,775,775,775,775,775,775,775,775,775,777,781,785,787,787,779,773,770,770,770,769,765,741,724,708,679,630,486,398,359,359,359,359,359,359,359,359,359,359,359,359,359,430],"ymouse":[535,535,535,535,535,535,534,534,534,534,534,534,534,534,534,534,534,534,534,534,527,523,517,495,433,416,403,392,385,383,383,383,383,381,367,354,339,314,259,113,43,10,10,10,10,10,10,10,10,10,10,10,10,10,3],"timestamp_mouse":[35,50,70,91,109,130,150,170,189,209,229,250,271,289,309,329,351,370,389,410,429,450,469,490,509,530,550,571,590,610,630,649,669,689,709,729,751,770,791,810,829,851,870,890,910,930,950,970,991,1011,1031,1050,1071,1090,1109],"xSR":741.5,"ySR":469.95,"xT1":424.9,"yT1":0,"xT2":1058.1,"yT2":0,"toosoon":0,"cond_shown":"Congruent","ratio_trial":300,"L_num":20,"L_den":25,"R_num":8,"R_den":16,"correct_side":1,"subjID":"isabella rincon pinzon 27","gender":"1 ","school":"4","age":"Isabella Rincon Pinzon 27"},{"start_time":1552073832218,"click_time":1552073833086,"finger_time":1552073832726,"fix_duration":250,"trial":35,"RT":508,"MT":360,"sideResp":1,"stimulus":[],"xmouse":[782,782,782,782,782,782,782,782,782,782,782,782,782,782,782,782,782,782,782,782,782,782,782,783,785,787,751,711,520,270,241,239,238,267,281,293,306,325,360,366,369,370,376,440],"ymouse":[513,513,513,513,513,513,513,513,513,513,513,513,513,513,513,513,513,513,513,513,513,513,513,503,472,412,306,264,144,40,26,24,24,24,24,22,22,22,25,27,27,27,27,27],"timestamp_mouse":[13,35,47,67,87,109,128,147,168,189,208,228,248,269,288,308,329,348,367,388,407,429,448,467,488,508,528,547,568,588,608,628,648,667,687,709,728,748,768,787,808,829,847,868],"xSR":741.5,"ySR":469.95,"xT1":424.9,"yT1":0,"xT2":1058.1,"yT2":0,"toosoon":0,"cond_shown":"Congruent","ratio_trial":200,"L_num":12,"L_den":20,"R_num":6,"R_den":15,"correct_side":1,"subjID":"isabella rincon pinzon 27","gender":"1 ","school":"4","age":"Isabella Rincon Pinzon 27"},{"start_time":1552073834786,"click_time":1552073835646,"finger_time":1552073835265,"fix_duration":418.3202995668037,"trial":36,"RT":479,"MT":381,"sideResp":2,"stimulus":[],"xmouse":[803,803,803,803,803,803,803,803,803,803,803,803,803,803,803,803,803,803,803,803,803,803,804,814,837,928,969,1000,1018,1031,1047,1047,1047,1047,1047,1047,1047,1047,1047,1047,1047,1047,1047,1064],"ymouse":[513,513,513,513,513,513,513,513,513,513,513,513,513,513,513,513,513,513,513,513,513,513,505,489,450,315,252,192,132,78,1,1,1,1,1,1,1,1,1,1,1,1,1,12],"timestamp_mouse":[1,20,47,59,81,99,120,140,160,180,200,219,241,259,280,300,319,340,361,379,400,419,439,460,479,499,519,540,560,580,600,619,641,659,679,701,720,741,760,781,801,819,840,859],"xSR":741.5,"ySR":469.95,"xT1":424.9,"yT1":0,"xT2":1058.1,"yT2":0,"toosoon":0,"cond_shown":"Incongruent","ratio_trial":100,"L_num":11,"L_den":22,"R_num":9,"R_den":15,"correct_side":2,"subjID":"isabella rincon pinzon 27","gender":"1 ","school":"4","age":"Isabella Rincon Pinzon 27"},{"start_time":1552073837520,"click_time":1552073838426,"finger_time":1552073838027,"fix_duration":972.9734525513037,"trial":37,"RT":507,"MT":399,"sideResp":2,"stimulus":[],"xmouse":[795,795,795,795,795,795,795,793,793,793,793,793,792,792,792,792,792,792,792,791,790,790,790,793,802,814,830,848,898,924,944,960,977,994,994,994,994,994,994,994,994,994,994,994,1080,1081],"ymouse":[522,522,522,522,522,522,522,519,516,514,513,511,510,509,509,509,509,509,506,505,502,500,499,486,474,460,442,413,311,252,192,132,67,20,20,20,20,20,20,20,20,20,20,20,0,15],"timestamp_mouse":[10,36,45,65,86,106,126,145,165,185,205,226,246,266,286,305,326,345,365,385,405,425,446,465,486,507,527,546,566,585,605,626,645,666,685,707,726,747,766,786,806,825,846,866,886,905],"xSR":741.5,"ySR":469.95,"xT1":424.9,"yT1":0,"xT2":1058.1,"yT2":0,"toosoon":0,"cond_shown":"Congruent","ratio_trial":100,"L_num":11,"L_den":22,"R_num":6,"R_den":15,"correct_side":1,"subjID":"isabella rincon pinzon 27","gender":"1 ","school":"4","age":"Isabella Rincon Pinzon 27"},{"start_time":1552073864434,"click_time":1552073865005,"finger_time":1552073864885,"fix_duration":1008.2116789246182,"trial":38,"RT":451,"MT":120,"sideResp":2,"stimulus":[],"xmouse":[788,788,788,788,788,788,788,788,788,788,788,788,788,788,788,788,788,788,788,788,788,790,851,912,969,1019,1059,1085,1097],"ymouse":[499,499,499,499,499,499,499,499,499,499,499,499,499,499,499,499,499,499,499,499,499,498,414,353,288,240,180,132,96],"timestamp_mouse":[14,38,51,72,91,111,133,151,173,193,212,231,253,271,291,311,331,352,371,393,412,431,451,472,492,512,532,552,571],"xSR":741.5,"ySR":469.95,"xT1":424.9,"yT1":0,"xT2":1058.1,"yT2":0,"toosoon":0,"cond_shown":"Incongruent","ratio_trial":300,"L_num":8,"L_den":10,"R_num":14,"R_den":28,"correct_side":1,"subjID":"isabella rincon pinzon 27","gender":"1 ","school":"4","age":"Isabella Rincon Pinzon 27"},{"start_time":1552073922767,"click_time":1552073924106,"finger_time":1552073923587,"fix_duration":1157.3068934250146,"trial":39,"RT":820,"MT":519,"sideResp":1,"stimulus":[],"xmouse":[779,779,779,779,779,779,779,779,779,779,779,779,779,779,779,779,779,779,779,779,779,779,779,779,779,779,779,779,779,779,779,779,779,779,779,779,779,779,779,778,770,737,713,696,683,675,656,647,638,631,629,626,625,623,621,617,608,602,594,584,576,567,561,554,546,539,530,524],"ymouse":[505,505,505,506,507,507,507,507,507,508,511,512,512,512,512,512,512,512,512,512,512,512,512,512,512,512,512,512,512,512,512,512,512,512,512,512,512,512,512,512,502,440,398,364,332,307,265,253,246,243,241,234,228,224,219,213,196,179,158,122,101,73,60,49,41,34,31,30],"timestamp_mouse":[1,19,39,60,80,99,120,139,159,179,199,219,239,260,279,300,319,339,360,380,399,419,441,460,480,500,520,539,561,580,599,620,639,659,679,700,719,740,760,781,800,820,839,860,880,900,919,939,960,980,999,1019,1040,1059,1079,1100,1119,1139,1160,1180,1199,1220,1240,1259,1280,1299,1319,1339],"xSR":741.5,"ySR":469.95,"xT1":424.9,"yT1":0,"xT2":1058.1,"yT2":0,"toosoon":0,"cond_shown":"Incongruent","ratio_trial":200,"L_num":1,"L_den":2,"R_num":3,"R_den":10,"correct_side":1,"subjID":"isabella rincon pinzon 27","gender":"1 ","school":"4","age":"Isabella Rincon Pinzon 27"},{"start_time":1552073931295,"click_time":1552073933287,"finger_time":1552073932827,"fix_duration":586.7745208086995,"trial":40,"RT":1532,"MT":460,"sideResp":2,"stimulus":[],"xmouse":[790,790,790,790,789,789,789,789,789,789,789,789,789,789,789,789,789,789,789,789,789,789,789,789,789,789,789,789,789,789,789,789,789,789,789,789,789,789,789,789,789,789,789,789,789,789,789,789,789,789,789,789,789,789,789,789,789,789,789,789,789,789,789,789,789,789,789,789,789,789,789,789,789,789,789,789,797,810,830,889,905,920,932,941,946,949,960,975,991,1017,1028,1037,1042,1042,1042,1042,1044,1049,1053,1061],"ymouse":[512,512,512,510,505,505,505,505,505,505,505,505,505,505,505,505,505,505,505,505,505,505,505,505,505,505,505,505,505,505,505,505,505,505,505,505,505,505,505,505,505,505,505,505,505,505,505,505,505,505,505,505,505,505,505,505,505,505,505,505,505,505,505,505,505,505,505,505,505,505,505,505,505,505,505,502,463,422,364,265,241,228,220,217,215,215,215,215,215,209,199,190,179,170,145,132,115,100,87,76],"timestamp_mouse":[11,45,52,71,92,112,132,152,172,191,212,231,252,271,291,312,331,352,372,391,411,431,452,472,493,512,532,551,572,591,611,632,652,671,691,712,732,752,771,791,811,831,852,871,891,911,939,951,971,991,1012,1031,1052,1071,1091,1112,1132,1151,1171,1191,1211,1232,1252,1272,1292,1312,1332,1352,1371,1391,1412,1432,1452,1471,1491,1511,1532,1551,1571,1591,1611,1631,1652,1672,1692,1711,1731,1751,1771,1792,1811,1832,1852,1871,1892,1912,1931,1952,1972,1992],"xSR":741.5,"ySR":469.95,"xT1":424.9,"yT1":0,"xT2":1058.1,"yT2":0,"toosoon":0,"cond_shown":"Congruent","ratio_trial":300,"L_num":2,"L_den":10,"R_num":12,"R_den":24,"correct_side":2,"subjID":"isabella rincon pinzon 27","gender":"1 ","school":"4","age":"Isabella Rincon Pinzon 27"},{"start_time":1552073939713,"click_time":1552073941687,"finger_time":1552073941186,"fix_duration":1324.2916351953968,"trial":41,"RT":1473,"MT":501,"sideResp":2,"stimulus":[],"xmouse":[793,793,793,793,793,793,793,793,793,793,793,793,793,793,793,793,793,793,793,793,793,793,793,793,793,793,793,793,797,800,804,809,813,813,813,813,813,813,813,813,813,813,813,813,813,813,813,813,813,813,813,813,813,813,813,813,813,813,813,813,813,813,813,807,798,798,790,787,787,787,787,786,786,898,947,973,993,1008,1016,1025,1029,1035,1045,1052,1053,1053,1053,1052,1049,1047,1045,1044,1044,1047,1049,1051,1054,1058,1068],"ymouse":[539,539,539,539,539,539,539,539,539,539,539,539,539,539,539,539,539,539,539,539,539,539,539,539,539,539,539,539,530,526,520,515,512,512,512,512,512,512,512,512,512,512,512,512,512,512,512,512,512,512,512,512,512,512,512,512,512,512,512,512,512,512,512,510,510,510,507,506,506,506,506,506,499,365,319,285,266,246,233,219,214,205,192,177,172,168,165,162,149,141,127,110,102,91,89,87,85,84,81],"timestamp_mouse":[13,38,53,73,93,114,133,154,173,193,214,234,254,274,294,313,333,354,374,394,414,433,455,474,493,514,533,554,573,595,614,634,654,673,694,714,733,754,774,793,813,833,854,873,894,913,934,954,974,994,1013,1033,1053,1074,1094,1113,1133,1154,1174,1194,1214,1233,1254,1273,1294,1313,1334,1353,1374,1394,1413,1433,1454,1473,1493,1513,1534,1553,1574,1594,1613,1633,1654,1674,1693,1713,1734,1753,1773,1793,1814,1833,1853,1873,1893,1913,1934,1953,1974],"xSR":741.5,"ySR":469.95,"xT1":424.9,"yT1":0,"xT2":1058.1,"yT2":0,"toosoon":0,"cond_shown":"Incongruent","ratio_trial":100,"L_num":10,"L_den":25,"R_num":9,"R_den":18,"correct_side":2,"subjID":"isabella rincon pinzon 27","gender":"1 ","school":"4","age":"Isabella Rincon Pinzon 27"},{"start_time":1552073946659,"click_time":1552073955327,"finger_time":1552073947426,"fix_duration":250,"trial":42,"RT":767,"MT":7901,"sideResp":2,"stimulus":[],"xmouse":[803,803,803,803,803,803,803,803,803,803,803,803,803,803,803,803,803,803,803,803,803,803,805,806,806,806,806,806,806,806,806,806,806,806,806,806,806,802,774,734,694,665,665,668,675,677,684,686,688,688,688,688,694,704,714,722,733,733,733,733,733,733,733,733,733,733,733,730,730,730,730,730,730,730,730,730,730,730,730,730,730,730,730,730,730,730,730,730,730,730,730,730,730,730,730,730,730,730,730,730,730,730,730,730,730,730,730,730,730,730,730,730,730,730,730,730,730,730,730,730,730,730,730,730,730,730,730,730,730,730,730,730,730,730,730,744,764,765,767,767,767,767,767,767,767,767,767,768,772,777,782,783,783,783,783,783,783,783,783,783,783,783,783,783,783,783,783,783,783,783,783,783,783,783,783,783,783,783,783,783,783,783,783,783,783,783,786,837,883,921,946,957,954,945,940,939,946,946,950,963,970,971,972,972,972,972,972,972,972,972,972,972,969,950,875,852,806,718,631,560,519,498,489,482,482,479,473,473,485,504,521,530,542,560,576,603,661,699,738,784,807,827,832,834,837,842,853,854,854,838,813,770,761,758,758,758,758,757,757,757,757,757,757,757,757,757,757,757,757,757,757,757,757,757,757,757,757,757,757,757,757,757,757,757,757,757,757,757,757,757,757,757,757,757,757,757,757,757,757,757,757,757,757,757,757,757,757,757,757,757,757,757,757,757,757,757,757,757,757,757,757,757,757,757,757,757,757,757,757,757,757,757,757,757,757,757,757,757,757,757,757,757,757,757,757,757,757,757,757,757,757,757,757,757,757,757,757,757,757,757,757,757,757,757,757,757,757,757,757,757,757,757,757,757,757,757,757,757,762,782,797,817,821,822,822,822,822,822,822,822,822,822,822,822,822,822,822,822,822,822,822,822,822,822,822,822,822,822,822,822,822,822,822,822,822,824,837,845,851,863,883,932,937,940,942,947,963,977,992,1004,1021,1039,1055,1065],"ymouse":[510,510,510,510,510,510,510,510,510,510,510,510,510,510,510,510,510,510,510,510,510,510,509,509,509,509,509,509,509,509,509,509,509,509,509,509,509,504,464,407,350,308,305,299,294,294,294,295,295,295,295,298,317,339,364,391,425,425,425,425,425,425,425,425,425,423,421,408,406,406,406,406,406,406,406,406,406,406,406,406,406,406,406,406,406,406,406,406,406,406,406,406,406,406,406,406,406,406,406,406,406,406,406,406,406,406,406,406,406,406,406,406,406,406,406,406,406,406,406,406,406,406,406,406,406,406,406,406,406,406,406,406,406,406,404,381,355,355,355,355,355,355,355,355,355,355,355,355,356,362,368,370,370,370,370,370,370,370,370,370,370,370,370,370,370,370,370,370,370,370,370,370,370,370,370,370,370,370,370,370,370,370,370,370,370,370,369,329,300,282,271,263,259,255,253,253,259,259,265,286,293,294,294,294,294,294,294,294,294,294,294,294,309,333,379,380,389,371,316,275,257,256,274,329,411,504,531,538,550,565,578,581,584,585,584,576,553,536,517,497,487,481,481,481,482,488,504,510,513,516,516,530,536,537,537,537,537,537,534,532,532,532,532,532,532,532,532,532,532,532,532,532,532,532,532,532,532,532,532,532,532,532,532,532,532,532,532,532,532,532,532,532,532,532,532,532,532,532,532,532,532,532,532,532,532,532,532,532,532,532,532,532,532,532,532,532,532,532,532,532,532,532,532,532,532,532,532,532,532,532,532,532,532,532,532,532,532,532,532,532,532,532,532,532,532,532,532,532,532,532,532,532,532,532,532,532,532,532,532,532,532,532,532,532,532,532,532,532,532,532,532,532,532,532,532,532,532,532,525,513,506,493,489,488,488,488,488,488,488,488,488,488,488,488,488,488,488,488,488,488,488,488,488,488,488,488,488,488,488,488,488,488,488,488,485,468,412,394,382,368,355,319,309,299,291,281,260,246,232,219,201,162,118,85],"timestamp_mouse":[13,27,48,67,87,107,128,147,167,188,208,227,248,267,288,308,327,347,368,387,407,428,447,468,487,507,528,547,568,588,607,628,648,668,688,707,728,748,767,788,808,827,847,867,887,908,927,947,968,988,1007,1028,1047,1068,1089,1108,1127,1147,1168,1187,1208,1227,1248,1268,1287,1307,1327,1348,1368,1388,1407,1427,1447,1468,1488,1508,1527,1548,1568,1588,1608,1627,1648,1667,1687,1707,1727,1747,1767,1787,1807,1828,1847,1868,1888,1908,1927,1948,1968,1988,2008,2028,2048,2068,2088,2108,2127,2147,2168,2188,2207,2227,2247,2267,2287,2307,2328,2348,2368,2388,2407,2428,2447,2467,2487,2507,2528,2547,2567,2587,2608,2627,2647,2667,2687,2707,2728,2747,2767,2787,2808,2827,2847,2869,2888,2907,2927,2947,2967,2988,3007,3027,3049,3067,3087,3108,3128,3147,3168,3188,3207,3227,3247,3267,3287,3308,3328,3347,3367,3387,3407,3428,3447,3467,3487,3508,3527,3548,3567,3588,3608,3628,3648,3668,3687,3707,3728,3749,3768,3789,3808,3827,3847,3867,3888,3907,3927,3947,3967,3988,4007,4027,4047,4067,4087,4108,4128,4148,4167,4187,4208,4227,4248,4268,4287,4308,4327,4348,4367,4388,4408,4428,4448,4467,4488,4508,4528,4547,4567,4588,4608,4627,4647,4668,4687,4707,4727,4747,4767,4787,4808,4827,4847,4868,4888,4907,4928,4947,4967,4988,5007,5027,5048,5068,5088,5107,5127,5147,5168,5188,5207,5228,5248,5268,5287,5307,5327,5348,5368,5388,5408,5427,5447,5467,5488,5507,5527,5548,5567,5588,5609,5628,5648,5668,5687,5707,5728,5747,5768,5787,5808,5827,5848,5867,5888,5907,5927,5948,5967,5988,6008,6027,6047,6068,6087,6108,6128,6149,6168,6188,6207,6228,6247,6267,6288,6307,6328,6348,6368,6388,6407,6427,6447,6467,6487,6507,6527,6547,6568,6587,6608,6627,6648,6667,6687,6708,6728,6748,6768,6787,6808,6827,6848,6869,6888,6907,6928,6947,6967,6988,7009,7028,7047,7068,7087,7107,7128,7148,7167,7187,7208,7227,7248,7269,7288,7308,7327,7347,7368,7387,7407,7427,7448,7468,7488,7508,7527,7548,7568,7588,7607,7627,7648,7668,7688,7708,7727,7748,7767,7788,7807,7828,7847,7868,7887,7907,7927,7947,7967,7988,8007,8028,8047,8068,8088,8108,8127,8149,8168,8187,8208,8228,8248,8268,8288,8308,8328,8347,8367,8388,8409,8429,8447,8468,8487,8507,8528,8547,8567,8588,8609,8629,8649,8668],"xSR":741.5,"ySR":469.95,"xT1":424.9,"yT1":0,"xT2":1058.1,"yT2":0,"toosoon":0,"cond_shown":"Incongruent","ratio_trial":200,"L_num":7,"L_den":10,"R_num":12,"R_den":24,"correct_side":1,"subjID":"isabella rincon pinzon 27","gender":"1 ","school":"4","age":"Isabella Rincon Pinzon 27"},{"start_time":1552073964522,"click_time":1552073965606,"finger_time":1552073964948,"fix_duration":514.295988826041,"trial":43,"RT":426,"MT":658,"sideResp":1,"stimulus":[],"xmouse":[801,800,797,796,796,796,796,796,796,796,795,793,781,780,780,780,780,780,778,769,757,738,722,654,630,612,600,590,590,597,604,609,610,613,615,615,615,615,606,592,572,524,513,505,508,508,500,486,471,450,449,449,452,456,450],"ymouse":[555,555,555,555,555,555,555,555,555,555,555,555,553,553,553,553,553,553,552,546,537,523,510,444,419,394,374,358,343,331,324,321,318,316,313,309,303,298,285,274,258,232,228,223,221,216,206,196,184,169,165,161,154,131,80],"timestamp_mouse":[5,25,45,65,84,105,124,144,165,185,205,225,246,264,284,306,326,346,366,384,405,426,445,465,486,504,526,544,565,584,605,626,644,665,686,704,725,745,765,785,806,826,845,865,886,906,925,945,965,985,1005,1025,1046,1065,1084],"xSR":741.5,"ySR":469.95,"xT1":424.9,"yT1":0,"xT2":1058.1,"yT2":0,"toosoon":0,"cond_shown":"Congruent","ratio_trial":200,"L_num":3,"L_den":10,"R_num":11,"R_den":22,"correct_side":2,"subjID":"isabella rincon pinzon 27","gender":"1 ","school":"4","age":"Isabella Rincon Pinzon 27"},{"start_time":1552073979865,"click_time":1552073981147,"finger_time":1552073980347,"fix_duration":377.9587178969583,"trial":44,"RT":482,"MT":800,"sideResp":1,"stimulus":[],"xmouse":[755,756,757,757,757,757,757,757,757,757,757,757,757,757,757,757,757,757,757,759,763,786,802,825,858,883,905,914,922,926,927,931,944,962,986,992,1001,1008,1020,1032,1042,1046,1046,1046,1032,1003,985,964,958,954,950,933,912,874,799,665,486,431,418,418,425,445,448,453,456],"ymouse":[522,522,522,522,522,522,522,522,522,522,522,522,522,522,522,522,522,522,522,522,521,518,513,501,456,414,379,369,354,345,341,333,315,303,292,288,281,276,269,263,258,257,257,257,277,337,414,556,596,612,618,619,605,573,507,352,205,168,147,137,124,107,104,100,96],"timestamp_mouse":[11,23,57,61,81,102,121,142,163,183,202,223,242,262,281,301,322,343,363,382,401,422,443,463,482,502,522,541,562,582,602,622,642,661,682,702,722,743,762,782,802,821,841,862,882,902,922,942,962,983,1003,1023,1041,1061,1081,1101,1122,1143,1162,1183,1202,1221,1241,1263,1282],"xSR":741.5,"ySR":469.95,"xT1":424.9,"yT1":0,"xT2":1058.1,"yT2":0,"toosoon":0,"cond_shown":"Congruent","ratio_trial":100,"L_num":6,"L_den":20,"R_num":5,"R_den":25,"correct_side":1,"subjID":"isabella rincon pinzon 27","gender":"1 ","school":"4","age":"Isabella Rincon Pinzon 27"},{"start_time":1552073984146,"click_time":1552073985847,"finger_time":1552073985487,"fix_duration":277.52809871947295,"trial":45,"RT":1341,"MT":360,"sideResp":1,"stimulus":[],"xmouse":[817,817,817,817,817,817,817,817,817,817,817,817,817,817,817,817,817,817,817,817,817,817,817,817,817,817,817,817,817,817,817,817,817,817,817,817,817,817,817,817,817,817,817,817,817,817,817,817,817,817,817,817,817,817,817,817,817,817,817,817,817,817,817,817,817,818,792,725,624,504,348,298,300,323,362,362,362,362,362,362,362,362,362,436,437],"ymouse":[490,490,490,490,490,490,490,490,490,490,490,490,490,490,490,490,490,490,490,490,488,488,488,488,488,488,488,488,488,488,488,488,488,488,488,488,488,488,488,488,488,488,488,488,488,488,488,488,488,488,488,488,488,488,488,488,488,488,488,488,488,488,488,488,488,483,435,352,237,133,34,6,4,2,1,1,1,1,1,1,1,1,1,0,3],"timestamp_mouse":[21,41,62,80,101,120,142,161,182,201,222,242,261,281,302,321,341,361,381,401,420,442,462,482,502,520,541,561,581,602,621,641,660,682,702,721,742,761,782,802,821,840,862,882,901,921,940,962,981,1002,1022,1041,1061,1081,1100,1120,1142,1162,1180,1202,1222,1241,1261,1281,1302,1321,1341,1362,1381,1400,1420,1441,1460,1481,1500,1521,1541,1561,1580,1600,1622,1641,1661,1680,1700],"xSR":741.5,"ySR":469.95,"xT1":424.9,"yT1":0,"xT2":1058.1,"yT2":0,"toosoon":0,"cond_shown":"Incongruent","ratio_trial":100,"L_num":13,"L_den":26,"R_num":6,"R_den":10,"correct_side":2,"subjID":"isabella rincon pinzon 27","gender":"1 ","school":"4","age":"Isabella Rincon Pinzon 27"},{"start_time":1552073990988,"click_time":1552073992066,"finger_time":1552073991587,"fix_duration":417.5514267757485,"trial":46,"RT":599,"MT":479,"sideResp":2,"stimulus":[],"xmouse":[766,766,766,766,766,766,766,766,766,766,766,766,766,766,766,766,766,766,766,766,766,766,766,766,766,766,766,765,772,798,817,821,822,822,822,822,822,823,832,854,954,1008,1066,1099,1122,1139,1140,1141,1141,1142,1142,1142,1142,1142,1142],"ymouse":[541,541,541,541,541,541,541,541,541,541,541,541,541,541,541,541,541,541,541,541,541,541,541,541,541,541,541,538,525,486,462,457,456,456,456,456,456,455,432,383,225,176,147,131,122,115,113,110,110,108,108,108,105,102,99],"timestamp_mouse":[1,19,43,59,80,99,119,138,160,178,200,220,240,259,280,298,318,340,358,380,399,419,438,460,479,499,519,539,558,580,599,618,638,660,680,699,719,739,758,779,799,819,839,858,880,899,920,940,959,980,1000,1020,1040,1060,1078],"xSR":741.5,"ySR":469.95,"xT1":424.9,"yT1":0,"xT2":1058.1,"yT2":0,"toosoon":0,"cond_shown":"Incongruent","ratio_trial":200,"L_num":11,"L_den":20,"R_num":3,"R_den":4,"correct_side":2,"subjID":"isabella rincon pinzon 27","gender":"1 ","school":"4","age":"Isabella Rincon Pinzon 27"},{"start_time":1552073997861,"click_time":1552074000047,"finger_time":1552073999527,"fix_duration":250,"trial":47,"RT":1666,"MT":520,"sideResp":2,"stimulus":[],"xmouse":[806,806,806,806,806,806,810,811,812,812,812,812,812,812,812,812,812,812,812,812,812,812,812,812,812,812,812,812,812,812,812,812,812,812,812,812,812,812,812,812,812,812,812,812,812,812,812,812,812,812,812,812,812,812,812,812,812,812,812,812,812,812,812,812,812,812,812,812,812,812,812,812,812,812,812,812,812,812,812,812,814,824,837,850,859,866,876,878,879,882,887,902,909,922,934,948,988,1004,1018,1034,1046,1065,1068,1071,1074,1079,1095,1103,1106,1106],"ymouse":[501,501,501,501,501,501,513,519,522,523,523,523,523,523,523,523,523,523,523,523,523,523,523,523,523,523,523,523,523,523,523,525,527,528,529,529,529,529,529,529,529,529,529,529,529,529,529,529,529,529,529,529,529,529,529,529,529,529,529,529,529,529,529,529,529,529,529,529,529,529,529,529,529,529,529,529,529,529,529,529,529,516,500,482,470,461,447,445,442,439,431,407,384,348,319,297,269,263,256,245,238,225,222,219,212,203,155,127,100,71],"timestamp_mouse":[12,40,46,67,87,106,125,146,166,186,207,226,246,267,287,307,326,345,365,386,407,426,445,467,487,506,526,547,565,587,607,626,647,666,685,706,725,747,765,786,807,825,847,867,886,907,926,945,967,987,1006,1027,1047,1067,1085,1107,1125,1147,1167,1186,1206,1226,1245,1266,1287,1306,1326,1346,1367,1387,1405,1425,1446,1467,1487,1505,1527,1547,1566,1586,1606,1626,1647,1666,1687,1706,1726,1745,1766,1786,1806,1825,1845,1866,1886,1906,1927,1945,1965,1985,2005,2026,2045,2065,2086,2107,2125,2146,2166,2186],"xSR":741.5,"ySR":469.95,"xT1":424.9,"yT1":0,"xT2":1058.1,"yT2":0,"toosoon":0,"cond_shown":"Incongruent","ratio_trial":300,"L_num":4,"L_den":20,"R_num":2,"R_den":4,"correct_side":2,"subjID":"isabella rincon pinzon 27","gender":"1 ","school":"4","age":"Isabella Rincon Pinzon 27"},{"start_time":1552074024731,"click_time":1552074026287,"finger_time":1552074025726,"fix_duration":1221.3471977362753,"trial":48,"RT":995,"MT":561,"sideResp":2,"stimulus":[],"xmouse":[806,806,806,806,806,806,806,806,806,806,806,806,806,806,806,806,806,806,803,800,796,794,793,793,791,788,782,775,773,771,770,770,770,770,770,770,770,770,770,770,770,770,770,770,770,770,770,770,793,830,880,887,917,932,944,955,966,994,1009,1019,1023,1024,1024,1024,1022,1009,1003,1001,1001,1000,1000,1000,1000,1002,1014,1026,1050,1107],"ymouse":[520,520,520,520,520,520,520,520,520,520,520,520,520,520,520,520,520,520,513,509,505,503,503,503,503,500,497,491,489,487,486,486,486,486,486,486,486,486,486,486,486,486,486,486,486,486,486,483,470,449,433,430,420,412,405,397,387,366,355,341,322,311,305,300,264,182,136,116,92,71,68,66,66,62,58,57,49,34],"timestamp_mouse":[17,45,56,77,96,117,137,157,176,197,217,237,256,277,297,317,336,356,376,397,416,437,456,477,495,517,537,556,577,596,617,636,656,677,696,717,736,757,775,797,816,837,856,876,897,916,937,957,977,995,1016,1037,1057,1076,1095,1116,1136,1155,1177,1196,1217,1236,1256,1276,1297,1315,1337,1357,1376,1396,1417,1436,1457,1476,1497,1517,1536,1556],"xSR":741.5,"ySR":469.95,"xT1":424.9,"yT1":0,"xT2":1058.1,"yT2":0,"toosoon":0,"cond_shown":"Congruent","ratio_trial":200,"L_num":11,"L_den":22,"R_num":3,"R_den":10,"correct_side":1,"subjID":"isabella rincon pinzon 27","gender":"1 ","school":"4","age":"Isabella Rincon Pinzon 27"},{"start_time":1552074034599,"click_time":1552074039028,"finger_time":1552074036108,"fix_duration":1210.1095161619348,"trial":49,"RT":1509,"MT":2920,"sideResp":1,"stimulus":[],"xmouse":[771,771,771,771,773,776,776,776,776,776,777,777,777,777,777,777,777,777,777,777,777,777,777,777,777,779,781,781,781,782,782,784,784,784,784,784,784,784,784,784,784,784,784,784,784,784,784,784,784,784,784,784,784,784,784,784,784,784,784,784,784,784,784,784,784,784,785,786,791,794,795,795,795,795,795,795,793,788,781,777,776,774,771,768,757,751,746,741,739,730,729,729,729,729,729,729,729,727,726,726,726,726,726,726,726,726,726,726,726,726,726,726,726,726,726,726,726,726,726,726,726,726,726,726,726,726,726,726,726,726,726,726,726,726,726,726,726,726,726,726,726,726,726,726,726,726,726,726,726,726,726,726,726,726,726,726,726,726,726,726,726,726,726,726,726,726,726,726,726,726,726,726,726,726,726,725,717,703,689,668,665,664,662,662,661,661,661,661,661,661,661,661,659,654,615,567,494,416,384,367,367,367,367,367,367,372,385,398,410,423,423,423,423,423,423,423,423,423,423,423,423,427],"ymouse":[502,502,502,502,503,504,504,504,504,504,504,504,504,504,504,504,504,504,504,504,504,504,504,504,504,504,497,497,497,497,497,498,498,498,498,498,498,498,498,498,498,498,498,498,498,498,498,498,498,498,498,498,498,498,498,498,498,498,498,498,498,498,498,498,498,498,498,498,492,488,487,487,487,486,475,466,455,438,412,401,401,395,385,373,344,330,318,309,301,285,285,285,285,285,285,285,284,279,277,277,277,277,277,277,277,277,277,277,277,277,277,277,277,277,277,277,277,277,277,277,277,277,277,277,277,277,277,277,277,277,277,277,277,277,277,277,277,277,277,277,277,277,277,277,277,277,277,277,277,277,277,277,277,277,277,277,277,277,277,277,277,277,277,277,277,277,277,277,277,277,277,277,277,277,277,276,260,244,235,223,221,220,218,218,218,218,218,218,218,218,218,218,216,213,191,167,128,71,40,8,5,4,4,4,3,3,15,26,34,38,38,38,38,38,38,38,38,38,38,38,38,38],"timestamp_mouse":[12,34,48,69,87,109,128,149,169,189,208,227,249,269,288,307,329,349,369,388,409,429,448,468,488,507,535,548,569,588,608,628,649,668,688,709,728,748,767,789,808,829,849,868,888,908,928,949,968,988,1008,1029,1049,1068,1089,1108,1129,1148,1168,1188,1208,1227,1249,1269,1289,1308,1328,1348,1369,1387,1408,1429,1448,1468,1488,1509,1529,1549,1569,1588,1608,1629,1647,1669,1688,1707,1728,1748,1769,1788,1807,1828,1848,1868,1889,1909,1928,1949,1968,1988,2008,2028,2048,2068,2088,2108,2128,2148,2167,2189,2208,2228,2248,2267,2289,2309,2329,2348,2369,2388,2408,2428,2448,2469,2488,2509,2528,2549,2569,2589,2608,2627,2647,2669,2688,2708,2728,2748,2769,2788,2809,2829,2849,2869,2888,2909,2929,2948,2968,2988,3008,3029,3049,3069,3089,3109,3128,3149,3168,3188,3207,3228,3248,3268,3288,3309,3328,3348,3368,3388,3409,3428,3448,3468,3488,3509,3529,3548,3568,3588,3607,3628,3649,3669,3689,3708,3728,3748,3769,3788,3809,3828,3848,3868,3889,3907,3928,3949,3968,3988,4009,4029,4048,4068,4089,4109,4128,4148,4169,4188,4209,4229,4249,4267,4288,4309,4328,4349,4368,4389,4409,4429],"xSR":741.5,"ySR":469.95,"xT1":424.9,"yT1":0,"xT2":1058.1,"yT2":0,"toosoon":0,"cond_shown":"Congruent","ratio_trial":300,"L_num":11,"L_den":22,"R_num":2,"R_den":10,"correct_side":1,"subjID":"isabella rincon pinzon 27","gender":"1 ","school":"4","age":"Isabella Rincon Pinzon 27"},{"start_time":1552074042939,"click_time":1552074056547,"finger_time":1552074053668,"fix_duration":250,"trial":50,"RT":10729,"MT":2879,"sideResp":2,"stimulus":[],"xmouse":[801,799,799,799,799,799,799,799,799,798,798,798,798,798,798,798,798,798,798,798,798,798,802,803,803,803,803,803,803,803,803,802,801,801,801,801,801,801,801,801,801,801,801,801,801,801,801,801,801,801,801,801,801,801,801,801,801,801,801,801,801,801,801,801,801,801,801,801,801,801,801,802,802,802,802,802,802,802,802,802,802,802,802,802,802,802,802,802,802,801,801,801,799,799,799,799,799,799,799,799,799,799,799,799,799,799,799,799,799,799,799,799,799,799,799,799,799,799,799,799,799,799,799,799,799,799,799,799,799,799,799,799,799,799,799,799,799,799,799,799,799,799,800,802,804,805,807,810,810,810,810,810,810,810,810,810,810,810,810,810,810,810,810,810,810,810,810,810,810,810,810,810,810,810,810,810,810,810,810,810,810,810,810,810,810,810,810,810,810,810,810,810,810,810,810,810,810,810,810,810,810,810,810,810,810,810,810,810,810,810,810,810,810,810,810,810,810,810,810,810,810,810,810,810,810,810,810,810,810,810,810,810,810,810,810,810,810,810,810,810,810,810,810,810,810,810,810,810,810,810,810,810,810,810,810,810,810,810,810,810,810,810,810,810,810,810,810,810,810,810,810,810,810,810,810,810,810,810,810,810,810,810,810,810,810,810,810,810,810,810,810,810,810,810,810,810,810,810,810,810,810,810,810,810,810,810,810,810,810,810,810,810,810,810,810,810,810,810,810,810,810,810,810,810,810,810,810,810,810,810,810,810,810,810,810,810,810,810,810,810,810,810,810,810,810,810,810,810,810,810,810,810,810,810,810,810,810,810,810,810,810,810,810,810,810,810,810,810,810,810,810,810,810,810,810,810,810,810,810,810,810,810,810,810,810,810,810,810,810,810,810,810,810,810,810,810,810,810,810,810,810,810,810,810,810,810,810,810,810,810,810,810,810,810,810,810,810,810,810,810,810,810,810,810,810,810,810,810,810,810,810,810,810,810,810,810,810,810,810,810,810,810,810,810,810,810,810,810,810,810,810,810,810,810,810,810,810,810,810,810,810,810,810,810,810,810,810,810,810,810,810,810,810,810,810,810,810,810,810,810,810,810,810,810,810,810,810,810,810,810,810,810,810,810,810,810,810,810,810,810,810,810,810,810,810,810,810,810,810,810,810,810,810,810,810,810,810,810,810,810,810,810,810,810,810,810,810,810,810,810,810,810,810,810,810,823,886,934,919,909,907,907,907,907,907,907,907,907,907,907,907,913,916,909,877,821,760,686,680,680,680,680,680,680,680,680,680,678,673,665,650,635,618,613,608,605,605,604,598,590,585,582,571,561,544,540,540,540,540,540,540,540,625,658,688,716,743,770,772,774,782,786,786,786,786,783,779,777,778,781,785,790,792,792,792,792,792,792,792,792,792,792,792,793,793,793,793,793,793,793,793,793,793,793,793,793,793,793,793,793,793,793,793,793,793,793,792,788,787,789,789,789,789,789,789,787,785,775,761,743,732,732,750,770,778,801,838,919,950,968,981,1000,1018,1023,1036,1050,1050,1050,1050,1050,1067],"ymouse":[548,543,541,541,541,541,541,541,539,538,537,537,537,537,537,537,537,537,537,537,537,537,556,557,557,557,557,557,557,557,557,557,557,557,557,557,557,557,557,557,557,557,557,557,557,557,557,557,557,557,557,557,557,557,557,557,557,557,557,557,557,557,557,557,557,557,557,557,557,557,557,557,559,559,559,559,559,559,559,559,559,559,559,559,561,564,565,565,565,565,565,564,564,564,564,564,564,564,564,564,564,564,564,564,564,564,564,564,564,564,564,564,564,564,564,564,564,564,564,564,564,564,564,564,564,564,564,564,564,564,564,564,564,564,564,564,564,564,564,564,564,564,552,535,530,530,530,531,531,531,531,531,531,531,531,531,531,531,531,531,531,531,531,531,531,531,531,531,531,531,531,531,531,531,531,531,531,531,531,531,531,531,531,531,531,531,531,531,531,531,531,531,531,531,531,531,531,531,531,531,531,531,531,531,531,531,531,531,531,531,531,531,531,531,531,531,531,531,531,531,531,531,531,531,531,531,531,531,531,531,531,531,531,531,531,531,531,531,531,531,531,531,531,531,531,531,531,531,531,531,531,531,531,531,531,531,531,531,531,531,531,531,531,531,531,531,531,531,531,531,531,531,531,531,531,531,531,531,531,531,531,531,531,531,531,531,531,531,531,531,531,531,531,531,531,531,531,531,531,531,531,531,531,531,531,531,531,531,531,531,531,531,531,531,531,531,531,531,531,531,531,531,531,531,531,531,531,531,531,531,531,531,531,531,531,531,531,531,531,531,531,531,531,531,531,531,531,531,531,531,531,531,531,531,531,531,531,531,531,531,531,531,531,531,531,531,531,531,531,531,531,531,531,531,531,531,531,531,531,531,531,531,531,531,531,531,531,531,531,531,531,531,531,531,531,531,531,531,531,531,531,531,531,531,531,531,531,531,531,531,531,531,531,531,531,531,531,531,531,531,531,531,531,531,531,531,531,531,531,531,531,531,531,531,531,531,531,531,531,531,531,531,531,531,531,531,531,531,531,531,531,531,531,531,531,531,531,531,531,531,531,531,531,531,531,531,531,531,531,531,531,531,531,531,531,531,531,531,531,531,531,531,531,531,531,531,531,531,531,531,531,531,531,531,531,531,531,531,531,531,531,531,531,531,531,531,531,531,531,531,531,531,531,531,531,531,531,531,531,531,531,531,531,531,531,531,531,531,531,531,531,531,531,531,531,509,399,286,293,297,297,297,297,297,297,297,297,297,297,297,297,283,278,303,342,407,470,527,529,529,529,529,523,523,523,522,519,510,508,508,518,532,554,564,570,574,574,577,593,603,608,609,613,630,672,701,701,701,701,701,701,701,673,649,630,620,614,612,613,624,637,644,644,644,638,626,614,604,599,597,593,579,548,529,513,504,500,499,499,499,499,499,507,509,509,509,509,509,509,509,509,509,509,509,509,509,509,509,509,509,509,509,509,509,509,509,513,530,539,541,541,541,541,541,541,541,541,536,531,524,521,521,505,487,432,363,292,179,137,101,74,32,10,8,5,0,0,0,0,0,4],"timestamp_mouse":[9,37,48,68,88,109,129,149,168,188,209,228,249,269,288,307,329,349,368,389,409,428,448,469,489,508,529,549,568,588,608,629,648,668,688,709,728,748,769,788,809,828,849,869,887,907,929,949,968,987,1007,1028,1049,1068,1089,1109,1127,1149,1169,1188,1209,1229,1248,1268,1288,1309,1329,1348,1367,1388,1409,1428,1448,1469,1489,1508,1529,1548,1569,1588,1608,1628,1648,1669,1688,1707,1729,1748,1769,1788,1808,1829,1847,1869,1889,1908,1928,1949,1969,1989,2008,2028,2048,2067,2089,2107,2128,2148,2169,2188,2208,2229,2248,2268,2288,2309,2329,2349,2368,2389,2409,2428,2449,2469,2488,2509,2529,2548,2569,2589,2609,2628,2648,2669,2689,2709,2729,2748,2768,2787,2809,2828,2848,2869,2889,2908,2929,2948,2968,2989,3009,3027,3048,3069,3087,3109,3129,3147,3169,3189,3209,3229,3247,3269,3288,3307,3328,3348,3369,3389,3409,3429,3447,3469,3488,3508,3528,3549,3569,3588,3608,3628,3648,3667,3689,3708,3728,3749,3768,3789,3808,3827,3848,3869,3889,3909,3929,3948,3967,3988,4009,4028,4049,4067,4089,4109,4129,4147,4168,4189,4208,4229,4248,4269,4288,4308,4328,4348,4367,4389,4408,4428,4449,4469,4488,4509,4529,4548,4568,4587,4609,4628,4649,4668,4688,4708,4729,4749,4768,4788,4809,4828,4848,4868,4888,4909,4929,4949,4969,4988,5009,5029,5047,5069,5088,5108,5129,5149,5168,5189,5209,5229,5248,5269,5288,5307,5328,5349,5368,5389,5409,5429,5449,5469,5487,5508,5529,5548,5569,5589,5609,5629,5649,5669,5689,5708,5729,5747,5769,5789,5808,5829,5848,5869,5889,5909,5928,5947,5968,5989,6009,6028,6049,6069,6088,6107,6128,6148,6168,6187,6209,6229,6247,6267,6289,6309,6328,6349,6369,6389,6408,6429,