[{"start_time":1552074684635,"click_time":1552074686530,"finger_time":1552074685791,"fix_duration":1021.4389460278275,"trial":0,"RT":1156,"MT":739,"sideResp":2,"stimulus":"img/500/equaldotanddens/R/6_Ratio_500_L_9_R_18.png","xmouse":[777,777,777,777,777,777,777,777,777,777,777,777,777,777,777,777,777,777,777,777,777,777,777,777,777,777,777,777,777,777,777,777,777,777,777,777,777,777,777,777,777,777,777,777,777,777,777,777,777,777,777,777,777,777,778,788,819,906,942,957,961,961,961,962,964,975,1041,1086,1086,1086,1086,1086,1178,1192,1208,1251,1341,1407,1421,1433,1447,1478,1482,1484,1486,1486,1486,1486,1486,1486,1317,1234,1194,1168,1150],"ymouse":[543,543,543,543,543,543,543,543,543,543,543,543,543,543,543,543,543,543,543,543,543,543,543,543,543,543,543,543,543,543,543,543,543,543,543,543,543,543,543,543,543,543,543,543,543,543,543,543,543,543,543,543,543,543,543,543,550,608,630,635,635,635,635,635,635,636,680,716,716,716,716,716,716,677,620,569,491,401,364,318,261,150,97,39,8,8,8,8,8,8,1,52,69,77,78],"timestamp_mouse":[14,43,55,75,94,114,135,154,175,196,215,235,255,274,294,314,335,356,375,394,416,435,455,476,494,515,536,555,575,596,615,635,654,675,694,714,735,756,774,794,815,834,854,874,896,914,935,955,975,995,1015,1035,1055,1075,1094,1115,1134,1155,1175,1195,1214,1234,1255,1275,1295,1316,1336,1356,1374,1394,1415,1435,1454,1475,1494,1515,1534,1555,1574,1595,1615,1635,1654,1675,1694,1715,1735,1754,1774,1795,1815,1834,1854,1874,1895],"xSR":741.5,"ySR":469.95,"xT1":424.9,"yT1":0,"xT2":1058.1,"yT2":0,"toosoon":0,"cond_shown":"equaldotanddens","ratio_trial":500,"smaller_num":"9","larger_num":"18","correct_side":2,"subjID":"isabellarinconpinzon27","gender":"1","age":"9","school":"4","test":{"fix_dur":[250,1500],"timestim":300,"targets_dim":[100,100],"targets_relative_coord":[0.3,0.7],"size_stim":[880,420],"start_dim":[100,100],"size_start":[300,300],"size_fix":60,"samplingrate":20,"img_types":["equaldotsize","equaldotanddens","randomdotsizeEA"],"ratios":[250,500,750,900],"rep_conds":9,"nTrials":120,"trials_to_rest":500,"Trials_order":[64,53,13,87,92,85,59,115,77,72,70,49,65,67,83,79,48,5,99,112,19,27,34,88,29,60,82,44,66,119,10,102,4,41,73,109,12,17,104,93,15,0,118,23,98,106,95,36,52,76,61,69,24,9,105,56,35,78,94,113,32,2,40,26,89,45,51,101,74,50,31,6,110,42,81,8,33,25,55,96,11,75,58,38,54,37,28,62,7,39,97,57,16,63,100,86,21,68,116,103,91,3,71,20,18,84,108,1,107,90,14,117,30,80,47,43,22,46,111,114],"cond_shown":["equaldotanddens","randomdotsizeEA","equaldotanddens","equaldotsize","randomdotsizeEA","equaldotanddens","randomdotsizeEA","equaldotanddens","randomdotsizeEA","equaldotsize","equaldotanddens","equaldotanddens","randomdotsizeEA","equaldotanddens","randomdotsizeEA","equaldotanddens","equaldotsize","randomdotsizeEA","equaldotsize","equaldotanddens","equaldotanddens","equaldotsize","equaldotanddens","equaldotanddens","randomdotsizeEA","equaldotsize","equaldotanddens","randomdotsizeEA","equaldotsize","randomdotsizeEA","equaldotanddens","equaldotsize","equaldotanddens","randomdotsizeEA","equaldotanddens","equaldotanddens","equaldotsize","randomdotsizeEA","randomdotsizeEA","equaldotsize","equaldotsize","equaldotsize","equaldotanddens","randomdotsizeEA","randomdotsizeEA","equaldotanddens","randomdotsizeEA","equaldotsize","equaldotanddens","equaldotanddens","equaldotanddens","equaldotsize","equaldotsize","equaldotsize","equaldotsize","randomdotsizeEA","randomdotsizeEA","equaldotsize","equaldotanddens","randomdotsizeEA","randomdotsizeEA","randomdotsizeEA","equaldotanddens","randomdotsizeEA","randomdotsizeEA","equaldotsize","equaldotsize","randomdotsizeEA","randomdotsizeEA","randomdotsizeEA","equaldotanddens","equaldotsize","randomdotsizeEA","equaldotsize","equaldotsize","randomdotsizeEA","equaldotsize","equaldotanddens","equaldotanddens","equaldotsize","randomdotsizeEA","equaldotsize","equaldotanddens","randomdotsizeEA","equaldotsize","equaldotanddens","equaldotanddens","randomdotsizeEA","equaldotanddens","equaldotsize","equaldotanddens","equaldotsize","equaldotanddens","equaldotsize","equaldotanddens","randomdotsizeEA","equaldotsize","randomdotsizeEA","randomdotsizeEA","equaldotanddens","equaldotanddens","equaldotsize","randomdotsizeEA","randomdotsizeEA","equaldotsize","equaldotsize","equaldotsize","equaldotanddens","randomdotsizeEA","equaldotsize","randomdotsizeEA","equaldotsize","equaldotsize","randomdotsizeEA","randomdotsizeEA","equaldotanddens","equaldotanddens","equaldotanddens","equaldotsize","equaldotsize"],"ratio_trial":[500,500,250,500,750,250,900,750,500,250,900,250,500,750,900,750,250,500,500,500,750,500,900,500,500,250,900,750,750,900,900,750,500,500,250,250,250,500,750,900,500,250,900,900,250,900,900,250,500,500,250,900,250,900,900,750,900,750,900,500,750,250,500,250,500,900,500,500,250,250,750,750,250,750,900,750,900,250,750,250,900,500,900,250,750,250,500,250,750,500,250,900,500,500,500,250,900,750,750,750,750,500,900,750,750,250,250,250,900,750,250,900,750,750,900,750,900,900,500,750],"smaller_num":["9","10","2","6","15","2","9","6","1","2","18","3","1","12","18","3","1","6","10","6","6","6","9","6","2","6","18","3","3","18","9","18","1","4","6","4","5","1","3","9","6","3","18","9","4","18","18","2","5","5","2","18","2","18","18","15","9","6","18","6","9","3","1","2","5","18","10","6","1","3","3","3","2","3","18","15","18","3","9","2","18","5","18","2","3","3","9","2","3","2","2","9","4","1","9","2","9","6","18","9","6","9","9","18","3","2","3","6","18","3","6","18","3","15","18","6","18","18","10","3"],"larger_num":["18","20","8","12","20","8","10","8","2","8","20","12","2","16","20","4","4","12","20","12","8","12","10","12","4","24","20","4","4","20","10","24","2","8","24","16","20","2","4","10","12","12","20","10","16","20","20","8","10","10","8","20","8","20","20","20","10","8","20","12","12","12","2","8","10","20","20","12","4","12","4","4","8","4","20","20","20","12","12","8","20","10","20","8","4","12","18","8","4","4","8","10","8","2","18","8","10","8","24","12","8","18","10","24","4","8","12","24","20","4","24","20","4","20","20","8","20","20","20","4"],"correct_side":[2,2,1,1,2,2,2,1,2,1,1,2,2,2,2,2,2,1,2,1,2,1,1,1,2,1,2,1,1,1,2,1,2,1,1,1,2,2,1,1,1,1,1,2,2,1,2,1,2,1,1,2,1,2,1,2,2,2,1,1,2,2,2,1,1,1,2,1,2,2,1,1,1,1,2,2,2,2,2,1,1,2,1,1,1,2,1,1,1,1,1,2,1,2,2,1,2,1,1,2,2,2,1,1,2,2,1,2,1,2,2,2,1,2,2,2,1,1,2,1],"img_shown":["img/500/equaldotanddens/R/6_Ratio_500_L_9_R_18.png","img/500/randomdotsizeEA/R/3_Ratio_500_L_10_R_20.png","img/250/equaldotanddens/L/1_Ratio_250_L_8_R_2.png","img/500/equaldotsize/L/13_Ratio_500_L_12_R_6.png","img/750/randomdotsizeEA/R/4_Ratio_750_L_15_R_20.png","img/250/equaldotanddens/R/13_Ratio_250_L_2_R_8.png","img/900/randomdotsizeEA/R/3_Ratio_900_L_9_R_10.png","img/750/equaldotanddens/L/14_Ratio_750_L_8_R_6.png","img/500/randomdotsizeEA/R/12_Ratio_500_L_1_R_2.png","img/250/equaldotsize/L/3_Ratio_250_L_8_R_2.png","img/900/equaldotanddens/L/2_Ratio_900_L_20_R_18.png","img/250/equaldotanddens/R/4_Ratio_250_L_3_R_12.png","img/500/randomdotsizeEA/R/15_Ratio_500_L_1_R_2.png","img/750/equaldotanddens/R/11_Ratio_750_L_12_R_16.png","img/900/randomdotsizeEA/R/12_Ratio_900_L_18_R_20.png","img/750/equaldotanddens/R/12_Ratio_750_L_3_R_4.png","img/250/equaldotsize/R/8_Ratio_250_L_1_R_4.png","img/500/randomdotsizeEA/L/13_Ratio_500_L_12_R_6.png","img/500/equaldotsize/R/3_Ratio_500_L_10_R_20.png","img/500/equaldotanddens/L/13_Ratio_500_L_12_R_6.png","img/750/equaldotanddens/R/2_Ratio_750_L_6_R_8.png","img/500/equaldotsize/L/11_Ratio_500_L_12_R_6.png","img/900/equaldotanddens/L/1_Ratio_900_L_10_R_9.png","img/500/equaldotanddens/L/11_Ratio_500_L_12_R_6.png","img/500/randomdotsizeEA/R/9_Ratio_500_L_2_R_4.png","img/250/equaldotsize/L/5_Ratio_250_L_24_R_6.png","img/900/equaldotanddens/R/14_Ratio_900_L_18_R_20.png","img/750/randomdotsizeEA/L/10_Ratio_750_L_4_R_3.png","img/750/equaldotsize/L/9_Ratio_750_L_4_R_3.png","img/900/randomdotsizeEA/L/10_Ratio_900_L_20_R_18.png","img/900/equaldotanddens/R/3_Ratio_900_L_9_R_10.png","img/750/equaldotsize/L/6_Ratio_750_L_24_R_18.png","img/500/equaldotanddens/R/15_Ratio_500_L_1_R_2.png","img/500/randomdotsizeEA/L/8_Ratio_500_L_8_R_4.png","img/250/equaldotanddens/L/5_Ratio_250_L_24_R_6.png","img/250/equaldotanddens/L/2_Ratio_250_L_16_R_4.png","img/250/equaldotsize/R/12_Ratio_250_L_5_R_20.png","img/500/randomdotsizeEA/R/15_Ratio_500_L_1_R_2.png","img/750/randomdotsizeEA/L/10_Ratio_750_L_4_R_3.png","img/900/equaldotsize/L/1_Ratio_900_L_10_R_9.png","img/500/equaldotsize/L/11_Ratio_500_L_12_R_6.png","img/250/equaldotsize/L/14_Ratio_250_L_12_R_3.png","img/900/equaldotanddens/L/10_Ratio_900_L_20_R_18.png","img/900/randomdotsizeEA/R/3_Ratio_900_L_9_R_10.png","img/250/randomdotsizeEA/R/10_Ratio_250_L_4_R_16.png","img/900/equaldotanddens/L/2_Ratio_900_L_20_R_18.png","img/900/randomdotsizeEA/R/14_Ratio_900_L_18_R_20.png","img/250/equaldotsize/L/3_Ratio_250_L_8_R_2.png","img/500/equaldotanddens/R/14_Ratio_500_L_5_R_10.png","img/500/equaldotanddens/L/7_Ratio_500_L_10_R_5.png","img/250/equaldotanddens/L/3_Ratio_250_L_8_R_2.png","img/900/equaldotsize/R/9_Ratio_900_L_18_R_20.png","img/250/equaldotsize/L/7_Ratio_250_L_8_R_2.png","img/900/equaldotsize/R/12_Ratio_900_L_18_R_20.png","img/900/equaldotsize/L/2_Ratio_900_L_20_R_18.png","img/750/randomdotsizeEA/R/3_Ratio_750_L_15_R_20.png","img/900/randomdotsizeEA/R/3_Ratio_900_L_9_R_10.png","img/750/equaldotsize/R/2_Ratio_750_L_6_R_8.png","img/900/equaldotanddens/L/2_Ratio_900_L_20_R_18.png","img/500/randomdotsizeEA/L/13_Ratio_500_L_12_R_6.png","img/750/randomdotsizeEA/R/15_Ratio_750_L_9_R_12.png","img/250/randomdotsizeEA/R/11_Ratio_250_L_3_R_12.png","img/500/equaldotanddens/R/12_Ratio_500_L_1_R_2.png","img/250/randomdotsizeEA/L/3_Ratio_250_L_8_R_2.png","img/500/randomdotsizeEA/L/7_Ratio_500_L_10_R_5.png","img/900/equaldotsize/L/4_Ratio_900_L_20_R_18.png","img/500/equaldotsize/R/3_Ratio_500_L_10_R_20.png","img/500/randomdotsizeEA/L/13_Ratio_500_L_12_R_6.png","img/250/randomdotsizeEA/R/8_Ratio_250_L_1_R_4.png","img/250/randomdotsizeEA/R/11_Ratio_250_L_3_R_12.png","img/750/equaldotanddens/L/9_Ratio_750_L_4_R_3.png","img/750/equaldotsize/L/10_Ratio_750_L_4_R_3.png","img/250/randomdotsizeEA/L/1_Ratio_250_L_8_R_2.png","img/750/equaldotsize/L/9_Ratio_750_L_4_R_3.png","img/900/equaldotsize/R/12_Ratio_900_L_18_R_20.png","img/750/randomdotsizeEA/R/4_Ratio_750_L_15_R_20.png","img/900/equaldotsize/R/11_Ratio_900_L_18_R_20.png","img/250/equaldotanddens/R/9_Ratio_250_L_3_R_12.png","img/750/equaldotanddens/R/15_Ratio_750_L_9_R_12.png","img/250/equaldotsize/L/7_Ratio_250_L_8_R_2.png","img/900/randomdotsizeEA/L/10_Ratio_900_L_20_R_18.png","img/500/equaldotsize/R/14_Ratio_500_L_5_R_10.png","img/900/equaldotanddens/L/8_Ratio_900_L_20_R_18.png","img/250/randomdotsizeEA/L/1_Ratio_250_L_8_R_2.png","img/750/equaldotsize/L/9_Ratio_750_L_4_R_3.png","img/250/equaldotanddens/R/9_Ratio_250_L_3_R_12.png","img/500/equaldotanddens/L/4_Ratio_500_L_18_R_9.png","img/250/randomdotsizeEA/L/3_Ratio_250_L_8_R_2.png","img/750/equaldotanddens/L/10_Ratio_750_L_4_R_3.png","img/500/equaldotsize/L/10_Ratio_500_L_4_R_2.png","img/250/equaldotanddens/L/3_Ratio_250_L_8_R_2.png","img/900/equaldotsize/R/7_Ratio_900_L_9_R_10.png","img/500/equaldotanddens/L/8_Ratio_500_L_8_R_4.png","img/500/equaldotsize/R/15_Ratio_500_L_1_R_2.png","img/500/equaldotanddens/R/1_Ratio_500_L_9_R_18.png","img/250/randomdotsizeEA/L/7_Ratio_250_L_8_R_2.png","img/900/equaldotsize/R/3_Ratio_900_L_9_R_10.png","img/750/randomdotsizeEA/L/13_Ratio_750_L_8_R_6.png","img/750/randomdotsizeEA/L/6_Ratio_750_L_24_R_18.png","img/750/equaldotanddens/R/15_Ratio_750_L_9_R_12.png","img/750/equaldotanddens/R/2_Ratio_750_L_6_R_8.png","img/500/equaldotsize/R/6_Ratio_500_L_9_R_18.png","img/900/randomdotsizeEA/L/1_Ratio_900_L_10_R_9.png","img/750/randomdotsizeEA/L/6_Ratio_750_L_24_R_18.png","img/750/equaldotsize/R/7_Ratio_750_L_3_R_4.png","img/250/equaldotsize/R/13_Ratio_250_L_2_R_8.png","img/250/equaldotsize/L/15_Ratio_250_L_12_R_3.png","img/250/equaldotanddens/R/6_Ratio_250_L_6_R_24.png","img/900/randomdotsizeEA/L/4_Ratio_900_L_20_R_18.png","img/750/equaldotsize/R/12_Ratio_750_L_3_R_4.png","img/250/randomdotsizeEA/R/6_Ratio_250_L_6_R_24.png","img/900/equaldotsize/R/12_Ratio_900_L_18_R_20.png","img/750/equaldotsize/L/10_Ratio_750_L_4_R_3.png","img/750/randomdotsizeEA/R/4_Ratio_750_L_15_R_20.png","img/900/randomdotsizeEA/R/9_Ratio_900_L_18_R_20.png","img/750/equaldotanddens/R/2_Ratio_750_L_6_R_8.png","img/900/equaldotanddens/L/8_Ratio_900_L_20_R_18.png","img/900/equaldotanddens/L/8_Ratio_900_L_20_R_18.png","img/500/equaldotsize/R/3_Ratio_500_L_10_R_20.png","img/750/equaldotsize/L/10_Ratio_750_L_4_R_3.png"],"Rat0":[["12_Ratio_0_L_9_R_0.png","13_Ratio_0_L_6_R_0.png","5_Ratio_0_L_2_R_0.png","6_Ratio_0_L_4_R_0.png","8_Ratio_0_L_6_R_0.png"],["1_Ratio_0_L_0_R_17.png","10_Ratio_0_L_0_R_22.png","11_Ratio_0_L_0_R_1.png","14_Ratio_0_L_0_R_24.png","15_Ratio_0_L_0_R_4.png","2_Ratio_0_L_0_R_5.png","3_Ratio_0_L_0_R_17.png","4_Ratio_0_L_0_R_7.png","7_Ratio_0_L_0_R_19.png","9_Ratio_0_L_0_R_15.png"]],"Rat250":[["1_Ratio_250_L_8_R_2.png","14_Ratio_250_L_12_R_3.png","15_Ratio_250_L_12_R_3.png","2_Ratio_250_L_16_R_4.png","3_Ratio_250_L_8_R_2.png","5_Ratio_250_L_24_R_6.png","7_Ratio_250_L_8_R_2.png"],["10_Ratio_250_L_4_R_16.png","11_Ratio_250_L_3_R_12.png","12_Ratio_250_L_5_R_20.png","13_Ratio_250_L_2_R_8.png","4_Ratio_250_L_3_R_12.png","6_Ratio_250_L_6_R_24.png","8_Ratio_250_L_1_R_4.png","9_Ratio_250_L_3_R_12.png"]],"Rat500":[["10_Ratio_500_L_4_R_2.png","11_Ratio_500_L_12_R_6.png","13_Ratio_500_L_12_R_6.png","4_Ratio_500_L_18_R_9.png","5_Ratio_500_L_4_R_2.png","7_Ratio_500_L_10_R_5.png","8_Ratio_500_L_8_R_4.png"],["1_Ratio_500_L_9_R_18.png","12_Ratio_500_L_1_R_2.png","14_Ratio_500_L_5_R_10.png","15_Ratio_500_L_1_R_2.png","2_Ratio_500_L_3_R_6.png","3_Ratio_500_L_10_R_20.png","6_Ratio_500_L_9_R_18.png","9_Ratio_500_L_2_R_4.png"]],"Rat750":[["1_Ratio_750_L_20_R_15.png","10_Ratio_750_L_4_R_3.png","13_Ratio_750_L_8_R_6.png","14_Ratio_750_L_8_R_6.png","6_Ratio_750_L_24_R_18.png","8_Ratio_750_L_4_R_3.png","9_Ratio_750_L_4_R_3.png"],["11_Ratio_750_L_12_R_16.png","12_Ratio_750_L_3_R_4.png","15_Ratio_750_L_9_R_12.png","2_Ratio_750_L_6_R_8.png","3_Ratio_750_L_15_R_20.png","4_Ratio_750_L_15_R_20.png","5_Ratio_750_L_15_R_20.png","7_Ratio_750_L_3_R_4.png"]],"Rat900":[["1_Ratio_900_L_10_R_9.png","10_Ratio_900_L_20_R_18.png","2_Ratio_900_L_20_R_18.png","4_Ratio_900_L_20_R_18.png","8_Ratio_900_L_20_R_18.png"],["11_Ratio_900_L_18_R_20.png","12_Ratio_900_L_18_R_20.png","13_Ratio_900_L_18_R_20.png","14_Ratio_900_L_18_R_20.png","15_Ratio_900_L_9_R_10.png","3_Ratio_900_L_9_R_10.png","5_Ratio_900_L_9_R_10.png","6_Ratio_900_L_9_R_10.png","7_Ratio_900_L_9_R_10.png","9_Ratio_900_L_18_R_20.png"]],"Rat1000":[["10_Ratio_1000_L_16_R_16.png","11_Ratio_1000_L_6_R_6.png","12_Ratio_1000_L_14_R_14.png","13_Ratio_1000_L_20_R_20.png","15_Ratio_1000_L_15_R_15.png","2_Ratio_1000_L_17_R_17.png","4_Ratio_1000_L_9_R_9.png","5_Ratio_1000_L_6_R_6.png","6_Ratio_1000_L_19_R_19.png","8_Ratio_1000_L_14_R_14.png","9_Ratio_1000_L_25_R_25.png"],["1_Ratio_1000_L_1_R_1.png","14_Ratio_1000_L_17_R_17.png","3_Ratio_1000_L_17_R_17.png","7_Ratio_1000_L_6_R_6.png"]]}},{"start_time":1552074692035,"click_time":1552074692931,"finger_time":1552074692431,"fix_duration":945.5599609397884,"trial":1,"RT":396,"MT":500,"sideResp":2,"stimulus":"img/500/randomdotsizeEA/R/3_Ratio_500_L_10_R_20.png","xmouse":[756,756,756,756,756,756,756,756,756,756,756,756,756,756,756,756,756,755,753,746,733,724,724,724,724,728,747,766,798,836,884,1031,1120,1197,1253,1283,1312,1313,1313,1313,1313,1293,1257,1190,1146],"ymouse":[512,512,512,512,512,512,512,512,512,512,512,512,512,512,512,512,512,505,479,438,394,355,351,350,349,349,346,343,333,316,296,238,201,170,140,114,71,67,66,66,66,58,48,22,7],"timestamp_mouse":[15,46,54,74,96,115,134,155,176,195,215,235,255,274,294,315,335,355,375,396,416,436,454,475,494,514,535,554,575,595,615,635,655,675,694,715,735,754,775,796,814,835,854,875,896],"xSR":741.5,"ySR":469.95,"xT1":424.9,"yT1":0,"xT2":1058.1,"yT2":0,"toosoon":0,"cond_shown":"randomdotsizeEA","ratio_trial":500,"smaller_num":"10","larger_num":"20","correct_side":2,"subjID":"isabellarinconpinzon27","gender":"1","age":"9","school":"4"},{"start_time":1552074695601,"click_time":1552074696490,"finger_time":1552074695990,"fix_duration":250,"trial":2,"RT":389,"MT":500,"sideResp":1,"stimulus":"img/250/equaldotanddens/L/1_Ratio_250_L_8_R_2.png","xmouse":[765,765,765,765,765,765,765,765,765,765,764,764,765,770,772,773,774,774,770,761,750,737,725,710,706,698,690,677,649,587,565,546,539,539,539,538,536,534,533,533,533,533,533,526,509],"ymouse":[506,506,506,506,506,506,506,506,506,506,506,506,506,507,507,507,507,506,483,456,420,377,326,240,210,193,182,172,158,121,102,86,81,81,81,81,89,91,94,94,94,94,96,96,88],"timestamp_mouse":[10,41,50,70,89,109,129,149,169,188,209,229,249,269,289,309,328,348,370,389,409,430,449,469,488,509,529,548,569,589,609,628,649,669,689,708,728,749,769,789,808,829,849,870,889],"xSR":741.5,"ySR":469.95,"xT1":424.9,"yT1":0,"xT2":1058.1,"yT2":0,"toosoon":0,"cond_shown":"equaldotanddens","ratio_trial":250,"smaller_num":"2","larger_num":"8","correct_side":1,"subjID":"isabellarinconpinzon27","gender":"1","age":"9","school":"4"},{"start_time":1552074697582,"click_time":1552074698411,"finger_time":1552074698050,"fix_duration":250,"trial":3,"RT":468,"MT":361,"sideResp":1,"stimulus":"img/500/equaldotsize/L/13_Ratio_500_L_12_R_6.png","xmouse":[790,790,790,790,790,790,790,790,790,790,790,790,790,790,790,790,790,790,790,790,791,802,823,860,932,942,939,921,876,784,729,685,655,641,634,632,632,631,627,583,550,522],"ymouse":[518,518,518,518,518,518,518,518,518,518,518,518,518,518,518,518,518,518,518,518,518,510,491,436,289,237,204,171,133,100,84,71,57,47,43,41,41,40,39,30,22,20],"timestamp_mouse":[7,34,48,67,87,109,128,147,167,187,209,229,247,267,287,307,329,347,368,389,408,428,447,468,489,507,527,548,568,588,609,627,648,668,687,707,727,748,767,788,807,828],"xSR":741.5,"ySR":469.95,"xT1":424.9,"yT1":0,"xT2":1058.1,"yT2":0,"toosoon":0,"cond_shown":"equaldotsize","ratio_trial":500,"smaller_num":"6","larger_num":"12","correct_side":1,"subjID":"isabellarinconpinzon27","gender":"1","age":"9","school":"4"},{"start_time":1552074699401,"click_time":1552074700171,"finger_time":1552074699851,"fix_duration":250,"trial":4,"RT":450,"MT":320,"sideResp":2,"stimulus":"img/750/randomdotsizeEA/R/4_Ratio_750_L_15_R_20.png","xmouse":[755,756,756,756,756,756,756,756,756,756,756,756,758,760,761,761,761,761,767,775,792,823,887,971,1113,1151,1172,1185,1186,1188,1188,1188,1189,1189,1188,1183,1177,1162,1148],"ymouse":[510,510,510,510,510,510,510,510,510,510,510,510,510,511,511,511,511,511,511,511,505,492,464,424,312,271,234,192,176,160,159,158,157,156,151,138,121,82,44],"timestamp_mouse":[8,30,52,69,89,109,128,148,169,188,209,228,248,269,289,308,329,349,368,390,410,428,450,469,489,509,529,549,568,589,609,628,648,669,688,709,729,750,769],"xSR":741.5,"ySR":469.95,"xT1":424.9,"yT1":0,"xT2":1058.1,"yT2":0,"toosoon":0,"cond_shown":"randomdotsizeEA","ratio_trial":750,"smaller_num":"15","larger_num":"20","correct_side":2,"subjID":"isabellarinconpinzon27","gender":"1","age":"9","school":"4"},{"start_time":1552074703043,"click_time":1552074703689,"finger_time":1552074703390,"fix_duration":250,"trial":5,"RT":347,"MT":299,"sideResp":1,"stimulus":"img/250/equaldotanddens/R/13_Ratio_250_L_2_R_8.png","xmouse":[801,801,801,801,801,801,801,801,801,801,801,801,801,801,801,800,798,796,786,768,739,669,640,627,623,623,623,623,623,622,615,559,524],"ymouse":[520,520,520,520,520,520,520,520,520,520,520,520,520,520,520,520,484,451,418,382,322,190,133,98,82,76,76,76,76,75,70,41,25],"timestamp_mouse":[11,28,46,66,88,108,126,147,168,186,206,227,247,267,286,306,326,347,366,388,408,427,446,466,486,506,527,547,567,586,606,627,646],"xSR":741.5,"ySR":469.95,"xT1":424.9,"yT1":0,"xT2":1058.1,"yT2":0,"toosoon":0,"cond_shown":"equaldotanddens","ratio_trial":250,"smaller_num":"2","larger_num":"8","correct_side":2,"subjID":"isabellarinconpinzon27","gender":"1","age":"9","school":"4"},{"start_time":1552074705550,"click_time":1552074706331,"finger_time":1552074705890,"fix_duration":1038.4241399230543,"trial":6,"RT":340,"MT":441,"sideResp":2,"stimulus":"img/900/randomdotsizeEA/R/3_Ratio_900_L_9_R_10.png","xmouse":[820,819,816,813,813,813,813,813,813,813,813,813,813,812,812,815,837,851,870,904,937,1037,1077,1110,1138,1168,1168,1168,1168,1168,1168,1168,1168,1168,1168,1168,1207,1186,1171,1149],"ymouse":[527,527,527,527,527,527,527,527,527,527,527,527,527,527,527,526,515,507,498,485,467,359,287,217,127,29,29,29,29,29,29,29,29,29,29,29,51,77,90,98],"timestamp_mouse":[1,19,39,59,80,99,119,140,160,179,199,219,240,259,280,299,319,340,361,379,400,421,439,459,481,500,521,540,561,580,599,620,640,660,681,700,720,739,760,781],"xSR":741.5,"ySR":469.95,"xT1":424.9,"yT1":0,"xT2":1058.1,"yT2":0,"toosoon":0,"cond_shown":"randomdotsizeEA","ratio_trial":900,"smaller_num":"9","larger_num":"10","correct_side":2,"subjID":"isabellarinconpinzon27","gender":"1","age":"9","school":"4"},{"start_time":1552074716808,"click_time":1552074717650,"finger_time":1552074717169,"fix_duration":1257.639140656857,"trial":7,"RT":361,"MT":481,"sideResp":1,"stimulus":"img/750/equaldotanddens/L/14_Ratio_750_L_8_R_6.png","xmouse":[780,780,780,780,780,780,780,780,779,779,779,779,779,779,779,779,775,773,756,747,734,721,703,671,659,653,649,644,616,601,584,571,565,564,564,564,564,564,555,538,523,510,506],"ymouse":[525,525,525,525,525,525,526,526,527,527,527,527,527,527,523,513,493,484,432,401,364,323,293,254,245,240,239,235,207,186,161,143,135,132,132,132,132,132,130,121,111,103,99],"timestamp_mouse":[3,21,42,62,81,101,121,142,161,182,203,222,242,261,283,302,321,341,361,381,401,421,442,462,482,502,521,541,562,581,602,621,643,662,682,701,722,742,762,781,801,821,841],"xSR":741.5,"ySR":469.95,"xT1":424.9,"yT1":0,"xT2":1058.1,"yT2":0,"toosoon":0,"cond_shown":"equaldotanddens","ratio_trial":750,"smaller_num":"6","larger_num":"8","correct_side":1,"subjID":"isabellarinconpinzon27","gender":"1","age":"9","school":"4"},{"start_time":1552074736537,"click_time":1552074737572,"finger_time":1552074737151,"fix_duration":1425.5438469000362,"trial":8,"RT":614,"MT":421,"sideResp":2,"stimulus":"img/500/randomdotsizeEA/R/12_Ratio_500_L_1_R_2.png","xmouse":[773,747,743,744,759,767,767,767,791,788,785,780,780,780,781,784,784,784,784,793,793,791,793,802,809,812,813,818,820,832,855,879,893,904,914,929,943,987,1012,1033,1046,1047,1047,1048,1049,1051,1058,1077,1085,1092,1101,1120],"ymouse":[534,534,531,529,525,523,523,523,532,538,542,543,543,543,543,543,543,543,543,543,542,530,521,510,505,503,502,502,502,499,492,478,469,458,448,433,418,363,313,285,257,237,229,222,213,201,183,146,132,119,106,82],"timestamp_mouse":[15,34,54,75,93,114,135,155,175,194,215,234,253,273,295,314,334,353,375,394,414,434,454,474,495,515,535,554,574,594,614,635,654,674,694,714,735,754,773,794,814,834,854,874,895,915,934,955,975,994,1013,1034],"xSR":741.5,"ySR":469.95,"xT1":424.9,"yT1":0,"xT2":1058.1,"yT2":0,"toosoon":0,"cond_shown":"randomdotsizeEA","ratio_trial":500,"smaller_num":"1","larger_num":"2","correct_side":2,"subjID":"isabellarinconpinzon27","gender":"1","age":"9","school":"4"},{"start_time":1552074740563,"click_time":1552074742312,"finger_time":1552074740730,"fix_duration":250,"trial":9,"RT":167,"MT":1582,"sideResp":1,"stimulus":"img/250/equaldotsize/L/3_Ratio_250_L_8_R_2.png","xmouse":[788,788,788,788,788,788,788,788,788,789,791,791,791,791,791,790,790,790,790,794,838,861,877,882,883,887,887,890,895,901,896,886,867,846,837,820,783,726,671,630,622,622,622,624,624,624,624,618,605,590,567,551,541,533,531,531,531,531,531,531,531,531,531,531,531,531,531,531,531,531,531,531,531,531,531,531,531,531,531,531,531,531,531,531,531,529,525,517],"ymouse":[534,534,534,534,534,520,508,492,454,444,434,434,434,434,433,433,433,433,433,426,392,373,359,357,356,355,355,354,351,345,329,321,313,301,285,228,199,172,156,153,153,153,151,146,143,142,141,136,130,122,112,105,100,93,90,89,89,89,89,89,89,89,89,89,89,89,89,89,89,89,89,89,89,89,89,89,89,89,89,89,89,89,89,89,89,90,90,89],"timestamp_mouse":[10,36,48,69,89,109,128,148,167,188,208,228,248,269,287,309,328,347,368,388,408,428,448,469,488,509,527,549,567,588,609,628,648,668,689,709,727,749,767,789,808,828,848,868,889,908,929,948,968,988,1009,1028,1048,1068,1089,1109,1128,1149,1169,1189,1208,1228,1248,1268,1288,1309,1327,1348,1368,1388,1408,1428,1448,1469,1489,1509,1527,1549,1569,1589,1609,1628,1649,1668,1688,1708,1728,1749],"xSR":741.5,"ySR":469.95,"xT1":424.9,"yT1":0,"xT2":1058.1,"yT2":0,"toosoon":0,"cond_shown":"equaldotsize","ratio_trial":250,"smaller_num":"2","larger_num":"8","correct_side":1,"subjID":"isabellarinconpinzon27","gender":"1","age":"9","school":"4"},{"start_time":1552074751204,"click_time":1552074752451,"finger_time":1552074751872,"fix_duration":250,"trial":10,"RT":668,"MT":579,"sideResp":1,"stimulus":"img/900/equaldotanddens/L/2_Ratio_900_L_20_R_18.png","xmouse":[809,809,809,809,809,809,805,796,795,795,795,795,795,795,795,793,791,791,791,791,791,791,791,790,780,766,762,762,762,762,762,756,749,729,716,716,716,716,716,716,716,716,716,716,717,719,719,714,694,687,681,673,663,639,629,620,614,608,589,579,566,539,507],"ymouse":[509,509,509,509,509,509,509,507,507,507,507,507,507,507,507,507,506,506,506,506,505,505,505,505,503,500,499,499,499,499,499,498,497,493,490,490,490,490,490,490,490,490,490,475,460,444,423,395,366,354,346,331,314,281,270,261,254,249,226,210,186,139,83],"timestamp_mouse":[9,28,51,68,87,108,127,148,167,188,208,227,248,267,288,308,327,347,367,388,408,428,447,466,487,508,527,548,567,587,614,627,647,668,686,707,727,747,768,786,806,828,847,868,887,907,926,947,967,987,1007,1027,1048,1068,1087,1107,1127,1148,1168,1186,1207,1234,1247],"xSR":741.5,"ySR":469.95,"xT1":424.9,"yT1":0,"xT2":1058.1,"yT2":0,"toosoon":0,"cond_shown":"equaldotanddens","ratio_trial":900,"smaller_num":"18","larger_num":"20","correct_side":1,"subjID":"isabellarinconpinzon27","gender":"1","age":"9","school":"4"},{"start_time":1552074760004,"click_time":1552074760691,"finger_time":1552074760491,"fix_duration":250,"trial":11,"RT":487,"MT":200,"sideResp":1,"stimulus":"img/250/equaldotanddens/R/4_Ratio_250_L_3_R_12.png","xmouse":[805,805,805,805,805,805,804,803,803,803,803,803,803,803,803,803,803,803,803,803,803,803,801,786,767,746,725,705,667,649,615,569,524,453,439],"ymouse":[548,548,548,548,548,547,547,547,547,547,547,547,547,547,547,547,553,554,554,554,554,554,546,510,469,427,397,376,339,319,279,223,176,111,97],"timestamp_mouse":[18,49,50,66,87,108,127,148,168,187,208,227,247,267,288,307,327,348,366,387,407,427,447,467,487,508,527,547,567,587,607,626,648,668,687],"xSR":741.5,"ySR":469.95,"xT1":424.9,"yT1":0,"xT2":1058.1,"yT2":0,"toosoon":0,"cond_shown":"equaldotanddens","ratio_trial":250,"smaller_num":"3","larger_num":"12","correct_side":2,"subjID":"isabellarinconpinzon27","gender":"1","age":"9","school":"4"},{"start_time":1552074765093,"click_time":1552074765771,"finger_time":1552074765411,"fix_duration":960.528782989077,"trial":12,"RT":318,"MT":360,"sideResp":2,"stimulus":"img/500/randomdotsizeEA/R/15_Ratio_500_L_1_R_2.png","xmouse":[808,808,808,808,808,808,808,808,808,808,808,808,808,808,808,810,821,846,882,977,1030,1050,1060,1076,1086,1099,1112,1124,1144,1147,1149,1149,1146,1132],"ymouse":[503,503,503,503,503,503,503,503,503,503,503,503,502,499,470,451,429,400,367,304,273,259,246,212,195,180,167,156,129,120,110,107,103,99],"timestamp_mouse":[18,45,59,78,98,119,139,159,178,199,218,238,258,277,298,318,339,359,378,398,417,438,458,478,498,517,539,559,579,597,618,638,658,678],"xSR":741.5,"ySR":469.95,"xT1":424.9,"yT1":0,"xT2":1058.1,"yT2":0,"toosoon":0,"cond_shown":"randomdotsizeEA","ratio_trial":500,"smaller_num":"1","larger_num":"2","correct_side":2,"subjID":"isabellarinconpinzon27","gender":"1","age":"9","school":"4"},{"start_time":1552074774513,"click_time":1552074775771,"finger_time":1552074774971,"fix_duration":619.9341251137471,"trial":13,"RT":458,"MT":800,"sideResp":2,"stimulus":"img/750/equaldotanddens/R/11_Ratio_750_L_12_R_16.png","xmouse":[822,822,822,822,822,822,822,822,822,822,822,822,822,822,822,822,822,822,822,822,822,824,824,842,852,863,874,887,917,937,957,971,981,987,987,987,985,984,983,983,983,983,983,989,1003,1024,1032,1032,1032,1032,1032,1032,1032,1032,1032,1139,1150,1155,1155,1155,1155,1157,1158,1158],"ymouse":[497,497,497,497,497,497,497,497,497,497,497,497,497,497,497,497,497,497,497,497,497,495,489,429,414,399,385,369,342,326,310,297,286,260,256,252,249,247,242,236,230,224,216,171,117,54,22,22,22,22,22,22,22,22,22,117,151,160,160,160,160,129,109,91],"timestamp_mouse":[1,18,42,58,78,99,118,138,158,179,198,219,238,257,278,299,319,338,357,379,398,419,438,458,479,498,518,537,558,578,598,619,638,659,678,698,718,739,758,778,798,817,838,858,878,898,919,939,959,978,999,1018,1038,1059,1078,1099,1119,1138,1158,1178,1198,1219,1238,1258],"xSR":741.5,"ySR":469.95,"xT1":424.9,"yT1":0,"xT2":1058.1,"yT2":0,"toosoon":0,"cond_shown":"equaldotanddens","ratio_trial":750,"smaller_num":"12","larger_num":"16","correct_side":2,"subjID":"isabellarinconpinzon27","gender":"1","age":"9","school":"4"},{"start_time":1552074777582,"click_time":1552074778432,"finger_time":1552074778071,"fix_duration":250,"trial":14,"RT":489,"MT":361,"sideResp":1,"stimulus":"img/900/randomdotsizeEA/R/12_Ratio_900_L_18_R_20.png","xmouse":[770,776,780,780,784,784,784,784,785,785,785,785,785,787,790,790,791,791,791,791,791,791,791,789,740,708,685,667,641,600,573,555,536,525,523,523,523,523,523,521,516,512,505],"ymouse":[553,529,514,514,500,500,500,501,502,502,502,502,502,510,518,522,523,523,523,523,523,523,508,493,392,352,334,317,294,262,239,222,197,180,172,168,166,165,162,156,123,104,90],"timestamp_mouse":[11,28,56,69,88,110,130,150,169,190,209,228,250,269,289,309,330,350,370,390,409,428,450,470,489,508,530,549,569,590,608,628,650,669,689,709,730,750,769,789,809,829,850],"xSR":741.5,"ySR":469.95,"xT1":424.9,"yT1":0,"xT2":1058.1,"yT2":0,"toosoon":0,"cond_shown":"randomdotsizeEA","ratio_trial":900,"smaller_num":"18","larger_num":"20","correct_side":2,"subjID":"isabellarinconpinzon27","gender":"1","age":"9","school":"4"},{"start_time":1552074779756,"click_time":1552074781212,"finger_time":1552074780171,"fix_duration":604.9486521591184,"trial":15,"RT":415,"MT":1041,"sideResp":2,"stimulus":"img/750/equaldotanddens/R/12_Ratio_750_L_3_R_4.png","xmouse":[809,808,808,808,808,808,808,808,808,807,802,799,795,794,794,793,793,793,792,794,820,836,851,858,862,864,864,865,867,876,905,929,987,1070,1171,1270,1372,1376,1373,1368,1316,1293,1275,1259,1242,1202,1188,1185,1185,1185,1185,1183,1180,1176,1173,1166,1164,1164,1164,1164,1163,1163,1163,1163,1163,1163,1163,1163,1163,1163,1163,1163,1157],"ymouse":[504,504,504,503,503,503,503,503,503,503,510,514,518,519,520,520,520,520,520,501,385,269,142,88,76,74,74,74,74,73,73,82,104,136,157,167,156,148,127,117,78,73,72,72,73,88,96,98,98,98,98,95,86,79,73,64,64,64,64,64,64,64,64,64,64,64,64,64,64,64,64,64,64],"timestamp_mouse":[16,46,54,75,96,114,135,156,174,196,215,235,256,275,296,315,335,355,376,395,415,435,455,476,495,515,536,555,575,595,616,634,656,675,695,715,735,756,775,796,815,835,855,875,896,916,935,955,976,995,1016,1036,1055,1075,1095,1115,1134,1156,1175,1196,1215,1236,1256,1275,1294,1314,1335,1355,1375,1395,1416,1435,1456],"xSR":741.5,"ySR":469.95,"xT1":424.9,"yT1":0,"xT2":1058.1,"yT2":0,"toosoon":0,"cond_shown":"equaldotanddens","ratio_trial":750,"smaller_num":"3","larger_num":"4","correct_side":2,"subjID":"isabellarinconpinzon27","gender":"1","age":"9","school":"4"},{"start_time":1552074818410,"click_time":1552074819172,"finger_time":1552074818652,"fix_duration":436.01194740034964,"trial":16,"RT":242,"MT":520,"sideResp":2,"stimulus":"img/250/equaldotsize/R/8_Ratio_250_L_1_R_4.png","xmouse":[807,807,811,811,811,811,811,811,817,828,837,840,845,859,864,864,864,864,866,866,866,866,866,868,881,902,911,922,1001,1046,1086,1107,1120,1125,1126,1127,1129,1129,1129],"ymouse":[513,513,525,525,525,525,525,525,506,479,477,478,492,528,538,539,539,539,539,539,539,539,539,539,537,533,528,517,395,332,275,238,218,205,202,194,172,137,15],"timestamp_mouse":[11,21,45,61,82,101,123,142,162,182,203,223,242,263,281,301,322,342,362,381,402,422,441,462,481,502,523,542,563,582,602,622,641,662,682,702,723,743,762],"xSR":741.5,"ySR":469.95,"xT1":424.9,"yT1":0,"xT2":1058.1,"yT2":0,"toosoon":0,"cond_shown":"equaldotsize","ratio_trial":250,"smaller_num":"1","larger_num":"4","correct_side":2,"subjID":"isabellarinconpinzon27","gender":"1","age":"9","school":"4"},{"start_time":1552074826424,"click_time":1552074827372,"finger_time":1552074826933,"fix_duration":250,"trial":17,"RT":509,"MT":439,"sideResp":1,"stimulus":"img/500/randomdotsizeEA/L/13_Ratio_500_L_12_R_6.png","xmouse":[808,808,808,808,808,808,808,808,808,808,808,808,808,808,808,808,808,808,808,808,808,808,808,814,821,834,854,942,991,1024,1040,1046,1054,1062,1071,1074,1074,1057,1040,1014,969,909,857,755,663,626,527,483],"ymouse":[492,492,492,492,492,492,492,492,492,492,492,492,492,492,492,492,492,492,492,492,492,492,488,481,475,468,458,408,382,366,356,351,342,324,286,260,230,202,185,168,150,133,116,93,78,73,60,53],"timestamp_mouse":[8,27,49,67,88,108,127,147,169,189,209,228,248,269,289,307,328,349,368,388,407,429,449,469,488,509,528,548,567,588,608,627,648,668,687,707,729,748,768,788,808,828,848,869,887,907,927,948],"xSR":741.5,"ySR":469.95,"xT1":424.9,"yT1":0,"xT2":1058.1,"yT2":0,"toosoon":0,"cond_shown":"randomdotsizeEA","ratio_trial":500,"smaller_num":"6","larger_num":"12","correct_side":1,"subjID":"isabellarinconpinzon27","gender":"1","age":"9","school":"4"},{"start_time":1552074844584,"click_time":1552074845372,"finger_time":1552074845091,"fix_duration":1310.6074489917432,"trial":18,"RT":507,"MT":281,"sideResp":2,"stimulus":"img/500/equaldotsize/R/3_Ratio_500_L_10_R_20.png","xmouse":[801,801,801,801,801,801,801,801,801,801,801,801,801,801,801,801,801,801,801,801,801,801,801,805,826,847,875,902,938,986,1000,1008,1013,1016,1018,1025,1031,1037,1056,1070],"ymouse":[503,503,503,503,503,503,503,503,503,503,503,503,503,503,503,503,503,503,503,503,503,503,503,497,471,443,406,359,286,166,129,104,90,82,77,60,50,44,40,40],"timestamp_mouse":[10,29,53,67,88,108,128,147,169,188,208,227,249,269,289,307,328,349,369,388,407,429,447,468,489,507,527,548,567,588,607,627,647,668,688,708,728,748,769,788],"xSR":741.5,"ySR":469.95,"xT1":424.9,"yT1":0,"xT2":1058.1,"yT2":0,"toosoon":0,"cond_shown":"equaldotsize","ratio_trial":500,"smaller_num":"10","larger_num":"20","correct_side":2,"subjID":"isabellarinconpinzon27","gender":"1","age":"9","school":"4"},{"start_time":1552074849538,"click_time":1552074850452,"finger_time":1552074849912,"fix_duration":864.3545451704015,"trial":19,"RT":374,"MT":540,"sideResp":1,"stimulus":"img/500/equaldotanddens/L/13_Ratio_500_L_12_R_6.png","xmouse":[788,788,788,788,788,788,788,788,788,788,788,787,787,786,784,783,777,766,751,737,721,672,655,644,640,639,650,672,691,706,714,691,663,628,600,584,577,577,577,577,577,577,577,566,535,478],"ymouse":[513,513,513,513,513,513,513,513,513,513,513,512,512,511,509,504,491,476,461,449,443,419,405,395,391,391,385,377,360,329,299,199,163,134,113,105,95,94,93,93,93,93,93,89,84,78],"timestamp_mouse":[15,35,54,75,94,114,135,155,175,194,214,234,255,275,294,315,334,354,374,394,415,434,454,474,494,514,535,555,574,595,614,635,654,674,694,715,734,754,774,794,815,835,854,875,894,914],"xSR":741.5,"ySR":469.95,"xT1":424.9,"yT1":0,"xT2":1058.1,"yT2":0,"toosoon":0,"cond_shown":"equaldotanddens","ratio_trial":500,"smaller_num":"6","larger_num":"12","correct_side":1,"subjID":"isabellarinconpinzon27","gender":"1","age":"9","school":"4"},{"start_time":1552074853506,"click_time":1552074854934,"finger_time":1552074853972,"fix_duration":690.5021953148072,"trial":20,"RT":466,"MT":962,"sideResp":1,"stimulus":"img/750/equaldotanddens/R/2_Ratio_750_L_6_R_8.png","xmouse":[804,804,804,804,804,804,804,804,804,804,804,804,804,804,804,804,804,804,804,804,803,802,802,802,802,802,801,800,797,797,797,797,797,797,797,796,796,796,796,796,796,797,798,800,803,811,820,833,850,851,851,851,851,837,813,778,734,687,594,574,568,566,565,561,559,555,541,533,526,523,521,518],"ymouse":[542,542,542,542,542,542,542,542,542,542,542,542,542,542,542,542,542,542,549,554,559,563,567,570,570,570,570,570,570,570,570,570,570,570,570,569,568,567,565,565,565,565,564,564,563,555,544,527,484,481,481,481,481,474,464,441,411,375,303,287,281,279,274,252,231,207,165,137,115,106,100,93],"timestamp_mouse":[9,40,46,66,86,107,127,146,166,186,206,227,247,266,287,306,326,346,366,387,407,427,446,466,487,507,526,546,567,586,606,627,647,666,687,706,727,746,766,786,807,827,848,867,887,907,927,946,968,986,1007,1027,1046,1067,1086,1106,1126,1146,1166,1186,1206,1226,1246,1266,1288,1307,1327,1346,1367,1386,1406,1427],"xSR":741.5,"ySR":469.95,"xT1":424.9,"yT1":0,"xT2":1058.1,"yT2":0,"toosoon":0,"cond_shown":"equaldotanddens","ratio_trial":750,"smaller_num":"6","larger_num":"8","correct_side":2,"subjID":"isabellarinconpinzon27","gender":"1","age":"9","school":"4"},{"start_time":1552074866975,"click_time":1552074867793,"finger_time":1552074867632,"fix_duration":681.5235185673581,"trial":21,"RT":657,"MT":161,"sideResp":1,"stimulus":"img/500/equaldotsize/L/11_Ratio_500_L_12_R_6.png","xmouse":[767,767,767,767,767,767,767,767,767,767,768,769,770,770,770,770,770,770,770,770,770,770,770,770,770,770,770,770,770,770,770,760,725,680,541,499,479,473,471,469,465],"ymouse":[541,541,541,541,541,541,541,541,541,541,541,541,541,540,540,540,540,540,540,540,540,540,540,540,540,540,540,540,540,540,523,483,410,337,205,174,158,154,147,105,77],"timestamp_mouse":[20,43,58,78,97,117,137,158,178,198,218,238,257,278,297,317,338,357,377,397,418,437,458,477,498,517,538,557,577,598,618,637,657,677,698,717,737,758,778,797,818],"xSR":741.5,"ySR":469.95,"xT1":424.9,"yT1":0,"xT2":1058.1,"yT2":0,"toosoon":0,"cond_shown":"equaldotsize","ratio_trial":500,"smaller_num":"6","larger_num":"12","correct_side":1,"subjID":"isabellarinconpinzon27","gender":"1","age":"9","school":"4"},{"start_time":1552074869897,"click_time":1552074870772,"finger_time":1552074870152,"fix_duration":1042.4700238094024,"trial":22,"RT":255,"MT":620,"sideResp":1,"stimulus":"img/900/equaldotanddens/L/1_Ratio_900_L_10_R_9.png","xmouse":[768,767,766,765,765,765,765,765,765,762,757,744,740,738,738,738,738,738,738,738,738,737,732,708,682,652,620,591,498,458,433,414,406,406,406,406,406,406,406,406,406,412,421,429],"ymouse":[533,533,533,534,534,534,534,534,534,534,534,534,533,533,533,533,533,533,533,533,533,533,519,482,457,431,405,374,269,212,164,121,93,88,88,88,88,88,88,88,87,82,76,66],"timestamp_mouse":[15,35,55,75,95,115,136,157,175,196,216,236,255,275,295,316,336,356,375,396,416,435,456,475,495,516,535,555,575,595,616,636,656,675,695,715,735,755,776,796,816,835,856,875],"xSR":741.5,"ySR":469.95,"xT1":424.9,"yT1":0,"xT2":1058.1,"yT2":0,"toosoon":0,"cond_shown":"equaldotanddens","ratio_trial":900,"smaller_num":"9","larger_num":"10","correct_side":1,"subjID":"isabellarinconpinzon27","gender":"1","age":"9","school":"4"},{"start_time":1552074873445,"click_time":1552074874392,"finger_time":1552074874052,"fix_duration":250,"trial":23,"RT":607,"MT":340,"sideResp":1,"stimulus":"img/500/equaldotanddens/L/11_Ratio_500_L_12_R_6.png","xmouse":[775,774,774,774,774,774,774,774,774,774,774,774,774,774,774,774,774,774,774,774,774,774,774,774,774,774,774,774,783,805,847,937,977,1004,1021,1021,1003,980,939,873,787,629,580,560,550,550,539,522],"ymouse":[522,522,522,522,522,522,522,522,522,522,522,522,522,522,522,522,522,522,522,522,522,522,522,522,522,522,522,522,514,499,467,357,293,231,185,177,150,143,136,128,115,91,79,75,72,72,67,60],"timestamp_mouse":[8,28,58,68,87,107,128,147,167,187,208,228,248,268,287,307,327,347,368,387,408,427,447,468,487,508,527,547,568,587,607,628,647,667,687,707,728,748,767,788,807,828,847,867,887,908,928,947],"xSR":741.5,"ySR":469.95,"xT1":424.9,"yT1":0,"xT2":1058.1,"yT2":0,"toosoon":0,"cond_shown":"equaldotanddens","ratio_trial":500,"smaller_num":"6","larger_num":"12","correct_side":1,"subjID":"isabellarinconpinzon27","gender":"1","age":"9","school":"4"},{"start_time":1552074875466,"click_time":1552074878473,"finger_time":1552074875872,"fix_duration":393.5297904206836,"trial":24,"RT":406,"MT":2601,"sideResp":2,"stimulus":"img/500/randomdotsizeEA/R/9_Ratio_500_L_2_R_4.png","xmouse":[773,773,773,773,773,773,773,773,773,773,773,773,773,773,773,773,773,773,766,754,690,687,687,687,687,687,687,690,691,691,692,692,692,692,692,692,702,708,713,715,720,722,724,726,727,730,732,735,737,739,740,740,742,745,745,745,745,745,745,754,754,755,755,755,755,755,756,757,757,758,759,763,765,765,765,766,766,766,766,766,766,766,769,788,829,849,849,849,850,850,850,851,851,853,853,853,853,853,853,853,844,832,817,804,793,789,779,775,770,769,770,778,782,785,787,788,792,795,798,798,798,798,798,791,781,746,742,742,742,746,769,794,840,887,910,917,921,936,956,972,986,988,991,998,1016,1025,1049,1068,1080,1086,1099],"ymouse":[524,524,524,524,524,524,524,524,524,524,524,524,524,524,524,524,524,524,525,525,543,553,566,566,566,566,566,560,559,559,563,565,566,571,571,571,599,613,621,627,651,655,656,656,656,652,644,641,636,633,631,631,631,631,631,631,631,631,631,640,640,641,641,641,641,641,643,645,648,656,670,692,701,702,702,702,702,702,702,702,702,702,701,689,671,664,664,664,664,664,664,664,666,672,672,672,672,679,675,647,575,543,516,498,492,493,539,587,619,633,636,627,612,596,584,577,548,526,509,502,499,494,482,462,440,375,365,359,351,338,310,293,265,239,224,216,213,207,201,195,186,185,179,173,163,157,140,129,120,112,76],"timestamp_mouse":[8,33,46,66,87,107,127,148,166,187,208,227,246,266,287,306,327,347,366,386,406,426,446,466,486,507,527,547,567,587,606,626,646,666,686,706,727,747,767,786,806,826,846,867,887,906,928,946,967,987,1007,1026,1046,1067,1086,1106,1127,1148,1166,1186,1206,1227,1246,1266,1286,1306,1326,1346,1367,1386,1406,1427,1447,1467,1486,1507,1527,1546,1566,1587,1606,1627,1646,1667,1686,1706,1726,1746,1766,1787,1806,1827,1846,1866,1887,1906,1926,1946,1966,1987,2007,2027,2046,2067,2086,2106,2126,2147,2167,2186,2206,2226,2246,2267,2286,2306,2327,2347,2367,2386,2406,2427,2447,2467,2487,2506,2527,2547,2566,2587,2606,2626,2646,2666,2686,2706,2727,2746,2766,2786,2806,2826,2846,2867,2886,2906,2927,2946,2966,2986,3007],"xSR":741.5,"ySR":469.95,"xT1":424.9,"yT1":0,"xT2":1058.1,"yT2":0,"toosoon":0,"cond_shown":"randomdotsizeEA","ratio_trial":500,"smaller_num":"2","larger_num":"4","correct_side":2,"subjID":"isabellarinconpinzon27","gender":"1","age":"9","school":"4"},{"start_time":1552074880756,"click_time":1552074882353,"finger_time":1552074882092,"fix_duration":1241.815840176427,"trial":25,"RT":1336,"MT":261,"sideResp":2,"stimulus":"img/250/equaldotsize/L/5_Ratio_250_L_24_R_6.png","xmouse":[768,768,768,768,768,768,768,768,768,768,768,768,768,768,768,768,768,768,768,768,768,768,768,768,768,768,768,768,768,768,769,769,771,772,772,772,773,775,775,775,775,775,775,776,776,771,767,765,765,765,765,765,765,765,765,765,766,767,768,769,769,769,769,771,773,778,783,788,795,807,830,841,858,874,909,1045,1087,1105,1110,1110],"ymouse":[498,498,498,498,498,498,498,498,498,498,498,498,498,498,498,498,498,498,498,498,498,498,497,497,497,497,497,497,497,497,497,497,497,497,497,497,497,497,497,497,497,497,497,498,500,511,520,525,525,525,525,525,525,525,525,525,517,514,511,510,510,509,505,499,494,478,465,452,436,408,358,339,318,303,271,173,143,129,116,98],"timestamp_mouse":[16,37,57,77,96,116,137,157,177,197,216,236,256,277,296,318,336,356,377,397,416,436,456,476,496,517,536,556,576,596,616,638,656,676,696,716,738,757,776,796,817,837,856,877,896,916,936,957,977,996,1016,1036,1057,1077,1097,1116,1136,1157,1177,1197,1216,1237,1257,1277,1297,1316,1336,1358,1377,1396,1416,1436,1456,1477,1496,1516,1536,1556,1576,1597],"xSR":741.5,"ySR":469.95,"xT1":424.9,"yT1":0,"xT2":1058.1,"yT2":0,"toosoon":0,"cond_shown":"equaldotsize","ratio_trial":250,"smaller_num":"6","larger_num":"24","correct_side":1,"subjID":"isabellarinconpinzon27","gender":"1","age":"9","school":"4"},{"start_time":1552074887123,"click_time":1552074887832,"finger_time":1552074887132,"fix_duration":250,"trial":26,"RT":9,"MT":700,"sideResp":1,"stimulus":"img/900/equaldotanddens/R/14_Ratio_900_L_18_R_20.png","xmouse":[736,678,678,565,551,545,545,545,543,542,536,520,505,469,457,455,455,455,455,455,455,455,455,457,475,496,522,568,581,590,594,597,590,567,537,514],"ymouse":[466,411,411,377,375,373,373,373,371,368,361,343,326,303,294,294,294,294,294,294,294,294,294,285,272,253,233,206,196,186,179,161,128,106,81,60],"timestamp_mouse":[9,40,50,70,89,110,129,149,169,190,210,229,249,269,289,310,330,349,369,390,410,429,449,469,490,509,529,550,569,589,610,630,649,669,691,709],"xSR":741.5,"ySR":469.95,"xT1":424.9,"yT1":0,"xT2":1058.1,"yT2":0,"toosoon":0,"cond_shown":"equaldotanddens","ratio_trial":900,"smaller_num":"18","larger_num":"20","correct_side":2,"subjID":"isabellarinconpinzon27","gender":"1","age":"9","school":"4"},{"start_time":1552074922393,"click_time":1552074924792,"finger_time":1552074923034,"fix_duration":1277.5160583488898,"trial":27,"RT":641,"MT":1758,"sideResp":1,"stimulus":"img/750/randomdotsizeEA/L/10_Ratio_750_L_4_R_3.png","xmouse":[771,771,771,771,771,771,771,771,771,771,771,771,771,771,771,771,771,771,771,771,771,771,772,772,772,772,772,772,772,768,756,742,735,729,725,725,725,725,725,725,727,728,728,728,728,728,728,728,728,729,733,736,740,741,744,747,751,757,767,774,780,781,784,787,793,793,793,793,793,793,793,793,793,793,793,793,793,792,790,779,772,767,763,762,759,759,757,752,737,688,640,581,520,458,367,336,314,300,300,300,300,300,300,300,300,300,300,300,300,401,409,409,409,409,403,400,400,400,400,409,426],"ymouse":[488,488,488,488,489,489,489,489,489,489,489,489,489,489,489,489,489,489,489,489,489,489,485,481,473,472,472,472,472,480,493,511,534,554,584,590,591,591,591,591,585,581,579,579,579,579,579,579,578,578,578,577,577,576,576,576,576,577,577,580,584,585,589,593,601,602,602,602,602,602,602,602,602,602,602,602,602,602,602,602,602,602,602,603,604,603,601,598,582,524,475,412,342,272,129,78,39,2,2,2,2,2,2,2,2,2,2,2,2,73,84,85,85,85,64,54,54,54,54,48,44],"timestamp_mouse":[9,20,39,60,79,99,119,141,160,179,201,220,241,260,280,299,319,340,360,380,401,419,439,460,479,500,519,541,561,579,600,621,641,659,679,699,720,740,759,779,800,821,840,861,881,900,919,940,960,979,1001,1019,1040,1060,1079,1101,1120,1140,1159,1179,1201,1220,1241,1260,1280,1299,1320,1340,1359,1379,1401,1420,1440,1459,1479,1500,1520,1540,1560,1579,1600,1621,1640,1661,1680,1699,1719,1740,1759,1780,1800,1819,1839,1860,1880,1900,1919,1939,1959,1979,1999,2021,2040,2060,2079,2100,2121,2140,2160,2179,2200,2220,2241,2260,2280,2299,2320,2340,2360,2380,2399],"xSR":741.5,"ySR":469.95,"xT1":424.9,"yT1":0,"xT2":1058.1,"yT2":0,"toosoon":0,"cond_shown":"randomdotsizeEA","ratio_trial":750,"smaller_num":"3","larger_num":"4","correct_side":1,"subjID":"isabellarinconpinzon27","gender":"1","age":"9","school":"4"},{"start_time":1552074926313,"click_time":1552074926973,"finger_time":1552074926413,"fix_duration":817.4072561210985,"trial":28,"RT":100,"MT":560,"sideResp":2,"stimulus":"img/750/equaldotsize/L/9_Ratio_750_L_4_R_3.png","xmouse":[841,841,841,841,841,842,842,842,842,842,842,842,842,842,842,849,865,882,933,958,974,988,1005,1015,1027,1032,1034,1035,1035,1035,1035,1038,1049,1070],"ymouse":[525,525,525,525,525,524,524,524,524,523,523,523,523,513,497,469,419,357,204,154,128,108,83,71,49,38,33,30,29,29,29,31,55,86],"timestamp_mouse":[9,19,42,60,80,100,119,140,160,180,200,219,240,259,280,300,321,340,360,379,400,419,439,459,480,499,520,540,561,581,600,619,639,659],"xSR":741.5,"ySR":469.95,"xT1":424.9,"yT1":0,"xT2":1058.1,"yT2":0,"toosoon":0,"cond_shown":"equaldotsize","ratio_trial":750,"smaller_num":"3","larger_num":"4","correct_side":1,"subjID":"isabellarinconpinzon27","gender":"1","age":"9","school":"4"},{"start_time":1552074944906,"click_time":1552074945433,"finger_time":1552074945314,"fix_duration":1212.7031777702543,"trial":29,"RT":408,"MT":119,"sideResp":1,"stimulus":"img/900/randomdotsizeEA/L/10_Ratio_900_L_20_R_18.png","xmouse":[779,777,777,777,777,777,777,777,777,777,777,777,777,776,776,776,776,776,779,792,808,813,796,692,611,535,468],"ymouse":[524,523,523,523,523,523,523,523,523,523,523,523,523,522,522,522,522,522,510,487,450,406,332,202,150,114,86],"timestamp_mouse":[11,31,48,68,88,107,126,146,167,186,207,226,246,267,287,308,326,347,367,387,408,428,447,467,486,507,527],"xSR":741.5,"ySR":469.95,"xT1":424.9,"yT1":0,"xT2":1058.1,"yT2":0,"toosoon":0,"cond_shown":"randomdotsizeEA","ratio_trial":900,"smaller_num":"18","larger_num":"20","correct_side":1,"subjID":"isabellarinconpinzon27","gender":"1","age":"9","school":"4"},{"start_time":1552074949126,"click_time":1552074950332,"finger_time":1552074949433,"fix_duration":1471.2437175564614,"trial":30,"RT":307,"MT":899,"sideResp":2,"stimulus":"img/900/equaldotanddens/R/3_Ratio_900_L_9_R_10.png","xmouse":[840,839,838,838,838,838,838,838,838,838,838,838,838,838,841,844,854,889,908,921,934,943,968,981,995,1009,1022,1037,1042,1044,1045,1047,1047,1047,1047,1047,1047,1047,1047,1049,1063,1092,1105,1106,1106,1106,1106,1106,1106,1103,1099,1094,1082,1082,1082,1082,1087,1094,1102,1108,1111],"ymouse":[540,540,540,540,540,540,540,540,540,540,540,540,540,540,540,540,534,486,445,420,387,368,328,299,250,203,162,110,98,94,90,87,84,84,84,84,85,95,98,100,101,101,101,101,100,100,100,100,100,105,132,205,280,291,291,291,248,201,141,116,85],"timestamp_mouse":[9,27,47,67,87,106,127,148,166,187,206,227,247,267,288,307,327,347,366,387,406,426,447,467,488,507,527,547,566,586,607,627,647,668,687,707,728,746,766,786,806,827,847,866,886,906,926,946,967,987,1007,1028,1047,1068,1087,1107,1127,1146,1166,1187,1206],"xSR":741.5,"ySR":469.95,"xT1":424.9,"yT1":0,"xT2":1058.1,"yT2":0,"toosoon":0,"cond_shown":"equaldotanddens","ratio_trial":900,"smaller_num":"9","larger_num":"10","correct_side":2,"subjID":"isabellarinconpinzon27","gender":"1","age":"9","school":"4"},{"start_time":1552074952022,"click_time":1552074961792,"finger_time":1552074952353,"fix_duration":1087.8419735282962,"trial":31,"RT":331,"MT":9439,"sideResp":1,"stimulus":"img/750/equaldotsize/L/6_Ratio_750_L_24_R_18.png","xmouse":[805,805,805,805,805,805,805,807,808,809,809,809,814,819,826,834,846,850,850,850,851,851,851,850,854,858,875,891,899,917,950,1001,1143,1220,1220,1220,1220,1220,1220,1220,1220,1220,1220,1220,1220,1220,1220,1220,1220,1220,1220,1220,1406,1398,1394,1392,1388,1385,1385,1384,1379,1378,1378,1378,1378,1378,1378,1378,1378,1378,1378,1378,1378,1378,1378,1378,1378,1378,1378,1373,1365,1352,1334,1277,1237,1226,1202,1192,1191,1191,1191,1191,1189,1186,1184,1180,1179,1176,1176,1176,1176,1176,1174,1174,1173,1173,1173,1172,1172,1172,1172,1172,1172,1172,1173,1175,1176,1184,1190,1194,1198,1202,1206,1207,1207,1207,1208,1208,1208,1208,1208,1208,1208,1208,1208,1208,1208,1208,1208,1208,1209,1213,1240,1254,1263,1264,1264,1264,1264,1264,1264,1264,1264,1264,1264,1264,1264,1264,1264,1264,1264,1264,1264,1264,1264,1264,1264,1264,1264,1264,1264,1264,1264,1264,1264,1264,1264,1264,1264,1264,1264,1264,1264,1264,1264,1264,1264,1264,1264,1264,1264,1264,1264,1264,1264,1264,1264,1264,1264,1264,1264,1262,1247,1242,1240,1238,1237,1231,1231,1230,1230,1230,1228,1226,1224,1222,1219,1218,1216,1216,1216,1216,1215,1215,1215,1215,1215,1215,1215,1215,1215,1215,1215,1215,1215,1215,1215,1215,1215,1215,1215,1215,1215,1215,1215,1215,1215,1215,1215,1215,1215,1215,1215,1215,1215,1215,1215,1215,1215,1215,1215,1215,1215,1215,1215,1215,1215,1215,1220,1222,1224,1225,1225,1225,1225,1226,1226,1226,1226,1226,1226,1226,1226,1226,1226,1227,1227,1227,1227,1227,1227,1227,1227,1227,1227,1227,1227,1227,1227,1227,1227,1227,1227,1227,1227,1227,1227,1227,1227,1227,1227,1227,1227,1227,1228,1228,1228,1228,1228,1228,1228,1228,1228,1228,1228,1228,1228,1228,1228,1228,1228,1228,1228,1228,1228,1228,1228,1228,1228,1228,1228,1228,1228,1228,1228,1228,1228,1228,1228,1228,1228,1228,1228,1228,1228,1228,1228,1228,1228,1228,1228,1228,1228,1228,1228,1228,1228,1228,1228,1228,1228,1228,1228,1228,1228,1228,1228,1228,1228,1228,1228,1228,1228,1228,1228,1228,1228,1228,1228,1228,1228,1228,1228,1228,1228,1228,1228,1227,1226,1225,1225,1225,1225,1228,1233,1235,1235,1235,1235,1235,1235,1234,1233,1233,1233,1233,1233,1233,1233,1233,1233,1233,1226,1218,1213,1213,1213,1213,1213,1213,1212,1210,1189,1172,1150,1146,1129,1100,1082,1064,1044,1020,972,954,937,920,904,854,828,803,746,643,346,197,86,25,1,5,75,132,179,200,218,237,254,262,262,262,262,267,282,323,514,660,823,990,1156,1188,1153,1059,931,776,561,524,522,522,520,503,479],"ymouse":[529,529,529,529,529,529,529,529,529,529,529,529,529,528,528,528,528,528,528,528,528,528,529,532,537,540,553,557,557,556,556,556,609,654,654,654,654,654,654,654,654,654,654,654,654,654,654,654,654,654,654,654,688,677,674,674,674,674,674,674,676,677,677,677,677,677,677,677,677,677,677,677,677,677,677,677,677,677,677,677,678,680,681,677,664,658,646,642,642,642,642,642,641,637,632,627,626,620,619,618,617,615,610,607,605,604,604,603,601,600,598,596,592,588,584,580,575,561,553,547,540,532,525,524,524,523,521,521,521,521,520,520,520,520,520,520,520,520,520,520,520,515,500,493,488,488,488,488,488,488,488,488,488,488,488,488,488,488,488,488,488,488,488,488,488,488,488,488,488,488,488,488,488,488,488,488,488,491,493,494,497,497,501,502,503,505,509,511,511,511,512,513,513,513,513,513,513,513,513,513,515,523,540,543,544,545,545,548,548,548,548,548,548,549,551,553,557,559,563,563,563,563,563,563,563,563,563,563,563,563,563,563,563,563,563,563,563,563,563,563,563,563,563,563,563,563,563,563,563,567,568,569,569,569,569,569,569,569,570,571,572,573,573,573,573,573,573,573,582,584,586,587,588,588,588,588,588,588,588,588,588,588,588,588,588,589,589,589,589,589,589,589,589,589,589,589,589,589,589,589,589,589,589,589,589,589,589,589,589,589,589,589,589,589,589,589,589,589,589,589,589,589,589,589,589,589,589,589,589,589,589,589,589,589,589,589,589,589,589,589,589,589,589,589,589,589,589,589,589,589,589,589,589,589,589,589,589,589,589,589,589,589,589,589,589,589,589,589,589,589,589,589,589,589,589,589,589,589,589,589,589,589,589,589,589,589,589,589,589,589,589,589,589,589,589,589,591,597,600,602,602,602,602,597,587,585,585,585,585,588,591,596,603,606,608,611,613,618,619,620,620,621,642,656,664,665,665,665,665,665,667,668,680,689,692,692,696,701,701,701,701,698,685,676,669,663,659,647,639,633,629,627,589,563,531,498,465,450,386,359,350,350,341,325,307,296,296,296,296,305,324,353,429,456,458,433,383,332,283,227,185,157,149,146,147,147,146,117,97],"timestamp_mouse":[12,34,52,70,90,111,132,151,172,190,210,230,251,271,291,310,331,350,372,391,411,430,450,470,490,511,532,551,571,591,611,631,651,671,691,711,731,751,771,790,810,830,851,870,890,911,931,950,970,990,1012,1032,1051,1072,1092,1111,1130,1151,1170,1191,1211,1231,1251,1272,1292,1310,1331,1350,1371,1390,1410,1431,1450,1470,1492,1512,1532,1551,1572,1591,1611,1630,1651,1671,1690,1711,1731,1751,1770,1791,1810,1831,1851,1870,1890,1911,1931,1951,1971,1990,2011,2031,2052,2072,2092,2111,2132,2151,2171,2191,2211,2230,2250,2271,2291,2311,2331,2351,2371,2390,2412,2431,2451,2470,2490,2511,2530,2551,2572,2592,2611,2631,2653,2670,2690,2711,2731,2751,2772,2791,2812,2832,2850,2870,2890,2910,2931,2951,2970,2990,3011,3030,3051,3072,3091,3111,3130,3150,3171,3191,3211,3231,3250,3271,3291,3311,3331,3351,3372,3401,3410,3431,3450,3472,3491,3510,3531,3550,3571,3591,3611,3630,3651,3672,3690,3711,3730,3750,3770,3791,3811,3830,3850,3870,3891,3910,3932,3951,3972,3991,4011,4030,4050,4070,4090,4111,4131,4150,4170,4191,4211,4231,4250,4272,4291,4311,4331,4350,4371,4391,4411,4431,4451,4471,4491,4510,4531,4551,4571,4591,4611,4631,4650,4671,4690,4711,4731,4750,4771,4791,4812,4831,4850,4871,4890,4910,4930,4950,4970,4992,5010,5032,5051,5072,5091,5111,5131,5151,5170,5191,5211,5232,5252,5272,5292,5310,5331,5350,5371,5391,5410,5430,5451,5471,5491,5510,5530,5551,5571,5592,5611,5631,5651,5670,5691,5710,5731,5751,5771,5791,5810,5831,5851,5872,5891,5911,5931,5952,5971,5992,6011,6032,6052,6071,6091,6111,6131,6151,6171,6191,6211,6231,6251,6270,6291,6311,6331,6351,6371,6391,6410,6430,6450,6470,6491,6511,6532,6552,6571,6591,6611,6631,6651,6671,6691,6711,6730,6751,6771,6790,6811,6831,6850,6871,6891,6911,6930,6950,6971,6991,7011,7030,7050,7070,7091,7110,7132,7150,7170,7191,7211,7231,7250,7270,7291,7310,7331,7351,7371,7392,7411,7431,7450,7470,7490,7511,7530,7551,7570,7591,7611,7631,7652,7672,7691,7711,7731,7750,7770,7792,7811,7831,7850,7870,7890,7910,7930,7950,7971,7990,8011,8030,8051,8070,8092,8112,8132,8151,8171,8190,8210,8231,8250,8270,8291,8311,8331,8351,8371,8390,8410,8431,8450,8470,8490,8510,8530,8551,8571,8591,8610,8631,8651,8671,8691,8711,8731,8750,8770,8791,8812,8831,8851,8870,8890,8911,8932,8950,8970,8992,9012,9030,9051,9070,9091,9111,9131,9150,9171,9190,9211,9231,9250,9271,9292,9311,9330,9351,9371,9390,9411,9432,9450,9471,9490,9510,9530,9550,9570,9591,9612,9632,9651,9670,9691,9710,9731,9750,9770],"xSR":741.5,"ySR":469.95,"xT1":424.9,"yT1":0,"xT2":1058.1,"yT2":0,"toosoon":0,"cond_shown":"equaldotsize","ratio_trial":750,"smaller_num":"18","larger_num":"24","correct_side":1,"subjID":"isabellarinconpinzon27","gender":"1","age":"9","school":"4"},{"start_time":1552074963760,"click_time":1552074964813,"finger_time":1552074964154,"fix_duration":386.4083266431464,"trial":32,"RT":394,"MT":659,"sideResp":2,"stimulus":"img/500/equaldotanddens/R/15_Ratio_500_L_1_R_2.png","xmouse":[776,776,776,776,776,776,776,776,776,776,776,776,777,778,778,778,778,778,778,778,696,630,587,563,549,544,544,544,549,591,748,854,957,1046,1085,1099,1099,1100,1100,1100,1097,1095,1093,1091,1091,1096,1100,1102,1103,1103,1103,1103,1103],"ymouse":[493,493,491,489,482,478,478,478,478,478,478,478,478,478,478,478,478,478,475,466,329,239,191,180,170,150,143,141,139,139,184,214,230,239,239,236,233,228,224,222,210,200,191,181,170,157,152,150,148,147,133,120,90],"timestamp_mouse":[13,36,53,73,93,113,133,152,174,193,212,234,253,273,292,312,332,354,372,394,412,432,452,473,492,512,533,552,573,594,614,633,653,674,693,712,733,754,773,792,812,833,853,874,894,912,934,952,972,992,1012,1033,1053],"xSR":741.5,"ySR":469.95,"xT1":424.9,"yT1":0,"xT2":1058.1,"yT2":0,"toosoon":0,"cond_shown":"equaldotanddens","ratio_trial":500,"smaller_num":"1","larger_num":"2","correct_side":2,"subjID":"isabellarinconpinzon27","gender":"1","age":"9","school":"4"},{"start_time":1552074967706,"click_time":1552074968954,"finger_time":1552074968093,"fix_duration":532.2682201602548,"trial":33,"RT":387,"MT":861,"sideResp":2,"stimulus":"img/500/randomdotsizeEA/L/8_Ratio_500_L_8_R_4.png","xmouse":[755,755,755,755,755,755,755,755,755,755,755,755,755,755,755,755,755,761,770,774,778,779,779,781,787,819,905,1013,1160,1187,1191,1191,1191,1174,1155,1143,1137,1137,1137,1137,1136,1144,1192,1250,1250,1250,1250,1250,1250,1250,1250,1250,1250,1250,1250,1250,1202,1185,1138,1126,1126,1132,1142],"ymouse":[511,511,511,511,511,511,511,511,511,511,511,511,511,511,511,511,511,504,481,464,450,425,405,360,333,285,228,198,169,158,156,156,156,154,151,150,149,149,149,149,148,146,130,23,23,23,23,23,23,23,23,23,23,23,23,23,5,91,140,140,129,109,88],"timestamp_mouse":[25,27,48,67,87,106,128,146,167,188,207,227,247,268,287,308,326,347,367,387,407,427,446,466,487,507,528,546,567,586,606,628,647,666,688,707,726,747,766,787,806,828,848,866,886,907,927,947,968,986,1006,1027,1047,1066,1087,1106,1128,1147,1166,1186,1206,1226,1248],"xSR":741.5,"ySR":469.95,"xT1":424.9,"yT1":0,"xT2":1058.1,"yT2":0,"toosoon":0,"cond_shown":"randomdotsizeEA","ratio_trial":500,"smaller_num":"4","larger_num":"8","correct_side":1,"subjID":"isabellarinconpinzon27","gender":"1","age":"9","school":"4"},{"start_time":1552074974785,"click_time":1552074975253,"finger_time":1552074975112,"fix_duration":250,"trial":34,"RT":327,"MT":141,"sideResp":1,"stimulus":"img/250/equaldotanddens/L/5_Ratio_250_L_24_R_6.png","xmouse":[781,781,781,781,781,781,781,782,782,782,782,782,782,782,764,756,754,753,753,753,750,715,634,482],"ymouse":[529,529,528,525,523,523,522,522,522,522,522,522,522,518,490,477,468,464,455,406,337,246,133,9],"timestamp_mouse":[8,27,48,68,88,107,128,148,169,187,208,228,248,269,288,308,327,347,368,387,407,429,448,468],"xSR":741.5,"ySR":469.95,"xT1":424.9,"yT1":0,"xT2":1058.1,"yT2":0,"toosoon":0,"cond_shown":"equaldotanddens","ratio_trial":250,"smaller_num":"6","larger_num":"24","correct_side":1,"subjID":"isabellarinconpinzon27","gender":"1","age":"9","school":"4"},{"start_time":1552074983025,"click_time":1552074983674,"finger_time":1552074983434,"fix_duration":250,"trial":35,"RT":409,"MT":240,"sideResp":1,"stimulus":"img/250/equaldotanddens/L/2_Ratio_250_L_16_R_4.png","xmouse":[807,807,807,807,807,807,807,807,807,807,807,807,807,807,807,807,807,801,794,782,750,689,540,502,490,487,479,473,470,465,458,452,446],"ymouse":[519,519,519,519,519,519,519,519,519,519,519,519,519,519,519,519,519,513,497,476,440,380,240,207,185,180,168,153,146,137,124,114,98],"timestamp_mouse":[9,34,48,69,90,108,129,149,168,188,209,228,248,268,288,309,329,348,369,389,409,428,449,468,488,508,529,548,569,588,609,628,649],"xSR":741.5,"ySR":469.95,"xT1":424.9,"yT1":0,"xT2":1058.1,"yT2":0,"toosoon":0,"cond_shown":"equaldotanddens","ratio_trial":250,"smaller_num":"4","larger_num":"16","correct_side":1,"subjID":"isabellarinconpinzon27","gender":"1","age":"9","school":"4"},{"start_time":1552074989776,"click_time":1552074992493,"finger_time":1552074990034,"fix_duration":579.180663819997,"trial":36,"RT":258,"MT":2459,"sideResp":1,"stimulus":"img/250/equaldotsize/R/12_Ratio_250_L_5_R_20.png","xmouse":[782,782,782,782,782,782,782,782,783,787,794,803,810,813,813,813,813,813,813,813,813,813,813,813,813,814,814,814,816,819,820,820,820,821,821,821,821,823,824,824,824,825,825,825,825,825,825,823,822,822,822,822,822,820,819,815,813,811,807,806,806,806,806,806,806,806,806,806,806,806,806,788,788,787,787,787,787,787,787,787,787,787,787,787,787,787,787,787,787,787,787,787,787,787,778,778,778,778,779,779,779,779,779,779,779,779,779,774,773,772,771,770,770,770,770,770,770,770,772,772,766,742,707,666,593,571,558,553,551,550,548,545,536,530,525,524],"ymouse":[512,512,513,513,513,513,513,513,513,510,499,479,465,461,461,461,461,461,461,461,461,461,461,461,461,462,462,462,463,468,473,476,476,477,478,478,478,478,478,478,478,478,478,478,478,478,478,479,479,479,479,479,479,479,479,479,479,479,482,484,484,484,484,485,488,488,488,488,488,488,488,461,460,459,460,472,472,472,472,472,472,472,472,472,472,472,472,472,472,472,472,472,472,472,455,447,440,437,436,436,436,440,440,440,440,440,440,464,464,465,465,465,465,465,466,467,467,467,467,467,449,407,343,281,181,146,125,114,109,104,98,88,73,61,47,43],"timestamp_mouse":[17,38,58,77,97,117,138,157,178,199,218,238,258,277,297,317,337,357,377,397,417,437,458,477,497,518,537,557,577,598,617,639,658,679,698,718,737,758,777,797,817,838,857,877,897,919,938,957,977,997,1018,1039,1057,1077,1098,1119,1137,1158,1177,1197,1218,1238,1257,1278,1299,1318,1337,1358,1379,1397,1418,1438,1458,1478,1497,1517,1538,1558,1578,1597,1618,1638,1658,1678,1697,1717,1737,1758,1777,1798,1818,1837,1858,1877,1897,1917,1937,1957,1979,1999,2018,2037,2057,2078,2098,2118,2137,2159,2178,2197,2218,2238,2257,2277,2297,2317,2337,2357,2377,2397,2417,2437,2457,2478,2498,2518,2537,2557,2577,2597,2617,2638,2658,2677,2697,2717],"xSR":741.5,"ySR":469.95,"xT1":424.9,"yT1":0,"xT2":1058.1,"yT2":0,"toosoon":0,"cond_shown":"equaldotsize","ratio_trial":250,"smaller_num":"5","larger_num":"20","correct_side":2,"subjID":"isabellarinconpinzon27","gender":"1","age":"9","school":"4"},{"start_time":1552074999311,"click_time":1552075005194,"finger_time":1552074999773,"fix_duration":716.1683157740755,"trial":37,"RT":462,"MT":5421,"sideResp":1,"stimulus":"img/500/randomdotsizeEA/R/15_Ratio_500_L_1_R_2.png","xmouse":[815,818,818,818,818,818,819,819,819,819,818,816,809,797,788,783,778,776,767,763,757,748,742,731,726,720,716,711,706,705,705,705,705,705,705,705,705,704,704,703,702,701,696,685,679,673,667,661,654,654,653,652,652,652,652,652,652,652,652,652,652,652,652,652,652,649,644,638,635,635,635,635,641,644,644,644,644,644,644,644,645,649,656,672,680,686,692,695,700,702,703,705,707,718,727,735,741,742,747,752,759,764,772,775,775,775,775,774,757,745,735,725,717,713,712,711,711,710,708,707,706,703,703,702,702,702,702,702,702,700,699,699,697,696,695,694,691,688,683,679,675,670,668,661,658,658,657,657,639,617,596,583,572,574,580,587,597,611,664,736,878,927,1035,1058,1055,1033,1000,973,951,949,948,947,942,924,913,905,901,893,893,893,893,893,893,893,893,893,893,893,893,893,893,893,804,806,806,806,806,807,808,808,809,809,812,816,816,813,812,810,809,809,807,807,806,806,807,807,807,807,807,807,807,807,807,807,807,807,807,807,807,803,803,803,803,803,802,802,800,799,798,797,790,786,776,772,771,771,771,771,772,773,776,776,776,776,777,777,777,777,778,780,789,792,805,820,820,818,816,812,812,812,812,805,800,764,742,720,703,690,681,679,678,677,677,677,677,676,676,676,676,676,671,627,583,494,472],"ymouse":[542,542,542,542,542,542,543,543,543,543,543,543,543,543,543,543,543,543,539,533,524,509,498,483,475,463,448,431,389,371,354,345,343,343,343,343,343,343,341,340,340,337,329,311,299,288,277,266,255,252,251,251,251,251,251,251,251,251,251,251,251,251,251,251,251,256,276,296,339,361,383,401,417,422,422,422,422,422,422,422,422,426,433,453,464,475,482,486,492,494,494,495,496,488,477,469,462,459,460,462,469,485,517,528,528,525,514,485,416,382,360,345,338,337,337,336,336,336,335,334,331,325,322,309,304,296,286,276,268,253,244,241,239,237,237,237,237,237,239,242,245,254,261,277,282,283,284,284,284,290,300,309,322,330,333,333,330,322,330,373,474,508,583,605,611,618,619,621,623,623,622,615,598,581,579,578,578,576,576,576,576,576,576,576,576,576,576,576,576,576,576,576,526,524,524,531,539,560,561,561,561,560,552,538,538,538,538,540,543,543,545,545,546,555,562,565,567,569,570,570,570,570,570,566,550,550,550,550,550,523,523,523,523,522,522,521,520,520,517,512,494,487,468,452,451,451,451,451,456,461,465,465,465,465,465,465,465,465,465,471,498,509,544,563,563,565,566,568,568,568,568,558,549,496,473,459,449,444,442,442,442,442,442,442,442,442,442,442,442,437,413,322,249,128,96],"timestamp_mouse":[2,33,42,63,82,102,122,143,162,182,202,224,242,262,283,302,323,343,362,383,403,424,443,462,483,502,522,542,563,582,602,623,643,664,683,702,722,743,762,784,802,823,843,862,884,902,923,943,962,982,1002,1022,1043,1062,1082,1102,1123,1143,1162,1183,1203,1223,1243,1263,1283,1302,1322,1342,1363,1382,1402,1423,1443,1463,1483,1503,1523,1543,1562,1582,1603,1622,1643,1662,1682,1702,1722,1743,1762,1783,1803,1822,1842,1862,1882,1902,1923,1943,1962,1982,2003,2022,2043,2063,2083,2103,2123,2142,2163,2182,2202,2223,2243,2263,2282,2302,2323,2342,2363,2382,2402,2424,2443,2462,2482,2503,2524,2543,2562,2583,2603,2622,2643,2662,2682,2704,2722,2742,2762,2784,2802,2823,2842,2862,2883,2902,2922,2943,2963,2982,3002,3023,3043,3063,3083,3103,3123,3143,3163,3182,3202,3222,3243,3262,3283,3302,3322,3343,3362,3383,3403,3423,3443,3462,3484,3502,3522,3542,3562,3582,3602,3622,3642,3662,3683,3703,3722,3743,3762,3783,3803,3822,3842,3863,3883,3902,3923,3942,3962,3982,4003,4023,4042,4062,4083,4103,4123,4143,4164,4182,4202,4223,4242,4262,4283,4303,4322,4342,4363,4382,4402,4423,4443,4463,4483,4502,4524,4542,4563,4583,4602,4622,4642,4662,4683,4703,4722,4742,4762,4782,4802,4823,4842,4862,4883,4903,4922,4942,4962,4982,5003,5023,5042,5062,5082,5102,5124,5144,5163,5183,5202,5223,5242,5262,5282,5302,5323,5342,5364,5382,5403,5422,5443,5462,5483,5503,5522,5542,5562,5582,5603,5624,5643,5663,5683,5703,5724,5744,5762,5782,5803,5823,5842,5862,5883],"xSR":741.5,"ySR":469.95,"xT1":424.9,"yT1":0,"xT2":1058.1,"yT2":0,"toosoon":0,"cond_shown":"randomdotsizeEA","ratio_trial":500,"smaller_num":"1","larger_num":"2","correct_side":2,"subjID":"isabellarinconpinzon27","gender":"1","age":"9","school":"4"},{"start_time":1552075008267,"click_time":1552075008874,"finger_time":1552075008534,"fix_duration":250,"trial":38,"RT":267,"MT":340,"sideResp":2,"stimulus":"img/750/randomdotsizeEA/L/10_Ratio_750_L_4_R_3.png","xmouse":[762,762,762,766,769,777,779,780,780,780,788,796,811,853,869,943,956,964,973,983,1016,1025,1027,1029,1029,1029,1029,1029,1029,1034,1066],"ymouse":[536,536,537,534,531,528,526,526,526,526,526,527,520,461,425,188,130,106,92,86,85,85,85,83,83,83,83,83,82,82,84],"timestamp_mouse":[9,27,47,67,88,106,127,147,167,187,206,227,247,267,286,307,326,346,366,387,406,426,447,467,487,506,526,547,566,587,607],"xSR":741.5,"ySR":469.95,"xT1":424.9,"yT1":0,"xT2":1058.1,"yT2":0,"toosoon":0,"cond_shown":"randomdotsizeEA","ratio_trial":750,"smaller_num":"3","larger_num":"4","correct_side":1,"subjID":"isabellarinconpinzon27","gender":"1","age":"9","school":"4"},{"start_time":1552075014338,"click_time":1552075015655,"finger_time":1552075015173,"fix_duration":363.462037688867,"trial":39,"RT":835,"MT":482,"sideResp":2,"stimulus":"img/900/equaldotsize/L/1_Ratio_900_L_10_R_9.png","xmouse":[812,812,812,812,812,812,811,811,811,812,813,815,815,815,815,815,815,815,815,817,818,819,820,820,821,822,825,826,826,826,826,826,826,826,827,827,828,828,828,829,831,837,841,850,860,870,893,905,925,954,1024,1112,1138,1151,1156,1157,1157,1157,1157,1157,1157,1157,1157,1156,1149,1128],"ymouse":[473,473,473,473,473,473,473,476,476,477,478,479,479,479,479,479,479,479,479,480,482,483,484,485,487,489,492,493,493,493,493,493,493,494,493,492,490,490,490,489,484,460,438,416,399,384,357,345,335,322,296,269,253,234,214,196,176,170,166,164,160,156,150,143,112,58],"timestamp_mouse":[15,45,55,75,96,115,135,157,175,195,216,235,255,276,295,316,335,355,377,396,415,436,456,477,495,516,535,556,576,596,616,635,655,675,696,717,735,756,776,796,816,835,857,876,896,916,936,957,976,997,1016,1035,1056,1075,1095,1116,1135,1156,1175,1195,1215,1236,1256,1275,1295,1317],"xSR":741.5,"ySR":469.95,"xT1":424.9,"yT1":0,"xT2":1058.1,"yT2":0,"toosoon":0,"cond_shown":"equaldotsize","ratio_trial":900,"smaller_num":"9","larger_num":"10","correct_side":1,"subjID":"isabellarinconpinzon27","gender":"1","age":"9","school":"4"},{"start_time":1552075019394,"click_time":1552075020253,"finger_time":1552075019773,"fix_duration":517.768356216088,"trial":40,"RT":379,"MT":480,"sideResp":1,"stimulus":"img/500/equaldotsize/L/11_Ratio_500_L_12_R_6.png","xmouse":[758,757,755,755,753,753,751,750,749,748,747,747,747,747,747,747,747,744,743,737,734,730,727,723,714,712,709,708,704,685,673,655,637,619,586,574,554,550,532,505,490,480,472,461],"ymouse":[542,543,543,543,544,545,546,546,546,547,548,549,549,549,549,549,549,548,547,536,529,519,507,493,458,444,432,418,396,331,305,269,240,210,165,152,140,137,127,117,110,106,101,95],"timestamp_mouse":[1,20,47,59,80,100,120,139,160,180,199,220,239,260,279,300,320,339,359,379,399,420,439,460,479,500,519,540,560,579,601,621,639,660,679,699,719,739,760,779,800,819,840,859],"xSR":741.5,"ySR":469.95,"xT1":424.9,"yT1":0,"xT2":1058.1,"yT2":0,"toosoon":0,"cond_shown":"equaldotsize","ratio_trial":500,"smaller_num":"6","larger_num":"12","correct_side":1,"subjID":"isabellarinconpinzon27","gender":"1","age":"9","school":"4"},{"start_time":1552075037465,"click_time":1552075038354,"finger_time":1552075038053,"fix_duration":970.9651952998038,"trial":41,"RT":588,"MT":301,"sideResp":1,"stimulus":"img/250/equaldotsize/L/14_Ratio_250_L_12_R_3.png","xmouse":[792,792,792,792,792,792,792,793,794,794,795,795,795,795,795,795,795,795,795,795,795,795,795,795,795,795,795,789,772,747,671,629,596,574,546,530,530,530,530,535,540,540,537,526,512],"ymouse":[527,527,527,527,527,527,527,529,531,532,534,534,534,534,534,534,534,534,534,534,534,534,534,534,534,534,534,512,470,420,306,258,220,191,163,149,149,148,145,138,114,99,85,61,27],"timestamp_mouse":[10,38,48,69,90,108,128,148,169,189,209,228,250,269,289,309,329,348,369,388,410,428,448,468,488,508,529,548,570,588,609,629,648,668,689,708,729,749,770,789,808,828,848,869,889],"xSR":741.5,"ySR":469.95,"xT1":424.9,"yT1":0,"xT2":1058.1,"yT2":0,"toosoon":0,"cond_shown":"equaldotsize","ratio_trial":250,"smaller_num":"3","larger_num":"12","correct_side":1,"subjID":"isabellarinconpinzon27","gender":"1","age":"9","school":"4"},{"start_time":1552075044201,"click_time":1552075044953,"finger_time":1552075044733,"fix_duration":1246.2427267965627,"trial":42,"RT":532,"MT":220,"sideResp":1,"stimulus":"img/900/equaldotanddens/L/10_Ratio_900_L_20_R_18.png","xmouse":[806,806,806,806,806,806,806,806,805,803,801,800,799,799,799,799,799,799,799,799,799,799,798,798,798,798,796,795,788,780,770,753,730,678,652,618,542,524],"ymouse":[493,493,493,493,493,493,493,493,491,488,481,475,472,471,471,471,471,471,471,471,471,470,470,470,470,470,468,463,449,431,409,370,323,231,195,145,62,46],"timestamp_mouse":[12,40,53,71,93,111,132,152,172,192,213,232,252,273,293,313,332,352,371,392,413,432,452,473,493,513,532,552,573,592,612,632,653,672,693,713,732,752],"xSR":741.5,"ySR":469.95,"xT1":424.9,"yT1":0,"xT2":1058.1,"yT2":0,"toosoon":0,"cond_shown":"equaldotanddens","ratio_trial":900,"smaller_num":"18","larger_num":"20","correct_side":1,"subjID":"isabellarinconpinzon27","gender":"1","age":"9","school":"4"},{"start_time":1552075049968,"click_time":1552075052154,"finger_time":1552075050073,"fix_duration":1232.6937600359204,"trial":43,"RT":105,"MT":2081,"sideResp":1,"stimulus":"img/900/randomdotsizeEA/R/3_Ratio_900_L_9_R_10.png","xmouse":[827,827,826,821,817,814,817,819,823,824,824,824,824,824,824,824,824,824,824,824,824,824,824,823,823,823,823,823,823,823,823,823,823,823,823,823,824,824,825,825,825,827,827,827,827,827,828,828,829,832,844,848,849,851,852,853,855,864,872,875,874,870,868,864,857,833,821,807,798,795,794,790,785,782,781,786,793,796,796,796,796,796,796,796,796,796,796,796,796,795,778,738,668,589,525,494,491,490,489,489,486,486,486,486,486,489,493,493,491,473],"ymouse":[540,540,540,523,494,436,428,418,403,402,402,402,402,402,402,402,402,402,402,402,395,393,391,389,388,388,388,388,388,388,388,388,388,388,388,388,387,387,387,387,387,386,386,386,386,386,386,386,386,393,419,431,435,437,438,439,439,429,408,385,374,370,367,364,362,356,354,350,347,347,347,351,358,371,391,449,466,471,471,471,471,471,471,471,471,471,472,472,472,472,456,414,358,297,248,205,190,181,176,172,159,155,153,153,153,147,142,135,120,85],"timestamp_mouse":[14,36,46,66,84,105,126,146,165,184,205,226,246,266,285,305,324,345,364,384,405,426,445,466,485,506,526,545,566,586,605,625,644,666,685,705,725,745,765,785,805,826,846,866,886,906,926,945,965,985,1006,1026,1046,1066,1086,1105,1126,1145,1165,1184,1205,1226,1245,1265,1286,1305,1324,1346,1366,1385,1405,1426,1446,1465,1485,1505,1526,1545,1566,1585,1605,1626,1645,1664,1686,1704,1725,1745,1765,1786,1805,1825,1845,1865,1886,1905,1925,1946,1966,1986,2006,2026,2045,2064,2086,2105,2125,2145,2165,2186],"xSR":741.5,"ySR":469.95,"xT1":424.9,"yT1":0,"xT2":1058.1,"yT2":0,"toosoon":0,"cond_shown":"randomdotsizeEA","ratio_trial":900,"smaller_num":"9","larger_num":"10","correct_side":2,"subjID":"isabellarinconpinzon27","gender":"1","age":"9","school":"4"},{"start_time":1552075056103,"click_time":1552075057353,"finger_time":1552075056413,"fix_duration":929.8212308666702,"trial":44,"RT":310,"MT":940,"sideResp":2,"stimulus":"img/250/randomdotsizeEA/R/10_Ratio_250_L_4_R_16.png","xmouse":[785,785,783,783,778,778,778,778,778,778,778,778,778,799,816,844,870,893,924,939,952,954,955,955,956,956,958,959,967,971,976,984,998,1040,1073,1098,1120,1137,1143,1143,1139,1131,1124,1122,1121,1121,1121,1121,1120,1120,1120,1121,1123,1122,1120,1119,1119,1119,1119,1119,1119,1119,1119],"ymouse":[527,526,526,526,524,524,524,524,524,524,524,523,518,488,470,450,431,412,369,332,293,285,267,256,252,249,244,238,225,217,209,201,190,177,166,157,152,147,144,142,140,139,135,134,133,133,133,133,132,132,131,131,124,116,113,111,110,110,110,109,109,109,95],"timestamp_mouse":[10,30,53,69,90,111,131,149,170,190,211,230,249,270,291,310,331,350,370,389,411,431,451,470,491,510,530,550,570,589,610,631,650,670,691,711,730,751,770,791,811,830,851,871,891,910,930,951,970,989,1011,1031,1050,1070,1089,1111,1130,1150,1170,1191,1210,1230,1250],"xSR":741.5,"ySR":469.95,"xT1":424.9,"yT1":0,"xT2":1058.1,"yT2":0,"toosoon":0,"cond_shown":"randomdotsizeEA","ratio_trial":250,"smaller_num":"4","larger_num":"16","correct_side":2,"subjID":"isabellarinconpinzon27","gender":"1","age":"9","school":"4"},{"start_time":1552075059047,"click_time":1552075059914,"finger_time":1552075059534,"fix_duration":831.2474039992883,"trial":45,"RT":487,"MT":380,"sideResp":1,"stimulus":"img/900/equaldotanddens/L/2_Ratio_900_L_20_R_18.png","xmouse":[758,758,758,758,758,758,758,758,758,759,776,786,797,801,804,808,811,814,816,817,815,808,796,765,727,580,500,448,423,413,409,408,407,406,405,405,406,406,406,406,415,423,429],"ymouse":[517,517,517,517,517,517,517,517,518,523,543,552,560,561,562,563,563,563,561,557,532,511,488,445,395,253,195,157,137,125,109,103,96,91,77,67,65,65,65,65,65,65,64],"timestamp_mouse":[31,47,66,87,105,125,146,167,187,207,226,246,267,287,306,327,347,366,387,407,427,447,467,487,506,526,545,567,587,606,627,646,666,687,706,727,746,767,787,806,826,846,867],"xSR":741.5,"ySR":469.95,"xT1":424.9,"yT1":0,"xT2":1058.1,"yT2":0,"toosoon":0,"cond_shown":"equaldotanddens","ratio_trial":900,"smaller_num":"18","larger_num":"20","correct_side":1,"subjID":"isabellarinconpinzon27","gender":"1","age":"9","school":"4"},{"start_time":1552075064629,"click_time":1552075074974,"finger_time":1552075064693,"fix_duration":473.0748676995714,"trial":46,"RT":64,"MT":10281,"sideResp":1,"stimulus":"img/900/randomdotsizeEA/R/14_Ratio_900_L_18_R_20.png","xmouse":[821,824,827,848,860,864,864,864,864,864,862,861,854,849,846,840,833,822,818,816,815,813,813,815,816,816,816,816,816,816,816,816,816,816,816,816,816,815,814,813,811,808,805,802,797,789,784,782,782,782,783,788,795,798,799,799,799,799,797,793,789,787,786,786,786,786,786,786,786,786,786,786,786,786,786,786,786,786,786,786,786,785,783,782,782,782,781,779,779,778,778,778,778,778,780,782,785,787,787,787,788,790,793,794,794,794,793,791,789,789,788,786,780,771,763,760,760,760,760,760,760,758,748,736,731,731,731,734,735,736,737,738,738,739,740,740,740,740,740,740,740,740,746,751,755,755,755,756,756,756,756,756,756,758,762,766,767,767,767,767,767,767,767,767,767,766,763,754,749,749,748,748,748,748,748,749,749,749,749,750,751,751,754,759,762,763,763,764,766,767,767,768,773,776,779,787,800,819,820,820,820,821,822,823,823,824,824,814,812,812,812,812,812,811,810,810,809,808,807,807,807,807,807,808,808,808,808,808,808,808,808,808,808,808,808,808,808,808,809,811,814,816,823,829,831,831,834,837,837,837,837,837,837,837,837,837,837,837,837,837,837,837,837,838,839,839,839,839,839,839,833,823,814,801,772,765,762,760,760,760,760,760,760,760,760,760,760,760,760,760,760,760,760,760,759,755,749,742,742,742,742,742,742,742,742,742,742,742,742,742,741,741,741,741,741,741,741,741,741,740,740,739,739,739,739,739,739,739,739,739,739,739,739,739,739,739,739,738,738,738,737,736,733,732,731,729,729,729,729,729,729,729,729,729,729,729,729,729,729,729,729,729,740,740,740,740,784,858,907,953,973,981,997,1007,1015,1020,1020,1025,1028,1029,1029,1030,1030,1030,1029,1029,1029,1032,1037,1055,1091,1158,1314,1354,1373,1383,1390,1395,1397,1400,1404,1409,1416,1416,1414,1403,1376,1205,1080,1080,1080,1080,1080,1080,1080,1080,1080,1080,1080,1080,1080,1080,1080,1080,1080,695,716,763,774,780,785,789,797,801,802,803,803,803,803,798,795,791,785,785,785,785,785,785,785,785,785,789,796,798,798,798,798,798,798,798,798,798,798,797,795,795,796,796,796,796,796,796,796,796,796,796,796,799,800,800,800,801,801,802,802,803,803,802,799,797,789,774,667,604,533,483,431,377,347,321,302,286,286,322,352,352,352,352,352,352,352,352,352,352,352,352,352,472],"ymouse":[509,509,509,539,552,553,553,553,552,552,552,552,557,563,565,569,572,581,587,594,601,610,628,633,633,633,633,633,633,633,633,634,636,636,636,636,636,637,637,638,640,642,643,643,643,639,636,633,630,628,624,617,592,582,573,568,566,566,567,574,578,581,582,582,582,582,582,582,582,582,582,582,582,582,582,582,582,582,582,582,582,582,582,582,582,582,582,582,582,582,582,582,580,578,575,573,570,568,568,568,568,568,569,570,570,570,566,561,561,561,561,557,546,534,526,522,522,522,522,522,522,519,502,486,481,481,482,492,494,497,499,499,500,501,502,504,504,504,504,504,504,504,505,505,507,507,507,508,508,508,508,508,508,509,509,509,509,509,509,509,509,509,509,509,509,509,509,493,484,479,478,477,476,476,476,476,476,476,476,476,477,478,488,495,499,502,502,502,502,502,502,502,509,513,515,521,525,525,525,525,525,524,523,522,521,519,514,500,499,498,497,497,497,500,502,503,504,505,506,506,506,506,506,505,505,505,505,505,505,505,505,505,505,505,505,505,505,505,505,509,512,517,524,524,522,519,515,504,504,504,504,504,504,504,504,504,504,504,504,504,504,521,548,554,557,557,557,557,557,557,551,537,529,529,529,529,529,531,531,531,531,531,531,531,531,531,531,531,531,531,531,531,531,531,532,523,506,488,487,487,487,492,496,499,500,500,500,509,511,512,515,517,517,517,517,517,517,517,517,518,518,518,518,518,518,518,518,518,518,518,518,518,518,518,518,518,518,518,518,518,519,519,519,519,519,522,525,533,538,540,541,541,541,541,541,541,541,541,541,555,585,631,705,705,705,705,708,616,562,523,511,510,523,537,545,547,547,548,549,550,551,552,560,566,575,590,599,610,618,631,643,646,629,621,615,612,610,610,610,610,610,608,607,607,609,615,628,679,716,716,716,716,716,716,716,716,716,716,716,716,716,716,716,716,716,722,703,664,652,640,627,613,590,582,579,571,568,559,546,528,518,511,502,501,501,501,501,501,501,501,501,503,508,509,509,509,509,509,509,509,509,509,509,517,532,544,551,552,552,552,552,552,552,552,538,523,510,492,489,487,486,484,484,482,480,469,457,435,427,411,390,371,287,255,228,213,197,188,183,180,169,146,100,40,4,4,4,4,4,4,4,4,4,4,4,4,4,10],"timestamp_mouse":[4,24,48,64,84,105,125,145,164,185,204,224,244,265,284,304,324,344,363,384,405,424,444,465,484,504,525,545,565,583,604,624,644,664,684,705,725,744,764,785,804,824,844,863,885,904,925,944,965,985,1004,1025,1044,1063,1085,1104,1124,1144,1165,1184,1204,1225,1244,1264,1284,1305,1325,1344,1364,1384,1404,1425,1444,1464,1484,1504,1524,1545,1565,1585,1604,1625,1644,1665,1685,1704,1725,1744,1764,1785,1805,1824,1844,1863,1884,1904,1925,1944,1964,1985,2004,2025,2044,2064,2085,2104,2124,2144,2164,2185,2205,2225,2245,2265,2285,2303,2325,2344,2364,2385,2404,2424,2444,2464,2484,2505,2524,2544,2565,2583,2603,2624,2644,2664,2685,2704,2724,2744,2764,2784,2805,2824,2844,2864,2884,2905,2924,2943,2965,2984,3004,3024,3044,3065,3085,3105,3124,3145,3163,3183,3204,3223,3244,3264,3284,3303,3325,3344,3364,3384,3408,3424,3444,3464,3485,3505,3524,3544,3564,3585,3604,3623,3645,3665,3685,3705,3725,3744,3765,3784,3805,3825,3844,3865,3885,3905,3924,3944,3965,3985,4004,4024,4044,4065,4085,4104,4123,4144,4165,4184,4205,4224,4245,4265,4283,4305,4325,4344,4365,4385,4404,4423,4445,4464,4485,4504,4525,4544,4564,4584,4605,4624,4644,4664,4685,4705,4725,4744,4765,4783,4804,4824,4844,4864,4884,4904,4924,4944,4965,4984,5005,5024,5045,5063,5085,5104,5124,5144,5165,5185,5204,5224,5244,5264,5285,5305,5323,5343,5365,5384,5404,5424,5444,5465,5485,5504,5524,5543,5564,5585,5604,5624,5643,5664,5685,5704,5723,5744,5764,5784,5804,5824,5843,5863,5885,5905,5924,5943,5965,5984,6005,6024,6044,6064,6084,6104,6125,6144,6165,6183,6204,6224,6244,6265,6284,6304,6325,6344,6364,6384,6405,6425,6444,6465,6483,6505,6524,6544,6565,6585,6605,6624,6644,6664,6684,6705,6724,6745,6765,6784,6804,6825,6844,6864,6884,6905,6925,6944,6964,6985,7004,7025,7044,7065,7084,7104,7124,7144,7164,7185,7204,7224,7245,7265,7285,7304,7325,7345,7365,7384,7404,7424,7444,7465,7485,7504,7525,7544,7564,7584,7604,7624,7643,7664,7685,7705,7725,7744,7764,7785,7804,7825,7844,7864,7884,7903,7924,7944,7963,7985,8005,8024,8044,8064,8085,8104,8124,8144,8165,8184,8205,8225,8245,8265,8285,8305,8324,8345,8365,8384,8405,8425,8444,8464,8484,8504,8525,8545,8564,8584,8605,8625,8644,8664,8685,8704,8725,8744,8764,8784,8804,8824,8844,8864,8885,8905,8924,8944,8964,8985,9005,9025,9044,9064,9085,9104,9125,9144,9164,9184,9204,9225,9244,9264,9285,9304,9324,9344,9364,9383,9405,9424,9444,9465,9484,9504,9524,9544,9564,9585,9604,9625,9644,9665,9684,9703,9725,9744,9764,9784,9804,9824,9844,9864,9884,9904,9924,9944,9965,9984,10004,10023,10044,10065,10084,10105,10124,10144,10163,10184,10204,10224,10244,10265,10284,10305,10324,10344],"xSR":741.5,"ySR":469.95,"xT1":424.9,"yT1":0,"xT2":1058.1,"yT2":0,"toosoon":0,"cond_shown":"randomdotsizeEA","ratio_trial":900,"smaller_num":"18","larger_num":"20","correct_side":2,"subjID":"isabellarinconpinzon27","gender":"1","age":"9","school":"4"},{"start_time":1552075078366,"click_time":1552075079113,"finger_time":1552075078572,"fix_duration":250,"trial":47,"RT":206,"MT":541,"sideResp":1,"stimulus":"img/250/equaldotsize/L/3_Ratio_250_L_8_R_2.png","xmouse":[754,754,754,758,766,773,778,790,807,840,865,868,868,868,868,868,868,868,873,874,875,878,891,915,944,990,1012,1024,1028,1030,1018,1007,981,929,859,678,594,515],"ymouse":[539,539,539,539,538,537,537,542,552,569,574,574,574,574,574,574,574,571,557,544,517,501,473,434,390,331,302,276,254,179,113,99,87,73,62,55,55,55],"timestamp_mouse":[14,36,47,67,87,107,127,148,168,187,206,226,247,267,288,308,327,348,367,388,406,428,448,468,487,507,527,547,567,587,607,626,647,667,688,707,728,747],"xSR":741.5,"ySR":469.95,"xT1":424.9,"yT1":0,"xT2":1058.1,"yT2":0,"toosoon":0,"cond_shown":"equaldotsize","ratio_trial":250,"smaller_num":"2","larger_num":"8","correct_side":1,"subjID":"isabellarinconpinzon27","gender":"1","age":"9","school":"4"},{"start_time":1552075086290,"click_time":1552075087133,"finger_time":1552075086753,"fix_duration":795.7625142859162,"trial":48,"RT":463,"MT":380,"sideResp":1,"stimulus":"img/500/equaldotanddens/R/14_Ratio_500_L_5_R_10.png","xmouse":[792,792,792,792,792,792,792,792,792,792,792,792,792,792,792,792,792,792,791,790,787,778,757,750,696,668,642,619,605,588,582,578,577,577,580,583,584,586,586,574,544,513,487],"ymouse":[504,504,504,504,504,504,504,504,504,504,504,504,504,504,504,504,504,504,503,499,494,485,470,464,429,408,388,367,350,322,311,302,290,287,280,277,276,273,272,248,186,132,89],"timestamp_mouse":[10,33,43,63,83,103,123,143,162,184,203,223,243,263,284,303,324,344,363,383,403,424,443,463,483,503,523,543,564,584,603,624,643,663,683,702,722,743,763,783,802,824,843],"xSR":741.5,"ySR":469.95,"xT1":424.9,"yT1":0,"xT2":1058.1,"yT2":0,"toosoon":0,"cond_shown":"equaldotanddens","ratio_trial":500,"smaller_num":"5","larger_num":"10","correct_side":2,"subjID":"isabellarinconpinzon27","gender":"1","age":"9","school":"4"},{"start_time":1552075102906,"click_time":1552075103573,"finger_time":1552075103073,"fix_duration":1309.8910775137997,"trial":49,"RT":167,"MT":500,"sideResp":1,"stimulus":"img/500/equaldotanddens/L/7_Ratio_500_L_10_R_5.png","xmouse":[792,793,793,793,793,793,793,793,793,793,792,792,792,792,792,792,792,791,791,791,791,771,758,726,703,671,637,610,594,575,569,556,543,475],"ymouse":[545,550,550,556,556,556,556,556,614,611,601,597,597,597,597,602,605,608,608,608,608,567,540,457,384,303,235,194,174,152,143,127,111,75],"timestamp_mouse":[11,35,47,68,87,107,128,148,167,188,208,228,247,267,288,307,328,348,368,387,407,427,447,467,488,508,527,548,567,588,608,627,647,667],"xSR":741.5,"ySR":469.95,"xT1":424.9,"yT1":0,"xT2":1058.1,"yT2":0,"toosoon":0,"cond_shown":"equaldotanddens","ratio_trial":500,"smaller_num":"5","larger_num":"10","correct_side":1,"subjID":"isabellarinconpinzon27","gender":"1","age":"9","school":"4"},{"start_time":1552075111697,"click_time":1552075112554,"finger_time":1552075111814,"fix_duration":803.5710291108963,"trial":50,"RT":117,"MT":740,"sideResp":1,"stimulus":"img/250/equaldotanddens/L/3_Ratio_250_L_8_R_2.png","xmouse":[809,809,809,809,809,805,801,799,799,799,799,799,799,799,799,799,799,799,799,794,763,737,644,555,545,543,543,543,543,543,535,515,510,508,508,508,508,506,500,499,497,497,496],"ymouse":[474,474,474,474,474,469,466,464,464,464,464,464,464,464,464,464,464,464,464,464,450,438,399,345,333,325,321,317,299,274,212,144,124,119,119,119,119,115,105,103,101,100,98],"timestamp_mouse":[16,44,56,77,97,117,137,156,176,196,218,238,257,277,297,316,336,356,377,397,416,437,456,476,497,517,540,556,576,596,617,636,656,677,697,717,737,757,776,797,816,836,857],"xSR":741.5,"ySR":469.95,"xT1":424.9,"yT1":0,"xT2":1058.1,"yT2":0,"toosoon":0,"cond_shown":"equaldotanddens","ratio_trial":250,"smaller_num":"2","larger_num":"8","correct_side":1,"subjID":"isabellarinconpinzon27","gender":"1","age":"9","school":"4"},{"start_time":1552075119883,"click_time":1552075120693,"finger_time":1552075120353,"fix_duration":1407.7936808386085,"trial":51,"RT":470,"MT":340,"sideResp":1,"stimulus":"img/900/equaldotsize/R/9_Ratio_900_L_18_R_20.png","xmouse":[765,765,765,765,765,765,771,777,778,778,778,777,777,777,779,785,789,795,796,794,789,785,770,729,469,358,274,243,242,242,246,256,266,278,292,297,302,310,329,388,443],"ymouse":[511,511,511,511,511,518,533,543,544,544,544,545,545,545,544,543,541,537,534,519,509,500,480,440,238,163,104,82,81,77,70,60,53,45,38,37,37,37,37,57,73],"timestamp_mouse":[10,40,50,70,90,111,130,150,171,190,210,231,250,270,290,310,331,351,371,391,410,430,451,470,490,510,530,550,571,590,610,632,650,671,691,711,730,750,771,790,810],"xSR":741.5,"ySR":469.95,"xT1":424.9,"yT1":0,"xT2":1058.1,"yT2":0,"toosoon":0,"cond_shown":"equaldotsize","ratio_trial":900,"smaller_num":"18","larger_num":"20","correct_side":2,"subjID":"isabellarinconpinzon27","gender":"1","age":"9","school":"4"},{"start_time":1552075131857,"click_time":1552075132573,"finger_time":1552075132314,"fix_duration":341.70237848458527,"trial":52,"RT":457,"MT":259,"sideResp":1,"stimulus":"img/250/equaldotsize/L/7_Ratio_250_L_8_R_2.png","xmouse":[789,790,790,790,790,786,786,786,786,786,788,788,788,788,788,788,788,788,788,788,780,756,679,642,519,457,452,451,451,451,451,452,456,462,473,488],"ymouse":[529,529,529,529,529,525,525,525,526,527,531,531,531,531,530,524,524,524,524,523,508,474,374,335,224,148,134,128,124,122,121,118,115,112,107,95],"timestamp_mouse":[16,49,57,77,97,117,137,157,177,197,216,236,256,278,297,317,337,356,377,396,417,436,457,477,497,516,536,557,576,597,616,636,657,676,696,716],"xSR":741.5,"ySR":469.95,"xT1":424.9,"yT1":0,"xT2":1058.1,"yT2":0,"toosoon":0,"cond_shown":"equaldotsize","ratio_trial":250,"smaller_num":"2","larger_num":"8","correct_side":1,"subjID":"isabellarinconpinzon27","gender":"1","age":"9","school":"4"},{"start_time":1552075133624,"click_time":1552075135314,"finger_time":1552075135073,"fix_duration":250,"trial":53,"RT":1449,"MT":241,"sideResp":1,"stimulus":"img/900/equaldotsize/R/12_Ratio_900_L_18_R_20.png","xmouse":[790,791,791,796,802,808,811,814,815,816,816,816,816,816,816,816,816,814,811,807,804,801,800,800,800,800,799,799,799,799,799,799,799,796,794,793,791,788,787,785,782,779,778,775,774,772,772,772,772,772,772,772,772,772,772,772,772,772,772,772,773,773,773,773,774,774,770,770,770,770,770,770,770,755,728,673,640,597,591,590,590,590,570,531,434],"ymouse":[514,510,509,503,495,489,487,482,481,478,478,478,478,478,478,478,478,484,488,492,495,496,497,497,497,497,497,497,497,497,497,497,497,498,500,504,507,510,511,512,512,514,514,514,513,510,509,509,509,509,509,509,510,510,513,516,520,525,526,526,526,527,527,527,527,522,508,507,507,506,501,487,424,375,329,276,243,198,192,191,191,191,180,157,92],"timestamp_mouse":[10,30,50,70,90,110,130,149,170,190,210,230,249,270,291,310,330,349,370,390,409,429,449,469,490,509,531,549,569,590,611,630,650,670,690,710,729,749,769,790,809,829,849,870,890,909,930,949,970,989,1009,1029,1050,1074,1090,1109,1129,1149,1169,1190,1210,1229,1249,1269,1289,1310,1329,1350,1370,1390,1409,1429,1449,1469,1489,1509,1530,1549,1570,1589,1610,1630,1650,1670,1689],"xSR":741.5,"ySR":469.95,"xT1":424.9,"yT1":0,"xT2":1058.1,"yT2":0,"toosoon":0,"cond_shown":"equaldotsize","ratio_trial":900,"smaller_num":"18","larger_num":"20","correct_side":2,"subjID":"isabellarinconpinzon27","gender":"1","age":"9","school":"4"},{"start_time":1552075139389,"click_time":1552075140173,"finger_time":1552075139834,"fix_duration":1153.3971271511368,"trial":54,"RT":445,"MT":339,"sideResp":2,"stimulus":"img/900/equaldotsize/L/2_Ratio_900_L_20_R_18.png","xmouse":[792,792,792,792,792,792,792,792,792,792,792,792,792,792,792,792,792,792,792,792,795,807,831,870,919,986,1001,1011,1027,1034,1036,1036,1036,1035,1035,1035,1035,1035,1039,1059],"ymouse":[513,513,513,513,513,513,513,513,513,513,513,513,513,513,513,513,513,513,513,513,513,496,457,398,322,205,178,159,133,107,97,88,82,82,81,81,81,81,81,77],"timestamp_mouse":[4,24,44,66,84,105,125,144,164,184,204,226,245,264,285,304,326,344,365,384,404,425,445,465,484,505,525,545,565,584,605,624,644,664,684,705,725,744,764,784],"xSR":741.5,"ySR":469.95,"xT1":424.9,"yT1":0,"xT2":1058.1,"yT2":0,"toosoon":0,"cond_shown":"equaldotsize","ratio_trial":900,"smaller_num":"18","larger_num":"20","correct_side":1,"subjID":"isabellarinconpinzon27","gender":"1","age":"9","school":"4"},{"start_time":1552075142230,"click_time":1552075142874,"finger_time":1552075142593,"fix_duration":1334.744068155853,"trial":55,"RT":363,"MT":281,"sideResp":1,"stimulus":"img/750/randomdotsizeEA/R/3_Ratio_750_L_15_R_20.png","xmouse":[769,764,764,764,764,764,764,762,760,757,754,753,753,753,753,753,753,751,737,707,658,595,489,471,468,468,468,468,465,459,450,445,441],"ymouse":[534,533,533,533,533,533,533,534,535,535,534,533,533,533,533,533,530,525,485,441,368,303,209,195,192,192,192,190,173,154,132,111,93],"timestamp_mouse":[5,26,50,64,83,104,124,144,163,184,203,223,243,264,283,303,323,343,363,384,404,425,444,463,483,503,524,544,564,583,604,624,644],"xSR":741.5,"ySR":469.95,"xT1":424.9,"yT1":0,"xT2":1058.1,"yT2":0,"toosoon":0,"cond_shown":"randomdotsizeEA","ratio_trial":750,"smaller_num":"15","larger_num":"20","correct_side":2,"subjID":"isabellarinconpinzon27","gender":"1","age":"9","school":"4"},{"start_time":1552075144089,"click_time":1552075144734,"finger_time":1552075144455,"fix_duration":495.78978742130096,"trial":56,"RT":366,"MT":279,"sideResp":2,"stimulus":"img/900/randomdotsizeEA/R/3_Ratio_900_L_9_R_10.png","xmouse":[787,787,787,787,787,787,787,787,787,787,787,787,787,787,787,787,787,811,837,1008,1042,1045,1045,1046,1043,1041,1034,1027,1022,1027,1041,1052,1062],"ymouse":[502,502,502,502,502,502,502,502,502,502,502,502,502,502,502,502,502,472,450,332,311,307,307,306,293,285,271,254,227,140,103,77,53],"timestamp_mouse":[4,26,44,64,85,104,125,144,164,184,205,225,245,264,285,305,325,344,366,384,404,424,445,465,485,505,524,545,565,584,604,625,645],"xSR":741.5,"ySR":469.95,"xT1":424.9,"yT1":0,"xT2":1058.1,"yT2":0,"toosoon":0,"cond_shown":"randomdotsizeEA","ratio_trial":900,"smaller_num":"9","larger_num":"10","correct_side":2,"subjID":"isabellarinconpinzon27","gender":"1","age":"9","school":"4"},{"start_time":1552075146123,"click_time":1552075147073,"finger_time":1552075146573,"fix_duration":408.1672935280419,"trial":57,"RT":450,"MT":500,"sideResp":2,"stimulus":"img/750/equaldotsize/R/2_Ratio_750_L_6_R_8.png","xmouse":[775,775,775,775,775,775,775,778,778,778,778,778,778,778,778,778,779,779,781,782,790,810,873,939,1012,1072,1093,1098,1098,1098,1098,1104,1115,1118,1120,1120,1120,1120,1120,1120,1120,1120,1120,1120,1121,1122,1127,1140],"ymouse":[537,537,537,537,537,537,536,535,535,535,535,535,535,535,535,535,535,535,534,532,524,493,420,359,287,235,209,198,191,180,172,153,127,120,118,117,117,117,116,116,116,116,116,116,116,114,108,87],"timestamp_mouse":[10,35,50,70,90,110,131,150,170,191,210,230,251,270,290,312,331,350,371,391,412,431,450,471,490,511,531,550,571,591,610,630,651,670,691,711,730,751,770,791,811,831,851,870,891,911,931,950],"xSR":741.5,"ySR":469.95,"xT1":424.9,"yT1":0,"xT2":1058.1,"yT2":0,"toosoon":0,"cond_shown":"equaldotsize","ratio_trial":750,"smaller_num":"6","larger_num":"8","correct_side":2,"subjID":"isabellarinconpinzon27","gender":"1","age":"9","school":"4"},{"start_time":1552075151526,"click_time":1552075152353,"finger_time":1552075152073,"fix_duration":250,"trial":58,"RT":547,"MT":280,"sideResp":2,"stimulus":"img/900/equaldotanddens/L/2_Ratio_900_L_20_R_18.png","xmouse":[794,794,794,794,794,794,795,799,799,795,795,797,797,797,797,797,797,797,797,797,797,797,795,793,788,779,767,744,741,741,743,778,862,885,906,925,946,999,1030,1058,1063,1067],"ymouse":[519,519,519,519,518,518,521,521,521,519,516,515,515,515,515,515,514,514,514,514,514,514,512,506,499,488,473,437,412,357,341,282,237,222,208,196,185,148,126,105,101,85],"timestamp_mouse":[12,38,47,67,88,108,129,148,168,187,208,227,247,267,288,307,329,347,368,387,407,427,448,467,489,507,527,547,568,587,607,627,647,667,688,707,728,748,767,788,807,827],"xSR":741.5,"ySR":469.95,"xT1":424.9,"yT1":0,"xT2":1058.1,"yT2":0,"toosoon":0,"cond_shown":"equaldotanddens","ratio_trial":900,"smaller_num":"18","larger_num":"20","correct_side":1,"subjID":"isabellarinconpinzon27","gender":"1","age":"9","school":"4"},{"start_time":1552075154704,"click_time":1552075155973,"finger_time":1552075155273,"fix_duration":1129.2947038254479,"trial":59,"RT":569,"MT":700,"sideResp":1,"stimulus":"img/500/randomdotsizeEA/L/13_Ratio_500_L_12_R_6.png","xmouse":[754,754,754,754,754,754,754,754,754,754,754,754,754,754,754,754,754,754,754,754,754,754,754,754,756,758,758,758,755,755,755,755,755,755,753,748,739,723,687,674,667,657,648,637,633,629,626,624,619,615,604,561,507,422,422,422,422,422,422,422,422,422,422,427],"ymouse":[524,524,524,524,524,524,524,524,524,524,524,524,524,524,524,524,524,524,524,524,524,524,524,524,522,512,498,483,469,469,469,469,465,460,455,446,430,407,371,363,358,351,342,325,318,310,305,299,284,274,255,187,116,5,5,5,5,5,5,5,5,5,5,16],"timestamp_mouse":[21,31,50,69,89,109,129,149,170,190,210,230,249,270,290,309,330,350,369,391,409,430,449,469,490,509,530,549,569,590,610,629,649,670,690,709,731,751,770,790,810,830,850,870,890,910,929,950,969,989,1010,1030,1049,1069,1090,1109,1129,1149,1169,1189,1210,1230,1250,1269],"xSR":741.5,"ySR":469.95,"xT1":424.9,"yT1":0,"xT2":1058.1,"yT2":0,"toosoon":0,"cond_shown":"randomdotsizeEA","ratio_trial":500,"smaller_num":"6","larger_num":"12","correct_side":1,"subjID":"isabellarinconpinzon27","gender":"1","age":"9","school":"4"},{"start_time":1552075158776,"click_time":1552075159635,"finger_time":1552075159114,"fix_duration":260.9227972929623,"trial":60,"RT":338,"MT":521,"sideResp":1,"stimulus":"img/750/randomdotsizeEA/R/15_Ratio_750_L_9_R_12.png","xmouse":[755,755,755,755,755,755,755,746,746,746,746,746,746,745,743,743,741,740,739,731,727,719,711,700,659,615,545,465,364,337,335,335,335,335,345,359,363,366,368,379,395,417,432],"ymouse":[500,500,500,500,500,500,500,542,542,542,542,542,540,538,531,530,528,526,522,510,504,491,477,457,412,380,340,294,237,209,195,179,163,150,123,101,97,93,92,87,82,75,69],"timestamp_mouse":[20,46,57,78,98,118,138,157,177,197,218,237,258,278,297,318,338,358,378,398,418,438,458,477,498,518,538,558,578,598,618,638,657,677,697,717,737,757,778,797,818,838,858],"xSR":741.5,"ySR":469.95,"xT1":424.9,"yT1":0,"xT2":1058.1,"yT2":0,"toosoon":0,"cond_shown":"randomdotsizeEA","ratio_trial":750,"smaller_num":"9","larger_num":"12","correct_side":2,"subjID":"isabellarinconpinzon27","gender":"1","age":"9","school":"4"},{"start_time":1552075163319,"click_time":1552075165214,"finger_time":1552075164034,"fix_duration":643.3332373454041,"trial":61,"RT":715,"MT":1180,"sideResp":2,"stimulus":"img/250/randomdotsizeEA/R/11_Ratio_250_L_3_R_12.png","xmouse":[759,759,759,759,760,760,761,761,761,761,761,761,761,761,761,761,761,761,762,762,762,762,762,762,762,763,765,771,773,776,778,778,779,788,811,843,877,951,986,1010,1027,1043,1057,1063,1066,1067,1067,1074,1077,1077,1076,1076,1076,1075,1074,1074,1074,1074,1074,1074,1074,1074,1074,1074,1074,1074,1074,1074,1074,1074,1074,1073,1052,1046,1044,1042,1042,1041,1040,1040,1040,1040,1040,1040,1040,1042,1050,1074,1081,1087,1091,1091,1091,1091,1091],"ymouse":[534,534,534,534,533,533,533,533,533,533,533,533,533,533,533,533,533,533,533,533,533,533,533,533,533