[{"start_time":1552073323151,"click_time":1552073327417,"finger_time":1552073323160,"fix_duration":250,"trial":0,"RT":9,"MT":4257,"sideResp":1,"stimulus":[],"xmouse":[808,808,808,808,808,808,808,808,808,808,808,808,808,808,808,808,808,808,808,808,808,808,808,808,808,808,808,808,808,808,808,808,808,808,808,808,808,808,808,808,808,808,808,808,808,808,808,808,808,808,808,808,808,808,808,808,808,808,808,808,808,808,808,808,808,808,808,815,878,991,1118,1202,1224,1228,1228,1228,1228,1228,1227,1215,1200,1198,1198,1198,1198,1198,1198,1197,1194,1186,1179,1172,1166,1154,1151,1150,1147,1145,1133,1125,1119,1111,1103,1085,1077,1069,1060,1053,1040,1034,1028,1025,1023,1010,1002,990,978,964,936,925,915,905,896,871,861,848,837,826,818,807,803,802,801,797,795,794,793,792,791,790,788,788,788,787,787,787,787,787,787,787,787,787,787,787,787,788,788,788,788,788,788,788,788,788,788,788,788,788,788,788,789,791,793,793,793,792,787,782,768,760,760,755,752,748,737,730,722,722,706,695,688,684,678,673,650,638,626,615,601,595,590,582,572,558,555,551,548,542,535,532,527,522,516,503],"ymouse":[546,546,546,546,546,546,546,546,546,546,546,546,546,546,546,546,546,546,546,546,546,546,546,546,546,546,546,546,546,546,546,546,546,546,546,546,546,546,546,546,546,546,546,546,546,546,546,546,546,546,546,546,546,546,546,546,546,546,546,546,546,546,546,546,546,546,546,546,556,572,586,588,588,586,586,586,586,586,586,589,593,594,594,594,594,594,594,594,595,596,598,601,602,609,610,611,613,615,622,626,631,635,639,650,654,658,663,665,668,669,669,669,669,668,667,663,660,656,645,640,633,628,622,607,601,595,591,586,583,581,580,580,580,580,580,580,580,580,581,584,587,589,592,598,602,603,605,606,608,608,609,609,610,611,612,613,613,613,613,613,613,613,613,613,613,613,613,613,613,613,608,603,591,563,536,512,484,443,337,280,230,177,136,101,41,23,6,6,0,0,0,0,0,0,0,0,0,0,0,0,0,0,0,0,0,0,0,0,0,0,0,0,0,3],"timestamp_mouse":[9,26,45,66,86,105,125,145,166,186,205,225,245,265,286,305,326,346,364,385,405,424,445,466,485,505,526,546,564,586,606,625,645,664,685,704,726,745,765,785,806,825,846,866,885,906,925,946,965,985,1006,1025,1045,1065,1085,1106,1125,1145,1165,1185,1204,1225,1246,1265,1285,1306,1325,1345,1365,1384,1405,1426,1446,1464,1485,1505,1526,1545,1566,1585,1605,1626,1646,1665,1685,1706,1725,1745,1766,1785,1805,1825,1844,1865,1885,1905,1925,1946,1966,1985,2006,2025,2045,2066,2085,2104,2125,2144,2165,2186,2206,2226,2246,2266,2285,2305,2326,2345,2366,2385,2406,2424,2446,2466,2485,2505,2526,2546,2565,2586,2606,2625,2646,2665,2686,2705,2724,2745,2766,2785,2806,2824,2844,2865,2886,2904,2926,2945,2965,2984,3005,3025,3046,3065,3086,3106,3125,3145,3164,3185,3206,3225,3245,3265,3285,3304,3325,3346,3365,3386,3405,3425,3446,3464,3485,3506,3525,3545,3565,3585,3606,3625,3646,3665,3685,3705,3725,3745,3765,3785,3804,3826,3846,3865,3886,3905,3925,3946,3968,3984,4005,4026,4046,4065,4085,4104,4125,4146,4165,4186,4205,4224,4245,4265],"xSR":741.5,"ySR":501.8,"xT1":424.9,"yT1":0,"xT2":1058.1,"yT2":0,"toosoon":0,"cond_shown":"Incongruent","ratio_trial":300,"L_num":8,"L_den":10,"R_num":14,"R_den":28,"correct_side":1,"subjID":"isabellasanchezvargas6","gender":"1","age":"9","school":"4","test":{"fix_dur":[250,1500],"timestim":1000,"targets_dim":[100,100],"targets_relative_coord":[0.3,0.7],"size_stim":[880,420],"start_dim":[100,100],"size_start":[300,300],"size_fix":60,"samplingrate":20,"img_types":["Congruent","Incongruent"],"ratios":[100,200,300],"rep_conds":19,"nTrials":120,"trials_to_rest":500,"Trials_order":[47,48,36,35,30,106,23,5,66,74,89,77,91,55,41,102,83,42,25,101,98,1,61,10,68,58,63,90,11,9,15,27,26,105,70,116,97,67,118,86,33,4,13,60,19,28,93,39,100,50,21,111,107,84,31,99,18,20,12,54,37,115,76,64,34,80,59,69,46,114,0,2,29,95,112,40,109,78,62,22,108,8,104,75,119,113,94,53,72,52,24,44,57,43,85,49,82,103,96,7,81,71,87,16,88,92,65,3,14,32,110,56,6,73,51,45,79,117,38,17],"cond_shown":["Incongruent","Congruent","Congruent","Incongruent","Congruent","Congruent","Incongruent","Incongruent","Congruent","Congruent","Incongruent","Incongruent","Incongruent","Incongruent","Incongruent","Congruent","Incongruent","Congruent","Incongruent","Incongruent","Congruent","Incongruent","Incongruent","Congruent","Congruent","Congruent","Incongruent","Congruent","Incongruent","Incongruent","Incongruent","Incongruent","Congruent","Incongruent","Congruent","Congruent","Incongruent","Incongruent","Congruent","Congruent","Incongruent","Congruent","Incongruent","Congruent","Incongruent","Congruent","Incongruent","Incongruent","Congruent","Congruent","Incongruent","Incongruent","Incongruent","Congruent","Incongruent","Incongruent","Congruent","Congruent","Congruent","Congruent","Incongruent","Incongruent","Congruent","Congruent","Congruent","Congruent","Incongruent","Incongruent","Congruent","Congruent","Congruent","Congruent","Incongruent","Incongruent","Congruent","Congruent","Incongruent","Congruent","Congruent","Congruent","Congruent","Congruent","Congruent","Incongruent","Incongruent","Incongruent","Congruent","Incongruent","Congruent","Congruent","Congruent","Congruent","Incongruent","Incongruent","Incongruent","Incongruent","Congruent","Incongruent","Congruent","Incongruent","Incongruent","Incongruent","Incongruent","Congruent","Congruent","Congruent","Incongruent","Incongruent","Congruent","Congruent","Congruent","Congruent","Congruent","Incongruent","Incongruent","Incongruent","Incongruent","Incongruent","Congruent","Incongruent"],"ratio_trial":[300,100,100,300,100,300,300,300,100,200,300,300,100,100,300,100,300,100,100,300,200,100,100,300,200,300,200,100,300,200,200,200,200,200,300,200,100,100,300,200,200,300,100,100,100,300,200,200,300,200,200,200,300,100,100,200,100,200,100,100,100,100,300,300,300,200,300,200,300,100,100,200,300,300,300,300,100,100,200,300,100,200,200,200,300,300,300,300,100,300,100,200,200,100,100,100,300,100,100,100,200,300,200,300,300,200,300,200,200,200,200,200,100,100,200,200,100,200,200,300],"left_num":[8,7,4,4,3,1,1,7,2,11,4,13,12,9,4,15,8,6,9,7,14,8,6,7,6,12,3,7,7,1,7,14,14,7,11,8,6,2,2,3,7,11,6,6,6,24,9,7,2,13,4,1,13,8,2,7,3,8,11,7,12,3,4,4,1,9,4,7,8,3,10,8,4,13,1,7,3,11,7,11,4,3,4,4,13,13,9,3,11,20,7,14,7,13,6,2,11,13,15,3,3,13,9,1,20,4,13,1,8,8,3,7,7,13,3,1,12,7,3,4],"right_num":[14,9,6,2,2,8,2,8,11,3,2,12,2,20,2,13,14,5,6,8,6,1,11,20,3,2,1,9,8,3,6,12,6,6,4,7,7,6,12,14,8,4,11,5,7,2,8,6,12,14,14,2,12,2,6,6,2,7,6,15,9,4,2,1,7,4,6,4,10,4,3,7,2,12,8,20,11,4,2,4,6,14,3,14,12,12,3,4,4,14,15,6,12,6,11,8,4,12,13,11,11,12,8,19,5,3,12,2,7,3,14,2,15,12,1,3,2,6,11,8],"left_den":[10,14,8,20,6,30,2,10,5,22,20,26,30,10,20,25,10,20,18,10,28,20,10,14,15,24,10,14,10,2,15,30,28,15,22,15,10,4,10,10,10,22,10,20,10,30,15,15,10,26,6,3,26,16,4,15,6,15,22,14,24,6,5,10,20,20,5,15,15,20,25,15,20,26,30,14,5,22,21,22,8,10,10,6,26,26,10,6,22,25,14,28,10,26,10,4,22,26,25,5,4,26,15,3,25,8,26,3,15,15,10,21,14,26,10,2,30,15,10,5],"right_den":[28,15,10,4,5,24,10,20,22,10,4,15,4,25,4,26,28,25,10,20,20,2,22,25,15,10,2,15,20,10,9,18,20,9,20,21,14,15,24,28,16,20,22,25,14,4,10,9,24,20,30,15,15,5,15,9,5,21,15,25,15,10,4,10,20,16,12,6,12,16,10,21,4,15,24,25,22,10,15,20,10,28,15,30,15,15,5,20,10,28,25,20,24,10,22,20,20,20,26,22,20,15,10,30,10,10,15,15,21,9,28,15,25,20,2,10,4,9,22,16],"correct_side":[1,2,2,2,1,2,1,1,2,1,2,2,2,1,2,1,1,1,2,1,1,2,1,2,1,1,2,2,1,1,2,2,1,2,1,1,1,1,2,2,1,1,1,1,1,1,2,2,2,2,1,1,2,1,1,2,1,1,1,2,2,1,1,1,2,1,1,2,2,2,1,1,2,2,2,2,1,1,1,1,2,2,1,1,2,2,1,1,1,1,2,1,1,2,1,1,1,2,1,1,1,2,2,2,1,1,2,1,1,1,2,1,2,2,2,1,2,2,2,1],"img_shown":["img2/300/Incongruent/L/I_Dist_300_LN_8_LD_10_RN_14_RD_28_0.png","img2/100/Congruent/R/C_Dist_100_LN_7_LD_14_RN_9_RD_15_1.png","img2/100/Congruent/R/C_Dist_100_LN_4_LD_8_RN_6_RD_10_1.png","img2/300/Incongruent/R/I_Dist_300_LN_4_LD_20_RN_2_RD_4_1.png","img2/100/Congruent/L/C_Dist_100_LN_3_LD_6_RN_2_RD_5_0.png","img2/300/Congruent/R/C_Dist_300_LN_1_LD_30_RN_8_RD_24_1.png","img2/300/Incongruent/L/I_Dist_300_LN_1_LD_2_RN_2_RD_10_0.png","img2/300/Incongruent/L/I_Dist_300_LN_7_LD_10_RN_8_RD_20_0.png","img2/100/Congruent/R/C_Dist_100_LN_2_LD_5_RN_11_RD_22_1.png","img2/200/Congruent/L/C_Dist_200_LN_11_LD_22_RN_3_RD_10_0.png","img2/300/Incongruent/R/I_Dist_300_LN_4_LD_20_RN_2_RD_4_1.png","img2/300/Incongruent/R/I_Dist_300_LN_13_LD_26_RN_12_RD_15_1.png","img2/100/Incongruent/R/I_Dist_100_LN_12_LD_30_RN_2_RD_4_1.png","img2/100/Incongruent/L/I_Dist_100_LN_9_LD_10_RN_20_RD_25_0.png","img2/300/Incongruent/R/I_Dist_300_LN_4_LD_20_RN_2_RD_4_1.png","img2/100/Congruent/L/C_Dist_100_LN_15_LD_25_RN_13_RD_26_0.png","img2/300/Incongruent/L/I_Dist_300_LN_8_LD_10_RN_14_RD_28_0.png","img2/100/Congruent/L/C_Dist_100_LN_6_LD_20_RN_5_RD_25_0.png","img2/100/Incongruent/R/I_Dist_100_LN_9_LD_18_RN_6_RD_10_1.png","img2/300/Incongruent/L/I_Dist_300_LN_7_LD_10_RN_8_RD_20_0.png","img2/200/Congruent/L/C_Dist_200_LN_14_LD_28_RN_6_RD_20_0.png","img2/100/Incongruent/R/I_Dist_100_LN_8_LD_20_RN_1_RD_2_1.png","img2/100/Incongruent/L/I_Dist_100_LN_6_LD_10_RN_11_RD_22_0.png","img2/300/Congruent/R/C_Dist_300_LN_7_LD_14_RN_20_RD_25_1.png","img2/200/Congruent/L/C_Dist_200_LN_6_LD_15_RN_3_RD_15_0.png","img2/300/Congruent/L/C_Dist_300_LN_12_LD_24_RN_2_RD_10_0.png","img2/200/Incongruent/R/I_Dist_200_LN_3_LD_10_RN_1_RD_2_1.png","img2/100/Congruent/R/C_Dist_100_LN_7_LD_14_RN_9_RD_15_1.png","img2/300/Incongruent/L/I_Dist_300_LN_7_LD_10_RN_8_RD_20_0.png","img2/200/Incongruent/L/I_Dist_200_LN_1_LD_2_RN_3_RD_10_0.png","img2/200/Incongruent/R/I_Dist_200_LN_7_LD_15_RN_6_RD_9_1.png","img2/200/Incongruent/R/I_Dist_200_LN_14_LD_30_RN_12_RD_18_1.png","img2/200/Congruent/L/C_Dist_200_LN_14_LD_28_RN_6_RD_20_0.png","img2/200/Incongruent/R/I_Dist_200_LN_7_LD_15_RN_6_RD_9_1.png","img2/300/Congruent/L/C_Dist_300_LN_11_LD_22_RN_4_RD_20_0.png","img2/200/Congruent/L/C_Dist_200_LN_8_LD_15_RN_7_RD_21_0.png","img2/100/Incongruent/L/I_Dist_100_LN_6_LD_10_RN_7_RD_14_0.png","img2/100/Incongruent/L/I_Dist_100_LN_2_LD_4_RN_6_RD_15_0.png","img2/300/Congruent/R/C_Dist_300_LN_2_LD_10_RN_12_RD_24_1.png","img2/200/Congruent/R/C_Dist_200_LN_3_LD_10_RN_14_RD_28_1.png","img2/200/Incongruent/L/I_Dist_200_LN_7_LD_10_RN_8_RD_16_0.png","img2/300/Congruent/L/C_Dist_300_LN_11_LD_22_RN_4_RD_20_0.png","img2/100/Incongruent/L/I_Dist_100_LN_6_LD_10_RN_11_RD_22_0.png","img2/100/Congruent/L/C_Dist_100_LN_6_LD_20_RN_5_RD_25_0.png","img2/100/Incongruent/L/I_Dist_100_LN_6_LD_10_RN_7_RD_14_0.png","img2/300/Congruent/L/C_Dist_300_LN_24_LD_30_RN_2_RD_4_0.png","img2/200/Incongruent/R/I_Dist_200_LN_9_LD_15_RN_8_RD_10_1.png","img2/200/Incongruent/R/I_Dist_200_LN_7_LD_15_RN_6_RD_9_1.png","img2/300/Congruent/R/C_Dist_300_LN_2_LD_10_RN_12_RD_24_1.png","img2/200/Congruent/R/C_Dist_200_LN_13_LD_26_RN_14_RD_20_1.png","img2/200/Incongruent/L/I_Dist_200_LN_4_LD_6_RN_14_RD_30_0.png","img2/200/Incongruent/L/I_Dist_200_LN_1_LD_3_RN_2_RD_15_0.png","img2/300/Incongruent/R/I_Dist_300_LN_13_LD_26_RN_12_RD_15_1.png","img2/100/Congruent/L/C_Dist_100_LN_8_LD_16_RN_2_RD_5_0.png","img2/100/Incongruent/L/I_Dist_100_LN_2_LD_4_RN_6_RD_15_0.png","img2/200/Incongruent/R/I_Dist_200_LN_7_LD_15_RN_6_RD_9_1.png","img2/100/Congruent/L/C_Dist_100_LN_3_LD_6_RN_2_RD_5_0.png","img2/200/Congruent/L/C_Dist_200_LN_8_LD_15_RN_7_RD_21_0.png","img2/100/Congruent/L/C_Dist_100_LN_11_LD_22_RN_6_RD_15_0.png","img2/100/Congruent/R/C_Dist_100_LN_7_LD_14_RN_15_RD_25_1.png","img2/100/Incongruent/R/I_Dist_100_LN_12_LD_24_RN_9_RD_15_1.png","img2/100/Incongruent/L/I_Dist_100_LN_3_LD_6_RN_4_RD_10_0.png","img2/300/Congruent/L/C_Dist_300_LN_4_LD_5_RN_2_RD_4_0.png","img2/300/Congruent/L/C_Dist_300_LN_4_LD_10_RN_1_RD_10_0.png","img2/300/Congruent/R/C_Dist_300_LN_1_LD_20_RN_7_RD_20_1.png","img2/200/Congruent/L/C_Dist_200_LN_9_LD_20_RN_4_RD_16_0.png","img2/300/Incongruent/L/I_Dist_300_LN_4_LD_5_RN_6_RD_12_0.png","img2/200/Incongruent/R/I_Dist_200_LN_7_LD_15_RN_4_RD_6_1.png","img2/300/Congruent/R/C_Dist_300_LN_8_LD_15_RN_10_RD_12_1.png","img2/100/Congruent/R/C_Dist_100_LN_3_LD_20_RN_4_RD_16_1.png","img2/100/Congruent/L/C_Dist_100_LN_10_LD_25_RN_3_RD_10_0.png","img2/200/Congruent/L/C_Dist_200_LN_8_LD_15_RN_7_RD_21_0.png","img2/300/Incongruent/R/I_Dist_300_LN_4_LD_20_RN_2_RD_4_1.png","img2/300/Incongruent/R/I_Dist_300_LN_13_LD_26_RN_12_RD_15_1.png","img2/300/Congruent/R/C_Dist_300_LN_1_LD_30_RN_8_RD_24_1.png","img2/300/Congruent/R/C_Dist_300_LN_7_LD_14_RN_20_RD_25_1.png","img2/100/Incongruent/L/I_Dist_100_LN_3_LD_5_RN_11_RD_22_0.png","img2/100/Congruent/L/C_Dist_100_LN_11_LD_22_RN_4_RD_10_0.png","img2/200/Congruent/L/C_Dist_200_LN_7_LD_21_RN_2_RD_15_0.png","img2/300/Congruent/L/C_Dist_300_LN_11_LD_22_RN_4_RD_20_0.png","img2/100/Congruent/R/C_Dist_100_LN_4_LD_8_RN_6_RD_10_1.png","img2/200/Congruent/R/C_Dist_200_LN_3_LD_10_RN_14_RD_28_1.png","img2/200/Congruent/L/C_Dist_200_LN_4_LD_10_RN_3_RD_15_0.png","img2/200/Incongruent/L/I_Dist_200_LN_4_LD_6_RN_14_RD_30_0.png","img2/300/Incongruent/R/I_Dist_300_LN_13_LD_26_RN_12_RD_15_1.png","img2/300/Incongruent/R/I_Dist_300_LN_13_LD_26_RN_12_RD_15_1.png","img2/300/Congruent/L/C_Dist_300_LN_9_LD_10_RN_3_RD_5_0.png","img2/300/Incongruent/L/I_Dist_300_LN_3_LD_6_RN_4_RD_20_0.png","img2/100/Congruent/L/C_Dist_100_LN_11_LD_22_RN_4_RD_10_0.png","img2/300/Congruent/L/C_Dist_300_LN_20_LD_25_RN_14_RD_28_0.png","img2/100/Congruent/R/C_Dist_100_LN_7_LD_14_RN_15_RD_25_1.png","img2/200/Congruent/L/C_Dist_200_LN_14_LD_28_RN_6_RD_20_0.png","img2/200/Incongruent/L/I_Dist_200_LN_7_LD_10_RN_12_RD_24_0.png","img2/100/Incongruent/R/I_Dist_100_LN_13_LD_26_RN_6_RD_10_1.png","img2/100/Incongruent/L/I_Dist_100_LN_6_LD_10_RN_11_RD_22_0.png","img2/100/Incongruent/L/I_Dist_100_LN_2_LD_4_RN_8_RD_20_0.png","img2/300/Congruent/L/C_Dist_300_LN_11_LD_22_RN_4_RD_20_0.png","img2/100/Incongruent/R/I_Dist_100_LN_13_LD_26_RN_12_RD_20_1.png","img2/100/Congruent/L/C_Dist_100_LN_15_LD_25_RN_13_RD_26_0.png","img2/100/Incongruent/L/I_Dist_100_LN_3_LD_5_RN_11_RD_22_0.png","img2/200/Incongruent/L/I_Dist_200_LN_3_LD_4_RN_11_RD_20_0.png","img2/300/Incongruent/R/I_Dist_300_LN_13_LD_26_RN_12_RD_15_1.png","img2/200/Incongruent/R/I_Dist_200_LN_9_LD_15_RN_8_RD_10_1.png","img2/300/Congruent/R/C_Dist_300_LN_1_LD_3_RN_19_RD_30_1.png","img2/300/Congruent/L/C_Dist_300_LN_20_LD_25_RN_5_RD_10_0.png","img2/200/Congruent/L/C_Dist_200_LN_4_LD_8_RN_3_RD_10_0.png","img2/300/Incongruent/R/I_Dist_300_LN_13_LD_26_RN_12_RD_15_1.png","img2/200/Incongruent/L/I_Dist_200_LN_1_LD_3_RN_2_RD_15_0.png","img2/200/Congruent/L/C_Dist_200_LN_8_LD_15_RN_7_RD_21_0.png","img2/200/Congruent/L/C_Dist_200_LN_8_LD_15_RN_3_RD_9_0.png","img2/200/Congruent/R/C_Dist_200_LN_3_LD_10_RN_14_RD_28_1.png","img2/200/Congruent/L/C_Dist_200_LN_7_LD_21_RN_2_RD_15_0.png","img2/100/Congruent/R/C_Dist_100_LN_7_LD_14_RN_15_RD_25_1.png","img2/100/Incongruent/R/I_Dist_100_LN_13_LD_26_RN_12_RD_20_1.png","img2/200/Incongruent/R/I_Dist_200_LN_3_LD_10_RN_1_RD_2_1.png","img2/200/Incongruent/L/I_Dist_200_LN_1_LD_2_RN_3_RD_10_0.png","img2/100/Incongruent/R/I_Dist_100_LN_12_LD_30_RN_2_RD_4_1.png","img2/200/Incongruent/R/I_Dist_200_LN_7_LD_15_RN_6_RD_9_1.png","img2/200/Congruent/R/C_Dist_200_LN_3_LD_10_RN_11_RD_22_1.png","img2/300/Incongruent/L/I_Dist_300_LN_4_LD_5_RN_8_RD_16_0.png"],"dist100_C":[["C_Dist_100_LN_10_LD_25_RN_3_RD_10_0.png","C_Dist_100_LN_11_LD_22_RN_4_RD_10_0.png","C_Dist_100_LN_11_LD_22_RN_6_RD_15_0.png","C_Dist_100_LN_15_LD_25_RN_13_RD_26_0.png","C_Dist_100_LN_3_LD_6_RN_2_RD_5_0.png","C_Dist_100_LN_6_LD_20_RN_5_RD_25_0.png","C_Dist_100_LN_8_LD_16_RN_2_RD_5_0.png","C_Dist_100_LN_9_LD_15_RN_8_RD_16_0.png"],["C_Dist_100_LN_1_LD_2_RN_18_RD_30_1.png","C_Dist_100_LN_1_LD_2_RN_3_RD_5_1.png","C_Dist_100_LN_12_LD_30_RN_13_RD_26_1.png","C_Dist_100_LN_2_LD_5_RN_11_RD_22_1.png","C_Dist_100_LN_2_LD_5_RN_6_RD_12_1.png","C_Dist_100_LN_3_LD_20_RN_4_RD_16_1.png","C_Dist_100_LN_4_LD_10_RN_15_RD_30_1.png","C_Dist_100_LN_4_LD_8_RN_6_RD_10_1.png","C_Dist_100_LN_6_LD_12_RN_15_RD_25_1.png","C_Dist_100_LN_7_LD_14_RN_15_RD_25_1.png","C_Dist_100_LN_7_LD_14_RN_9_RD_15_1.png"]],"dist100_I":[["I_Dist_100_LN_1_LD_2_RN_8_RD_20_0.png","I_Dist_100_LN_2_LD_4_RN_6_RD_15_0.png","I_Dist_100_LN_2_LD_4_RN_8_RD_20_0.png","I_Dist_100_LN_3_LD_5_RN_11_RD_22_0.png","I_Dist_100_LN_3_LD_5_RN_8_RD_16_0.png","I_Dist_100_LN_3_LD_6_RN_4_RD_10_0.png","I_Dist_100_LN_3_LD_9_RN_7_RD_30_0.png","I_Dist_100_LN_4_LD_8_RN_8_RD_20_0.png","I_Dist_100_LN_6_LD_10_RN_11_RD_22_0.png","I_Dist_100_LN_6_LD_10_RN_13_RD_26_0.png","I_Dist_100_LN_6_LD_10_RN_7_RD_14_0.png","I_Dist_100_LN_9_LD_10_RN_20_RD_25_0.png","I_Dist_100_LN_9_LD_15_RN_13_RD_26_0.png","I_Dist_100_LN_9_LD_15_RN_14_RD_28_0.png"],["I_Dist_100_LN_10_LD_25_RN_8_RD_16_1.png","I_Dist_100_LN_10_LD_25_RN_9_RD_18_1.png","I_Dist_100_LN_11_LD_22_RN_9_RD_15_1.png","I_Dist_100_LN_12_LD_24_RN_9_RD_15_1.png","I_Dist_100_LN_12_LD_30_RN_2_RD_4_1.png","I_Dist_100_LN_13_LD_26_RN_12_RD_20_1.png","I_Dist_100_LN_13_LD_26_RN_6_RD_10_1.png","I_Dist_100_LN_17_LD_30_RN_10_RD_15_1.png","I_Dist_100_LN_6_LD_12_RN_3_RD_5_1.png","I_Dist_100_LN_8_LD_16_RN_6_RD_10_1.png","I_Dist_100_LN_8_LD_20_RN_1_RD_2_1.png","I_Dist_100_LN_9_LD_18_RN_6_RD_10_1.png"]],"dist100_S":[["E_Dist_100_LN_2_LD_12_RN_2_RD_30_0.png","E_Dist_100_LN_6_LD_10_RN_6_RD_12_0.png"],["E_Dist_100_LN_6_LD_12_RN_6_RD_10_1.png"]],"dist200_C":[["C_Dist_200_LN_11_LD_22_RN_3_RD_10_0.png","C_Dist_200_LN_12_LD_15_RN_6_RD_10_0.png","C_Dist_200_LN_12_LD_20_RN_6_RD_15_0.png","C_Dist_200_LN_14_LD_28_RN_6_RD_20_0.png","C_Dist_200_LN_15_LD_25_RN_4_RD_10_0.png","C_Dist_200_LN_16_LD_20_RN_12_RD_20_0.png","C_Dist_200_LN_16_LD_30_RN_9_RD_27_0.png","C_Dist_200_LN_20_LD_25_RN_9_RD_15_0.png","C_Dist_200_LN_21_LD_30_RN_2_RD_4_0.png","C_Dist_200_LN_4_LD_10_RN_3_RD_15_0.png","C_Dist_200_LN_4_LD_8_RN_3_RD_10_0.png","C_Dist_200_LN_6_LD_15_RN_3_RD_15_0.png","C_Dist_200_LN_7_LD_21_RN_2_RD_15_0.png","C_Dist_200_LN_8_LD_15_RN_2_RD_6_0.png","C_Dist_200_LN_8_LD_15_RN_3_RD_9_0.png","C_Dist_200_LN_8_LD_15_RN_7_RD_21_0.png","C_Dist_200_LN_9_LD_20_RN_4_RD_16_0.png"],["C_Dist_200_LN_1_LD_2_RN_21_RD_30_1.png","C_Dist_200_LN_13_LD_26_RN_14_RD_20_1.png","C_Dist_200_LN_3_LD_10_RN_11_RD_22_1.png","C_Dist_200_LN_3_LD_10_RN_14_RD_28_1.png","C_Dist_200_LN_3_LD_10_RN_7_RD_14_1.png","C_Dist_200_LN_3_LD_12_RN_9_RD_20_1.png","C_Dist_200_LN_3_LD_6_RN_14_RD_20_1.png","C_Dist_200_LN_5_LD_10_RN_14_RD_20_1.png","C_Dist_200_LN_6_LD_12_RN_7_RD_10_1.png","C_Dist_200_LN_6_LD_20_RN_11_RD_22_1.png","C_Dist_200_LN_7_LD_15_RN_18_RD_27_1.png","C_Dist_200_LN_9_LD_30_RN_13_RD_26_1.png"]],"dist200_I":[["I_Dist_200_LN_1_LD_2_RN_3_RD_10_0.png","I_Dist_200_LN_1_LD_3_RN_2_RD_15_0.png","I_Dist_200_LN_3_LD_4_RN_11_RD_20_0.png","I_Dist_200_LN_4_LD_5_RN_6_RD_10_0.png","I_Dist_200_LN_4_LD_6_RN_14_RD_30_0.png","I_Dist_200_LN_7_LD_10_RN_12_RD_24_0.png","I_Dist_200_LN_7_LD_10_RN_14_RD_28_0.png","I_Dist_200_LN_7_LD_10_RN_8_RD_16_0.png"],["I_Dist_200_LN_11_LD_20_RN_3_RD_4_1.png","I_Dist_200_LN_14_LD_30_RN_12_RD_18_1.png","I_Dist_200_LN_14_LD_30_RN_6_RD_9_1.png","I_Dist_200_LN_3_LD_10_RN_1_RD_2_1.png","I_Dist_200_LN_4_LD_30_RN_1_RD_3_1.png","I_Dist_200_LN_6_LD_20_RN_3_RD_6_1.png","I_Dist_200_LN_7_LD_15_RN_4_RD_6_1.png","I_Dist_200_LN_7_LD_15_RN_6_RD_9_1.png","I_Dist_200_LN_9_LD_15_RN_8_RD_10_1.png"]],"dist200_S":[["E_Dist_200_LN_3_LD_6_RN_3_RD_10_0.png"],["E_Dist_200_LN_3_LD_10_RN_3_RD_6_1.png"]],"dist300_C":[["C_Dist_300_LN_11_LD_22_RN_1_RD_5_0.png","C_Dist_300_LN_11_LD_22_RN_2_RD_10_0.png","C_Dist_300_LN_11_LD_22_RN_4_RD_20_0.png","C_Dist_300_LN_12_LD_24_RN_2_RD_10_0.png","C_Dist_300_LN_18_LD_20_RN_9_RD_15_0.png","C_Dist_300_LN_20_LD_25_RN_13_RD_26_0.png","C_Dist_300_LN_20_LD_25_RN_14_RD_28_0.png","C_Dist_300_LN_20_LD_25_RN_5_RD_10_0.png","C_Dist_300_LN_20_LD_25_RN_8_RD_16_0.png","C_Dist_300_LN_20_LD_25_RN_9_RD_18_0.png","C_Dist_300_LN_24_LD_30_RN_2_RD_4_0.png","C_Dist_300_LN_24_LD_30_RN_8_RD_16_0.png","C_Dist_300_LN_3_LD_6_RN_2_RD_10_0.png","C_Dist_300_LN_4_LD_10_RN_1_RD_10_0.png","C_Dist_300_LN_4_LD_5_RN_2_RD_4_0.png","C_Dist_300_LN_8_LD_16_RN_1_RD_5_0.png","C_Dist_300_LN_9_LD_10_RN_3_RD_5_0.png"],["C_Dist_300_LN_1_LD_20_RN_7_RD_20_1.png","C_Dist_300_LN_1_LD_3_RN_19_RD_30_1.png","C_Dist_300_LN_1_LD_30_RN_8_RD_24_1.png","C_Dist_300_LN_1_LD_5_RN_11_RD_22_1.png","C_Dist_300_LN_1_LD_5_RN_3_RD_6_1.png","C_Dist_300_LN_1_LD_5_RN_6_RD_12_1.png","C_Dist_300_LN_2_LD_10_RN_12_RD_24_1.png","C_Dist_300_LN_2_LD_20_RN_10_RD_25_1.png","C_Dist_300_LN_3_LD_12_RN_11_RD_20_1.png","C_Dist_300_LN_3_LD_6_RN_4_RD_5_1.png","C_Dist_300_LN_4_LD_20_RN_13_RD_26_1.png","C_Dist_300_LN_5_LD_25_RN_6_RD_12_1.png","C_Dist_300_LN_5_LD_25_RN_7_RD_14_1.png","C_Dist_300_LN_7_LD_14_RN_20_RD_25_1.png","C_Dist_300_LN_8_LD_15_RN_10_RD_12_1.png"]],"dist300_I":[["I_Dist_300_LN_1_LD_2_RN_2_RD_10_0.png","I_Dist_300_LN_1_LD_2_RN_3_RD_15_0.png","I_Dist_300_LN_2_LD_4_RN_6_RD_30_0.png","I_Dist_300_LN_3_LD_6_RN_4_RD_20_0.png","I_Dist_300_LN_4_LD_5_RN_6_RD_12_0.png","I_Dist_300_LN_4_LD_5_RN_8_RD_16_0.png","I_Dist_300_LN_7_LD_10_RN_8_RD_20_0.png","I_Dist_300_LN_8_LD_10_RN_14_RD_28_0.png","I_Dist_300_LN_8_LD_10_RN_9_RD_18_0.png"],["I_Dist_300_LN_13_LD_26_RN_12_RD_15_1.png","I_Dist_300_LN_4_LD_20_RN_2_RD_4_1.png"]],"dist300_S":[["E_Dist_300_LN_9_LD_12_RN_9_RD_20_0.png"],["E_Dist_300_LN_18_LD_30_RN_18_RD_20_1.png","E_Dist_300_LN_3_LD_10_RN_3_RD_5_1.png","E_Dist_300_LN_9_LD_20_RN_9_RD_12_1.png"]],"dist500_C":[["C_Dist_500_LN_10_LD_13_RN_7_RD_26_0.png","C_Dist_500_LN_10_LD_15_RN_4_RD_24_0.png","C_Dist_500_LN_12_LD_16_RN_3_RD_12_0.png","C_Dist_500_LN_12_LD_18_RN_4_RD_24_0.png","C_Dist_500_LN_15_LD_18_RN_5_RD_15_0.png","C_Dist_500_LN_15_LD_20_RN_1_RD_4_0.png","C_Dist_500_LN_18_LD_27_RN_1_RD_6_0.png","C_Dist_500_LN_20_LD_24_RN_1_RD_3_0.png","C_Dist_500_LN_20_LD_24_RN_3_RD_9_0.png","C_Dist_500_LN_20_LD_24_RN_7_RD_21_0.png","C_Dist_500_LN_20_LD_28_RN_3_RD_14_0.png","C_Dist_500_LN_21_LD_28_RN_6_RD_24_0.png","C_Dist_500_LN_22_LD_28_RN_2_RD_7_0.png","C_Dist_500_LN_25_LD_30_RN_9_RD_27_0.png","C_Dist_500_LN_4_LD_6_RN_1_RD_6_0.png","C_Dist_500_LN_5_LD_6_RN_2_RD_6_0.png","C_Dist_500_LN_6_LD_9_RN_1_RD_6_0.png","C_Dist_500_LN_7_LD_10_RN_1_RD_5_0.png","C_Dist_500_LN_8_LD_12_RN_1_RD_6_0.png","C_Dist_500_LN_8_LD_12_RN_4_RD_24_0.png"],["C_Dist_500_LN_1_LD_4_RN_12_RD_16_1.png","C_Dist_500_LN_1_LD_4_RN_9_RD_12_1.png","C_Dist_500_LN_1_LD_9_RN_11_RD_18_1.png","C_Dist_500_LN_10_LD_24_RN_22_RD_24_1.png","C_Dist_500_LN_2_LD_12_RN_10_RD_15_1.png","C_Dist_500_LN_2_LD_12_RN_12_RD_18_1.png","C_Dist_500_LN_2_LD_12_RN_4_RD_6_1.png","C_Dist_500_LN_2_LD_24_RN_7_RD_12_1.png","C_Dist_500_LN_2_LD_5_RN_18_RD_20_1.png","C_Dist_500_LN_2_LD_5_RN_9_RD_10_1.png","C_Dist_500_LN_2_LD_8_RN_12_RD_16_1.png","C_Dist_500_LN_2_LD_8_RN_21_RD_28_1.png","C_Dist_500_LN_3_LD_10_RN_4_RD_5_1.png","C_Dist_500_LN_3_LD_12_RN_15_RD_20_1.png","C_Dist_500_LN_3_LD_30_RN_6_RD_10_1.png","C_Dist_500_LN_3_LD_8_RN_14_RD_16_1.png","C_Dist_500_LN_4_LD_16_RN_15_RD_20_1.png","C_Dist_500_LN_4_LD_24_RN_12_RD_18_1.png","C_Dist_500_LN_5_LD_14_RN_6_RD_7_1.png","C_Dist_500_LN_7_LD_21_RN_20_RD_24_1.png","C_Dist_500_LN_7_LD_28_RN_12_RD_16_1.png","C_Dist_500_LN_7_LD_28_RN_9_RD_12_1.png","C_Dist_500_LN_9_LD_27_RN_20_RD_24_1.png"]],"dist500_I":[["I_Dist_500_LN_2_LD_3_RN_4_RD_24_0.png","I_Dist_500_LN_5_LD_6_RN_6_RD_18_0.png","I_Dist_500_LN_7_LD_8_RN_9_RD_24_0.png"],["I_Dist_500_LN_7_LD_21_RN_5_RD_6_1.png"]],"dist500_S":[["E_Dist_500_LN_6_LD_8_RN_6_RD_24_0.png"],["E_Dist_500_LN_2_LD_12_RN_2_RD_3_1.png","E_Dist_500_LN_6_LD_24_RN_6_RD_8_1.png"]]}},{"start_time":1552073330270,"click_time":1552073334398,"finger_time":1552073330796,"fix_duration":1452.391050449162,"trial":1,"RT":526,"MT":3602,"sideResp":2,"stimulus":[],"xmouse":[769,769,771,772,773,774,774,774,774,774,774,774,774,774,775,776,780,781,783,783,783,783,783,783,784,784,784,785,787,788,789,791,791,791,791,791,791,791,791,791,791,791,791,791,792,792,792,792,792,793,793,793,793,793,793,793,794,794,794,794,794,794,794,794,795,795,795,795,796,796,796,796,796,797,797,797,797,797,797,797,797,797,797,797,797,797,797,797,797,797,797,797,797,797,797,797,797,797,797,797,797,797,797,797,797,797,798,799,800,802,808,813,814,815,816,818,819,819,819,819,819,819,819,819,819,819,821,822,823,824,825,827,827,828,828,828,828,828,828,828,828,828,828,829,833,835,829,819,815,813,811,807,803,800,797,791,743,722,704,686,671,642,627,615,606,602,596,590,583,575,570,569,568,568,568,568,568,568,568,568,571,594,617,646,676,700,746,767,784,802,820,864,886,908,929,945,971,985,993,1000,1009,1028,1041,1049,1056,1062],"ymouse":[634,634,631,629,628,627,627,627,627,627,627,627,627,627,627,626,618,608,595,588,583,579,577,576,575,573,573,568,560,550,540,529,527,526,526,526,526,526,526,526,526,526,526,526,525,524,523,521,520,519,518,516,515,514,513,513,512,511,509,508,506,504,503,502,501,501,500,498,497,497,495,492,491,490,489,488,486,485,484,483,483,482,481,480,480,479,479,479,478,476,476,475,475,475,475,475,475,475,475,475,473,472,470,469,469,468,465,462,459,453,445,434,430,428,426,422,419,417,417,416,416,416,416,416,415,414,407,404,401,398,395,391,389,388,388,388,388,388,388,388,388,388,385,378,336,276,192,169,161,157,153,147,143,141,140,138,125,118,113,108,103,90,81,73,66,63,59,55,51,48,47,46,46,46,46,46,46,46,46,46,46,50,57,65,74,81,93,98,100,103,105,109,110,110,110,110,110,107,104,101,97,87,81,79,77,75],"timestamp_mouse":[5,27,72,86,106,126,147,165,187,206,226,245,267,286,305,326,346,367,385,406,425,446,467,487,507,526,546,566,586,606,626,645,665,685,707,727,747,767,787,807,827,846,866,885,905,927,946,966,987,1007,1027,1046,1066,1086,1106,1127,1146,1167,1187,1206,1226,1246,1266,1286,1307,1325,1346,1366,1387,1406,1427,1446,1466,1486,1506,1527,1545,1566,1586,1606,1625,1646,1666,1687,1707,1727,1747,1767,1787,1806,1827,1846,1866,1887,1906,1926,1946,1966,1987,2007,2026,2045,2065,2087,2105,2126,2146,2167,2186,2206,2227,2247,2267,2285,2305,2327,2345,2366,2385,2406,2426,2447,2467,2487,2507,2527,2546,2566,2586,2606,2626,2646,2665,2686,2707,2726,2745,2766,2787,2807,2827,2847,2866,2886,2906,2927,2945,2966,2986,3006,3026,3045,3066,3087,3106,3127,3146,3167,3185,3207,3226,3246,3266,3286,3305,3327,3347,3366,3386,3406,3427,3446,3466,3486,3506,3526,3546,3566,3587,3606,3625,3646,3666,3686,3705,3725,3746,3766,3786,3807,3826,3846,3866,3886,3906,3926,3946,3967,3986,4005,4025,4046,4065,4086,4106,4127],"xSR":741.5,"ySR":573.95,"xT1":424.9,"yT1":0,"xT2":1058.1,"yT2":0,"toosoon":0,"cond_shown":"Congruent","ratio_trial":100,"L_num":7,"L_den":14,"R_num":9,"R_den":15,"correct_side":2,"subjID":"isabellasanchezvargas6","gender":"1","school":"4","age":"9"},{"start_time":1552073336516,"click_time":1552073337818,"finger_time":1552073337016,"fix_duration":438.5842018268237,"trial":2,"RT":500,"MT":802,"sideResp":2,"stimulus":[],"xmouse":[786,786,786,786,786,786,786,786,786,786,786,786,786,786,786,786,786,786,786,786,787,787,787,788,790,791,792,793,793,795,799,802,802,802,803,805,805,805,806,807,809,810,812,816,821,846,893,923,950,970,1019,1043,1063,1085,1103,1137,1145,1149,1150,1150,1150,1150,1150,1150,1150,1145],"ymouse":[603,603,603,603,603,603,603,603,603,603,603,603,603,603,603,603,602,602,599,598,594,590,587,582,576,566,562,557,551,545,530,523,516,513,507,500,494,492,490,485,476,470,462,452,440,386,267,196,151,119,49,20,0,0,0,0,0,0,0,0,0,0,0,0,0,1],"timestamp_mouse":[2,20,40,60,81,100,121,141,161,179,201,221,240,261,281,299,321,339,360,379,400,419,440,460,480,500,520,540,561,580,600,620,640,661,681,700,720,740,760,780,800,820,840,860,880,900,919,940,960,980,1000,1019,1041,1060,1080,1100,1121,1141,1160,1181,1200,1220,1240,1260,1281,1301],"xSR":741.5,"ySR":573.95,"xT1":424.9,"yT1":0,"xT2":1058.1,"yT2":0,"toosoon":0,"cond_shown":"Congruent","ratio_trial":100,"L_num":4,"L_den":8,"R_num":6,"R_den":10,"correct_side":2,"subjID":"isabellasanchezvargas6","gender":"1","school":"4","age":"9"},{"start_time":1552073340749,"click_time":1552073342956,"finger_time":1552073341116,"fix_duration":250,"trial":3,"RT":367,"MT":1840,"sideResp":2,"stimulus":[],"xmouse":[809,809,809,809,809,809,809,809,809,809,809,809,809,809,809,812,816,823,846,858,866,871,873,873,873,873,873,873,873,873,873,873,873,873,873,873,873,873,873,873,872,872,872,865,862,857,851,846,837,833,824,821,814,802,793,787,783,777,762,754,742,731,721,708,702,701,701,701,701,700,700,700,700,700,700,700,700,700,700,700,700,700,700,700,706,728,753,781,836,860,885,910,931,944,960,966,973,978,989,994,996,999,1002,1014,1019,1025,1029,1035,1048,1056,1065],"ymouse":[648,648,648,648,647,647,646,646,646,646,646,646,646,646,644,642,639,634,616,604,593,583,576,571,571,571,571,571,571,571,571,571,571,571,571,571,571,571,559,554,545,532,519,461,441,424,409,396,371,356,327,318,299,271,254,246,238,228,196,178,157,138,122,101,95,93,92,92,92,92,92,92,92,92,92,92,92,92,92,92,92,92,92,92,92,92,95,102,118,125,131,134,137,139,140,138,137,134,125,120,116,110,106,94,90,87,84,83,79,76,74],"timestamp_mouse":[19,40,48,67,87,108,127,147,167,187,207,226,247,268,288,306,328,347,367,386,407,427,446,466,487,507,527,548,567,588,608,626,646,666,687,707,728,747,767,786,808,827,847,867,887,907,927,947,967,986,1006,1027,1048,1067,1087,1107,1127,1147,1167,1186,1207,1227,1247,1266,1286,1307,1327,1348,1367,1388,1408,1427,1448,1467,1487,1507,1527,1547,1567,1586,1607,1628,1648,1668,1688,1707,1728,1748,1766,1786,1807,1827,1846,1867,1887,1907,1928,1947,1967,1987,2008,2027,2048,2067,2087,2107,2126,2147,2167,2188,2207],"xSR":741.5,"ySR":573.95,"xT1":424.9,"yT1":0,"xT2":1058.1,"yT2":0,"toosoon":0,"cond_shown":"Incongruent","ratio_trial":300,"L_num":4,"L_den":20,"R_num":2,"R_den":4,"correct_side":2,"subjID":"isabellasanchezvargas6","gender":"1","school":"4","age":"9"},{"start_time":1552073345588,"click_time":1552073347975,"finger_time":1552073347376,"fix_duration":1430.899707148463,"trial":4,"RT":1788,"MT":599,"sideResp":1,"stimulus":[],"xmouse":[761,761,761,761,761,761,761,761,761,761,761,761,761,761,761,761,761,761,762,762,763,764,765,765,765,766,766,767,767,767,768,769,770,771,773,774,775,776,776,776,776,776,776,776,776,776,776,776,776,776,776,776,776,776,776,776,776,776,776,776,776,776,776,776,776,776,776,776,776,776,776,776,776,776,776,776,776,776,777,777,777,777,779,781,782,783,788,793,802,813,829,874,880,881,881,879,870,859,845,830,813,778,769,760,749,740,713,699,683,661,639,594,569,557,551,547,536,531,527,524],"ymouse":[619,619,619,619,619,619,619,619,619,619,619,619,619,619,619,619,619,619,619,619,619,619,619,619,619,619,619,619,619,619,618,618,617,617,616,615,614,614,614,614,614,614,614,614,614,614,614,614,614,614,614,614,614,614,614,614,614,614,614,614,614,614,614,614,614,614,614,614,614,614,614,614,614,614,614,614,614,614,613,613,613,613,611,610,609,608,601,590,574,550,515,327,273,248,233,224,201,181,159,139,120,91,86,80,78,75,70,67,61,56,50,42,35,34,33,32,32,32,32,32],"timestamp_mouse":[12,40,49,69,87,108,128,149,168,189,209,228,248,268,289,308,328,347,368,388,407,429,449,467,489,509,528,549,568,588,609,627,648,667,688,708,729,747,769,788,809,829,849,869,888,908,929,949,969,988,1008,1029,1049,1069,1088,1109,1129,1147,1169,1188,1208,1228,1249,1269,1288,1308,1328,1349,1369,1388,1409,1429,1447,1468,1488,1509,1528,1547,1569,1588,1608,1627,1648,1667,1688,1708,1728,1747,1767,1788,1809,1828,1847,1868,1888,1909,1928,1947,1969,1988,2007,2028,2047,2068,2088,2108,2127,2147,2168,2188,2208,2228,2247,2268,2289,2308,2328,2347,2369,2387],"xSR":741.5,"ySR":573.95,"xT1":424.9,"yT1":0,"xT2":1058.1,"yT2":0,"toosoon":0,"cond_shown":"Congruent","ratio_trial":100,"L_num":3,"L_den":6,"R_num":2,"R_den":5,"correct_side":1,"subjID":"isabellasanchezvargas6","gender":"1","school":"4","age":"9"},{"start_time":1552073350742,"click_time":1552073352216,"finger_time":1552073351255,"fix_duration":1365.566802764664,"trial":5,"RT":513,"MT":961,"sideResp":2,"stimulus":[],"xmouse":[808,808,808,808,808,808,808,808,808,808,808,808,808,808,808,808,808,810,811,815,818,818,818,818,818,818,817,817,816,816,815,815,815,815,815,815,815,815,815,815,815,815,817,822,826,831,833,836,841,845,848,851,854,864,867,871,874,880,894,903,912,918,925,939,951,961,970,984,1008,1019,1033,1047,1058,1078],"ymouse":[616,616,616,616,616,616,616,616,616,616,616,616,616,616,616,616,616,614,613,608,603,599,594,583,578,570,565,562,556,551,545,538,529,507,494,486,481,477,466,458,444,431,414,380,357,320,300,282,250,238,228,216,207,183,178,169,160,152,131,122,113,109,104,98,94,92,91,87,83,80,77,73,70,67],"timestamp_mouse":[13,35,55,74,93,114,134,155,173,195,213,233,255,275,295,315,333,354,374,393,415,434,455,474,494,513,534,554,573,593,614,634,654,674,694,714,735,754,774,794,814,834,855,874,893,913,935,954,974,993,1014,1033,1053,1073,1095,1114,1135,1155,1174,1193,1215,1234,1253,1273,1294,1314,1335,1353,1373,1394,1415,1434,1455,1473],"xSR":741.5,"ySR":573.95,"xT1":424.9,"yT1":0,"xT2":1058.1,"yT2":0,"toosoon":0,"cond_shown":"Congruent","ratio_trial":300,"L_num":1,"L_den":30,"R_num":8,"R_den":24,"correct_side":2,"subjID":"isabellasanchezvargas6","gender":"1","school":"4","age":"9"},{"start_time":1552073354303,"click_time":1552073356116,"finger_time":1552073355596,"fix_duration":1245.3515746317764,"trial":6,"RT":1293,"MT":520,"sideResp":2,"stimulus":[],"xmouse":[781,781,781,781,781,781,781,781,781,781,781,781,781,781,781,781,781,781,781,781,781,781,781,781,781,781,781,781,781,781,781,781,781,781,781,781,781,781,781,781,781,781,781,781,781,781,781,781,781,781,781,782,783,783,784,784,786,786,786,786,788,789,789,790,791,795,798,803,812,820,833,841,846,853,861,884,897,916,923,929,937,941,944,948,951,961,973,985,1000,1018,1062],"ymouse":[652,652,652,652,652,652,652,652,652,652,652,652,652,652,652,652,652,652,652,652,652,652,652,652,652,652,652,652,652,652,652,652,652,652,652,652,652,652,652,652,652,652,652,652,652,652,652,652,651,647,637,632,628,624,620,616,610,607,603,598,590,585,580,574,566,547,522,495,462,435,380,355,335,316,294,243,216,181,166,152,138,134,130,125,122,115,108,101,92,80,55],"timestamp_mouse":[13,33,54,74,94,112,133,153,173,193,213,234,252,273,294,313,334,354,374,394,414,434,454,473,493,512,532,553,574,593,613,634,654,672,693,714,733,753,774,792,812,833,853,872,894,913,933,953,973,993,1014,1032,1052,1073,1093,1113,1134,1152,1173,1194,1212,1232,1253,1273,1293,1312,1333,1353,1372,1392,1413,1432,1454,1473,1492,1513,1533,1553,1573,1593,1613,1633,1653,1673,1694,1713,1733,1753,1773,1793,1813],"xSR":741.5,"ySR":573.95,"xT1":424.9,"yT1":0,"xT2":1058.1,"yT2":0,"toosoon":0,"cond_shown":"Incongruent","ratio_trial":300,"L_num":1,"L_den":2,"R_num":2,"R_den":10,"correct_side":1,"subjID":"isabellasanchezvargas6","gender":"1","school":"4","age":"9"},{"start_time":1552073359070,"click_time":1552073360856,"finger_time":1552073360415,"fix_duration":891.0433614552392,"trial":7,"RT":1345,"MT":441,"sideResp":2,"stimulus":[],"xmouse":[791,791,791,791,791,791,791,791,791,791,791,791,791,791,791,791,791,791,791,791,791,791,791,791,791,791,791,791,791,791,791,791,791,791,791,791,791,791,791,791,791,792,792,792,792,792,792,792,792,792,792,792,792,792,792,792,792,792,792,792,792,792,792,792,792,792,792,792,793,800,802,806,807,809,812,816,822,837,848,869,888,913,973,996,1013,1024,1032,1038,1048,1060],"ymouse":[650,650,650,650,650,650,650,650,650,650,650,650,650,650,650,650,650,650,650,650,650,650,650,650,650,650,650,650,650,650,650,650,650,650,650,650,650,650,650,650,642,636,634,633,632,632,632,632,632,632,632,632,632,632,632,632,632,632,632,632,632,632,629,620,612,600,584,550,533,499,474,449,407,387,369,350,328,286,263,229,204,177,130,114,102,94,88,81,72,65],"timestamp_mouse":[9,27,46,67,86,106,126,145,167,187,207,227,246,267,287,306,326,346,367,385,407,426,445,467,487,507,526,547,567,587,606,625,646,666,687,705,727,745,765,785,806,826,846,867,886,906,927,946,966,987,1007,1026,1046,1066,1086,1107,1127,1147,1166,1186,1207,1225,1246,1265,1287,1306,1326,1345,1367,1387,1406,1426,1446,1465,1486,1506,1526,1545,1565,1585,1607,1626,1645,1665,1687,1706,1725,1745,1767,1786],"xSR":741.5,"ySR":573.95,"xT1":424.9,"yT1":0,"xT2":1058.1,"yT2":0,"toosoon":0,"cond_shown":"Incongruent","ratio_trial":300,"L_num":7,"L_den":10,"R_num":8,"R_den":20,"correct_side":1,"subjID":"isabellasanchezvargas6","gender":"1","school":"4","age":"9"},{"start_time":1552073363190,"click_time":1552073364875,"finger_time":1552073364315,"fix_duration":791.8132774498736,"trial":8,"RT":1125,"MT":560,"sideResp":2,"stimulus":[],"xmouse":[766,766,766,766,766,766,766,766,766,766,766,766,766,766,766,766,766,766,766,766,766,766,766,767,767,767,767,767,767,767,767,767,768,768,768,768,768,768,768,768,768,768,768,768,768,768,768,768,768,768,768,768,768,768,769,771,775,779,786,795,804,817,822,831,838,849,878,898,914,929,943,970,990,1006,1041,1054,1063,1063,1063,1063,1063,1063,1063,1063,1064],"ymouse":[624,624,624,624,624,624,624,624,624,624,624,624,624,624,624,624,624,624,624,624,624,624,624,624,624,624,624,623,623,623,623,623,622,622,622,621,621,621,621,621,621,621,621,621,621,621,621,621,621,621,621,619,617,613,607,599,567,544,509,474,438,391,368,309,270,229,152,122,100,78,62,33,19,10,0,0,0,0,0,0,0,0,0,0,1],"timestamp_mouse":[9,41,45,66,86,105,127,145,165,187,206,227,246,266,285,305,326,347,366,386,406,427,447,465,485,506,527,547,567,587,606,625,647,665,687,706,725,747,767,786,807,826,846,867,887,906,926,947,967,985,1005,1025,1045,1065,1086,1106,1125,1145,1165,1185,1207,1225,1246,1265,1285,1305,1325,1345,1367,1386,1407,1426,1446,1467,1487,1507,1527,1545,1567,1586,1605,1626,1646,1667,1685],"xSR":741.5,"ySR":573.95,"xT1":424.9,"yT1":0,"xT2":1058.1,"yT2":0,"toosoon":0,"cond_shown":"Congruent","ratio_trial":100,"L_num":2,"L_den":5,"R_num":11,"R_den":22,"correct_side":2,"subjID":"isabellasanchezvargas6","gender":"1","school":"4","age":"9"},{"start_time":1552073366367,"click_time":1552073367616,"finger_time":1552073367197,"fix_duration":250,"trial":9,"RT":830,"MT":419,"sideResp":1,"stimulus":[],"xmouse":[764,764,764,764,764,764,764,764,764,764,764,764,764,764,764,764,764,764,764,764,764,764,764,764,764,764,764,764,764,764,764,764,764,764,764,764,764,767,773,782,789,796,802,818,822,823,824,825,825,825,825,823,821,819,818,816,808,760,711,656,604,564,492],"ymouse":[614,614,614,614,614,614,614,614,614,614,614,614,614,614,614,614,614,614,614,614,614,614,614,614,614,614,614,614,614,614,614,614,614,614,614,614,614,614,608,600,587,572,552,487,459,427,398,357,341,324,309,301,291,286,282,279,269,228,194,154,117,87,33],"timestamp_mouse":[9,38,48,69,90,109,128,150,170,189,208,229,250,270,289,310,330,349,369,390,409,428,449,470,490,510,530,549,569,588,609,629,649,668,688,708,728,749,768,789,808,830,849,870,889,909,929,949,968,990,1009,1029,1049,1068,1089,1109,1128,1148,1168,1189,1209,1230,1249],"xSR":741.5,"ySR":573.95,"xT1":424.9,"yT1":0,"xT2":1058.1,"yT2":0,"toosoon":0,"cond_shown":"Congruent","ratio_trial":200,"L_num":11,"L_den":22,"R_num":3,"R_den":10,"correct_side":1,"subjID":"isabellasanchezvargas6","gender":"1","school":"4","age":"9"},{"start_time":1552073369682,"click_time":1552073371456,"finger_time":1552073370437,"fix_duration":584.1972800526529,"trial":10,"RT":755,"MT":1019,"sideResp":1,"stimulus":[],"xmouse":[757,757,757,757,757,757,757,757,757,757,757,757,757,758,759,760,761,761,761,762,763,763,764,764,764,764,764,764,764,764,764,764,764,764,764,764,766,766,766,766,767,768,768,768,769,770,772,774,775,777,779,785,789,793,793,793,791,770,755,740,723,691,678,666,654,641,627,623,622,621,618,603,590,581,576,572,570,569,569,567,565,562,559,557,554,550,536,530,522],"ymouse":[605,605,605,605,605,605,605,605,605,605,605,605,605,605,603,603,602,601,601,599,598,597,596,596,594,594,594,594,594,594,592,590,587,585,583,581,575,573,570,567,564,560,558,556,552,548,539,533,528,523,517,482,452,412,379,355,336,276,248,222,197,158,146,137,130,123,117,115,114,114,113,106,101,97,94,91,90,89,89,89,88,85,84,83,81,79,74,71,70],"timestamp_mouse":[20,46,54,75,94,114,134,153,173,194,214,234,253,274,295,313,334,354,373,394,415,435,454,474,495,513,535,555,575,593,613,634,653,674,694,715,734,755,774,794,814,834,853,873,893,913,933,953,974,994,1015,1033,1054,1074,1093,1114,1133,1153,1173,1195,1214,1233,1253,1273,1293,1315,1334,1353,1373,1394,1413,1433,1455,1473,1493,1515,1533,1553,1573,1593,1613,1633,1653,1673,1693,1714,1733,1755,1774],"xSR":741.5,"ySR":573.95,"xT1":424.9,"yT1":0,"xT2":1058.1,"yT2":0,"toosoon":0,"cond_shown":"Incongruent","ratio_trial":300,"L_num":4,"L_den":20,"R_num":2,"R_den":4,"correct_side":2,"subjID":"isabellasanchezvargas6","gender":"1","school":"4","age":"9"},{"start_time":1552073373989,"click_time":1552073375837,"finger_time":1552073374676,"fix_duration":1191.7002240647648,"trial":11,"RT":687,"MT":1161,"sideResp":1,"stimulus":[],"xmouse":[779,779,779,779,779,779,779,779,779,779,779,780,781,783,785,787,790,794,795,796,796,797,798,798,798,798,798,799,799,800,800,800,800,800,800,800,800,800,800,800,800,800,800,800,800,801,804,809,813,819,826,845,861,872,889,908,945,957,968,977,985,999,1009,1017,1024,1031,1040,1044,1051,1061,1075,1093,1095,1096,1096,1096,1097,1097,1097,1097,1097,1086,1080,1073,1054,1020,884,799,715,642,602,545,447],"ymouse":[648,648,648,648,648,648,648,648,648,647,646,641,640,636,633,630,621,615,611,608,606,602,600,599,599,597,596,594,593,590,587,580,576,574,572,570,566,564,561,558,555,549,544,541,536,529,509,495,479,460,442,398,363,342,318,294,251,238,227,220,214,201,193,186,180,174,166,163,158,147,133,118,117,116,115,115,114,114,114,114,114,114,114,114,111,105,87,74,63,54,48,40,27],"timestamp_mouse":[13,37,47,68,86,108,128,147,167,186,207,227,248,266,287,306,326,346,366,386,407,426,448,467,488,507,527,548,567,587,608,626,646,666,687,706,726,746,766,786,808,826,846,867,887,907,927,946,967,987,1006,1027,1046,1067,1087,1107,1127,1146,1167,1186,1206,1226,1248,1267,1287,1307,1327,1346,1367,1388,1407,1427,1447,1467,1487,1507,1526,1547,1566,1587,1607,1626,1648,1667,1687,1708,1727,1746,1768,1786,1807,1827,1848],"xSR":741.5,"ySR":573.95,"xT1":424.9,"yT1":0,"xT2":1058.1,"yT2":0,"toosoon":0,"cond_shown":"Incongruent","ratio_trial":300,"L_num":13,"L_den":26,"R_num":12,"R_den":15,"correct_side":2,"subjID":"isabellasanchezvargas6","gender":"1","school":"4","age":"9"},{"start_time":1552073377489,"click_time":1552073380657,"finger_time":1552073378816,"fix_duration":250,"trial":12,"RT":1327,"MT":1841,"sideResp":2,"stimulus":[],"xmouse":[773,773,773,773,773,773,773,773,773,773,773,773,773,773,773,773,773,773,773,773,773,773,773,773,773,773,773,773,773,773,773,773,773,773,773,773,773,773,773,773,773,773,773,773,773,773,773,773,773,773,773,773,773,773,773,773,773,774,775,776,777,778,781,783,785,788,797,798,800,800,800,800,800,800,800,799,789,782,775,766,759,750,746,744,742,742,741,741,741,741,741,741,741,740,740,739,734,722,709,690,671,643,640,639,639,639,639,639,639,639,639,639,639,639,639,640,648,660,674,694,720,787,820,846,862,869,885,898,907,913,917,932,940,947,955,961,975,985,996,1003,1010,1023,1026,1030,1035,1038,1047,1049,1050,1051,1051,1052,1054,1055,1056,1056,1057,1058,1059],"ymouse":[607,607,607,607,607,607,607,607,607,607,607,607,607,607,607,607,607,607,607,607,607,607,607,607,607,607,607,607,607,607,607,607,607,607,607,607,607,607,607,607,607,607,607,607,607,607,607,607,607,607,607,607,607,607,607,607,607,607,605,604,602,599,595,592,588,578,529,517,480,453,427,369,343,321,300,281,241,225,209,194,182,160,151,146,142,141,139,139,139,138,138,138,138,137,136,136,130,121,113,102,91,80,80,80,80,80,80,80,80,80,80,80,80,80,80,79,78,76,76,78,85,104,114,118,118,118,118,118,118,117,116,112,109,107,105,104,100,96,93,91,88,83,80,78,74,72,66,64,63,62,62,61,60,60,59,59,58,58,57],"timestamp_mouse":[12,28,46,67,88,107,127,147,168,188,207,226,248,267,287,307,326,346,367,387,406,427,446,468,487,508,526,548,566,588,608,627,648,667,686,707,728,747,766,787,807,828,846,867,888,906,926,947,966,986,1006,1026,1047,1067,1087,1106,1127,1147,1167,1187,1208,1226,1246,1267,1287,1307,1327,1348,1367,1386,1407,1427,1446,1468,1487,1506,1527,1548,1567,1587,1607,1627,1646,1667,1688,1706,1726,1747,1767,1788,1808,1827,1846,1867,1886,1908,1927,1948,1967,1987,2006,2028,2046,2067,2087,2106,2127,2148,2167,2186,2206,2227,2248,2266,2288,2307,2326,2348,2366,2388,2406,2426,2446,2468,2487,2507,2526,2547,2566,2586,2607,2628,2647,2668,2687,2706,2727,2747,2766,2788,2807,2827,2846,2867,2887,2907,2927,2947,2967,2986,3006,3026,3046,3067,3087,3107,3127,3147,3168],"xSR":741.5,"ySR":573.95,"xT1":424.9,"yT1":0,"xT2":1058.1,"yT2":0,"toosoon":0,"cond_shown":"Incongruent","ratio_trial":100,"L_num":12,"L_den":30,"R_num":2,"R_den":4,"correct_side":2,"subjID":"isabellasanchezvargas6","gender":"1","school":"4","age":"9"},{"start_time":1552073381807,"click_time":1552073383235,"finger_time":1552073382496,"fix_duration":250,"trial":13,"RT":689,"MT":739,"sideResp":1,"stimulus":[],"xmouse":[788,788,788,788,788,788,788,788,788,788,788,788,788,788,788,788,788,788,788,788,788,788,788,788,788,788,788,788,788,788,788,788,790,791,791,794,795,797,797,798,800,800,800,800,800,800,800,800,800,794,779,773,747,721,675,591,583,580,580,580,580,580,580,580,579,572,565,556,549,542,528,523],"ymouse":[597,597,597,597,597,597,597,597,597,597,597,597,597,597,597,597,597,597,597,597,597,597,597,597,597,597,597,597,597,597,597,596,587,579,571,561,550,540,534,527,510,495,484,469,456,426,408,386,368,346,304,290,243,207,161,79,72,68,68,67,67,67,67,67,66,64,62,60,59,58,57,56],"timestamp_mouse":[13,41,49,69,88,109,129,149,168,189,209,230,249,269,290,310,329,350,368,388,410,430,448,468,488,509,530,549,569,590,608,630,648,669,689,709,728,749,768,789,808,829,848,870,889,909,928,949,969,989,1010,1028,1048,1068,1089,1109,1128,1150,1169,1189,1209,1229,1248,1269,1288,1308,1330,1350,1369,1389,1409,1428],"xSR":741.5,"ySR":573.95,"xT1":424.9,"yT1":0,"xT2":1058.1,"yT2":0,"toosoon":0,"cond_shown":"Incongruent","ratio_trial":100,"L_num":9,"L_den":10,"R_num":20,"R_den":25,"correct_side":1,"subjID":"isabellasanchezvargas6","gender":"1","school":"4","age":"9"},{"start_time":1552073384507,"click_time":1552073386116,"finger_time":1552073385237,"fix_duration":250,"trial":14,"RT":730,"MT":879,"sideResp":2,"stimulus":[],"xmouse":[814,814,814,814,814,814,814,814,814,814,814,814,814,814,814,814,814,814,814,814,814,814,814,814,814,814,814,814,814,814,816,817,819,820,820,820,819,817,816,816,816,816,816,816,816,816,819,823,829,835,846,854,863,873,881,896,901,909,913,917,924,928,930,931,932,934,937,944,957,971,1003,1016,1024,1030,1035,1044,1050,1053,1056,1058,1062],"ymouse":[665,664,664,664,664,664,664,664,664,664,664,664,664,664,664,664,664,664,664,664,664,664,664,664,664,664,663,660,658,653,640,627,616,608,597,586,557,549,542,537,529,525,520,514,508,490,469,452,434,417,387,367,342,320,303,271,258,236,222,208,190,182,178,175,173,171,167,159,147,138,120,113,107,101,96,87,81,77,74,71,66],"timestamp_mouse":[27,42,50,68,88,110,130,148,170,188,209,229,249,268,290,308,329,350,369,389,410,428,450,468,490,510,528,548,570,589,609,629,650,669,689,708,729,749,769,789,808,828,849,869,890,908,929,948,969,989,1009,1028,1049,1068,1090,1108,1128,1149,1168,1189,1209,1228,1249,1269,1290,1308,1329,1349,1369,1389,1408,1428,1449,1469,1489,1508,1529,1548,1569,1589,1609],"xSR":741.5,"ySR":573.95,"xT1":424.9,"yT1":0,"xT2":1058.1,"yT2":0,"toosoon":0,"cond_shown":"Incongruent","ratio_trial":300,"L_num":4,"L_den":20,"R_num":2,"R_den":4,"correct_side":2,"subjID":"isabellasanchezvargas6","gender":"1","school":"4","age":"9"},{"start_time":1552073390174,"click_time":1552073392637,"finger_time":1552073390916,"fix_duration":1474.4570714831132,"trial":15,"RT":742,"MT":1721,"sideResp":1,"stimulus":[],"xmouse":[792,792,792,792,792,792,792,792,792,792,792,792,792,792,792,792,792,792,792,792,791,790,790,790,790,790,790,790,790,790,790,790,790,790,790,790,790,790,790,790,790,790,788,784,784,784,784,784,784,784,784,784,791,795,800,806,811,819,821,822,822,822,822,822,822,822,822,822,822,822,822,822,822,822,822,821,819,818,818,816,816,816,815,815,815,815,815,815,815,815,815,815,815,821,824,829,829,829,828,827,827,824,806,779,754,731,714,693,687,680,673,667,647,642,632,627,618,600,584,575,561,545,527,508],"ymouse":[608,608,608,608,608,608,608,608,608,608,608,608,608,608,608,608,608,608,607,607,606,605,604,604,603,603,603,603,603,603,603,603,602,599,595,590,585,573,567,562,557,553,537,519,506,497,489,472,466,461,454,446,422,407,391,372,352,299,287,272,258,251,249,249,249,249,249,249,249,249,249,249,248,247,244,238,235,231,229,227,225,225,224,224,224,224,224,224,224,224,224,224,212,174,137,103,83,70,69,67,66,65,62,59,56,54,53,52,52,52,52,52,51,51,51,52,53,58,61,63,64,64,64,64],"timestamp_mouse":[10,22,42,62,82,102,122,143,162,183,201,223,243,261,282,303,322,342,362,383,402,421,442,461,482,501,522,541,562,583,602,622,641,661,682,703,722,742,761,782,802,822,841,861,881,902,922,942,961,982,1002,1023,1042,1062,1081,1102,1123,1141,1162,1182,1201,1221,1242,1262,1282,1302,1323,1341,1361,1382,1402,1421,1442,1463,1481,1502,1522,1541,1561,1581,1602,1623,1642,1662,1682,1703,1721,1742,1762,1781,1802,1822,1842,1863,1881,1902,1922,1942,1961,1983,2002,2021,2041,2061,2081,2101,2121,2141,2161,2182,2201,2222,2242,2262,2281,2302,2322,2342,2363,2381,2403,2422,2442,2463],"xSR":741.5,"ySR":573.95,"xT1":424.9,"yT1":0,"xT2":1058.1,"yT2":0,"toosoon":0,"cond_shown":"Congruent","ratio_trial":100,"L_num":15,"L_den":25,"R_num":13,"R_den":26,"correct_side":1,"subjID":"isabellasanchezvargas6","gender":"1","school":"4","age":"9"},{"start_time":1552073394189,"click_time":1552073395637,"finger_time":1552073394976,"fix_duration":292.88248266864656,"trial":16,"RT":787,"MT":661,"sideResp":1,"stimulus":[],"xmouse":[778,778,778,778,778,778,778,778,778,778,778,778,778,778,778,778,778,778,778,778,778,778,778,778,778,778,778,778,778,778,778,778,778,778,778,778,778,778,778,777,773,769,769,769,770,771,772,772,772,772,772,772,772,763,754,740,704,686,667,648,635,619,611,595,581,567,550,546,544,539,535,514,493],"ymouse":[629,629,629,629,629,629,629,629,629,629,629,629,629,629,629,629,629,629,629,629,629,629,629,629,629,629,629,629,629,629,629,629,629,629,629,629,627,609,588,565,544,511,487,468,448,427,387,367,347,326,310,277,261,231,212,190,155,142,132,123,120,120,120,120,121,121,121,121,121,119,117,105,92],"timestamp_mouse":[13,39,46,68,87,106,126,148,168,186,208,228,246,266,287,307,327,346,367,386,408,428,447,466,488,508,526,546,568,587,607,627,648,668,686,707,727,747,767,787,808,826,846,866,888,907,927,946,966,986,1008,1026,1047,1067,1088,1108,1127,1146,1166,1187,1208,1226,1247,1267,1288,1307,1327,1347,1368,1386,1406,1426,1448],"xSR":741.5,"ySR":573.95,"xT1":424.9,"yT1":0,"xT2":1058.1,"yT2":0,"toosoon":0,"cond_shown":"Incongruent","ratio_trial":300,"L_num":8,"L_den":10,"R_num":14,"R_den":28,"correct_side":1,"subjID":"isabellasanchezvargas6","gender":"1","school":"4","age":"9"},{"start_time":1552073398003,"click_time":1552073400216,"finger_time":1552073399355,"fix_duration":1224.3000455186013,"trial":17,"RT":1352,"MT":861,"sideResp":1,"stimulus":[],"xmouse":[777,777,777,777,777,777,777,777,777,777,777,777,777,777,777,777,777,777,777,777,777,777,777,777,777,777,777,777,777,777,777,777,777,777,777,777,777,777,777,777,777,777,777,777,777,777,777,777,777,777,777,777,777,777,777,777,777,777,777,777,777,777,777,777,777,777,778,780,783,784,789,791,795,797,800,807,810,812,813,813,813,813,813,813,813,803,791,776,761,742,707,687,667,659,652,637,627,617,607,598,584,579,576,574,569,559,553,547,538,532,523],"ymouse":[614,614,614,614,614,614,614,614,614,614,614,614,614,614,614,614,614,614,614,614,614,614,614,614,614,614,614,614,614,614,614,614,614,614,614,614,614,614,614,614,614,614,614,614,614,614,614,614,614,614,614,614,614,614,614,614,614,614,614,614,614,614,614,614,613,594,582,568,554,539,514,495,467,449,432,394,373,356,332,307,276,261,250,239,226,186,164,141,121,100,65,51,38,34,32,27,25,24,24,24,28,28,30,32,33,38,40,43,44,47,51],"timestamp_mouse":[12,45,53,74,93,112,133,154,174,194,212,233,252,274,294,313,334,354,374,393,412,433,452,473,493,513,534,553,573,593,614,633,654,672,692,714,733,754,773,792,814,833,854,873,893,913,933,953,972,994,1013,1033,1054,1073,1094,1114,1133,1152,1174,1194,1213,1234,1254,1272,1293,1313,1333,1352,1372,1392,1412,1434,1453,1473,1492,1512,1532,1554,1573,1593,1613,1632,1652,1674,1693,1713,1732,1753,1772,1792,1813,1833,1852,1873,1893,1912,1932,1953,1973,1993,2013,2033,2054,2073,2093,2113,2133,2153,2173,2193,2213],"xSR":741.5,"ySR":573.95,"xT1":424.9,"yT1":0,"xT2":1058.1,"yT2":0,"toosoon":0,"cond_shown":"Congruent","ratio_trial":100,"L_num":6,"L_den":20,"R_num":5,"R_den":25,"correct_side":1,"subjID":"isabellasanchezvargas6","gender":"1","school":"4","age":"9"},{"start_time":1552073402496,"click_time":1552073403776,"finger_time":1552073403237,"fix_duration":1058.0877067551867,"trial":18,"RT":741,"MT":539,"sideResp":2,"stimulus":[],"xmouse":[786,786,786,786,786,786,786,786,786,786,786,786,786,786,786,786,786,786,786,786,786,786,786,786,786,786,786,786,786,786,786,786,786,786,786,786,786,786,786,788,789,795,801,805,809,812,814,821,823,826,831,847,861,874,890,908,947,962,975,989,1003,1031,1044,1053,1061],"ymouse":[608,608,608,608,608,608,608,608,608,608,608,608,608,608,608,608,608,608,608,608,608,608,608,608,608,608,608,608,608,608,608,608,608,607,605,597,574,538,525,515,503,470,449,431,416,398,383,341,325,311,295,264,241,221,203,183,141,125,110,94,79,57,49,43,39],"timestamp_mouse":[2,19,47,59,79,101,120,140,161,179,199,221,239,259,279,300,321,339,360,381,400,420,441,460,479,500,519,541,560,580,600,621,641,660,680,700,720,741,760,781,800,819,839,859,879,899,919,940,960,980,1000,1019,1039,1060,1080,1100,1119,1139,1159,1179,1199,1219,1241,1261,1280],"xSR":741.5,"ySR":573.95,"xT1":424.9,"yT1":0,"xT2":1058.1,"yT2":0,"toosoon":0,"cond_shown":"Incongruent","ratio_trial":100,"L_num":9,"L_den":18,"R_num":6,"R_den":10,"correct_side":2,"subjID":"isabellasanchezvargas6","gender":"1","school":"4","age":"9"},{"start_time":1552073407178,"click_time":1552073408296,"finger_time":1552073407916,"fix_duration":919.3983814295476,"trial":19,"RT":738,"MT":380,"sideResp":1,"stimulus":[],"xmouse":[785,785,785,785,785,785,785,785,785,785,785,785,785,785,785,785,785,785,785,785,785,785,785,785,785,785,785,785,785,785,785,785,785,785,785,785,785,781,776,767,753,724,706,693,677,661,629,615,601,587,572,556,524,503,493,482],"ymouse":[654,654,654,654,654,654,654,654,654,654,654,654,654,654,654,654,654,654,654,654,654,654,654,653,652,651,649,649,649,646,642,625,609,599,590,578,563,519,493,463,429,370,336,312,286,264,223,207,191,174,159,145,120,108,102,98],"timestamp_mouse":[21,38,57,77,97,119,137,157,178,197,218,239,258,278,299,317,339,358,379,397,417,438,459,477,498,519,538,558,579,597,619,637,659,678,697,718,738,758,778,797,819,837,857,878,898,918,937,957,977,997,1018,1037,1057,1078,1097,1117],"xSR":741.5,"ySR":573.95,"xT1":424.9,"yT1":0,"xT2":1058.1,"yT2":0,"toosoon":0,"cond_shown":"Incongruent","ratio_trial":300,"L_num":7,"L_den":10,"R_num":8,"R_den":20,"correct_side":1,"subjID":"isabellasanchezvargas6","gender":"1","school":"4","age":"9"},{"start_time":1552073409973,"click_time":1552073411356,"finger_time":1552073410637,"fix_duration":335.48056252137104,"trial":20,"RT":664,"MT":719,"sideResp":2,"stimulus":[],"xmouse":[762,762,762,762,762,762,762,762,762,762,762,762,762,762,762,762,762,762,762,762,762,762,762,762,762,762,762,762,762,762,762,762,762,762,762,762,762,762,763,764,766,768,771,774,776,780,787,814,827,843,855,867,896,917,930,944,963,978,1008,1020,1030,1038,1046,1049,1052,1057,1063,1074,1076,1076],"ymouse":[580,580,580,580,580,580,580,580,580,580,580,580,580,580,580,580,580,580,580,580,580,580,580,580,580,580,580,580,580,580,580,580,580,568,556,549,543,535,531,525,518,512,497,485,475,460,438,365,330,293,263,236,185,153,136,117,97,80,45,31,20,13,5,4,2,0,0,0,0,1],"timestamp_mouse":[10,22,46,63,84,104,123,143,164,184,203,224,244,263,282,302,324,344,363,383,403,424,442,463,483,504,522,543,563,584,603,623,643,664,682,703,723,742,762,783,803,823,842,863,883,903,924,942,962,982,1002,1024,1042,1062,1082,1103,1123,1142,1162,1183,1204,1223,1243,1264,1282,1303,1324,1344,1362,1382],"xSR":741.5,"ySR":573.95,"xT1":424.9,"yT1":0,"xT2":1058.1,"yT2":0,"toosoon":0,"cond_shown":"Congruent","ratio_trial":200,"L_num":14,"L_den":28,"R_num":6,"R_den":20,"correct_side":1,"subjID":"isabellasanchezvargas6","gender":"1","school":"4","age":"9"},{"start_time":1552073413479,"click_time":1552073414716,"finger_time":1552073414136,"fix_duration":961.9667540668992,"trial":21,"RT":657,"MT":580,"sideResp":2,"stimulus":[],"xmouse":[797,797,796,796,796,796,796,796,796,796,796,796,796,796,796,796,796,796,796,796,796,796,796,796,796,796,796,796,796,796,796,796,797,798,800,802,807,825,830,834,838,844,849,851,853,855,857,860,863,865,868,878,885,894,905,914,935,948,959,973,990,1063],"ymouse":[617,617,618,618,618,618,618,618,618,618,618,618,618,618,618,618,618,618,618,618,618,618,618,618,618,618,618,617,613,603,593,582,558,549,534,525,509,449,430,413,394,372,333,319,308,298,291,263,255,248,237,207,191,177,162,150,127,115,106,96,82,43],"timestamp_mouse":[21,48,57,76,97,116,138,158,177,196,217,238,258,277,297,318,338,356,378,398,417,438,458,478,497,517,537,558,577,597,617,637,657,678,697,717,736,757,776,796,817,837,857,876,896,916,936,956,976,997,1017,1036,1057,1078,1098,1117,1136,1158,1177,1196,1216,1237],"xSR":741.5,"ySR":573.95,"xT1":424.9,"yT1":0,"xT2":1058.1,"yT2":0,"toosoon":0,"cond_shown":"Incongruent","ratio_trial":100,"L_num":8,"L_den":20,"R_num":1,"R_den":2,"correct_side":2,"subjID":"isabellasanchezvargas6","gender":"1","school":"4","age":"9"},{"start_time":1552073416495,"click_time":1552073417838,"finger_time":1552073417215,"fix_duration":558.3702489852151,"trial":22,"RT":720,"MT":623,"sideResp":1,"stimulus":[],"xmouse":[791,791,791,791,791,791,791,791,791,791,791,791,791,791,791,791,791,791,791,791,791,791,791,791,791,791,791,791,791,791,791,791,791,793,798,799,803,805,805,805,805,807,808,809,809,809,807,797,791,785,779,762,749,737,724,713,700,696,686,670,653,623,613,599,580,552,479,442],"ymouse":[634,634,634,634,634,634,634,634,634,634,634,634,634,634,634,634,634,634,634,634,634,634,634,634,634,634,634,634,634,634,634,634,633,627,609,596,565,530,504,477,450,420,366,345,324,302,267,246,235,226,215,195,184,175,168,162,158,158,158,158,158,155,154,151,145,137,106,86],"timestamp_mouse":[10,33,40,60,82,102,121,142,160,181,202,221,241,260,282,301,322,342,360,381,402,421,442,462,480,502,520,541,560,581,602,622,641,661,681,701,720,742,761,780,800,820,842,861,880,914,921,940,960,981,1000,1022,1040,1061,1081,1100,1120,1142,1161,1180,1200,1221,1241,1262,1281,1301,1321,1342],"xSR":741.5,"ySR":573.95,"xT1":424.9,"yT1":0,"xT2":1058.1,"yT2":0,"toosoon":0,"cond_shown":"Incongruent","ratio_trial":100,"L_num":6,"L_den":10,"R_num":11,"R_den":22,"correct_side":1,"subjID":"isabellasanchezvargas6","gender":"1","school":"4","age":"9"},{"start_time":1552073419187,"click_time":1552073420276,"finger_time":1552073419837,"fix_duration":250,"trial":23,"RT":650,"MT":439,"sideResp":2,"stimulus":[],"xmouse":[753,753,753,753,753,753,753,753,753,753,753,753,753,753,753,753,753,753,753,753,753,753,753,753,753,753,753,753,753,754,755,760,786,794,799,803,810,811,814,816,818,818,818,819,821,823,831,838,849,863,882,922,971,1024,1083],"ymouse":[604,604,604,604,604,604,604,604,604,604,604,604,604,604,604,604,604,604,604,604,604,604,604,604,604,604,604,604,604,604,604,604,564,546,530,513,488,477,463,450,438,419,411,402,392,377,349,334,317,293,267,219,165,113,60],"timestamp_mouse":[20,43,49,69,90,110,129,149,170,188,209,230,250,269,289,309,329,349,369,390,409,430,449,469,490,508,529,550,570,588,608,628,650,669,689,709,728,748,770,788,808,828,849,868,889,909,928,948,969,989,1009,1029,1049,1069,1088],"xSR":741.5,"ySR":573.95,"xT1":424.9,"yT1":0,"xT2":1058.1,"yT2":0,"toosoon":0,"cond_shown":"Congruent","ratio_trial":300,"L_num":7,"L_den":14,"R_num":20,"R_den":25,"correct_side":2,"subjID":"isabellasanchezvargas6","gender":"1","school":"4","age":"9"},{"start_time":1552073421726,"click_time":1552073423716,"finger_time":1552073422797,"fix_duration":250,"trial":24,"RT":1071,"MT":919,"sideResp":1,"stimulus":[],"xmouse":[777,777,777,777,777,777,777,777,777,777,777,777,777,777,777,777,777,777,777,777,777,777,777,777,777,777,777,777,777,777,777,777,777,777,777,777,777,777,777,777,777,777,777,777,777,777,777,777,777,778,780,782,782,782,784,787,788,789,789,792,792,792,793,796,799,801,801,801,801,794,788,784,780,775,767,745,736,727,717,703,698,689,681,675,658,642,633,626,619,610,602,590,579,567,544,537,533,528,527,520],"ymouse":[649,649,649,649,649,649,649,649,649,649,649,649,649,649,649,649,649,649,649,649,649,649,649,649,649,649,649,649,649,649,649,649,649,649,649,649,649,649,649,649,649,649,649,649,649,647,643,639,634,623,613,600,588,573,548,533,526,520,517,509,505,500,493,486,463,443,427,409,392,349,331,316,302,284,263,220,203,192,181,169,165,160,157,154,147,142,140,138,136,133,131,127,124,119,108,104,102,100,99,94],"timestamp_mouse":[10,38,49,71,90,109,130,151,169,189,209,230,250,270,290,309,331,350,371,390,410,429,450,469,490,510,529,550,569,591,609,630,651,670,689,709,730,749,770,790,810,830,851,870,891,911,930,949,969,990,1009,1029,1050,1071,1089,1109,1129,1149,1170,1189,1209,1229,1249,1269,1289,1310,1330,1351,1370,1389,1409,1430,1451,1469,1489,1509,1529,1549,1569,1589,1610,1629,1649,1671,1689,1709,1730,1749,1769,1789,1809,1831,1849,1869,1889,1910,1930,1949,1969,1989],"xSR":741.5,"ySR":573.95,"xT1":424.9,"yT1":0,"xT2":1058.1,"yT2":0,"toosoon":0,"cond_shown":"Congruent","ratio_trial":200,"L_num":6,"L_den":15,"R_num":3,"R_den":15,"correct_side":1,"subjID":"isabellasanchezvargas6","gender":"1","school":"4","age":"9"},{"start_time":1552073425838,"click_time":1552073427636,"finger_time":1552073426355,"fix_duration":840.8519072808476,"trial":25,"RT":517,"MT":1281,"sideResp":1,"stimulus":[],"xmouse":[778,778,778,778,778,778,778,778,778,778,778,778,778,778,778,778,778,778,778,778,778,778,778,783,783,783,783,783,783,783,783,783,783,783,784,786,790,796,811,820,828,838,847,868,878,888,895,900,912,921,928,934,941,952,958,963,971,977,985,985,985,985,985,985,985,985,985,985,985,985,985,985,982,962,949,936,932,919,875,839,814,796,791,776,767,754,745,712,664,497],"ymouse":[627,627,627,627,627,627,627,627,627,627,627,627,627,627,627,627,627,627,627,627,627,627,627,595,578,566,557,548,528,505,488,464,434,375,354,336,320,304,273,250,236,220,206,179,168,160,154,149,138,131,125,121,117,109,105,101,97,94,90,90,90,90,90,90,90,90,90,90,90,90,90,90,91,100,105,111,113,118,132,138,142,144,144,144,142,139,136,122,104,37],"timestamp_mouse":[20,45,57,77,97,118,138,158,177,199,217,237,257,277,298,317,337,359,377,398,418,437,457,478,497,517,538,558,577,599,617,638,657,677,697,719,738,758,777,799,817,837,857,878,898,917,937,959,977,999,1018,1038,1057,1077,1097,1117,1138,1158,1177,1198,1217,1238,1259,1278,1297,1318,1339,1357,1378,1397,1418,1437,1458,1477,1497,1518,1539,1558,1578,1597,1617,1637,1658,1677,1698,1718,1738,1758,1777,1798],"xSR":741.5,"ySR":573.95,"xT1":424.9,"yT1":0,"xT2":1058.1,"yT2":0,"toosoon":0,"cond_shown":"Congruent","ratio_trial":300,"L_num":12,"L_den":24,"R_num":2,"R_den":10,"correct_side":1,"subjID":"isabellasanchezvargas6","gender":"1","school":"4","age":"9"},{"start_time":1552073429159,"click_time":1552073431396,"finger_time":1552073430015,"fix_duration":543.5287276528653,"trial":26,"RT":856,"MT":1381,"sideResp":2,"stimulus":[],"xmouse":[817,817,817,817,817,817,817,817,817,817,817,817,817,817,817,817,817,817,817,817,817,817,817,817,817,817,817,817,817,817,817,817,817,817,817,817,817,817,817,817,822,827,843,850,853,858,862,872,875,878,878,878,878,873,870,865,859,842,833,824,819,812,793,787,782,778,774,772,770,770,770,768,764,764,764,764,764,764,764,764,766,766,782,793,808,824,848,891,921,960,991,999,1001,1001,1001,1001,1005,1010,1012,1013,1014,1015,1018,1020,1023,1027,1031,1040,1047,1052,1057,1062],"ymouse":[620,620,620,620,620,620,620,620,620,620,620,620,620,620,620,620,620,620,620,620,620,620,620,620,620,620,620,620,620,620,620,620,620,620,620,620,620,620,620,620,606,593,539,506,484,465,450,412,392,374,357,345,323,315,306,298,285,254,242,229,220,210,187,182,178,175,172,171,170,170,170,170,169,169,169,169,169,169,169,169,169,169,169,169,169,169,169,166,162,156,151,150,148,148,148,148,145,139,136,133,131,129,125,122,118,111,105,92,82,75,68,59],"timestamp_mouse":[17,37,57,77,98,116,136,158,176,196,216,237,256,276,297,318,337,357,376,397,418,437,457,478,498,517,537,557,577,597,617,637,656,678,697,718,737,756,778,797,816,838,856,876,897,917,938,956,976,997,1016,1036,1057,1077,1097,1116,1137,1156,1176,1196,1216,1236,1256,1276,1297,1317,1336,1358,1377,1396,1416,1436,1456,1476,1497,1517,1538,1557,1577,1596,1616,1637,1656,1678,1696,1716,1738,1757,1778,1796,1816,1837,1856,1877,1896,1916,1936,1956,1976,1996,2017,2036,2057,2077,2097,2117,2137,2156,2176,2196,2216,2237],"xSR":741.5,"ySR":573.95,"xT1":424.9,"yT1":0,"xT2":1058.1,"yT2":0,"toosoon":0,"cond_shown":"Incongruent","ratio_trial":200,"L_num":3,"L_den":10,"R_num":1,"R_den":2,"correct_side":2,"subjID":"isabellasanchezvargas6","gender":"1","school":"4","age":"9"},{"start_time":1552073433099,"click_time":1552073434975,"finger_time":1552073433755,"fix_duration":403.7342534718611,"trial":27,"RT":656,"MT":1220,"sideResp":2,"stimulus":[],"xmouse":[783,783,783,783,783,783,783,783,783,783,783,783,783,783,783,783,783,783,783,783,783,783,783,783,783,783,783,783,783,783,783,783,783,782,781,779,780,782,783,783,783,783,783,783,783,783,783,783,783,782,779,772,767,762,761,774,785,792,795,800,803,806,808,812,816,822,838,842,852,858,862,863,863,866,868,879,886,893,898,905,918,958,977,987,991,1000,1003,1008,1010,1017,1033,1040,1050,1062],"ymouse":[596,596,596,596,596,596,596,596,596,596,596,596,596,596,596,596,596,596,596,596,596,596,596,596,596,596,596,596,596,593,585,577,567,557,546,511,479,466,458,456,456,456,456,456,456,456,456,456,455,455,455,454,453,450,444,418,399,379,353,325,283,269,264,257,249,239,205,197,180,170,162,162,161,161,160,157,156,155,154,153,151,146,143,141,139,134,131,129,126,120,102,91,75,57],"timestamp_mouse":[20,45,56,77,98,117,136,158,178,197,217,237,257,278,298,317,338,358,378,396,416,437,458,477,496,517,538,556,577,596,616,636,656,676,698,716,738,756,776,798,817,838,856,877,896,917,937,957,976,997,1017,1036,1056,1076,1097,1117,1138,1157,1176,1197,1217,1236,1258,1277,1297,1316,1337,1357,1376,1397,1416,1436,1456,1478,1496,1516,1536,1557,1576,1596,1616,1636,1656,1676,1697,1717,1737,1757,1776,1796,1816,1836,1858,1876],"xSR":741.5,"ySR":573.95,"xT1":424.9,"yT1":0,"xT2":1058.1,"yT2":0,"toosoon":0,"cond_shown":"Congruent","ratio_trial":100,"L_num":7,"L_den":14,"R_num":9,"R_den":15,"correct_side":2,"subjID":"isabellasanchezvargas6","gender":"1","school":"4","age":"9"},{"start_time":1552073437778,"click_time":1552073438995,"finger_time":1552073438156,"fix_duration":259.2199718287949,"trial":28,"RT":378,"MT":839,"sideResp":1,"stimulus":[],"xmouse":[780,780,780,780,780,780,780,780,780,780,780,780,780,780,780,782,790,798,806,817,823,833,834,834,834,834,834,831,830,828,828,828,828,828,830,830,829,826,823,820,814,809,787,773,758,742,709,672,639,609,587,571,571,571,571,571,567,560,552,536,523],"ymouse":[630,630,630,630,630,630,630,630,630,630,630,630,630,630,629,627,603,582,549,516,490,440,426,420,410,395,380,360,349,342,338,324,318,312,307,300,283,276,269,263,254,245,219,207,194,181,158,140,124,110,102,93,93,93,93,93,91,89,84,78,74],"timestamp_mouse":[17,38,57,77,98,118,138,158,179,197,218,237,258,279,298,318,338,357,378,397,417,437,459,477,497,517,537,557,577,597,618,637,657,677,697,717,737,758,778,797,817,837,858,878,898,918,938,957,978,997,1017,1037,1057,1077,1098,1119,1138,1157,1177,1198,1217],"xSR":741.5,"ySR":573.95,"xT1":424.9,"yT1":0,"xT2":1058.1,"yT2":0,"toosoon":0,"cond_shown":"Incongruent","ratio_trial":300,"L_num":7,"L_den":10,"R_num":8,"R_den":20,"correct_side":1,"subjID":"isabellasanchezvargas6","gender":"1","school":"4","age":"9"},{"start_time":1552073441222,"click_time":1552073442576,"finger_time":1552073441915,"fix_duration":1105.95486273877,"trial":29,"RT":693,"MT":661,"sideResp":1,"stimulus":[],"xmouse":[776,776,776,776,776,776,776,776,776,776,776,776,776,776,776,776,776,776,776,776,776,776,776,776,776,776,776,776,776,776,776,776,776,776,776,776,776,775,775,773,769,767,763,759,754,752,751,748,742,723,704,686,672,664,638,624,610,597,581,534,515,497,483,474,462,460,460,459],"ymouse":[586,586,586,586,586,586,586,586,586,586,586,586,586,586,586,586,586,586,586,586,586,586,586,586,586,586,586,586,586,586,586,583,580,576,564,557,550,545,541,536,523,512,500,488,472,466,461,450,435,399,369,342,326,313,275,256,239,220,198,159,144,132,123,117,104,102,102,98],"timestamp_mouse":[14,42,54,74,93,114,135,154,175,194,214,234,255,274,295,315,334,353,374,394,413,434,453,475,493,514,533,555,574,594,614,634,655,673,693,713,734,754,775,793,813,833,853,873,893,914,933,953,974,993,1014,1034,1053,1073,1093,1114,1133,1153,1174,1193,1213,1233,1254,1275,1294,1313,1334,1354],"xSR":741.5,"ySR":573.95,"xT1":424.9,"yT1":0,"xT2":1058.1,"yT2":0,"toosoon":0,"cond_shown":"Incongruent","ratio_trial":200,"L_num":1,"L_den":2,"R_num":3,"R_den":10,"correct_side":1,"subjID":"isabellasanchezvargas6","gender":"1","school":"4","age":"9"},{"start_time":1552073445100,"click_time":1552073446735,"finger_time":1552073446196,"fix_duration":802.6415876624177,"trial":30,"RT":1096,"MT":539,"sideResp":1,"stimulus":[],"xmouse":[749,749,749,749,749,749,749,749,749,749,749,749,749,749,749,749,749,749,749,749,749,749,749,749,749,749,749,749,749,749,749,749,749,749,749,749,749,749,749,749,749,749,749,749,749,749,750,754,758,764,776,780,783,786,790,799,809,813,822,830,840,843,846,848,853,857,858,857,848,831,773,741,715,698,685,655,625,602,579,559,527,522],"ymouse":[617,617,617,617,617,617,617,617,617,617,617,617,617,617,617,617,617,617,617,617,617,617,617,617,617,617,617,617,617,617,617,617,617,617,617,617,617,617,617,617,617,617,617,617,617,617,617,614,609,602,589,585,579,574,567,549,530,517,500,484,461,453,445,438,427,410,395,364,333,293,199,152,121,100,85,65,49,39,29,22,14,14],"timestamp_mouse":[15,41,55,76,96,116,137,156,176,196,216,237,255,275,295,317,336,355,375,396,416,437,455,475,496,515,536,556,577,597,617,636,656,675,696,716,737,757,776,795,815,835,857,877,895,915,936,955,977,996,1016,1036,1055,1075,1096,1115,1137,1155,1175,1195,1215,1235,1257,1276,1296,1315,1335,1355,1376,1395,1416,1435,1456,1475,1495,1515,1535,1556,1576,1597,1615,1635],"xSR":741.5,"ySR":573.95,"xT1":424.9,"yT1":0,"xT2":1058.1,"yT2":0,"toosoon":0,"cond_shown":"Incongruent","ratio_trial":200,"L_num":7,"L_den":15,"R_num":6,"R_den":9,"correct_side":2,"subjID":"isabellasanchezvargas6","gender":"1","school":"4","age":"9"},{"start_time":1552073448751,"click_time":1552073450316,"finger_time":1552073449515,"fix_duration":912.6673374749374,"trial":31,"RT":764,"MT":801,"sideResp":2,"stimulus":[],"xmouse":[811,811,811,811,811,811,811,811,811,811,811,811,811,811,811,811,811,811,811,811,811,811,811,811,811,811,811,811,811,811,811,811,811,811,811,811,811,811,811,809,808,808,808,808,807,806,806,806,806,806,806,806,806,807,812,819,828,836,857,869,881,896,910,936,946,954,959,966,978,988,999,1012,1024,1033,1040,1044,1048,1053,1060],"ymouse":[592,592,592,592,592,592,592,592,592,592,592,592,592,592,592,592,592,592,592,592,592,592,592,592,592,592,592,592,592,592,592,592,592,592,592,592,592,590,565,548,532,519,505,478,472,466,462,460,457,455,454,449,443,427,399,376,354,332,297,278,258,237,216,180,168,160,154,145,132,125,117,108,100,93,89,86,83,81,78],"timestamp_mouse":[9,24,45,64,85,106,125,145,165,186,205,224,245,265,286,304,325,345,364,385,406,424,444,465,485,504,524,544,566,586,605,625,644,665,685,705,726,744,764,784,804,824,845,865,884,904,926,944,964,984,1005,1024,1044,1064,1084,1104,1125,1146,1164,1184,1204,1224,1245,1264,1286,1304,1325,1344,1364,1385,1404,1424,1444,1464,1486,1504,1525,1544,1564],"xSR":741.5,"ySR":573.95,"xT1":424.9,"yT1":0,"xT2":1058.1,"yT2":0,"toosoon":0,"cond_shown":"Incongruent","ratio_trial":200,"L_num":14,"L_den":30,"R_num":12,"R_den":18,"correct_side":2,"subjID":"isabellasanchezvargas6","gender":"1","school":"4","age":"9"},{"start_time":1552073452991,"click_time":1552073454418,"finger_time":1552073453796,"fix_duration":275.5843543273798,"trial":32,"RT":805,"MT":622,"sideResp":2,"stimulus":[],"xmouse":[824,824,824,824,824,824,824,824,824,824,824,824,824,824,824,824,824,824,824,824,824,824,824,824,824,824,824,824,824,824,824,824,825,826,826,828,828,828,829,829,829,830,834,841,848,858,861,863,865,866,868,870,873,878,888,939,967,993,1010,1023,1035,1035,1035,1040,1046,1054,1054,1054,1054,1054,1060],"ymouse":[620,620,620,620,620,620,620,620,620,620,620,620,620,620,620,620,620,620,620,620,620,620,620,620,620,620,620,620,620,620,620,620,616,611,605,592,587,582,575,567,541,525,495,451,402,362,351,343,337,331,320,312,306,295,272,166,106,49,11,0,0,0,0,0,0,0,0,0,0,0,6],"timestamp_mouse":[21,45,64,84,105,124,146,166,186,205,224,244,266,284,305,325,345,366,385,405,424,445,464,485,504,524,544,565,584,605,626,646,664,686,704,724,744,764,784,805,824,845,864,884,904,924,944,965,985,1005,1024,1045,1064,1084,1104,1124,1144,1165,1184,1204,1224,1245,1264,1284,1305,1327,1345,1365,1385,1404,1427],"xSR":741.5,"ySR":573.95,"xT1":424.9,"yT1":0,"xT2":1058.1,"yT2":0,"toosoon":0,"cond_shown":"Congruent","ratio_trial":200,"L_num":14,"L_den":28,"R_num":6,"R_den":20,"correct_side":1,"subjID":"isabellasanchezvargas6","gender":"1","school":"4","age":"9"},{"start_time":1552073456439,"click_time":1552073457415,"finger_time":1552073456896,"fix_duration":543.9136652148497,"trial":33,"RT":457,"MT":519,"sideResp":2,"stimulus":[],"xmouse":[788,788,788,788,788,788,789,789,789,789,789,789,789,789,789,789,789,789,789,789,789,789,788,787,787,787,787,787,786,786,787,788,788,788,793,795,796,799,809,814,824,842,867,918,939,959,979,1002,1061],"ymouse":[596,596,596,596,596,596,596,596,596,596,596,596,595,594,593,592,591,590,584,580,577,575,572,567,565,561,555,550,539,527,512,502,494,487,472,460,450,438,395,372,340,283,226,143,114,91,74,60,40],"timestamp_mouse":[35,36,56,76,96,118,137,157,177,196,216,236,258,276,296,317,336,358,376,397,416,436,456,477,496,517,537,556,576,596,617,637,656,676,697,717,737,757,777,796,816,836,856,876,896,917,937,957,976],"xSR":741.5,"ySR":573.95,"xT1":424.9,"yT1":0,"xT2":1058.1,"yT2":0,"toosoon":0,"cond_shown":"Incongruent","ratio_trial":200,"L_num":7,"L_den":15,"R_num":6,"R_den":9,"correct_side":2,"subjID":"isabellasanchezvargas6","gender":"1","school":"4","age":"9"},{"start_time":1552073459793,"click_time":1552073461836,"finger_time":1552073460755,"fix_duration":1176.257860423231,"trial":34,"RT":962,"MT":1081,"sideResp":1,"stimulus":[],"xmouse":[762,762,763,764,764,764,764,764,765,765,765,766,766,766,767,767,767,767,767,767,767,767,768,768,768,768,769,770,770,770,770,770,771,771,771,772,772,774,774,774,774,776,776,776,776,776,778,781,784,790,797,812,830,845,856,859,839,825,807,793,785,763,755,744,733,720,684,668,652,637,624,603,595,584,574,568,560,559,557,553,549,545,544,543,543,542,542,541,541,541,541,541,541,540,540,540,539,539,537,535,534,525,522],"ymouse":[599,599,598,598,598,597,597,597,597,597,597,597,597,596,595,595,595,595,595,595,595,595,594,594,594,594,593,592,592,592,592,592,591,591,591,590,590,589,589,587,587,585,585,585,583,582,578,574,569,562,551,527,500,472,441,393,309,265,213,164,133,94,84,75,65,55,37,30,25,21,19,19,19,19,19,19,19,19,19,19,19,19,19,19,19,19,20,20,20,20,20,20,21,22,22,23,23,25,25,27,27,29,30],"timestamp_mouse":[4,25,44,62,82,102,124,142,163,182,202,223,244,264,283,302,323,344,363,382,402,423,444,462,483,503,523,544,564,583,602,622,642,664,683,703,723,742,763,783,802,822,844,863,883,902,923,943,962,983,1002,1022,1042,1062,1082,1102,1122,1142,1163,1182,1202,1222,1242,1262,1282,1302,1322,1342,1362,1383,1403,1423,1442,1463,1484,1504,1523,1542,1562,1582,1603,1623,1642,1664,1683,1702,1722,1742,1763,1782,1803,1823,1843,1862,1882,1903,1922,1942,1962,1982,2003,2022,2043],"xSR":741.5,"ySR":573.95,"xT1":424.9,"yT1":0,"xT2":1058.1,"yT2":0,"toosoon":0,"cond_shown":"Congruent","ratio_trial":300,"L_num":11,"L_den":22,"R_num":4,"R_den":20,"correct_side":1,"subjID":"isabellasanchezvargas6","gender":"1","school":"4","age":"9"},{"start_time":1552073464124,"click_time":1552073466456,"finger_time":1552073465976,"fix_duration":1108.2542827005548,"trial":35,"RT":1852,"MT":480,"sideResp":1,"stimulus":[],"xmouse":[773,773,773,773,773,773,773,773,773,773,773,773,773,773,773,773,773,773,773,773,773,773,773,773,773,773,773,773,773,773,773,773,773,773,773,773,773,773,773,773,773,773,773,773,773,773,773,773,773,773,773,773,773,773,773,773,773,773,773,773,773,773,773,773,773,773,773,773,773,773,773,773,773,773,773,773,773,773,773,773,773,773,773,773,773,773,773,775,776,777,777,777,777,777,771,770,766,759,750,724,710,699,687,675,646,637,625,616,604,583,574,566,560,557,542,529,520],"ymouse":[597,597,597,597,597,597,597,597,597,597,597,597,597,597,597,597,597,597,597,597,597,597,597,597,597,597,597,597,597,597,597,597,597,597,597,597,597,597,597,597,597,597,597,597,597,597,597,597,597,597,597,597,597,597,597,597,597,597,597,597,597,597,597,597,597,597,597,597,597,597,597,597,597,597,597,597,597,597,597,597,597,597,597,597,597,597,597,596,593,586,582,576,566,559,541,533,522,507,488,428,397,375,347,321,253,227,202,182,162,128,114,101,93,87,63,47,38],"timestamp_mouse":[12,45,51,72,92,111,132,152,172,191,211,233,251,271,292,312,332,352,371,392,412,432,452,471,493,512,533,552,571,592,613,633,652,672,693,713,732,751,772,791,811,831,851,872,892,913,932,952,973,993,1011,1031,1052,1073,1092,1112,1132,1151,1173,1192,1212,1232,1252,1273,1293,1313,1332,1351,1372,1391,1413,1433,1451,1471,1491,1511,1531,1552,1573,1591,1612,1631,1652,1671,1693,1712,1731,1752,1771,1791,1811,1832,1852,1872,1891,1912,1931,1952,1972,1993,2011,2032,2051,2071,2091,2111,2132,2152,2171,2191,2211,2231,2251,2272,2291,2312,2332],"xSR":741.5,"ySR":573.95,"xT1":424.9,"yT1":0,"xT2":1058.1,"yT2":0,"toosoon":0,"cond_shown":"Congruent","ratio_trial":200,"L_num":8,"L_den":15,"R_num":7,"R_den":21,"correct_side":1,"subjID":"isabellasanchezvargas6","gender":"1","school":"4","age":"9"},{"start_time":1552073467948,"click_time":1552073469396,"finger_time":1552073468655,"fix_duration":250,"trial":36,"RT":707,"MT":741,"sideResp":1,"stimulus":[],"xmouse":[780,780,780,780,780,780,780,780,780,780,780,780,780,780,780,780,780,780,780,780,780,780,780,780,780,780,780,780,780,780,780,780,781,784,785,787,788,788,788,788,788,788,788,786,780,777,772,766,760,740,728,717,705,692,657,645,637,629,620,611,610,609,609,606,597,588,577,564,543,539,534,527,520],"ymouse":[613,613,613,613,613,613,613,613,613,613,613,613,613,613,613,613,613,613,613,613,613,613,613,613,613,613,613,613,613,613,611,609,606,595,581,567,555,541,517,502,490,482,475,458,439,427,417,404,387,338,313,286,261,234,172,157,144,133,121,110,108,108,108,103,94,86,79,71,61,59,55,52,51],"timestamp_mouse":[13,33,48,68,87,107,129,149,167,188,207,228,247,269,287,308,327,349,367,387,408,427,447,469,489,508,528,547,567,596,607,628,649,667,688,707,727,748,768,787,807,827,849,868,888,908,928,947,968,987,1008,1028,1048,1068,1088,1107,1127,1147,1167,1187,1207,1227,1248,1268,1287,1307,1328,1347,1367,1387,1408,1428,1448],"xSR":741.5,"ySR":573.95,"xT1":424.9,"yT1":0,"xT2":1058.1,"yT2":0,"toosoon":0,"cond_shown":"Incongruent","ratio_trial":100,"L_num":6,"L_den":10,"R_num":7,"R_den":14,"correct_side":1,"subjID":"isabellasanchezvargas6","gender":"1","school":"4","age":"9"},{"start_time":1552073471418,"click_time":1552073473116,"finger_time":1552073472236,"fix_duration":1040.328039313207,"trial":37,"RT":818,"MT":880,"sideResp":1,"stimulus":[],"xmouse":[766,766,766,766,766,766,766,766,766,766,766,766,766,766,766,766,766,766,766,766,766,766,766,766,766,766,766,766,766,766,766,766,766,768,771,773,776,777,777,779,781,782,782,782,784,784,784,784,784,784,784,782,780,778,772,762,750,730,709,665,648,629,607,589,564,560,559,559,559,559,558,557,555,553,550,547,545,542,540,538,535,532,530,527,522],"ymouse":[631,631,631,631,631,631,631,631,631,631,631,631,631,631,631,631,631,631,631,631,631,631,631,631,631,631,631,631,631,631,631,631,631,625,616,610,599,590,584,574,568,566,564,560,548,542,535,523,507,468,444,430,415,399,365,343,314,282,254,203,188,177,166,157,147,145,145,145,145,145,145,143,140,136,127,121,117,112,109,108,105,104,102,101,99],"timestamp_mouse":[19,40,58,78,97,118,139,158,179,197,217,239,258,278,297,317,337,357,378,398,418,439,458,478,497,517,538,557,578,599,619,638,658,678,697,717,738,758,777,797,818,839,858,878,898,917,937,957,978,998,1018,1037,1058,1077,1097,1117,1138,1157,1178,1197,1217,1237,1257,1279,1298,1317,1338,1357,1377,1397,1418,1438,1458,1478,1497,1517,1538,1557,1577,1597,1618,1637,1658,1677,1697],"xSR":741.5,"ySR":573.95,"xT1":424.9,"yT1":0,"xT2":1058.1,"yT2":0,"toosoon":0,"cond_shown":"Incongruent","ratio_trial":100,"L_num":2,"L_den":4,"R_num":6,"R_den":15,"correct_side":1,"subjID":"isabellasanchezvargas6","gender":"1","school":"4","age":"9"},{"start_time":1552073475009,"click_time":1552073476537,"finger_time":1552073475836,"fix_duration":890.5696078759984,"trial":38,"RT":827,"MT":701,"sideResp":1,"stimulus":[],"xmouse":[801,801,801,801,801,801,801,801,801,801,801,801,801,801,801,801,801,801,801,801,801,801,801,801,801,801,801,801,802,802,802,805,806,806,806,808,810,810,811,812,813,827,832,838,841,843,843,843,843,841,832,825,818,809,800,766,742,712,688,666,634,625,618,612,603,587,585,583,582,580,576,569,564,556,547,527,517],"ymouse":[656,656,656,656,656,656,656,656,656,656,656,656,656,656,656,656,656,656,656,656,656,656,656,656,656,656,656,656,654,652,648,637,630,625,621,610,602,595,590,585,578,551,530,505,479,435,413,390,368,350,317,299,286,275,262,232,216,198,184,172,155,152,149,147,143,138,137,135,135,134,131,126,123,115,110,98,94],"timestamp_mouse":[20,44,46,66,86,107,126,147,166,188,207,226,246,267,288,307,327,348,367,387,406,427,448,468,487,507,527,547,566,588,606,627,646,667,687,707,726,746,766,788,806,827,846,867,887,906,926,946,966,988,1007,1027,1046,1066,1086,1106,1127,1147,1168,1187,1207,1227,1246,1266,1286,1306,1327,1347,1367,1387,1407,1426,1446,1466,1486,1506,1527],"xSR":741.5,"ySR":573.95,"xT1":424.9,"yT1":0,"xT2":1058.1,"yT2":0,"toosoon":0,"cond_shown":"Congruent","ratio_trial":300,"L_num":2,"L_den":10,"R_num":12,"R_den":24,"correct_side":2,"subjID":"isabellasanchezvargas6","gender":"1","school":"4","age":"9"},{"start_time":1552073482657,"click_time":1552073484176,"finger_time":1552073483515,"fix_duration":699.2916219523579,"trial":39,"RT":858,"MT":661,"sideResp":2,"stimulus":[],"xmouse":[793,793,793,793,793,793,793,793,793,793,793,793,793,793,793,793,793,793,793,793,793,793,793,793,794,794,794,794,794,794,794,795,795,795,795,796,796,796,797,798,799,800,802,809,813,818,824,831,834,837,837,837,837,836,834,833,832,832,834,836,843,854,869,900,914,926,937,950,974,989,995,1000,1005,1020,1032,1049,1065],"ymouse":[636,636,636,636,636,636,636,636,636,636,636,636,636,636,636,636,636,636,636,636,636,636,636,636,636,635,634,634,634,633,633,631,631,630,630,628,626,624,620,614,610,604,596,563,538,506,462,420,357,320,294,269,245,211,197,185,174,164,147,141,127,116,110,100,96,93,91,89,85,84,83,83,82,79,79,78,78],"timestamp_mouse":[1,19,38,58,78,99,118,138,158,179,200,218,239,258,279,299,318,338,358,378,399,418,440,458,479,498,519,539,558,578,598,619,640,659,679,699,718,739,758,779,798,819,839,858,878,898,918,939,958,978,999,1018,1038,1058,1078,1098,1118,1139,1158,1179,1198,1220,1238,1259,1279,1299,1318,1339,1358,1378,1398,1419,1439,1459,1478,1499,1519],"xSR":741.5,"ySR":573.95,"xT1":424.9,"yT1":0,"xT2":1058.1,"yT2":0,"toosoon":0,"cond_shown":"Congruent","ratio_trial":200,"L_num":3,"L_den":10,"R_num":14,"R_den":28,"correct_side":2,"subjID":"isabellasanchezvargas6","gender":"1","school":"4","age":"9"},{"start_time":1552073486829,"click_time":1552073488515,"finger_time":1552073487495,"fix_duration":1270.8993147722158,"trial":40,"RT":666,"MT":1020,"sideResp":1,"stimulus":[],"xmouse":[793,793,793,793,793,793,793,793,793,793,793,793,793,793,793,793,793,793,793,793,793,793,793,793,793,793,793,793,793,793,794,796,800,802,807,808,810,813,816,817,820,822,825,825,825,825,825,827,832,839,839,834,827,813,783,766,749,728,710,681,667,655,646,629,592,575,568,568,568,566,564,562,560,558,555,552,549,547,545,539,537,534,531,527,514],"ymouse":[615,616,616,617,617,617,617,617,617,617,617,617,617,617,617,617,617,617,617,617,617,617,617,617,617,617,617,617,616,613,605,592,576,558,519,503,485,470,456,437,421,410,396,384,352,334,317,303,287,238,219,196,176,156,120,105,92,79,68,53,45,41,35,29,18,14,12,12,12,12,15,16,19,20,27,31,36,37,40,47,49,50,51,52,54],"timestamp_mouse":[13,37,46,67,87,108,127,147,167,186,206,226,246,267,287,308,327,346,367,388,407,427,447,466,486,507,528,547,567,586,607,626,647,666,686,706,726,747,767,786,807,826,846,867,887,906,926,946,966,987,1006,1026,1046,1066,1086,1106,1127,1146,1167,1186,1206,1226,1246,1267,1286,1306,1326,1347,1366,1386,1407,1426,1446,1466,1487,1506,1527,1547,1567,1587,1606,1626,1646,1666,1686],"xSR":741.5,"ySR":573.95,"xT1":424.9,"yT1":0,"xT2":1058.1,"yT2":0,"toosoon":0,"cond_shown":"Incongruent","ratio_trial":200,"L_num":7,"L_den":10,"R_num":8,"R_den":16,"correct_side":1,"subjID":"isabellasanchezvargas6","gender":"1","school":"4","age":"9"},{"start_time":1552073490219,"click_time":1552073492196,"finger_time":1552073490935,"fix_duration":603.9443821685228,"trial":41,"RT":716,"MT":1261,"sideResp":1,"stimulus":[],"xmouse":[773,773,773,773,773,773,773,773,773,773,773,773,773,773,773,773,773,773,773,773,773,773,773,773,773,773,773,773,773,773,773,773,773,773,777,777,777,775,770,767,767,768,769,770,771,771,771,770,770,766,764,759,758,758,756,756,755,752,746,725,705,689,678,669,658,656,653,651,651,648,644,641,639,635,628,621,612,602,592,584,584,583,583,583,583,583,583,583,583,583,583,583,583,580,562,552,539,525,513],"ymouse":[607,607,607,607,607,607,607,607,607,607,607,607,607,607,607,607,607,607,607,607,607,607,607,607,607,607,607,607,607,607,607,607,607,607,581,551,521,495,474,407,399,387,378,373,361,352,343,337,333,317,309,292,286,281,275,271,263,249,231,192,167,153,142,134,124,120,116,114,113,110,105,103,100,97,93,90,85,81,77,74,74,73,73,73,73,73,73,73,73,73,73,73,73,73,72,71,69,68,67],"timestamp_mouse":[19,45,56,76,97,117,136,156,176,197,216,237,256,276,297,316,337,356,376,397,416,437,456,477,496,516,537,558,576,596,618,637,656,676,696,716,736,756,777,796,818,836,856,876,896,916,937,956,978,996,1016,1036,1057,1076,1096,1116,1136,1156,1177,1196,1217,1236,1256,1277,1296,1317,1337,1357,1377,1396,1417,1436,1456,1477,1496,1516,1537,1556,1578,1596,1617,1637,1656,1677,1697,1717,1738,1758,1777,1797,1817,1837,1857,1877,1898,1917,1936,1957,1977],"xSR":741.5,"ySR":573.95,"xT1":424.9,"yT1":0,"xT2":1058.1,"yT2":0,"toosoon":0,"cond_shown":"Congruent","ratio_trial":300,"L_num":11,"L_den":22,"R_num":4,"R_den":20,"correct_side":1,"subjID":"isabellasanchezvargas6","gender":"1","school":"4","age":"9"},{"start_time":1552073494139,"click_time":1552073495715,"finger_time":1552073494877,"fix_duration":981.5958909075608,"trial":42,"RT":738,"MT":838,"sideResp":2,"stimulus":[],"xmouse":[780,780,780,780,780,780,780,780,780,780,780,780,780,780,780,780,780,780,780,780,780,780,780,780,780,780,780,780,780,780,780,780,780,780,780,780,780,780,780,780,780,782,785,789,790,790,791,794,801,805,807,810,812,816,824,830,842,854,889,902,917,931,943,978,989,996,1000,1005,1013,1017,1021,1024,1029,1035,1038,1041,1045,1049,1060],"ymouse":[661,661,661,661,661,661,661,661,661,661,661,661,661,661,661,661,661,661,661,661,654,650,646,640,639,638,637,635,632,630,626,624,621,612,594,582,571,562,544,532,517,500,485,448,424,412,399,387,360,347,335,323,317,304,286,272,252,231,178,162,147,135,125,104,97,93,90,88,85,84,82,81,78,76,75,74,73,73,71],"timestamp_mouse":[17,39,56,76,96,116,136,157,178,197,216,237,257,277,298,317,337,357,376,396,417,436,456,476,496,516,536,556,576,597,617,636,656,677,696,716,738,756,776,796,816,836,857,876,897,916,936,956,976,997,1017,1036,1057,1077,1096,1116,1136,1156,1176,1196,1217,1236,1257,1276,1296,1317,1336,1356,1376,1396,1417,1436,1457,1476,1497,1516,1537,1556,1576],"xSR":741.5,"ySR":573.95,"xT1":424.9,"yT1":0,"xT2":1058.1,"yT2":0,"toosoon":0,"cond_shown":"Incongruent","ratio_trial":100,"L_num":6,"L_den":10,"R_num":11,"R_den":22,"correct_side":1,"subjID":"isabellasanchezvargas6","gender":"1","school":"4","age":"9"},{"start_time":1552073497467,"click_time":1552073498516,"finger_time":1552073497855,"fix_duration":250,"trial":43,"RT":388,"MT":661,"sideResp":1,"stimulus":[],"xmouse":[771,771,771,771,771,771,771,771,771,771,771,770,766,766,765,764,761,758,754,749,743,735,728,728,727,727,727,727,730,730,736,738,747,749,749,748,741,720,706,682,668,659,650,648,646,641,636,606,588,560,543,525,500],"ymouse":[646,646,646,646,646,646,646,646,646,646,645,644,639,638,636,631,625,612,580,544,503,473,451,450,449,444,436,417,400,393,369,353,311,290,267,240,220,179,160,138,127,118,113,112,111,108,104,89,82,70,63,57,46],"timestamp_mouse":[19,28,50,68,88,108,128,150,169,188,208,228,248,268,288,308,329,348,368,388,409,428,448,468,488,508,529,548,569,588,608,630,648,668,688,708,728,748,769,788,809,828,848,868,889,909,928,948,969,988,1008,1029,1049],"xSR":741.5,"ySR":573.95,"xT1":424.9,"yT1":0,"xT2":1058.1,"yT2":0,"toosoon":0,"cond_shown":"Congruent","ratio_trial":100,"L_num":6,"L_den":20,"R_num":5,"R_den":25,"correct_side":1,"subjID":"isabellasanchezvargas6","gender":"1","school":"4","age":"9"},{"start_time":1552073505999,"click_time":1552073508395,"finger_time":1552073506375,"fix_duration":881.374247456778,"trial":44,"RT":376,"MT":2020,"sideResp":1,"stimulus":[],"xmouse":[811,811,811,811,811,811,811,811,811,811,811,811,811,813,814,828,833,838,841,846,847,847,849,849,849,849,849,848,845,841,836,834,831,830,829,829,829,829,828,828,828,828,831,836,839,847,849,851,855,862,889,907,946,973,994,1039,1059,1077,1091,1101,1121,1131,1148,1157,1161,1163,1163,1163,1163,1163,1163,1163,1163,1163,1163,1151,1133,1113,1095,1079,1066,1066,1066,1066,1066,1065,1060,1054,1044,1029,990,971,940,919,901,860,836,796,752,720,673,651,620,601,587,566,552,543,536,533,529,529,529,529,528,528,528,528,527,522],"ymouse":[603,603,603,603,603,603,603,603,603,603,603,603,603,603,603,592,586,579,572,561,556,553,544,534,521,498,482,461,439,420,384,369,349,340,333,323,318,314,309,305,297,290,277,266,256,243,240,238,237,235,229,223,212,205,199,185,179,174,170,169,165,164,159,155,153,152,152,152,152,152,152,152,152,151,151,151,151,151,151,151,151,151,151,151,151,151,150,150,148,146,142,140,135,132,128,122,119,114,108,101,92,86,79,77,74,67,63,61,57,56,55,55,55,55,54,54,54,54,54,54],"timestamp_mouse":[16,36,57,76,96,116,137,157,178,197,224,237,258,276,296,317,336,357,376,398,416,436,456,478,497,516,536,556,576,596,616,637,656,677,696,716,736,756,776,796,817,837,856,877,897,916,936,956,977,997,1016,1036,1057,1077,1096,1116,1137,1156,1176,1197,1216,1236,1256,1276,1296,1316,1337,1357,1377,1397,1416,1436,1456,1476,1496,1516,1536,1557,1576,1596,1616,1638,1658,1676,1696,1716,1736,1756,1777,1798,1816,1837,1856,1876,1896,1916,1936,1957,1976,1997,2016,2036,2056,2077,2096,2118,2136,2156,2177,2196,2217,2236,2256,2277,2296,2317,2337,2357,2377,2396],"xSR":741.5,"ySR":573.95,"xT1":424.9,"yT1":0,"xT2":1058.1,"yT2":0,"toosoon":0,"cond_shown":"Incongruent","ratio_trial":100,"L_num":6,"L_den":10,"R_num":7,"R_den":14,"correct_side":1,"subjID":"isabellasanchezvargas6","gender":"1","school":"4","age":"9"},{"start_time":1552073510200,"click_time":1552073512856,"finger_time":1552073510956,"fix_duration":641.0279361209801,"trial":45,"RT":756,"MT":1900,"sideResp":1,"stimulus":[],"xmouse":[783,783,783,783,783,783,783,783,783,783,783,783,783,783,783,783,783,783,783,783,783,783,783,783,783,783,783,783,783,783,783,783,783,784,789,794,795,797,799,805,808,810,811,813,816,822,825,826,828,828,828,822,819,797,769,735,725,714,706,695,680,676,672,671,667,666,665,664,664,664,664,664,664,664,664,664,664,667,680,704,790,844,854,879,887,892,892,892,893,895,909,917,927,942,950,950,950,950,950,950,950,949,942,938,918,900,876,849,821,774,755,740,728,712,707,685,665,643,619,594,551,540,533,531,531,530,529,529,529,529,527,525,519],"ymouse":[596,596,596,596,596,596,596,596,596,596,596,596,596,596,596,596,596,596,596,596,596,596,596,596,596,596,596,596,596,596,596,596,595,594,586,579,575,571,567,549,539,530,523,510,500,476,463,451,437,401,380,342,329,274,222,157,139,122,105,90,70,64,58,56,51,50,49,48,48,48,48,48,48,48,48,48,48,48,48,48,55,62,63,66,67,67,67,67,67,67,67,67,67,67,67,67,67,67,67,67,67,67,66,66,62,60,57,52,48,42,41,41,41,41,41,40,40,40,40,39,35,34,34,34,34,34,34,34,34,34,34,34,34],"timestamp_mouse":[16,38,55,75,97,115,135,155,175,195,215,236,256,275,295,316,336,356,376,396,417,436,456,476,496,515,537,557,576,595,616,635,655,676,695,715,735,756,775,796,815,837,856,875,895,915,935,956,975,996,1015,1035,1055,1076,1095,1115,1135,1156,1175,1196,1215,1236,1256,1276,1296,1315,1335,1356,1376,1396,1415,1435,1456,1475,1496,1515,1535,1555,1575,1595,1616,1635,1655,1676,1695,1716,1735,1755,1777,1796,1817,1836,1855,1875,1896,1915,1935,1957,1975,1995,2017,2035,2055,2075,2096,2115,2135,2156,2175,2196,2215,2235,2257,2275,2295,2315,2335,2355,2375,2396,2415,2436,2457,2476,2495,2516,2536,2555,2576,2595,2615,2635,2656],"xSR":741.5,"ySR":573.95,"xT1":424.9,"yT1":0,"xT2":1058.1,"yT2":0,"toosoon":0,"cond_shown":"Congruent","ratio_trial":300,"L_num":24,"L_den":30,"R_num":2,"R_den":4,"correct_side":1,"subjID":"isabellasanchezvargas6","gender":"1","school":"4","age":"9"},{"start_time":1552073515138,"click_time":1552073516495,"finger_time":1552073515856,"fix_duration":761.7027426224472,"trial":46,"RT":718,"MT":639,"sideResp":2,"stimulus":[],"xmouse":[798,798,798,798,798,798,798,798,798,798,798,798,798,798,798,798,798,798,798,798,798,798,798,798,798,798,798,797,793,793,793,793,793,793,793,793,793,793,796,800,804,811,846,876,906,926,941,948,961,968,977,982,988,1001,1010,1015,1019,1024,1035,1038,1041,1043,1046,1049,1053,1055,1057,1059],"ymouse":[623,623,623,623,623,623,623,623,623,623,623,623,623,623,623,623,623,623,623,623,623,623,623,623,623,622,615,608,599,597,595,593,591,583,578,572,565,546,520,505,492,475,407,357,299,256,215,193,157,139,124,114,104,88,79,75,72,70,65,64,62,62,60,60,60,59,58,57],"timestamp_mouse":[20,37,59,79,98,118,137,157,178,198,217,239,258,277,297,317,337,357,379,397,417,438,457,479,498,517,537,557,578,597,617,638,658,677,698,718,738,757,778,797,817,837,858,877,898,917,937,958,979,997,1017,1037,1057,1077,1098,1117,1137,1157,1178,1197,1218,1237,1258,1277,1298,1317,1337,1357],"xSR":741.5,"ySR":573.95,"xT1":424.9,"yT1":0,"xT2":1058.1,"yT2":0,"toosoon":0,"cond_shown":"Incongruent","ratio_trial":200,"L_num":9,"L_den":15,"R_num":8,"R_den":10,"correct_side":2,"subjID":"isabellasanchezvargas6","gender":"1","school":"4","age":"9"},{"start_time":1552073517907,"click_time":1552073519736,"finger_time":1552073518915,"fix_duration":268.6063805404864,"trial":47,"RT":1008,"MT":821,"sideResp":2,"stimulus":[],"xmouse":[795,795,795,795,795,795,795,795,795,795,795,795,795,795,795,795,795,795,795,795,795,795,795,795,795,795,795,795,795,795,795,795,795,795,795,795,795,795,795,795,795,795,795,797,798,800,800,800,800,801,804,806,808,808,810,813,816,820,823,828,833,836,840,845,851,860,869,872,877,888,901,910,917,923,932,946,956,959,964,966,973,981,994,1006,1037,1052,1068,1072,1085,1094,1106,1109],"ymouse":[622,622,622,622,622,622,622,622,622,622,622,622,622,622,622,622,622,622,622,622,622,622,622,622,622,622,622,622,622,622,622,622,622,622,622,622,622,622,622,622,622,622,622,610,606,593,591,590,588,584,570,559,548,538,528,510,498,483,467,442,412,395,380,362,344,304,278,272,262,245,228,220,214,209,203,193,188,186,183,182,176,171,164,157,142,135,127,124,115,109,101,97],"timestamp_mouse":[12,39,50,69,88,110,128,148,169,189,208,229,249,269,289,309,329,349,369,389,409,428,448,468,488,508,528,550,568,589,609,629,648,668,689,708,730,749,768,788,809,829,848,868,888,908,929,949,969,988,1008,1028,1048,1068,1089,1109,1128,1149,1168,1189,1208,1228,1248,1268,1288,1308,1329,1348,1368,1388,1408,1428,1449,1468,1488,1508,1529,1548,1568,1588,1608,1629,1649,1668,1689,1708,1728,1748,1769,1788,1809,1828],"xSR":741.5,"ySR":573.95,"xT1":424.9,"yT1":0,"xT2":1058.1,"yT2":0,"toosoon":0,"cond_shown":"Incongruent","ratio_trial":200,"L_num":7,"L_den":15,"R_num":6,"R_den":9,"correct_side":2,"subjID":"isabellasanchezvargas6","gender":"1","school":"4","age":"9"},{"start_time":1552073521508,"click_time":1552073523155,"finger_time":1552073522455,"fix_duration":529.8312238413754,"trial":48,"RT":947,"MT":700,"sideResp":2,"stimulus":[],"xmouse":[775,775,775,775,775,775,775,775,775,775,775,775,775,775,775,775,775,775,775,775,775,775,775,775,775,775,775,775,775,775,775,775,775,775,775,775,775,775,775,775,775,776,777,777,779,781,784,787,792,795,804,806,809,813,820,837,844,849,856,863,881,890,900,908,916,932,945,952,961,971,978,996,1001,1007,1013,1023,1030,1036,1040,1048,1055,1058,1060],"ymouse":[601,601,601,601,601,601,601,601,601,601,601,601,601,601,601,601,601,601,601,601,601,601,601,601,601,601,601,601,601,601,601,601,601,601,601,601,601,601,601,601,601,602,600,597,594,588,576,565,549,534,497,480,461,447,428,389,372,357,341,323,283,266,248,234,219,193,172,163,152,144,138,126,123,119,116,112,109,106,104,101,97,95,93],"timestamp_mouse":[20,43,48,68,87,109,127,147,168,187,207,227,247,267,289,308,328,348,367,388,408,427,448,467,487,509,528,548,567,588,607,628,648,667,688,707,728,749,767,787,808,827,847,868,888,907,928,947,968,988,1008,1027,1047,1067,1088,1107,1128,1148,1167,1187,1208,1227,1247,1267,1288,1307,1328,1347,1368,1387,1407,1427,1448,1468,1487,1507,1527,1547,1567,1588,1607,1627,1647],"xSR":741.5,"ySR":573.95,"xT1":424.9,"yT1":0,"xT2":1058.1,"yT2":0,"toosoon":0,"cond_shown":"Congruent","ratio_trial":300,"L_num":2,"L_den":10,"R_num":12,"R_den":24,"correct_side":2,"subjID":"isabellasanchezvargas6","gender":"1","school":"4","age":"9"},{"start_time":1552073524867,"click_time":1552073526915,"finger_time":1552073526175,"fix_duration":250,"trial":49,"RT":1308,"MT":740,"sideResp":2,"stimulus":[],"xmouse":[790,790,790,790,789,789,789,789,789,789,789,789,789,789,789,789,789,789,789,789,789,789,789,789,789,789,789,789,789,789,789,789,789,789,789,789,789,789,789,789,789,789,789,789,789,789,789,789,789,789,789,789,789,789,789,789,789,789,789,790,790,792,794,797,801,806,813,833,835,843,850,855,866,872,877,882,887,898,906,912,918,925,944,953,964,975,985,993,1001,1001,1002,1003,1007,1010,1012,1014,1018,1030,1033,1038,1043,1048,1059],"ymouse":[595,595,596,597,597,597,597,597,597,597,597,597,597,597,597,597,597,597,597,597,597,598,598,598,598,598,598,598,598,598,598,598,598,598,598,598,598,598,598,598,598,598,598,598,598,598,598,598,598,598,598,598,598,598,598,598,598,598,598,597,596,595,592,587,581,570,556,513,503,474,453,432,392,374,356,339,321,283,253,231,213,194,156,142,129,114,103,95,87,87,86,85,84,82,81,80,78,74,74,73,71,71,69],"timestamp_mouse":[8,28,51,70,88,108,128,150,169,188,208,228,250,269,289,309,330,349,368,389,410,428,449,468,489,509,529,548,569,589,608,630,648,668,689,709,728,749,769,789,809,828,849,870,890,909,928,948,968,989,1009,1028,1049,1068,1090,1108,1129,1150,1168,1188,1209,1230,1248,1268,1289,1308,1330,1349,1369,1388,1408,1428,1448,1468,1488,1508,1529,1548,1568,1588,1608,1628,1648,1669,1689,1708,1728,1748,1768,1789,1808,1828,1848,1869,1888,1908,1928,1948,1968,1988,2008,2028,2048],"xSR":741.5,"ySR":573.95,"xT1":424.9,"yT1":0,"xT2":1058.1,"yT2":0,"toosoon":0,"cond_shown":"Congruent","ratio_trial":200,"L_num":13,"L_den":26,"R_num":14,"R_den":20,"correct_side":2,"subjID":"isabellasanchezvargas6","gender":"1","school":"4","age":"9"},{"start_time":1552073528643,"click_time":1552073530015,"finger_time":1552073529375,"fix_duration":446.2131967545866,"trial":50,"RT":732,"MT":640,"sideResp":1,"stimulus":[],"xmouse":[802,802,802,802,802,802,802,802,802,802,802,802,802,802,802,802,802,802,802,802,802,802,802,802,802,802,802,802,802,802,802,802,803,806,811,815,817,819,823,826,828,830,833,834,834,834,833,826,811,790,770,737,699,630,613,604,600,597,597,597,597,596,593,575,561,549,536,531,519],"ymouse":[617,617,617,617,617,617,617,617,617,617,617,617,617,617,617,617,617,617,617,617,617,617,617,617,617,617,617,617,617,617,617,617,617,609,594,576,558,542,512,492,479,466,451,416,398,376,351,323,273,222,185,141,100,44,31,23,20,19,19,19,19,19,19,19,20,22,24,24,27],"timestamp_mouse":[21,32,53,73,93,114,133,