[{"start_time":1552073870331,"click_time":1552073873951,"finger_time":1552073873351,"fix_duration":1136.4549614844004,"trial":0,"RT":3020,"MT":600,"sideResp":2,"stimulus":"img/750/randomdotsizeEA/L/8_Ratio_750_L_4_R_3.png","xmouse":[773,773,773,773,773,773,773,773,773,773,773,773,773,773,773,773,773,773,773,773,773,773,773,773,773,773,773,773,773,773,773,773,773,773,773,773,773,773,773,773,773,773,773,773,773,773,773,773,773,773,773,773,773,773,773,773,773,773,773,773,773,773,773,773,773,773,773,773,773,773,773,773,773,773,773,773,773,773,773,773,773,773,773,773,773,773,773,773,773,773,773,773,773,773,773,773,773,773,773,773,773,773,773,773,773,773,773,773,773,773,773,773,773,773,773,773,773,773,773,773,773,773,773,773,773,773,773,773,773,773,773,773,773,773,773,773,773,773,773,773,773,773,773,770,766,766,766,766,766,796,837,870,883,883,887,887,887,887,887,887,887,887,887,887,887,887,887,887,887,887,887,887,887,887,887,887,887,1180,1179,1167,1158],"ymouse":[558,558,558,558,558,558,558,558,558,558,558,558,558,558,558,558,558,558,558,558,558,558,558,558,558,558,558,558,558,558,558,558,558,558,558,558,558,558,558,558,558,558,558,558,558,558,558,558,558,558,558,558,558,558,558,558,558,558,558,558,558,558,558,558,558,558,558,558,558,558,558,558,558,558,558,558,558,558,558,558,558,558,558,558,558,558,558,558,558,558,558,558,558,558,558,558,558,558,558,558,558,558,558,558,558,558,558,558,558,558,558,558,558,558,558,558,558,558,558,558,558,558,558,558,558,558,558,558,558,558,558,558,558,558,558,558,558,558,558,558,558,558,558,556,534,531,531,531,528,489,397,270,147,57,1,1,1,1,1,1,1,1,1,1,1,1,1,1,1,1,1,1,1,1,1,1,1,2,5,22,33],"timestamp_mouse":[11,41,59,79,100,119,139,160,180,199,220,240,260,280,299,319,339,359,379,399,420,441,460,479,499,519,541,559,580,599,620,639,660,679,699,719,740,759,779,799,820,840,859,879,899,920,940,960,979,999,1020,1040,1059,1079,1099,1120,1139,1160,1180,1199,1220,1239,1260,1279,1299,1319,1340,1359,1379,1399,1419,1439,1459,1479,1499,1519,1540,1559,1580,1600,1619,1640,1660,1679,1699,1719,1739,1760,1779,1799,1820,1839,1860,1879,1899,1919,1941,1961,1980,1999,2019,2040,2060,2079,2101,2120,2140,2160,2180,2199,2220,2239,2260,2280,2299,2320,2339,2360,2379,2399,2421,2440,2459,2479,2501,2521,2540,2559,2579,2600,2620,2640,2660,2680,2699,2719,2740,2759,2780,2800,2820,2839,2859,2880,2899,2920,2939,2960,2980,3000,3020,3039,3060,3079,3099,3120,3140,3160,3179,3200,3220,3239,3259,3279,3300,3319,3340,3360,3379,3400,3419,3439,3459,3479,3500,3519,3539,3560,3579,3600,3619],"xSR":741.5,"ySR":501.8,"xT1":424.9,"yT1":0,"xT2":1058.1,"yT2":0,"toosoon":0,"cond_shown":"randomdotsizeEA","ratio_trial":750,"smaller_num":"3","larger_num":"4","correct_side":1,"subjID":"isabellasanchezvargas6","gender":"1","age":"9","school":"4","test":{"fix_dur":[250,1500],"timestim":300,"targets_dim":[100,100],"targets_relative_coord":[0.3,0.7],"size_stim":[880,420],"start_dim":[100,100],"size_start":[300,300],"size_fix":60,"samplingrate":20,"img_types":["equaldotsize","equaldotanddens","randomdotsizeEA"],"ratios":[250,500,750,900],"rep_conds":9,"nTrials":120,"trials_to_rest":500,"Trials_order":[68,71,25,50,114,98,101,103,35,7,8,58,43,95,26,14,0,76,30,119,72,53,59,36,10,20,110,62,89,92,116,54,73,37,1,15,65,57,60,5,22,106,80,9,86,85,90,75,28,19,27,55,42,13,117,96,31,45,108,107,93,118,3,99,64,97,111,29,38,17,21,70,44,104,100,18,24,56,47,83,12,79,40,33,52,105,91,49,67,6,81,51,74,16,77,112,78,2,39,94,102,48,115,46,61,109,113,11,23,66,88,4,87,69,32,41,84,63,82,34],"cond_shown":["randomdotsizeEA","randomdotsizeEA","equaldotanddens","randomdotsizeEA","equaldotsize","randomdotsizeEA","randomdotsizeEA","equaldotanddens","randomdotsizeEA","equaldotanddens","randomdotsizeEA","equaldotanddens","equaldotanddens","randomdotsizeEA","randomdotsizeEA","randomdotsizeEA","equaldotsize","equaldotanddens","equaldotsize","randomdotsizeEA","equaldotsize","randomdotsizeEA","randomdotsizeEA","equaldotsize","equaldotanddens","randomdotsizeEA","randomdotsizeEA","randomdotsizeEA","randomdotsizeEA","randomdotsizeEA","randomdotsizeEA","equaldotsize","equaldotanddens","equaldotanddens","equaldotanddens","equaldotsize","randomdotsizeEA","equaldotsize","equaldotsize","randomdotsizeEA","equaldotanddens","equaldotanddens","randomdotsizeEA","equaldotsize","randomdotsizeEA","equaldotanddens","equaldotsize","equaldotsize","equaldotanddens","equaldotanddens","equaldotsize","equaldotanddens","equaldotsize","equaldotanddens","equaldotsize","equaldotsize","equaldotanddens","equaldotsize","equaldotsize","randomdotsizeEA","equaldotsize","equaldotanddens","equaldotsize","equaldotsize","equaldotanddens","equaldotanddens","equaldotsize","randomdotsizeEA","randomdotsizeEA","randomdotsizeEA","equaldotsize","equaldotanddens","randomdotsizeEA","randomdotsizeEA","equaldotanddens","equaldotsize","equaldotsize","randomdotsizeEA","randomdotsizeEA","randomdotsizeEA","equaldotsize","equaldotanddens","equaldotanddens","equaldotsize","equaldotanddens","equaldotsize","equaldotanddens","equaldotanddens","equaldotanddens","equaldotsize","equaldotsize","equaldotsize","randomdotsizeEA","equaldotanddens","randomdotsizeEA","equaldotanddens","equaldotsize","randomdotsizeEA","equaldotsize","equaldotanddens","equaldotsize","equaldotsize","equaldotanddens","equaldotanddens","equaldotanddens","equaldotanddens","randomdotsizeEA","randomdotsizeEA","randomdotsizeEA","equaldotsize","equaldotanddens","equaldotanddens","equaldotsize","equaldotsize","randomdotsizeEA","randomdotsizeEA","equaldotsize","equaldotsize","equaldotanddens","equaldotanddens"],"ratio_trial":[750,900,250,250,750,250,500,750,900,750,750,900,750,900,250,250,250,500,750,900,250,500,900,250,900,750,250,250,500,750,750,750,250,250,250,500,500,900,250,500,900,900,750,900,250,250,750,500,500,750,500,750,750,250,900,250,750,900,250,900,900,900,500,500,500,250,500,500,250,500,900,900,750,750,500,750,250,750,900,900,250,750,500,900,500,900,750,250,750,750,900,500,250,500,500,500,750,250,500,900,750,250,750,900,250,250,500,900,900,750,500,500,500,900,750,500,250,500,900,900],"smaller_num":["3","18","4","6","6","3","3","15","9","3","15","18","15","18","4","6","5","9","9","9","3","5","18","3","9","15","4","2","10","3","3","6","6","1","3","2","2","18","4","2","18","18","3","18","3","6","15","10","10","3","9","15","15","3","9","4","9","18","6","18","9","18","1","4","5","2","9","6","3","5","18","9","15","15","4","15","6","3","9","18","5","15","3","18","2","18","15","4","18","9","18","5","2","2","5","2","6","5","9","18","3","2","6","18","6","3","4","18","18","6","5","1","2","18","9","2","2","3","18","9"],"larger_num":["4","20","16","24","8","12","6","20","10","4","20","20","20","20","16","24","20","18","12","10","12","10","20","12","10","20","16","8","20","4","4","8","24","4","12","4","4","20","16","4","20","20","4","20","12","24","20","20","20","4","18","20","20","12","10","16","12","20","24","20","10","20","2","8","10","8","18","12","12","10","20","10","20","20","8","20","24","4","10","20","20","20","6","20","4","20","20","16","24","12","20","10","8","4","10","4","8","20","18","20","4","8","8","20","24","12","8","20","20","8","10","2","4","20","12","4","8","6","20","10"],"correct_side":[1,1,1,1,1,1,2,2,1,1,2,1,1,2,1,1,2,2,2,2,1,1,1,2,1,2,2,1,2,1,2,1,2,2,1,2,1,2,1,1,1,1,1,2,2,1,2,2,2,1,1,2,2,2,2,1,2,1,2,1,2,1,2,1,2,1,2,1,2,2,1,1,2,1,1,2,1,1,1,2,2,1,2,2,1,2,1,1,1,2,1,2,2,2,2,1,1,2,1,1,1,1,1,1,2,2,1,2,2,1,2,2,1,2,2,1,2,2,2,2],"img_shown":["img/750/randomdotsizeEA/L/8_Ratio_750_L_4_R_3.png","img/900/randomdotsizeEA/L/8_Ratio_900_L_20_R_18.png","img/250/equaldotanddens/L/2_Ratio_250_L_16_R_4.png","img/250/randomdotsizeEA/L/5_Ratio_250_L_24_R_6.png","img/750/equaldotsize/L/13_Ratio_750_L_8_R_6.png","img/250/randomdotsizeEA/L/14_Ratio_250_L_12_R_3.png","img/500/randomdotsizeEA/R/2_Ratio_500_L_3_R_6.png","img/750/equaldotanddens/R/4_Ratio_750_L_15_R_20.png","img/900/randomdotsizeEA/L/1_Ratio_900_L_10_R_9.png","img/750/equaldotanddens/L/9_Ratio_750_L_4_R_3.png","img/750/randomdotsizeEA/R/5_Ratio_750_L_15_R_20.png","img/900/equaldotanddens/L/10_Ratio_900_L_20_R_18.png","img/750/equaldotanddens/L/1_Ratio_750_L_20_R_15.png","img/900/randomdotsizeEA/R/11_Ratio_900_L_18_R_20.png","img/250/randomdotsizeEA/L/2_Ratio_250_L_16_R_4.png","img/250/randomdotsizeEA/L/5_Ratio_250_L_24_R_6.png","img/250/equaldotsize/R/12_Ratio_250_L_5_R_20.png","img/500/equaldotanddens/R/6_Ratio_500_L_9_R_18.png","img/750/equaldotsize/R/15_Ratio_750_L_9_R_12.png","img/900/randomdotsizeEA/R/15_Ratio_900_L_9_R_10.png","img/250/equaldotsize/L/14_Ratio_250_L_12_R_3.png","img/500/randomdotsizeEA/L/7_Ratio_500_L_10_R_5.png","img/900/randomdotsizeEA/L/2_Ratio_900_L_20_R_18.png","img/250/equaldotsize/R/4_Ratio_250_L_3_R_12.png","img/900/equaldotanddens/L/1_Ratio_900_L_10_R_9.png","img/750/randomdotsizeEA/R/5_Ratio_750_L_15_R_20.png","img/250/randomdotsizeEA/R/10_Ratio_250_L_4_R_16.png","img/250/randomdotsizeEA/L/1_Ratio_250_L_8_R_2.png","img/500/randomdotsizeEA/R/3_Ratio_500_L_10_R_20.png","img/750/randomdotsizeEA/L/9_Ratio_750_L_4_R_3.png","img/750/randomdotsizeEA/R/12_Ratio_750_L_3_R_4.png","img/750/equaldotsize/L/14_Ratio_750_L_8_R_6.png","img/250/equaldotanddens/R/6_Ratio_250_L_6_R_24.png","img/250/equaldotanddens/R/8_Ratio_250_L_1_R_4.png","img/250/equaldotanddens/L/15_Ratio_250_L_12_R_3.png","img/500/equaldotsize/R/9_Ratio_500_L_2_R_4.png","img/500/randomdotsizeEA/L/5_Ratio_500_L_4_R_2.png","img/900/equaldotsize/R/14_Ratio_900_L_18_R_20.png","img/250/equaldotsize/L/2_Ratio_250_L_16_R_4.png","img/500/randomdotsizeEA/L/10_Ratio_500_L_4_R_2.png","img/900/equaldotanddens/L/8_Ratio_900_L_20_R_18.png","img/900/equaldotanddens/L/10_Ratio_900_L_20_R_18.png","img/750/randomdotsizeEA/L/10_Ratio_750_L_4_R_3.png","img/900/equaldotsize/R/12_Ratio_900_L_18_R_20.png","img/250/randomdotsizeEA/R/4_Ratio_250_L_3_R_12.png","img/250/equaldotanddens/L/5_Ratio_250_L_24_R_6.png","img/750/equaldotsize/R/5_Ratio_750_L_15_R_20.png","img/500/equaldotsize/R/3_Ratio_500_L_10_R_20.png","img/500/equaldotanddens/R/3_Ratio_500_L_10_R_20.png","img/750/equaldotanddens/L/9_Ratio_750_L_4_R_3.png","img/500/equaldotsize/L/4_Ratio_500_L_18_R_9.png","img/750/equaldotanddens/R/5_Ratio_750_L_15_R_20.png","img/750/equaldotsize/R/4_Ratio_750_L_15_R_20.png","img/250/equaldotanddens/R/4_Ratio_250_L_3_R_12.png","img/900/equaldotsize/R/5_Ratio_900_L_9_R_10.png","img/250/equaldotsize/L/2_Ratio_250_L_16_R_4.png","img/750/equaldotanddens/R/15_Ratio_750_L_9_R_12.png","img/900/equaldotsize/L/10_Ratio_900_L_20_R_18.png","img/250/equaldotsize/R/6_Ratio_250_L_6_R_24.png","img/900/randomdotsizeEA/L/10_Ratio_900_L_20_R_18.png","img/900/equaldotsize/R/5_Ratio_900_L_9_R_10.png","img/900/equaldotanddens/L/4_Ratio_900_L_20_R_18.png","img/500/equaldotsize/R/15_Ratio_500_L_1_R_2.png","img/500/equaldotsize/L/8_Ratio_500_L_8_R_4.png","img/500/equaldotanddens/R/14_Ratio_500_L_5_R_10.png","img/250/equaldotanddens/L/3_Ratio_250_L_8_R_2.png","img/500/equaldotsize/R/1_Ratio_500_L_9_R_18.png","img/500/randomdotsizeEA/L/13_Ratio_500_L_12_R_6.png","img/250/randomdotsizeEA/R/4_Ratio_250_L_3_R_12.png","img/500/randomdotsizeEA/R/14_Ratio_500_L_5_R_10.png","img/900/equaldotsize/L/10_Ratio_900_L_20_R_18.png","img/900/equaldotanddens/L/1_Ratio_900_L_10_R_9.png","img/750/randomdotsizeEA/R/4_Ratio_750_L_15_R_20.png","img/750/randomdotsizeEA/L/1_Ratio_750_L_20_R_15.png","img/500/equaldotanddens/L/8_Ratio_500_L_8_R_4.png","img/750/equaldotsize/R/5_Ratio_750_L_15_R_20.png","img/250/equaldotsize/L/5_Ratio_250_L_24_R_6.png","img/750/randomdotsizeEA/L/10_Ratio_750_L_4_R_3.png","img/900/randomdotsizeEA/L/1_Ratio_900_L_10_R_9.png","img/900/randomdotsizeEA/R/13_Ratio_900_L_18_R_20.png","img/250/equaldotsize/R/12_Ratio_250_L_5_R_20.png","img/750/equaldotanddens/L/1_Ratio_750_L_20_R_15.png","img/500/equaldotanddens/R/2_Ratio_500_L_3_R_6.png","img/900/equaldotsize/R/14_Ratio_900_L_18_R_20.png","img/500/equaldotanddens/L/5_Ratio_500_L_4_R_2.png","img/900/equaldotsize/R/14_Ratio_900_L_18_R_20.png","img/750/equaldotanddens/L/1_Ratio_750_L_20_R_15.png","img/250/equaldotanddens/L/2_Ratio_250_L_16_R_4.png","img/750/equaldotanddens/L/6_Ratio_750_L_24_R_18.png","img/750/equaldotsize/R/15_Ratio_750_L_9_R_12.png","img/900/equaldotsize/L/8_Ratio_900_L_20_R_18.png","img/500/equaldotsize/R/14_Ratio_500_L_5_R_10.png","img/250/randomdotsizeEA/R/13_Ratio_250_L_2_R_8.png","img/500/equaldotanddens/R/9_Ratio_500_L_2_R_4.png","img/500/randomdotsizeEA/R/14_Ratio_500_L_5_R_10.png","img/500/equaldotanddens/L/10_Ratio_500_L_4_R_2.png","img/750/equaldotsize/L/14_Ratio_750_L_8_R_6.png","img/250/randomdotsizeEA/R/12_Ratio_250_L_5_R_20.png","img/500/equaldotsize/L/4_Ratio_500_L_18_R_9.png","img/900/equaldotanddens/L/2_Ratio_900_L_20_R_18.png","img/750/equaldotsize/L/8_Ratio_750_L_4_R_3.png","img/250/equaldotsize/L/3_Ratio_250_L_8_R_2.png","img/750/equaldotanddens/L/14_Ratio_750_L_8_R_6.png","img/900/equaldotanddens/L/10_Ratio_900_L_20_R_18.png","img/250/equaldotanddens/R/6_Ratio_250_L_6_R_24.png","img/250/equaldotanddens/R/4_Ratio_250_L_3_R_12.png","img/500/randomdotsizeEA/L/8_Ratio_500_L_8_R_4.png","img/900/randomdotsizeEA/R/14_Ratio_900_L_18_R_20.png","img/900/randomdotsizeEA/R/14_Ratio_900_L_18_R_20.png","img/750/equaldotsize/L/13_Ratio_750_L_8_R_6.png","img/500/equaldotanddens/R/14_Ratio_500_L_5_R_10.png","img/500/equaldotanddens/R/12_Ratio_500_L_1_R_2.png","img/500/equaldotsize/L/10_Ratio_500_L_4_R_2.png","img/900/equaldotsize/R/12_Ratio_900_L_18_R_20.png","img/750/randomdotsizeEA/R/15_Ratio_750_L_9_R_12.png","img/500/randomdotsizeEA/L/10_Ratio_500_L_4_R_2.png","img/250/equaldotsize/R/13_Ratio_250_L_2_R_8.png","img/500/equaldotsize/R/2_Ratio_500_L_3_R_6.png","img/900/equaldotanddens/R/14_Ratio_900_L_18_R_20.png","img/900/equaldotanddens/R/6_Ratio_900_L_9_R_10.png"],"Rat0":[["12_Ratio_0_L_9_R_0.png","13_Ratio_0_L_6_R_0.png","5_Ratio_0_L_2_R_0.png","6_Ratio_0_L_4_R_0.png","8_Ratio_0_L_6_R_0.png"],["1_Ratio_0_L_0_R_17.png","10_Ratio_0_L_0_R_22.png","11_Ratio_0_L_0_R_1.png","14_Ratio_0_L_0_R_24.png","15_Ratio_0_L_0_R_4.png","2_Ratio_0_L_0_R_5.png","3_Ratio_0_L_0_R_17.png","4_Ratio_0_L_0_R_7.png","7_Ratio_0_L_0_R_19.png","9_Ratio_0_L_0_R_15.png"]],"Rat250":[["1_Ratio_250_L_8_R_2.png","14_Ratio_250_L_12_R_3.png","15_Ratio_250_L_12_R_3.png","2_Ratio_250_L_16_R_4.png","3_Ratio_250_L_8_R_2.png","5_Ratio_250_L_24_R_6.png","7_Ratio_250_L_8_R_2.png"],["10_Ratio_250_L_4_R_16.png","11_Ratio_250_L_3_R_12.png","12_Ratio_250_L_5_R_20.png","13_Ratio_250_L_2_R_8.png","4_Ratio_250_L_3_R_12.png","6_Ratio_250_L_6_R_24.png","8_Ratio_250_L_1_R_4.png","9_Ratio_250_L_3_R_12.png"]],"Rat500":[["10_Ratio_500_L_4_R_2.png","11_Ratio_500_L_12_R_6.png","13_Ratio_500_L_12_R_6.png","4_Ratio_500_L_18_R_9.png","5_Ratio_500_L_4_R_2.png","7_Ratio_500_L_10_R_5.png","8_Ratio_500_L_8_R_4.png"],["1_Ratio_500_L_9_R_18.png","12_Ratio_500_L_1_R_2.png","14_Ratio_500_L_5_R_10.png","15_Ratio_500_L_1_R_2.png","2_Ratio_500_L_3_R_6.png","3_Ratio_500_L_10_R_20.png","6_Ratio_500_L_9_R_18.png","9_Ratio_500_L_2_R_4.png"]],"Rat750":[["1_Ratio_750_L_20_R_15.png","10_Ratio_750_L_4_R_3.png","13_Ratio_750_L_8_R_6.png","14_Ratio_750_L_8_R_6.png","6_Ratio_750_L_24_R_18.png","8_Ratio_750_L_4_R_3.png","9_Ratio_750_L_4_R_3.png"],["11_Ratio_750_L_12_R_16.png","12_Ratio_750_L_3_R_4.png","15_Ratio_750_L_9_R_12.png","2_Ratio_750_L_6_R_8.png","3_Ratio_750_L_15_R_20.png","4_Ratio_750_L_15_R_20.png","5_Ratio_750_L_15_R_20.png","7_Ratio_750_L_3_R_4.png"]],"Rat900":[["1_Ratio_900_L_10_R_9.png","10_Ratio_900_L_20_R_18.png","2_Ratio_900_L_20_R_18.png","4_Ratio_900_L_20_R_18.png","8_Ratio_900_L_20_R_18.png"],["11_Ratio_900_L_18_R_20.png","12_Ratio_900_L_18_R_20.png","13_Ratio_900_L_18_R_20.png","14_Ratio_900_L_18_R_20.png","15_Ratio_900_L_9_R_10.png","3_Ratio_900_L_9_R_10.png","5_Ratio_900_L_9_R_10.png","6_Ratio_900_L_9_R_10.png","7_Ratio_900_L_9_R_10.png","9_Ratio_900_L_18_R_20.png"]],"Rat1000":[["10_Ratio_1000_L_16_R_16.png","11_Ratio_1000_L_6_R_6.png","12_Ratio_1000_L_14_R_14.png","13_Ratio_1000_L_20_R_20.png","15_Ratio_1000_L_15_R_15.png","2_Ratio_1000_L_17_R_17.png","4_Ratio_1000_L_9_R_9.png","5_Ratio_1000_L_6_R_6.png","6_Ratio_1000_L_19_R_19.png","8_Ratio_1000_L_14_R_14.png","9_Ratio_1000_L_25_R_25.png"],["1_Ratio_1000_L_1_R_1.png","14_Ratio_1000_L_17_R_17.png","3_Ratio_1000_L_17_R_17.png","7_Ratio_1000_L_6_R_6.png"]]}},{"start_time":1552073878590,"click_time":1552073879970,"finger_time":1552073879371,"fix_duration":817.9373255203307,"trial":1,"RT":781,"MT":599,"sideResp":1,"stimulus":"img/900/randomdotsizeEA/L/8_Ratio_900_L_20_R_18.png","xmouse":[812,812,812,812,812,812,812,812,812,812,812,812,812,812,812,812,812,812,812,812,812,812,812,812,812,812,812,812,812,812,812,812,812,812,812,812,812,811,809,809,809,809,809,809,809,807,804,801,800,800,800,800,800,800,800,799,798,794,789,783,776,759,727,701,670,633,603,556,533,513],"ymouse":[526,526,526,526,526,526,526,526,526,526,526,526,526,526,526,526,526,526,526,526,526,526,526,526,526,526,526,526,526,526,526,526,524,514,509,504,499,486,475,459,437,407,366,353,341,331,320,310,307,306,305,303,290,282,275,269,264,249,238,227,215,197,171,157,143,128,114,97,90,83],"timestamp_mouse":[10,20,41,60,80,100,121,141,161,181,200,221,240,260,280,301,320,340,361,380,401,421,440,461,480,501,521,541,561,581,600,621,640,661,681,700,720,741,761,781,800,821,840,861,880,901,920,940,960,981,1000,1021,1040,1060,1081,1101,1120,1141,1161,1180,1201,1220,1240,1260,1280,1301,1321,1340,1361,1380],"xSR":741.5,"ySR":469.95,"xT1":424.9,"yT1":0,"xT2":1058.1,"yT2":0,"toosoon":0,"cond_shown":"randomdotsizeEA","ratio_trial":900,"smaller_num":"18","larger_num":"20","correct_side":1,"subjID":"isabellasanchezvargas6","gender":"1","age":"9","school":"4"},{"start_time":1552073882022,"click_time":1552073883150,"finger_time":1552073882651,"fix_duration":250,"trial":2,"RT":629,"MT":499,"sideResp":1,"stimulus":"img/250/equaldotanddens/L/2_Ratio_250_L_16_R_4.png","xmouse":[766,766,766,766,766,766,766,766,766,766,766,766,766,766,766,766,766,766,766,766,766,766,766,766,766,766,767,769,770,774,778,780,785,788,792,799,801,801,802,801,789,788,788,788,788,782,765,737,708,659,618,600,577,555,535,500,491],"ymouse":[502,502,502,502,502,502,502,502,502,502,502,502,502,502,502,502,502,502,502,502,502,502,502,502,502,502,502,501,499,487,470,454,429,402,374,327,303,283,264,245,211,209,209,209,209,206,199,191,183,169,152,143,133,124,117,101,97],"timestamp_mouse":[12,39,48,68,88,109,129,148,169,190,208,229,249,268,289,309,329,349,368,389,409,429,448,469,489,508,528,549,569,588,608,629,648,669,689,709,728,749,768,789,808,828,848,869,889,909,928,950,968,988,1008,1029,1048,1069,1089,1109,1128],"xSR":741.5,"ySR":469.95,"xT1":424.9,"yT1":0,"xT2":1058.1,"yT2":0,"toosoon":0,"cond_shown":"equaldotanddens","ratio_trial":250,"smaller_num":"4","larger_num":"16","correct_side":1,"subjID":"isabellasanchezvargas6","gender":"1","age":"9","school":"4"},{"start_time":1552073884748,"click_time":1552073886971,"finger_time":1552073885551,"fix_duration":675.8050766981004,"trial":3,"RT":803,"MT":1420,"sideResp":1,"stimulus":"img/250/randomdotsizeEA/L/5_Ratio_250_L_24_R_6.png","xmouse":[798,798,798,798,798,798,798,798,798,798,798,798,798,798,798,798,798,798,798,798,798,798,798,798,798,798,798,798,799,801,801,802,803,803,804,804,804,804,804,804,804,804,804,804,815,825,835,847,862,895,910,924,934,950,965,970,974,980,984,994,998,1003,1006,1011,1019,1023,1030,1036,1042,1052,1054,1055,1055,1055,1055,1055,1055,1055,1055,1055,1055,1055,1055,1055,1055,1055,1055,1055,1054,1048,1040,1029,1014,988,946,922,896,866,842,801,778,754,733,713,679,667,646,620,593,547,529,515],"ymouse":[516,516,516,516,516,516,516,516,516,516,516,516,516,516,516,516,516,516,516,516,516,516,516,516,516,516,516,516,512,508,506,502,499,497,491,488,485,480,476,472,469,466,455,442,402,383,366,347,329,289,267,250,234,212,181,164,150,137,128,103,94,86,81,72,61,57,53,49,46,41,39,39,38,38,38,38,38,38,38,38,38,38,38,38,38,38,38,38,38,40,43,48,54,65,78,84,88,92,95,95,93,90,88,85,75,72,70,66,62,55,53,51],"timestamp_mouse":[12,35,42,63,82,102,122,142,162,182,202,223,243,262,282,302,323,342,363,383,403,422,443,463,483,502,522,542,562,583,604,622,642,662,682,703,723,742,762,783,803,822,842,863,882,902,923,942,962,982,1003,1023,1042,1063,1082,1102,1122,1142,1163,1182,1202,1222,1242,1263,1283,1303,1322,1343,1362,1382,1402,1423,1443,1463,1482,1503,1523,1543,1564,1582,1602,1623,1643,1662,1682,1703,1723,1743,1763,1782,1802,1822,1842,1863,1883,1903,1923,1942,1963,1982,2002,2023,2043,2063,2082,2103,2123,2142,2162,2182,2203,2223],"xSR":741.5,"ySR":469.95,"xT1":424.9,"yT1":0,"xT2":1058.1,"yT2":0,"toosoon":0,"cond_shown":"randomdotsizeEA","ratio_trial":250,"smaller_num":"6","larger_num":"24","correct_side":1,"subjID":"isabellasanchezvargas6","gender":"1","age":"9","school":"4"},{"start_time":1552073889472,"click_time":1552073890710,"finger_time":1552073890070,"fix_duration":1140.0592871425613,"trial":4,"RT":598,"MT":640,"sideResp":1,"stimulus":"img/750/equaldotsize/L/13_Ratio_750_L_8_R_6.png","xmouse":[816,816,816,816,816,816,816,816,816,816,816,816,816,816,816,816,816,816,816,816,816,816,816,816,814,812,808,805,803,801,799,797,788,781,775,765,760,750,747,743,741,739,734,730,727,722,718,705,694,683,675,666,647,635,623,610,593,569,563,550,534,519],"ymouse":[515,515,515,515,515,515,515,515,515,515,515,515,515,515,515,515,515,515,515,515,515,515,515,515,511,508,498,484,477,465,451,433,384,359,334,303,287,260,251,242,236,230,212,203,195,185,177,149,133,118,107,100,83,75,68,60,54,44,41,39,37,35],"timestamp_mouse":[18,38,58,78,98,118,138,159,178,198,219,238,259,278,298,320,339,358,378,398,418,438,458,479,499,519,538,558,579,598,619,639,659,678,699,718,739,758,779,798,819,838,858,879,899,918,939,958,979,998,1019,1038,1058,1079,1099,1118,1138,1158,1178,1198,1219,1238],"xSR":741.5,"ySR":469.95,"xT1":424.9,"yT1":0,"xT2":1058.1,"yT2":0,"toosoon":0,"cond_shown":"equaldotsize","ratio_trial":750,"smaller_num":"6","larger_num":"8","correct_side":1,"subjID":"isabellasanchezvargas6","gender":"1","age":"9","school":"4"},{"start_time":1552073891983,"click_time":1552073893730,"finger_time":1552073892691,"fix_duration":250,"trial":5,"RT":708,"MT":1039,"sideResp":1,"stimulus":"img/250/randomdotsizeEA/L/14_Ratio_250_L_12_R_3.png","xmouse":[812,812,812,812,812,812,812,812,812,812,812,812,812,812,812,812,812,812,812,812,812,812,812,812,812,812,812,812,812,812,812,812,812,812,812,812,812,812,812,812,812,813,820,825,831,841,848,867,876,881,885,891,901,906,910,918,928,937,939,939,940,940,940,940,940,940,940,940,937,919,865,808,711,677,651,628,606,567,552,539,526,512,505,504,504,504,503,497],"ymouse":[501,501,501,501,501,501,501,501,501,501,501,501,501,501,501,501,501,501,501,501,501,501,501,501,501,501,501,501,501,501,501,501,494,483,471,456,440,400,378,357,334,315,279,263,248,231,217,190,180,173,169,165,159,157,154,151,146,142,140,140,140,139,139,139,139,139,139,139,138,136,127,120,110,110,110,110,110,109,109,108,106,103,102,102,101,101,101,94],"timestamp_mouse":[9,27,60,68,88,107,128,147,167,187,208,227,247,268,288,307,328,347,368,387,407,428,448,467,487,507,527,547,568,588,608,628,647,668,688,708,727,747,768,788,807,828,847,868,887,907,927,948,968,988,1007,1028,1047,1067,1087,1108,1127,1147,1167,1188,1208,1227,1247,1268,1287,1308,1328,1348,1367,1387,1407,1428,1447,1467,1488,1507,1528,1547,1567,1588,1607,1628,1648,1668,1687,1707,1728,1747],"xSR":741.5,"ySR":469.95,"xT1":424.9,"yT1":0,"xT2":1058.1,"yT2":0,"toosoon":0,"cond_shown":"randomdotsizeEA","ratio_trial":250,"smaller_num":"3","larger_num":"12","correct_side":1,"subjID":"isabellasanchezvargas6","gender":"1","age":"9","school":"4"},{"start_time":1552073895520,"click_time":1552073896770,"finger_time":1552073896190,"fix_duration":828.1159962127967,"trial":6,"RT":670,"MT":580,"sideResp":2,"stimulus":"img/500/randomdotsizeEA/R/2_Ratio_500_L_3_R_6.png","xmouse":[762,762,762,762,762,763,763,763,763,763,764,764,764,764,764,764,764,764,764,764,764,764,764,764,764,764,764,764,764,764,764,768,769,772,772,779,784,793,808,822,844,852,861,870,882,922,938,954,968,980,998,1010,1023,1031,1038,1047,1049,1050,1051,1051,1056,1058,1063],"ymouse":[520,520,520,520,520,520,520,520,520,520,520,520,520,520,520,520,520,520,520,520,520,520,520,520,520,520,520,520,520,520,520,501,489,468,448,405,387,370,352,337,318,310,299,290,276,241,229,217,206,196,178,168,158,149,139,116,114,108,106,104,97,95,91],"timestamp_mouse":[14,30,50,70,90,110,130,151,170,190,210,230,250,271,290,310,330,351,371,390,410,430,450,470,490,510,531,550,571,590,611,630,650,670,691,710,731,750,771,791,810,831,850,871,890,911,931,950,970,990,1010,1030,1051,1070,1091,1110,1131,1150,1171,1190,1211,1230,1250],"xSR":741.5,"ySR":469.95,"xT1":424.9,"yT1":0,"xT2":1058.1,"yT2":0,"toosoon":0,"cond_shown":"randomdotsizeEA","ratio_trial":500,"smaller_num":"3","larger_num":"6","correct_side":2,"subjID":"isabellasanchezvargas6","gender":"1","age":"9","school":"4"},{"start_time":1552073899588,"click_time":1552073900951,"finger_time":1552073900071,"fix_duration":1295.076247131847,"trial":7,"RT":483,"MT":880,"sideResp":2,"stimulus":"img/750/equaldotanddens/R/4_Ratio_750_L_15_R_20.png","xmouse":[827,824,820,810,809,808,808,808,808,808,808,808,808,808,808,808,808,808,808,808,808,808,808,808,808,808,807,807,807,807,807,807,818,824,830,838,847,860,866,873,878,887,897,901,904,908,909,912,913,917,922,932,957,968,977,980,981,983,988,998,1009,1021,1027,1028,1029,1029,1030,1045,1059],"ymouse":[523,522,520,516,516,515,515,515,515,515,515,515,515,515,515,515,515,515,515,515,512,508,492,480,469,460,451,431,416,401,381,362,298,274,256,235,214,181,166,151,134,107,75,62,51,45,42,38,37,36,34,33,30,29,27,26,26,26,24,23,21,20,19,19,18,18,18,19,21],"timestamp_mouse":[3,24,45,63,84,102,123,143,163,183,202,223,243,262,283,302,322,343,362,383,402,422,442,463,482,502,523,542,562,583,603,622,643,662,682,703,722,742,762,783,803,823,842,862,883,902,923,942,962,982,1002,1022,1043,1063,1082,1102,1122,1142,1162,1183,1202,1222,1242,1263,1282,1303,1323,1342,1363],"xSR":741.5,"ySR":469.95,"xT1":424.9,"yT1":0,"xT2":1058.1,"yT2":0,"toosoon":0,"cond_shown":"equaldotanddens","ratio_trial":750,"smaller_num":"15","larger_num":"20","correct_side":2,"subjID":"isabellasanchezvargas6","gender":"1","age":"9","school":"4"},{"start_time":1552073902979,"click_time":1552073905010,"finger_time":1552073903512,"fix_duration":826.7687316632673,"trial":8,"RT":533,"MT":1498,"sideResp":1,"stimulus":"img/900/randomdotsizeEA/L/1_Ratio_900_L_10_R_9.png","xmouse":[818,818,818,818,818,818,818,818,819,819,819,819,819,819,819,819,819,819,820,820,820,820,821,821,821,821,821,821,821,821,821,821,821,821,821,821,821,821,822,825,829,834,845,850,855,860,866,883,894,906,920,934,952,957,962,967,974,981,987,991,992,992,992,992,992,992,992,992,992,992,992,992,985,951,903,862,832,792,768,748,735,719,664,635,615,606,602,602,602,602,601,601,587,573,563,555,554,554,553,549,538,518],"ymouse":[518,518,518,518,518,518,518,518,517,517,517,517,517,517,517,517,517,517,511,508,498,495,482,480,478,474,469,462,461,461,459,457,445,440,433,422,409,392,384,371,359,331,290,274,263,251,238,213,195,181,164,143,106,89,75,63,49,40,32,27,26,26,26,26,26,26,26,26,26,26,26,26,26,20,14,10,10,16,19,21,24,25,35,39,43,46,48,48,48,48,49,49,52,54,56,57,57,57,57,57,57,53],"timestamp_mouse":[11,40,51,72,91,111,132,151,172,191,211,232,251,273,292,312,332,351,372,392,412,432,451,472,492,512,533,551,571,592,611,633,652,672,692,711,731,751,772,791,811,832,851,872,891,911,932,951,971,991,1013,1032,1051,1072,1092,1111,1131,1151,1171,1191,1211,1231,1252,1271,1295,1311,1332,1351,1371,1392,1411,1431,1451,1472,1492,1512,1531,1551,1571,1591,1611,1631,1651,1671,1692,1711,1732,1751,1772,1792,1812,1832,1851,1872,1892,1912,1932,1951,1972,1992,2011,2031],"xSR":741.5,"ySR":469.95,"xT1":424.9,"yT1":0,"xT2":1058.1,"yT2":0,"toosoon":0,"cond_shown":"randomdotsizeEA","ratio_trial":900,"smaller_num":"9","larger_num":"10","correct_side":1,"subjID":"isabellasanchezvargas6","gender":"1","age":"9","school":"4"},{"start_time":1552073906339,"click_time":1552073908630,"finger_time":1552073907230,"fix_duration":287.1859752045557,"trial":9,"RT":891,"MT":1400,"sideResp":2,"stimulus":"img/750/equaldotanddens/L/9_Ratio_750_L_4_R_3.png","xmouse":[792,793,793,794,795,795,795,795,795,795,795,795,795,795,795,795,795,795,795,795,795,795,795,795,795,795,795,795,795,795,795,795,795,795,795,795,795,795,795,795,795,796,803,806,829,841,853,864,875,895,903,911,923,927,938,943,948,954,957,960,962,965,966,968,968,968,968,968,968,955,941,919,902,874,833,814,788,765,746,742,742,742,742,742,742,743,769,790,806,843,854,861,865,876,910,923,934,948,960,984,997,1003,1010,1020,1032,1038,1042,1043,1043,1043,1043,1044,1046,1051,1062],"ymouse":[538,538,536,533,528,528,528,528,528,528,528,528,528,528,528,528,528,528,528,528,528,528,528,528,528,528,528,528,528,528,528,528,528,528,528,528,528,528,528,528,528,522,500,489,425,402,376,355,335,302,290,277,260,255,242,234,226,216,211,204,199,195,192,189,186,185,184,184,183,176,170,161,152,144,132,128,121,113,108,106,106,106,106,106,106,106,106,106,106,109,109,109,109,108,97,91,85,78,69,57,52,50,47,44,41,40,40,40,40,40,40,40,40,40,40],"timestamp_mouse":[13,33,51,72,91,112,132,151,171,191,211,231,252,271,291,311,331,352,372,392,411,432,452,472,492,511,532,551,571,592,612,631,651,671,691,713,731,752,771,791,812,831,851,872,891,911,931,952,971,992,1011,1032,1051,1071,1091,1112,1131,1151,1172,1191,1211,1231,1251,1272,1291,1312,1331,1351,1372,1391,1411,1431,1452,1471,1491,1512,1532,1552,1570,1590,1610,1630,1650,1671,1691,1711,1730,1751,1770,1790,1810,1830,1850,1870,1890,1911,1930,1951,1970,1990,2010,2031,2050,2072,2090,2111,2131,2150,2170,2190,2211,2231,2250,2271,2291],"xSR":741.5,"ySR":469.95,"xT1":424.9,"yT1":0,"xT2":1058.1,"yT2":0,"toosoon":0,"cond_shown":"equaldotanddens","ratio_trial":750,"smaller_num":"3","larger_num":"4","correct_side":1,"subjID":"isabellasanchezvargas6","gender":"1","age":"9","school":"4"},{"start_time":1552073910799,"click_time":1552073912610,"finger_time":1552073911489,"fix_duration":986.4871643513593,"trial":10,"RT":690,"MT":1121,"sideResp":1,"stimulus":"img/750/randomdotsizeEA/R/5_Ratio_750_L_15_R_20.png","xmouse":[811,811,811,811,811,811,811,811,811,812,812,812,813,813,813,813,813,813,813,814,814,814,814,814,814,814,814,814,814,814,815,816,816,816,817,819,824,827,830,837,843,854,855,860,863,866,872,875,881,893,901,923,933,942,948,956,966,970,973,974,975,976,976,976,976,976,975,969,955,936,904,765,711,674,655,641,625,611,596,574,564,552,548,543,540,538,534,531,528,525,520],"ymouse":[521,521,521,521,521,521,521,521,521,520,520,520,519,518,517,516,516,516,516,514,513,512,512,512,511,510,510,509,507,506,501,488,476,472,465,448,413,394,378,361,345,314,303,291,284,278,268,264,252,236,222,186,171,159,149,140,127,122,118,114,112,106,104,103,103,102,98,95,88,81,71,31,18,11,7,5,5,5,5,8,11,18,21,28,32,36,41,44,47,52,55],"timestamp_mouse":[13,37,52,72,91,110,130,151,170,190,210,230,251,270,291,312,331,351,370,391,410,432,450,470,492,511,531,552,571,591,610,630,651,670,690,710,730,751,771,790,811,830,851,871,891,911,930,950,971,991,1011,1030,1051,1071,1091,1110,1130,1151,1171,1191,1211,1230,1250,1271,1290,1311,1330,1351,1371,1390,1411,1431,1451,1471,1490,1511,1530,1551,1570,1591,1610,1630,1651,1671,1691,1711,1730,1751,1770,1791,1810],"xSR":741.5,"ySR":469.95,"xT1":424.9,"yT1":0,"xT2":1058.1,"yT2":0,"toosoon":0,"cond_shown":"randomdotsizeEA","ratio_trial":750,"smaller_num":"15","larger_num":"20","correct_side":2,"subjID":"isabellasanchezvargas6","gender":"1","age":"9","school":"4"},{"start_time":1552073914386,"click_time":1552073915709,"finger_time":1552073914990,"fix_duration":754.2012514845419,"trial":11,"RT":604,"MT":719,"sideResp":1,"stimulus":"img/900/equaldotanddens/L/10_Ratio_900_L_20_R_18.png","xmouse":[813,813,813,813,813,813,813,812,812,812,812,812,812,812,812,811,811,811,811,811,812,812,813,813,813,813,813,813,813,813,813,812,810,809,807,807,807,808,810,812,813,823,836,843,850,861,867,877,880,886,889,892,896,897,897,897,894,872,850,809,750,682,591,569,549,530,507],"ymouse":[532,532,532,532,532,531,528,526,525,525,525,524,522,521,520,519,518,515,513,512,508,506,498,495,492,491,490,485,483,477,467,464,445,438,427,419,408,395,387,377,371,337,285,264,246,233,224,216,212,209,206,203,195,193,190,187,183,169,160,145,130,111,93,89,85,83,80],"timestamp_mouse":[10,23,44,64,84,103,124,143,163,183,205,224,243,264,283,303,324,344,364,383,404,424,443,464,483,503,523,543,563,584,604,624,644,664,683,703,723,743,764,783,803,824,843,863,883,904,924,943,965,984,1004,1024,1043,1064,1083,1103,1123,1143,1164,1184,1203,1224,1243,1263,1284,1303,1323],"xSR":741.5,"ySR":469.95,"xT1":424.9,"yT1":0,"xT2":1058.1,"yT2":0,"toosoon":0,"cond_shown":"equaldotanddens","ratio_trial":900,"smaller_num":"18","larger_num":"20","correct_side":1,"subjID":"isabellasanchezvargas6","gender":"1","age":"9","school":"4"},{"start_time":1552073919472,"click_time":1552073920690,"finger_time":1552073920089,"fix_duration":962.2774631454428,"trial":12,"RT":617,"MT":601,"sideResp":1,"stimulus":"img/750/equaldotanddens/L/1_Ratio_750_L_20_R_15.png","xmouse":[793,793,793,793,793,793,793,793,793,793,793,793,793,793,793,793,793,793,793,793,793,793,793,793,793,792,791,791,791,791,791,791,793,793,793,793,790,777,766,754,742,726,693,670,637,617,596,583,579,576,569,560,541,536,535,535,535,534,532,528,524],"ymouse":[506,506,506,506,506,506,506,506,506,506,506,506,506,506,506,506,506,506,506,506,506,506,506,498,493,488,483,475,473,471,465,456,426,410,399,389,373,347,333,320,305,288,246,220,188,171,152,138,133,129,121,113,100,97,97,97,97,96,93,86,82],"timestamp_mouse":[17,40,57,77,98,118,137,157,178,197,219,239,258,277,297,318,338,357,377,397,417,438,459,478,497,518,538,557,578,598,617,637,658,678,699,717,737,757,778,797,817,837,858,878,898,917,938,957,977,997,1017,1037,1058,1077,1097,1118,1139,1158,1178,1197,1218],"xSR":741.5,"ySR":469.95,"xT1":424.9,"yT1":0,"xT2":1058.1,"yT2":0,"toosoon":0,"cond_shown":"equaldotanddens","ratio_trial":750,"smaller_num":"15","larger_num":"20","correct_side":1,"subjID":"isabellasanchezvargas6","gender":"1","age":"9","school":"4"},{"start_time":1552073922041,"click_time":1552073923370,"finger_time":1552073922829,"fix_duration":250,"trial":13,"RT":788,"MT":541,"sideResp":2,"stimulus":"img/900/randomdotsizeEA/R/11_Ratio_900_L_18_R_20.png","xmouse":[777,777,777,777,777,777,777,777,777,777,777,777,777,777,777,777,777,777,777,777,777,777,777,777,777,777,777,777,777,777,777,777,777,777,777,777,777,777,777,780,785,792,803,811,828,843,865,886,912,958,965,972,981,992,1008,1016,1022,1025,1028,1032,1033,1034,1035,1038,1050,1055,1059],"ymouse":[517,517,517,517,517,517,517,517,517,517,517,517,517,517,517,517,517,517,517,517,517,517,517,517,517,517,517,517,517,517,517,517,517,517,514,503,495,489,480,462,447,429,411,396,373,356,339,322,305,278,268,255,241,223,183,166,151,142,134,120,117,114,111,107,93,87,82],"timestamp_mouse":[13,35,49,68,89,108,130,148,168,188,208,228,248,269,288,310,329,349,368,388,408,428,448,469,489,508,528,548,570,589,609,628,648,668,689,709,728,748,768,788,810,829,848,869,888,908,929,950,969,988,1008,1029,1049,1070,1088,1109,1129,1148,1168,1188,1210,1229,1248,1268,1288,1308,1329],"xSR":741.5,"ySR":469.95,"xT1":424.9,"yT1":0,"xT2":1058.1,"yT2":0,"toosoon":0,"cond_shown":"randomdotsizeEA","ratio_trial":900,"smaller_num":"18","larger_num":"20","correct_side":2,"subjID":"isabellasanchezvargas6","gender":"1","age":"9","school":"4"},{"start_time":1552073925023,"click_time":1552073926089,"finger_time":1552073925590,"fix_duration":471.1882975387187,"trial":14,"RT":567,"MT":499,"sideResp":1,"stimulus":"img/250/randomdotsizeEA/L/2_Ratio_250_L_16_R_4.png","xmouse":[823,823,823,823,823,823,823,823,823,823,823,823,823,823,823,823,823,823,823,823,823,823,823,823,823,823,823,823,823,823,800,783,764,737,710,669,654,639,627,603,570,570,570,570,570,570,570,570,570,570,570,570,570,475],"ymouse":[521,521,521,521,521,521,521,521,521,521,521,521,521,521,521,521,521,521,521,521,521,521,521,521,520,507,489,471,422,400,287,249,219,180,146,99,83,68,53,28,2,2,2,2,2,2,2,2,2,2,2,2,2,10],"timestamp_mouse":[12,35,48,68,86,106,128,147,167,186,206,226,246,267,287,306,326,346,367,386,406,426,446,468,486,506,527,546,567,586,607,626,646,666,686,707,726,747,766,787,806,826,847,866,887,907,926,946,966,987,1007,1026,1046,1066],"xSR":741.5,"ySR":469.95,"xT1":424.9,"yT1":0,"xT2":1058.1,"yT2":0,"toosoon":0,"cond_shown":"randomdotsizeEA","ratio_trial":250,"smaller_num":"4","larger_num":"16","correct_side":1,"subjID":"isabellasanchezvargas6","gender":"1","age":"9","school":"4"},{"start_time":1552073927567,"click_time":1552073929350,"finger_time":1552073928169,"fix_duration":336.4905304690745,"trial":15,"RT":602,"MT":1181,"sideResp":1,"stimulus":"img/250/randomdotsizeEA/L/5_Ratio_250_L_24_R_6.png","xmouse":[774,774,774,774,774,774,774,774,774,774,774,774,774,774,774,774,774,774,774,775,775,776,777,778,779,779,781,781,783,784,785,788,789,790,793,799,806,813,827,831,841,854,876,915,936,951,966,978,996,1004,1009,1015,1018,1022,1022,1022,1022,1022,1023,1023,1023,1023,1023,1023,1023,1023,1023,1023,1023,1023,1023,1022,999,954,935,918,897,873,830,813,799,784,772,726,686,644,612,584,525,499],"ymouse":[505,505,505,505,505,505,505,505,505,505,505,505,505,505,505,505,505,505,505,505,505,505,504,498,496,493,490,487,480,475,469,464,455,455,449,438,423,410,386,378,366,354,337,309,297,286,276,266,245,233,224,213,203,175,167,162,155,151,147,146,145,145,145,145,145,145,145,145,145,145,145,145,145,145,145,145,145,145,145,145,143,141,139,129,116,104,91,79,60,52],"timestamp_mouse":[18,25,43,62,82,102,122,142,163,182,204,224,242,262,282,302,322,342,362,382,402,423,443,463,482,503,522,543,562,583,602,622,642,662,683,702,723,744,763,782,803,823,843,863,883,902,923,942,962,983,1003,1023,1043,1063,1082,1102,1122,1142,1162,1182,1202,1223,1242,1263,1282,1303,1322,1342,1363,1383,1404,1423,1442,1463,1483,1503,1523,1543,1562,1582,1603,1623,1643,1662,1682,1702,1723,1743,1763,1783],"xSR":741.5,"ySR":469.95,"xT1":424.9,"yT1":0,"xT2":1058.1,"yT2":0,"toosoon":0,"cond_shown":"randomdotsizeEA","ratio_trial":250,"smaller_num":"6","larger_num":"24","correct_side":1,"subjID":"isabellasanchezvargas6","gender":"1","age":"9","school":"4"},{"start_time":1552073930692,"click_time":1552073932049,"finger_time":1552073931389,"fix_duration":480.25135202980084,"trial":16,"RT":697,"MT":660,"sideResp":2,"stimulus":"img/250/equaldotsize/R/12_Ratio_250_L_5_R_20.png","xmouse":[776,776,777,777,777,777,777,777,777,777,777,777,777,777,777,777,777,777,777,777,777,777,777,777,777,777,777,777,777,777,777,780,783,787,793,804,827,845,869,900,934,974,989,997,1001,1004,1006,1007,1008,1008,1009,1012,1013,1016,1020,1029,1048,1060,1072,1085,1098,1102,1103,1104,1106,1107,1108,1108],"ymouse":[545,545,545,545,545,545,545,545,545,545,545,545,545,545,545,545,545,545,545,545,545,545,545,545,545,544,534,527,524,520,513,499,487,476,463,441,413,395,375,350,325,295,275,256,239,219,199,189,181,175,170,160,156,152,146,142,135,128,122,116,111,108,107,104,103,101,100,99],"timestamp_mouse":[19,38,57,77,97,117,137,157,177,198,217,237,258,277,297,318,337,358,377,398,417,437,457,477,498,517,537,557,578,598,617,637,657,679,697,718,737,757,778,799,818,837,858,878,898,917,937,957,978,998,1017,1037,1058,1077,1099,1118,1138,1157,1177,1197,1217,1237,1257,1279,1298,1317,1337,1357],"xSR":741.5,"ySR":469.95,"xT1":424.9,"yT1":0,"xT2":1058.1,"yT2":0,"toosoon":0,"cond_shown":"equaldotsize","ratio_trial":250,"smaller_num":"5","larger_num":"20","correct_side":2,"subjID":"isabellasanchezvargas6","gender":"1","age":"9","school":"4"},{"start_time":1552073933732,"click_time":1552073934830,"finger_time":1552073934270,"fix_duration":280.0537845918264,"trial":17,"RT":538,"MT":560,"sideResp":2,"stimulus":"img/500/equaldotanddens/R/6_Ratio_500_L_9_R_18.png","xmouse":[816,816,816,816,816,816,816,816,816,816,816,816,816,816,816,816,816,816,816,816,816,816,816,816,819,822,824,827,828,832,835,838,845,852,869,878,890,901,916,941,948,955,961,965,970,972,974,976,979,1000,1014,1027,1044,1051,1075],"ymouse":[524,524,524,524,524,524,524,524,524,524,524,524,524,524,524,524,524,524,524,524,524,524,523,518,497,481,462,446,428,390,369,343,317,295,248,231,215,202,184,159,150,141,133,128,118,115,114,111,108,97,91,85,79,76,66],"timestamp_mouse":[17,39,59,77,98,117,138,158,178,197,218,237,258,277,298,317,337,358,378,398,418,438,458,478,497,517,538,557,577,597,617,639,657,678,697,717,737,757,778,798,818,838,857,877,897,918,938,959,978,997,1018,1038,1057,1078,1098],"xSR":741.5,"ySR":469.95,"xT1":424.9,"yT1":0,"xT2":1058.1,"yT2":0,"toosoon":0,"cond_shown":"equaldotanddens","ratio_trial":500,"smaller_num":"9","larger_num":"18","correct_side":2,"subjID":"isabellasanchezvargas6","gender":"1","age":"9","school":"4"},{"start_time":1552073937410,"click_time":1552073938849,"finger_time":1552073937949,"fix_duration":1277.9493286419804,"trial":18,"RT":539,"MT":900,"sideResp":2,"stimulus":"img/750/equaldotsize/R/15_Ratio_750_L_9_R_12.png","xmouse":[803,803,803,803,803,803,803,803,803,803,803,803,803,803,803,803,802,804,806,806,806,806,807,808,808,809,813,815,818,821,827,837,843,851,858,865,881,887,892,898,903,917,922,930,937,946,970,985,1003,1015,1027,1031,1033,1033,1035,1036,1038,1038,1038,1038,1038,1038,1038,1038,1038,1038,1038,1038,1038,1039,1040,1057,1072],"ymouse":[525,525,525,525,525,525,525,525,525,525,525,525,525,525,525,525,523,515,507,502,502,502,498,495,491,486,472,466,454,448,436,415,402,389,376,364,329,313,302,288,278,252,242,229,219,209,175,156,138,123,108,100,97,95,90,86,81,80,80,80,80,80,80,80,80,80,80,80,80,79,77,70,64],"timestamp_mouse":[1,19,40,59,79,101,119,140,159,179,199,219,239,259,280,299,319,340,359,380,399,420,440,460,480,499,520,539,559,579,600,620,639,659,680,700,719,740,759,780,799,819,839,859,879,900,919,940,961,981,1000,1019,1039,1060,1079,1099,1119,1140,1159,1180,1201,1219,1240,1259,1279,1300,1319,1340,1360,1379,1399,1419,1439],"xSR":741.5,"ySR":469.95,"xT1":424.9,"yT1":0,"xT2":1058.1,"yT2":0,"toosoon":0,"cond_shown":"equaldotsize","ratio_trial":750,"smaller_num":"9","larger_num":"12","correct_side":2,"subjID":"isabellasanchezvargas6","gender":"1","age":"9","school":"4"},{"start_time":1552073940399,"click_time":1552073942050,"finger_time":1552073941029,"fix_duration":507.2131701211654,"trial":19,"RT":630,"MT":1021,"sideResp":2,"stimulus":"img/900/randomdotsizeEA/R/15_Ratio_900_L_9_R_10.png","xmouse":[810,810,810,810,810,810,810,810,810,810,810,810,810,810,810,810,810,810,810,810,810,810,810,810,810,810,810,810,810,810,811,815,817,819,821,824,828,828,828,824,814,800,791,782,771,759,740,736,731,717,709,686,671,658,644,631,611,606,604,604,604,604,606,621,642,667,712,736,764,789,827,882,909,942,973,997,1041,1059,1071,1080,1086,1092,1094],"ymouse":[505,505,505,505,505,505,505,505,505,505,505,505,505,505,505,505,505,505,505,505,505,505,505,505,505,505,505,505,505,499,491,466,456,449,440,430,392,378,361,339,308,273,257,245,232,222,211,208,204,197,190,178,170,163,155,148,137,134,133,133,133,133,131,127,125,123,123,123,123,123,124,124,124,124,124,123,117,114,112,110,105,100,96],"timestamp_mouse":[10,42,51,70,91,111,130,151,171,191,211,231,251,272,291,310,331,350,372,390,411,432,450,470,490,512,530,551,571,590,611,630,651,671,692,711,731,750,771,791,810,830,851,870,891,910,930,950,971,990,1011,1031,1050,1070,1091,1110,1131,1151,1170,1190,1211,1230,1250,1270,1290,1311,1330,1350,1371,1390,1411,1431,1451,1471,1490,1511,1530,1551,1571,1590,1610,1630,1651],"xSR":741.5,"ySR":469.95,"xT1":424.9,"yT1":0,"xT2":1058.1,"yT2":0,"toosoon":0,"cond_shown":"randomdotsizeEA","ratio_trial":900,"smaller_num":"9","larger_num":"10","correct_side":2,"subjID":"isabellasanchezvargas6","gender":"1","age":"9","school":"4"},{"start_time":1552073943989,"click_time":1552073945410,"finger_time":1552073944730,"fix_duration":939.2379238897277,"trial":20,"RT":741,"MT":680,"sideResp":1,"stimulus":"img/250/equaldotsize/L/14_Ratio_250_L_12_R_3.png","xmouse":[791,791,791,791,791,791,791,791,791,791,791,791,791,791,791,791,791,791,791,791,791,791,791,791,791,791,791,791,791,791,791,791,791,791,795,797,800,806,806,806,803,794,772,769,766,759,747,706,687,668,657,644,629,617,603,595,590,586,581,578,575,568,553,546,543,540,540,539,539,535,529,523],"ymouse":[506,506,506,506,506,506,506,506,506,506,506,506,506,506,506,506,506,506,506,506,506,506,506,506,506,506,506,506,506,506,506,506,506,506,502,497,489,463,452,436,418,399,367,363,360,351,336,296,278,260,249,233,213,200,185,176,171,164,157,154,152,146,136,131,128,126,125,124,123,115,104,95],"timestamp_mouse":[9,21,44,60,81,100,121,141,160,181,200,221,242,261,280,301,321,341,362,381,401,422,440,460,481,500,520,540,560,581,600,622,640,660,680,700,720,741,762,780,801,821,840,861,880,900,921,940,961,980,1001,1020,1040,1060,1080,1102,1121,1140,1161,1181,1201,1220,1240,1261,1280,1300,1320,1340,1361,1381,1400,1421],"xSR":741.5,"ySR":469.95,"xT1":424.9,"yT1":0,"xT2":1058.1,"yT2":0,"toosoon":0,"cond_shown":"equaldotsize","ratio_trial":250,"smaller_num":"3","larger_num":"12","correct_side":1,"subjID":"isabellasanchezvargas6","gender":"1","age":"9","school":"4"},{"start_time":1552073946823,"click_time":1552073948030,"finger_time":1552073947590,"fix_duration":250,"trial":21,"RT":767,"MT":440,"sideResp":2,"stimulus":"img/500/randomdotsizeEA/L/7_Ratio_500_L_10_R_5.png","xmouse":[765,765,765,765,765,765,765,765,765,765,765,765,765,765,765,765,765,765,765,765,766,766,766,766,766,767,769,769,772,774,776,777,778,781,786,794,797,799,805,815,835,843,854,870,878,899,923,958,994,1021,1059,1066,1071,1075,1076,1076,1076,1074,1072,1068,1063],"ymouse":[548,548,548,548,548,548,548,548,548,548,548,548,548,548,548,548,548,548,548,548,548,548,548,548,547,543,540,537,533,527,524,521,518,512,503,487,481,473,460,443,412,402,392,382,375,362,351,336,318,302,265,251,234,219,201,164,152,139,124,103,86],"timestamp_mouse":[13,36,46,66,86,106,126,146,167,186,206,226,246,267,286,307,327,347,391,391,406,428,448,467,488,506,526,548,566,587,606,627,646,666,686,707,726,747,767,788,806,826,846,866,888,907,927,947,967,986,1006,1028,1047,1066,1087,1107,1126,1147,1166,1186,1206],"xSR":741.5,"ySR":469.95,"xT1":424.9,"yT1":0,"xT2":1058.1,"yT2":0,"toosoon":0,"cond_shown":"randomdotsizeEA","ratio_trial":500,"smaller_num":"5","larger_num":"10","correct_side":1,"subjID":"isabellasanchezvargas6","gender":"1","age":"9","school":"4"},{"start_time":1552073949758,"click_time":1552073951330,"finger_time":1552073950129,"fix_duration":746.0408540720684,"trial":22,"RT":371,"MT":1201,"sideResp":1,"stimulus":"img/900/randomdotsizeEA/L/2_Ratio_900_L_20_R_18.png","xmouse":[820,820,820,820,820,820,820,820,820,820,820,818,818,813,810,809,809,808,804,798,793,789,788,787,787,787,786,785,784,784,784,784,784,784,784,784,784,784,784,784,786,788,791,796,798,800,804,810,819,823,827,828,830,831,831,830,826,825,816,803,786,756,741,717,711,705,703,694,674,661,645,632,611,590,577,564,550,535,507],"ymouse":[511,511,511,511,511,511,511,511,511,511,511,505,499,484,479,476,475,473,460,446,437,431,429,428,427,425,423,419,417,416,416,416,412,404,401,400,395,393,390,382,375,369,359,343,337,331,323,313,291,282,271,265,258,241,235,229,222,221,214,206,199,184,177,166,163,162,161,159,152,149,143,137,128,118,114,109,103,97,86],"timestamp_mouse":[14,31,51,73,91,112,133,151,171,191,211,231,251,271,292,311,332,351,371,391,412,432,451,471,491,511,532,551,573,592,612,631,653,672,692,712,731,751,771,792,811,831,851,871,891,912,932,951,971,992,1013,1031,1052,1071,1091,1112,1132,1152,1171,1192,1212,1232,1252,1272,1291,1312,1331,1351,1372,1391,1412,1433,1451,1471,1491,1512,1532,1552,1571],"xSR":741.5,"ySR":469.95,"xT1":424.9,"yT1":0,"xT2":1058.1,"yT2":0,"toosoon":0,"cond_shown":"randomdotsizeEA","ratio_trial":900,"smaller_num":"18","larger_num":"20","correct_side":1,"subjID":"isabellasanchezvargas6","gender":"1","age":"9","school":"4"},{"start_time":1552073952460,"click_time":1552073953909,"finger_time":1552073953129,"fix_duration":250,"trial":23,"RT":669,"MT":780,"sideResp":2,"stimulus":"img/250/equaldotsize/R/4_Ratio_250_L_3_R_12.png","xmouse":[793,793,793,793,793,793,793,793,793,793,793,793,793,793,793,793,793,793,793,793,793,793,793,793,793,793,793,793,793,793,793,795,797,803,807,815,825,840,866,882,902,935,968,1023,1033,1036,1036,1035,1032,1032,1032,1032,1032,1032,1032,1032,1032,1032,1032,1032,1034,1039,1041,1049,1052,1053,1054,1054,1054,1054,1055,1058,1060],"ymouse":[512,512,512,512,512,512,512,512,512,512,512,512,512,512,512,512,512,512,512,512,512,512,512,512,512,512,512,512,512,512,512,503,492,455,440,421,404,377,350,337,322,299,273,185,162,148,138,120,99,90,81,73,68,63,62,62,62,62,60,59,58,57,56,54,53,52,52,52,52,51,51,51,51],"timestamp_mouse":[12,36,50,70,89,109,130,150,170,189,209,230,249,269,290,310,330,350,369,389,410,429,450,470,490,510,531,550,569,589,610,630,650,669,690,710,729,750,771,790,809,830,849,870,889,910,929,950,969,990,1009,1029,1049,1069,1089,1110,1130,1150,1169,1190,1210,1229,1249,1269,1290,1309,1330,1349,1369,1389,1410,1429,1449],"xSR":741.5,"ySR":469.95,"xT1":424.9,"yT1":0,"xT2":1058.1,"yT2":0,"toosoon":0,"cond_shown":"equaldotsize","ratio_trial":250,"smaller_num":"3","larger_num":"12","correct_side":2,"subjID":"isabellasanchezvargas6","gender":"1","age":"9","school":"4"},{"start_time":1552073955216,"click_time":1552073956229,"finger_time":1552073955909,"fix_duration":304.1934894838513,"trial":24,"RT":693,"MT":320,"sideResp":2,"stimulus":"img/900/equaldotanddens/L/1_Ratio_900_L_10_R_9.png","xmouse":[801,801,801,801,801,801,801,801,801,801,801,801,801,801,801,801,801,801,801,801,801,801,801,801,801,801,801,801,801,803,808,813,814,821,828,861,875,895,914,938,991,1013,1027,1040,1049,1058,1060,1061,1062,1063,1067],"ymouse":[531,531,531,531,531,531,531,531,531,531,531,531,531,531,531,531,531,531,531,531,531,531,531,531,531,531,531,531,530,519,501,492,490,481,469,430,410,386,364,334,243,215,194,175,160,137,129,119,110,100,83],"timestamp_mouse":[14,45,53,74,94,113,133,154,174,193,213,235,254,274,293,313,333,354,374,395,413,433,454,474,493,513,533,553,574,594,613,634,653,674,693,713,734,754,774,793,813,834,854,874,894,913,934,953,974,994,1013],"xSR":741.5,"ySR":469.95,"xT1":424.9,"yT1":0,"xT2":1058.1,"yT2":0,"toosoon":0,"cond_shown":"equaldotanddens","ratio_trial":900,"smaller_num":"9","larger_num":"10","correct_side":1,"subjID":"isabellasanchezvargas6","gender":"1","age":"9","school":"4"},{"start_time":1552073958811,"click_time":1552073959991,"finger_time":1552073959529,"fix_duration":1280.0990826190384,"trial":25,"RT":718,"MT":462,"sideResp":1,"stimulus":"img/750/randomdotsizeEA/R/5_Ratio_750_L_15_R_20.png","xmouse":[819,819,819,819,819,819,819,819,819,819,819,819,819,819,819,819,819,819,819,819,819,816,814,813,813,813,813,813,812,812,809,808,808,807,806,805,805,805,805,805,805,805,806,806,806,799,792,783,770,755,713,695,675,655,634,578,557,535,517],"ymouse":[510,510,510,510,510,510,510,510,510,510,510,510,510,510,510,510,510,510,510,510,503,498,495,493,493,493,493,493,492,491,485,482,480,477,474,469,466,461,456,448,424,408,400,393,376,333,310,285,260,234,179,159,137,117,100,58,44,32,24],"timestamp_mouse":[18,39,59,78,99,118,139,159,178,198,219,239,259,279,299,319,339,359,379,399,418,439,459,478,498,520,539,559,578,599,618,638,659,679,699,718,738,760,778,798,818,838,858,878,898,918,938,958,978,998,1018,1038,1058,1078,1098,1119,1138,1159,1179],"xSR":741.5,"ySR":469.95,"xT1":424.9,"yT1":0,"xT2":1058.1,"yT2":0,"toosoon":0,"cond_shown":"randomdotsizeEA","ratio_trial":750,"smaller_num":"15","larger_num":"20","correct_side":2,"subjID":"isabellasanchezvargas6","gender":"1","age":"9","school":"4"},{"start_time":1552073961788,"click_time":1552073963210,"finger_time":1552073962410,"fix_duration":835.6959348522338,"trial":26,"RT":622,"MT":800,"sideResp":2,"stimulus":"img/250/randomdotsizeEA/R/10_Ratio_250_L_4_R_16.png","xmouse":[765,765,765,765,765,765,765,765,765,765,765,765,765,765,765,765,765,765,765,765,769,772,782,782,782,784,788,802,805,811,819,828,846,858,873,892,911,947,960,969,980,987,999,1004,1008,1009,1010,1012,1012,1014,1014,1016,1021,1026,1030,1035,1036,1038,1040,1040,1040,1040,1040,1040,1040,1041,1042,1048,1054,1065,1080,1105],"ymouse":[519,519,519,519,519,519,519,519,519,519,519,519,519,519,519,519,519,519,519,519,519,519,516,516,516,515,511,498,494,487,478,468,446,432,414,396,379,351,339,328,309,294,266,253,245,238,234,227,225,222,217,213,200,190,183,176,172,166,163,162,162,162,162,162,161,159,157,149,142,127,106,65],"timestamp_mouse":[15,26,46,62,81,101,121,142,161,182,201,222,241,262,281,301,321,341,363,382,402,421,441,461,481,501,521,541,561,582,602,622,641,661,681,702,722,742,762,782,802,821,841,862,882,903,922,942,961,983,1001,1021,1042,1061,1081,1102,1122,1141,1162,1183,1201,1222,1241,1261,1281,1302,1322,1341,1361,1382,1402,1421],"xSR":741.5,"ySR":469.95,"xT1":424.9,"yT1":0,"xT2":1058.1,"yT2":0,"toosoon":0,"cond_shown":"randomdotsizeEA","ratio_trial":250,"smaller_num":"4","larger_num":"16","correct_side":2,"subjID":"isabellasanchezvargas6","gender":"1","age":"9","school":"4"},{"start_time":1552073966102,"click_time":1552073967211,"finger_time":1552073966649,"fix_duration":1370.063019712576,"trial":27,"RT":547,"MT":562,"sideResp":1,"stimulus":"img/250/randomdotsizeEA/L/1_Ratio_250_L_8_R_2.png","xmouse":[809,809,809,809,809,809,809,809,809,809,809,810,810,810,810,810,811,811,811,812,812,813,815,816,820,820,822,827,832,836,840,845,845,845,835,819,761,739,716,698,676,635,615,615,615,615,615,615,615,615,615,615,615,530,526,521],"ymouse":[520,520,520,520,520,520,520,520,520,520,520,520,520,520,520,520,520,520,520,519,516,510,504,500,488,485,478,465,451,437,420,377,349,308,268,225,131,103,76,55,39,13,2,2,2,2,2,2,2,2,2,2,2,0,7,26],"timestamp_mouse":[9,27,56,68,87,107,128,149,167,188,209,228,248,268,289,307,327,348,368,388,408,427,448,468,487,508,527,547,567,588,607,627,647,668,687,707,728,748,767,787,807,827,847,867,887,907,927,947,968,988,1007,1028,1047,1067,1088,1109],"xSR":741.5,"ySR":469.95,"xT1":424.9,"yT1":0,"xT2":1058.1,"yT2":0,"toosoon":0,"cond_shown":"randomdotsizeEA","ratio_trial":250,"smaller_num":"2","larger_num":"8","correct_side":1,"subjID":"isabellasanchezvargas6","gender":"1","age":"9","school":"4"},{"start_time":1552073968901,"click_time":1552073970288,"finger_time":1552073969588,"fix_duration":431.56889372034334,"trial":28,"RT":687,"MT":700,"sideResp":2,"stimulus":"img/500/randomdotsizeEA/R/3_Ratio_500_L_10_R_20.png","xmouse":[775,775,775,775,775,775,775,775,775,775,775,775,775,775,775,775,775,775,775,775,775,775,775,775,775,775,775,775,775,775,775,775,778,781,785,793,799,802,803,809,816,828,835,841,847,854,881,891,907,923,939,968,982,992,1003,1013,1017,1019,1021,1022,1023,1025,1025,1025,1026,1032,1050,1060,1068,1074],"ymouse":[500,500,500,500,500,500,500,500,500,500,500,500,500,500,501,501,501,501,501,501,501,501,501,501,501,501,501,501,501,501,501,501,494,484,468,439,413,406,405,399,389,371,364,355,347,338,309,301,288,276,263,238,221,205,190,173,164,159,154,152,148,144,143,142,140,132,118,110,104,99],"timestamp_mouse":[12,43,47,67,87,107,127,148,168,187,207,228,247,267,287,307,327,347,368,389,408,428,447,467,488,507,528,548,568,589,607,628,647,667,687,708,727,748,768,788,808,827,847,868,889,908,927,947,967,987,1007,1028,1047,1068,1087,1107,1128,1148,1167,1188,1207,1227,1247,1268,1288,1308,1328,1347,1368,1387],"xSR":741.5,"ySR":469.95,"xT1":424.9,"yT1":0,"xT2":1058.1,"yT2":0,"toosoon":0,"cond_shown":"randomdotsizeEA","ratio_trial":500,"smaller_num":"10","larger_num":"20","correct_side":2,"subjID":"isabellasanchezvargas6","gender":"1","age":"9","school":"4"},{"start_time":1552073972250,"click_time":1552073973268,"finger_time":1552073972749,"fix_duration":641.313815273661,"trial":29,"RT":499,"MT":519,"sideResp":1,"stimulus":"img/750/randomdotsizeEA/L/9_Ratio_750_L_4_R_3.png","xmouse":[811,811,812,813,813,813,813,813,814,814,814,814,814,814,814,814,814,814,814,814,814,814,814,812,810,810,810,810,810,810,807,803,798,785,778,769,755,730,700,685,667,651,640,615,602,588,576,559,535,527,521],"ymouse":[520,520,520,519,519,519,518,517,514,513,512,511,510,507,506,504,500,497,497,497,496,494,490,473,468,468,468,468,468,465,457,445,429,391,370,350,327,292,253,234,214,197,184,158,148,136,127,114,98,92,87],"timestamp_mouse":[18,41,58,78,98,118,139,158,178,199,218,239,258,278,299,319,339,358,378,398,418,439,458,478,499,519,539,559,579,599,619,638,658,678,698,718,740,758,778,799,818,839,858,879,898,919,938,958,978,999,1018],"xSR":741.5,"ySR":469.95,"xT1":424.9,"yT1":0,"xT2":1058.1,"yT2":0,"toosoon":0,"cond_shown":"randomdotsizeEA","ratio_trial":750,"smaller_num":"3","larger_num":"4","correct_side":1,"subjID":"isabellasanchezvargas6","gender":"1","age":"9","school":"4"},{"start_time":1552073975178,"click_time":1552073977969,"finger_time":1552073975828,"fix_duration":807.6643960182278,"trial":30,"RT":650,"MT":2141,"sideResp":2,"stimulus":"img/750/randomdotsizeEA/R/12_Ratio_750_L_3_R_4.png","xmouse":[766,766,766,766,766,766,766,766,766,766,766,766,766,766,766,766,766,766,766,766,766,766,766,766,766,766,766,766,769,771,776,779,797,807,822,835,852,878,889,902,922,929,963,971,977,982,986,990,992,994,999,1002,1004,1004,1004,1005,1005,1005,1005,1005,1005,1005,1005,1005,989,968,945,915,912,904,893,875,818,794,773,754,736,706,689,669,649,629,627,627,627,627,628,639,654,673,694,726,765,785,808,829,852,894,910,924,943,953,968,979,990,1000,1013,1032,1033,1037,1041,1046,1057,1064,1070,1074,1080,1086,1090,1095,1100,1104,1109,1109,1109,1109,1109,1109,1109,1109,1109,1109,1109,1109,1109,1109,1109,1109,1109,1109],"ymouse":[492,492,492,492,492,492,492,492,492,492,492,492,492,492,492,492,492,492,492,492,492,492,492,492,492,492,492,492,491,487,479,473,452,439,421,407,388,353,333,315,281,268,212,197,187,179,175,169,167,165,162,161,160,160,160,159,159,159,159,159,159,159,159,159,159,159,159,159,159,159,159,158,146,138,132,126,122,116,113,110,108,108,108,108,108,108,108,111,117,126,135,148,165,172,178,186,193,207,212,216,221,222,222,222,222,222,222,222,222,222,221,218,211,205,200,197,190,179,172,165,157,145,129,123,118,115,113,112,111,111,111,110,107,106,104,104,103,100,100,98],"timestamp_mouse":[12,35,50,70,90,110,130,150,170,191,212,231,250,271,290,310,330,351,371,391,412,430,450,471,491,510,530,550,570,591,611,631,650,670,690,711,730,750,770,791,811,832,850,870,891,910,930,950,971,991,1011,1030,1050,1070,1090,1111,1132,1150,1172,1190,1210,1230,1250,1270,1291,1310,1331,1350,1370,1390,1410,1431,1451,1471,1491,1511,1531,1550,1570,1590,1611,1630,1651,1671,1692,1710,1730,1750,1770,1790,1811,1831,1851,1870,1890,1910,1930,1950,1970,1990,2010,2032,2050,2071,2090,2110,2131,2150,2170,2190,2210,2230,2251,2271,2291,2311,2331,2350,2370,2390,2410,2431,2452,2471,2490,2511,2531,2550,2571,2590,2610,2630,2651,2670,2690,2710,2730,2750,2771,2791],"xSR":741.5,"ySR":469.95,"xT1":424.9,"yT1":0,"xT2":1058.1,"yT2":0,"toosoon":0,"cond_shown":"randomdotsizeEA","ratio_trial":750,"smaller_num":"3","larger_num":"4","correct_side":2,"subjID":"isabellasanchezvargas6","gender":"1","age":"9","school":"4"},{"start_time":1552073980428,"click_time":1552073981888,"finger_time":1552073981128,"fix_duration":1298.6793320168965,"trial":31,"RT":700,"MT":760,"sideResp":1,"stimulus":"img/750/equaldotsize/L/14_Ratio_750_L_8_R_6.png","xmouse":[781,781,781,781,781,781,781,781,781,781,781,781,781,781,781,781,781,781,781,781,781,781,781,781,782,787,789,792,795,795,798,801,805,809,811,821,825,831,840,853,868,871,871,867,852,809,787,770,755,735,725,724,719,709,695,665,649,636,629,619,585,572,565,560,560,560,559,553,549,543,536,531,527,523],"ymouse":[514,514,514,514,514,514,514,514,514,514,514,514,514,514,514,514,514,514,514,514,514,514,514,514,514,510,509,507,505,504,502,497,492,486,482,465,455,441,427,399,354,331,307,278,234,160,133,115,103,89,83,82,81,80,76,69,66,63,62,58,49,46,43,43,43,43,43,43,43,44,45,46,46,47],"timestamp_mouse":[14,27,41,61,80,100,120,141,160,181,200,220,242,260,281,301,322,341,361,380,401,420,441,461,481,501,521,541,561,581,600,621,641,661,681,700,720,741,760,780,800,820,841,860,880,900,921,941,961,980,1000,1021,1041,1061,1081,1100,1120,1141,1160,1180,1200,1221,1241,1260,1280,1300,1321,1340,1361,1382,1402,1421,1441,1460],"xSR":741.5,"ySR":469.95,"xT1":424.9,"yT1":0,"xT2":1058.1,"yT2":0,"toosoon":0,"cond_shown":"equaldotsize","ratio_trial":750,"smaller_num":"6","larger_num":"8","correct_side":1,"subjID":"isabellasanchezvargas6","gender":"1","age":"9","school":"4"},{"start_time":1552073984243,"click_time":1552073985269,"finger_time":1552073984828,"fix_duration":1012.8518291875695,"trial":32,"RT":585,"MT":441,"sideResp":2,"stimulus":"img/250/equaldotanddens/R/6_Ratio_250_L_6_R_24.png","xmouse":[771,771,771,771,771,771,771,771,771,771,771,771,771,771,771,772,772,772,773,774,775,775,775,776,778,779,779,782,788,802,812,824,840,857,888,901,911,920,931,983,1014,1044,1061,1071,1079,1079,1080,1081,1082,1083,1084,1084],"ymouse":[542,542,542,542,542,542,542,542,542,540,539,538,536,535,533,532,531,528,527,520,516,511,509,505,499,496,493,488,474,449,438,423,404,386,348,333,320,308,292,240,211,183,167,154,138,132,128,125,120,109,101,96],"timestamp_mouse":[14,35,45,65,86,106,127,146,166,187,205,226,246,265,286,305,326,345,365,385,406,426,446,465,486,506,526,546,566,585,606,625,645,665,685,705,725,745,765,785,806,826,846,866,886,905,926,946,965,985,1005,1026],"xSR":741.5,"ySR":469.95,"xT1":424.9,"yT1":0,"xT2":1058.1,"yT2":0,"toosoon":0,"cond_shown":"equaldotanddens","ratio_trial":250,"smaller_num":"6","larger_num":"24","correct_side":2,"subjID":"isabellasanchezvargas6","gender":"1","age":"9","school":"4"},{"start_time":1552073987495,"click_time":1552073988929,"finger_time":1552073988049,"fix_duration":1125.0035214255665,"trial":33,"RT":554,"MT":880,"sideResp":2,"stimulus":"img/250/equaldotanddens/R/8_Ratio_250_L_1_R_4.png","xmouse":[771,776,776,779,781,781,783,783,784,784,784,786,787,787,787,788,791,793,797,799,802,808,811,812,816,817,836,845,858,872,888,921,935,950,969,978,1016,1027,1035,1043,1047,1060,1062,1063,1063,1063,1063,1064,1064,1065,1066,1068,1069,1071,1071,1072,1078,1080,1082,1084,1086,1089,1090,1092,1095,1096,1098,1098,1099,1099,1099,1100],"ymouse":[546,542,542,539,537,536,534,534,533,533,532,530,528,528,528,527,524,522,518,516,512,506,503,502,498,497,479,469,453,437,417,377,363,344,321,308,264,252,242,232,225,192,185,173,166,161,157,155,153,151,147,142,139,137,137,134,126,122,119,117,115,112,111,109,107,106,103,103,102,101,100,96],"timestamp_mouse":[14,47,54,73,94,113,133,154,173,193,214,233,253,274,293,314,333,354,374,393,414,434,454,474,493,513,533,554,574,594,615,633,654,674,693,715,733,754,774,793,813,834,854,874,893,914,934,953,973,993,1013,1033,1053,1076,1094,1114,1134,1153,1174,1193,1214,1234,1254,1273,1293,1314,1333,1354,1374,1394,1414,1434],"xSR":741.5,"ySR":469.95,"xT1":424.9,"yT1":0,"xT2":1058.1,"yT2":0,"toosoon":0,"cond_shown":"equaldotanddens","ratio_trial":250,"smaller_num":"1","larger_num":"4","correct_side":2,"subjID":"isabellasanchezvargas6","gender":"1","age":"9","school":"4"},{"start_time":1552073991256,"click_time":1552073992269,"finger_time":1552073991828,"fix_duration":907.1186115379155,"trial":34,"RT":572,"MT":441,"sideResp":1,"stimulus":"img/250/equaldotanddens/L/15_Ratio_250_L_12_R_3.png","xmouse":[827,827,827,827,827,827,828,828,828,828,828,828,828,828,828,828,828,828,828,828,828,828,829,830,830,830,830,830,833,835,835,835,832,818,803,785,765,746,720,714,708,698,685,651,640,623,605,577,546,534,519],"ymouse":[500,500,500,500,500,499,499,498,498,498,498,498,498,497,497,497,497,497,497,497,497,497,495,491,487,483,478,473,455,441,429,416,395,359,339,317,294,270,219,202,186,170,153,115,103,88,77,63,52,51,51],"timestamp_mouse":[12,39,53,72,92,113,133,152,172,193,213,233,252,273,293,312,332,353,373,392,412,433,453,472,493,514,533,552,572,593,613,633,652,672,692,713,734,754,773,793,813,832,853,872,893,913,933,952,972,993,1013],"xSR":741.5,"ySR":469.95,"xT1":424.9,"yT1":0,"xT2":1058.1,"yT2":0,"toosoon":0,"cond_shown":"equaldotanddens","ratio_trial":250,"smaller_num":"3","larger_num":"12","correct_side":1,"subjID":"isabellasanchezvargas6","gender":"1","age":"9","school":"4"},{"start_time":1552073996736,"click_time":1552073997768,"finger_time":1552073997349,"fix_duration":447.0493391275277,"trial":35,"RT":613,"MT":419,"sideResp":2,"stimulus":"img/500/equaldotsize/R/9_Ratio_500_L_2_R_4.png","xmouse":[804,804,804,804,804,804,804,804,804,804,804,804,804,804,804,804,804,804,804,804,804,804,805,805,808,810,813,815,821,832,840,851,860,874,909,920,931,949,964,985,990,996,1003,1010,1027,1036,1046,1057,1067,1092,1105,1116],"ymouse":[547,547,547,547,547,547,547,547,547,547,547,547,547,547,547,547,547,547,547,547,547,543,543,541,534,529,525,518,508,484,468,450,433,413,362,346,331,308,288,259,251,241,232,223,203,195,186,176,164,129,109,91],"timestamp_mouse":[13,37,52,74,92,113,132,153,172,192,213,232,253,273,293,313,332,352,373,394,413,433,453,473,492,513,533,553,572,592,613,633,653,673,693,713,732,753,772,792,813,833,852,873,892,912,933,952,973,993,1013,1032],"xSR":741.5,"ySR":469.95,"xT1":424.9,"yT1":0,"xT2":1058.1,"yT2":0,"toosoon":0,"cond_shown":"equaldotsize","ratio_trial":500,"smaller_num":"2","larger_num":"4","correct_side":2,"subjID":"isabellasanchezvargas6","gender":"1","age":"9","school":"4"},{"start_time":1552074001428,"click_time":1552074002448,"finger_time":1552074002069,"fix_duration":1378.8800981843606,"trial":36,"RT":641,"MT":379,"sideResp":1,"stimulus":"img/500/randomdotsizeEA/L/5_Ratio_500_L_4_R_2.png","xmouse":[820,820,820,820,820,820,820,820,820,820,820,820,820,820,820,820,820,820,820,820,820,820,820,820,820,820,820,820,820,820,820,815,804,790,735,707,687,673,662,654,638,626,612,598,581,555,550,547,540,533,516,513],"ymouse":[535,535,535,535,535,535,535,535,535,535,535,535,535,535,535,535,535,535,535,535,535,535,535,535,535,535,535,535,529,521,496,478,451,419,330,291,265,251,242,234,225,218,209,200,188,168,161,153,139,125,102,97],"timestamp_mouse":[9,20,40,60,80,100,121,140,160,180,201,220,241,261,281,301,320,341,361,381,400,420,441,461,480,500,521,541,561,581,600,621,641,661,682,700,720,740,760,780,800,821,840,860,880,900,920,940,960,981,1000,1020],"xSR":741.5,"ySR":469.95,"xT1":424.9,"yT1":0,"xT2":1058.1,"yT2":0,"toosoon":0,"cond_shown":"randomdotsizeEA","ratio_trial":500,"smaller_num":"2","larger_num":"4","correct_side":1,"subjID":"isabellasanchezvargas6","gender":"1","age":"9","school":"4"},{"start_time":1552074004893,"click_time":1552074005970,"finger_time":1552074005468,"fix_duration":1362.0089847297597,"trial":37,"RT":575,"MT":502,"sideResp":2,"stimulus":"img/900/equaldotsize/R/14_Ratio_900_L_18_R_20.png","xmouse":[795,795,795,795,795,795,795,795,795,795,795,795,795,795,795,795,795,795,795,795,795,797,798,799,803,809,821,832,849,867,889,917,926,935,941,948,965,971,975,979,983,996,1000,1004,1011,1013,1026,1032,1039,1048,1054,1066,1075,1079],"ymouse":[556,556,556,556,556,556,556,556,556,556,556,556,556,556,556,556,556,556,556,556,554,548,545,542,537,529,513,498,479,458,437,406,385,364,342,327,291,279,269,258,249,224,214,205,191,183,164,155,147,136,127,113,102,95],"timestamp_mouse":[15,35,56,76,95,115,135,155,176,197,216,235,256,275,296,316,336,356,376,396,415,435,456,476,496,515,535,556,575,596,615,636,656,676,696,715,736,755,775,795,815,835,856,876,896,915,935,955,976,995,1015,1035,1055,1076],"xSR":741.5,"ySR":469.95,"xT1":424.9,"yT1":0,"xT2":1058.1,"yT2":0,"toosoon":0,"cond_shown":"equaldotsize","ratio_trial":900,"smaller_num":"18","larger_num":"20","correct_side":2,"subjID":"isabellasanchezvargas6","gender":"1","age":"9","school":"4"},{"start_time":1552074007809,"click_time":1552074008809,"finger_time":1552074008428,"fix_duration":838.9653945609542,"trial":38,"RT":619,"MT":381,"sideResp":1,"stimulus":"img/250/equaldotsize/L/2_Ratio_250_L_16_R_4.png","xmouse":[812,812,812,812,812,812,812,812,812,812,812,812,812,812,812,812,812,812,812,812,812,812,812,812,812,812,812,812,812,811,811,804,794,774,752,727,682,667,656,649,641,633,631,631,631,626,594,569,544,522,514],"ymouse":[500,500,500,500,500,500,500,500,500,500,500,500,500,500,500,500,500,500,500,500,500,500,500,500,500,500,500,500,500,500,489,444,418,376,337,299,245,226,212,201,185,169,167,167,165,159,139,127,115,102,97],"timestamp_mouse":[1,38,39,60,79,101,119,140,160,179,199,220,239,259,280,300,319,339,359,379,399,419,441,459,480,499,519,539,561,580,600,619,640,660,680,700,720,739,760,779,800,819,839,859,879,899,920,939,960,979,1000],"xSR":741.5,"ySR":469.95,"xT1":424.9,"yT1":0,"xT2":1058.1,"yT2":0,"toosoon":0,"cond_shown":"equaldotsize","ratio_trial":250,"smaller_num":"4","larger_num":"16","correct_side":1,"subjID":"isabellasanchezvargas6","gender":"1","age":"9","school":"4"},{"start_time":1552074011292,"click_time":1552074012609,"finger_time":1552074011849,"fix_duration":1263.6690779818744,"trial":39,"RT":557,"MT":760,"sideResp":1,"stimulus":"img/500/randomdotsizeEA/L/10_Ratio_500_L_4_R_2.png","xmouse":[750,750,750,750,750,750,750,750,750,750,750,750,750,750,750,750,751,753,753,755,756,759,763,766,771,774,781,785,790,792,792,804,810,816,824,838,860,870,880,888,898,918,920,920,916,912,896,887,879,865,843,790,765,740,730,714,687,672,650,626,604,565,553,542,533,522],"ymouse":[512,512,512,512,512,512,512,512,512,512,512,512,512,512,512,512,512,511,511,510,509,504,498,494,489,486,473,468,458,452,451,432,422,411,395,374,345,334,324,315,305,275,254,233,213,203,184,180,175,172,166,154,148,139,134,126,119,114,109,100,90,75,72,71,70,68],"timestamp_mouse":[16,37,57,76,97,116,136,157,177,196,216,236,256,276,298,317,336,356,377,397,416,436,457,477,497,517,536,557,577,597,616,636,656,677,697,717,737,757,777,797,817,836,856,877,897,916,936,957,977,997,1017,1036,1056,1076,1096,1118,1137,1156,1177,1196,1217,1236,1256,1277,1296,1317],"xSR":741.5,"ySR":469.95,"xT1":424.9,"yT1":0,"xT2":1058.1,"yT2":0,"toosoon":0,"cond_shown":"randomdotsizeEA","ratio_trial":500,"smaller_num":"2","larger_num":"4","correct_side":1,"subjID":"isabellasanchezvargas6","gender":"1","age":"9","school":"4"},{"start_time":1552074015101,"click_time":1552074016508,"finger_time":1552074015889,"fix_duration":1351.8399136590428,"trial":40,"RT":788,"MT":619,"sideResp":1,"stimulus":"img/900/equaldotanddens/L/8_Ratio_900_L_20_R_18.png","xmouse":[771,771,771,771,771,771,771,771,771,771,771,771,771,771,771,771,771,771,771,771,771,771,771,771,771,771,771,771,770,770,770,770,770,770,770,770,769,767,765,764,762,758,753,747,741,727,709,701,695,690,687,684,684,682,681,676,665,657,647,639,633,623,620,619,617,613,595,577,558,536,516],"ymouse":[544,544,544,544,544,544,544,544,544,544,544,544,544,544,544,544,544,544,544,544,544,544,544,544,544,544,540,538,537,537,537,537,534,532,528,526,501,487,474,461,449,421,406,390,372,339,299,279,266,256,248,238,234,230,227,213,190,174,158,143,134,124,123,123,122,122,116,107,97,84,74],"timestamp_mouse":[15,29,47,67,87,107,127,147,167,189,208,228,248,268,288,307,328,348,368,387,408,427,447,468,489,507,527,547,567,588,607,627,648,667,688,708,727,747,767,788,807,827,847,868,887,908,928,948,968,987,1007,1028,1048,1067,1088,1108,1127,1148,1167,1188,1209,1227,1247,1268,1288,1307,1327,1347,1368,1387,1407],"xSR":741.5,"ySR":469.95,"xT1":424.9,"yT1":0,"xT2":1058.1,"yT2":0,"toosoon":0,"cond_shown":"equaldotanddens","ratio_trial":900,"smaller_num":"18","larger_num":"20","correct_side":1,"subjID":"isabellasanchezvargas6","gender":"1","age":"9","school":"4"},{"start_time":1552074018486,"click_time":1552074019750,"finger_time":1552074019209,"fix_duration":1116.8842721995882,"trial":41,"RT":723,"MT":541,"sideResp":2,"stimulus":"img/900/equaldotanddens/L/10_Ratio_900_L_20_R_18.png","xmouse":[775,775,775,775,775,775,775,775,775,775,775,775,775,775,775,775,775,775,775,775,775,775,775,775,775,774,773,773,773,772,771,771,772,774,776,779,783,790,797,807,816,829,851,861,872,887,898,921,930,938,943,953,977,989,998,1012,1020,1036,1047,1061,1072,1079,1094,1100],"ymouse":[538,538,538,538,538,538,538,538,538,538,538,538,538,538,538,538,538,538,538,538,538,538,538,538,538,536,535,532,529,527,525,522,510,501,488,477,459,444,436,425,415,403,376,365,351,329,313,280,267,257,248,234,207,196,188,176,168,152,142,132,124,118,103,96],"timestamp_mouse":[13,22,43,63,82,102,122,142,162,182,203,222,242,262,282,302,322,343,363,383,402,422,443,462,483,503,522,542,563,582,603,623,642,662,683,703,723,742,763,782,802,823,842,862,883,903,922,942,963,982,1002,1023,1042,1062,1083,1103,1123,1142,1163,1182,1202,1224,1243,1264],"xSR":741.5,"ySR":469.95,"xT1":424.9,"yT1":0,"xT2":1058.1,"yT2":0,"toosoon":0,"cond_shown":"equaldotanddens","ratio_trial":900,"smaller_num":"18","larger_num":"20","correct_side":1,"subjID":"isabellasanchezvargas6","gender":"1","age":"9","school":"4"},{"start_time":1552074021615,"click_time":1552074022828,"finger_time":1552074022449,"fix_duration":785.6397393004131,"trial":42,"RT":834,"MT":379,"sideResp":2,"stimulus":"img/750/randomdotsizeEA/L/10_Ratio_750_L_4_R_3.png","xmouse":[789,789,789,789,789,789,789,789,789,789,789,789,789,789,789,789,789,789,789,789,789,789,789,789,789,789,789,789,789,789,789,789,789,789,789,793,798,803,809,813,830,844,857,870,883,917,931,949,964,985,1009,1017,1027,1037,1047,1073,1080,1087,1091,1095,1099],"ymouse":[509,509,509,509,509,509,509,509,509,509,509,509,509,509,509,509,509,509,509,509,509,509,509,509,509,509,509,509,509,509,509,509,509,509,509,507,503,500,496,494,484,476,469,463,455,431,418,402,383,353,317,300,279,256,233,177,157,139,122,108,97],"timestamp_mouse":[14,34,54,78,94,114,134,153,173,193,213,234,254,275,293,313,333,353,373,393,413,433,455,474,494,513,534,554,574,595,613,633,654,673,694,713,734,754,774,794,813,834,854,874,894,913,933,955,973,993,1013,1033,1054,1074,1094,1114,1133,1153,1174,1193,1213],"xSR":741.5,"ySR":469.95,"xT1":424.9,"yT1":0,"xT2":1058.1,"yT2":0,"toosoon":0,"cond_shown":"randomdotsizeEA","ratio_trial":750,"smaller_num":"3","larger_num":"4","correct_side":1,"subjID":"isabellasanchezvargas6","gender":"1","age":"9","school":"4"},{"start_time":1552074024369,"click_time":1552074026149,"finger_time":1552074024868,"fix_duration":479.6815058233157,"trial":43,"RT":499,"MT":1281,"sideResp":2,"stimulus":"img/900/equaldotsize/R/12_Ratio_900_L_18_R_20.png","xmouse":[787,787,787,787,787,787,787,787,787,787,787,787,787,787,787,787,787,787,787,787,788,789,790,790,790,790,790,790,788,787,787,784,776,770,766,759,752,739,733,730,729,724,718,714,710,704,697,679,666,648,631,607,586,580,576,574,571,571,571,571,571,571,571,571,572,586,611,700,757,798,824,847,873,889,910,925,941,954,961,969,979,994,1026,1039,1048,1052,1055,1058,1059],"ymouse":[515,515,515,515,515,515,515,515,515,515,515,515,515,515,515,515,515,515,515,514,507,499,484,476,467,459,453,438,428,424,420,405,383,369,358,344,332,308,298,291,281,267,248,236,221,203,187,138,116,94,75,54,43,41,40,40,40,40,40,40,40,40,40,40,40,44,51,76,92,105,112,114,113,108,102,99,96,94,93,92,90,90,88,88,88,88,87,85,85],"timestamp_mouse":[19,43,59,80,100,120,140,159,180,200,219,241,261,280,300,319,339,360,380,400,420,440,459,480,499,520,539,559,580,599,619,639,660,679,699,720,741,760,780,800,819,839,859,879,900,919,939,959,979,1000,1019,1039,1059,1080,1100,1120,1141,1160,1180,1199,1219,1240,1259,1279,1300,1320,1339,1360,1379,1400,1420,1440,1460,1479,1499,1520,1540,1560,1579,1600,1619,1639,1659,1679,1701,1720,1740,1761,1780],"xSR":741.5,"ySR":469.95,"xT1":424.9,"yT1":0,"xT2":1058.1,"yT2":0,"toosoon":0,"cond_shown":"equaldotsize","ratio_trial":900,"smaller_num":"18","larger_num":"20","correct_side":2,"subjID":"isabellasanchezvargas6","gender":"1","age":"9","school":"4"},{"start_time":1552074027461,"click_time":1552074028667,"finger_time":1552074028088,"fix_duration":250,"trial":44,"RT":627,"MT":579,"sideResp":2,"stimulus":"img/250/randomdotsizeEA/R/4_Ratio_250_L_3_R_12.png","xmouse":[752,752,752,752,752,752,752,752,752,752,752,752,752,752,752,752,752,752,752,752,752,752,752,752,760,762,766,770,776,781,788,795,804,829,844,867,889,922,991,1013,1036,1060,1079,1111,1126,1139,1149,1153,1160,1160,1160,1160,1160,1160,1160,1160,1160,1159,1154,1151,1148],"ymouse":[506,506,506,506,506,506,506,506,506,506,506,506,506,506,506,506,506,506,506,506,506,506,506,506,503,501,498,494,486,480,473,463,452,422,405,379,355,326,270,253,235,218,201,178,165,153,142,132,122,121,121,121,121,121,121,121,120,117,106,100,91],"timestamp_mouse":[12,36,47,67,88,108,128,147,167,187,207,228,248,268,288,307,328,347,367,388,408,428,447,468,489,508,528,548,567,587,608,627,649,668,687,708,727,748,767,787,806,827,846,866,887,907,926,947,966,987,1007,1026,1047,1066,1086,1106,1126,1147,1166,1186,1206],"xSR":741.5,"ySR":469.95,"xT1":424.9,"yT1":0,"xT2":1058.1,"yT2":0,"toosoon":0,"cond_shown":"randomdotsizeEA","ratio_trial":250,"smaller_num":"3","larger_num":"12","correct_side":2,"subjID":"isabellasanchezvargas6","gender":"1","age":"9","school":"4"},{"start_time":1552074031038,"click_time":1552074032127,"finger_time":1552074031607,"fix_duration":1429.849450946767,"trial":45,"RT":569,"MT":520,"sideResp":1,"stimulus":"img/250/equaldotanddens/L/5_Ratio_250_L_24_R_6.png","xmouse":[803,803,803,803,803,803,803,803,803,803,803,803,803,803,803,803,803,803,803,803,803,803,804,806,813,817,822,827,839,854,860,873,893,916,957,967,975,977,972,939,919,891,865,837,792,766,742,713,657,598,581,568,554,540,521],"ymouse":[507,507,507,507,507,507,507,507,507,507,507,507,507,507,507,507,507,507,507,507,507,507,506,505,497,494,489,483,467,447,439,421,394,361,296,269,242,217,180,135,120,104,91,79,66,60,54,47,35,18,14,11,9,7,4],"timestamp_mouse":[10,29,49,70,89,110,131,150,169,190,210,229,251,269,290,311,330,351,370,390,410,430,450,470,489,510,529,549,569,589,610,630,649,670,690,710,730,749,770,791,810,829,850,870,889,909,931,950,970,989,1010,1029,1050,1070,1089],"xSR":741.5,"ySR":469.95,"xT1":424.9,"yT1":0,"xT2":1058.1,"yT2":0,"toosoon":0,"cond_shown":"equaldotanddens","ratio_trial":250,"smaller_num":"6","larger_num":"24","correct_side":1,"subjID":"isabellasanchezvargas6","gender":"1","age":"9","school":"4"},{"start_time":1552074034301,"click_time":1552074035867,"finger_time":1552074034988,"fix_duration":1092.1912820056239,"trial":46,"RT":687,"MT":879,"sideResp":2,"stimulus":"img/750/equaldotsize/R/5_Ratio_750_L_15_R_20.png","xmouse":[765,765,765,765,765,765,765,765,765,765,765,765,765,765,765,765,765,765,765,765,765,765,765,765,765,765,765,765,765,765,766,768,771,773,779,787,804,813,821,830,841,863,870,877,887,898,905,907,908,910,911,916,917,920,922,927,935,942,953,964,977,995,1001,1007,1010,1012,1024,1034,1043,1053,1060,1068,1072,1076,1079,1081,1088,1090,1094],"ymouse":[542,542,542,542,542,542,542,542,542,542,542,542,542,542,542,542,542,542,542,542,542,542,542,542,542,542,542,534,520,511,501,490,482,475,460,438,391,375,361,346,333,303,294,284,271,255,248,244,242,240,238,232,229,226,223,219,212,207,201,195,190,180,176,171,168,166,160,153,146,139,132,123,119,117,113,111,105,101,96],"timestamp_mouse":[11,26,46,67,86,106,126,146,166,186,207,226,247,266,286,306,327,346,366,386,407,426,446,466,487,506,527,546,567,586,606,626,647,667,687,707,727,746,766,788,807,826,846,867,887,907,927,947,967,986,1006,1026,1046,1066,1086,1106,1126,1147,1167,1187,1206,1226,1246,1267,1286,1306,1326,1348,1367,1387,1406,1427,1446,1467,1487,1506,1526,1546,1566],"xSR":741.5,"ySR":469.95,"xT1":424.9,"yT1":0,"xT2":1058.1,"yT2":0,"toosoon":0,"cond_shown":"equaldotsize","ratio_trial":750,"smaller_num":"15","larger_num":"20","correct_side":2,"subjID":"isabellasanchezvargas6","gender":"1","age":"9","school":"4"},{"start_time":1552074037570,"click_time":1552074038707,"finger_time":1552074038128,"fix_duration":540.621412555235,"trial":47,"RT":558,"MT":579,"sideResp":1,"stimulus":"img/500/equaldotsize/R/3_Ratio_500_L_10_R_20.png","xmouse":[780,780,780,780,780,780,780,780,780,780,780,780,780,780,780,780,781,781,781,781,782,783,785,786,789,791,793,796,797,798,798,798,798,792,787,779,768,732,713,697,683,668,657,649,637,625,614,590,583,577,572,570,559,552,542,529,523],"ymouse":[521,521,521,521,521,521,521,521,521,521,521,521,521,521,521,520,519,519,519,519,515,513,508,504,497,487,478,458,449,435,419,397,361,342,324,303,283,234,217,202,187,175,168,162,155,147,137,116,111,108,104,102,94,90,85,79,75],"timestamp_mouse":[18,37,57,78,98,117,139,157,178,197,218,237,258,278,298,318,337,358,378,398,418,438,457,478,498,518,538,558,578,598,617,637,658,677,697,717,737,758,777,797,817,838,857,877,897,918,938,958,979,997,1018,1038,1057,1077,1098,1118,1137],"xSR":741.5,"ySR":469.95,"xT1":424.9,"yT1":0,"xT2":1058.1,"yT2":0,"toosoon":0,"cond_shown":"equaldotsize","ratio_trial":500,"smaller_num":"10","larger_num":"20","correct_side":2,"subjID":"isabellasanchezvargas6","gender":"1","age":"9","school":"4"},{"start_time":1552074040657,"click_time":1552074041987,"finger_time":1552074041108,"fix_duration":669.7721921997233,"trial":48,"RT":451,"MT":879,"sideResp":2,"stimulus":"img/500/equaldotanddens/R/3_Ratio_500_L_10_R_20.png","xmouse":[775,775,775,775,775,775,775,775,775,775,775,776,777,779,780,784,788,792,811,822,829,837,847,871,878,881,882,883,883,883,880,880,881,895,907,924,939,965,995,1001,1008,1014,1019,1025,1027,1029,1030,1033,1038,1039,1042,1044,1046,1050,1052,1054,1057,1058,1065,1067,1067,1067,1070,1077,1079,1082,1084],"ymouse":[530,530,530,530,530,530,530,530,530,530,530,527,527,524,523,520,516,512,502,500,497,492,483,458,447,441,438,432,409,393,375,360,345,318,299,283,273,258,244,239,233,230,224,213,210,204,199,189,172,165,157,150,144,134,131,127,122,121,116,116,116,116,113,107,105,100,92],"timestamp_mouse":[13,38,51,70,91,110,131,150,170,190,211,230,250,271,290,310,332,350,371,390,410,431,451,471,490,511,530,550,571,591,611,630,650,671,690,710,730,751,770,790,810,830,850,870,891,911,930,950,970,990,1010,1031,1051,1070,1091,1110,1130,1151,1171,1191,1210,1231,1251,1270,1291,1310,1330],"xSR":741.5,"ySR":469.95,"xT1":424.9,"yT1":0,"xT2":1058.1,"yT2":0,"toosoon":0,"cond_shown":"equaldotanddens","ratio_trial":500,"smaller_num":"10","larger_num":"20","correct_side":2,"subjID":"isabellasanchezvargas6","gender":"1","age":"9","school":"4"},{"start_time":1552074043438,"click_time":1552074044868,"finger_time":1552074044128,"fix_duration":250,"trial":49,"RT":690,"MT":740,"sideResp":1,"stimulus":"img/750/equaldotanddens/L/9_Ratio_750_L_4_R_3.png","xmouse":[798,798,798,798,798,798,798,798,798,798,798,798,798,798,798,798,798,798,798,798,798,798,798,798,798,798,798,801,803,810,811,812,813,817,827,833,836,837,837,832,828,825,824,822,818,812,807,800,795,786,782,781,779,779,778,777,775,771,757,727,710,688,668,649,625,612,600,589,571,543,534,524],"ymouse":[510,510,510,510,510,510,510,510,510,510,510,510,510,510,510,510,510,510,510,510,510,510,510,510,510,510,510,508,506,499,497,496,493,486,463,443,424,403,371,330,316,308,301,297,287,278,271,262,255,242,237,235,233,232,231,231,227,222,206,175,158,141,125,110,89,79,70,62,49,30,25,21],"timestamp_mouse":[12,35,50,70,89,110,130,149,169,189,209,230,250,269,289,309,330,350,370,389,410,430,449,469,489,509,530,549,569,589,610,629,649,669,690,709,730,750,769,789,809,830,850,870,889,910,930,951,970,989,1010,1030,1049,1069,1090,1109,1129,1150,1170,1189,1209,1230,1250,1270,1289,1310,1330,1349,1370,1389,1409,1430],"xSR":741.5,"ySR":469.95,"xT1":424.9,"yT1":0,"xT2":1058.1,"yT2":0,"toosoon":0,"cond_shown":"equaldotanddens","ratio_trial":750,"smaller_num":"3","larger_num":"4","correct_side":1,"subjID":"isabellasanchezvargas6","gender":"1","age":"9","school":"4"},{"start_time":1552074045922,"click_time":1552074047368,"finger_time":1552074046768,"fix_duration":250,"trial":50,"RT":846,"MT":600,"sideResp":1,"stimulus":"img/500/equaldotsize/L/4_Ratio_500_L_18_R_9.png","xmouse":[804,804,804,804,804,804,804,804,804,804,804,804,804,804,804,804,804,804,804,804,804,804,804,804,804,804,804,804,804,804,804,804,804,804,804,804,804,804,806,806,812,817,821,834,845,861,867,872,875,875,872,866,853,827,807,764,745,730,712,694,640,620,599,581,581,577,574,569,561,552,534,527,522],"ymouse":[534,534,534,534,534,534,534,534,534,534,534,534,534,534,534,534,534,534,534,534,534,534,534,534,534,534,534,534,534,534,534,534,534,534,534,532,526,515,504,499,484,473,464,447,429,394,378,365,354,343,325,313,296,268,251,220,206,197,185,174,146,137,123,110,110,108,107,104,101,96,84,79,75],"timestamp_mouse":[18,38,46,65,85,105,125,145,167,185,205,225,246,267,285,305,326,347,365,385,405,426,445,465,485,505,525,545,565,585,605,625,645,665,685,705,726,746,765,785,806,826,846,865,886,905,926,945,965,985,1006,1025,1046,1065,1085,1105,1126,1146,1166,1187,1206,1226,1246,1266,1285,1306,1326,1346,1365,1385,1405,1425,1446],"xSR":741.5,"ySR":469.95,"xT1":424.9,"yT1":0,"xT2":1058.1,"yT2":0,"toosoon":0,"cond_shown":"equaldotsize","ratio_trial":500,"smaller_num":"9","larger_num":"18","correct_side":1,"subjID":"isabellasanchezvargas6","gender":"1","age":"9","school":"4"},{"start_time":1552074049139,"click_time":1552074050987,"finger_time":1552074049968,"fix_duration":890.621873677315,"trial":51,"RT":829,"MT":1019,"sideResp":2,"stimulus":"img/750/equaldotanddens/R/5_Ratio_750_L_15_R_20.png","xmouse":[777,777,777,777,777,777,777,777,777,777,777,777,777,777,777,777,777,777,777,777,777,777,777,777,777,777,777,777,777,777,778,779,780,780,780,781,782,784,786,790,791,793,794,795,796,797,798,798,798,799,799,801,801,802,803,803,804,806,807,809,809,811,812,816,823,829,837,849,868,916,943,960,978,997,1013,1020,1026,1031,1037,1043,1047,1051,1054,1056,1058,1061,1062,1064,1065,1068,1071,1079,1086],"ymouse":[502,502,502,502,502,502,502,502,502,502,502,502,502,502,502,502,502,502,502,502,502,502,502,502,502,502,502,502,502,502,501,498,495,495,495,494,491,489,485,474,471,466,462,457,456,454,452,450,447,439,437,435,434,431,427,425,423,419,416,411,409,406,403,395,384,374,363,349,330,289,267,250,235,219,205,198,193,189,183,174,170,162,156,153,149,145,141,138,135,126,120,107,93],"timestamp_mouse":[10,28,49,68,89,109,128,150,169,189,208,228,249,268,289,308,329,348,368,389,408,428,448,469,489,509,529,549,568,589,609,628,649,668,688,708,729,749,768,788,808,829,848,868,888,908,929,948,968,989,1008,1029,1050,1068,1088,1108,1128,1148,1168,1188,1209,1229,1248,1269,1288,1308,1328,1349,1370,1389,1408,1428,1448,1469,1488,1509,1529,1548,1569,1589,1608,1628,1648,1669,1688,1709,1729,1749,1768,1789,1809,1828,1848],"xSR":741.5,"ySR":469.95,"xT1":424.9,"yT1":0,"xT2":1058.1,"yT2":0,"toosoon":0,"cond_shown":"equaldotanddens","ratio_trial":750,"smaller_num":"15","larger_num":"20","correct_side":2,"subjID":"isabellasanchezvargas6","gender":"1","age":"9","school":"4"},{"start_time":1552074052247,"click_time":1552074053727,"finger_time":1552074052728,"fix_duration":297.0068427456517,"trial":52,"RT":481,"MT":999,"sideResp":2,"stimulus":"img/750/equaldotsize/R/4_Ratio_750_L_15_R_20.png","xmouse":[796,796,796,796,796,796,796,796,796,796,796,796,796,796,796,796,796,796,796,796,799,805,813,822,848,863,877,892,906,946,965,983,1004,1016,1032,1037,1044,1049,1054,1060,1063,1068,1070,1073,1077,1078,1079,1079,1080,1080,1080,1079,1077,1074,1071,1071,1070,1070,1069,1068,1067,1067,1067,1068,1073,1075,1080,1083,1087,1094,1094,1094,1094,1095,1095],"ymouse":[526,526,526,526,526,526,526,526,526,526,526,526,526,526,526,526,526,526,526,527,527,525,522,517,499,488,480,472,463,431,415,398,381,370,353,347,340,333,327,318,314,305,299,293,280,276,272,267,255,241,238,233,227,220,215,214,213,213,212,207,205,200,197,195,184,178,169,162,153,115,107,104,103,101,97],"timestamp_mouse":[10,20,41,60,80,100,122,140,160,181,202,221,241,262,281,300,322,340,361,380,401,421,441,460,481,501,521,542,560,581,601,621,641,661,680,701,721,740,761,780,800,821,840,860,880,901,921,941,960,980,1001,1020,1041,1061,1080,1101,1121,1141,1160,1181,1200,1220,1241,1261,1281,1300,1321,1340,1361,1380,1401,1421,1441,1462,1480],"xSR":741.5,"ySR":469.95,"xT1":424.9,"yT1":0,"xT2":1058.1,"yT2":0,"toosoon":0,"cond_shown":"equaldotsize","ratio_trial":750,"smaller_num":"15","larger_num":"20","correct_side":2,"subjID":"isabellasanchezvargas6","gender":"1","age":"9","school":"4"},{"start_time":1552074056287,"click_time":1552074057609,"finger_time":1552074056847,"fix_duration":1057.9528336564663,"trial":53,"RT":560,"MT":762,"sideResp":2,"stimulus":"img/250/equaldotanddens/R/4_Ratio_250_L_3_R_12.png","xmouse":[781,781,781,781,781,781,781,781,781,781,781,781,781,781,781,781,781,781,781,782,784,786,794,797,802,805,809,828,838,843,846,849,851,851,850,846,841,819,804,792,784,779,777,777,777,777,777,786,799,819,846,873,935,958,982,1018,1042,1086,1095,1099,1102,1105,1107,1107,1108,1110,1110],"ymouse":[526,526,526,526,526,526,526,526,526,526,526,526,526,526,526,526,526,526,526,527,527,527,521,519,515,512,508,483,469,452,436,418,380,364,348,329,307,244,217,201,190,184,182,182,182,182,182,182,182,184,187,195,209,209,209,199,184,147,137,130,126,120,113,110,107,102,94],"timestamp_mouse":[10,20,41,61,80,100,120,140,160,180,201,220,240,260,280,300,321,341,361,381,400,421,441,460,481,500,521,542,560,580,601,620,641,661,681,701,720,741,761,780,800,821,840,861,881,901,921,941,961,981,1001,1020,1040,1061,1081,1101,1120,1140,1160,1180,1200,1220,1240,1260,1280,1301,1321],"xSR":741.5,"ySR":469.95,"xT1":424.9,"yT1":0,"xT2":1058.1,"yT2":0,"toosoon":0,"cond_shown":"equaldotanddens","ratio_trial":250,"smaller_num":"3","larger_num":"12","correct_side":2,"subjID":"isabellasanchezvargas6","gender":"1","age":"9","school":"4"},{"start_time":1552074059643,"click_time":1552074061408,"finger_time":1552074060408,"fix_duration":1015.2266925363097,"trial":54,"RT":765,"MT":1000,"sideResp":1,"stimulus":"img/900/equaldotsize/R/5_Ratio_900_L_9_R_10.png","xmouse":[805,805,805,805,805,805,805,805,805,805,805,805,805,805,805,805,805,805,805,805,805,805,805,805,805,805,805,807,809,810,810,811,811,811,814,816,818,821,826,834,834,835,835,835,835,834,833,831,831,827,824,819,815,810,797,793,787,780,773,769,766,763,756,747,726,715,704,697,691,687,685,684,682,679,669,655,636,626,604,584,576,571,567,563,554,547,539,532,523],"ymouse":[500,500,500,500,500,500,500,500,500,500,500,500,500,500,500,500,500,500,500,500,500,500,500,500,501,501,501,501,499,498,497,497,495,495,489,485,482,474,463,441,434,428,420,414,402,396,386,379,370,349,333,318,304,289,260,248,235,225,213,207,201,193,182,169,146,136,126,122,117,115,115,115,114,113,109,103,91,87,72,58,53,51,48,47,43,40,37,34,34],"timestamp_mouse":[10,24,44,64,84,104,124,145,165,185,205,225,245,264,284,304,324,345,365,384,404,425,446,465,484,504,526,545,565,585,604,624,644,666,685,704,725,744,765,784,805,824,845,864,884,904,925,945,965,984,1004,1024,1044,1065,1084,1104,1125,1144,1165,1184,1205,1225,1245,1265,1284,1305,1324,1345,1364,1384,1405,1425,1445,1465,1485,1505,1525,1545,1565,1584,1605,1624,1645,1665,1685,1705,1725,1745,1765],"xSR":741.5,"ySR":469.95,"xT1":424.9,"yT1":0,"xT2":1058.1,"yT2":0,"toosoon":0,"cond_shown":"equaldotsize","ratio_trial":900,"smaller_num":"9","larger_num":"10","correct_side":2,"subjID":"isabellasanchezvargas6","gender":"1","age":"9","school":"4"},{"start_time":1552074063764,"click_time":1552074064927,"finger_time":1552074064328,"fix_duration":1234.6223821883323,"trial":55,"RT":564,"MT":599,"sideResp":1,"stimulus":"img/250/equaldotsize/L/2_Ratio_250_L_16_R_4.png","xmouse":[773,773,773,773,773,773,773,773,773,775,777,778,778,778,778,778,778,778,781,782,782,782,782,782,784,789,793,795,800,803,805,809,808,798,780,758,731,708,652,643,643,643,643,643,643,643,643,643,643,643,643,643,643,643,643,643,643,643,478],"ymouse":[518,518,518,518,518,518,518,518,518,516,513,513,513,513,513,513,513,513,511,509,509,509,508,508,506,494,485,480,461,442,422,402,335,301,256,207,159,115,28,10,10,10,10,10,10,10,10,10,10,10,10,10,10,10,10,10,10,10,9],"timestamp_mouse":[12,24,43,63,84,103,123,143,163,184,204,223,243,263,284,304,324,343,364,385,405,424,443,464,484,505,524,543,564,585,605,625,645,663,683,703,724,744,763,783,804,823,843,864,883,904,924,944,964,983,1003,1024,1044,1064,1084,1103,1123,1143,1163],"xSR":741.5,"ySR":469.95,"xT1":424.9,"yT1":0,"xT2":1058.1,"yT2":0,"toosoon":0,"cond_shown":"equaldotsize","ratio_trial":250,"smaller_num":"4","larger_num":"16","correct_side":1,"subjID":"isabellasanchezvargas6","gender":"1","age":"9","school":"4"},{"start_time":1552074066898,"click_time":1552074068007,"finger_time":1552074067548,"fix_duration":828.6809827710887,"trial":56,"RT":650,"MT":459,"sideResp":2,"stimulus":"img/750/equaldotanddens/R/15_Ratio_750_L_9_R_12.png","xmouse":[778,778,778,778,778,778,778,778,778,778,778,778,778,778,778,778,778,778,778,778,778,778,778,778,778,778,778,781,784,791,802,826,841,865,886,933,991,1026,1070,1105,1143,1173,1182,1185,1187,1189,1189,1187,1183,1182,1181,1177,1175,1171,1164,1155],"ymouse":[531,531,531,531,531,531,531,531,531,531,531,531,531,531,531,531,531,531,531,531,531,531,531,531,531,531,528,524,520,512,499,472,458,438,416,372,321,293,257,226,195,161,146,134,128,116,92,82,73,70,67,62,61,58,53,48],"timestamp_mouse":[9,44,49,71,90,109,130,149,171,189,209,231,250,271,289,309,329,349,370,391,410,430,450,470,490,510,530,550,570,590,609,630,650,669,689,711,729,750,769,790,810,829,849,870,890,909,929,950,969,989,1010,1029,1051,1070,1089,1109],"xSR":741.5,"ySR":469.95,"xT1":424.9,"yT1":0,"xT2":1058.1,"yT2":0,"toosoon":0,"cond_shown":"equaldotanddens","ratio_trial":750,"smaller_num":"9","larger_num":"12","correct_side":2,"subjID":"isabellasanchezvargas6","gender":"1","age":"9","school":"4"},{"start_time":1552074069795,"click_time":1552074071007,"finger_time":1552074070327,"fix_duration":765.3196807521497,"trial":57,"RT":532,"MT":680,"sideResp":1,"stimulus":"img/900/equaldotsize/L/10_Ratio_900_L_20_R_18.png","xmouse":[780,780,780,780,780,780,780,780,780,780,780,780,780,780,780,780,780,780,780,780,781,782,782,782,782,780,771,767,761,752,740,700,681,665,651,640,631,629,628,626,613,604,593,575,559,546,530,528,528,528,528,528,528,527,527,527,526,526,526,526,524],"ymouse":[495,495,495,495,495,495,495,495,495,495,495,495,495,495,495,495,495,495,495,495,495,495,494,488,481,471,453,443,429,412,388,321,293,273,256,242,229,226,223,218,193,177,160,140,120,105,87,85,85,85,85,85,85,84,84,84,84,84,84,83,82],"timestamp_mouse":[20,42,53,73,93,112,132,153,173,192,213,232,252,273,292,312,333,353,373,393,413,433,453,473,492,512,532,552,573,592,613,633,653,673,693,712,733,752,773,792,814,832,853,872,894,913,933,952,972,992,1012,1033,1053,1072,1093,1114,1133,1152,1173,1192,1212],"xSR":741.5,"ySR":469.95,"xT1":424.9,"yT1":0,"xT2":1058.1,"yT2":0,"toosoon":0,"cond_shown":"equaldotsize","ratio_trial":900,"smaller_num":"18","larger_num":"20","correct_side":1,"subjID":"isabellasanchezvargas6","gender":"1","age":"9","school":"4"},{"start_time":1552074073426,"click_time":1552074074427,"finger_time":1552074074027,"fix_duration":1396.1260703219507,"trial":58,"RT":601,"MT":400,"sideResp":2,"stimulus":"img/250/equaldotsize/R/6_Ratio_250_L_6_R_24.png","xmouse":[787,787,787,787,787,787,788,788,788,788,788,788,788,788,788,788,788,788,788,788,788,788,788,788,789,791,794,798,803,810,847,865,882,900,927,974,1003,1033,1058,1077,1095,1102,1105,1107,1108,1108,1108,1108,1108,1108,1107],"ymouse":[536,536,536,536,536,534,533,533,533,533,533,533,533,533,533,533,533,533,533,533,532,532,530,529,527,522,519,513,507,495,458,440,420,401,377,330,301,275,252,227,191,171,158,146,138,130,128,125,114,106,95],"timestamp_mouse":[9,37,41,62,81,102,122,142,162,181,201,222,243,263,282,302,321,342,362,382,401,422,443,461,481,501,522,542,561,582,601,622,641,661,682,701,721,742,761,781,801,822,842,861,882,902,921,942,962,981,1001],"xSR":741.5,"ySR":469.95,"xT1":424.9,"yT1":0,"xT2":1058.1,"yT2":0,"toosoon":0,"cond_shown":"equaldotsize","ratio_trial":250,"smaller_num":"6","larger_num":"24","correct_side":2,"subjID":"isabellasanchezvargas6","gender":"1","age":"9","school":"4"},{"start_time":1552074075930,"click_time":1552074076969,"finger_time":1552074076507,"fix_duration":400.0692055256231,"trial":59,"RT":577,"MT":462,"sideResp":1,"stimulus":"img/900/randomdotsizeEA/L/10_Ratio_900_L_20_R_18.png","xmouse":[769,769,769,769,769,769,769,769,769,769,769,769,769,769,769,769,769,769,769,769,769,769,770,770,774,775,777,779,781,781,781,779,771,763,752,747,743,736,729,706,691,674,656,633,608,597,587,575,564,539,527,506],"ymouse":[496,496,496,496,496,496,496,496,496,496,496,496,496,496,496,496,496,496,496,496,496,496,497,496,493,490,487,477,463,418,383,353,330,309,291,284,281,274,266,240,223,205,184,156,126,113,98,85,69,35,21,3],"timestamp_mouse":[19,37,57,78,97,117,137,157,177,197,218,238,257,277,298,318,338,357,377,398,417,438,459,478,497,518,538,557,577,598,618,637,659,678,698,717,738,757,777,797,818,838,858,878,897,917,938,958,978,997,1018,1039],"xSR":741.5,"ySR":469.95,"xT1":424.9,"yT1":0,"xT2":1058.1,"yT2":0,"toosoon":0,"cond_shown":"randomdotsizeEA","ratio_trial":900,"smaller_num":"18","larger_num":"20","correct_side":1,"subjID":"isabellasanchezvargas6","gender":"1","age":"9","school":"4"},{"start_time":1552074078380,"click_time":1552074079548,"finger_time":1552074078927,"fix_duration":250,"trial":60,"RT":547,"MT":621,"sideResp":2,"stimulus":"img/900/equaldotsize/R/5_Ratio_900_L_9_R_10.png","xmouse":[766,766,766,766,766,766,766,766,766,766,766,766,766,766,766,766,766,766,766,766,767,768,771,775,779,783,788,800,805,811,817,823,843,853,862,873,887,919,928,943,953,966,992,1000,1006,1012,1017,1026,1030,1035,1040,1046,1053,1054,1055,1055,1057,1058,1059],"ymouse":[516,516,516,516,516,516,516,516,516,516,516,516,516,516,516,516,516,516,516,516,516,516,512,507,499,488,479,459,450,443,434,429,406,395,385,369,349,293,271,242,227,205,169,163,156,149,143,132,126,120,116,113,105,103,102,100,98,96,95],"timestamp_mouse":[12,34,47,68,87,107,127,147,167,188,208,227,247,268,288,307,328,348,368,388,407,427,448,467,488,507,528,547,567,588,607,627,648,667,687,707,728,747,767,788,807,827,847,868,888,907,928,947,968,988,1007,1027,1047,1067,1088,1108,1128,1147,1168],"xSR":741.5,"ySR":469.95,"xT1":424.9,"yT1":0,"xT2":1058.1,"yT2":0,"toosoon":0,"cond_shown":"equaldotsize","ratio_trial":900,"smaller_num":"9","larger_num":"10","correct_side":2,"subjID":"isabellasanchezvargas6","gender":"1","age":"9","school":"4"},{"start_time":1552074081078,"click_time":1552074082447,"finger_time":1552074081747,"fix_duration":250,"trial":61,"RT":669,"MT":700,"sideResp":2,"stimulus":"img/900/equaldotanddens/L/4_Ratio_900_L_20_R_18.png","xmouse":[783,783,783,783,783,783,783,783,783,783,783,783,783,783,783,783,783,783,783,783,783,783,783,783,783,781,780,779,779,779,780,783,795,802,811,824,858,923,955,987,1004,1014,1029,1034,1037,1042,1047,1054,1057,1058,1058,1058,1058,1058,1058,1058,1058,1058,1058,1058,1058,1058,1057,1057,1057,1057,1057,1058,1059],"ymouse":[549,549,549,549,549,549,549,549,549,549,549,549,549,549,549,549,549,549,547,545,544,542,540,538,534,527,525,518,517,515,511,505,481,465,447,416,348,232,173,122,89,67,42,35,28,22,15,3,1,0,0,0,0,0,0,0,0,0,0,0,0,2,11,14,17,19,21,27,29],"timestamp_mouse":[12,35,49,70,89,109,130,149,169,190,210,229,249,269,289,310,330,350,369,390,410,430,450,469,489,510,529,550,570,589,610,630,649,669,690,709,730,749,769,790,809,829,850,870,890,909,929,950,970,990,1009,1030,1049,1070,1089,1109,1130,1149,1169,1189,1210,1230,1249,1270,1289,1310,1329,1349,1369],"xSR":741.5,"ySR":469.95,"xT1":424.9,"yT1":0,"xT2":1058.1,"yT2":0,"toosoon":0,"cond_shown":"equaldotanddens","ratio_trial":900,"smaller_num":"18","larger_num":"20","correct_side":1,"subjID":"isabellasanchezvargas6","gender":"1","age":"9","school":"4"},{"start_time":1552074084378,"click_time":1552074085648,"finger_time":1552074085048,"fix_duration":749.9800432325038,"trial":62,"RT":670,"MT":600,"sideResp":2,"stimulus":"img/500/equaldotsize/R/15_Ratio_500_L_1_R_2.png","xmouse":[776,776,776,776,776,776,776,776,776,776,776,776,776,776,776,776,776,776,776,776,776,776,776,776,776,776,776,776,776,777,779,781,792,798,816,830,853,889,911,939,959,992,1034,1063,1083,1098,1108,1117,1121,1125,1126,1127,1129,1130,1130,1130,1131,1132,1132,1133,1133,1133,1135,1138],"ymouse":[516,516,516,516,516,516,516,516,516,516,516,516,516,516,516,516,516,516,516,516,515,514,509,507,506,506,506,506,505,503,497,491,471,459,437,414,388,344,325,305,289,264,232,216,206,200,192,184,179,173,171,168,158,155,152,149,147,143,139,136,134,130,108,94],"timestamp_mouse":[20