[{"start_time":1552054121125,"click_time":1552054125001,"finger_time":1552054124580,"fix_duration":1298.4915163181668,"trial":0,"RT":3455,"MT":421,"sideResp":1,"stimulus":[],"xmouse":[799,799,799,799,799,799,799,799,799,799,799,799,799,799,799,799,799,799,799,799,799,799,799,799,799,799,799,799,799,799,799,799,799,799,799,799,799,799,799,799,799,799,799,799,799,799,799,799,799,799,799,799,799,799,799,799,799,799,799,799,799,799,799,799,799,799,799,799,799,799,799,799,799,799,799,799,799,799,799,799,799,799,799,799,799,799,799,799,799,799,799,799,799,799,799,799,799,799,799,799,799,799,799,799,799,799,799,799,799,799,799,799,799,799,799,799,799,799,799,799,799,799,799,799,799,799,799,799,799,799,799,799,799,799,799,799,799,799,799,799,799,799,799,799,799,799,799,799,799,799,799,799,799,799,799,799,799,799,799,799,799,799,799,799,799,799,800,802,807,816,819,819,816,778,758,742,731,717,716,715,713,710,702,701,700,695,686,653,614,591,570,556,530,514,500],"ymouse":[549,549,549,549,549,549,549,549,549,549,549,549,549,549,549,549,549,549,549,549,549,549,549,549,549,549,549,549,549,549,549,549,549,549,549,549,549,549,549,549,549,549,549,549,549,549,549,549,549,549,549,549,549,549,549,549,549,549,549,549,549,549,549,549,549,549,549,549,549,549,549,549,549,549,549,549,549,549,549,549,549,549,549,549,549,549,549,549,549,549,549,549,549,549,549,549,549,549,549,549,549,549,549,549,549,549,549,549,549,549,549,549,549,549,549,549,549,549,549,549,549,549,549,549,549,549,549,549,549,549,549,549,549,549,549,549,549,549,549,549,549,549,549,549,549,549,549,549,549,549,549,549,549,549,549,549,549,549,549,549,549,549,549,549,549,549,541,529,519,510,506,502,481,340,275,244,227,213,211,209,205,194,176,175,174,174,173,161,145,135,126,120,109,102,96],"timestamp_mouse":[0,15,50,55,76,96,115,136,155,175,196,216,236,255,276,296,315,336,355,375,396,416,436,456,475,495,516,536,555,575,596,616,635,656,675,696,717,736,756,776,796,815,837,855,875,895,915,936,955,976,995,1015,1035,1055,1075,1096,1115,1137,1156,1175,1196,1216,1235,1255,1275,1295,1316,1335,1355,1376,1395,1415,1436,1456,1475,1497,1515,1536,1555,1576,1596,1615,1635,1656,1675,1696,1715,1735,1755,1775,1795,1816,1835,1855,1876,1896,1916,1936,1955,1976,1995,2015,2036,2055,2076,2095,2115,2135,2155,2176,2195,2216,2235,2256,2275,2296,2316,2337,2356,2375,2396,2415,2435,2455,2475,2496,2515,2535,2556,2576,2596,2616,2635,2656,2675,2696,2717,2735,2755,2776,2795,2815,2835,2856,2875,2895,2916,2936,2955,2976,2995,3016,3035,3055,3076,3095,3115,3135,3155,3175,3196,3216,3235,3256,3275,3295,3315,3335,3355,3375,3395,3415,3435,3455,3475,3495,3515,3536,3555,3575,3595,3615,3636,3656,3675,3695,3717,3736,3755,3775,3795,3815,3836,3855,3875],"xSR":741.5,"ySR":501.8,"xT1":424.9,"yT1":0,"xT2":1058.1,"yT2":0,"toosoon":0,"cond_shown":"Congruent","ratio_trial":200,"L_num":3,"L_den":6,"R_num":14,"R_den":20,"correct_side":2,"subjID":"ivonnensandoval22","gender":"1","age":"10","school":"4","test":{"fix_dur":[250,1500],"timestim":1000,"targets_dim":[100,100],"targets_relative_coord":[0.3,0.7],"size_stim":[880,420],"start_dim":[100,100],"size_start":[300,300],"size_fix":60,"samplingrate":20,"img_types":["Congruent","Incongruent"],"ratios":[100,200,300],"rep_conds":19,"nTrials":120,"trials_to_rest":500,"Trials_order":[80,24,91,54,35,21,101,28,66,78,92,43,111,30,119,19,110,5,58,34,42,8,10,61,59,87,17,94,71,40,44,0,100,41,118,6,48,93,96,109,52,63,64,103,77,67,11,12,14,73,112,53,85,82,46,106,31,68,102,113,97,88,3,57,74,60,56,89,7,117,47,26,27,115,20,75,49,15,62,4,16,9,33,37,38,39,99,72,114,22,84,104,98,13,90,51,116,107,23,25,81,105,36,50,1,2,76,55,69,83,29,108,45,70,79,32,95,18,86,65],"cond_shown":["Congruent","Congruent","Incongruent","Congruent","Incongruent","Incongruent","Incongruent","Congruent","Congruent","Congruent","Congruent","Incongruent","Incongruent","Congruent","Incongruent","Incongruent","Congruent","Incongruent","Congruent","Congruent","Congruent","Congruent","Congruent","Incongruent","Incongruent","Incongruent","Incongruent","Congruent","Incongruent","Congruent","Congruent","Congruent","Congruent","Incongruent","Congruent","Congruent","Congruent","Incongruent","Congruent","Incongruent","Congruent","Incongruent","Congruent","Incongruent","Incongruent","Incongruent","Incongruent","Congruent","Congruent","Incongruent","Congruent","Incongruent","Incongruent","Congruent","Congruent","Congruent","Incongruent","Congruent","Congruent","Incongruent","Incongruent","Congruent","Incongruent","Incongruent","Congruent","Congruent","Congruent","Incongruent","Incongruent","Incongruent","Incongruent","Congruent","Incongruent","Incongruent","Congruent","Incongruent","Incongruent","Incongruent","Congruent","Congruent","Congruent","Incongruent","Incongruent","Incongruent","Congruent","Incongruent","Incongruent","Congruent","Congruent","Congruent","Congruent","Congruent","Congruent","Incongruent","Congruent","Incongruent","Congruent","Incongruent","Incongruent","Incongruent","Incongruent","Incongruent","Congruent","Congruent","Incongruent","Congruent","Congruent","Incongruent","Incongruent","Incongruent","Incongruent","Congruent","Incongruent","Congruent","Incongruent","Congruent","Incongruent","Congruent","Congruent","Incongruent"],"ratio_trial":[200,100,100,100,300,200,300,300,100,100,200,100,200,100,300,100,200,300,300,300,100,200,300,100,300,200,300,300,300,300,200,100,300,300,300,100,100,200,100,100,300,200,300,100,300,100,300,100,200,100,300,300,100,300,300,300,100,200,100,300,100,300,200,200,200,100,200,300,100,200,300,200,200,100,200,200,100,200,200,300,300,200,200,100,200,200,200,100,100,300,100,200,200,100,100,200,200,300,300,100,200,200,100,200,100,200,300,100,200,300,300,100,200,300,100,200,300,100,200,300],"left_num":[3,4,3,2,4,4,1,5,10,8,9,13,7,8,4,6,3,4,20,24,15,13,1,6,4,1,4,20,13,8,3,11,2,1,1,6,6,7,11,10,3,14,4,9,4,13,13,7,3,10,9,1,6,8,1,20,6,3,3,4,12,5,4,1,16,10,8,4,2,3,1,3,7,4,13,11,13,4,6,1,4,7,7,9,13,1,1,12,7,3,10,12,21,11,3,14,3,13,13,11,9,7,12,8,1,21,20,9,7,4,4,4,7,11,2,7,4,11,9,7],"right_num":[14,6,8,6,6,1,3,7,3,2,13,12,12,2,2,3,14,2,9,8,13,14,11,13,8,2,8,9,12,1,14,6,12,2,8,5,5,8,6,8,4,12,13,14,2,6,12,9,7,8,3,2,3,10,3,14,13,7,4,2,2,6,1,3,12,3,2,2,8,1,2,14,4,8,14,3,12,6,11,6,1,12,12,6,14,2,3,13,9,2,3,6,2,9,4,12,14,12,12,9,8,8,13,3,8,2,9,20,12,2,2,15,14,4,6,2,2,4,13,8],"left_den":[6,8,5,5,5,30,2,25,25,16,30,26,10,16,20,12,6,20,25,30,25,26,5,10,5,3,5,25,26,16,10,22,10,2,30,20,20,10,22,25,6,30,20,15,20,26,26,14,10,25,10,2,12,15,5,25,10,10,20,20,30,25,30,2,20,25,15,20,4,10,2,10,15,8,26,20,26,5,20,5,10,10,10,18,26,3,2,30,14,6,25,20,30,22,20,30,6,26,26,22,15,10,30,15,2,30,25,10,10,20,20,10,10,22,4,21,20,22,30,10],"right_den":[20,10,16,12,12,3,15,14,10,5,26,20,24,5,4,5,20,4,18,16,26,20,22,26,16,15,16,18,15,5,28,15,24,10,24,25,25,16,15,16,5,18,26,28,4,10,15,15,14,16,5,10,5,12,6,28,26,14,16,4,4,12,3,10,20,10,6,4,20,2,10,28,6,20,20,4,20,10,22,12,10,24,24,10,20,15,10,26,15,10,10,15,4,15,16,18,20,15,15,15,10,16,26,9,20,4,18,25,24,4,4,30,28,20,15,15,4,10,26,20],"correct_side":[2,2,1,2,1,2,1,2,1,1,2,2,1,1,2,2,2,2,1,1,1,2,2,1,1,1,1,1,2,1,2,1,2,1,2,1,1,1,1,2,2,2,2,1,2,2,2,2,2,2,1,1,2,2,2,1,1,2,2,2,2,2,2,1,1,1,1,2,1,2,1,2,2,1,2,2,2,1,2,2,1,1,1,2,2,1,1,2,2,1,1,1,1,2,2,2,2,2,2,2,2,1,2,1,1,1,1,1,1,2,2,2,1,1,1,1,2,1,2,1],"img_shown":["img2/200/Congruent/R/C_Dist_200_LN_3_LD_6_RN_14_RD_20_1.png","img2/100/Congruent/R/C_Dist_100_LN_4_LD_8_RN_6_RD_10_1.png","img2/100/Incongruent/L/I_Dist_100_LN_3_LD_5_RN_8_RD_16_0.png","img2/100/Congruent/R/C_Dist_100_LN_2_LD_5_RN_6_RD_12_1.png","img2/300/Incongruent/L/I_Dist_300_LN_4_LD_5_RN_6_RD_12_0.png","img2/200/Incongruent/R/I_Dist_200_LN_4_LD_30_RN_1_RD_3_1.png","img2/300/Incongruent/L/I_Dist_300_LN_1_LD_2_RN_3_RD_15_0.png","img2/300/Congruent/R/C_Dist_300_LN_5_LD_25_RN_7_RD_14_1.png","img2/100/Congruent/L/C_Dist_100_LN_10_LD_25_RN_3_RD_10_0.png","img2/100/Congruent/L/C_Dist_100_LN_8_LD_16_RN_2_RD_5_0.png","img2/200/Congruent/R/C_Dist_200_LN_9_LD_30_RN_13_RD_26_1.png","img2/100/Incongruent/R/I_Dist_100_LN_13_LD_26_RN_12_RD_20_1.png","img2/200/Incongruent/L/I_Dist_200_LN_7_LD_10_RN_12_RD_24_0.png","img2/100/Congruent/L/C_Dist_100_LN_8_LD_16_RN_2_RD_5_0.png","img2/300/Incongruent/R/I_Dist_300_LN_4_LD_20_RN_2_RD_4_1.png","img2/100/Incongruent/R/I_Dist_100_LN_6_LD_12_RN_3_RD_5_1.png","img2/200/Congruent/R/C_Dist_200_LN_3_LD_6_RN_14_RD_20_1.png","img2/300/Incongruent/R/I_Dist_300_LN_4_LD_20_RN_2_RD_4_1.png","img2/300/Congruent/L/C_Dist_300_LN_20_LD_25_RN_9_RD_18_0.png","img2/300/Congruent/L/C_Dist_300_LN_24_LD_30_RN_8_RD_16_0.png","img2/100/Congruent/L/C_Dist_100_LN_15_LD_25_RN_13_RD_26_0.png","img2/200/Congruent/R/C_Dist_200_LN_13_LD_26_RN_14_RD_20_1.png","img2/300/Congruent/R/C_Dist_300_LN_1_LD_5_RN_11_RD_22_1.png","img2/100/Incongruent/L/I_Dist_100_LN_6_LD_10_RN_13_RD_26_0.png","img2/300/Incongruent/L/I_Dist_300_LN_4_LD_5_RN_8_RD_16_0.png","img2/200/Incongruent/L/I_Dist_200_LN_1_LD_3_RN_2_RD_15_0.png","img2/300/Incongruent/L/I_Dist_300_LN_4_LD_5_RN_8_RD_16_0.png","img2/300/Congruent/L/C_Dist_300_LN_20_LD_25_RN_9_RD_18_0.png","img2/300/Incongruent/R/I_Dist_300_LN_13_LD_26_RN_12_RD_15_1.png","img2/300/Congruent/L/C_Dist_300_LN_8_LD_16_RN_1_RD_5_0.png","img2/200/Congruent/R/C_Dist_200_LN_3_LD_10_RN_14_RD_28_1.png","img2/100/Congruent/L/C_Dist_100_LN_11_LD_22_RN_6_RD_15_0.png","img2/300/Congruent/R/C_Dist_300_LN_2_LD_10_RN_12_RD_24_1.png","img2/300/Incongruent/L/I_Dist_300_LN_1_LD_2_RN_2_RD_10_0.png","img2/300/Congruent/R/C_Dist_300_LN_1_LD_30_RN_8_RD_24_1.png","img2/100/Congruent/L/C_Dist_100_LN_6_LD_20_RN_5_RD_25_0.png","img2/100/Congruent/L/C_Dist_100_LN_6_LD_20_RN_5_RD_25_0.png","img2/200/Incongruent/L/I_Dist_200_LN_7_LD_10_RN_8_RD_16_0.png","img2/100/Congruent/L/C_Dist_100_LN_11_LD_22_RN_6_RD_15_0.png","img2/100/Incongruent/R/I_Dist_100_LN_10_LD_25_RN_8_RD_16_1.png","img2/300/Congruent/R/C_Dist_300_LN_3_LD_6_RN_4_RD_5_1.png","img2/200/Incongruent/R/I_Dist_200_LN_14_LD_30_RN_12_RD_18_1.png","img2/300/Congruent/R/C_Dist_300_LN_4_LD_20_RN_13_RD_26_1.png","img2/100/Incongruent/L/I_Dist_100_LN_9_LD_15_RN_14_RD_28_0.png","img2/300/Incongruent/R/I_Dist_300_LN_4_LD_20_RN_2_RD_4_1.png","img2/100/Incongruent/R/I_Dist_100_LN_13_LD_26_RN_6_RD_10_1.png","img2/300/Incongruent/R/I_Dist_300_LN_13_LD_26_RN_12_RD_15_1.png","img2/100/Congruent/R/C_Dist_100_LN_7_LD_14_RN_9_RD_15_1.png","img2/200/Congruent/R/C_Dist_200_LN_3_LD_10_RN_7_RD_14_1.png","img2/100/Incongruent/R/I_Dist_100_LN_10_LD_25_RN_8_RD_16_1.png","img2/300/Congruent/L/C_Dist_300_LN_9_LD_10_RN_3_RD_5_0.png","img2/300/Incongruent/L/I_Dist_300_LN_1_LD_2_RN_2_RD_10_0.png","img2/100/Incongruent/R/I_Dist_100_LN_6_LD_12_RN_3_RD_5_1.png","img2/300/Congruent/R/C_Dist_300_LN_8_LD_15_RN_10_RD_12_1.png","img2/300/Congruent/R/C_Dist_300_LN_1_LD_5_RN_3_RD_6_1.png","img2/300/Congruent/L/C_Dist_300_LN_20_LD_25_RN_14_RD_28_0.png","img2/100/Incongruent/L/I_Dist_100_LN_6_LD_10_RN_13_RD_26_0.png","img2/200/Congruent/R/C_Dist_200_LN_3_LD_10_RN_7_RD_14_1.png","img2/100/Congruent/R/C_Dist_100_LN_3_LD_20_RN_4_RD_16_1.png","img2/300/Incongruent/R/I_Dist_300_LN_4_LD_20_RN_2_RD_4_1.png","img2/100/Incongruent/R/I_Dist_100_LN_12_LD_30_RN_2_RD_4_1.png","img2/300/Congruent/R/C_Dist_300_LN_5_LD_25_RN_6_RD_12_1.png","img2/200/Incongruent/R/I_Dist_200_LN_4_LD_30_RN_1_RD_3_1.png","img2/200/Incongruent/L/I_Dist_200_LN_1_LD_2_RN_3_RD_10_0.png","img2/200/Congruent/L/C_Dist_200_LN_16_LD_20_RN_12_RD_20_0.png","img2/100/Congruent/L/C_Dist_100_LN_10_LD_25_RN_3_RD_10_0.png","img2/200/Congruent/L/C_Dist_200_LN_8_LD_15_RN_2_RD_6_0.png","img2/300/Incongruent/R/I_Dist_300_LN_4_LD_20_RN_2_RD_4_1.png","img2/100/Incongruent/L/I_Dist_100_LN_2_LD_4_RN_8_RD_20_0.png","img2/200/Incongruent/R/I_Dist_200_LN_3_LD_10_RN_1_RD_2_1.png","img2/300/Incongruent/L/I_Dist_300_LN_1_LD_2_RN_2_RD_10_0.png","img2/200/Congruent/R/C_Dist_200_LN_3_LD_10_RN_14_RD_28_1.png","img2/200/Incongruent/R/I_Dist_200_LN_7_LD_15_RN_4_RD_6_1.png","img2/100/Incongruent/L/I_Dist_100_LN_4_LD_8_RN_8_RD_20_0.png","img2/200/Congruent/R/C_Dist_200_LN_13_LD_26_RN_14_RD_20_1.png","img2/200/Incongruent/R/I_Dist_200_LN_11_LD_20_RN_3_RD_4_1.png","img2/100/Incongruent/R/I_Dist_100_LN_13_LD_26_RN_12_RD_20_1.png","img2/200/Incongruent/L/I_Dist_200_LN_4_LD_5_RN_6_RD_10_0.png","img2/200/Congruent/R/C_Dist_200_LN_6_LD_20_RN_11_RD_22_1.png","img2/300/Congruent/R/C_Dist_300_LN_1_LD_5_RN_6_RD_12_1.png","img2/300/Congruent/L/C_Dist_300_LN_4_LD_10_RN_1_RD_10_0.png","img2/200/Incongruent/L/I_Dist_200_LN_7_LD_10_RN_12_RD_24_0.png","img2/200/Incongruent/L/I_Dist_200_LN_7_LD_10_RN_12_RD_24_0.png","img2/100/Incongruent/R/I_Dist_100_LN_9_LD_18_RN_6_RD_10_1.png","img2/200/Congruent/R/C_Dist_200_LN_13_LD_26_RN_14_RD_20_1.png","img2/200/Incongruent/L/I_Dist_200_LN_1_LD_3_RN_2_RD_15_0.png","img2/200/Incongruent/L/I_Dist_200_LN_1_LD_2_RN_3_RD_10_0.png","img2/100/Congruent/R/C_Dist_100_LN_12_LD_30_RN_13_RD_26_1.png","img2/100/Congruent/R/C_Dist_100_LN_7_LD_14_RN_9_RD_15_1.png","img2/300/Congruent/L/C_Dist_300_LN_3_LD_6_RN_2_RD_10_0.png","img2/100/Congruent/L/C_Dist_100_LN_10_LD_25_RN_3_RD_10_0.png","img2/200/Congruent/L/C_Dist_200_LN_12_LD_20_RN_6_RD_15_0.png","img2/200/Congruent/L/C_Dist_200_LN_21_LD_30_RN_2_RD_4_0.png","img2/100/Incongruent/R/I_Dist_100_LN_11_LD_22_RN_9_RD_15_1.png","img2/100/Congruent/R/C_Dist_100_LN_3_LD_20_RN_4_RD_16_1.png","img2/200/Incongruent/R/I_Dist_200_LN_14_LD_30_RN_12_RD_18_1.png","img2/200/Congruent/R/C_Dist_200_LN_3_LD_6_RN_14_RD_20_1.png","img2/300/Incongruent/R/I_Dist_300_LN_13_LD_26_RN_12_RD_15_1.png","img2/300/Incongruent/R/I_Dist_300_LN_13_LD_26_RN_12_RD_15_1.png","img2/100/Incongruent/R/I_Dist_100_LN_11_LD_22_RN_9_RD_15_1.png","img2/200/Incongruent/R/I_Dist_200_LN_9_LD_15_RN_8_RD_10_1.png","img2/200/Incongruent/L/I_Dist_200_LN_7_LD_10_RN_8_RD_16_0.png","img2/100/Congruent/R/C_Dist_100_LN_12_LD_30_RN_13_RD_26_1.png","img2/200/Congruent/L/C_Dist_200_LN_8_LD_15_RN_3_RD_9_0.png","img2/100/Incongruent/L/I_Dist_100_LN_1_LD_2_RN_8_RD_20_0.png","img2/200/Congruent/L/C_Dist_200_LN_21_LD_30_RN_2_RD_4_0.png","img2/300/Congruent/L/C_Dist_300_LN_20_LD_25_RN_9_RD_18_0.png","img2/100/Incongruent/L/I_Dist_100_LN_9_LD_10_RN_20_RD_25_0.png","img2/200/Incongruent/L/I_Dist_200_LN_7_LD_10_RN_12_RD_24_0.png","img2/300/Incongruent/R/I_Dist_300_LN_4_LD_20_RN_2_RD_4_1.png","img2/300/Incongruent/R/I_Dist_300_LN_4_LD_20_RN_2_RD_4_1.png","img2/100/Congruent/R/C_Dist_100_LN_4_LD_10_RN_15_RD_30_1.png","img2/200/Incongruent/L/I_Dist_200_LN_7_LD_10_RN_14_RD_28_0.png","img2/300/Congruent/L/C_Dist_300_LN_11_LD_22_RN_4_RD_20_0.png","img2/100/Incongruent/L/I_Dist_100_LN_2_LD_4_RN_6_RD_15_0.png","img2/200/Congruent/L/C_Dist_200_LN_7_LD_21_RN_2_RD_15_0.png","img2/300/Incongruent/R/I_Dist_300_LN_4_LD_20_RN_2_RD_4_1.png","img2/100/Congruent/L/C_Dist_100_LN_11_LD_22_RN_4_RD_10_0.png","img2/200/Congruent/R/C_Dist_200_LN_9_LD_30_RN_13_RD_26_1.png","img2/300/Incongruent/L/I_Dist_300_LN_7_LD_10_RN_8_RD_20_0.png"],"dist100_C":[["C_Dist_100_LN_10_LD_25_RN_3_RD_10_0.png","C_Dist_100_LN_11_LD_22_RN_4_RD_10_0.png","C_Dist_100_LN_11_LD_22_RN_6_RD_15_0.png","C_Dist_100_LN_15_LD_25_RN_13_RD_26_0.png","C_Dist_100_LN_3_LD_6_RN_2_RD_5_0.png","C_Dist_100_LN_6_LD_20_RN_5_RD_25_0.png","C_Dist_100_LN_8_LD_16_RN_2_RD_5_0.png","C_Dist_100_LN_9_LD_15_RN_8_RD_16_0.png"],["C_Dist_100_LN_1_LD_2_RN_18_RD_30_1.png","C_Dist_100_LN_1_LD_2_RN_3_RD_5_1.png","C_Dist_100_LN_12_LD_30_RN_13_RD_26_1.png","C_Dist_100_LN_2_LD_5_RN_11_RD_22_1.png","C_Dist_100_LN_2_LD_5_RN_6_RD_12_1.png","C_Dist_100_LN_3_LD_20_RN_4_RD_16_1.png","C_Dist_100_LN_4_LD_10_RN_15_RD_30_1.png","C_Dist_100_LN_4_LD_8_RN_6_RD_10_1.png","C_Dist_100_LN_6_LD_12_RN_15_RD_25_1.png","C_Dist_100_LN_7_LD_14_RN_15_RD_25_1.png","C_Dist_100_LN_7_LD_14_RN_9_RD_15_1.png"]],"dist100_I":[["I_Dist_100_LN_1_LD_2_RN_8_RD_20_0.png","I_Dist_100_LN_2_LD_4_RN_6_RD_15_0.png","I_Dist_100_LN_2_LD_4_RN_8_RD_20_0.png","I_Dist_100_LN_3_LD_5_RN_11_RD_22_0.png","I_Dist_100_LN_3_LD_5_RN_8_RD_16_0.png","I_Dist_100_LN_3_LD_6_RN_4_RD_10_0.png","I_Dist_100_LN_3_LD_9_RN_7_RD_30_0.png","I_Dist_100_LN_4_LD_8_RN_8_RD_20_0.png","I_Dist_100_LN_6_LD_10_RN_11_RD_22_0.png","I_Dist_100_LN_6_LD_10_RN_13_RD_26_0.png","I_Dist_100_LN_6_LD_10_RN_7_RD_14_0.png","I_Dist_100_LN_9_LD_10_RN_20_RD_25_0.png","I_Dist_100_LN_9_LD_15_RN_13_RD_26_0.png","I_Dist_100_LN_9_LD_15_RN_14_RD_28_0.png"],["I_Dist_100_LN_10_LD_25_RN_8_RD_16_1.png","I_Dist_100_LN_10_LD_25_RN_9_RD_18_1.png","I_Dist_100_LN_11_LD_22_RN_9_RD_15_1.png","I_Dist_100_LN_12_LD_24_RN_9_RD_15_1.png","I_Dist_100_LN_12_LD_30_RN_2_RD_4_1.png","I_Dist_100_LN_13_LD_26_RN_12_RD_20_1.png","I_Dist_100_LN_13_LD_26_RN_6_RD_10_1.png","I_Dist_100_LN_17_LD_30_RN_10_RD_15_1.png","I_Dist_100_LN_6_LD_12_RN_3_RD_5_1.png","I_Dist_100_LN_8_LD_16_RN_6_RD_10_1.png","I_Dist_100_LN_8_LD_20_RN_1_RD_2_1.png","I_Dist_100_LN_9_LD_18_RN_6_RD_10_1.png"]],"dist100_S":[["E_Dist_100_LN_2_LD_12_RN_2_RD_30_0.png","E_Dist_100_LN_6_LD_10_RN_6_RD_12_0.png"],["E_Dist_100_LN_6_LD_12_RN_6_RD_10_1.png"]],"dist200_C":[["C_Dist_200_LN_11_LD_22_RN_3_RD_10_0.png","C_Dist_200_LN_12_LD_15_RN_6_RD_10_0.png","C_Dist_200_LN_12_LD_20_RN_6_RD_15_0.png","C_Dist_200_LN_14_LD_28_RN_6_RD_20_0.png","C_Dist_200_LN_15_LD_25_RN_4_RD_10_0.png","C_Dist_200_LN_16_LD_20_RN_12_RD_20_0.png","C_Dist_200_LN_16_LD_30_RN_9_RD_27_0.png","C_Dist_200_LN_20_LD_25_RN_9_RD_15_0.png","C_Dist_200_LN_21_LD_30_RN_2_RD_4_0.png","C_Dist_200_LN_4_LD_10_RN_3_RD_15_0.png","C_Dist_200_LN_4_LD_8_RN_3_RD_10_0.png","C_Dist_200_LN_6_LD_15_RN_3_RD_15_0.png","C_Dist_200_LN_7_LD_21_RN_2_RD_15_0.png","C_Dist_200_LN_8_LD_15_RN_2_RD_6_0.png","C_Dist_200_LN_8_LD_15_RN_3_RD_9_0.png","C_Dist_200_LN_8_LD_15_RN_7_RD_21_0.png","C_Dist_200_LN_9_LD_20_RN_4_RD_16_0.png"],["C_Dist_200_LN_1_LD_2_RN_21_RD_30_1.png","C_Dist_200_LN_13_LD_26_RN_14_RD_20_1.png","C_Dist_200_LN_3_LD_10_RN_11_RD_22_1.png","C_Dist_200_LN_3_LD_10_RN_14_RD_28_1.png","C_Dist_200_LN_3_LD_10_RN_7_RD_14_1.png","C_Dist_200_LN_3_LD_12_RN_9_RD_20_1.png","C_Dist_200_LN_3_LD_6_RN_14_RD_20_1.png","C_Dist_200_LN_5_LD_10_RN_14_RD_20_1.png","C_Dist_200_LN_6_LD_12_RN_7_RD_10_1.png","C_Dist_200_LN_6_LD_20_RN_11_RD_22_1.png","C_Dist_200_LN_7_LD_15_RN_18_RD_27_1.png","C_Dist_200_LN_9_LD_30_RN_13_RD_26_1.png"]],"dist200_I":[["I_Dist_200_LN_1_LD_2_RN_3_RD_10_0.png","I_Dist_200_LN_1_LD_3_RN_2_RD_15_0.png","I_Dist_200_LN_3_LD_4_RN_11_RD_20_0.png","I_Dist_200_LN_4_LD_5_RN_6_RD_10_0.png","I_Dist_200_LN_4_LD_6_RN_14_RD_30_0.png","I_Dist_200_LN_7_LD_10_RN_12_RD_24_0.png","I_Dist_200_LN_7_LD_10_RN_14_RD_28_0.png","I_Dist_200_LN_7_LD_10_RN_8_RD_16_0.png"],["I_Dist_200_LN_11_LD_20_RN_3_RD_4_1.png","I_Dist_200_LN_14_LD_30_RN_12_RD_18_1.png","I_Dist_200_LN_14_LD_30_RN_6_RD_9_1.png","I_Dist_200_LN_3_LD_10_RN_1_RD_2_1.png","I_Dist_200_LN_4_LD_30_RN_1_RD_3_1.png","I_Dist_200_LN_6_LD_20_RN_3_RD_6_1.png","I_Dist_200_LN_7_LD_15_RN_4_RD_6_1.png","I_Dist_200_LN_7_LD_15_RN_6_RD_9_1.png","I_Dist_200_LN_9_LD_15_RN_8_RD_10_1.png"]],"dist200_S":[["E_Dist_200_LN_3_LD_6_RN_3_RD_10_0.png"],["E_Dist_200_LN_3_LD_10_RN_3_RD_6_1.png"]],"dist300_C":[["C_Dist_300_LN_11_LD_22_RN_1_RD_5_0.png","C_Dist_300_LN_11_LD_22_RN_2_RD_10_0.png","C_Dist_300_LN_11_LD_22_RN_4_RD_20_0.png","C_Dist_300_LN_12_LD_24_RN_2_RD_10_0.png","C_Dist_300_LN_18_LD_20_RN_9_RD_15_0.png","C_Dist_300_LN_20_LD_25_RN_13_RD_26_0.png","C_Dist_300_LN_20_LD_25_RN_14_RD_28_0.png","C_Dist_300_LN_20_LD_25_RN_5_RD_10_0.png","C_Dist_300_LN_20_LD_25_RN_8_RD_16_0.png","C_Dist_300_LN_20_LD_25_RN_9_RD_18_0.png","C_Dist_300_LN_24_LD_30_RN_2_RD_4_0.png","C_Dist_300_LN_24_LD_30_RN_8_RD_16_0.png","C_Dist_300_LN_3_LD_6_RN_2_RD_10_0.png","C_Dist_300_LN_4_LD_10_RN_1_RD_10_0.png","C_Dist_300_LN_4_LD_5_RN_2_RD_4_0.png","C_Dist_300_LN_8_LD_16_RN_1_RD_5_0.png","C_Dist_300_LN_9_LD_10_RN_3_RD_5_0.png"],["C_Dist_300_LN_1_LD_20_RN_7_RD_20_1.png","C_Dist_300_LN_1_LD_3_RN_19_RD_30_1.png","C_Dist_300_LN_1_LD_30_RN_8_RD_24_1.png","C_Dist_300_LN_1_LD_5_RN_11_RD_22_1.png","C_Dist_300_LN_1_LD_5_RN_3_RD_6_1.png","C_Dist_300_LN_1_LD_5_RN_6_RD_12_1.png","C_Dist_300_LN_2_LD_10_RN_12_RD_24_1.png","C_Dist_300_LN_2_LD_20_RN_10_RD_25_1.png","C_Dist_300_LN_3_LD_12_RN_11_RD_20_1.png","C_Dist_300_LN_3_LD_6_RN_4_RD_5_1.png","C_Dist_300_LN_4_LD_20_RN_13_RD_26_1.png","C_Dist_300_LN_5_LD_25_RN_6_RD_12_1.png","C_Dist_300_LN_5_LD_25_RN_7_RD_14_1.png","C_Dist_300_LN_7_LD_14_RN_20_RD_25_1.png","C_Dist_300_LN_8_LD_15_RN_10_RD_12_1.png"]],"dist300_I":[["I_Dist_300_LN_1_LD_2_RN_2_RD_10_0.png","I_Dist_300_LN_1_LD_2_RN_3_RD_15_0.png","I_Dist_300_LN_2_LD_4_RN_6_RD_30_0.png","I_Dist_300_LN_3_LD_6_RN_4_RD_20_0.png","I_Dist_300_LN_4_LD_5_RN_6_RD_12_0.png","I_Dist_300_LN_4_LD_5_RN_8_RD_16_0.png","I_Dist_300_LN_7_LD_10_RN_8_RD_20_0.png","I_Dist_300_LN_8_LD_10_RN_14_RD_28_0.png","I_Dist_300_LN_8_LD_10_RN_9_RD_18_0.png"],["I_Dist_300_LN_13_LD_26_RN_12_RD_15_1.png","I_Dist_300_LN_4_LD_20_RN_2_RD_4_1.png"]],"dist300_S":[["E_Dist_300_LN_9_LD_12_RN_9_RD_20_0.png"],["E_Dist_300_LN_18_LD_30_RN_18_RD_20_1.png","E_Dist_300_LN_3_LD_10_RN_3_RD_5_1.png","E_Dist_300_LN_9_LD_20_RN_9_RD_12_1.png"]],"dist500_C":[["C_Dist_500_LN_10_LD_13_RN_7_RD_26_0.png","C_Dist_500_LN_10_LD_15_RN_4_RD_24_0.png","C_Dist_500_LN_12_LD_16_RN_3_RD_12_0.png","C_Dist_500_LN_12_LD_18_RN_4_RD_24_0.png","C_Dist_500_LN_15_LD_18_RN_5_RD_15_0.png","C_Dist_500_LN_15_LD_20_RN_1_RD_4_0.png","C_Dist_500_LN_18_LD_27_RN_1_RD_6_0.png","C_Dist_500_LN_20_LD_24_RN_1_RD_3_0.png","C_Dist_500_LN_20_LD_24_RN_3_RD_9_0.png","C_Dist_500_LN_20_LD_24_RN_7_RD_21_0.png","C_Dist_500_LN_20_LD_28_RN_3_RD_14_0.png","C_Dist_500_LN_21_LD_28_RN_6_RD_24_0.png","C_Dist_500_LN_22_LD_28_RN_2_RD_7_0.png","C_Dist_500_LN_25_LD_30_RN_9_RD_27_0.png","C_Dist_500_LN_4_LD_6_RN_1_RD_6_0.png","C_Dist_500_LN_5_LD_6_RN_2_RD_6_0.png","C_Dist_500_LN_6_LD_9_RN_1_RD_6_0.png","C_Dist_500_LN_7_LD_10_RN_1_RD_5_0.png","C_Dist_500_LN_8_LD_12_RN_1_RD_6_0.png","C_Dist_500_LN_8_LD_12_RN_4_RD_24_0.png"],["C_Dist_500_LN_1_LD_4_RN_12_RD_16_1.png","C_Dist_500_LN_1_LD_4_RN_9_RD_12_1.png","C_Dist_500_LN_1_LD_9_RN_11_RD_18_1.png","C_Dist_500_LN_10_LD_24_RN_22_RD_24_1.png","C_Dist_500_LN_2_LD_12_RN_10_RD_15_1.png","C_Dist_500_LN_2_LD_12_RN_12_RD_18_1.png","C_Dist_500_LN_2_LD_12_RN_4_RD_6_1.png","C_Dist_500_LN_2_LD_24_RN_7_RD_12_1.png","C_Dist_500_LN_2_LD_5_RN_18_RD_20_1.png","C_Dist_500_LN_2_LD_5_RN_9_RD_10_1.png","C_Dist_500_LN_2_LD_8_RN_12_RD_16_1.png","C_Dist_500_LN_2_LD_8_RN_21_RD_28_1.png","C_Dist_500_LN_3_LD_10_RN_4_RD_5_1.png","C_Dist_500_LN_3_LD_12_RN_15_RD_20_1.png","C_Dist_500_LN_3_LD_30_RN_6_RD_10_1.png","C_Dist_500_LN_3_LD_8_RN_14_RD_16_1.png","C_Dist_500_LN_4_LD_16_RN_15_RD_20_1.png","C_Dist_500_LN_4_LD_24_RN_12_RD_18_1.png","C_Dist_500_LN_5_LD_14_RN_6_RD_7_1.png","C_Dist_500_LN_7_LD_21_RN_20_RD_24_1.png","C_Dist_500_LN_7_LD_28_RN_12_RD_16_1.png","C_Dist_500_LN_7_LD_28_RN_9_RD_12_1.png","C_Dist_500_LN_9_LD_27_RN_20_RD_24_1.png"]],"dist500_I":[["I_Dist_500_LN_2_LD_3_RN_4_RD_24_0.png","I_Dist_500_LN_5_LD_6_RN_6_RD_18_0.png","I_Dist_500_LN_7_LD_8_RN_9_RD_24_0.png"],["I_Dist_500_LN_7_LD_21_RN_5_RD_6_1.png"]],"dist500_S":[["E_Dist_500_LN_6_LD_8_RN_6_RD_24_0.png"],["E_Dist_500_LN_2_LD_12_RN_2_RD_3_1.png","E_Dist_500_LN_6_LD_24_RN_6_RD_8_1.png"]]}},{"start_time":1552054132178,"click_time":1552054134300,"finger_time":1552054133900,"fix_duration":636.193388416765,"trial":1,"RT":1722,"MT":400,"sideResp":2,"stimulus":[],"xmouse":[823,823,823,823,823,823,823,823,823,823,823,823,823,823,823,823,823,823,823,823,823,823,823,823,823,823,823,823,823,823,823,823,823,823,823,823,823,823,823,823,823,823,823,823,823,823,823,823,823,823,823,823,823,823,823,823,823,823,823,823,823,823,823,823,823,823,823,823,823,823,823,823,823,823,823,823,823,823,823,823,823,823,823,823,822,827,838,848,855,860,879,903,920,932,938,938,938,941,953,975,1051,1075,1091,1097,1098,1099,1102],"ymouse":[519,519,519,519,519,519,519,519,519,519,519,519,519,519,519,519,519,519,519,519,519,519,519,519,519,519,519,519,519,519,519,519,519,519,519,519,519,519,519,519,519,519,519,519,519,519,519,519,519,519,519,519,519,519,519,519,519,519,519,519,519,519,519,519,519,519,519,519,519,519,519,519,519,519,519,519,519,519,519,519,519,519,519,519,517,478,440,411,387,371,329,271,230,204,194,193,192,192,187,174,126,112,105,101,101,100,95],"timestamp_mouse":[14,36,42,63,82,103,123,142,163,182,204,222,242,263,283,302,322,343,362,383,402,422,443,464,482,502,522,543,562,584,602,623,643,662,683,702,723,742,763,782,802,822,842,863,882,902,923,943,962,983,1002,1023,1043,1063,1083,1103,1123,1142,1162,1183,1203,1223,1242,1263,1283,1303,1323,1342,1362,1382,1402,1423,1442,1462,1482,1502,1523,1544,1563,1582,1602,1622,1643,1663,1682,1702,1722,1742,1762,1782,1803,1822,1842,1862,1883,1902,1922,1943,1963,1983,2003,2023,2042,2063,2083,2102,2122],"xSR":741.5,"ySR":469.95,"xT1":424.9,"yT1":0,"xT2":1058.1,"yT2":0,"toosoon":0,"cond_shown":"Congruent","ratio_trial":100,"L_num":4,"L_den":8,"R_num":6,"R_den":10,"correct_side":2,"subjID":"ivonnensandoval22","gender":"1","school":"4","age":"10"},{"start_time":1552054136234,"click_time":1552054137861,"finger_time":1552054137681,"fix_duration":431.28725083253374,"trial":2,"RT":1447,"MT":180,"sideResp":1,"stimulus":[],"xmouse":[812,812,812,812,812,812,812,812,812,812,812,812,812,812,812,812,812,812,812,812,812,812,812,812,812,812,812,812,812,812,812,812,812,812,812,812,812,812,812,812,812,812,812,812,812,812,812,812,812,812,812,812,812,812,812,812,812,812,812,812,812,812,812,812,812,812,812,810,790,776,763,750,718,686,643,593,557,531,523,521,519,517],"ymouse":[549,549,549,549,549,549,549,549,549,549,549,549,549,549,549,549,549,549,549,549,549,549,549,549,549,549,549,549,549,549,549,549,549,549,549,549,549,549,549,549,549,549,549,549,549,549,549,549,549,549,549,549,549,549,549,549,549,549,549,549,549,549,549,549,549,549,549,549,530,521,511,501,465,407,334,263,214,168,136,124,110,99],"timestamp_mouse":[14,38,47,66,86,107,126,146,167,187,207,226,246,267,287,307,327,347,366,387,407,427,447,466,486,506,527,548,567,587,607,627,647,666,686,706,727,747,766,787,807,827,846,866,887,907,926,946,966,986,1006,1027,1046,1066,1087,1107,1126,1146,1166,1186,1207,1226,1248,1267,1286,1307,1327,1346,1367,1386,1407,1426,1447,1466,1487,1506,1526,1546,1566,1586,1606,1626],"xSR":741.5,"ySR":469.95,"xT1":424.9,"yT1":0,"xT2":1058.1,"yT2":0,"toosoon":0,"cond_shown":"Incongruent","ratio_trial":100,"L_num":3,"L_den":5,"R_num":8,"R_den":16,"correct_side":1,"subjID":"ivonnensandoval22","gender":"1","school":"4","age":"10"},{"start_time":1552054140425,"click_time":1552054142720,"finger_time":1552054142361,"fix_duration":1343.4601576888138,"trial":3,"RT":1936,"MT":359,"sideResp":2,"stimulus":[],"xmouse":[770,770,770,770,770,770,770,770,770,770,770,770,770,770,770,770,770,770,771,771,771,771,771,771,771,771,771,771,771,771,771,771,771,771,771,771,771,771,772,772,772,772,772,772,772,772,772,772,772,772,772,772,772,772,772,772,772,772,772,772,772,772,772,772,772,772,772,772,772,772,772,772,772,772,772,772,772,772,772,772,772,772,772,772,772,772,772,780,795,806,809,810,810,811,819,832,850,866,907,928,944,955,974,1012,1048,1068,1085,1092,1096,1098,1100,1102,1105,1108,1109],"ymouse":[511,511,511,511,511,511,511,511,511,511,511,511,511,511,511,511,511,511,511,511,511,511,511,511,511,511,511,511,511,511,511,511,511,511,511,511,511,511,511,511,511,511,511,511,511,511,511,511,511,511,511,511,511,511,511,511,511,511,511,511,511,511,511,511,511,511,511,511,511,511,511,511,511,511,511,511,511,511,511,511,511,511,511,511,511,511,511,512,515,519,520,520,520,520,517,507,487,458,391,354,323,299,268,217,185,172,166,163,159,151,142,135,127,106,96],"timestamp_mouse":[15,35,55,76,95,115,135,156,176,195,215,235,255,275,295,317,335,355,376,395,417,436,456,475,495,515,537,555,575,595,615,635,656,676,695,715,735,755,775,795,815,835,856,875,895,916,935,955,975,996,1015,1035,1055,1075,1095,1115,1136,1155,1175,1196,1216,1235,1256,1275,1295,1316,1336,1356,1375,1395,1416,1435,1456,1475,1496,1515,1537,1556,1575,1596,1616,1636,1656,1675,1696,1717,1736,1755,1775,1795,1815,1835,1856,1875,1895,1915,1936,1955,1976,1995,2016,2036,2055,2076,2095,2115,2136,2155,2176,2195,2215,2236,2255,2276,2295],"xSR":741.5,"ySR":469.95,"xT1":424.9,"yT1":0,"xT2":1058.1,"yT2":0,"toosoon":0,"cond_shown":"Congruent","ratio_trial":100,"L_num":2,"L_den":5,"R_num":6,"R_den":12,"correct_side":2,"subjID":"ivonnensandoval22","gender":"1","school":"4","age":"10"},{"start_time":1552054145897,"click_time":1552054147920,"finger_time":1552054147361,"fix_duration":535.9932080911709,"trial":4,"RT":1464,"MT":559,"sideResp":1,"stimulus":[],"xmouse":[817,817,817,817,817,817,817,817,817,817,817,817,817,817,817,817,817,817,817,817,817,817,817,817,817,817,817,817,817,817,817,817,817,817,817,817,817,817,817,817,817,817,817,817,817,817,817,817,817,817,817,817,817,817,817,817,817,817,817,817,817,817,817,817,817,817,817,817,817,815,810,774,748,722,694,665,619,608,594,589,586,584,583,582,580,577,567,554,545,536,530,528,527,525,521,518,511,509,506,502,502,499],"ymouse":[551,551,551,551,551,551,551,551,551,551,551,551,551,551,551,551,551,551,551,551,551,551,551,551,551,551,551,551,551,551,551,551,551,551,551,551,551,551,551,551,551,551,551,551,551,551,551,551,551,551,551,551,551,551,551,551,551,551,551,551,551,551,551,551,551,551,551,551,551,549,545,514,494,472,447,416,354,332,300,283,272,262,258,251,244,233,208,193,187,181,178,177,176,170,164,156,140,134,123,108,102,94],"timestamp_mouse":[13,39,44,63,85,103,124,143,164,184,203,224,244,264,283,303,324,344,363,384,404,425,443,463,483,503,523,544,563,584,603,624,644,665,684,703,724,743,764,783,804,823,844,864,883,903,923,943,963,983,1003,1023,1043,1063,1084,1103,1123,1143,1164,1184,1204,1224,1243,1264,1284,1303,1324,1344,1363,1383,1404,1423,1443,1464,1484,1503,1523,1544,1563,1585,1605,1623,1643,1663,1683,1705,1723,1744,1763,1783,1803,1823,1843,1864,1883,1903,1923,1944,1964,1984,2004,2023],"xSR":741.5,"ySR":469.95,"xT1":424.9,"yT1":0,"xT2":1058.1,"yT2":0,"toosoon":0,"cond_shown":"Incongruent","ratio_trial":300,"L_num":4,"L_den":5,"R_num":6,"R_den":12,"correct_side":1,"subjID":"ivonnensandoval22","gender":"1","school":"4","age":"10"},{"start_time":1552054149579,"click_time":1552054152521,"finger_time":1552054151020,"fix_duration":638.841535035357,"trial":5,"RT":1441,"MT":1501,"sideResp":2,"stimulus":[],"xmouse":[770,770,771,771,771,771,771,771,772,772,772,773,773,773,774,774,774,774,774,774,774,774,774,774,774,774,774,774,774,774,774,774,774,774,774,774,774,774,774,774,774,774,774,774,774,774,774,774,774,774,774,774,774,774,774,774,774,774,774,774,774,774,774,775,776,777,780,782,784,789,793,813,829,845,864,879,905,916,928,936,943,951,961,970,975,980,982,983,983,983,983,983,983,983,983,983,982,980,979,977,977,976,974,974,973,971,970,969,969,969,969,969,964,957,943,925,908,872,860,852,850,850,842,840,838,837,835,835,835,835,835,835,864,901,958,1000,1043,1046,1047,1048,1050,1051,1052,1054,1055,1057,1061],"ymouse":[530,530,530,530,530,530,530,530,530,530,530,530,530,530,530,530,530,530,530,530,530,530,530,530,530,530,530,530,530,530,530,530,530,530,530,530,530,530,530,530,530,530,530,530,530,530,530,530,530,530,530,530,530,530,530,530,530,530,530,530,530,530,530,529,528,527,518,512,503,488,471,421,393,357,316,284,229,206,189,179,174,166,159,154,153,150,150,150,150,150,150,150,150,150,150,151,152,154,156,157,159,160,161,162,162,163,163,163,163,163,163,163,164,165,167,169,169,165,161,160,160,160,168,174,179,184,193,198,202,202,204,204,204,189,166,148,127,122,114,105,95,86,79,75,71,65,53],"timestamp_mouse":[21,41,62,82,101,122,141,161,183,202,221,242,261,282,301,321,341,362,381,402,421,441,461,482,501,522,541,562,581,602,622,641,661,681,701,722,742,762,781,802,822,841,862,881,902,921,941,962,981,1001,1022,1041,1061,1082,1102,1121,1141,1162,1181,1201,1222,1241,1261,1282,1302,1321,1341,1361,1381,1401,1421,1441,1462,1481,1501,1521,1541,1561,1582,1601,1621,1642,1661,1681,1701,1722,1742,1761,1782,1801,1821,1841,1861,1882,1903,1921,1942,1961,1982,2001,2021,2041,2062,2081,2101,2121,2141,2161,2182,2201,2222,2241,2262,2281,2301,2321,2342,2361,2381,2401,2422,2441,2462,2481,2501,2521,2542,2561,2582,2601,2621,2642,2661,2681,2701,2722,2742,2761,2781,2801,2821,2841,2861,2881,2901,2921,2941],"xSR":741.5,"ySR":469.95,"xT1":424.9,"yT1":0,"xT2":1058.1,"yT2":0,"toosoon":0,"cond_shown":"Incongruent","ratio_trial":200,"L_num":4,"L_den":30,"R_num":1,"R_den":3,"correct_side":2,"subjID":"ivonnensandoval22","gender":"1","school":"4","age":"10"},{"start_time":1552054154884,"click_time":1552054156340,"finger_time":1552054155860,"fix_duration":1041.7650693870814,"trial":6,"RT":976,"MT":480,"sideResp":1,"stimulus":[],"xmouse":[795,795,795,795,795,795,795,795,795,795,795,795,795,795,795,795,795,795,795,795,795,795,795,795,795,795,795,795,795,795,795,795,795,795,795,795,795,795,795,795,795,795,790,783,774,769,763,745,732,717,700,678,645,627,620,611,600,577,566,558,552,550,547,545,542,540,539,538,538,538,536,532,520],"ymouse":[545,545,545,545,545,545,545,545,545,545,545,545,545,545,545,545,545,545,545,545,545,545,545,545,545,545,545,545,545,545,545,545,545,545,545,545,545,545,545,545,545,545,544,542,539,537,536,530,523,515,502,486,455,429,412,393,366,311,284,265,247,233,205,193,170,157,146,132,126,117,104,93,72],"timestamp_mouse":[16,36,56,77,97,117,136,157,177,197,216,237,257,276,296,316,336,357,377,397,417,437,456,477,497,517,536,556,577,597,616,636,657,678,696,716,736,757,776,797,817,836,856,877,897,916,936,957,976,997,1016,1036,1056,1076,1096,1116,1137,1157,1177,1196,1217,1236,1256,1276,1296,1316,1336,1356,1376,1397,1416,1438,1456],"xSR":741.5,"ySR":469.95,"xT1":424.9,"yT1":0,"xT2":1058.1,"yT2":0,"toosoon":0,"cond_shown":"Incongruent","ratio_trial":300,"L_num":1,"L_den":2,"R_num":3,"R_den":15,"correct_side":1,"subjID":"ivonnensandoval22","gender":"1","school":"4","age":"10"},{"start_time":1552054158718,"click_time":1552054163120,"finger_time":1552054162100,"fix_duration":836.7008543584667,"trial":7,"RT":3382,"MT":1020,"sideResp":2,"stimulus":[],"xmouse":[795,795,795,795,795,795,795,795,795,795,795,795,795,795,795,795,795,795,795,795,795,795,795,795,795,795,795,795,795,795,795,795,795,795,795,795,795,795,795,795,795,795,795,795,795,795,795,795,795,795,795,795,795,795,795,795,795,795,795,795,795,795,795,795,795,795,795,795,795,795,795,795,795,795,795,795,795,795,795,795,795,795,795,795,795,795,795,795,795,795,795,795,795,795,795,796,796,796,796,797,797,797,797,797,797,797,797,797,797,797,797,797,797,797,797,797,797,797,797,797,797,797,797,797,797,797,797,797,797,797,797,797,797,797,797,797,797,797,797,797,797,797,797,797,797,797,797,797,797,797,797,797,797,797,797,797,797,797,797,797,797,797,797,797,800,803,806,823,838,857,889,911,953,981,1008,1036,1063,1110,1132,1148,1155,1174,1186,1199,1216,1236,1286,1314,1348,1382,1427,1450,1478,1478,1475,1464,1444,1439,1434,1428,1428,1428,1428,1428,1428,1428,1262,1231,1209,1190,1179,1174,1174,1174,1174,1174,1173,1172,1171,1169,1158],"ymouse":[527,527,527,527,527,527,527,527,527,527,527,527,527,527,527,527,527,527,527,527,527,527,527,527,527,527,527,527,527,527,527,527,527,527,527,527,527,527,527,527,527,527,527,527,527,527,527,527,527,527,527,527,527,527,527,527,527,527,527,527,527,527,527,527,527,527,527,527,527,527,527,527,527,527,527,527,527,527,527,527,527,527,527,527,527,527,527,527,527,527,527,527,527,527,527,528,528,528,528,528,528,529,529,529,529,529,529,529,529,529,529,529,529,529,529,529,529,529,529,529,529,529,529,529,529,529,529,529,529,529,529,529,529,529,529,529,529,529,529,529,529,529,529,529,529,529,529,529,529,529,529,529,529,529,529,529,529,529,529,529,529,529,529,529,531,534,538,556,566,578,592,600,604,604,604,604,604,604,604,604,601,589,581,574,564,556,535,522,503,478,429,385,279,214,142,84,27,15,8,0,0,0,0,0,0,0,0,14,23,29,32,33,33,33,33,33,34,36,38,40,46],"timestamp_mouse":[14,36,44,63,83,103,122,143,163,182,202,222,242,262,283,302,322,343,362,383,403,422,442,463,483,503,522,543,563,582,602,623,644,663,682,703,723,742,763,782,803,822,843,862,882,903,922,943,963,982,1002,1023,1042,1062,1083,1103,1122,1142,1162,1184,1203,1222,1242,1263,1283,1304,1322,1342,1363,1382,1403,1422,1443,1463,1482,1502,1522,1543,1563,1582,1603,1623,1643,1663,1682,1703,1723,1743,1763,1783,1803,1822,1842,1862,1883,1902,1923,1943,1962,1983,2002,2022,2043,2062,2082,2102,2122,2143,2162,2182,2203,2222,2244,2262,2283,2302,2323,2343,2362,2382,2402,2422,2442,2462,2482,2502,2522,2542,2563,2583,2603,2623,2642,2662,2683,2703,2723,2743,2762,2783,2803,2822,2842,2863,2882,2903,2923,2943,2963,2983,3003,3022,3044,3063,3082,3104,3123,3143,3162,3183,3203,3223,3242,3262,3283,3302,3323,3342,3363,3382,3402,3423,3442,3462,3483,3502,3522,3542,3563,3582,3603,3624,3642,3662,3682,3704,3723,3742,3763,3782,3803,3822,3842,3862,3882,3902,3924,3942,3962,3982,4002,4023,4043,4062,4082,4103,4122,4142,4163,4182,4202,4222,4243,4263,4283,4304,4323,4342,4362,4382,4402],"xSR":741.5,"ySR":469.95,"xT1":424.9,"yT1":0,"xT2":1058.1,"yT2":0,"toosoon":0,"cond_shown":"Congruent","ratio_trial":300,"L_num":5,"L_den":25,"R_num":7,"R_den":14,"correct_side":2,"subjID":"ivonnensandoval22","gender":"1","school":"4","age":"10"},{"start_time":1552054166425,"click_time":1552054169561,"finger_time":1552054168581,"fix_duration":1122.0451894739622,"trial":8,"RT":2156,"MT":980,"sideResp":1,"stimulus":[],"xmouse":[773,773,773,773,773,774,774,774,774,774,774,774,774,774,774,774,774,774,774,774,774,774,774,774,774,774,774,774,774,774,774,774,774,774,774,774,774,774,774,774,774,774,774,774,774,774,774,774,774,774,774,774,774,774,774,774,774,774,774,774,774,774,774,774,774,774,774,774,774,774,774,774,774,774,774,774,774,774,774,774,774,774,774,774,774,774,774,774,774,774,774,774,774,774,774,774,774,774,774,774,772,761,755,753,752,750,746,706,645,564,487,433,381,361,330,294,232,214,208,206,206,230,241,247,251,255,266,268,270,270,270,270,270,271,274,279,281,281,281,281,281,283,287,295,306,316,339,350,359,367,371,372,373,375,384,399,426],"ymouse":[529,529,529,529,529,529,528,528,526,526,526,526,526,526,526,526,526,526,526,526,526,526,526,526,526,526,526,526,526,526,526,526,526,526,526,526,526,526,526,526,526,526,526,526,526,526,526,526,526,526,526,526,526,526,526,526,526,526,526,526,526,526,526,526,526,526,526,526,526,526,526,526,526,526,526,526,526,526,526,526,526,526,526,526,526,526,526,526,526,526,526,526,526,526,526,526,526,526,526,526,529,544,551,553,553,554,555,569,581,590,593,593,583,578,571,562,542,532,523,513,502,469,460,455,452,449,429,405,372,331,268,199,168,142,115,87,49,42,41,41,41,40,40,40,40,42,48,52,56,59,61,61,62,63,67,73,83],"timestamp_mouse":[15,39,55,76,95,115,135,155,175,197,215,235,255,275,296,316,336,355,376,396,416,435,455,476,497,516,535,555,575,596,616,637,656,677,696,716,736,757,775,796,815,835,855,877,897,916,936,955,976,996,1016,1035,1056,1075,1097,1116,1137,1156,1175,1197,1216,1235,1257,1276,1295,1316,1336,1356,1377,1396,1417,1436,1456,1477,1495,1516,1536,1557,1576,1596,1617,1636,1656,1676,1696,1717,1736,1756,1776,1795,1817,1836,1856,1875,1897,1943,1943,1956,1975,1998,2015,2036,2057,2076,2097,2115,2135,2156,2177,2196,2216,2235,2256,2275,2295,2315,2336,2355,2375,2395,2416,2436,2455,2476,2496,2517,2536,2555,2576,2597,2615,2636,2656,2675,2695,2715,2737,2755,2776,2797,2816,2836,2855,2875,2896,2917,2936,2955,2976,2996,3015,3036,3055,3076,3095,3115,3136],"xSR":741.5,"ySR":469.95,"xT1":424.9,"yT1":0,"xT2":1058.1,"yT2":0,"toosoon":0,"cond_shown":"Congruent","ratio_trial":100,"L_num":10,"L_den":25,"R_num":3,"R_den":10,"correct_side":1,"subjID":"ivonnensandoval22","gender":"1","school":"4","age":"10"},{"start_time":1552054172372,"click_time":1552054174581,"finger_time":1552054173760,"fix_duration":250,"trial":9,"RT":1388,"MT":821,"sideResp":2,"stimulus":[],"xmouse":[776,776,776,776,776,776,776,776,776,776,776,776,776,776,776,776,776,776,776,776,776,776,776,776,776,776,776,776,776,776,776,776,776,776,776,776,776,776,776,776,776,776,776,776,776,776,776,776,778,779,785,791,798,805,807,808,808,808,808,808,808,808,808,809,811,818,823,830,839,850,869,876,880,880,881,882,883,884,887,890,906,913,919,931,939,965,976,987,996,1007,1024,1030,1033,1035,1038,1047,1050,1054,1058,1059,1063,1065,1069,1072,1076,1096,1107,1115,1120,1124,1130],"ymouse":[548,548,548,548,548,548,548,548,548,548,548,548,548,548,548,548,548,548,548,548,548,548,548,548,548,548,548,548,548,548,548,548,548,548,548,548,548,548,548,548,548,548,548,548,548,548,548,548,546,545,539,534,528,521,519,518,518,518,518,518,518,517,517,515,513,505,500,489,472,453,420,410,404,403,402,398,396,393,388,383,362,356,351,342,336,313,304,294,283,271,253,249,244,238,232,217,208,197,190,183,173,169,164,159,154,134,123,115,110,104,97],"timestamp_mouse":[13,36,48,68,90,108,129,149,169,189,209,230,249,269,289,309,328,349,368,388,409,428,450,470,488,509,529,549,569,589,609,628,649,669,689,710,730,749,769,790,809,829,850,869,888,908,929,949,969,989,1009,1028,1048,1069,1089,1109,1128,1148,1168,1190,1210,1230,1249,1269,1289,1309,1329,1349,1368,1388,1408,1430,1448,1468,1488,1508,1530,1549,1569,1588,1608,1629,1649,1670,1689,1708,1729,1749,1769,1789,1808,1829,1849,1869,1888,1909,1928,1949,1968,1990,2009,2029,2048,2069,2088,2108,2129,2149,2169,2189,2209],"xSR":741.5,"ySR":469.95,"xT1":424.9,"yT1":0,"xT2":1058.1,"yT2":0,"toosoon":0,"cond_shown":"Congruent","ratio_trial":100,"L_num":8,"L_den":16,"R_num":2,"R_den":5,"correct_side":1,"subjID":"ivonnensandoval22","gender":"1","school":"4","age":"10"},{"start_time":1552054178191,"click_time":1552054180540,"finger_time":1552054179661,"fix_duration":628.7198192338371,"trial":10,"RT":1470,"MT":879,"sideResp":2,"stimulus":[],"xmouse":[822,822,822,822,822,822,822,822,822,822,822,822,822,822,822,822,822,822,822,822,822,822,822,822,822,822,822,822,822,822,822,822,822,822,822,822,822,822,822,822,822,822,822,822,822,822,822,822,822,822,822,822,822,822,822,822,822,822,822,822,822,822,822,822,822,822,822,822,822,827,832,834,840,856,958,1034,1112,1187,1258,1351,1368,1379,1386,1388,1388,1388,1388,1385,1374,1350,1340,1333,1329,1327,1326,1322,1309,1284,1220,1173,1125,1116,1114,1112,1112,1112,1112,1112,1112,1112,1112,1112,1113,1113,1114,1114,1114,1114],"ymouse":[514,514,514,514,514,514,514,514,514,514,514,514,514,514,514,514,514,514,514,514,514,514,514,514,514,514,514,514,514,514,514,514,514,514,514,514,514,514,514,514,514,514,514,514,514,514,514,514,514,514,514,514,514,514,514,514,514,514,514,514,514,514,514,514,514,514,514,514,513,509,505,504,503,503,529,551,571,591,601,607,598,579,550,514,475,411,385,359,325,286,273,266,262,261,259,255,247,235,206,185,156,148,140,134,131,131,131,131,131,130,130,128,127,124,121,107,101,99],"timestamp_mouse":[16,40,49,69,89,110,131,150,170,189,210,230,249,269,290,309,329,351,370,390,410,429,451,469,491,511,529,551,569,590,609,631,649,671,689,710,729,751,770,790,809,831,851,869,890,910,931,950,971,989,1010,1029,1050,1070,1090,1111,1130,1151,1170,1190,1209,1229,1250,1271,1289,1309,1331,1351,1371,1390,1411,1430,1450,1470,1491,1509,1530,1550,1570,1591,1609,1629,1650,1670,1690,1709,1730,1749,1770,1791,1809,1830,1850,1870,1891,1909,1929,1949,1970,1991,2010,2029,2050,2070,2090,2111,2130,2150,2170,2189,2209,2229,2251,2271,2290,2309,2329,2349],"xSR":741.5,"ySR":469.95,"xT1":424.9,"yT1":0,"xT2":1058.1,"yT2":0,"toosoon":0,"cond_shown":"Congruent","ratio_trial":200,"L_num":9,"L_den":30,"R_num":13,"R_den":26,"correct_side":2,"subjID":"ivonnensandoval22","gender":"1","school":"4","age":"10"},{"start_time":1552054183108,"click_time":1552054186040,"finger_time":1552054185300,"fix_duration":1407.299454013804,"trial":11,"RT":2192,"MT":740,"sideResp":1,"stimulus":[],"xmouse":[804,804,804,804,804,804,804,804,804,804,804,804,804,804,804,804,804,804,804,804,804,804,804,804,804,804,804,804,804,804,804,804,804,804,804,804,804,804,804,804,804,804,804,804,804,804,804,804,804,804,804,804,804,804,804,804,804,804,804,804,804,804,804,804,804,804,804,804,804,804,804,804,804,804,804,804,804,804,804,804,804,804,804,804,804,804,804,804,804,804,804,804,804,804,804,804,804,804,804,804,804,804,804,804,804,804,804,804,804,804,802,798,795,792,784,781,778,775,775,773,771,770,769,767,763,744,724,698,674,628,606,598,585,573,555,552,551,551,550,544,541,539,537,535,528,525,523],"ymouse":[536,536,536,536,536,536,536,536,536,536,536,536,536,536,536,536,536,536,536,536,536,536,536,536,536,536,536,536,536,536,536,536,536,536,536,536,536,536,536,536,536,536,536,536,536,536,536,536,536,536,536,536,536,536,536,536,536,536,536,536,536,536,536,536,536,536,536,536,536,536,536,536,536,536,536,536,536,536,536,536,536,536,536,536,536,536,536,536,536,536,536,536,536,536,536,536,536,536,536,536,536,536,536,536,536,536,528,520,502,453,430,407,387,362,309,288,270,252,235,209,201,195,192,187,181,165,154,144,134,114,105,102,97,91,83,81,80,79,77,69,66,64,61,59,56,54,54],"timestamp_mouse":[14,39,53,74,94,113,134,152,172,192,214,233,252,273,293,313,334,354,373,393,413,433,452,473,494,513,533,553,573,592,612,634,654,674,692,712,733,753,774,794,814,833,854,872,892,913,934,953,973,993,1013,1032,1054,1074,1093,1113,1133,1153,1173,1194,1213,1234,1253,1272,1292,1313,1333,1353,1372,1393,1414,1433,1453,1472,1493,1514,1534,1552,1574,1592,1614,1633,1654,1673,1692,1714,1734,1753,1773,1792,1814,1833,1853,1873,1893,1913,1932,1954,1973,1994,2013,2033,2053,2072,2092,2113,2132,2152,2173,2192,2214,2232,2254,2273,2293,2313,2332,2353,2374,2393,2413,2432,2452,2473,2493,2513,2533,2553,2574,2593,2613,2632,2653,2673,2693,2712,2734,2752,2773,2793,2813,2832,2853,2874,2892,2912,2932],"xSR":741.5,"ySR":469.95,"xT1":424.9,"yT1":0,"xT2":1058.1,"yT2":0,"toosoon":0,"cond_shown":"Incongruent","ratio_trial":100,"L_num":13,"L_den":26,"R_num":12,"R_den":20,"correct_side":2,"subjID":"ivonnensandoval22","gender":"1","school":"4","age":"10"},{"start_time":1552054190513,"click_time":1552054191780,"finger_time":1552054191261,"fix_duration":1430.384995248208,"trial":12,"RT":748,"MT":519,"sideResp":1,"stimulus":[],"xmouse":[748,748,748,748,748,748,748,748,748,748,748,748,748,748,748,748,748,748,748,748,748,748,748,748,748,748,748,748,748,748,748,748,748,748,748,748,745,741,737,729,712,703,693,683,673,660,658,658,658,658,658,658,658,656,650,596,534,466,453,449,450,458,466,476],"ymouse":[485,485,485,485,485,485,485,485,485,485,485,485,485,485,485,485,485,485,485,485,485,485,485,485,485,485,485,485,485,485,485,485,485,485,485,485,482,479,476,470,462,458,456,454,452,450,450,450,450,450,450,450,450,450,449,391,323,230,199,180,147,126,111,94],"timestamp_mouse":[16,27,48,68,87,108,128,147,167,187,207,227,247,267,287,307,327,348,367,388,408,429,448,468,488,509,528,549,568,587,608,628,649,669,688,707,728,748,768,788,808,827,848,868,889,908,928,947,967,988,1008,1028,1048,1068,1087,1107,1128,1147,1167,1187,1207,1229,1248,1267],"xSR":741.5,"ySR":469.95,"xT1":424.9,"yT1":0,"xT2":1058.1,"yT2":0,"toosoon":0,"cond_shown":"Incongruent","ratio_trial":200,"L_num":7,"L_den":10,"R_num":12,"R_den":24,"correct_side":1,"subjID":"ivonnensandoval22","gender":"1","school":"4","age":"10"},{"start_time":1552054194205,"click_time":1552054196141,"finger_time":1552054195740,"fix_duration":1483.959965738004,"trial":13,"RT":1535,"MT":401,"sideResp":2,"stimulus":[],"xmouse":[807,805,804,803,801,800,800,799,798,797,796,795,795,795,794,794,794,794,794,794,794,794,794,794,794,794,794,794,794,794,794,794,794,794,794,794,794,794,794,794,794,794,794,794,794,794,794,794,794,794,794,794,794,794,794,794,794,794,794,794,794,794,794,794,794,794,794,794,794,794,794,794,797,801,808,821,872,895,919,942,993,1009,1023,1034,1044,1060,1066,1070,1074,1076,1079,1081,1084,1089,1094,1099,1101],"ymouse":[527,526,524,524,524,524,524,524,524,524,524,525,525,525,526,526,526,527,527,527,528,528,528,528,528,528,528,528,528,528,528,528,528,528,528,528,528,528,528,528,528,528,528,528,528,529,529,529,529,529,529,529,529,529,529,529,529,529,529,529,529,529,529,529,529,529,529,529,529,529,529,529,529,528,522,508,439,401,363,323,257,240,225,210,199,181,173,166,159,157,153,151,146,138,129,119,98],"timestamp_mouse":[16,36,55,75,96,116,136,157,177,195,215,236,257,276,295,316,337,356,377,397,415,437,455,477,495,516,537,557,576,596,615,635,656,675,696,715,735,756,776,796,816,836,855,877,896,916,936,955,976,997,1017,1036,1057,1077,1097,1116,1135,1155,1177,1197,1216,1237,1255,1276,1296,1316,1335,1357,1377,1396,1416,1436,1455,1476,1496,1516,1535,1556,1576,1597,1617,1635,1655,1675,1695,1717,1735,1755,1775,1796,1816,1836,1855,1876,1897,1917,1936],"xSR":741.5,"ySR":469.95,"xT1":424.9,"yT1":0,"xT2":1058.1,"yT2":0,"toosoon":0,"cond_shown":"Congruent","ratio_trial":100,"L_num":8,"L_den":16,"R_num":2,"R_den":5,"correct_side":1,"subjID":"ivonnensandoval22","gender":"1","school":"4","age":"10"},{"start_time":1552054197691,"click_time":1552054200082,"finger_time":1552054198021,"fix_duration":388.75889057568816,"trial":14,"RT":330,"MT":2061,"sideResp":2,"stimulus":[],"xmouse":[818,818,819,819,819,819,819,819,819,819,819,818,817,814,811,797,782,730,708,694,688,687,687,687,687,687,687,687,687,688,693,698,708,713,720,733,739,749,754,760,765,785,794,801,804,804,804,804,804,804,804,804,804,804,804,804,804,804,804,804,804,804,804,804,804,804,804,804,804,804,804,804,804,804,804,804,804,804,804,804,804,804,804,804,804,804,804,804,804,804,804,803,801,800,799,797,794,785,783,783,782,782,782,784,786,786,786,786,786,785,785,785,797,822,842,871,909,1001,1044,1080],"ymouse":[531,529,527,526,525,525,524,524,524,524,521,518,513,508,500,472,439,362,340,325,318,316,316,316,316,316,316,316,317,322,331,339,355,362,372,390,398,413,420,427,436,462,474,481,484,484,484,484,484,483,483,483,482,482,482,482,482,482,482,482,482,482,482,483,485,489,492,502,505,506,506,506,506,506,506,506,506,506,506,506,506,506,506,505,505,504,502,496,492,489,486,482,469,459,433,408,383,335,321,314,308,303,287,277,261,253,243,226,217,210,207,205,191,169,155,139,122,87,69,51],"timestamp_mouse":[13,37,49,69,89,110,130,151,169,189,209,231,250,269,290,311,330,349,369,390,409,431,449,470,490,509,530,550,571,590,609,631,649,670,690,710,730,751,769,789,809,831,850,870,890,910,929,949,970,990,1011,1031,1050,1071,1090,1111,1131,1151,1170,1189,1209,1230,1250,1271,1290,1310,1331,1350,1370,1390,1409,1431,1449,1471,1490,1511,1529,1550,1570,1591,1611,1630,1651,1670,1690,1710,1730,1751,1769,1790,1810,1830,1850,1869,1889,1910,1929,1949,1970,1989,2009,2030,2049,2070,2091,2110,2131,2150,2169,2190,2211,2230,2249,2270,2289,2310,2329,2349,2369,2391],"xSR":741.5,"ySR":469.95,"xT1":424.9,"yT1":0,"xT2":1058.1,"yT2":0,"toosoon":0,"cond_shown":"Incongruent","ratio_trial":300,"L_num":4,"L_den":20,"R_num":2,"R_den":4,"correct_side":2,"subjID":"ivonnensandoval22","gender":"1","school":"4","age":"10"},{"start_time":1552054202538,"click_time":1552054204741,"finger_time":1552054204101,"fix_duration":1096.3858394159683,"trial":15,"RT":1563,"MT":640,"sideResp":2,"stimulus":[],"xmouse":[775,775,775,775,775,775,775,775,775,775,775,775,775,775,775,775,775,775,775,775,775,775,775,775,776,776,776,776,776,776,776,776,776,776,777,777,777,777,777,777,777,777,777,777,777,777,777,777,777,777,778,778,778,778,778,778,778,778,778,778,778,778,780,780,780,781,781,782,783,784,785,787,788,791,794,808,815,824,832,841,863,874,882,889,896,912,918,927,934,942,974,994,1019,1040,1056,1068,1083,1090,1093,1094,1095,1095,1095,1095,1095,1095,1095,1095,1095,1096,1099],"ymouse":[544,544,546,547,547,547,547,547,547,547,547,547,547,547,547,547,547,547,547,547,547,547,547,547,547,547,547,547,547,547,547,547,547,547,547,547,547,547,547,547,547,547,547,547,547,547,547,547,547,547,547,547,547,547,547,547,547,547,547,547,547,547,547,547,547,546,546,545,544,543,543,537,534,528,521,497,485,473,462,450,417,404,393,380,366,334,320,304,291,278,226,200,175,159,149,142,128,122,118,114,111,111,111,111,111,111,110,108,105,103,94],"timestamp_mouse":[11,23,43,63,82,102,123,142,162,184,202,222,244,264,283,302,324,344,364,384,402,422,443,463,483,503,523,543,563,584,603,623,644,662,682,703,723,743,763,783,802,822,843,864,884,903,923,942,963,982,1003,1023,1043,1062,1082,1103,1123,1144,1164,1183,1202,1223,1242,1263,1283,1303,1322,1343,1362,1384,1403,1423,1442,1463,1482,1503,1523,1543,1563,1584,1604,1622,1643,1663,1682,1704,1722,1743,1763,1783,1803,1822,1842,1862,1882,1903,1923,1944,1964,1983,2004,2022,2042,2063,2082,2103,2122,2142,2163,2183,2203],"xSR":741.5,"ySR":469.95,"xT1":424.9,"yT1":0,"xT2":1058.1,"yT2":0,"toosoon":0,"cond_shown":"Incongruent","ratio_trial":100,"L_num":6,"L_den":12,"R_num":3,"R_den":5,"correct_side":2,"subjID":"ivonnensandoval22","gender":"1","school":"4","age":"10"},{"start_time":1552054206362,"click_time":1552054207860,"finger_time":1552054207400,"fix_duration":518.8044673431955,"trial":16,"RT":1038,"MT":460,"sideResp":1,"stimulus":[],"xmouse":[792,792,792,792,792,792,792,792,792,792,792,792,792,792,792,792,792,792,792,792,792,792,792,792,792,792,792,792,792,792,792,792,792,792,792,792,792,792,792,792,792,792,792,792,792,792,792,790,789,778,773,770,768,768,768,768,768,768,768,768,768,767,765,760,752,722,694,641,601,577,558,553,550,543,529,503],"ymouse":[524,524,524,524,524,524,524,524,524,524,524,524,524,524,524,524,524,524,524,524,524,524,524,524,524,524,524,524,524,524,524,524,524,524,524,524,524,524,524,524,524,524,524,524,524,524,524,521,517,492,478,470,465,465,465,465,465,465,465,465,464,461,458,447,426,357,305,209,142,102,70,61,55,46,27,4],"timestamp_mouse":[2,18,39,59,79,99,119,139,158,178,200,219,239,259,279,300,319,339,358,379,398,419,440,460,479,499,518,539,558,580,599,620,639,658,678,698,720,740,760,778,799,819,838,860,880,899,919,938,960,980,1000,1019,1038,1060,1079,1098,1118,1138,1158,1180,1198,1220,1239,1258,1279,1298,1320,1339,1360,1380,1398,1418,1439,1458,1479,1498],"xSR":741.5,"ySR":469.95,"xT1":424.9,"yT1":0,"xT2":1058.1,"yT2":0,"toosoon":0,"cond_shown":"Congruent","ratio_trial":200,"L_num":3,"L_den":6,"R_num":14,"R_den":20,"correct_side":2,"subjID":"ivonnensandoval22","gender":"1","school":"4","age":"10"},{"start_time":1552054210635,"click_time":1552054212242,"finger_time":1552054211501,"fix_duration":1372.4208890228542,"trial":17,"RT":866,"MT":741,"sideResp":2,"stimulus":[],"xmouse":[827,827,828,828,828,828,828,828,828,828,828,828,828,828,828,828,828,828,828,830,830,830,831,831,831,831,831,831,831,831,831,831,831,831,831,831,831,831,831,831,831,834,836,842,851,864,905,937,970,997,1018,1038,1042,1042,1042,1042,1042,1047,1051,1059,1071,1098,1106,1113,1117,1117,1117,1115,1110,1106,1104,1100,1100,1100,1100,1100,1100,1100,1100,1100,1100],"ymouse":[537,537,536,536,535,535,535,535,535,535,535,535,535,535,535,535,535,535,535,533,532,532,531,531,531,531,531,531,531,531,531,531,531,531,531,531,531,531,531,531,531,527,527,526,525,524,522,513,497,480,463,439,435,435,435,435,435,433,432,426,416,365,340,308,265,230,194,143,127,116,113,108,108,108,108,108,108,108,107,104,96],"timestamp_mouse":[15,25,45,65,85,105,127,146,166,185,205,226,246,267,286,306,326,345,367,386,405,425,446,465,485,506,525,546,565,585,605,626,647,666,685,706,725,747,765,787,805,825,846,866,885,905,926,945,966,985,1005,1026,1045,1066,1086,1106,1125,1145,1166,1186,1206,1226,1245,1265,1286,1307,1325,1345,1366,1387,1405,1426,1445,1466,1487,1506,1526,1545,1565,1585,1606],"xSR":741.5,"ySR":469.95,"xT1":424.9,"yT1":0,"xT2":1058.1,"yT2":0,"toosoon":0,"cond_shown":"Incongruent","ratio_trial":300,"L_num":4,"L_den":20,"R_num":2,"R_den":4,"correct_side":2,"subjID":"ivonnensandoval22","gender":"1","school":"4","age":"10"},{"start_time":1552054217493,"click_time":1552054218961,"finger_time":1552054218840,"fix_duration":1030.7766244222169,"trial":18,"RT":1347,"MT":121,"sideResp":1,"stimulus":[],"xmouse":[819,819,819,819,819,819,819,819,819,819,819,819,819,819,819,819,819,819,819,819,819,819,819,819,819,819,819,819,819,819,819,819,819,819,819,819,819,819,819,819,819,819,819,819,819,819,819,819,819,819,819,819,815,812,800,793,789,789,789,789,789,789,789,789,788,774,756,733,698,607,562,520,482,450],"ymouse":[514,514,514,514,514,514,514,514,514,514,514,514,514,514,514,514,514,514,514,514,514,514,514,514,514,514,514,514,514,514,514,514,514,514,514,514,514,514,514,514,514,514,514,514,514,514,514,514,514,514,514,514,514,514,511,509,507,507,507,507,507,507,507,507,507,503,493,480,455,379,306,207,100,12],"timestamp_mouse":[15,38,49,67,89,107,127,149,167,189,209,228,248,267,288,308,329,349,367,389,407,428,448,468,487,507,529,547,567,589,608,628,647,668,689,708,727,747,767,787,807,829,848,867,888,908,928,948,967,987,1008,1028,1048,1068,1087,1108,1129,1149,1168,1188,1208,1228,1247,1267,1287,1309,1328,1347,1367,1387,1409,1427,1447,1468],"xSR":741.5,"ySR":469.95,"xT1":424.9,"yT1":0,"xT2":1058.1,"yT2":0,"toosoon":0,"cond_shown":"Congruent","ratio_trial":300,"L_num":20,"L_den":25,"R_num":9,"R_den":18,"correct_side":1,"subjID":"ivonnensandoval22","gender":"1","school":"4","age":"10"},{"start_time":1552054221588,"click_time":1552054223000,"finger_time":1552054222581,"fix_duration":1305.4548245256258,"trial":19,"RT":993,"MT":419,"sideResp":1,"stimulus":[],"xmouse":[789,790,792,794,794,794,794,794,794,794,794,794,794,794,794,795,795,795,795,795,795,795,795,795,795,795,795,795,795,795,795,795,795,795,795,795,794,794,793,793,793,793,793,793,793,793,793,793,783,780,779,779,779,779,779,779,779,779,779,779,779,779,778,752,720,682,604,555,493,481],"ymouse":[548,547,545,543,543,543,543,543,543,543,543,543,543,543,543,543,543,543,543,543,543,543,543,543,543,543,543,543,543,543,543,543,543,537,537,537,536,534,533,532,531,531,530,530,528,525,519,495,445,424,417,415,415,415,415,414,414,413,412,408,405,399,388,341,297,252,181,144,105,94],"timestamp_mouse":[35,54,74,92,114,133,153,172,192,212,232,252,274,292,312,333,352,373,393,413,434,453,473,493,512,533,553,574,593,613,633,653,674,693,712,734,754,773,793,812,834,853,873,893,912,934,953,973,993,1013,1033,1054,1073,1093,1112,1132,1153,1172,1193,1214,1233,1253,1273,1293,1312,1334,1353,1373,1394,1412],"xSR":741.5,"ySR":469.95,"xT1":424.9,"yT1":0,"xT2":1058.1,"yT2":0,"toosoon":0,"cond_shown":"Congruent","ratio_trial":300,"L_num":24,"L_den":30,"R_num":8,"R_den":16,"correct_side":1,"subjID":"ivonnensandoval22","gender":"1","school":"4","age":"10"},{"start_time":1552054224914,"click_time":1552054227100,"finger_time":1552054226401,"fix_duration":971.9243343771216,"trial":20,"RT":1487,"MT":699,"sideResp":1,"stimulus":[],"xmouse":[764,759,759,752,748,748,748,748,748,748,748,748,748,748,749,749,750,750,750,750,750,750,750,750,750,750,750,750,750,750,750,750,750,750,750,750,750,750,750,750,750,750,750,750,750,750,750,750,750,750,750,750,750,750,750,750,750,750,750,750,750,750,750,750,750,750,750,750,751,754,757,759,762,766,788,796,801,804,806,806,806,798,789,779,758,746,737,727,719,712,708,706,704,700,682,665,646,628,611,592,583,580,579,579,577,572,565,553,542,519],"ymouse":[550,553,553,555,556,556,556,556,556,556,556,556,555,553,551,550,549,549,549,549,549,549,549,549,549,549,549,549,549,549,549,549,549,549,549,549,549,549,549,549,549,549,549,549,549,549,549,549,549,549,549,549,549,549,549,549,549,549,549,549,549,549,549,549,549,549,549,549,548,545,541,536,528,511,438,399,370,351,332,291,269,239,216,194,157,146,139,134,133,131,129,128,128,127,122,117,112,106,100,91,88,86,85,85,83,79,74,69,65,62],"timestamp_mouse":[13,41,47,66,86,107,127,147,166,186,208,227,248,268,286,306,326,346,368,386,408,427,447,466,487,508,527,547,566,587,608,628,647,667,688,707,728,747,766,787,808,828,846,867,888,906,926,947,968,987,1007,1027,1047,1066,1086,1106,1127,1148,1167,1187,1206,1226,1247,1268,1287,1307,1327,1347,1366,1387,1408,1426,1447,1466,1487,1508,1527,1546,1566,1586,1607,1626,1647,1667,1687,1706,1726,1746,1766,1786,1808,1826,1846,1866,1887,1907,1927,1948,1966,1986,2007,2027,2047,2066,2087,2107,2127,2146,2167,2186],"xSR":741.5,"ySR":469.95,"xT1":424.9,"yT1":0,"xT2":1058.1,"yT2":0,"toosoon":0,"cond_shown":"Congruent","ratio_trial":100,"L_num":15,"L_den":25,"R_num":13,"R_den":26,"correct_side":1,"subjID":"ivonnensandoval22","gender":"1","school":"4","age":"10"},{"start_time":1552054228313,"click_time":1552054230120,"finger_time":1552054229720,"fix_duration":250,"trial":21,"RT":1407,"MT":400,"sideResp":2,"stimulus":[],"xmouse":[832,831,831,829,827,826,825,825,825,825,825,825,825,825,825,825,825,825,825,825,825,825,825,825,825,825,825,825,825,825,825,825,825,825,825,825,825,825,825,825,825,825,825,825,825,825,825,825,825,825,825,825,825,825,825,825,825,825,825,825,825,825,825,825,825,825,825,825,826,838,846,854,858,861,874,891,914,945,969,1020,1044,1065,1080,1087,1099,1103,1106,1108,1108,1108,1110],"ymouse":[498,498,498,498,498,498,498,498,498,498,498,498,498,498,498,498,498,498,498,498,498,498,498,498,498,498,498,498,498,498,498,498,498,498,498,498,498,498,498,498,498,498,498,498,498,498,498,498,498,498,498,498,498,498,498,498,498,498,498,498,498,498,498,498,498,498,498,498,496,488,483,479,476,475,469,462,445,424,405,357,326,289,254,224,186,172,155,141,131,118,88],"timestamp_mouse":[14,39,48,68,87,108,127,148,167,187,208,229,247,268,289,308,329,348,367,387,408,427,447,467,489,509,527,549,568,587,607,629,648,668,688,709,727,749,768,787,808,829,848,868,887,909,928,947,969,987,1007,1028,1047,1069,1088,1109,1127,1148,1169,1187,1207,1229,1247,1267,1288,1307,1327,1349,1367,1387,1407,1428,1447,1467,1487,1509,1527,1547,1567,1588,1608,1627,1647,1667,1688,1708,1728,1749,1769,1787,1807],"xSR":741.5,"ySR":469.95,"xT1":424.9,"yT1":0,"xT2":1058.1,"yT2":0,"toosoon":0,"cond_shown":"Congruent","ratio_trial":200,"L_num":13,"L_den":26,"R_num":14,"R_den":20,"correct_side":2,"subjID":"ivonnensandoval22","gender":"1","school":"4","age":"10"},{"start_time":1552054231434,"click_time":1552054233403,"finger_time":1552054233040,"fix_duration":250,"trial":22,"RT":1606,"MT":363,"sideResp":2,"stimulus":[],"xmouse":[786,786,786,786,786,786,786,786,786,786,786,786,786,786,786,786,786,786,786,786,786,786,786,786,786,786,786,786,786,786,786,786,786,786,786,786,786,786,786,786,786,786,786,786,786,786,786,786,786,786,786,786,786,786,786,786,786,786,786,786,786,786,786,786,786,786,786,786,786,786,786,786,786,786,786,792,800,812,824,840,843,843,843,843,843,843,843,843,843,843,845,849,864,898,920,949,987,1025,1093],"ymouse":[523,523,523,523,523,523,523,523,523,523,523,523,523,523,523,523,523,523,523,523,523,523,523,523,523,523,523,523,523,523,523,523,523,523,523,523,523,523,523,523,523,523,523,523,523,523,523,523,523,523,523,523,523,523,523,523,523,523,523,523,523,523,523,523,523,523,523,523,523,523,523,523,523,523,521,517,511,499,489,475,471,471,471,471,471,471,471,471,471,471,469,463,439,395,361,313,241,162,35],"timestamp_mouse":[14,39,47,67,87,106,127,146,166,188,206,227,247,267,288,309,328,347,368,388,408,427,447,467,488,507,528,546,567,587,607,627,647,668,687,708,726,746,767,788,806,826,846,868,887,907,928,947,967,987,1006,1028,1048,1067,1088,1107,1127,1147,1167,1187,1206,1228,1247,1267,1286,1308,1328,1347,1367,1386,1406,1427,1446,1468,1488,1507,1526,1546,1567,1586,1606,1627,1647,1668,1688,1707,1726,1747,1768,1786,1807,1826,1847,1869,1886,1907,1926,1946,1968],"xSR":741.5,"ySR":469.95,"xT1":424.9,"yT1":0,"xT2":1058.1,"yT2":0,"toosoon":0,"cond_shown":"Congruent","ratio_trial":300,"L_num":1,"L_den":5,"R_num":11,"R_den":22,"correct_side":2,"subjID":"ivonnensandoval22","gender":"1","school":"4","age":"10"},{"start_time":1552054235645,"click_time":1552054238182,"finger_time":1552054237381,"fix_duration":1123.1636782140476,"trial":23,"RT":1736,"MT":801,"sideResp":1,"stimulus":[],"xmouse":[802,802,802,802,802,802,802,802,804,804,804,804,804,804,804,804,804,804,804,804,804,804,804,804,804,804,804,804,804,804,804,804,804,804,804,804,804,804,804,804,804,804,804,804,804,804,804,804,804,804,804,804,804,804,804,804,804,804,804,804,804,805,805,806,807,807,807,809,809,809,811,811,811,812,812,812,812,812,812,813,814,815,815,815,810,802,793,788,777,776,775,775,773,760,749,738,725,710,683,673,670,667,666,666,666,663,660,657,642,637,632,625,619,607,601,598,594,588,577,574,569,564,558,539,526,511,498],"ymouse":[548,548,547,546,546,545,544,543,541,541,541,541,541,541,541,541,541,541,541,541,541,541,541,541,541,541,541,541,541,541,541,541,541,541,541,541,541,541,541,541,541,541,541,541,541,541,541,541,541,541,541,541,541,541,541,541,541,541,541,541,541,541,541,541,541,541,541,540,540,540,539,539,538,537,537,537,537,536,536,533,531,527,523,507,495,481,467,458,438,435,431,423,412,376,355,339,324,308,282,273,270,267,266,265,265,261,256,249,226,220,212,205,197,183,176,171,168,163,154,151,146,141,136,122,112,102,94],"timestamp_mouse":[32,37,56,76,95,115,136,157,175,196,216,235,256,277,296,315,336,355,377,396,416,435,456,475,495,515,537,556,577,596,616,637,656,675,695,715,737,757,777,797,817,835,856,875,896,917,935,956,977,995,1015,1035,1055,1077,1096,1116,1137,1156,1177,1195,1216,1237,1255,1275,1295,1317,1336,1357,1375,1395,1415,1436,1457,1475,1496,1516,1536,1556,1576,1595,1615,1637,1655,1675,1695,1716,1736,1757,1776,1795,1815,1836,1855,1876,1895,1915,1935,1956,1975,1996,2015,2036,2056,2075,2095,2115,2136,2156,2176,2195,2217,2236,2257,2276,2295,2315,2336,2355,2376,2395,2416,2436,2455,2476,2496,2516,2537],"xSR":741.5,"ySR":469.95,"xT1":424.9,"yT1":0,"xT2":1058.1,"yT2":0,"toosoon":0,"cond_shown":"Incongruent","ratio_trial":100,"L_num":6,"L_den":10,"R_num":13,"R_den":26,"correct_side":1,"subjID":"ivonnensandoval22","gender":"1","school":"4","age":"10"},{"start_time":1552054243030,"click_time":1552054244341,"finger_time":1552054243700,"fix_duration":1488.1430351886463,"trial":24,"RT":670,"MT":641,"sideResp":1,"stimulus":[],"xmouse":[762,762,762,762,762,762,762,762,762,762,762,762,762,762,762,762,762,762,762,762,762,762,762,762,762,762,762,762,762,762,762,757,743,712,670,574,523,462,438,423,410,408,407,406,405,405,405,405,412,422,442,450,458,463,468,473,474,476,476,477,477,477,477,477,477,479],"ymouse":[507,507,507,507,507,507,507,507,507,507,507,507,507,507,507,507,507,507,507,507,507,507,507,507,507,507,507,507,507,507,506,500,490,468,443,406,394,379,375,373,371,370,370,365,346,296,259,235,215,199,176,171,169,169,169,169,169,168,165,158,139,128,119,109,101,89],"timestamp_mouse":[26,35,50,70,91,111,132,150,170,191,212,230,252,271,290,312,332,350,371,390,412,431,452,472,492,511,531,552,571,590,612,631,650,670,690,710,731,750,772,791,811,830,850,871,893,910,930,950,970,992,1011,1030,1051,1072,1091,1110,1132,1151,1171,1191,1211,1231,1251,1272,1291,1311],"xSR":741.5,"ySR":469.95,"xT1":424.9,"yT1":0,"xT2":1058.1,"yT2":0,"toosoon":0,"cond_shown":"Incongruent","ratio_trial":300,"L_num":4,"L_den":5,"R_num":8,"R_den":16,"correct_side":1,"subjID":"ivonnensandoval22","gender":"1","school":"4","age":"10"},{"start_time":1552054247042,"click_time":1552054248820,"finger_time":1552054247740,"fix_duration":1498.9702633184893,"trial":25,"RT":698,"MT":1080,"sideResp":1,"stimulus":[],"xmouse":[779,779,779,779,779,779,779,779,779,779,779,779,779,779,779,779,779,779,779,779,779,779,779,781,782,782,782,782,782,782,782,782,782,780,772,752,740,729,721,716,713,711,711,711,711,711,711,711,711,711,711,711,711,711,711,709,689,663,639,622,614,614,614,613,613,610,608,601,596,592,588,588,588,587,584,581,572,567,559,550,535,532,531,530,529,526,526,526,525,524],"ymouse":[516,516,516,516,516,516,516,516,516,516,516,516,516,516,516,516,516,516,516,516,516,516,516,510,502,502,502,502,502,502,502,502,499,494,471,436,417,402,392,385,379,377,377,377,377,377,377,377,377,377,377,377,377,377,377,375,362,340,321,311,309,309,309,309,309,303,291,270,248,227,189,174,165,155,142,136,121,117,112,106,97,95,94,93,91,89,89,88,87,86],"timestamp_mouse":[1,19,39,59,80,100,119,138,160,180,199,219,239,259,279,298,319,340,360,379,399,419,438,458,478,499,520,540,558,578,599,619,639,658,679,698,719,739,758,778,799,819,839,859,878,899,919,939,960,979,999,1019,1039,1058,1079,1098,1118,1138,1160,1180,1199,1218,1238,1259,1280,1300,1319,1339,1358,1379,1399,1418,1438,1458,1479,1499,1519,1538,1559,1578,1600,1618,1638,1659,1679,1699,1718,1739,1758,1778],"xSR":741.5,"ySR":469.95,"xT1":424.9,"yT1":0,"xT2":1058.1,"yT2":0,"toosoon":0,"cond_shown":"Incongruent","ratio_trial":200,"L_num":1,"L_den":3,"R_num":2,"R_den":15,"correct_side":1,"subjID":"ivonnensandoval22","gender":"1","school":"4","age":"10"},{"start_time":1552054251309,"click_time":1552054252521,"finger_time":1552054251962,"fix_duration":1425.5642192761288,"trial":26,"RT":653,"MT":559,"sideResp":1,"stimulus":[],"xmouse":[772,772,772,772,772,772,772,772,772,772,772,772,772,772,772,772,772,772,772,772,772,772,772,772,772,772,772,772,772,769,760,748,707,683,657,627,587,526,506,487,477,467,443,433,429,426,423,431,451,484,500,508,508,508,508,508,508,508,508,500,490],"ymouse":[530,530,530,530,530,530,530,530,530,530,530,530,530,530,530,530,530,530,530,530,530,530,530,530,530,530,530,530,530,530,526,523,514,511,506,502,493,476,469,455,442,424,365,343,327,310,289,216,179,145,133,127,123,121,120,120,120,120,118,105,87],"timestamp_mouse":[14,34,52,73,91,113,131,151,173,193,212,232,251,272,291,313,331,351,371,393,412,432,451,476,492,511,531,552,571,591,611,631,653,672,691,711,731,752,771,791,812,831,852,871,891,911,931,951,971,991,1012,1032,1052,1072,1091,1112,1131,1152,1172,1192,1212],"xSR":741.5,"ySR":469.95,"xT1":424.9,"yT1":0,"xT2":1058.1,"yT2":0,"toosoon":0,"cond_shown":"Incongruent","ratio_trial":300,"L_num":4,"L_den":5,"R_num":8,"R_den":16,"correct_side":1,"subjID":"ivonnensandoval22","gender":"1","school":"4","age":"10"},{"start_time":1552054261132,"click_time":1552054262561,"finger_time":1552054262161,"fix_duration":250,"trial":27,"RT":1029,"MT":400,"sideResp":1,"stimulus":[],"xmouse":[778,778,779,786,790,791,791,791,791,791,791,791,791,791,791,791,791,791,791,791,791,791,791,791,791,791,791,791,791,791,791,791,791,791,791,791,791,791,791,791,791,791,791,791,791,791,791,791,792,780,762,736,663,654,653,653,653,653,653,651,651,650,650,650,650,650,648,624,600,562,533,524],"ymouse":[529,529,529,529,528,528,528,528,528,528,528,528,528,528,528,528,528,528,528,528,528,528,528,528,528,528,528,528,528,528,528,528,528,528,528,528,528,528,528,528,528,528,528,528,528,528,528,528,524,516,509,497,474,468,466,462,458,448,446,444,444,444,444,444,443,441,426,336,255,166,94,56],"timestamp_mouse":[13,38,48,69,90,109,128,150,169,188,209,229,249,268,288,309,329,348,368,390,410,429,449,470,489,509,530,549,568,589,610,629,650,669,689,709,729,749,769,790,808,829,850,869,889,908,930,950,968,989,1008,1029,1049,1070,1088,1110,1128,1148,1168,1188,1208,1228,1249,1269,1289,1308,1328,1349,1370,1390,1408,1429],"xSR":741.5,"ySR":469.95,"xT1":424.9,"yT1":0,"xT2":1058.1,"yT2":0,"toosoon":0,"cond_shown":"Congruent","ratio_trial":300,"L_num":20,"L_den":25,"R_num":9,"R_den":18,"correct_side":1,"subjID":"ivonnensandoval22","gender":"1","school":"4","age":"10"},{"start_time":1552054267946,"click_time":1552054269642,"finger_time":1552054269242,"fix_duration":1404.9300949599829,"trial":28,"RT":1296,"MT":400,"sideResp":2,"stimulus":[],"xmouse":[800,800,800,800,800,800,800,800,800,800,800,800,800,800,800,800,800,800,800,800,800,800,800,800,800,800,800,800,800,800,800,800,800,800,800,800,800,800,800,800,800,800,800,800,800,800,800,800,800,800,800,800,800,800,800,800,800,800,800,800,800,803,815,834,856,877,900,944,950,963,968,973,984,996,1011,1031,1070,1092,1105,1113,1118,1124,1138,1144,1156],"ymouse":[537,537,537,537,537,537,537,537,537,537,537,537,537,537,537,537,537,537,537,537,537,537,537,537,537,537,537,537,537,537,537,537,537,537,537,537,537,537,537,537,537,537,537,537,537,537,537,537,537,537,537,537,537,537,537,537,537,537,537,537,537,535,524,507,490,472,450,406,399,383,376,372,360,344,323,289,246,223,213,206,201,190,142,104,61],"timestamp_mouse":[21,44,54,76,95,115,136,155,175,195,214,235,254,275,294,314,334,354,376,394,415,436,456,475,495,514,535,554,576,595,614,634,655,675,695,715,735,755,774,796,816,836,855,876,896,914,936,956,974,996,1016,1036,1054,1074,1095,1115,1134,1155,1174,1196,1215,1234,1254,1274,1296,1314,1335,1355,1375,1395,1415,1435,1455,1476,1496,1516,1536,1554,1574,1595,1614,1634,1654,1675,1696],"xSR":741.5,"ySR":469.95,"xT1":424.9,"yT1":0,"xT2":1058.1,"yT2":0,"toosoon":0,"cond_shown":"Incongruent","ratio_trial":300,"L_num":13,"L_den":26,"R_num":12,"R_den":15,"correct_side":2,"subjID":"ivonnensandoval22","gender":"1","school":"4","age":"10"},{"start_time":1552054276373,"click_time":1552054278461,"finger_time":1552054277982,"fix_duration":449.69343381731784,"trial":29,"RT":1609,"MT":479,"sideResp":1,"stimulus":[],"xmouse":[833,833,833,833,833,833,833,833,833,833,833,833,833,833,833,833,833,833,833,833,833,833,833,833,833,833,833,833,833,833,833,833,833,833,833,833,833,833,833,833,833,833,833,833,833,833,833,833,833,833,833,833,833,833,833,833,833,833,833,833,833,833,833,833,833,833,833,833,833,833,833,833,833,833,833,833,833,826,809,789,767,734,663,635,619,617,617,617,618,622,624,624,622,622,620,620,618,614,612,609,604,592,558,538,515],"ymouse":[529,529,529,529,529,529,529,529,529,529,529,529,529,529,529,529,529,529,529,529,529,529,529,529,529,529,529,529,529,529,529,529,529,529,529,529,529,529,529,529,529,529,529,529,529,529,529,529,529,529,529,529,529,529,529,529,529,529,529,529,529,529,529,529,529,529,529,529,529,529,529,529,529,529,529,529,529,524,509,491,463,421,301,251,205,190,178,172,166,154,139,127,106,102,101,99,98,95,94,93,90,86,80,77,74],"timestamp_mouse":[13,43,49,68,88,108,128,149,168,188,207,228,249,269,289,309,330,347,367,388,407,428,447,469,487,508,529,547,567,588,609,628,647,668,688,708,727,748,769,789,808,829,849,868,889,907,928,947,969,988,1008,1027,1047,1067,1087,1109,1128,1149,1167,1187,1208,1227,1248,1267,1289,1308,1327,1348,1367,1389,1409,1427,1448,1468,1488,1509,1527,1548,1567,1587,1609,1628,1647,1668,1687,1708,1729,1747,1768,1788,1809,1828,1847,1867,1887,1908,1929,1948,1969,1988,2008,2027,2047,2068,2088],"xSR":741.5,"ySR":469.95,"xT1":424.9,"yT1":0,"xT2":1058.1,"yT2":0,"toosoon":0,"cond_shown":"Congruent","ratio_trial":300,"L_num":8,"L_den":16,"R_num":1,"R_den":5,"correct_side":1,"subjID":"ivonnensandoval22","gender":"1","school":"4","age":"10"},{"start_time":1552054280217,"click_time":1552054281961,"finger_time":1552054281281,"fix_duration":653.0790674589601,"trial":30,"RT":1064,"MT":680,"sideResp":2,"stimulus":[],"xmouse":[782,782,782,782,784,785,785,785,785,785,785,785,785,785,785,785,785,785,785,785,785,785,785,785,785,785,785,785,785,785,785,785,785,785,785,785,785,785,785,785,785,785,785,785,785,785,785,785,785,785,794,804,818,832,847,866,874,881,889,897,911,911,911,911,915,946,966,996,1039,1116,1179,1198,1206,1207,1208,1209,1211,1211,1211,1211,1210,1210,1210,1210,1210,1193,1170,1138],"ymouse":[512,511,511,508,508,506,506,506,506,506,506,506,506,506,506,506,506,506,506,506,506,506,506,506,506,506,506,506,506,506,506,506,506,506,506,506,506,506,506,506,506,506,506,506,506,506,504,503,501,499,490,483,474,465,452,431,418,403,386,373,355,355,355,354,352,334,320,293,255,177,119,107,103,101,100,93,87,82,77,72,68,68,68,68,68,68,67,66],"timestamp_mouse":[12,40,45,64,85,104,123,145,165,184,203,224,243,264,284,304,324,344,364,385,403,425,443,464,484,505,524,544,564,585,603,623,645,663,684,705,724,745,764,785,803,824,844,865,884,903,924,944,964,984,1004,1023,1045,1064,1085,1104,1123,1145,1164,1184,1204,1223,1243,1263,1283,1304,1324,1343,1364,1383,1404,1423,1443,1464,1484,1504,1523,1545,1565,1585,1604,1624,1644,1663,1684,1704,1724,1743],"xSR":741.5,"ySR":469.95,"xT1":424.9,"yT1":0,"xT2":1058.1,"yT2":0,"toosoon":0,"cond_shown":"Congruent","ratio_trial":200,"L_num":3,"L_den":10,"R_num":14,"R_den":28,"correct_side":2,"subjID":"ivonnensandoval22","gender":"1","school":"4","age":"10"},{"start_time":1552054283813,"click_time":1552054285980,"finger_time":1552054285222,"fix_duration":750.5056214470142,"trial":31,"RT":1409,"MT":758,"sideResp":1,"stimulus":[],"xmouse":[782,782,782,782,782,782,782,782,782,782,782,782,782,782,782,782,782,782,782,782,782,782,782,782,782,782,781,779,778,778,777,777,777,777,777,777,777,777,777,777,777,777,777,777,777,777,777,777,777,777,777,777,777,777,777,777,777,777,777,777,777,777,777,777,777,777,772,770,758,750,740,739,739,739,739,739,734,730,722,717,698,686,674,659,645,632,610,602,586,580,574,569,569,569,569,567,565,564,561,559,556,552,550,550,549,542,535,532,521],"ymouse":[525,525,525,525,525,525,525,525,525,525,525,525,525,525,525,525,525,525,525,525,525,525,525,525,525,525,523,521,520,519,518,518,518,518,518,518,518,518,518,518,518,518,518,518,518,518,518,518,518,518,518,518,518,518,518,518,518,518,518,518,518,518,518,518,518,518,514,513,506,502,497,496,496,496,496,496,489,484,471,461,428,407,381,353,327,303,262,243,211,186,164,143,139,134,130,123,116,114,107,103,100,96,96,95,94,85,77,75,70],"timestamp_mouse":[12,39,48,69,88,108,127,147,169,188,208,228,248,267,288,308,327,349,368,389,408,428,448,468,489,508,527,547,567,587,609,629,647,669,689,708,728,747,767,787,807,827,849,868,888,908,929,948,968,987,1008,1028,1048,1068,1087,1109,1129,1148,1168,1187,1209,1228,1247,1268,1289,1308,1327,1347,1367,1387,1409,1428,1447,1468,1488,1508,1527,1548,1567,1587,1609,1627,1648,1667,1687,1707,1727,1748,1768,1787,1807,1828,1849,1868,1887,1910,1928,1948,1967,1988,2008,2027,2048,2068,2088,2110,2128,2148,2167],"xSR":741.5,"ySR":469.95,"xT1":424.9,"yT1":0,"xT2":1058.1,"yT2":0,"toosoon":0,"cond_shown":"Congruent","ratio_trial":100,"L_num":11,"L_den":22,"R_num":6,"R_den":15,"correct_side":1,"subjID":"ivonnensandoval22","gender":"1","school":"4","age":"10"},{"start_time":1552054287234,"click_time":1552054289580,"finger_time":1552054288180,"fix_duration":310.1107223625893,"trial":32,"RT":946,"MT":1400,"sideResp":1,"stimulus":[],"xmouse":[777,777,777,777,777,777,777,777,777,777,777,777,777,777,777,777,777,777,777,777,777,777,777,777,777,777,777,777,777,777,777,777,777,777,777,777,777,777,777,776,774,770,769,769,769,778,783,785,785,786,786,786,786,786,786,786,786,786,786,786,786,786,786,786,786,785,781,777,775,774,772,772,772,772,772,771,771,771,770,770,770,770,770,770,770,770,770,770,770,770,770,769,769,765,760,741,733,725,716,703,678,668,661,654,649,643,616,605,601,599,596,592,582,573,561,536,526,523],"ymouse":[526,526,526,524,523,521,521,521,520,519,518,518,517,517,517,516,516,515,515,515,514,514,514,514,514,514,514,514,514,512,511,510,510,510,510,510,510,510,510,508,506,504,502,497,492,476,471,468,467,466,466,466,466,466,466,466,466,466,466,466,466,466,466,466,466,466,473,481,490,496,502,504,507,511,514,518,519,520,521,521,521,521,521,521,521,521,521,521,521,521,521,516,513,502,490,447,423,396,363,329,281,266,254,244,238,231,212,205,202,200,193,185,173,161,143,108,80,68],"timestamp_mouse":[13,39,47,67,87,106,126,148,167,187,206,227,247,268,288,306,326,347,367,387,407,426,447,468,487,507,527,548,567,588,606,628,648,667,686,706,728,746,768,787,807,826,847,868,887,906,928,946,967,987,1008,1026,1046,1067,1087,1107,1128,1147,1168,1187,1207,1227,1247,1267,1287,1307,1327,1348,1366,1386,1407,1427,1448,1468,1486,1506,1527,1548,1566,1588,1606,1626,1647,1668,1686,1706,1728,1748,1767,1788,1806,1827,1846,1866,1888,1907,1927,1946,1967,1987,2006,2026,2048,2067,2088,2106,2127,2146,2166,2187,2207,2227,2246,2267,2287,2308,2327,2346],"xSR":741.5,"ySR":469.95,"xT1":424.9,"yT1":0,"xT2":1058.1,"yT2":0,"toosoon":0,"cond_shown":"Congruent","ratio_trial":300,"L_num":2,"L_den":10,"R_num":12,"R_den":24,"correct_side":2,"subjID":"ivonnensandoval22","gender":"1","school":"4","age":"10"},{"start_time":1552054292388,"click_time":1552054294142,"finger_time":1552054293841,"fix_duration":344.0143844994077,"trial":33,"RT":1453,"MT":301,"sideResp":1,"stimulus":[],"xmouse":[822,822,822,822,822,822,822,822,822,822,822,822,822,822,822,822,822,822,822,822,822,822,822,822,822,822,822,822,822,822,822,822,822,822,822,822,822,822,822,822,822,822,822,822,822,822,822,822,822,822,822,822,823,823,823,823,823,823,823,823,823,823,823,823,823,823,823,823,823,823,823,823,804,763,684,659,593,549,546,546,546,545,542,534,531,527,526,524],"ymouse":[518,518,518,518,518,518,518,518,518,518,518,518,518,518,518,518,518,518,518,518,518,518,518,518,518,518,518,518,518,518,518,518,518,518,518,518,518,518,518,518,518,518,518,518,518,518,518,518,518,518,516,510,495,495,495,495,495,495,495,495,495,495,495,495,495,495,495,495,495,495,495,484,428,351,242,214,148,110,107,107,107,103,96,83,80,79,79,79],"timestamp_mouse":[13,35,53,73,93,114,133,153,173,193,214,234,253,274,294,313,332,353,372,394,413,432,453,473,493,512,534,553,572,594,613,632,652,674,694,713,733,753,773,794,813,834,854,872,892,913,934,953,973,992,1014,1033,1054,1073,1092,1114,1133,1153,1173,1193,1212,1233,1252,1273,1293,1314,1332,1353,1373,1392,1413,1433,1453,1472,1493,1513,1533,1555,1573,1593,1612,1633,1654,1673,1694,1725,1732,1754],"xSR":741.5,"ySR":469.95,"xT1":424.9,"yT1":0,"xT2":1058.1,"yT2":0,"toosoon":0,"cond_shown":"Incongruent","ratio_trial":300,"L_num":1,"L_den":2,"R_num":2,"R_den":10,"correct_side":1,"subjID":"ivonnensandoval22","gender":"1","school":"4","age":"10"},{"start_time":1552054295871,"click_time":1552054297661,"finger_time":1552054296881,"fix_duration":789.8340803591833,"trial":34,"RT":1010,"MT":780,"sideResp":2,"stimulus":[],"xmouse":[781,781,781,781,781,781,781,781,781,781,781,781,781,781,781,781,781,781,781,781,781,781,781,781,781,781,781,781,781,781,781,781,781,781,781,781,781,781,781,781,781,781,781,781,781,781,781,785,792,831,856,868,872,872,872,872,872,872,872,872,872,872,872,872,872,872,874,877,885,928,962,1000,1041,1075,1129,1147,1159,1166,1168,1169,1169,1169,1169,1168,1167,1166,1166,1164,1162,1151],"ymouse":[508,508,508,508,508,508,508,508,508,508,508,508,508,508,508,508,508,508,508,508,508,508,508,508,508,508,508,508,508,508,508,508,508,508,508,508,508,508,508,508,508,508,508,508,508,508,508,508,505,478,456,446,442,442,442,442,442,442,442,442,442,442,442,442,442,442,440,437,428,368,321,271,233,207,176,160,144,129,121,110,109,108,107,106,105,104,102,100,98,89],"timestamp_mouse":[12,41,49,70,90,110,130,151,170,190,210,231,249,271,291,310,330,351,370,391,410,430,451,469,490,510,531,550,570,591,610,629,651,669,691,710,731,751,770,791,810,830,851,871,890,909,931,949,970,989,1010,1031,1050,1070,1090,1109,1130,1149,1171,1190,1210,1229,1250,1271,1289,1310,1330,1350,1370,1390,1410,1430,1450,1471,1489,1509,1529,1550,1569,1590,1610,1629,1651,1671,1690,1711,1731,1750,1770,1790],"xSR":741.5,"ySR":469.95,"xT1":424.9,"yT1":0,"xT2":1058.1,"yT2":0,"toosoon":0,"cond_shown":"Congruent","ratio_trial":300,"L_num":1,"L_den":30,"R_num":8,"R_den":24,"correct_side":2,"subjID":"ivonnensandoval22","gender":"1","school":"4","age":"10"},{"start_time":1552054301294,"click_time":1552054302942,"finger_time":1552054302662,"fix_duration":250,"trial":35,"RT":1368,"MT":280,"sideResp":2,"stimulus":[],"xmouse":[813,813,813,812,812,812,812,812,812,812,812,812,812,812,812,812,812,812,812,812,812,812,812,812,812,812,812,812,812,812,812,812,813,814,814,814,814,814,814,814,814,814,815,815,815,815,815,815,815,815,815,815,815,815,815,815,815,815,815,815,815,815,815,815,816,816,817,817,819,827,840,857,870,877,885,892,895,910,951,983,1014,1042,1061],"ymouse":[549,549,549,548,547,547,547,547,547,547,547,547,547,547,547,547,547,547,547,547,547,547,547,547,547,547,547,547,547,547,547,546,545,545,545,544,544,544,544,544,544,543,543,542,542,542,542,542,542,542,542,542,542,542,539,539,539,538,537,537,537,537,537,537,533,531,516,502,452,427,407,387,371,361,347,335,328,296,229,185,143,106,77],"timestamp_mouse":[13,37,47,66,88,108,128,148,167,186,206,227,247,267,288,307,327,346,368,387,408,427,447,467,488,507,527,546,568,588,608,627,646,668,687,707,727,748,767,787,807,827,846,868,888,907,928,948,967,988,1007,1028,1048,1067,1087,1107,1127,1147,1168,1187,1207,1228,1247,1267,1286,1307,1328,1347,1368,1387,1407,1427,1447,1466,1486,1506,1527,1546,1569,1587,1608,1628,1648],"xSR":741.5,"ySR":469.95,"xT1":424.9,"yT1":0,"xT2":1058.1,"yT2":0,"toosoon":0,"cond_shown":"Congruent","ratio_trial":100,"L_num":6,"L_den":20,"R_num":5,"R_den":25,"correct_side":1,"subjID":"ivonnensandoval22","gender":"1","school":"4","age":"10"},{"start_time":1552054313512,"click_time":1552054315301,"finger_time":1552054314942,"fix_duration":250,"trial":36,"RT":1430,"MT":359,"sideResp":2,"stimulus":[],"xmouse":[772,772,772,772,772,772,772,772,772,772,772,772,772,772,772,772,772,772,772,772,772,772,772,772,772,772,772,772,772,772,772,772,772,772,772,772,772,772,772,772,772,772,772,772,772,772,772,772,772,772,772,772,772,772,772,772,772,772,772,772,772,772,772,772,772,772,772,772,772,772,772,790,825,868,900,908,913,920,929,969,985,995,998,999,1000,1001,1004,1015,1035,1094],"ymouse":[497,497,497,497,497,497,497,497,497,497,497,497,497,497,497,497,497,497,497,497,497,497,497,497,497,497,497,497,497,497,497,497,497,497,497,497,497,497,497,497,497,497,497,497,497,497,497,497,497,497,497,497,497,497,497,497,497,497,497,497,497,497,497,497,497,497,497,497,497,497,496,468,405,345,297,275,253,231,205,128,110,96,91,88,84,83,83,82,80,80],"timestamp_mouse":[10,29,48,68,89,109,130,150,168,189,209,228,250,269,289,309,329,348,368,389,408,429,449,469,490,509,528,549,569,590,608,629,650,669,689,709,729,750,769,790,809,829,850,869,890,909,929,949,969,990,1008,1030,1050,1070,1090,1109,1129,1148,1168,1188,1208,1230,1249,1269,1290,1309,1329,1349,1369,1388,1409,1430,1448,1468,1488,1508,1530,1548,1568,1589,1608,1629,1650,1670,1689,1709,1728,1749,1770,1789],"xSR":741.5,"ySR":469.95,"xT1":424.9,"yT1":0,"xT2":1058.1,"yT2":0,"toosoon":0,"cond_shown":"Congruent","ratio_trial":100,"L_num":6,"L_den":20,"R_num":5,"R_den":25,"correct_side":1,"subjID":"ivonnensandoval22","gender":"1","school":"4","age":"10"},{"start_time":1552054320599,"click_time":1552054322441,"finger_time":1552054321980,"fix_duration":1016.618763753274,"trial":37,"RT":1381,"MT":461,"sideResp":1,"stimulus":[],"xmouse":[791,791,791,791,791,791,791,791,790,790,790,790,790,790,790,790,790,790,790,790,790,790,790,790,790,790,790,790,790,790,790,790,790,790,790,790,790,790,790,790,790,790,790,790,790,790,790,790,790,790,790,790,790,790,790,790,790,790,790,790,790,790,790,790,790,790,787,779,765,745,691,650,636,629,625,623,623,623,619,590,568,559,557,556,556,554,553,552,549,547,533,508],"ymouse":[482,482,482,482,482,482,482,482,482,482,482,482,482,482,482,482,482,482,482,482,482,482,482,482,482,482,482,482,482,482,482,483,483,483,483,483,483,483,483,483,483,483,483,483,483,483,483,483,483,483,483,483,483,483,483,483,483,483,483,483,483,483,483,483,483,483,481,473,458,440,392,369,361,357,348,331,317,300,274,191,146,133,126,123,121,112,106,101,96,94,80,68],"timestamp_mouse":[23,44,61,82,103,122,142,161,181,202,222,242,263,282,302,321,341,363,383,402,423,442,463,481,501,522,543,563,582,602,621,643,662,681,703,721,741,762,783,801,822,842,863,882,902,923,943,963,981,1002,1022,1043,1063,1082,1101,1123,1143,1161,1182,1203,1222,1241,1262,1282,1303,1322,1342,1363,1381,1402,1422,1442,1462,1482,1501,1522,1543,1563,1583,1604,1622,1642,1662,1682,1702,1721,1741,1761,1783,1802,1821,1842],"xSR":741.5,"ySR":469.95,"xT1":424.9,"yT1":0,"xT2":1058.1,"yT2":0,"toosoon":0,"cond_shown":"Incongruent","ratio_trial":200,"L_num":7,"L_den":10,"R_num":8,"R_den":16,"correct_side":1,"subjID":"ivonnensandoval22","gender":"1","school":"4","age":"10"},{"start_time":1552054324100,"click_time":1552054325721,"finger_time":1552054325580,"fix_duration":398.89382414580166,"trial":38,"RT":1480,"MT":141,"sideResp":1,"stimulus":[],"xmouse":[783,783,783,783,783,783,780,780,780,780,779,779,777,777,776,776,775,775,775,775,775,774,774,774,774,774,774,774,774,774,774,774,774,774,774,774,774,774,774,774,774,774,774,774,774,774,774,774,774,774,774,774,774,774,774,774,774,774,774,774,774,774,774,774,774,774,774,774,774,772,770,760,755,745,734,718,685,658,617,579,540,480],"ymouse":[514,514,514,514,514,514,514,514,514,514,514,514,513,513,512,512,512,512,512,512,512,512,512,512,512,512,512,512,512,512,512,512,512,512,512,512,512,512,512,512,512,512,512,512,512,512,512,512,512,512,512,512,512,512,512,512,512,512,512,512,512,512,512,512,512,512,512,512,512,511,509,505,503,496,489,476,412,350,278,209,130,21],"timestamp_mouse":[10,36,41,61,81,100,120,141,162,181,200,220,241,261,280,301,321,341,361,381,401,422,440,460,481,502,521,541,561,580,600,620,642,661,681,702,721,741,761,782,800,820,840,862,882,901,920,941,960,980,1002,1021,1042,1060,1081,1101,1121,1140,1160,1182,1202,1222,1240,1261,1280,1300,1320,1342,1362,1382,1402,1420,1441,1460,1480,1501,1521,1541,1561,1581,1600,1621],"xSR":741.5,"ySR":469.95,"xT1":424.9,"yT1":0,"xT2":1058.1,"yT2":0,"toosoon":0,"cond_shown":"Congruent","ratio_trial":100,"L_num":11,"L_den":22,"R_num":6,"R_den":15,"correct_side":1,"subjID":"ivonnensandoval22","gender":"1","school":"4","age":"10"},{"start_time":1552054327192,"click_time":1552054329502,"finger_time":1552054328745,"fix_duration":250,"trial":39,"RT":1553,"MT":757,"sideResp":2,"stimulus":[],"xmouse":[780,780,780,780,780,780,780,780,780,780,780,780,780,780,780,780,780,780,780,780,780,780,780,780,780,780,780,780,780,780,780,780,780,780,780,780,780,780,780,780,780,780,780,780,780,780,780,780,780,780,780,780,780,780,780,780,780,780,780,780,780,780,780,780,780,780,780,780,780,780,780,780,780,780,780,780,781,774,763,753,748,746,746,749,758,776,799,873,908,953,968,989,1003,1020,1044,1067,1083,1093,1095,1095,1095,1095,1095,1095,1095,1095,1095,1095,1095,1095,1095,1095,1095,1095,1095,1095],"ymouse":[493,493,493,493,493,493,493,493,493,493,493,493,493,493,493,493,493,493,493,493,493,493,493,493,493,493,493,493,493,493,493,493,493,493,493,493,493,493,493,493,493,493,493,493,493,493,493,493,493,493,493,493,493,493,493,493,493,493,493,493,493,493,493,493,493,493,493,493,493,493,493,493,493,493,493,493,492,427,374,331,301,284,272,269,262,255,245,222,213,201,193,185,179,170,161,151,142,129,120,117,114,113,110,109,106,105,105,105,105,105,104,104,101,101,100,98],"timestamp_mouse":[14,47,49,68,88,108,129,148,169,189,210,228,249,270,289,310,329,349,370,389,408,428,449,469,490,510,528,548,570,590,608,628,649,670,689,710,729,749,769,790,809,829,849,869,889,909,930,949,969,988,1008,1028,1049,1069,1089,1110,1129,1150,1169,1188,1209,1230,1250,1269,1289,1308,1330,1350,1369,1390,1409,1430,1449,1469,1489,1509,1528,1553,1568,1588,1609,1630,1649,1669,1689,1709,1730,1749,1768,1788,1809,1830,1849,1869,1889,1909,1929,1948,1969,1988,2009,2029,2049,2069,2088,2109,2130,2149,2169,2188,2209,2230,2250,2269,2289,2310],"xSR":741.5,"ySR":469.95,"xT1":424.9,"yT1":0,"xT2":1058.1,"yT2":0,"toosoon":0,"cond_shown":"Incongruent","ratio_trial":100,"L_num":10,"L_den":25,"R_num":8,"R_den":16,"correct_side":2,"subjID":"ivonnensandoval22","gender":"1","school":"4","age":"10"},{"start_time":1552054331843,"click_time":1552054333741,"finger_time":1552054333241,"fix_duration":1200.807929132916,"trial":40,"RT":1398,"MT":500,"sideResp":2,"stimulus":[],"xmouse":[758,758,758,758,758,758,758,758,758,758,757,757,757,757,757,757,757,757,757,757,757,757,757,757,757,757,757,757,757,757,757,757,757,757,757,757,757,757,757,757,757,757,757,757,757,757,757,757,757,757,757,757,758,760,763,773,777,779,779,779,779,779,779,779,779,779,779,779,781,789,794,800,807,822,847,859,869,880,894,946,977,1007,1029,1044,1044,1044,1044,1044,1044,1044,1044,1044,1044,1044,1095],"ymouse":[515,515,515,515,515,515,515,515,515,515,515,515,515,515,515,515,515,515,515,515,515,515,515,515,515,515,515,515,515,515,515,515,515,515,515,515,515,515,515,515,515,515,515,515,515,515,515,515,515,515,515,515,513,509,504,486,480,477,477,477,477,477,477,477,477,477,477,477,474,462,456,445,434,415,385,372,356,338,313,220,157,97,46,11,11,11,11,11,11,11,11,11,11,11,22],"timestamp_mouse":[18,37,58,79,99,118,137,158,177,199,217,238,259,278,297,318,339,359,378,397,417,439,458,478,497,519,538,557,579,599,619,638,657,679,699,719,739,758,778,799,819,838,857,878,899,918,937,958,979,998,1019,1039,1058,1079,1097,1118,1139,1159,1177,1197,1217,1238,1259,1279,1299,1318,1338,1358,1377,1398,1418,1439,1459,1479,1498,1519,1539,1558,1578,1597,1617,1637,1657,1678,1698,1718,1738,1758,1779,1798,1818,1838,1858,1879,1898],"xSR":741.5,"ySR":469.95,"xT1":424.9,"yT1":0,"xT2":1058.1,"yT2":0,"toosoon":0,"cond_shown":"Congruent","ratio_trial":300,"L_num":3,"L_den":6,"R_num":4,"R_den":5,"correct_side":2,"subjID":"ivonnensandoval22","gender":"1","school":"4","age":"10"},{"start_time":1552054335292,"click_time":1552054338322,"finger_time":1552054337241,"fix_duration":250,"trial":41,"RT":1949,"MT":1081,"sideResp":2,"stimulus":[],"xmouse":[827,827,827,827,827,827,827,827,827,827,827,827,827,827,827,827,827,827,827,827,827,827,827,827,827,827,827,827,827,827,827,827,827,827,827,827,827,827,827,827,827,827,827,827,827,827,827,827,827,827,827,827,827,827,827,827,827,827,827,827,827,827,827,827,827,827,827,827,827,827,827,827,827,827,827,827,827,827,827,827,827,827,827,827,827,827,827,825,824,823,823,823,820,818,817,815,811,808,806,803,800,796,792,781,777,776,776,775,773,769,768,766,764,764,764,764,766,772,794,809,823,827,830,831,831,832,836,846,850,853,855,858,861,884,904,925,945,966,998,1022,1033,1042,1052,1053,1053,1053,1053,1053,1056,1058,1058,1059],"ymouse":[563,563,563,563,563,563,563,563,563,563,563,563,563,563,563,563,563,563,563,563,563,563,563,563,563,563,563,563,563,563,563,563,563,563,563,563,563,563,563,563,563,563,563,563,563,563,563,563,563,563,563,563,563,563,563,563,563,563,563,563,563,563,563,563,563,563,563,563,563,563,563,563,563,563,563,563,563,563,563,563,563,563,563,563,563,563,563,561,557,552,550,542,523,508,499,489,476,467,453,445,430,418,405,383,377,374,372,371,366,360,357,353,348,345,342,340,336,329,315,309,299,295,285,279,272,264,260,251,247,244,242,241,240,237,234,232,228,223,212,203,197,190,174,163,152,139,126,116,94,80,71,64],"timestamp_mouse":[13,39,49,69,89,108,129,149,169,189,209,228,249,269,288,309,330,349,370,390,409,429,448,470,489,510,529,549,569,590,610,629,649,669,688,709,730,749,769,790,810,828,849,870,889,910,930,949,970,990,1010,1029,1049,1068,1089,1110,1130,1150,1170,1188,1208,1230,1248,1269,1289,1310,1328,1350,1369,1389,1409,1430,1449,1468,1489,1508,1528,1549,1570,1589,1609,1630,1648,1670,1689,1708,1729,1749,1769,1790,1809,1829,1849,1868,1889,1909,1929,1949,1969,1988,2008,2028,2050,2070,2089,2109,2128,2150,2169,2189,2209,2228,2250,2269,2289,2309,2329,2349,2369,2388,2408,2429,2450,2468,2489,2510,2529,2549,2568,2590,2610,2629,2649,2670,2689,2710,2728,2749,2768,2790,2809,2829,2851,2869,2890,2910,2929,2948,2968,2988,3009,3030],"xSR":741.5,"ySR":469.95,"xT1":424.9,"yT1":0,"xT2":1058.1,"yT2":0,"toosoon":0,"cond_shown":"Incongruent","ratio_trial":200,"L_num":14,"L_den":30,"R_num":12,"R_den":18,"correct_side":2,"subjID":"ivonnensandoval22","gender":"1","school":"4","age":"10"},{"start_time":1552054342516,"click_time":1552054344221,"finger_time":1552054343761,"fix_duration":654.811871278995,"trial":42,"RT":1245,"MT":460,"sideResp":2,"stimulus":[],"xmouse":[790,790,790,790,790,790,790,790,790,790,790,790,790,790,790,790,790,790,790,790,790,790,790,790,790,790,790,790,790,790,790,790,790,790,790,790,790,790,790,790,790,790,790,790,790,790,790,790,790,790,790,791,793,796,796,796,796,791,790,790,790,790,805,815,830,849,871,927,941,941,941,941,941,941,941,941,941,941,941,941,941,941,941,941,941,1095],"ymouse":[537,537,537,537,537,537,537,537,537,537,537,537,537,537,537,537,537,537,537,537,537,537,537,537,537,537,537,537,537,537,537,537,537,537,537,537,537,537,537,537,537,537,537,537,537,537,537,537,537,537,537,537,537,533,529,525,522,514,513,511,506,495,460,435,396,328,247,57,10,10,10,10,10,10,10,10,10,10,10,10,10,10,10,10,10,2],"timestamp_mouse":[13,26,44,66,85,106,124,144,165,186,205,225,245,265,284,305,326,344,364,385,405,425,445,464,485,506,526,545,564,584,604,626,644,665,684,706,724,744,765,786,804,826,845,865,886,905,926,945,966,985,1005,1025,1045,1065,1084,1105,1126,1145,1164,1184,1205,1225,1245,1264,1284,1304,1324,1345,1365,1384,1404,1424,1445,1464,1485,1505,1525,1545,1564,1585,1606,1626,1645,1664,1685,1705],"xSR":741.5,"ySR":469.95,"xT1":424.9,"yT1":0,"xT2":1058.1,"yT2":0,"toosoon":0,"cond_shown":"Congruent","ratio_trial":300,"L_num":4,"L_den":20,"R_num":13,"R_den":26,"correct_side":2,"subjID":"ivonnensandoval22","gender":"1","school":"4","age":"10"},{"start_time":1552054345771,"click_time":1552054347101,"finger_time":1552054346701,"fix_duration":688.5570345987193,"trial":43,"RT":930,"MT":400,"sideResp":1,"stimulus":[],"xmouse":[801,801,801,801,801,801,801,801,801,801,801,801,801,801,801,801,801,801,801,801,801,801,801,801,801,801,801,801,801,801,801,801,801,801,801,801,797,786,775,757,750,750,749,748,746,742,740,736,731,724,712,707,703,694,681,675,669,663,659,652,638,627,603,579,557,531,509],"ymouse":[515,515,515,515,515,515,515,515,515,515,515,515,515,515,515,515,515,515,515,515,515,515,515,515,515,515,515,515,515,515,515,515,515,515,515,515,515,511,507,502,499,498,498,498,497,491,488,486,483,480,475,473,470,466,460,457,455,452,449,443,426,409,361,311,255,166,89],"timestamp_mouse":[13,41,51,70,89,111,131,151,169,190,211,230,249,269,290,311,330,349,369,391,410,431,450,471,490,511,531,551,570,591,611,630,649,670,689,709,730,751,769,791,810,831,851,871,889,909,930,951,971,990,1010,1029,1049,1069,1091,1109,1130,1150,1171,1190,1210,1230,1249,1270,1289,1313,1330],"xSR":741.5,"ySR":469.95,"xT1":424.9,"yT1":0,"xT2":1058.1,"yT2":0,"toosoon":0,"cond_shown":"Incongruent","ratio_trial":100,"L_num":9,"L_den":15,"R_num":14,"R_den":28,"correct_side":1,"subjID":"ivonnensandoval22","gender":"1","school":"4","age":"10"},{"start_time":1552054356653,"click_time":1552054358701,"finger_time":1552054357360,"fix_duration":809.9393078915494,"trial":44,"RT":707,"MT":1341,"sideResp":2,"stimulus":[],"xmouse":[787,787,787,787,787,787,787,787,787,787,787,787,788,795,814,818,816,812,811,811,811,811,811,811,811,811,811,811,811,811,811,811,811,811,809,804,801,796,794,792,791,789,785,784,783,783,783,783,783,783,784,789,803,809,815,823,832,856,870,882,894,901,911,914,918,924,931,950,960,968,976,983,997,1003,1015,1015,1015,1015,1015,1150,1194,1227,1268,1269,1269,1269,1269,1269,1265,1259,1248,1229,1188,1184,1181,1181,1181,1181,1180,1180,1175,1163,1112],"ymouse":[547,547,547,547,547,547,547,547,547,547,547,547,542,534,508,499,487,482,481,481,481,481,481,481,481,481,481,481,481,481,481,481,481,481,477,468,460,449,446,443,441,438,430,428,427,427,426,425,423,418,409,397,363,350,338,325,312,287,277,268,258,251,238,232,223,208,194,156,137,118,100,83,36,18,1,1,1,1,1,0,12,24,45,46,47,48,48,52,57,63,72,81,92,93,93,93,93,93,93,93,93,93,93],"timestamp_mouse":[19,27,48,69,88,109,129,149,168,188,208,228,248,268,287,309,329,347,369,388,408,428,448,467,488,508,527,548,569,588,608,629,649,669,689,707,728,748,769,787,807,828,848,868,888,908,928,947,967,987,1008,1029,1048,1068,1088,1109,1129,1147,1167,1189,1208,1227,1247,1268,1287,1309,1329,1348,1368,1389,1408,1429,1448,1468,1488,1508,1530,1548,1569,1587,1608,1629,1647,1667,1689,1707,1728,1747,1768,1789,1808,1829,1847,1869,1888,1909,1928,1948,1967,1987,2008,2028,2047],"xSR":741.5,"ySR":469.95,"xT1":424.9,"yT1":0,"xT2":1058.1,"yT2":0,"toosoon":0,"cond_shown":"Incongruent","ratio_trial":300,"L_num":4,"L_den":20,"R_num":2,"R_den":4,"correct_side":2,"subjID":"ivonnensandoval22","gender":"1","school":"4","age":"10"},{"start_time":1552054360062,"click_time":1552054363181,"finger_time":1552054361401,"fix_duration":458.2806796949427,"trial":45,"RT":1339,"MT":1780,"sideResp":1,"stimulus":[],"xmouse":[778,778,778,778,778,778,778,778,778,778,778,778,778,778,778,778,778,778,778,778,778,778,778,778,778,778,778,778,778,778,778,778,778,778,778,778,778,778,778,778,778,778,778,778,778,778,778,778,779,779,779,779,778,778,778,778,778,778,778,778,778,778,778,778,778,779,780,784,785,787,787,788,788,788,788,788,788,788,788,788,788,790,791,791,791,791,791,791,791,791,791,791,791,791,791,789,785,778,775,774,773,773,773,773,773,773,773,773,773,773,773,773,772,757,743,723,698,650,530,478,463,456,452,451,449,445,442,436,434,432,432,432,436,436,436,437,438,438,439,445,454,466,479,513,526,533,534,538,546,553,561,562,562,552,544,533,517],"ymouse":[502,502,502,502,502,502,502,502,502,502,502,502,502,502,502,502,502,502,502,502,502,502,502,502,502,502,502,502,502,502,502,502,502,502,502,502,502,502,502,502,502,502,502,502,502,502,502,502,498,495,493,492,489,489,489,489,488,487,487,486,485,485,484,483,482,480,478,469,465,462,461,459,459,458,458,458,458,458,458,458,457,454,453,453,453,453,453,453,453,453,453,453,453,453,454,457,462,477,482,485,487,487,487,487,487,487,487,487,487,487,487,487,486,468,453,436,416,376,297,260,246,234,218,208,196,187,180,166,156,143,131,122,109,106,104,102,101,