[{"start_time":1552054819687,"click_time":1552054822061,"finger_time":1552054821581,"fix_duration":1460.8922583784972,"trial":0,"RT":1894,"MT":480,"sideResp":2,"stimulus":"img/900/randomdotsizeEA/R/6_Ratio_900_L_9_R_10.png","xmouse":[781,781,781,781,781,781,781,781,781,781,781,781,781,781,781,781,781,781,781,781,781,781,781,781,781,781,781,781,781,781,781,781,781,781,781,781,781,781,781,781,781,781,781,781,781,781,781,781,781,781,781,781,781,781,781,781,781,781,781,781,781,781,781,781,781,781,781,781,781,781,781,781,781,781,781,781,781,781,781,781,781,781,781,781,781,781,781,781,781,781,781,783,795,871,935,963,981,995,1022,1043,1067,1094,1121,1160,1163,1165,1166,1168,1171,1174,1175,1175,1172,1164,1161,1160,1159,1158],"ymouse":[548,548,548,548,548,548,548,548,548,548,548,548,548,548,548,548,548,548,548,548,548,548,548,548,548,548,548,548,548,548,548,548,548,548,548,548,548,548,548,548,548,548,548,548,548,548,548,548,548,548,548,548,548,548,548,548,548,548,548,548,548,548,548,548,548,548,548,548,548,548,548,548,548,548,548,548,548,548,548,548,548,548,548,548,548,548,548,548,548,548,548,538,525,434,353,310,283,263,238,226,217,208,197,183,181,176,173,165,142,125,102,77,60,50,50,51,51,52],"timestamp_mouse":[15,55,75,94,115,135,155,175,195,215,235,255,275,295,314,334,354,374,395,415,435,454,474,495,514,535,555,575,595,614,635,655,674,694,714,735,754,775,794,815,834,855,874,896,914,935,955,976,995,1014,1036,1055,1075,1095,1114,1136,1154,1175,1195,1215,1234,1256,1274,1295,1315,1335,1356,1375,1395,1415,1435,1455,1476,1495,1515,1534,1555,1575,1594,1614,1634,1656,1674,1694,1714,1735,1755,1775,1795,1816,1835,1854,1874,1894,1915,1934,1955,1974,1994,2014,2034,2054,2074,2094,2115,2134,2155,2174,2194,2215,2235,2254,2275,2294,2314,2335,2354,2374],"xSR":741.5,"ySR":501.8,"xT1":424.9,"yT1":0,"xT2":1058.1,"yT2":0,"toosoon":0,"cond_shown":"randomdotsizeEA","ratio_trial":900,"smaller_num":"9","larger_num":"10","correct_side":2,"subjID":"ivonnesandoval22","gender":"1","age":"10","school":"4","test":{"fix_dur":[250,1500],"timestim":300,"targets_dim":[100,100],"targets_relative_coord":[0.3,0.7],"size_stim":[880,420],"start_dim":[100,100],"size_start":[300,300],"size_fix":60,"samplingrate":20,"img_types":["equaldotsize","equaldotanddens","randomdotsizeEA"],"ratios":[250,500,750,900],"rep_conds":9,"nTrials":120,"trials_to_rest":500,"Trials_order":[47,10,76,74,82,73,9,110,45,63,115,51,114,5,46,3,14,43,96,65,104,21,62,4,11,103,100,88,58,2,111,113,118,64,83,53,55,23,34,72,37,119,24,79,66,26,15,101,52,99,56,116,91,39,49,28,87,98,12,35,106,94,93,1,13,31,57,89,80,85,105,42,18,29,33,48,50,86,77,20,30,92,95,117,97,41,102,36,75,90,25,0,17,40,6,112,108,54,61,8,32,81,27,71,109,22,60,7,67,16,59,78,84,107,38,70,44,68,19,69],"cond_shown":["randomdotsizeEA","equaldotanddens","equaldotanddens","randomdotsizeEA","equaldotanddens","equaldotanddens","equaldotsize","randomdotsizeEA","equaldotsize","equaldotsize","equaldotanddens","equaldotsize","equaldotsize","randomdotsizeEA","equaldotanddens","equaldotsize","randomdotsizeEA","equaldotanddens","equaldotsize","randomdotsizeEA","randomdotsizeEA","equaldotsize","randomdotsizeEA","equaldotanddens","randomdotsizeEA","equaldotanddens","equaldotanddens","equaldotanddens","equaldotanddens","randomdotsizeEA","equaldotsize","randomdotsizeEA","equaldotanddens","equaldotanddens","randomdotsizeEA","randomdotsizeEA","equaldotanddens","randomdotsizeEA","equaldotanddens","equaldotsize","equaldotanddens","randomdotsizeEA","equaldotsize","equaldotanddens","equaldotsize","randomdotsizeEA","equaldotsize","randomdotsizeEA","equaldotanddens","equaldotsize","randomdotsizeEA","randomdotsizeEA","equaldotanddens","equaldotsize","equaldotanddens","equaldotanddens","equaldotsize","randomdotsizeEA","equaldotsize","randomdotsizeEA","equaldotanddens","equaldotanddens","equaldotsize","equaldotanddens","equaldotanddens","equaldotanddens","equaldotsize","randomdotsizeEA","randomdotsizeEA","equaldotanddens","equaldotsize","equaldotsize","equaldotsize","randomdotsizeEA","equaldotsize","equaldotsize","randomdotsizeEA","randomdotsizeEA","randomdotsizeEA","randomdotsizeEA","equaldotsize","randomdotsizeEA","randomdotsizeEA","equaldotsize","equaldotanddens","randomdotsizeEA","equaldotsize","equaldotsize","equaldotsize","equaldotsize","equaldotanddens","equaldotsize","randomdotsizeEA","equaldotanddens","equaldotsize","equaldotanddens","equaldotsize","equaldotsize","equaldotanddens","randomdotsizeEA","randomdotsizeEA","equaldotsize","equaldotsize","randomdotsizeEA","equaldotanddens","equaldotanddens","equaldotsize","equaldotanddens","equaldotanddens","equaldotanddens","randomdotsizeEA","equaldotsize","equaldotsize","randomdotsizeEA","randomdotsizeEA","equaldotanddens","randomdotsizeEA","randomdotsizeEA","equaldotanddens","equaldotsize"],"ratio_trial":[900,900,500,250,900,250,900,250,900,500,750,500,750,500,900,500,250,750,250,500,750,900,250,500,900,750,500,500,900,250,500,500,900,500,900,500,750,900,900,250,250,900,250,750,750,250,500,500,500,500,750,750,750,500,250,500,500,250,250,900,900,900,900,250,250,750,900,500,750,250,900,750,750,500,900,250,250,250,500,750,750,750,900,900,250,500,750,250,500,750,250,250,500,500,750,500,250,750,250,750,750,900,500,900,250,900,250,750,750,500,900,750,250,900,250,900,750,750,750,900],"smaller_num":["9","18","4","6","18","2","18","2","18","5","15","5","3","3","9","2","3","18","3","1","3","18","3","9","18","18","4","9","9","4","3","5","9","2","18","10","15","9","9","3","2","18","3","3","15","6","2","10","6","5","3","6","6","5","3","3","5","3","6","18","18","9","9","4","3","6","18","9","6","3","9","15","6","5","18","3","5","2","2","6","12","15","18","18","1","2","18","1","10","15","5","3","1","5","3","6","3","12","3","6","15","18","2","9","3","18","2","18","9","10","18","15","2","18","4","18","12","15","3","9"],"larger_num":["10","20","8","24","20","8","20","8","20","10","20","10","4","6","10","4","12","24","12","2","4","20","12","18","20","24","8","18","10","16","6","10","10","4","20","20","20","10","10","12","8","20","12","4","20","24","4","20","12","10","4","8","8","10","12","6","10","12","24","20","20","10","10","16","12","8","20","18","8","12","10","20","8","10","20","12","20","8","4","8","16","20","20","20","4","4","24","4","20","20","20","12","2","10","4","12","12","16","12","8","20","20","4","10","12","20","8","24","12","20","20","20","8","20","16","20","16","20","4","10"],"correct_side":[2,1,1,1,2,1,1,1,1,1,2,2,1,2,2,1,1,1,1,2,2,1,1,1,2,1,1,2,2,2,2,2,2,1,1,2,2,2,2,2,1,1,2,1,1,2,1,2,1,2,1,1,1,1,1,2,1,2,2,1,1,2,1,1,1,1,2,1,1,1,2,2,1,2,2,1,2,2,1,1,2,1,1,1,2,1,1,2,2,2,2,1,2,2,2,1,2,2,1,2,1,1,1,2,2,1,1,1,2,2,1,2,1,1,1,2,2,1,1,2],"img_shown":["img/900/randomdotsizeEA/R/6_Ratio_900_L_9_R_10.png","img/900/equaldotanddens/L/2_Ratio_900_L_20_R_18.png","img/500/equaldotanddens/L/8_Ratio_500_L_8_R_4.png","img/250/randomdotsizeEA/L/5_Ratio_250_L_24_R_6.png","img/900/equaldotanddens/R/13_Ratio_900_L_18_R_20.png","img/250/equaldotanddens/L/7_Ratio_250_L_8_R_2.png","img/900/equaldotsize/L/8_Ratio_900_L_20_R_18.png","img/250/randomdotsizeEA/L/3_Ratio_250_L_8_R_2.png","img/900/equaldotsize/L/2_Ratio_900_L_20_R_18.png","img/500/equaldotsize/L/7_Ratio_500_L_10_R_5.png","img/750/equaldotanddens/R/4_Ratio_750_L_15_R_20.png","img/500/equaldotsize/R/14_Ratio_500_L_5_R_10.png","img/750/equaldotsize/L/10_Ratio_750_L_4_R_3.png","img/500/randomdotsizeEA/R/2_Ratio_500_L_3_R_6.png","img/900/equaldotanddens/R/5_Ratio_900_L_9_R_10.png","img/500/equaldotsize/L/5_Ratio_500_L_4_R_2.png","img/250/randomdotsizeEA/L/15_Ratio_250_L_12_R_3.png","img/750/equaldotanddens/L/6_Ratio_750_L_24_R_18.png","img/250/equaldotsize/L/15_Ratio_250_L_12_R_3.png","img/500/randomdotsizeEA/R/15_Ratio_500_L_1_R_2.png","img/750/randomdotsizeEA/R/7_Ratio_750_L_3_R_4.png","img/900/equaldotsize/L/10_Ratio_900_L_20_R_18.png","img/250/randomdotsizeEA/L/15_Ratio_250_L_12_R_3.png","img/500/equaldotanddens/L/4_Ratio_500_L_18_R_9.png","img/900/randomdotsizeEA/R/12_Ratio_900_L_18_R_20.png","img/750/equaldotanddens/L/6_Ratio_750_L_24_R_18.png","img/500/equaldotanddens/L/8_Ratio_500_L_8_R_4.png","img/500/equaldotanddens/R/1_Ratio_500_L_9_R_18.png","img/900/equaldotanddens/R/3_Ratio_900_L_9_R_10.png","img/250/randomdotsizeEA/R/10_Ratio_250_L_4_R_16.png","img/500/equaldotsize/R/2_Ratio_500_L_3_R_6.png","img/500/randomdotsizeEA/R/14_Ratio_500_L_5_R_10.png","img/900/equaldotanddens/R/15_Ratio_900_L_9_R_10.png","img/500/equaldotanddens/L/5_Ratio_500_L_4_R_2.png","img/900/randomdotsizeEA/L/8_Ratio_900_L_20_R_18.png","img/500/randomdotsizeEA/R/3_Ratio_500_L_10_R_20.png","img/750/equaldotanddens/R/5_Ratio_750_L_15_R_20.png","img/900/randomdotsizeEA/R/15_Ratio_900_L_9_R_10.png","img/900/equaldotanddens/R/3_Ratio_900_L_9_R_10.png","img/250/equaldotsize/R/4_Ratio_250_L_3_R_12.png","img/250/equaldotanddens/L/7_Ratio_250_L_8_R_2.png","img/900/randomdotsizeEA/L/2_Ratio_900_L_20_R_18.png","img/250/equaldotsize/R/11_Ratio_250_L_3_R_12.png","img/750/equaldotanddens/L/10_Ratio_750_L_4_R_3.png","img/750/equaldotsize/L/1_Ratio_750_L_20_R_15.png","img/250/randomdotsizeEA/R/6_Ratio_250_L_6_R_24.png","img/500/equaldotsize/L/5_Ratio_500_L_4_R_2.png","img/500/randomdotsizeEA/R/3_Ratio_500_L_10_R_20.png","img/500/equaldotanddens/L/11_Ratio_500_L_12_R_6.png","img/500/equaldotsize/R/14_Ratio_500_L_5_R_10.png","img/750/randomdotsizeEA/L/10_Ratio_750_L_4_R_3.png","img/750/randomdotsizeEA/L/13_Ratio_750_L_8_R_6.png","img/750/equaldotanddens/L/14_Ratio_750_L_8_R_6.png","img/500/equaldotsize/L/7_Ratio_500_L_10_R_5.png","img/250/equaldotanddens/L/15_Ratio_250_L_12_R_3.png","img/500/equaldotanddens/R/2_Ratio_500_L_3_R_6.png","img/500/equaldotsize/L/7_Ratio_500_L_10_R_5.png","img/250/randomdotsizeEA/R/9_Ratio_250_L_3_R_12.png","img/250/equaldotsize/R/6_Ratio_250_L_6_R_24.png","img/900/randomdotsizeEA/L/8_Ratio_900_L_20_R_18.png","img/900/equaldotanddens/L/2_Ratio_900_L_20_R_18.png","img/900/equaldotanddens/R/5_Ratio_900_L_9_R_10.png","img/900/equaldotsize/L/1_Ratio_900_L_10_R_9.png","img/250/equaldotanddens/L/2_Ratio_250_L_16_R_4.png","img/250/equaldotanddens/L/15_Ratio_250_L_12_R_3.png","img/750/equaldotanddens/L/13_Ratio_750_L_8_R_6.png","img/900/equaldotsize/R/9_Ratio_900_L_18_R_20.png","img/500/randomdotsizeEA/L/4_Ratio_500_L_18_R_9.png","img/750/randomdotsizeEA/L/14_Ratio_750_L_8_R_6.png","img/250/equaldotanddens/L/14_Ratio_250_L_12_R_3.png","img/900/equaldotsize/R/6_Ratio_900_L_9_R_10.png","img/750/equaldotsize/R/4_Ratio_750_L_15_R_20.png","img/750/equaldotsize/L/13_Ratio_750_L_8_R_6.png","img/500/randomdotsizeEA/R/14_Ratio_500_L_5_R_10.png","img/900/equaldotsize/R/9_Ratio_900_L_18_R_20.png","img/250/equaldotsize/L/14_Ratio_250_L_12_R_3.png","img/250/randomdotsizeEA/R/12_Ratio_250_L_5_R_20.png","img/250/randomdotsizeEA/R/13_Ratio_250_L_2_R_8.png","img/500/randomdotsizeEA/L/10_Ratio_500_L_4_R_2.png","img/750/randomdotsizeEA/L/13_Ratio_750_L_8_R_6.png","img/750/equaldotsize/R/11_Ratio_750_L_12_R_16.png","img/750/randomdotsizeEA/L/1_Ratio_750_L_20_R_15.png","img/900/randomdotsizeEA/L/2_Ratio_900_L_20_R_18.png","img/900/equaldotsize/L/10_Ratio_900_L_20_R_18.png","img/250/equaldotanddens/R/8_Ratio_250_L_1_R_4.png","img/500/randomdotsizeEA/L/5_Ratio_500_L_4_R_2.png","img/750/equaldotsize/L/6_Ratio_750_L_24_R_18.png","img/250/equaldotsize/R/8_Ratio_250_L_1_R_4.png","img/500/equaldotsize/R/3_Ratio_500_L_10_R_20.png","img/750/equaldotsize/R/5_Ratio_750_L_15_R_20.png","img/250/equaldotanddens/R/12_Ratio_250_L_5_R_20.png","img/250/equaldotsize/L/14_Ratio_250_L_12_R_3.png","img/500/randomdotsizeEA/R/12_Ratio_500_L_1_R_2.png","img/500/equaldotanddens/R/14_Ratio_500_L_5_R_10.png","img/750/equaldotsize/R/12_Ratio_750_L_3_R_4.png","img/500/equaldotanddens/L/13_Ratio_500_L_12_R_6.png","img/250/equaldotsize/R/11_Ratio_250_L_3_R_12.png","img/750/equaldotsize/R/11_Ratio_750_L_12_R_16.png","img/250/equaldotanddens/L/14_Ratio_250_L_12_R_3.png","img/750/randomdotsizeEA/R/2_Ratio_750_L_6_R_8.png","img/750/randomdotsizeEA/L/1_Ratio_750_L_20_R_15.png","img/900/equaldotsize/L/4_Ratio_900_L_20_R_18.png","img/500/equaldotsize/L/5_Ratio_500_L_4_R_2.png","img/900/randomdotsizeEA/R/7_Ratio_900_L_9_R_10.png","img/250/equaldotanddens/R/11_Ratio_250_L_3_R_12.png","img/900/equaldotanddens/L/4_Ratio_900_L_20_R_18.png","img/250/equaldotsize/L/3_Ratio_250_L_8_R_2.png","img/750/equaldotanddens/L/6_Ratio_750_L_24_R_18.png","img/750/equaldotanddens/R/15_Ratio_750_L_9_R_12.png","img/500/equaldotanddens/R/3_Ratio_500_L_10_R_20.png","img/900/randomdotsizeEA/L/10_Ratio_900_L_20_R_18.png","img/750/equaldotsize/R/3_Ratio_750_L_15_R_20.png","img/250/equaldotsize/L/3_Ratio_250_L_8_R_2.png","img/900/randomdotsizeEA/L/10_Ratio_900_L_20_R_18.png","img/250/randomdotsizeEA/L/2_Ratio_250_L_16_R_4.png","img/900/equaldotanddens/R/12_Ratio_900_L_18_R_20.png","img/750/randomdotsizeEA/R/11_Ratio_750_L_12_R_16.png","img/750/randomdotsizeEA/L/1_Ratio_750_L_20_R_15.png","img/750/equaldotanddens/L/8_Ratio_750_L_4_R_3.png","img/900/equaldotsize/R/7_Ratio_900_L_9_R_10.png"],"Rat0":[["12_Ratio_0_L_9_R_0.png","13_Ratio_0_L_6_R_0.png","5_Ratio_0_L_2_R_0.png","6_Ratio_0_L_4_R_0.png","8_Ratio_0_L_6_R_0.png"],["1_Ratio_0_L_0_R_17.png","10_Ratio_0_L_0_R_22.png","11_Ratio_0_L_0_R_1.png","14_Ratio_0_L_0_R_24.png","15_Ratio_0_L_0_R_4.png","2_Ratio_0_L_0_R_5.png","3_Ratio_0_L_0_R_17.png","4_Ratio_0_L_0_R_7.png","7_Ratio_0_L_0_R_19.png","9_Ratio_0_L_0_R_15.png"]],"Rat250":[["1_Ratio_250_L_8_R_2.png","14_Ratio_250_L_12_R_3.png","15_Ratio_250_L_12_R_3.png","2_Ratio_250_L_16_R_4.png","3_Ratio_250_L_8_R_2.png","5_Ratio_250_L_24_R_6.png","7_Ratio_250_L_8_R_2.png"],["10_Ratio_250_L_4_R_16.png","11_Ratio_250_L_3_R_12.png","12_Ratio_250_L_5_R_20.png","13_Ratio_250_L_2_R_8.png","4_Ratio_250_L_3_R_12.png","6_Ratio_250_L_6_R_24.png","8_Ratio_250_L_1_R_4.png","9_Ratio_250_L_3_R_12.png"]],"Rat500":[["10_Ratio_500_L_4_R_2.png","11_Ratio_500_L_12_R_6.png","13_Ratio_500_L_12_R_6.png","4_Ratio_500_L_18_R_9.png","5_Ratio_500_L_4_R_2.png","7_Ratio_500_L_10_R_5.png","8_Ratio_500_L_8_R_4.png"],["1_Ratio_500_L_9_R_18.png","12_Ratio_500_L_1_R_2.png","14_Ratio_500_L_5_R_10.png","15_Ratio_500_L_1_R_2.png","2_Ratio_500_L_3_R_6.png","3_Ratio_500_L_10_R_20.png","6_Ratio_500_L_9_R_18.png","9_Ratio_500_L_2_R_4.png"]],"Rat750":[["1_Ratio_750_L_20_R_15.png","10_Ratio_750_L_4_R_3.png","13_Ratio_750_L_8_R_6.png","14_Ratio_750_L_8_R_6.png","6_Ratio_750_L_24_R_18.png","8_Ratio_750_L_4_R_3.png","9_Ratio_750_L_4_R_3.png"],["11_Ratio_750_L_12_R_16.png","12_Ratio_750_L_3_R_4.png","15_Ratio_750_L_9_R_12.png","2_Ratio_750_L_6_R_8.png","3_Ratio_750_L_15_R_20.png","4_Ratio_750_L_15_R_20.png","5_Ratio_750_L_15_R_20.png","7_Ratio_750_L_3_R_4.png"]],"Rat900":[["1_Ratio_900_L_10_R_9.png","10_Ratio_900_L_20_R_18.png","2_Ratio_900_L_20_R_18.png","4_Ratio_900_L_20_R_18.png","8_Ratio_900_L_20_R_18.png"],["11_Ratio_900_L_18_R_20.png","12_Ratio_900_L_18_R_20.png","13_Ratio_900_L_18_R_20.png","14_Ratio_900_L_18_R_20.png","15_Ratio_900_L_9_R_10.png","3_Ratio_900_L_9_R_10.png","5_Ratio_900_L_9_R_10.png","6_Ratio_900_L_9_R_10.png","7_Ratio_900_L_9_R_10.png","9_Ratio_900_L_18_R_20.png"]],"Rat1000":[["10_Ratio_1000_L_16_R_16.png","11_Ratio_1000_L_6_R_6.png","12_Ratio_1000_L_14_R_14.png","13_Ratio_1000_L_20_R_20.png","15_Ratio_1000_L_15_R_15.png","2_Ratio_1000_L_17_R_17.png","4_Ratio_1000_L_9_R_9.png","5_Ratio_1000_L_6_R_6.png","6_Ratio_1000_L_19_R_19.png","8_Ratio_1000_L_14_R_14.png","9_Ratio_1000_L_25_R_25.png"],["1_Ratio_1000_L_1_R_1.png","14_Ratio_1000_L_17_R_17.png","3_Ratio_1000_L_17_R_17.png","7_Ratio_1000_L_6_R_6.png"]]}},{"start_time":1552054825830,"click_time":1552054826741,"finger_time":1552054826621,"fix_duration":946.1247828492219,"trial":1,"RT":791,"MT":120,"sideResp":1,"stimulus":"img/900/equaldotanddens/L/2_Ratio_900_L_20_R_18.png","xmouse":[786,786,786,786,786,786,786,786,786,786,786,786,786,786,786,786,786,786,786,786,786,786,786,786,786,786,786,786,786,786,786,786,786,786,786,786,786,782,772,761,747,710,610,560,526,497],"ymouse":[507,507,507,507,507,507,507,507,507,507,507,507,507,507,507,507,507,507,507,507,507,507,507,507,507,507,507,507,507,507,507,507,507,507,507,507,507,498,478,459,431,372,218,155,115,75],"timestamp_mouse":[15,38,52,71,91,113,131,151,171,192,212,232,252,271,292,312,331,352,373,392,411,432,451,472,492,511,532,551,572,592,611,631,652,672,691,712,733,751,772,791,811,831,852,871,892,911],"xSR":741.5,"ySR":469.95,"xT1":424.9,"yT1":0,"xT2":1058.1,"yT2":0,"toosoon":0,"cond_shown":"equaldotanddens","ratio_trial":900,"smaller_num":"18","larger_num":"20","correct_side":1,"subjID":"ivonnesandoval22","gender":"1","age":"10","school":"4"},{"start_time":1552054828235,"click_time":1552054829421,"finger_time":1552054829021,"fix_duration":630.8167317828979,"trial":2,"RT":786,"MT":400,"sideResp":1,"stimulus":"img/500/equaldotanddens/L/8_Ratio_500_L_8_R_4.png","xmouse":[772,772,772,772,772,772,772,772,772,772,772,772,772,772,772,772,772,772,772,772,772,772,772,772,772,772,772,772,772,772,772,772,772,772,772,772,772,772,772,762,741,696,696,696,696,696,696,696,696,696,667,660,653,641,626,612,595,578,541,521],"ymouse":[560,560,560,560,560,560,560,560,560,560,560,560,560,560,560,560,560,560,560,560,560,560,560,560,560,560,560,560,560,560,560,560,560,560,560,560,560,551,473,353,199,16,16,16,16,16,16,16,16,16,9,22,35,46,49,50,50,49,39,34],"timestamp_mouse":[14,36,47,67,87,107,126,148,167,187,207,226,248,266,286,306,328,347,367,388,407,428,447,466,486,506,527,547,566,586,607,626,647,666,687,706,726,747,766,786,806,826,846,866,887,906,927,946,967,987,1006,1027,1046,1066,1087,1106,1127,1146,1166,1186],"xSR":741.5,"ySR":469.95,"xT1":424.9,"yT1":0,"xT2":1058.1,"yT2":0,"toosoon":0,"cond_shown":"equaldotanddens","ratio_trial":500,"smaller_num":"4","larger_num":"8","correct_side":1,"subjID":"ivonnesandoval22","gender":"1","age":"10","school":"4"},{"start_time":1552054834335,"click_time":1552054835262,"finger_time":1552054835122,"fix_duration":1031.256880713627,"trial":3,"RT":787,"MT":140,"sideResp":2,"stimulus":"img/250/randomdotsizeEA/L/5_Ratio_250_L_24_R_6.png","xmouse":[816,816,816,816,816,816,816,816,816,816,816,816,816,816,816,816,816,816,816,816,816,816,816,816,816,816,816,816,816,816,816,816,816,816,816,816,816,820,837,882,901,918,931,948,1034,1079,1107],"ymouse":[525,525,525,525,525,525,525,525,525,525,525,525,525,525,525,525,525,525,525,525,525,525,525,525,525,525,525,525,525,525,525,525,525,525,525,525,523,515,476,403,375,358,342,319,191,111,49],"timestamp_mouse":[12,36,47,66,86,106,127,146,166,186,206,227,246,266,286,306,326,347,366,386,407,428,447,467,487,506,526,547,567,586,606,627,646,667,686,706,726,746,766,787,806,826,846,866,886,906,926],"xSR":741.5,"ySR":469.95,"xT1":424.9,"yT1":0,"xT2":1058.1,"yT2":0,"toosoon":0,"cond_shown":"randomdotsizeEA","ratio_trial":250,"smaller_num":"6","larger_num":"24","correct_side":1,"subjID":"ivonnesandoval22","gender":"1","age":"10","school":"4"},{"start_time":1552054838201,"click_time":1552054840142,"finger_time":1552054839362,"fix_duration":657.943767678059,"trial":4,"RT":1161,"MT":780,"sideResp":2,"stimulus":"img/900/equaldotanddens/R/13_Ratio_900_L_18_R_20.png","xmouse":[809,809,809,809,809,809,809,809,809,809,809,809,809,809,809,809,809,809,809,809,809,809,809,809,809,809,809,809,809,809,809,809,809,809,809,809,809,809,809,809,809,809,809,809,809,809,809,809,809,809,809,809,809,809,809,809,810,816,843,865,873,899,931,959,988,1003,1011,1011,1011,1011,1011,1014,1020,1026,1033,1038,1048,1055,1066,1075,1077,1077,1077,1077,1077,1077,1077,1077,1077,1077,1077,1077,1077,1077,1077,1077,1080,1080],"ymouse":[519,519,519,519,519,519,519,519,519,519,519,519,519,519,519,519,519,519,519,519,519,519,519,519,519,519,519,519,519,519,519,519,519,519,519,519,519,519,519,519,519,519,519,519,519,519,519,519,519,519,519,519,519,519,519,519,519,518,505,489,470,381,304,256,217,199,190,190,190,190,190,183,178,172,165,160,148,142,134,127,126,126,126,126,126,126,126,126,126,126,126,126,126,126,126,126,107,99],"timestamp_mouse":[11,34,41,60,80,100,121,140,162,180,200,221,240,261,280,300,320,340,360,381,401,421,440,461,481,501,520,541,560,580,600,620,640,661,680,700,720,740,761,780,800,821,840,860,880,900,920,940,960,981,1000,1020,1041,1061,1081,1100,1121,1140,1161,1180,1200,1221,1240,1260,1281,1300,1321,1340,1360,1381,1400,1420,1440,1460,1481,1500,1521,1540,1560,1581,1601,1621,1640,1661,1680,1702,1721,1741,1760,1780,1801,1820,1840,1860,1880,1901,1920,1940],"xSR":741.5,"ySR":469.95,"xT1":424.9,"yT1":0,"xT2":1058.1,"yT2":0,"toosoon":0,"cond_shown":"equaldotanddens","ratio_trial":900,"smaller_num":"18","larger_num":"20","correct_side":2,"subjID":"ivonnesandoval22","gender":"1","age":"10","school":"4"},{"start_time":1552054844415,"click_time":1552054845764,"finger_time":1552054845122,"fix_duration":250,"trial":5,"RT":707,"MT":642,"sideResp":1,"stimulus":"img/250/equaldotanddens/L/7_Ratio_250_L_8_R_2.png","xmouse":[821,821,821,821,821,821,821,821,821,821,821,821,821,821,821,821,821,821,821,821,821,821,821,821,821,821,821,821,821,821,821,821,821,818,810,765,746,731,718,707,692,692,692,692,691,690,688,685,682,675,667,637,618,604,593,578,573,568,563,557,553,547,544,542,539,532,526,518],"ymouse":[561,561,561,561,561,561,561,561,561,561,561,561,561,561,561,561,561,561,561,561,561,561,561,561,561,561,561,561,561,561,561,561,558,551,530,433,380,347,325,305,262,255,250,245,241,237,229,222,217,206,197,173,160,151,143,132,128,124,121,116,113,109,107,106,104,98,95,90],"timestamp_mouse":[20,36,46,67,86,106,126,146,168,186,207,228,246,266,287,307,328,347,366,386,407,426,447,466,487,506,527,547,566,586,607,628,646,667,688,707,726,747,766,786,807,826,846,867,886,906,926,946,966,986,1006,1026,1047,1066,1086,1108,1126,1146,1167,1189,1208,1228,1248,1268,1288,1309,1328,1348],"xSR":741.5,"ySR":469.95,"xT1":424.9,"yT1":0,"xT2":1058.1,"yT2":0,"toosoon":0,"cond_shown":"equaldotanddens","ratio_trial":250,"smaller_num":"2","larger_num":"8","correct_side":1,"subjID":"ivonnesandoval22","gender":"1","age":"10","school":"4"},{"start_time":1552054848597,"click_time":1552054849844,"finger_time":1552054849384,"fix_duration":250,"trial":6,"RT":787,"MT":460,"sideResp":2,"stimulus":"img/900/equaldotsize/L/8_Ratio_900_L_20_R_18.png","xmouse":[802,802,802,802,802,802,802,802,802,802,802,802,802,802,802,802,802,802,802,802,802,802,802,802,802,802,802,802,802,802,802,802,802,806,811,812,813,818,831,840,844,845,845,845,845,845,846,846,843,842,842,842,843,868,885,911,939,978,990,1011,1043,1083,1142],"ymouse":[524,524,524,524,524,524,524,524,524,524,524,524,524,524,524,524,524,524,524,524,524,524,524,524,524,524,524,524,524,524,524,524,524,514,504,500,499,491,476,469,466,466,466,466,466,466,465,462,453,451,449,443,429,388,367,340,321,287,269,239,199,151,77],"timestamp_mouse":[13,28,46,68,86,107,127,146,167,186,208,227,246,267,287,307,328,346,368,387,406,427,448,467,488,507,526,547,566,588,607,627,647,666,686,706,726,746,767,787,808,828,847,867,888,907,927,947,966,986,1006,1026,1047,1067,1087,1108,1126,1147,1167,1186,1208,1228,1247],"xSR":741.5,"ySR":469.95,"xT1":424.9,"yT1":0,"xT2":1058.1,"yT2":0,"toosoon":0,"cond_shown":"equaldotsize","ratio_trial":900,"smaller_num":"18","larger_num":"20","correct_side":1,"subjID":"ivonnesandoval22","gender":"1","age":"10","school":"4"},{"start_time":1552054851247,"click_time":1552054852223,"finger_time":1552054851583,"fix_duration":481.377206928175,"trial":7,"RT":336,"MT":640,"sideResp":1,"stimulus":"img/250/randomdotsizeEA/L/3_Ratio_250_L_8_R_2.png","xmouse":[769,769,769,769,769,769,769,769,769,769,769,769,769,769,753,745,740,737,736,734,731,728,724,721,713,709,701,692,678,640,623,610,602,594,585,585,584,583,581,577,573,568,563,555,545,533,528,525,523],"ymouse":[544,544,544,544,544,544,544,544,544,544,544,544,544,543,519,509,504,500,498,496,491,486,481,476,467,462,451,439,419,362,331,307,286,269,243,237,232,226,215,187,170,155,140,121,100,79,72,68,65],"timestamp_mouse":[16,44,56,76,97,117,136,157,177,196,218,237,257,277,296,316,336,357,376,397,417,438,457,478,498,517,537,557,576,596,617,637,658,676,698,716,736,757,777,797,816,836,856,877,897,917,936,957,976],"xSR":741.5,"ySR":469.95,"xT1":424.9,"yT1":0,"xT2":1058.1,"yT2":0,"toosoon":0,"cond_shown":"randomdotsizeEA","ratio_trial":250,"smaller_num":"2","larger_num":"8","correct_side":1,"subjID":"ivonnesandoval22","gender":"1","age":"10","school":"4"},{"start_time":1552054853525,"click_time":1552054854745,"finger_time":1552054854383,"fix_duration":299.25714731508344,"trial":8,"RT":858,"MT":362,"sideResp":1,"stimulus":"img/900/equaldotsize/L/2_Ratio_900_L_20_R_18.png","xmouse":[808,808,808,808,808,808,808,808,808,808,808,808,808,808,808,808,808,808,808,808,808,808,808,808,808,808,808,808,808,808,808,808,808,805,803,802,802,802,802,802,801,797,757,702,645,589,546,465,436,419,413,413,413,413,413,413,415,418,423,428,438,444],"ymouse":[523,523,523,523,523,523,523,523,523,523,523,523,523,523,523,523,523,523,523,523,523,523,523,523,523,523,523,523,523,523,523,523,523,523,523,523,523,523,523,523,523,521,490,446,397,349,303,207,172,149,140,140,140,140,140,139,133,128,121,115,103,96],"timestamp_mouse":[1,19,39,58,79,100,119,138,160,180,198,219,239,258,280,300,320,339,358,379,398,418,438,459,478,498,518,540,559,579,598,618,639,659,680,698,719,740,759,778,798,818,838,858,879,899,919,940,958,979,998,1020,1039,1059,1078,1098,1120,1138,1159,1180,1199,1220],"xSR":741.5,"ySR":469.95,"xT1":424.9,"yT1":0,"xT2":1058.1,"yT2":0,"toosoon":0,"cond_shown":"equaldotsize","ratio_trial":900,"smaller_num":"18","larger_num":"20","correct_side":1,"subjID":"ivonnesandoval22","gender":"1","age":"10","school":"4"},{"start_time":1552054856420,"click_time":1552054858584,"finger_time":1552054857105,"fix_duration":855.8646350696762,"trial":9,"RT":685,"MT":1479,"sideResp":1,"stimulus":"img/500/equaldotsize/L/7_Ratio_500_L_10_R_5.png","xmouse":[810,810,810,810,810,810,810,810,810,810,810,810,810,810,810,810,810,810,810,810,810,810,810,810,810,810,810,810,810,807,805,797,777,769,738,709,667,598,582,571,564,556,548,542,541,537,533,529,526,521,516,510,501,497,493,492,491,490,490,490,490,490,490,490,490,490,490,490,490,490,490,490,491,491,491,491,492,499,511,527,546,565,596,599,599,599,599,599,599,599,599,600,588,579,572,567,563,559,556,554,551,549,547,545,543,540,535,526,523],"ymouse":[518,518,518,518,518,518,518,518,518,518,518,518,518,518,518,518,518,518,518,518,518,518,518,518,518,518,518,518,518,517,516,514,507,504,488,472,452,402,389,376,365,351,333,318,311,301,289,273,263,246,230,210,177,164,150,144,139,131,130,127,125,123,120,120,120,119,117,112,110,109,108,108,107,107,107,107,107,107,114,126,139,150,166,167,167,167,167,167,167,167,167,167,140,127,116,111,107,104,103,102,100,98,97,95,94,91,88,80,77],"timestamp_mouse":[13,25,43,63,84,104,123,144,165,183,204,225,245,264,284,303,324,343,364,384,405,425,443,463,484,505,524,544,564,583,603,623,643,664,685,704,725,743,763,784,803,824,844,863,883,904,924,943,964,983,1003,1023,1043,1064,1084,1104,1123,1143,1163,1184,1204,1224,1243,1263,1284,1304,1325,1343,1364,1384,1404,1423,1443,1464,1484,1503,1523,1544,1564,1585,1604,1625,1644,1664,1684,1703,1723,1743,1765,1785,1805,1824,1844,1863,1883,1904,1924,1943,1963,1984,2004,2023,2043,2063,2084,2105,2125,2143,2164],"xSR":741.5,"ySR":469.95,"xT1":424.9,"yT1":0,"xT2":1058.1,"yT2":0,"toosoon":0,"cond_shown":"equaldotsize","ratio_trial":500,"smaller_num":"5","larger_num":"10","correct_side":1,"subjID":"ivonnesandoval22","gender":"1","age":"10","school":"4"},{"start_time":1552054859656,"click_time":1552054860765,"finger_time":1552054860443,"fix_duration":250,"trial":10,"RT":787,"MT":322,"sideResp":2,"stimulus":"img/750/equaldotanddens/R/4_Ratio_750_L_15_R_20.png","xmouse":[777,777,777,777,777,777,777,777,777,777,777,777,777,777,777,777,777,777,777,777,777,777,777,777,777,777,777,777,777,777,777,777,777,777,778,784,788,799,821,861,963,989,1001,1014,1025,1035,1036,1037,1040,1044,1048,1049,1049,1049,1052,1069],"ymouse":[519,519,519,519,519,519,519,519,519,519,519,519,519,519,519,519,519,519,519,519,519,519,519,519,519,519,519,519,519,519,519,519,519,519,519,515,512,499,473,425,292,249,221,191,168,150,148,143,135,125,110,108,108,108,105,91],"timestamp_mouse":[19,38,47,67,88,108,127,147,167,189,207,227,249,267,289,308,327,348,367,389,407,427,447,467,488,507,527,549,567,588,608,629,648,668,687,707,727,749,767,787,807,827,848,867,887,908,927,948,967,988,1008,1027,1048,1068,1089,1109],"xSR":741.5,"ySR":469.95,"xT1":424.9,"yT1":0,"xT2":1058.1,"yT2":0,"toosoon":0,"cond_shown":"equaldotanddens","ratio_trial":750,"smaller_num":"15","larger_num":"20","correct_side":2,"subjID":"ivonnesandoval22","gender":"1","age":"10","school":"4"},{"start_time":1552054862697,"click_time":1552054863684,"finger_time":1552054863345,"fix_duration":311.38062867300687,"trial":11,"RT":648,"MT":339,"sideResp":2,"stimulus":"img/500/equaldotsize/R/14_Ratio_500_L_5_R_10.png","xmouse":[810,810,810,810,810,810,810,810,810,810,810,810,810,810,810,810,810,810,810,810,810,810,810,810,810,810,810,810,810,810,820,830,852,883,968,995,1015,1025,1028,1029,1030,1033,1037,1041,1045,1045,1046,1046,1050,1078],"ymouse":[523,523,523,523,523,523,523,523,523,523,523,523,523,523,523,523,523,523,523,523,523,523,523,523,523,523,523,523,523,523,509,499,475,424,284,208,152,115,100,90,84,75,61,48,36,35,35,35,35,41],"timestamp_mouse":[13,36,47,66,87,107,127,147,168,186,206,228,246,268,286,306,327,346,367,386,408,427,446,466,487,508,526,546,567,586,607,626,648,666,686,707,726,748,768,788,806,827,846,887,889,906,927,948,967,987],"xSR":741.5,"ySR":469.95,"xT1":424.9,"yT1":0,"xT2":1058.1,"yT2":0,"toosoon":0,"cond_shown":"equaldotsize","ratio_trial":500,"smaller_num":"5","larger_num":"10","correct_side":2,"subjID":"ivonnesandoval22","gender":"1","age":"10","school":"4"},{"start_time":1552054911343,"click_time":1552054913765,"finger_time":1552054912165,"fix_duration":935.5550477121927,"trial":12,"RT":822,"MT":1600,"sideResp":2,"stimulus":"img/750/equaldotsize/L/10_Ratio_750_L_4_R_3.png","xmouse":[835,835,835,835,835,835,835,835,835,835,835,835,835,835,835,835,834,834,834,834,834,834,834,834,834,834,834,834,834,834,834,834,834,834,834,834,834,834,834,834,837,843,854,860,863,868,874,883,888,895,902,908,924,933,943,957,980,1090,1139,1187,1205,1211,1211,1211,1211,1211,1211,1211,1211,1211,1211,1211,1190,1184,1181,1181,1181,1181,1181,1181,1181,1181,1179,1174,1170,1164,1159,1154,1142,1138,1137,1137,1137,1137,1137,1136,1136,1136,1136,1134,1134,1131,1130,1130,1130,1130,1130,1130,1130,1130,1130,1130,1130,1130,1130,1130,1130,1130,1130,1130,1130,1129],"ymouse":[532,532,532,532,532,532,532,532,532,532,532,532,532,532,532,534,534,534,534,534,534,534,534,534,534,534,534,534,534,534,534,534,534,534,534,534,534,534,534,534,524,511,480,463,449,433,417,384,368,353,337,323,298,289,277,265,246,156,119,94,84,81,80,80,80,80,80,80,80,80,86,86,123,126,127,127,127,127,127,127,127,127,127,126,124,122,121,121,121,121,121,121,121,121,121,121,121,121,120,113,111,106,101,101,101,101,101,101,101,101,101,101,101,101,101,101,101,101,101,100,100,99],"timestamp_mouse":[10,22,42,62,83,102,123,142,161,181,203,223,241,261,283,301,321,342,363,382,403,421,442,463,483,502,522,542,563,582,603,621,642,663,681,703,722,742,762,782,803,822,842,863,882,902,923,942,961,982,1002,1022,1042,1062,1082,1101,1123,1142,1161,1182,1202,1222,1243,1263,1282,1303,1323,1342,1362,1381,1401,1422,1442,1461,1483,1502,1523,1542,1561,1581,1602,1623,1643,1662,1682,1702,1722,1742,1762,1783,1801,1821,1842,1862,1883,1901,1922,1942,1961,1982,2003,2022,2042,2061,2083,2103,2121,2142,2162,2181,2202,2223,2242,2262,2283,2303,2323,2341,2362,2381,2402,2422],"xSR":741.5,"ySR":469.95,"xT1":424.9,"yT1":0,"xT2":1058.1,"yT2":0,"toosoon":0,"cond_shown":"equaldotsize","ratio_trial":750,"smaller_num":"3","larger_num":"4","correct_side":1,"subjID":"ivonnesandoval22","gender":"1","age":"10","school":"4"},{"start_time":1552054917711,"click_time":1552054919505,"finger_time":1552054918805,"fix_duration":1223.3739678813324,"trial":13,"RT":1094,"MT":700,"sideResp":2,"stimulus":"img/500/randomdotsizeEA/R/2_Ratio_500_L_3_R_6.png","xmouse":[793,793,793,793,793,793,793,793,793,793,793,793,793,793,793,793,793,793,793,793,793,793,793,793,793,793,793,793,793,793,793,793,793,793,793,793,793,793,793,793,793,793,793,793,793,793,793,793,793,793,793,793,794,798,828,861,897,933,957,980,986,994,1002,1008,1023,1029,1033,1037,1044,1047,1047,1047,1047,1047,1047,1047,1047,1047,1048,1051,1051,1051,1051,1051,1051,1051,1051,1051,1053,1062],"ymouse":[516,513,512,512,512,512,512,512,512,512,512,512,512,512,512,512,512,512,512,512,512,512,512,512,512,512,512,512,512,512,512,512,512,512,512,512,512,512,512,512,512,512,512,512,512,512,512,512,512,512,512,512,511,504,436,381,322,267,223,168,152,136,121,106,59,37,28,22,13,11,11,11,11,11,14,20,26,32,38,53,53,53,53,53,53,53,54,54,56,67],"timestamp_mouse":[19,38,55,74,95,114,134,154,173,195,214,234,255,274,295,315,333,353,373,395,414,435,454,474,495,513,535,554,575,595,614,633,653,675,695,714,735,755,774,794,814,834,855,874,895,914,934,955,974,993,1013,1035,1054,1075,1094,1114,1134,1155,1175,1194,1214,1234,1253,1275,1294,1313,1333,1353,1374,1394,1413,1433,1453,1475,1493,1515,1534,1554,1573,1594,1614,1633,1653,1673,1693,1714,1734,1754,1775,1794],"xSR":741.5,"ySR":469.95,"xT1":424.9,"yT1":0,"xT2":1058.1,"yT2":0,"toosoon":0,"cond_shown":"randomdotsizeEA","ratio_trial":500,"smaller_num":"3","larger_num":"6","correct_side":2,"subjID":"ivonnesandoval22","gender":"1","age":"10","school":"4"},{"start_time":1552054921697,"click_time":1552054922824,"finger_time":1552054922405,"fix_duration":491.8695395742624,"trial":14,"RT":708,"MT":419,"sideResp":2,"stimulus":"img/900/equaldotanddens/R/5_Ratio_900_L_9_R_10.png","xmouse":[814,814,814,814,814,814,814,814,814,814,814,814,814,814,814,814,814,814,814,814,814,814,814,814,814,814,814,814,814,814,814,814,814,814,820,842,874,907,931,966,984,1005,1014,1027,1027,1027,1027,1027,1027,1027,1027,1027,1027,1027,1027,1027,1093],"ymouse":[540,540,540,540,540,540,540,540,540,540,540,540,540,540,540,540,540,540,540,540,540,540,540,540,540,540,540,540,540,540,540,540,540,540,536,483,395,304,225,141,98,53,30,5,5,5,5,5,5,5,5,5,5,5,5,5,18],"timestamp_mouse":[12,35,48,68,88,108,129,148,169,188,208,229,248,269,288,309,327,348,369,389,408,427,449,469,488,508,528,547,569,589,607,629,649,669,687,708,727,748,768,788,808,827,848,868,889,908,929,947,968,989,1008,1028,1048,1068,1089,1108,1127],"xSR":741.5,"ySR":469.95,"xT1":424.9,"yT1":0,"xT2":1058.1,"yT2":0,"toosoon":0,"cond_shown":"equaldotanddens","ratio_trial":900,"smaller_num":"9","larger_num":"10","correct_side":2,"subjID":"ivonnesandoval22","gender":"1","age":"10","school":"4"},{"start_time":1552054940974,"click_time":1552054945105,"finger_time":1552054941964,"fix_duration":327.18911509649075,"trial":15,"RT":990,"MT":3141,"sideResp":1,"stimulus":"img/500/equaldotsize/L/5_Ratio_500_L_4_R_2.png","xmouse":[762,764,767,769,769,770,770,770,770,770,770,770,770,770,770,770,770,770,770,770,770,770,770,770,770,770,770,770,770,770,770,770,770,770,770,770,770,770,770,770,770,770,770,770,770,770,770,770,762,744,704,644,578,507,381,323,269,251,240,232,226,219,203,181,134,127,127,127,127,138,156,175,192,223,238,268,287,299,312,315,315,317,323,334,373,378,386,387,388,390,390,392,393,393,393,393,393,393,393,393,393,393,393,393,393,393,393,393,393,393,393,393,393,393,393,393,393,393,393,393,393,393,393,393,393,393,393,393,393,393,393,393,393,393,393,393,393,393,393,393,393,393,393,393,393,393,393,393,393,393,393,393,393,393,393,393,393,393,393,393,393,393,393,393,393,393,393,393,393,393,393,393,393,393,393,393,393,400,404,405,405,405,405,405,405,405,402,401,399,394,388,380,368,355,355,355,355,355,355,355,355,355,355,355,355,355,498],"ymouse":[475,476,478,479,479,479,480,480,480,480,480,480,480,480,480,480,480,480,480,480,480,480,480,480,480,480,480,480,480,480,480,480,480,480,480,480,480,480,480,480,480,480,480,480,480,480,480,480,470,459,440,415,381,341,251,211,177,165,158,155,154,154,151,147,143,141,141,141,141,138,135,132,132,132,132,132,132,132,132,132,132,132,132,132,132,132,132,132,131,130,127,125,124,124,124,124,124,124,124,124,124,124,124,124,124,124,124,124,124,124,124,124,124,124,124,124,124,124,124,124,124,124,124,124,124,124,124,124,124,124,124,124,124,124,124,124,124,124,124,124,124,124,124,124,124,124,124,124,124,124,124,124,124,124,124,124,124,124,124,124,124,124,124,124,124,124,124,124,124,124,124,124,124,124,124,124,121,108,100,89,83,80,78,78,78,78,76,75,74,68,57,43,24,5,5,5,5,5,5,5,5,5,5,5,5,5,27],"timestamp_mouse":[13,36,52,71,91,110,131,152,171,191,211,231,252,271,291,311,332,351,372,390,411,431,452,472,492,511,531,552,570,592,612,630,651,672,691,712,731,751,770,791,810,832,851,871,892,911,931,950,972,990,1010,1032,1052,1073,1091,1111,1131,1151,1171,1191,1212,1231,1251,1270,1290,1312,1331,1351,1372,1390,1412,1432,1452,1473,1490,1511,1530,1552,1572,1592,1612,1632,1652,1671,1690,1710,1730,1751,1772,1790,1812,1831,1851,1871,1890,1910,1932,1952,1972,1990,2011,2032,2051,2071,2092,2111,2131,2152,2171,2191,2210,2231,2250,2272,2291,2312,2332,2350,2372,2390,2411,2432,2451,2471,2492,2512,2531,2550,2570,2590,2610,2631,2652,2672,2690,2711,2731,2751,2772,2792,2812,2831,2852,2872,2891,2911,2932,2952,2972,2991,3012,3032,3052,3070,3090,3110,3130,3152,3172,3190,3212,3230,3250,3270,3291,3310,3331,3351,3372,3391,3412,3431,3451,3472,3490,3512,3531,3551,3572,3591,3611,3631,3651,3671,3690,3711,3731,3751,3770,3790,3812,3832,3852,3871,3891,3911,3931,3952,3971,3991,4011,4032,4051,4072,4091,4111,4131],"xSR":741.5,"ySR":469.95,"xT1":424.9,"yT1":0,"xT2":1058.1,"yT2":0,"toosoon":0,"cond_shown":"equaldotsize","ratio_trial":500,"smaller_num":"2","larger_num":"4","correct_side":1,"subjID":"ivonnesandoval22","gender":"1","age":"10","school":"4"},{"start_time":1552054947670,"click_time":1552054949805,"finger_time":1552054948444,"fix_duration":1222.5075216005982,"trial":16,"RT":774,"MT":1361,"sideResp":1,"stimulus":"img/250/randomdotsizeEA/L/15_Ratio_250_L_12_R_3.png","xmouse":[791,791,791,791,791,791,791,791,791,791,791,791,791,791,791,791,791,791,791,791,791,791,791,791,791,791,791,791,791,791,791,791,791,791,791,797,803,818,847,934,962,988,1014,1035,1047,1056,1061,1063,1068,1076,1079,1082,1084,1085,1086,1086,1087,1089,1090,1091,1091,1091,1091,1091,1091,1091,1091,1091,1091,1091,1091,1088,1085,1080,1070,1038,1019,1008,1000,993,977,960,937,899,798,713,626,505,446,413,394,392,392,392,392,392,392,392,400,430,448,466,478,484,485,485,483],"ymouse":[516,516,516,516,516,516,516,516,516,516,516,516,516,516,516,516,516,516,516,516,516,516,516,516,516,516,516,516,516,516,516,516,516,516,516,511,502,486,463,382,354,322,293,266,246,224,212,206,191,171,159,148,140,136,132,131,128,120,117,107,107,107,107,107,107,107,107,107,107,107,119,139,165,204,264,378,423,441,454,462,471,477,479,479,462,436,393,312,264,222,177,166,156,149,142,135,134,134,132,127,122,117,113,109,105,100,96],"timestamp_mouse":[15,45,55,76,94,116,136,156,174,195,216,234,256,276,295,314,335,356,375,394,415,436,456,474,495,516,536,556,574,595,616,635,655,675,695,715,735,755,774,795,815,835,854,876,895,915,936,955,976,996,1014,1035,1056,1076,1095,1114,1136,1155,1176,1195,1216,1235,1256,1275,1295,1315,1335,1354,1376,1396,1416,1435,1455,1476,1496,1515,1535,1554,1574,1596,1616,1634,1654,1676,1695,1715,1735,1755,1775,1796,1815,1835,1856,1876,1896,1915,1935,1955,1975,1996,2014,2035,2054,2075,2097,2115,2134],"xSR":741.5,"ySR":469.95,"xT1":424.9,"yT1":0,"xT2":1058.1,"yT2":0,"toosoon":0,"cond_shown":"randomdotsizeEA","ratio_trial":250,"smaller_num":"3","larger_num":"12","correct_side":1,"subjID":"ivonnesandoval22","gender":"1","age":"10","school":"4"},{"start_time":1552054952834,"click_time":1552054954785,"finger_time":1552054953666,"fix_duration":648.1325786855425,"trial":17,"RT":832,"MT":1119,"sideResp":1,"stimulus":"img/750/equaldotanddens/L/6_Ratio_750_L_24_R_18.png","xmouse":[797,796,796,796,796,796,796,796,796,796,796,796,796,796,796,796,796,796,796,796,796,796,796,796,796,796,796,796,796,796,796,796,796,796,796,797,799,803,804,809,820,842,906,938,968,992,1013,1013,1013,1013,1013,1013,1013,1013,1013,1013,1013,1013,1013,1013,1013,1013,1013,1013,989,973,954,904,884,865,851,840,830,827,824,819,812,762,724,676,623,562,439,386,342,315,300,300,299,306,321,351,432,463,476,480,480,450],"ymouse":[546,540,535,535,535,535,535,535,535,535,535,535,535,535,535,535,535,535,535,535,535,535,535,535,535,535,535,535,535,535,535,535,535,535,535,531,528,520,515,499,473,421,273,198,126,67,7,7,7,7,7,7,7,7,7,7,7,7,7,7,7,7,7,7,9,21,34,61,69,75,79,80,81,81,82,82,82,65,54,51,53,73,149,188,220,232,235,235,235,227,211,195,157,143,134,129,118,85],"timestamp_mouse":[15,35,52,71,91,111,131,151,170,192,212,231,252,270,292,312,332,351,372,391,412,431,452,471,492,511,531,550,572,591,612,632,652,671,691,712,730,751,771,792,812,832,850,872,891,911,932,952,971,992,1011,1031,1052,1071,1091,1110,1131,1152,1172,1192,1211,1233,1252,1270,1291,1312,1332,1353,1370,1391,1412,1431,1451,1470,1492,1512,1531,1551,1570,1592,1611,1630,1651,1672,1692,1711,1731,1751,1770,1790,1811,1831,1851,1870,1891,1912,1932,1950],"xSR":741.5,"ySR":469.95,"xT1":424.9,"yT1":0,"xT2":1058.1,"yT2":0,"toosoon":0,"cond_shown":"equaldotanddens","ratio_trial":750,"smaller_num":"18","larger_num":"24","correct_side":1,"subjID":"ivonnesandoval22","gender":"1","age":"10","school":"4"},{"start_time":1552054956478,"click_time":1552054958266,"finger_time":1552054957305,"fix_duration":791.7321780182754,"trial":18,"RT":827,"MT":961,"sideResp":1,"stimulus":"img/250/equaldotsize/L/15_Ratio_250_L_12_R_3.png","xmouse":[756,756,756,756,756,756,756,756,756,756,756,756,756,756,756,756,756,756,756,756,756,756,756,756,756,756,756,756,756,756,756,756,756,756,756,756,756,756,756,756,750,713,675,638,596,570,561,554,545,534,521,517,512,509,506,502,502,502,499,496,489,488,487,487,486,486,484,484,484,483,482,481,480,467,458,454,450,449,447,446,446,446,446,446,446,446,446,446,449,455],"ymouse":[562,562,562,562,562,562,562,562,562,562,562,562,562,562,562,562,562,562,562,562,562,562,562,562,562,562,562,562,562,562,562,562,562,562,562,562,562,562,562,559,556,529,491,449,399,376,371,367,361,352,337,329,322,313,300,272,255,237,218,198,172,166,163,162,159,159,154,153,151,150,146,145,143,136,131,128,121,119,119,119,118,118,118,118,118,117,115,114,108,99],"timestamp_mouse":[13,42,48,68,86,107,128,148,167,188,207,226,248,266,287,308,328,348,367,388,407,428,448,468,488,507,528,547,566,588,607,627,646,668,688,706,727,747,768,787,807,827,847,867,887,908,927,947,966,988,1007,1026,1047,1066,1086,1107,1127,1147,1168,1187,1208,1227,1248,1267,1286,1308,1328,1347,1368,1387,1408,1426,1446,1466,1487,1508,1527,1547,1568,1588,1607,1627,1647,1668,1686,1706,1727,1747,1768,1788],"xSR":741.5,"ySR":469.95,"xT1":424.9,"yT1":0,"xT2":1058.1,"yT2":0,"toosoon":0,"cond_shown":"equaldotsize","ratio_trial":250,"smaller_num":"3","larger_num":"12","correct_side":1,"subjID":"ivonnesandoval22","gender":"1","age":"10","school":"4"},{"start_time":1552054962919,"click_time":1552054965066,"finger_time":1552054963726,"fix_duration":871.9055931767416,"trial":19,"RT":807,"MT":1340,"sideResp":2,"stimulus":"img/500/randomdotsizeEA/R/15_Ratio_500_L_1_R_2.png","xmouse":[782,782,783,783,783,783,783,783,783,783,783,783,783,783,783,783,783,783,783,783,783,783,783,783,783,783,783,783,783,783,783,783,783,783,783,783,785,786,789,794,800,811,824,833,849,854,862,873,893,921,932,939,944,949,951,953,953,954,955,956,957,971,986,996,1004,1006,1007,1007,1008,1009,1009,1011,1011,1011,1017,1024,1031,1039,1047,1059,1061,1064,1065,1066,1069,1070,1070,1070,1070,1071,1071,1071,1071,1071,1071,1071,1071,1071,1071,1071,1071,1071,1071,1071,1071,1071,1071,1073],"ymouse":[497,497,497,497,497,497,497,497,497,497,497,497,497,497,497,497,497,497,497,497,497,497,497,497,497,497,497,497,497,497,497,497,497,497,497,497,495,493,490,476,461,443,428,416,392,380,364,339,263,189,169,157,150,145,143,140,139,138,137,135,133,123,114,108,105,104,104,104,104,104,104,104,104,104,104,104,104,104,104,104,104,103,102,102,101,101,100,100,100,100,100,100,100,100,100,100,100,100,100,100,100,100,100,100,100,100,100,99],"timestamp_mouse":[6,25,46,67,86,107,125,146,166,186,207,227,247,267,285,306,327,346,366,387,406,427,446,465,486,507,525,545,566,586,606,626,646,666,685,706,726,747,767,786,807,826,846,867,886,905,926,946,967,985,1007,1026,1046,1066,1086,1107,1126,1147,1166,1187,1206,1226,1247,1266,1286,1305,1327,1346,1366,1386,1407,1427,1447,1467,1486,1506,1526,1546,1566,1586,1605,1626,1646,1665,1686,1705,1727,1747,1766,1786,1807,1827,1847,1866,1886,1907,1927,1947,1966,1986,2006,2026,2047,2066,2086,2105,2125,2146],"xSR":741.5,"ySR":469.95,"xT1":424.9,"yT1":0,"xT2":1058.1,"yT2":0,"toosoon":0,"cond_shown":"randomdotsizeEA","ratio_trial":500,"smaller_num":"1","larger_num":"2","correct_side":2,"subjID":"ivonnesandoval22","gender":"1","age":"10","school":"4"},{"start_time":1552054968613,"click_time":1552054969786,"finger_time":1552054969327,"fix_duration":826.3618863524925,"trial":20,"RT":714,"MT":459,"sideResp":1,"stimulus":"img/750/randomdotsizeEA/R/7_Ratio_750_L_3_R_4.png","xmouse":[783,783,783,783,783,783,783,783,783,783,783,783,783,783,783,783,783,783,783,783,783,783,783,783,783,783,783,783,783,783,783,783,783,783,773,760,744,722,688,617,586,555,539,524,520,517,516,512,507,497,489,485,482,482,477,474,470,467],"ymouse":[497,495,494,492,489,488,488,488,488,488,488,488,488,488,488,488,488,488,488,488,488,488,488,487,486,486,486,486,486,486,486,486,486,483,468,449,430,411,385,337,316,291,278,263,258,255,249,242,230,196,171,160,152,148,130,117,103,90],"timestamp_mouse":[35,53,73,93,113,132,152,174,193,214,233,253,273,293,313,332,353,373,394,414,433,454,474,493,513,532,554,572,593,612,632,652,672,693,714,734,753,772,792,812,832,852,873,894,912,933,953,973,992,1012,1033,1053,1073,1092,1112,1134,1153,1173],"xSR":741.5,"ySR":469.95,"xT1":424.9,"yT1":0,"xT2":1058.1,"yT2":0,"toosoon":0,"cond_shown":"randomdotsizeEA","ratio_trial":750,"smaller_num":"3","larger_num":"4","correct_side":2,"subjID":"ivonnesandoval22","gender":"1","age":"10","school":"4"},{"start_time":1552054971828,"click_time":1552054973166,"finger_time":1552054972746,"fix_duration":1101.6200150612606,"trial":21,"RT":918,"MT":420,"sideResp":2,"stimulus":"img/900/equaldotsize/L/10_Ratio_900_L_20_R_18.png","xmouse":[800,800,800,800,800,800,800,800,800,800,800,800,800,800,800,800,800,800,800,801,802,802,802,802,802,802,802,802,802,802,802,802,802,802,802,802,802,802,802,802,804,804,806,807,819,838,877,919,970,1010,1020,1023,1025,1029,1037,1047,1053,1053,1053,1053,1053,1053,1053,1053,1053,1053,1147],"ymouse":[538,538,538,538,538,538,538,538,538,538,538,538,538,538,538,538,538,537,535,530,529,528,528,528,528,528,528,527,526,525,525,525,525,525,525,525,525,525,525,524,518,516,511,505,474,435,364,292,208,143,128,114,101,82,44,19,7,7,7,7,7,7,7,7,7,7,6],"timestamp_mouse":[17,39,57,78,99,118,137,157,177,197,218,238,259,278,297,317,338,358,378,398,418,437,457,478,497,519,539,559,578,598,617,638,659,678,698,717,739,758,778,797,818,838,858,878,897,918,938,959,978,997,1017,1037,1057,1077,1098,1117,1138,1158,1178,1199,1218,1237,1257,1278,1299,1319,1338],"xSR":741.5,"ySR":469.95,"xT1":424.9,"yT1":0,"xT2":1058.1,"yT2":0,"toosoon":0,"cond_shown":"equaldotsize","ratio_trial":900,"smaller_num":"18","larger_num":"20","correct_side":1,"subjID":"ivonnesandoval22","gender":"1","age":"10","school":"4"},{"start_time":1552054974881,"click_time":1552054976027,"finger_time":1552054975706,"fix_duration":773.0420885321194,"trial":22,"RT":825,"MT":321,"sideResp":1,"stimulus":"img/250/randomdotsizeEA/L/15_Ratio_250_L_12_R_3.png","xmouse":[798,798,798,798,798,799,799,799,799,799,800,800,800,800,800,800,800,800,798,795,794,793,792,791,790,789,788,788,788,788,788,788,787,786,786,785,784,784,779,772,761,746,715,699,683,669,656,636,623,611,596,582,567,531,516,494,483,473],"ymouse":[541,541,541,541,541,541,541,541,541,540,539,538,538,536,535,534,531,529,523,520,517,516,512,510,509,507,507,505,505,505,505,505,505,505,504,504,504,503,498,489,479,468,443,430,416,403,389,361,345,326,304,282,254,187,160,126,111,99],"timestamp_mouse":[13,24,45,64,86,106,125,145,164,185,206,224,244,265,284,306,326,345,366,385,406,426,445,466,485,505,526,545,565,585,604,624,646,665,685,704,724,746,765,786,805,824,846,865,885,905,924,946,964,985,1005,1024,1046,1066,1085,1106,1126,1146],"xSR":741.5,"ySR":469.95,"xT1":424.9,"yT1":0,"xT2":1058.1,"yT2":0,"toosoon":0,"cond_shown":"randomdotsizeEA","ratio_trial":250,"smaller_num":"3","larger_num":"12","correct_side":1,"subjID":"ivonnesandoval22","gender":"1","age":"10","school":"4"},{"start_time":1552054978220,"click_time":1552054979406,"finger_time":1552054979046,"fix_duration":1091.5148595663197,"trial":23,"RT":826,"MT":360,"sideResp":1,"stimulus":"img/500/equaldotanddens/L/4_Ratio_500_L_18_R_9.png","xmouse":[821,821,821,821,821,821,821,821,821,821,821,821,821,821,821,821,821,821,821,821,821,821,821,821,821,821,821,821,821,821,821,821,821,821,821,821,821,821,821,821,817,763,693,605,525,454,400,393,393,393,396,399,400,402,403,405,422,430,438,443],"ymouse":[511,511,511,511,511,511,511,511,511,511,511,511,511,511,511,511,511,511,511,511,511,511,511,511,511,511,511,511,511,511,511,511,511,511,511,511,511,511,511,511,502,448,390,316,258,219,193,187,183,178,174,166,161,156,154,149,127,116,101,89],"timestamp_mouse":[12,39,46,65,86,106,126,147,166,186,207,227,245,266,285,307,327,346,366,386,406,426,445,466,487,506,526,546,566,586,605,627,645,666,687,706,726,746,767,787,806,826,846,867,887,906,926,945,965,986,1006,1026,1047,1066,1085,1105,1126,1146,1167,1186],"xSR":741.5,"ySR":469.95,"xT1":424.9,"yT1":0,"xT2":1058.1,"yT2":0,"toosoon":0,"cond_shown":"equaldotanddens","ratio_trial":500,"smaller_num":"9","larger_num":"18","correct_side":1,"subjID":"ivonnesandoval22","gender":"1","age":"10","school":"4"},{"start_time":1552054981092,"click_time":1552054982206,"finger_time":1552054981846,"fix_duration":924.2458893731166,"trial":24,"RT":754,"MT":360,"sideResp":2,"stimulus":"img/900/randomdotsizeEA/R/12_Ratio_900_L_18_R_20.png","xmouse":[805,805,805,805,805,805,805,805,805,805,808,816,828,830,831,831,831,831,831,831,831,831,831,831,831,831,831,831,831,831,831,831,831,831,831,832,835,842,845,853,865,895,937,950,958,961,963,967,974,977,980,989,1015,1033,1050,1062],"ymouse":[564,564,564,564,564,564,564,564,564,564,564,550,534,532,531,531,531,531,531,531,531,531,531,531,531,531,531,531,531,531,531,531,530,524,518,511,499,456,427,378,312,198,108,90,83,81,80,80,78,78,78,78,79,79,79,79],"timestamp_mouse":[20,41,53,73,94,113,134,153,174,193,214,234,254,275,295,315,333,353,375,394,415,434,454,474,494,514,534,553,575,593,613,634,653,675,694,713,735,754,773,793,814,833,854,874,895,914,934,954,974,994,1014,1035,1054,1075,1094,1113],"xSR":741.5,"ySR":469.95,"xT1":424.9,"yT1":0,"xT2":1058.1,"yT2":0,"toosoon":0,"cond_shown":"randomdotsizeEA","ratio_trial":900,"smaller_num":"18","larger_num":"20","correct_side":2,"subjID":"ivonnesandoval22","gender":"1","age":"10","school":"4"},{"start_time":1552054983097,"click_time":1552054984347,"finger_time":1552054983965,"fix_duration":250,"trial":25,"RT":868,"MT":382,"sideResp":1,"stimulus":"img/750/equaldotanddens/L/6_Ratio_750_L_24_R_18.png","xmouse":[796,796,796,796,796,796,796,796,796,796,796,796,796,796,796,796,796,796,796,796,796,796,796,796,796,796,796,796,796,796,796,796,796,796,796,796,796,796,796,796,796,792,758,734,691,623,548,439,425,420,419,416,416,416,416,418,421,430,436,447,459,466,466],"ymouse":[539,539,539,539,539,539,539,539,539,539,539,539,539,539,539,539,539,539,539,539,539,539,539,539,539,539,539,539,539,539,539,539,539,539,539,539,539,539,539,539,539,535,502,478,444,392,330,249,230,216,215,210,191,182,176,169,166,159,157,151,141,119,88],"timestamp_mouse":[10,30,49,68,89,109,128,149,169,189,209,229,248,269,289,308,330,348,369,389,409,428,448,470,488,509,529,549,569,590,609,628,649,668,689,709,730,749,769,788,810,829,849,868,888,909,930,949,969,990,1009,1029,1050,1068,1090,1108,1128,1150,1168,1189,1210,1229,1250],"xSR":741.5,"ySR":469.95,"xT1":424.9,"yT1":0,"xT2":1058.1,"yT2":0,"toosoon":0,"cond_shown":"equaldotanddens","ratio_trial":750,"smaller_num":"18","larger_num":"24","correct_side":1,"subjID":"ivonnesandoval22","gender":"1","age":"10","school":"4"},{"start_time":1552054994365,"click_time":1552054996106,"finger_time":1552054995085,"fix_duration":1417.3764013140174,"trial":26,"RT":720,"MT":1021,"sideResp":1,"stimulus":"img/500/equaldotanddens/L/8_Ratio_500_L_8_R_4.png","xmouse":[806,806,806,806,806,806,806,806,806,806,806,806,806,806,806,806,806,806,806,806,806,806,806,806,806,806,806,806,806,806,806,806,806,800,785,752,736,727,720,717,714,710,700,606,517,432,304,276,264,256,247,232,217,212,208,203,196,195,194,194,194,195,197,199,200,202,204,206,208,209,209,209,209,209,209,211,211,212,213,221,241,301,322,342,361,381,419,437],"ymouse":[480,480,480,480,480,480,480,480,480,480,480,480,480,480,480,480,480,480,480,480,480,480,480,480,480,480,480,480,480,480,480,480,479,479,479,477,476,476,475,474,473,470,466,436,401,367,308,291,280,271,260,242,223,212,201,190,170,156,140,123,90,74,65,58,52,49,43,41,39,37,37,37,37,36,36,36,36,36,36,36,35,32,32,32,32,32,32,31],"timestamp_mouse":[10,37,40,61,81,102,121,141,161,182,201,220,242,261,281,301,321,340,361,381,402,422,442,460,481,500,520,542,562,581,601,621,642,661,681,702,720,742,760,782,801,821,841,860,880,901,920,941,962,981,1000,1021,1040,1060,1080,1101,1120,1141,1161,1181,1202,1220,1241,1262,1281,1301,1321,1340,1361,1381,1401,1422,1442,1462,1481,1501,1522,1541,1560,1581,1601,1620,1642,1661,1681,1700,1720,1741],"xSR":741.5,"ySR":469.95,"xT1":424.9,"yT1":0,"xT2":1058.1,"yT2":0,"toosoon":0,"cond_shown":"equaldotanddens","ratio_trial":500,"smaller_num":"4","larger_num":"8","correct_side":1,"subjID":"ivonnesandoval22","gender":"1","age":"10","school":"4"},{"start_time":1552055001386,"click_time":1552055002745,"finger_time":1552055002246,"fix_duration":1316.0024573802598,"trial":27,"RT":860,"MT":499,"sideResp":2,"stimulus":"img/500/equaldotanddens/R/1_Ratio_500_L_9_R_18.png","xmouse":[773,773,773,773,773,773,773,773,773,773,773,773,773,773,773,773,773,773,773,773,773,773,773,773,773,773,773,773,773,773,773,773,773,773,773,773,773,773,773,773,776,793,816,843,867,903,917,930,936,957,990,1006,1021,1034,1043,1049,1065,1068,1072,1075,1077,1079,1081,1083,1085,1087,1093,1101,1110],"ymouse":[506,506,506,506,506,506,506,506,506,506,506,506,506,506,506,506,506,506,506,506,506,506,506,506,506,506,506,506,506,506,506,506,506,506,506,506,506,506,506,506,506,499,493,486,481,475,471,466,462,448,426,413,398,381,366,349,306,298,279,268,259,243,233,221,207,188,144,105,79],"timestamp_mouse":[9,35,39,61,79,100,120,141,160,181,200,219,239,261,280,300,320,341,360,381,400,421,440,461,480,500,520,541,561,579,600,621,639,659,679,699,721,739,759,779,801,820,840,860,880,902,920,940,961,980,1001,1019,1039,1060,1080,1100,1119,1139,1160,1179,1200,1221,1240,1261,1280,1299,1320,1339,1359],"xSR":741.5,"ySR":469.95,"xT1":424.9,"yT1":0,"xT2":1058.1,"yT2":0,"toosoon":0,"cond_shown":"equaldotanddens","ratio_trial":500,"smaller_num":"9","larger_num":"18","correct_side":2,"subjID":"ivonnesandoval22","gender":"1","age":"10","school":"4"},{"start_time":1552055020749,"click_time":1552055022745,"finger_time":1552055022045,"fix_duration":461.15033381854397,"trial":28,"RT":1296,"MT":700,"sideResp":2,"stimulus":"img/900/equaldotanddens/R/3_Ratio_900_L_9_R_10.png","xmouse":[822,822,822,822,822,822,822,822,822,822,822,822,822,822,822,822,822,822,822,822,822,822,822,822,822,822,822,822,822,822,822,822,822,822,822,822,822,822,822,822,822,822,822,822,822,822,822,822,822,822,822,822,822,822,822,822,822,822,822,822,822,822,822,820,815,820,837,867,904,904,904,904,904,904,904,904,904,904,904,904,904,904,904,904,904,904,904,904,904,904,904,904,904,904,904,904,904,904,904,1129],"ymouse":[537,537,537,537,537,537,537,537,537,537,537,537,537,537,537,537,537,537,537,537,537,537,537,537,537,537,537,537,537,537,537,537,537,537,537,537,537,537,537,537,537,537,537,537,537,537,537,537,537,537,537,537,537,537,537,537,537,537,537,537,537,537,537,525,450,360,256,151,0,0,0,0,0,0,0,0,0,0,0,0,0,0,0,0,0,0,0,0,0,0,0,0,0,0,0,0,0,0,0,1],"timestamp_mouse":[17,46,58,77,96,117,148,157,176,196,217,236,258,277,297,317,336,358,378,396,416,438,458,476,496,516,536,557,578,597,616,638,658,676,696,716,737,756,778,797,816,837,856,878,898,917,938,957,978,997,1017,1036,1057,1078,1097,1116,1137,1158,1178,1197,1216,1238,1256,1277,1296,1317,1336,1356,1376,1396,1416,1436,1457,1477,1496,1516,1536,1556,1578,1597,1618,1637,1657,1677,1697,1717,1736,1757,1777,1796,1818,1837,1858,1879,1896,1917,1937,1956,1976,1996],"xSR":741.5,"ySR":469.95,"xT1":424.9,"yT1":0,"xT2":1058.1,"yT2":0,"toosoon":0,"cond_shown":"equaldotanddens","ratio_trial":900,"smaller_num":"9","larger_num":"10","correct_side":2,"subjID":"ivonnesandoval22","gender":"1","age":"10","school":"4"},{"start_time":1552055024651,"click_time":1552055025786,"finger_time":1552055025446,"fix_duration":563.1615767804506,"trial":29,"RT":795,"MT":340,"sideResp":2,"stimulus":"img/250/randomdotsizeEA/R/10_Ratio_250_L_4_R_16.png","xmouse":[829,829,829,829,829,829,829,829,829,829,829,829,829,829,829,829,829,829,829,829,829,829,829,829,829,829,829,829,829,829,829,829,829,829,829,829,829,829,839,911,968,1014,1043,1060,1068,1069,1069,1069,1071,1074,1078,1080,1082,1083,1088,1090,1092],"ymouse":[507,507,507,507,507,507,507,507,507,507,507,507,507,507,507,507,507,507,507,507,507,507,507,507,507,507,507,507,507,507,507,507,507,507,507,507,502,494,477,371,300,239,208,192,184,182,181,180,177,171,164,162,155,149,116,102,91],"timestamp_mouse":[14,42,54,74,94,114,136,156,174,195,216,235,256,276,295,316,334,355,376,396,416,436,455,476,496,515,535,556,576,595,615,634,656,675,696,715,734,756,775,795,815,834,855,875,895,914,934,954,974,995,1014,1035,1055,1075,1094,1114,1135],"xSR":741.5,"ySR":469.95,"xT1":424.9,"yT1":0,"xT2":1058.1,"yT2":0,"toosoon":0,"cond_shown":"randomdotsizeEA","ratio_trial":250,"smaller_num":"4","larger_num":"16","correct_side":2,"subjID":"ivonnesandoval22","gender":"1","age":"10","school":"4"},{"start_time":1552055026913,"click_time":1552055028828,"finger_time":1552055028068,"fix_duration":546.3900183798717,"trial":30,"RT":1155,"MT":760,"sideResp":2,"stimulus":"img/500/equaldotsize/R/2_Ratio_500_L_3_R_6.png","xmouse":[776,776,776,776,776,776,776,776,776,776,776,776,776,776,776,776,776,776,776,776,776,776,776,776,776,776,776,776,776,776,776,776,776,776,776,776,776,776,776,776,776,775,774,773,772,772,772,772,772,772,772,772,772,772,772,772,795,823,878,913,945,974,1023,1050,1082,1116,1169,1187,1200,1207,1213,1214,1214,1214,1214,1214,1213,1207,1195,1177,1168,1161,1160,1158,1154,1147,1141,1136,1134,1133,1132,1131,1131,1126,1119,1112],"ymouse":[551,551,551,551,551,551,551,551,551,551,551,551,551,551,551,551,551,551,551,551,551,551,551,551,551,551,551,551,551,551,551,551,551,551,551,551,551,551,551,551,551,549,547,544,543,542,542,542,542,542,542,542,542,542,541,536,499,469,421,390,362,334,275,243,207,174,121,103,86,76,65,63,63,63,63,63,63,68,81,99,107,114,115,115,116,118,120,122,123,123,124,124,124,122,110,94],"timestamp_mouse":[22,42,52,72,93,114,133,153,173,193,212,233,253,272,292,312,332,353,373,392,412,432,453,472,492,512,533,554,572,592,613,632,652,672,695,714,734,754,775,794,814,834,855,874,895,915,936,954,975,994,1016,1034,1054,1075,1095,1114,1135,1155,1175,1194,1215,1235,1255,1274,1294,1315,1336,1354,1374,1396,1415,1434,1455,1474,1495,1514,1535,1555,1574,1596,1616,1634,1654,1674,1695,1714,1736,1755,1775,1794,1816,1835,1856,1876,1895,1915],"xSR":741.5,"ySR":469.95,"xT1":424.9,"yT1":0,"xT2":1058.1,"yT2":0,"toosoon":0,"cond_shown":"equaldotsize","ratio_trial":500,"smaller_num":"3","larger_num":"6","correct_side":2,"subjID":"ivonnesandoval22","gender":"1","age":"10","school":"4"},{"start_time":1552055033323,"click_time":1552055036187,"finger_time":1552055034068,"fix_duration":933.2813322406118,"trial":31,"RT":745,"MT":2119,"sideResp":2,"stimulus":"img/500/randomdotsizeEA/R/14_Ratio_500_L_5_R_10.png","xmouse":[823,823,823,823,823,823,823,823,823,823,823,823,823,823,823,823,823,823,823,823,823,823,823,823,823,823,823,823,823,823,823,823,823,823,823,822,826,857,886,912,940,959,968,978,982,991,1012,1054,1085,1085,1085,1085,1085,1085,1085,1085,1085,1198,1198,1194,1179,1144,1033,988,972,968,968,968,968,967,977,990,1009,1012,1013,1015,1015,1015,1015,1020,1032,1048,1090,1112,1162,1216,1254,1284,1306,1302,1293,1281,1262,1175,1053,1016,959,954,957,967,987,1019,1068,1077,1078,1078,1062,1029,1013,1005,1004,1006,1104,1233,1278,1353,1363,1363,1363,1325,1197,1023,744,698,698,742,921,1229,1317,1330,1330,1290,947,767,711,784,873,873,873,873,873,1555,1450,1142],"ymouse":[514,514,514,514,514,514,514,514,514,514,514,514,514,514,514,514,514,514,514,514,514,514,514,514,514,514,514,514,514,514,514,514,514,514,514,508,492,388,318,254,199,165,147,121,109,92,63,21,0,0,0,0,0,0,0,0,0,3,11,28,57,121,255,288,296,297,297,297,297,286,254,207,134,114,102,92,92,92,92,99,121,144,179,186,189,167,140,113,57,39,29,27,27,93,199,230,280,288,293,293,286,267,219,192,166,148,129,126,133,142,142,144,133,115,105,79,73,73,73,82,113,146,174,168,162,130,68,27,31,37,43,64,138,146,108,57,23,23,23,23,23,25,55,98],"timestamp_mouse":[14,25,45,64,84,105,124,144,164,184,204,224,244,264,284,305,325,344,364,385,404,425,444,465,485,504,524,544,565,584,604,625,644,666,685,704,724,745,765,784,805,824,844,864,886,905,924,945,964,984,1004,1025,1044,1065,1085,1105,1125,1145,1164,1184,1205,1225,1245,1264,1286,1306,1325,1345,1365,1385,1405,1425,1445,1465,1485,1506,1524,1544,1565,1585,1605,1624,1645,1666,1685,1705,1730,1745,1766,1784,1805,1824,1844,1865,1884,1905,1925,1945,1965,1984,2005,2025,2045,2064,2085,2105,2124,2145,2164,2184,2205,2225,2245,2264,2284,2305,2325,2345,2364,2386,2406,2425,2445,2465,2484,2505,2525,2545,2564,2585,2604,2626,2645,2664,2685,2704,2724,2745,2764,2784,2805,2824,2845,2864],"xSR":741.5,"ySR":469.95,"xT1":424.9,"yT1":0,"xT2":1058.1,"yT2":0,"toosoon":0,"cond_shown":"randomdotsizeEA","ratio_trial":500,"smaller_num":"5","larger_num":"10","correct_side":2,"subjID":"ivonnesandoval22","gender":"1","age":"10","school":"4"},{"start_time":1552055040094,"click_time":1552055041287,"finger_time":1552055040788,"fix_duration":705.5007627823671,"trial":32,"RT":694,"MT":499,"sideResp":2,"stimulus":"img/900/equaldotanddens/R/15_Ratio_900_L_9_R_10.png","xmouse":[811,811,811,811,811,811,811,811,811,811,811,811,811,811,811,811,811,811,811,811,811,811,811,811,811,811,811,811,811,811,811,811,811,818,857,880,904,921,935,955,967,979,992,1008,1064,1085,1105,1124,1136,1151,1155,1157,1159,1159,1159,1159,1159,1159,1159,1157],"ymouse":[537,537,537,537,537,537,537,537,537,537,537,537,537,537,537,537,537,537,537,537,537,537,537,537,537,537,537,537,537,537,537,535,530,508,414,367,331,310,292,267,254,243,234,224,191,183,174,164,155,138,127,115,104,98,93,93,93,93,92,92],"timestamp_mouse":[14,41,54,73,93,113,135,153,173,194,213,234,253,274,293,314,334,354,373,394,414,433,454,473,493,513,534,553,573,594,613,633,653,673,694,714,733,754,773,793,813,833,854,874,893,914,933,953,974,993,1013,1034,1054,1074,1093,1114,1134,1153,1173,1193],"xSR":741.5,"ySR":469.95,"xT1":424.9,"yT1":0,"xT2":1058.1,"yT2":0,"toosoon":0,"cond_shown":"equaldotanddens","ratio_trial":900,"smaller_num":"9","larger_num":"10","correct_side":2,"subjID":"ivonnesandoval22","gender":"1","age":"10","school":"4"},{"start_time":1552055046179,"click_time":1552055047408,"finger_time":1552055046588,"fix_duration":590.4827280827675,"trial":33,"RT":409,"MT":820,"sideResp":1,"stimulus":"img/500/equaldotanddens/L/5_Ratio_500_L_4_R_2.png","xmouse":[754,754,754,754,754,754,754,754,754,754,754,754,754,754,754,754,754,752,744,742,741,740,740,740,740,740,733,718,701,683,662,629,620,619,619,625,652,666,671,671,667,663,656,650,649,646,627,627,627,627,627,627,627,627,628,628,620,599,576,561,547,518],"ymouse":[518,518,518,518,518,518,518,518,518,518,518,518,518,518,518,518,518,518,512,508,507,505,505,505,505,505,498,476,457,440,421,387,369,348,320,279,191,162,136,129,124,119,117,116,116,116,116,116,116,116,116,116,115,112,111,109,99,91,83,79,74,70],"timestamp_mouse":[21,45,49,68,88,109,128,148,169,190,209,228,249,269,289,310,329,349,369,388,409,428,449,468,490,509,528,549,569,590,609,630,648,669,688,708,728,749,769,788,808,828,848,868,888,909,928,948,968,989,1008,1028,1049,1068,1088,1108,1128,1148,1170,1189,1209,1229],"xSR":741.5,"ySR":469.95,"xT1":424.9,"yT1":0,"xT2":1058.1,"yT2":0,"toosoon":0,"cond_shown":"equaldotanddens","ratio_trial":500,"smaller_num":"2","larger_num":"4","correct_side":1,"subjID":"ivonnesandoval22","gender":"1","age":"10","school":"4"},{"start_time":1552055049239,"click_time":1552055050208,"finger_time":1552055049868,"fix_duration":250,"trial":34,"RT":629,"MT":340,"sideResp":2,"stimulus":"img/900/randomdotsizeEA/L/8_Ratio_900_L_20_R_18.png","xmouse":[793,793,793,793,793,793,793,793,793,793,793,793,793,793,793,793,793,793,793,793,793,793,793,793,793,793,793,793,793,802,811,842,894,1063,1132,1193,1234,1257,1264,1264,1264,1264,1264,1264,1264,1259,1249,1227,1151],"ymouse":[527,527,527,527,527,527,527,527,527,527,527,527,527,527,527,527,527,527,527,527,527,527,527,527,527,527,527,527,527,514,499,455,396,246,191,147,116,101,95,95,95,95,95,95,95,93,91,89,89],"timestamp_mouse":[12,39,48,69,89,108,129,150,168,189,209,228,248,270,289,308,329,348,369,389,409,430,449,468,488,510,528,548,569,589,610,629,649,669,688,709,728,748,769,789,808,828,850,869,889,908,929,948,969],"xSR":741.5,"ySR":469.95,"xT1":424.9,"yT1":0,"xT2":1058.1,"yT2":0,"toosoon":0,"cond_shown":"randomdotsizeEA","ratio_trial":900,"smaller_num":"18","larger_num":"20","correct_side":1,"subjID":"ivonnesandoval22","gender":"1","age":"10","school":"4"},{"start_time":1552055052317,"click_time":1552055053409,"finger_time":1552055052627,"fix_duration":1306.2666470136032,"trial":35,"RT":310,"MT":782,"sideResp":2,"stimulus":"img/500/randomdotsizeEA/R/3_Ratio_500_L_10_R_20.png","xmouse":[771,771,771,771,771,771,771,771,771,771,771,769,768,763,739,725,709,692,691,691,691,691,691,691,691,691,691,691,691,691,691,691,692,701,710,729,750,769,803,819,835,852,866,876,884,884,888,901,935,965,1000,1045,1088,1132],"ymouse":[500,498,498,498,498,498,498,498,498,498,498,495,491,479,436,413,395,376,375,375,375,375,375,375,375,375,375,375,375,375,375,375,378,387,396,411,419,425,438,450,464,478,491,501,506,506,501,476,397,332,261,183,121,52],"timestamp_mouse":[31,51,71,90,110,131,151,172,191,212,230,250,271,290,310,331,351,372,392,411,431,450,470,490,510,532,551,571,591,611,631,651,670,691,710,730,751,771,791,810,831,851,871,891,911,931,951,970,991,1010,1031,1051,1071,1092],"xSR":741.5,"ySR":469.95,"xT1":424.9,"yT1":0,"xT2":1058.1,"yT2":0,"toosoon":0,"cond_shown":"randomdotsizeEA","ratio_trial":500,"smaller_num":"10","larger_num":"20","correct_side":2,"subjID":"ivonnesandoval22","gender":"1","age":"10","school":"4"},{"start_time":1552055057095,"click_time":1552055057848,"finger_time":1552055057727,"fix_duration":1307.4987122312186,"trial":36,"RT":632,"MT":121,"sideResp":2,"stimulus":"img/750/equaldotanddens/R/5_Ratio_750_L_15_R_20.png","xmouse":[774,774,775,775,775,775,775,775,775,775,775,775,775,775,775,775,775,775,775,775,775,775,775,775,775,775,775,775,775,776,780,835,879,930,977,1019,1075,1086],"ymouse":[521,521,521,521,521,521,521,521,521,521,521,521,521,521,521,521,521,521,521,521,521,521,521,521,521,521,521,521,521,521,516,445,377,301,236,178,100,83],"timestamp_mouse":[14,39,53,72,94,114,134,153,172,192,213,233,254,272,292,313,333,352,373,392,412,433,452,473,493,514,534,553,573,594,612,632,654,672,693,712,733,753],"xSR":741.5,"ySR":469.95,"xT1":424.9,"yT1":0,"xT2":1058.1,"yT2":0,"toosoon":0,"cond_shown":"equaldotanddens","ratio_trial":750,"smaller_num":"15","larger_num":"20","correct_side":2,"subjID":"ivonnesandoval22","gender":"1","age":"10","school":"4"},{"start_time":1552055059347,"click_time":1552055060328,"finger_time":1552055060068,"fix_duration":557.5027346552255,"trial":37,"RT":721,"MT":260,"sideResp":2,"stimulus":"img/900/randomdotsizeEA/R/15_Ratio_900_L_9_R_10.png","xmouse":[818,818,818,818,818,818,818,818,818,818,818,818,818,818,818,818,818,818,818,818,818,818,818,818,818,818,818,818,818,818,818,818,818,818,822,833,855,878,896,916,926,939,953,971,994,1006,1016,1028,1040,1070],"ymouse":[516,516,516,516,516,516,516,516,516,516,516,516,516,516,516,516,516,516,516,516,516,516,516,516,516,516,516,516,516,516,516,516,516,516,504,473,426,372,341,306,288,267,248,219,183,166,151,136,121,89],"timestamp_mouse":[10,35,41,61,81,100,121,140,162,182,201,221,242,261,280,301,321,341,361,380,401,420,440,460,480,500,521,540,560,580,601,621,640,661,680,701,721,741,761,781,800,820,840,861,881,900,921,941,962,981],"xSR":741.5,"ySR":469.95,"xT1":424.9,"yT1":0,"xT2":1058.1,"yT2":0,"toosoon":0,"cond_shown":"randomdotsizeEA","ratio_trial":900,"smaller_num":"9","larger_num":"10","correct_side":2,"subjID":"ivonnesandoval22","gender":"1","age":"10","school":"4"},{"start_time":1552055061991,"click_time":1552055063028,"finger_time":1552055062247,"fix_duration":782.3842802493789,"trial":38,"RT":256,"MT":781,"sideResp":1,"stimulus":"img/900/equaldotanddens/R/3_Ratio_900_L_9_R_10.png","xmouse":[824,824,824,824,824,824,824,821,817,810,803,788,778,766,757,749,739,737,737,737,737,737,736,733,729,721,696,667,648,641,613,598,597,597,597,597,597,597,597,599,601,609,610,610,610,610,610,604,578,557,528,487],"ymouse":[538,538,538,538,538,538,538,535,525,514,504,479,465,450,440,429,416,414,414,414,414,414,413,410,406,395,367,337,317,309,285,274,273,273,273,273,273,273,273,277,280,289,289,289,289,289,289,255,191,142,94,46],"timestamp_mouse":[17,38,57,76,96,117,137,157,176,197,217,237,256,276,296,317,337,357,376,397,416,437,457,478,497,518,538,556,576,597,617,637,656,676,697,716,737,757,777,798,816,838,856,876,896,917,937,956,976,997,1016,1037],"xSR":741.5,"ySR":469.95,"xT1":424.9,"yT1":0,"xT2":1058.1,"yT2":0,"toosoon":0,"cond_shown":"equaldotanddens","ratio_trial":900,"smaller_num":"9","larger_num":"10","correct_side":2,"subjID":"ivonnesandoval22","gender":"1","age":"10","school":"4"},{"start_time":1552055066753,"click_time":1552055068229,"finger_time":1552055067347,"fix_duration":1284.5053699841444,"trial":39,"RT":594,"MT":882,"sideResp":2,"stimulus":"img/250/equaldotsize/R/4_Ratio_250_L_3_R_12.png","xmouse":[771,771,771,771,771,771,771,771,771,771,771,771,771,771,771,771,771,771,771,771,771,771,771,771,771,771,773,777,789,898,987,1091,1182,1182,1182,1182,1182,1182,1182,1182,1182,1182,1182,1182,1234,1186,1148,1122,1104,1092,1092,1092,1091,1096,1162,1186,1186,1186,1186,1186,1186,1186,1186,1289,1174,1101,1017,943,898,876,891,947,1039,1155],"ymouse":[538,538,538,538,538,538,538,538,538,538,538,538,538,538,538,538,538,538,538,538,538,538,538,538,538,538,538,537,526,399,287,146,36,36,36,36,36,36,36,36,36,36,36,36,44,94,131,149,158,160,160,160,159,144,44,19,19,19,19,19,19,19,19,61,183,218,244,256,258,242,216,180,135,81],"timestamp_mouse":[16,41,55,76,94,116,136,155,174,196,214,234,254,274,295,316,336,354,374,395,415,435,455,474,494,515,534,556,575,594,614,634,655,675,695,714,734,755,774,795,815,835,855,876,894,914,934,956,976,995,1015,1035,1055,1075,1094,1115,1135,1155,1175,1195,1214,1236,1256,1275,1294,1314,1335,1355,1376,1394,1415,1434,1455,1476],"xSR":741.5,"ySR":469.95,"xT1":424.9,"yT1":0,"xT2":1058.1,"yT2":0,"toosoon":0,"cond_shown":"equaldotsize","ratio_trial":250,"smaller_num":"3","larger_num":"12","correct_side":2,"subjID":"ivonnesandoval22","gender":"1","age":"10","school":"4"},{"start_time":1552055069520,"click_time":1552055070349,"finger_time":1552055070147,"fix_duration":250,"trial":40,"RT":627,"MT":202,"sideResp":1,"stimulus":"img/250/equaldotanddens/L/7_Ratio_250_L_8_R_2.png","xmouse":[815,815,815,815,815,815,815,815,815,815,815,815,815,815,815,815,815,815,815,815,815,815,815,815,815,815,815,815,815,815,815,805,782,745,697,652,582,560,548,536,532,523],"ymouse":[476,476,476,476,476,476,476,476,476,476,476,476,476,476,476,476,476,476,476,476,476,476,476,476,476,476,476,476,476,476,476,458,418,354,284,221,133,104,82,58,45,27],"timestamp_mouse":[12,43,47,67,87,108,127,148,169,187,208,228,248,267,287,307,327,347,367,388,408,428,447,467,488,509,528,548,567,587,608,627,647,668,689,707,728,747,767,788,808,828],"xSR":741.5,"ySR":469.95,"xT1":424.9,"yT1":0,"xT2":1058.1,"yT2":0,"toosoon":0,"cond_shown":"equaldotanddens","ratio_trial":250,"smaller_num":"2","larger_num":"8","correct_side":1,"subjID":"ivonnesandoval22","gender":"1","age":"10","school":"4"},{"start_time":1552055071520,"click_time":1552055072988,"finger_time":1552055072207,"fix_duration":250,"trial":41,"RT":687,"MT":781,"sideResp":2,"stimulus":"img/900/randomdotsizeEA/L/2_Ratio_900_L_20_R_18.png","xmouse":[785,785,785,785,785,785,785,785,785,785,785,785,785,785,786,787,787,787,787,787,787,787,787,787,787,787,787,787,788,793,806,830,837,840,842,842,842,842,842,842,851,866,941,997,1042,1092,1164,1174,1174,1174,1174,1174,1175,1176,1176,1176,1176,1175,1168,1159,1147,1139,1137,1136,1136,1136,1136,1136,1136,1136,1136,1136,1139,1139],"ymouse":[519,519,519,519,519,519,519,519,519,519,519,519,519,519,519,518,518,518,518,518,518,518,518,518,518,518,518,518,517,514,505,485,479,477,475,475,475,475,475,473,467,454,382,315,252,184,71,52,47,47,47,46,46,44,44,44,44,47,63,86,106,119,124,131,136,139,139,139,139,139,139,138,101,83],"timestamp_mouse":[9,29,49,67,87,109,128,148,168,187,208,227,247,268,287,309,328,348,368,388,407,428,449,467,487,507,528,549,568,587,607,628,647,668,687,707,727,749,768,788,807,828,847,868,887,907,929,947,968,988,1007,1029,1047,1069,1088,1108,1128,1147,1167,1188,1207,1229,1247,1268,1287,1307,1328,1348,1368,1387,1408,1428,1448,1468],"xSR":741.5,"ySR":469.95,"xT1":424.9,"yT1":0,"xT2":1058.1,"yT2":0,"toosoon":0,"cond_shown":"randomdotsizeEA","ratio_trial":900,"smaller_num":"18","larger_num":"20","correct_side":1,"subjID":"ivonnesandoval22","gender":"1","age":"10","school":"4"},{"start_time":1552055074259,"click_time":1552055075408,"finger_time":1552055075009,"fix_duration":250,"trial":42,"RT":750,"MT":399,"sideResp":2,"stimulus":"img/250/equaldotsize/R/11_Ratio_250_L_3_R_12.png","xmouse":[797,797,797,797,797,797,797,797,797,797,797,797,797,797,797,797,797,797,797,797,797,797,797,797,797,797,797,797,797,797,797,797,797,797,798,815,830,851,878,963,1022,1053,1068,1076,1078,1083,1087,1089,1089,1089,1084,1083,1082,1082,1082,1082,1082,1087],"ymouse":[535,535,535,535,535,535,535,535,535,535,535,535,535,535,535,535,535,535,535,535,535,535,535,535,535,535,535,535,535,535,535,535,535,535,531,514,500,480,449,329,244,207,185,174,170,162,151,139,132,122,113,109,108,107,106,105,101,91],"timestamp_mouse":[21,47,49,70,90,109,128,148,169,189,208,228,248,269,288,309,329,350,369,388,409,430,449,469,489,509,528,548,569,589,609,628,648,668,688,708,730,750,769,791,808,829,848,868,889,910,928,948,969,988,1008,1028,1048,1069,1089,1109,1128,1149],"xSR":741.5,"ySR":469.95,"xT1":424.9,"yT1":0,"xT2":1058.1,"yT2":0,"toosoon":0,"cond_shown":"equaldotsize","ratio_trial":250,"smaller_num":"3","larger_num":"12","correct_side":2,"subjID":"ivonnesandoval22","gender":"1","age":"10","school":"4"},{"start_time":1552055077586,"click_time":1552055078748,"finger_time":1552055078247,"fix_duration":1258.9017399560253,"trial":43,"RT":661,"MT":501,"sideResp":1,"stimulus":"img/750/equaldotanddens/L/10_Ratio_750_L_4_R_3.png","xmouse":[809,808,808,807,803,799,798,797,796,796,795,794,792,790,783,781,780,780,780,780,780,780,780,780,780,780,780,780,780,780,780,779,773,764,728,697,674,657,642,631,630,630,630,630,630,630,630,630,630,630,630,629,619,607,564,528,498,471,455],"ymouse":[516,515,515,514,512,510,508,507,507,506,505,504,503,499,489,487,486,486,486,486,486,486,486,486,486,486,486,486,486,486,486,483,470,450,382,343,316,300,290,283,283,283,283,283,283,283,283,283,283,283,283,283,267,250,195,160,135,113,97],"timestamp_mouse":[11,38,42,61,81,102,122,143,163,181,201,222,242,262,281,301,322,343,362,381,403,422,442,462,482,501,521,541,561,581,603,621,642,661,682,703,721,741,763,781,801,822,842,863,882,902,922,942,962,981,1001,1021,1042,1062,1082,1102,1122,1142,1162],"xSR":741.5,"ySR":469.95,"xT1":424.9,"yT1":0,"xT2":1058.1,"yT2":0,"toosoon":0,"cond_shown":"equaldotanddens","ratio_trial":750,"smaller_num":"3","larger_num":"4","correct_side":1,"subjID":"ivonnesandoval22","gender":"1","age":"10","school":"4"},{"start_time":1552055079862,"click_time":1552055081469,"finger_time":1552055081068,"fix_duration":250,"trial":44,"RT":1206,"MT":401,"sideResp":1,"stimulus":"img/750/equaldotsize/L/1_Ratio_750_L_20_R_15.png","xmouse":[801,801,801,801,801,801,801,804,809,812,812,812,812,812,812,812,812,812,812,812,812,812,812,812,812,812,812,812,812,812,812,812,812,812,812,812,812,812,812,812,812,812,812,812,811,809,806,806,805,804,804,804,804,803,803,803,803,803,801,794,761,730,700,669,638,590,572,562,560,556,553,553,553,553,553,553,550,543,536,530,518],"ymouse":[513,513,513,513,513,513,513,511,504,501,501,501,501,501,501,501,501,501,501,501,501,501,501,501,501,501,501,501,501,501,501,501,501,501,501,501,501,501,501,501,501,501,501,501,502,503,505,506,506,507,507,507,507,508,508,508,508,508,508,505,446,381,316,258,214,160,146,137,135,132,129,129,128,128,128,128,124,113,100,90,74],"timestamp_mouse":[14,40,45,65,86,105,126,145,166,185,206,225,245,265,286,306,327,346,367,386,405,427,445,467,486,506,525,546,566,585,606,627,647,666,685,706,726,745,767,785,806,826,846,865,886,906,926,946,966,987,1006,1025,1046,1066,1086,1105,1127,1146,1166,1185,1206,1225,1246,1265,1285,1307,1325,1346,1366,1385,1407,1425,1445,1466,1485,1505,1526,1546,1566,1585,1607],"xSR":741.5,"ySR":469.95,"xT1":424.9,"yT1":0,"xT2":1058.1,"yT2":0,"toosoon":0,"cond_shown":"equaldotsize","ratio_trial":750,"smaller_num":"15","larger_num":"20","correct_side":1,"subjID":"ivonnesandoval22","gender":"1","age":"10","school":"4"},{"start_time":1552055083255,"click_time":1552055084128,"finger_time":1552055083868,"fix_duration":1085.7369860927079,"trial":45,"RT":613,"MT":260,"sideResp":2,"stimulus":"img/250/randomdotsizeEA/R/6_Ratio_250_L_6_R_24.png","xmouse":[772,772,772,772,772,772,774,779,786,790,791,791,791,791,791,791,791,791,791,791,791,791,791,791,791,791,793,794,796,799,806,820,828,843,867,887,935,954,972,990,1006,1040,1052,1065],"ymouse":[512,512,512,512,512,511,508,504,498,495,494,494,494,494,494,494,494,494,494,494,494,494,494,494,494,494,492,490,486,480,469,437,414,374,322,274,194,172,154,133,117,87,76,66],"timestamp_mouse":[13,36,53,72,92,112,132,153,173,193,212,232,254,272,293,312,333,353,373,393,412,434,453,473,493,513,534,553,573,593,613,633,652,672,693,712,732,753,774,792,813,833,853,873],"xSR":741.5,"ySR":469.95,"xT1":424.9,"yT1":0,"xT2":1058.1,"yT2":0,"toosoon":0,"cond_shown":"randomdotsizeEA","ratio_trial":250,"smaller_num":"6","larger_num":"24","correct_side":2,"subjID":"ivonnesandoval22","gender":"1","age":"10","school":"4"},{"start_time":1552055086479,"click_time":1552055087789,"finger_time":1552055087187,"fix_duration":250,"trial":46,"RT":708,"MT":602,"sideResp":1,"stimulus":"img/500/equaldotsize/L/5_Ratio_500_L_4_R_2.png","xmouse":[827,827,825,824,824,824,824,824,824,824,824,824,824,824,824,824,824,824,824,824,824,824,824,824,824,824,824,824,824,824,824,824,824,822,821,795,755,705,664,634,618,612,612,612,610,610,602,594,581,568,542,538,534,533,530,526,523,522,522,522,522,521,520,519,511,502],"ymouse":[530,530,530,530,530,530,530,530,530,530,530,530,530,530,530,530,530,530,530,530,530,530,530,530,530,530,530,530,530,530,530,530,530,529,524,465,396,327,281,255,243,238,238,236,227,218,188,171,155,142,125,122,118,116,114,110,108,107,107,107,107,107,107,106,102,96],"timestamp_mouse":[13,40,48,69,88,108,128,149,169,190,208,229,249,269,289,308,329,349,368,389,408,429,448,470,489,508,529,549,569,590,609,629,650,668,689,708,730,749,770,789,808,828,849,870,890,909,928,948,970,988,1009,1028,1049,1069,1088,1109,1128,1150,1171,1190,1210,1229,1249,1269,1289,1309],"xSR":741.5,"ySR":469.95,"xT1":424.9,"yT1":0,"xT2":1058.1,"yT2":0,"toosoon":0,"cond_shown":"equaldotsize","ratio_trial":500,"smaller_num":"2","larger_num":"4","correct_side":1,"subjID":"ivonnesandoval22","gender":"1","age":"10","school":"4"},{"start_time":1552055089668,"click_time":1552055090670,"finger_time":1552055090509,"fix_duration":936.1661878542992,"trial":47,"RT":841,"MT":161,"sideResp":2,"stimulus":"img/500/randomdotsizeEA/R/3_Ratio_500_L_10_R_20.png","xmouse":[803,803,803,803,803,803,803,803,804,804,804,804,805,806,806,806,806,806,806,806,806,806,806,806,806,806,806,806,806,806,806,806,806,806,806,806,806,806,806,808,811,828,851,872,905,940,979,1034,1048,1057,1065],"ymouse":[519,519,519,519,519,519,519,519,518,518,517,516,515,514,513,513,513,513,513,513,513,513,513,513,513,513,513,513,513,513,513,513,513,513,513,513,513,513,513,510,506,472,427,383,322,266,211,136,113,94,74],"timestamp_mouse":[11,22,41,61,81,101,121,140,162,181,202,221,241,261,281,301,322,341,362,382,402,420,442,462,482,502,522,540,561,581,602,622,640,660,682,701,722,742,760,780,801,822,841,862,881,902,921,940,962,980,1001],"xSR":741.5,"ySR":469.95,"xT1":424.9,"yT1":0,"xT2":1058.1,"yT2":0,"toosoon":0,"cond_shown":"randomdotsizeEA","ratio_trial":500,"smaller_num":"10","larger_num":"20","correct_side":2,"subjID":"ivonnesandoval22","gender":"1","age":"10","school":"4"},{"start_time":1552055094445,"click_time":1552055095289,"finger_time":1552055095150,"fix_duration":1372.5126791516502,"trial":48,"RT":705,"MT":139,"sideResp":1,"stimulus":"img/500/equaldotanddens/L/11_Ratio_500_L_12_R_6.png","xmouse":[763,763,763,763,763,763,763,763,763,763,763,763,763,763,763,763,763,763,763,763,763,763,763,763,763,763,763,763,763,763,763,763,763,763,754,741,711,667,586,559,541,528,504],"ymouse":[524,524,524,524,524,524,524,524,524,524,524,524,524,524,524,524,524,524,524,524,524,524,524,524,524,524,524,524,524,524,524,524,524,518,497,466,394,302,167,133,109,88,55],"timestamp_mouse":[12,37,44,64,85,105,124,144,164,183,203,225,244,265,283,304,324,344,364,384,404,424,443,464,484,505,524,543,564,584,605,624,645,664,684,705,725,744,765,783,804,824,844],"xSR":741.5,"ySR":469.95,"xT1":424.9,"yT1":0,"xT2":1058.1,"yT2":0,"toosoon":0,"cond_shown":"equaldotanddens","ratio_trial":500,"smaller_num":"6","larger_num":"12","correct_side":1,"subjID":"ivonnesandoval22","gender":"1","age":"10","school":"4"},{"start_time":1552055099605,"click_time":1552055100628,"finger_time":1552055100149,"fix_duration":834.4859259666126,"trial":49,"RT":544,"MT":479,"sideResp":2,"stimulus":"img/500/equaldotsize/R/14_Ratio_500_L_5_R_10.png","xmouse":[826,826,826,826,826,826,826,826,826,826,826,826,826,826,826,826,826,826,826,826,826,826,826,826,826,826,840,854,878,913,954,1100,1164,1208,1226,1229,1229,1229,1229,1229,1229,1217,1201,1182,1158,1137,1114,1108,1106,1103,1101,1093],"ymouse":[555,555,555,555,555,555,555,555,555,555,555,555,555,555,555,555,555,555,555,555,555,555,555,555,555,552,535,517,488,450,404,265,216,185,169,165,165,165,165,165,165,158,151,141,131,125,119,116,114,112,107,97],"timestamp_mouse":[12,36,44,64,84,104,125,144,163,185,204,224,244,265,283,305,324,344,364,385,404,424,444,465,484,505,523,544,564,584,604,624,644,664,683,705,724,744,765,784,804,824,844,865,884,904,924,944,963,983,1005,1023],"xSR":741.5,"ySR":469.95,"xT1":424.9,"yT1":0,"xT2":1058.1,"yT2":0,"toosoon":0,"cond_shown":"equaldotsize","ratio_trial":500,"smaller_num":"5","larger_num":"10","correct_side":2,"subjID":"ivonnesandoval22","gender":"1","age":"10","school":"4"},{"start_time":1552055104530,"click_time":1552055105729,"finger_time":1552055105729,"fix_duration":700.5448408631787,"trial":50,"RT":1199,"MT":0,"sideResp":2,"stimulus":"img/750/randomdotsizeEA/L/10_Ratio_750_L_4_R_3.png","xmouse":[808,808,808,808,808,808,808,808,808,808,808,808,808,808,808,808,808,808,808,808,808,808,808,808,808,808,808,808,808,808,808,808,808,808,808,808,808,808,808,808,808,808,808,808,808,808,808,808,808,808,808,808,808,808,808,808,804,775,754,1090],"ymouse":[564,564,564,564,564,564,564,564,564,564,564,564,564,564,564,564,564,564,564,564,564,564,564,564,564,564,564,564,564,564,564,564,564,564,564,564,564,564,564,564,564,564,564,564,564,564,564,564,564,564,564,564,564,564,564,564,568,565,565,33],"timestamp_mouse":[19,38,59,80,99,119,140,159,179,199,218,240,260,280,299,320,339,358,378,399,419,440,458,479,499,519,540,559,579,599,619,640,660,680,699,720,739,759,780,799,818,838,860,879,899,920,940,959,980,999,1018,1038,1059,1080,1099,1120,1140,1159,1180,1199],"xSR":741.5,"ySR":469.95,"xT1":424.9,"yT1":0,"xT2":1058.1,"yT2":0,"toosoon":0,"cond_shown":"randomdotsizeEA","ratio_trial":750,"smaller_num":"3","larger_num":"4","correct_side":1,"subjID":"ivonnesandoval22","gender":"1","age":"10","school":"4"},{"start_time":1552055110465,"click_time":1552055112029,"finger_time":1552055111709,"fix_duration":1415.1624775891246,"trial":51,"RT":1244,"MT":320,"sideResp":1,"stimulus":"img/750/randomdotsizeEA/L/13_Ratio_750_L_8_R_6.png","xmouse":[806,806,806,806,806,806,806,806,806,806,806,806,806,806,806,806,806,806,806,806,806,806,806,806,806,806,806,806,806,806,806,806,806,806,806,806,806,806,806,806,806,806,806,806,806,806,806,806,806,806,806,806,806,806,806,806,806,804,803,792,782,769,753,717,653,605,565,540,526,522,522,522,522,525,525,525,524,521,514],"ymouse":[527,527,527,527,527,527,527,527,527,527,527,527,527,527,527,527,527,527,527,527,527,527,527,527,527,527,527,527,527,527,527,527,527,527,527,527,527,527,527,527,527,527,527,527,527,527,527,527,527,527,527,527,527,527,527,527,527,525,521,502,489,474,455,416,311,243,192,166,152,146,144,141,130,113,112,110,108,103,93],"timestamp_mouse":[12,35,44,64,85,104,125,145,165,185,203,225,244,265,285,303,323,343,365,384,405,424,444,465,485,504,524,545,564,585,604,624,644,665,684,704,725,745,763,784,805,825,844,865,885,904,923,945,964,985,1004,1024,1045,1063,1083,1104,1124,1144,1165,1183,1204,1225,1244,1264,1284,1304,1324,1344,1365,1383,1404,1424,1444,1464,1484,1504,1523,1544,1563],"xSR":741.5,"ySR":469.95,"xT1":424.9,"yT1":0,"xT2":1058.1,"yT2":0,"toosoon":0,"cond_shown":"randomdotsizeEA","ratio_trial":750,"smaller_num":"6","larger_num":"8","correct_side":1,"subjID":"ivonnesandoval22","gender":"1","age":"10","school":"4"},{"start_time":1552055113521,"click_time":1552055114850,"finger_time":1552055114650,"fix_duration":250,"trial":52,"RT":1129,"MT":200,"sideResp":1,"stimulus":"img/750/equaldotanddens/L/14_Ratio_750_L_8_R_6.png","xmouse":[765,765,765,765,765,765,765,765,765,765,765,765,765,765,765,765,765,765,765,765,765,765,765,765,765,765,765,765,765,765,765,765,765,765,765,765,765,765,765,765,765,765,765,765,765,765,765,765,765,765,765,765,765,766,762,747,684,620,558,522,510,509,509,508,505,497,487],"ymouse":[542,542,542,542,542,542,542,542,542,542,542,542,542,542,542,542,542,542,542,542,542,542,542,542,542,542,542,542,542,542,542,542,542,542,542,542,542,542,542,542,542,542,542,542,542,542,542,542,542,542,542,542,542,539,523,483,369,292,229,192,181,178,167,150,133,114,93],"timestamp_mouse":[12,28,48,68,89,108,127,149,169,187,209,228,249,268,289,308,328,347,369,387,409,428,449,468,489,508,528,547,569,589,607,628,649,667,689,708,728,749,769,789,807,828,849,868,889,908,928,948,969,989,1009,1028,1049,1068,1089,1108,1129,1148,1168,1188,1209,1228,1248,1269,1289,1308,1328],"xSR":741.5,"ySR":469.95,"xT1":424.9,"yT1":0,"xT2":1058.1,"yT2":0,"toosoon":0,"cond_shown":"equaldotanddens","ratio_trial":750,"smaller_num":"6","larger_num":"8","correct_side":1,"subjID":"ivonnesandoval22","gender":"1","age":"10","school":"4"},{"start_time":1552055115925,"click_time":1552055117369,"finger_time":1552055116190,"fix_duration":434.6790898701798,"trial":53,"RT":265,"MT":1179,"sideResp":1,"stimulus":"img/500/equaldotsize/L/7_Ratio_500_L_10_R_5.png","xmouse":[786,786,786,786,786,786,787,790,792,801,808,828,838,848,861,866,897,909,924,931,936,944,950,953,958,963,968,974,982,988,995,1011,1014,1014,1014,1014,1014,1014,1004,987,954,911,820,773,748,734,729,727,727,727,727,727,727,727,727,723,709,700,685,672,658,645,625,620,615,607,597,571,556,541,529,520,507],"ymouse":[529,529,529,529,529,529,528,525,523,516,510,492,484,471,456,450,407,392,370,357,347,329,318,308,296,286,275,255,229,205,181,143,137,136,136,136,136,148,192,237,279,328,416,448,463,475,479,483,483,483,483,483,483,479,471,449,392,359,314,286,265,248,227,221,216,208,197,166,150,135,119,101,70],"timestamp_mouse":[4,32,43,65,85,105,125,143,165,184,204,225,244,265,285,305,325,344,365,383,403,425,444,465,485,504,526,545,565,585,604,626,643,664,684,705,724,744,763,785,804,824,844,864,883,905,924,945,965,984,1004,1025,1044,1063,1085,1105,1126,1144,1165,1185,1204,1224,1243,1265,1285,1304,1326,1344,1364,1385,1404,1424,1444],"xSR":741.5,"ySR":469.95,"xT1":424.9,"yT1":0,"xT2":1058.1,"yT2":0,"toosoon":0,"cond_shown":"equaldotsize","ratio_trial":500,"smaller_num":"5","larger_num":"10","correct_side":1,"subjID":"ivonnesandoval22","gender":"1","age":"10","school":"4"},{"start_time":1552055118924,"click_time":1552055119969,"finger_time":1552055119669,"fix_duration":670.9690983930917,"trial":54,"RT":745,"MT":300,"sideResp":1,"stimulus":"img/250/equaldotanddens/L/15_Ratio_250_L_12_R_3.png","xmouse":[825,825,825,825,825,825,825,825,825,825,825,825,825,825,825,825,825,825,825,825,825,825,825,825,825,825,825,825,825,825,825,825,825,824,819,813,793,688,629,574,541,526,520,520,517,511,507,493,491,491,491,490,486],"ymouse":[544,544,544,544,544,544,544,544,544,544,544,544,544,544,544,544,544,544,544,544,544,544,544,544,544,544,544,544,544,544,544,544,544,536,525,509,470,305,245,204,174,160,152,152,149,141,135,113,111,110,109,107,99],"timestamp_mouse":[20,36,45,65,86,104,125,146,166,185,205,225,245,266,285,305,325,346,365,385,404,425,446,465,486,506,526,545,566,586,606,626,646,665,685,705,725,745,764,785,805,825,845,865,886,906,925,945,965,985,1006,1025,1045],"xSR":741.5,"ySR":469.95,"xT1":424.9,"yT1":0,"xT2":1058.1,"yT2":0,"toosoon":0,"cond_shown":"equaldotanddens","ratio_trial":250,"smaller_num":"3","larger_num":"12","correct_side":1,"subjID":"ivonnesandoval22","gender":"1","age":"10","school":"4"},{"start_time":1552055122193,"click_time":1552055123448,"finger_time":1552055123029,"fix_duration":822.4811029727816,"trial":55,"RT":836,"MT":419,"sideResp":2,"stimulus":"img/500/equaldotanddens/R/2_Ratio_500_L_3_R_6.png","xmouse":[787,787,787,787,787,787,787,787,787,787,787,787,787,787,787,787,787,787,787,787,787,787,787,787,787,787,787,787,787,787,787,787,787,787,787,787,787,787,790,812,822,846,859,873,878,884,892,899,908,927,942,951,960,987,997,1005,1015,1021,1026,1038,1044,1054,1061],"ymouse":[530,530,530,530,530,530,530,530,530,530,530,530,530,530,530,530,530,530,530,530,530,530,530,530,530,530,530,530,530,530,530,530,530,530,530,530,530,530,527,493,481,458,449,435,426,417,406,395,383,354,332,318,306,278,268,253,236,222,206,167,143,108,88],"timestamp_mouse":[16,36,57,77,96,117,137,155,176,197,217,237,257,276,297,316,337,356,376,396,417,437,456,476,496,517,536,557,576,595,615,637,656,676,697,717,736,756,776,797,816,836,855,876,896,916,937,957,975,996,1017,1037,1057,1077,1096,1116,1137,1156,1175,1196,1216,1237,1255],"xSR":741.5,"ySR":469.95,"xT1":424.9,"yT1":0,"xT2":1058.1,"yT2":0,"toosoon":0,"cond_shown":"equaldotanddens","ratio_trial":500,"smaller_num":"3","larger_num":"6","correct_side":2,"subjID":"ivonnesandoval22","gender":"1","age":"10","school":"4"},{"start_time":1552055125905,"click_time":1552055127410,"finger_time":1552055126549,"fix_duration":1134.5031107272664,"trial":56,"RT":644,"MT":861,"sideResp":1,"stimulus":"img/500/equaldotsize/L/7_Ratio_500_L_10_R_5.png","xmouse":[791,791,791,791,791,791,791,791,791,791,791,791,791,791,791,791,791,791,791,791,791,791,791,791,791,791,791,790,786,779,771,761,741,706,599,577,566,560,555,552,549,545,541,536,523,519,516,513,511,508,508,508,508,508,508,508,508,508,508,508,508,508,508,508,508,508,508,508,508,508,508,508,508,508,508,508],"ymouse":[525,525,525,525,525,525,525,525,525,525,525,525,525,525,525,525,525,525,525,525,525,525,525,525,525,525,525,525,521,512,503,488,466,428,325,306,295,288,273,262,251,239,223,209,177,165,152,138,124,106,102,101,101,101,101,101,101,101,101,101,101,101,101,101,101,101,101,101,101,101,101,101,101,101,101,98],"timestamp_mouse":[12,35,45,65,85,105,124,145,163,184,204,225,244,264,285,304,325,343,364,384,405,425,445,463,484,505,525,544,563,584,605,625,644,663,684,705,723,744,766,783,803,823,843,865,884,905,924,945,964,984,1004,1024,1044,1064,1084,1103,1123,1143,1165,1185,1204,1225,1244,1264,1285,1304,1324,1345,1363,1383,1403,1424,1444,1465,1483,1505],"xSR":741.5,"ySR":469.95,"xT1":424.9,"yT1":0,"xT2":1058.1,"yT2":0,"toosoon":0,"cond_shown":"equaldotsize","ratio_trial":500,"smaller_num":"5","larger_num":"10","correct_side":1,"subjID":"ivonnesandoval22","gender":"1","age":"10","school":"4"},{"start_time":1552055129811,"click_time":1552055131211,"finger_time":1552055130409,"fix_duration":600.0829644063141,"trial":57,"RT":598,"MT":802,"sideResp":2,"stimulus":"img/250/randomdotsizeEA/R/9_Ratio_250_L_3_R_12.png","xmouse":[778,778,778,778,778,778,778,778,778,778,778,778,778,778,778,778,778,778,778,778,778,778,778,778,778,778,778,778,779,785,794,802,812,844,876,899,986,1048,1093,1108,1114,1116,1117,1121,1122,1124,1126,1126,1127,1127,1128,1129,1129,1129,1129,1129,1129,1129,1127,1124,1122,1118,1115,1109,1106,1104,1102,1100,1098,1098],"ymouse":[478,478,478,478,478,478,478,478,478,478,478,478,478,478,478,478,478,478,478,478,478,478,478,478,478,478,478,478,477,466,453,439,424,380,347,324,256,215,191,181,177,175,174,171,170,169,168,168,167,165,162,158,155,151,151,151,151,151,147,143,141,135,131,124,122,121,119,117,105,93],"timestamp_mouse":[18,40,58,78,98,118,138,159,178,197,219,239,258,277,299,319,338,358,379,399,418,438,457,477,498,519,539,558,577,598,618,638,658,679,697,718,739,758,778,799,818,838,858,878,898,918,938,958,978,997,1018,1038,1058,1079,1098,1119,1139,1158,1179,1197,1219,1238,1259,1279,1298,1318,1337,1359,1379,1399],"xSR":741.5,"ySR":469.95,"xT1":424.9,"yT1":0,"xT2":1058.1,"yT2":0,"toosoon":0,"cond_shown":"randomdotsizeEA","ratio_trial":250,"smaller_num":"3","larger_num":"12","correct_side":2,"subjID":"ivonnesandoval22","gender":"1","age":"10","school":"4"},{"start_time":1552055133806,"click_time":1552055135109,"finger_time":1552055134390,"fix_duration":1075.8558626377653,"trial":58,"RT":584,"MT":719,"sideResp":2,"stimulus":"img/250/equaldotsize/R/6_Ratio_250_L_6_R_24.png","xmouse":[807,807,807,807,807,807,807,807,807,807,807,807,807,807,807,807,808,809,810,811,811,811,811,811,811,811,812,817,828,886,931,1012,1115,1318,1318,1318,1318,1318,1318,1318,1318,1318,1318,1558,1524,1398,1315,1231,1150,1028,993,972,959,952,944,935,935,935,935,935,935,935,935,935,935,1135],"ymouse":[554,554,554,554,554,554,554,554,554,555,555,555,555,555,555,555,554,553,551,551,551,551,551,551,551,551,550,541,523,432,367,266,167,23,23,23,23,23,23,23,23,23,23,9,43,104,120,131,131,131,124,117,110,100,82,24,9,9,9,9,9,9,9,9,9,17],"timestamp_mouse":[12,39,44,62,84,103,123,142,164,184,203,224,244,263,283,302,323,344,363,383,403,424,444,462,484,504,524,544,563,584,603,623,644,663,685,703,723,744,762,783,803,823,842,863,882,903,923,944,964,985,1002,1023,1044,1062,1084,1103,1123,1144,1163,1184,1203,1223,1242,1263,1282,1303],"xSR":741.5,"ySR":469.95,"xT1":424.9,"yT1":0,"xT2":1058.1,"yT2":0,"toosoon":0,"cond_shown":"equaldotsize","ratio_trial":250,"smaller_num":"6","larger_num":"24","correct_side":2,"subjID":"ivonnesandoval22","gender":"1","age":"10","school":"4"},{"start_time":1552055137016,"click_time":1552055137989,"finger_time":1552055137789,"fix_duration":524.2559075549631,"trial":59,"RT":773,"MT":200,"sideResp":1,"stimulus":"img/900/randomdotsizeEA/L/8_Ratio_900_L_20_R_18.png","xmouse":[761,761,761,761,761,761,761,761,761,761,761,761,761,761,761,761,761,761,761,761,761,761,761,761,761,761,761,761,761,761,761,761,761,761,762,762,762,755,740,672,606,553,496,487,475,475,474,475,479],"ymouse":[507,507,507,507,507,507,507,507,507,507,507,507,507,507,507,507,507,507,507,507,507,507,507,507,507,507,507,507,507,507,507,507,507,507,504,497,489,475,447,369,319,272,219,205,167,151,134,115,97],"timestamp_mouse":[21,46,54,72,94,113,134,153,174,192,213,232,252,272,294,312,333,354,373,394,412,434,454,473,492,513,534,552,572,592,613,634,653,674,693,713,733,753,773,793,813,832,852,873,893,913,933,953,973],"xSR":741.5,"ySR":469.95,"xT1":424.9,"yT1":0,"xT2":1058.1,"yT2":0,"toosoon":0,"cond_shown":"randomdotsizeEA","ratio_trial":900,"smaller_num":"18","larger_num":"20","correct_side":1,"subjID":"ivonnesandoval22","gender":"1","age":"10","school":"4"},{"start_time":1552055140803,"click_time":1552055142149,"finger_time":1552055141610,"fix_duration":292.209661960661,"trial":60,"RT":807,"MT":539,"sideResp":1,"stimulus":"img/900/equaldotanddens/L/2_Ratio_900_L_20_R_18.png","xmouse":[771,770,770,769,767,766,766,765,764,763,762,762,762,762,762,762,762,762,761,760,760,760,760,760,760,760,760,760,760,760,760,760,760,760,760,760,760,757,755,746,700,684,665,656,652,648,644,634,615,598,563,549,532,517,489,408,394,388,387,387,395,406,411,414,414,416,421,429],"ymouse":[559,559,559,559,559,559,559,559,559,559,559,559,559,559,559,559,559,559,560,561,563,563,563,563,563,563,563,563,563,563,563,563,563,563,563,563,563,554,539,484,334,277,238,226,219,211,207,201,192,184,179,179,177,173,163,137,127,118,111,103,85,74,71,70,70,70,69,67],"timestamp_mouse":[13,41,46,67,87,106,127,146,167,187,207,227,246,266,285,306,327,345,366,387,406,427,446,467,485,505,527,545,567,587,606,627,645,666,687,707,726,745,767,786,807,826,846,866,885,907,925,945,965,986,1008,1026,1047,1067,1085,1108,1126,1147,1167,1187,1207,1225,1246,1267,1287,1306,1327,1346],"xSR":741.5,"ySR":469.95,"xT1":424.9,"yT1":0,"xT2":1058.1,"yT2":0,"toosoon":0,"cond_shown":"equaldotanddens","ratio_trial":900,"smaller_num":"18","larger_num":"20","correct_side":1,"subjID":"ivonnesandoval22","gender":"1","age":"10","school":"4"},{"start_time":1552055146543,"click_time":1552055147329,"finger_time":1552055147250,"fix_duration":250,"trial":61,"RT":707,"MT":79,"sideResp":2,"stimulus":"img/900/equaldotanddens/R/5_Ratio_900_L_9_R_10.png","xmouse":[805,805,805,805,805,805,805,805,805,805,805,805,805,805,805,805,805,805,805,805,805,805,805,805,805,805,805,805,805,805,805,805,805,805,822,912,1026,1109,1129,1135],"ymouse":[556,556,556,556,556,556,556,556,556,556,556,556,556,556,556,556,556,556,556,556,556,556,556,556,556,556,556,556,556,556,556,556,556,556,546,456,341,230,150,13],"timestamp_mouse":[13,36,46,65,86,107,127,146,166,185,206,226,247,266,286,306,327,345,367,386,407,426,447,466,485,505,527,546,567,586,607,625,647,667,686,707,726,746,766,786],"xSR":741.5,"ySR":469.95,"xT1":424.9,"yT1":0,"xT2":1058.1,"yT2":0,"toosoon":0,"cond_shown":"equaldotanddens","ratio_trial":900,"smaller_num":"9","larger_num":"10","correct_side":2,"subjID":"ivonnesandoval22","gender":"1","age":"10","school":"4"},{"start_time":1552055149870,"click_time":1552055151091,"finger_time":1552055150549,"fix_duration":1137.1721710887682,"trial":62,"RT":679,"MT":542,"sideResp":1,"stimulus":"img/900/equaldotsize/L/1_Ratio_900_L_10_R_9.png","xmouse":[800,800,800,800,800,800,800,800,800,800,800,800,800,800,800,800,800,800,800,800,800,800,800,800,800,800,800,800,800,800,800,800,794,778,754,741,731,726,711,697,679,662,641,620,591,583,579,577,580,581,581,581,581,581,581,581,581,580,575,569,550,507],"ymouse":[498,498,498,498,498,498,498,498,498,498,498,498,498,498,498,498,498,498,498,498,498,498,498,498,498,498,498,498,498,498,498,498,491,475,455,442,434,430,407,389,368,343,313,282,231,200,174,141,84,72,69,69,69,69,69,71,72,74,74,74,71,56],"timestamp_mouse":[1,21,44,60,79,101,121,140,160,179,199,221,239,260,280,299,321,340,360,381,399,419,439,459,481,501,521,540,560,579,600,621,641,660,679,700,720,740,761,780,801,819,839,861,879,901,921,940,961,980,1001,1020,1040,1059,1079,1100,1120,1140,1161,1179,1201,1221],"xSR":741.5,"ySR":469.95,"xT1":424.9,"yT1":0,"xT2":1058.1,"yT2":0,"toosoon":0,"cond_shown":"equaldotsize","ratio_trial":900,"smaller_num":"9","larger_num":"10","correct_side":1,"subjID":"ivonnesandoval22","gender":"1","age":"10","scho