[{"start_time":1552309381709,"click_time":1552309386173,"finger_time":1552309381719,"fix_duration":414.08693109899866,"trial":0,"RT":10,"MT":4454,"sideResp":1,"stimulus":"img/750/randomdotsizeEA/L/6_Ratio_750_L_24_R_18.png","xmouse":[765,765,765,765,765,765,765,765,765,765,765,765,765,765,765,765,765,765,765,765,765,765,765,765,765,765,765,765,765,765,765,765,765,765,765,765,765,765,765,765,765,765,765,765,765,765,766,768,774,779,781,782,783,785,785,785,785,785,789,792,795,797,797,797,797,797,797,797,797,797,797,797,797,797,797,797,797,797,797,797,797,797,797,797,797,797,797,797,797,797,797,797,797,797,797,797,797,797,797,797,797,797,797,797,797,797,797,797,797,797,797,797,797,797,797,797,797,797,797,797,797,797,797,797,797,797,797,797,797,797,797,797,797,797,797,797,797,797,797,797,797,797,797,797,797,797,797,797,797,797,797,797,797,797,797,797,797,797,796,796,796,796,796,796,796,796,796,796,796,796,796,796,796,796,796,795,793,787,780,771,771,769,769,769,769,769,769,768,767,763,760,759,758,756,756,756,756,756,756,754,751,749,747,746,744,744,743,741,732,696,664,619,581,546,536,526,516,509,506,505,505,505,505,505],"ymouse":[584,584,584,584,584,584,584,584,584,584,584,584,584,584,584,584,584,584,584,584,584,584,584,584,584,584,584,584,584,584,583,583,583,583,583,583,583,583,583,583,583,583,583,583,582,580,575,572,568,567,566,566,565,564,564,564,564,563,558,554,547,542,538,534,534,534,534,534,534,534,534,534,534,534,534,534,534,534,534,534,534,534,534,534,534,534,534,534,534,534,534,534,534,534,534,534,534,534,534,534,533,533,533,533,533,533,533,533,533,533,533,533,533,533,533,533,533,533,533,533,533,533,533,533,533,533,533,533,533,533,533,533,533,533,533,533,533,533,533,533,533,533,533,533,533,533,533,533,533,533,533,533,533,533,533,533,533,533,533,533,533,533,533,533,533,533,533,533,533,533,533,533,533,533,533,533,532,520,504,483,480,478,478,478,478,478,477,477,477,478,478,479,480,480,480,480,480,470,459,408,386,366,351,341,333,333,332,331,327,312,297,282,265,246,238,227,214,193,175,141,125,110,101,95],"timestamp_mouse":[10,21,42,61,82,102,123,143,162,182,202,223,242,262,282,301,322,343,362,382,403,422,442,463,482,502,523,541,562,583,602,623,643,662,682,702,722,743,763,782,802,822,841,862,882,902,922,942,962,982,1002,1022,1041,1061,1082,1102,1122,1142,1162,1182,1201,1223,1243,1262,1281,1302,1323,1343,1361,1382,1401,1422,1443,1462,1481,1501,1523,1543,1562,1583,1603,1622,1641,1662,1683,1702,1723,1741,1763,1783,1802,1823,1841,1862,1882,1903,1923,1943,1962,1983,2003,2023,2042,2062,2081,2103,2123,2142,2162,2183,2202,2223,2242,2262,2282,2303,2323,2342,2362,2382,2401,2421,2443,2461,2482,2502,2522,2541,2562,2583,2602,2622,2642,2662,2683,2702,2722,2743,2762,2782,2801,2823,2843,2861,2881,2902,2922,2943,2961,2981,3003,3023,3043,3062,3083,3102,3121,3143,3163,3181,3202,3223,3242,3263,3282,3302,3323,3343,3362,3382,3402,3423,3443,3461,3481,3502,3522,3542,3562,3581,3602,3622,3642,3661,3683,3701,3722,3743,3762,3783,3801,3822,3842,3863,3881,3903,3923,3942,3962,3982,4002,4022,4042,4062,4082,4102,4121,4141,4163,4182,4202,4222,4242,4263,4282,4302,4322,4343,4362,4382,4403,4422,4442,4463],"xSR":741.5,"ySR":501.8,"xT1":424.9,"yT1":0,"xT2":1058.1,"yT2":0,"toosoon":0,"cond_shown":"randomdotsizeEA","ratio_trial":750,"smaller_num":"18","larger_num":"24","correct_side":1,"subjID":"AlejandroFajardo32","gender":"0","age":"9","school":"4","test":{"fix_dur":[250,1500],"timestim":300,"targets_dim":[100,100],"targets_relative_coord":[0.3,0.7],"size_stim":[880,420],"start_dim":[100,100],"size_start":[300,300],"size_fix":60,"samplingrate":20,"img_types":["equaldotsize","equaldotanddens","randomdotsizeEA"],"ratios":[250,500,750,900],"rep_conds":9,"nTrials":120,"trials_to_rest":500,"Trials_order":[104,50,94,56,55,14,25,52,54,82,12,44,23,20,15,16,105,93,74,37,42,87,5,36,38,34,68,77,89,48,112,107,73,29,88,1,79,32,24,108,26,90,41,117,84,100,13,114,115,95,113,83,8,67,86,76,35,101,22,65,58,110,96,80,118,33,85,40,49,51,70,97,111,98,21,64,9,46,47,3,62,0,10,57,27,61,6,66,28,72,2,59,75,103,39,4,71,7,91,18,63,78,102,99,109,119,81,17,19,43,60,92,53,106,45,116,30,31,11,69],"cond_shown":["randomdotsizeEA","randomdotsizeEA","equaldotanddens","randomdotsizeEA","equaldotanddens","randomdotsizeEA","equaldotanddens","equaldotanddens","equaldotsize","equaldotanddens","equaldotsize","randomdotsizeEA","randomdotsizeEA","randomdotsizeEA","equaldotsize","equaldotanddens","equaldotsize","equaldotsize","randomdotsizeEA","equaldotanddens","equaldotsize","equaldotsize","randomdotsizeEA","equaldotsize","randomdotsizeEA","equaldotanddens","randomdotsizeEA","randomdotsizeEA","randomdotsizeEA","equaldotsize","equaldotanddens","randomdotsizeEA","equaldotanddens","randomdotsizeEA","equaldotanddens","equaldotanddens","equaldotanddens","randomdotsizeEA","equaldotsize","equaldotsize","randomdotsizeEA","equaldotsize","randomdotsizeEA","equaldotsize","equaldotsize","equaldotanddens","equaldotanddens","equaldotsize","equaldotanddens","randomdotsizeEA","randomdotsizeEA","randomdotsizeEA","randomdotsizeEA","equaldotanddens","randomdotsizeEA","equaldotanddens","randomdotsizeEA","randomdotsizeEA","equaldotanddens","randomdotsizeEA","equaldotanddens","randomdotsizeEA","equaldotsize","randomdotsizeEA","equaldotanddens","equaldotsize","equaldotanddens","equaldotanddens","equaldotanddens","equaldotsize","equaldotanddens","equaldotanddens","equaldotsize","randomdotsizeEA","equaldotsize","equaldotanddens","equaldotsize","equaldotanddens","randomdotsizeEA","equaldotsize","randomdotsizeEA","equaldotsize","equaldotanddens","equaldotsize","equaldotsize","equaldotanddens","equaldotsize","equaldotsize","equaldotanddens","equaldotsize","randomdotsizeEA","randomdotsizeEA","equaldotsize","equaldotanddens","equaldotsize","equaldotanddens","randomdotsizeEA","equaldotanddens","equaldotanddens","equaldotsize","equaldotsize","equaldotsize","equaldotsize","equaldotsize","equaldotanddens","randomdotsizeEA","equaldotsize","randomdotsizeEA","equaldotanddens","equaldotanddens","equaldotsize","randomdotsizeEA","randomdotsizeEA","equaldotanddens","equaldotsize","randomdotsizeEA","equaldotsize","equaldotanddens","randomdotsizeEA","equaldotsize"],"ratio_trial":[750,250,900,750,750,250,250,500,750,900,250,750,900,750,500,500,900,900,250,250,750,500,500,250,250,900,750,500,500,250,500,900,250,500,500,250,750,750,250,250,250,750,500,900,250,500,250,750,750,900,500,900,750,750,250,500,900,500,900,500,900,250,250,750,900,900,250,500,250,500,900,250,500,250,900,500,900,900,900,500,250,250,900,900,500,250,750,750,500,250,250,900,500,750,500,500,900,750,750,750,500,750,750,500,250,900,900,500,750,750,250,750,500,900,900,750,750,750,900,900],"smaller_num":["18","4","18","18","18","6","3","6","15","18","6","3","18","3","2","9","18","18","1","3","12","2","5","2","3","18","6","2","9","2","1","18","2","2","2","6","3","15","3","6","6","15","1","18","1","10","1","15","15","9","1","18","12","6","2","2","18","5","18","1","9","4","3","6","9","9","4","1","3","6","9","1","9","2","9","5","9","18","9","2","5","2","18","18","9","3","6","6","6","2","3","9","2","15","1","1","18","3","15","3","4","6","3","9","3","18","9","2","15","15","2","12","9","9","9","6","3","15","18","18"],"larger_num":["24","16","20","24","24","24","12","12","20","20","24","4","20","4","4","18","20","20","4","12","16","4","10","8","12","20","8","4","18","8","2","20","8","4","4","24","4","20","12","24","24","20","2","20","4","20","4","20","20","10","2","20","16","8","8","4","20","10","20","2","10","16","12","8","10","10","16","2","12","12","10","4","18","8","10","10","10","20","10","4","20","8","20","20","18","12","8","8","12","8","12","10","4","20","2","2","20","4","20","4","8","8","4","18","12","20","10","4","20","20","8","16","18","10","10","8","4","20","20","20"],"correct_side":[1,2,1,1,1,1,2,1,2,2,1,1,1,1,1,2,2,2,2,2,2,2,2,2,2,1,2,1,2,1,2,1,1,1,2,2,2,2,1,2,2,2,2,1,2,2,2,2,2,2,2,1,2,2,1,1,1,1,1,2,2,2,2,2,1,2,1,2,1,1,2,2,2,2,1,1,1,2,2,2,2,1,1,2,2,2,1,2,1,1,2,2,2,2,2,2,2,1,1,2,1,1,2,1,2,1,2,2,2,2,1,2,2,2,1,2,2,2,2,1],"img_shown":["img/750/randomdotsizeEA/L/6_Ratio_750_L_24_R_18.png","img/250/randomdotsizeEA/R/10_Ratio_250_L_4_R_16.png","img/900/equaldotanddens/L/10_Ratio_900_L_20_R_18.png","img/750/randomdotsizeEA/L/6_Ratio_750_L_24_R_18.png","img/750/equaldotanddens/L/6_Ratio_750_L_24_R_18.png","img/250/randomdotsizeEA/L/5_Ratio_250_L_24_R_6.png","img/250/equaldotanddens/R/4_Ratio_250_L_3_R_12.png","img/500/equaldotanddens/L/11_Ratio_500_L_12_R_6.png","img/750/equaldotsize/R/3_Ratio_750_L_15_R_20.png","img/900/equaldotanddens/R/14_Ratio_900_L_18_R_20.png","img/250/equaldotsize/L/5_Ratio_250_L_24_R_6.png","img/750/randomdotsizeEA/L/9_Ratio_750_L_4_R_3.png","img/900/randomdotsizeEA/L/4_Ratio_900_L_20_R_18.png","img/750/randomdotsizeEA/L/9_Ratio_750_L_4_R_3.png","img/500/equaldotsize/L/5_Ratio_500_L_4_R_2.png","img/500/equaldotanddens/R/6_Ratio_500_L_9_R_18.png","img/900/equaldotsize/R/12_Ratio_900_L_18_R_20.png","img/900/equaldotsize/R/14_Ratio_900_L_18_R_20.png","img/250/randomdotsizeEA/R/8_Ratio_250_L_1_R_4.png","img/250/equaldotanddens/R/11_Ratio_250_L_3_R_12.png","img/750/equaldotsize/R/11_Ratio_750_L_12_R_16.png","img/500/equaldotsize/R/9_Ratio_500_L_2_R_4.png","img/500/randomdotsizeEA/R/14_Ratio_500_L_5_R_10.png","img/250/equaldotsize/R/13_Ratio_250_L_2_R_8.png","img/250/randomdotsizeEA/R/4_Ratio_250_L_3_R_12.png","img/900/equaldotanddens/L/4_Ratio_900_L_20_R_18.png","img/750/randomdotsizeEA/R/2_Ratio_750_L_6_R_8.png","img/500/randomdotsizeEA/L/5_Ratio_500_L_4_R_2.png","img/500/randomdotsizeEA/R/1_Ratio_500_L_9_R_18.png","img/250/equaldotsize/L/7_Ratio_250_L_8_R_2.png","img/500/equaldotanddens/R/12_Ratio_500_L_1_R_2.png","img/900/randomdotsizeEA/L/4_Ratio_900_L_20_R_18.png","img/250/equaldotanddens/L/7_Ratio_250_L_8_R_2.png","img/500/randomdotsizeEA/L/5_Ratio_500_L_4_R_2.png","img/500/equaldotanddens/R/9_Ratio_500_L_2_R_4.png","img/250/equaldotanddens/R/6_Ratio_250_L_6_R_24.png","img/750/equaldotanddens/R/12_Ratio_750_L_3_R_4.png","img/750/randomdotsizeEA/R/4_Ratio_750_L_15_R_20.png","img/250/equaldotsize/L/14_Ratio_250_L_12_R_3.png","img/250/equaldotsize/R/6_Ratio_250_L_6_R_24.png","img/250/randomdotsizeEA/R/6_Ratio_250_L_6_R_24.png","img/750/equaldotsize/R/4_Ratio_750_L_15_R_20.png","img/500/randomdotsizeEA/R/12_Ratio_500_L_1_R_2.png","img/900/equaldotsize/L/10_Ratio_900_L_20_R_18.png","img/250/equaldotsize/R/8_Ratio_250_L_1_R_4.png","img/500/equaldotanddens/R/3_Ratio_500_L_10_R_20.png","img/250/equaldotanddens/R/8_Ratio_250_L_1_R_4.png","img/750/equaldotsize/R/3_Ratio_750_L_15_R_20.png","img/750/equaldotanddens/R/5_Ratio_750_L_15_R_20.png","img/900/randomdotsizeEA/R/5_Ratio_900_L_9_R_10.png","img/500/randomdotsizeEA/R/12_Ratio_500_L_1_R_2.png","img/900/randomdotsizeEA/L/10_Ratio_900_L_20_R_18.png","img/750/randomdotsizeEA/R/11_Ratio_750_L_12_R_16.png","img/750/equaldotanddens/R/2_Ratio_750_L_6_R_8.png","img/250/randomdotsizeEA/L/1_Ratio_250_L_8_R_2.png","img/500/equaldotanddens/L/5_Ratio_500_L_4_R_2.png","img/900/randomdotsizeEA/L/10_Ratio_900_L_20_R_18.png","img/500/randomdotsizeEA/L/7_Ratio_500_L_10_R_5.png","img/900/equaldotanddens/L/8_Ratio_900_L_20_R_18.png","img/500/randomdotsizeEA/R/15_Ratio_500_L_1_R_2.png","img/900/equaldotanddens/R/7_Ratio_900_L_9_R_10.png","img/250/randomdotsizeEA/R/10_Ratio_250_L_4_R_16.png","img/250/equaldotsize/R/9_Ratio_250_L_3_R_12.png","img/750/randomdotsizeEA/R/2_Ratio_750_L_6_R_8.png","img/900/equaldotanddens/L/1_Ratio_900_L_10_R_9.png","img/900/equaldotsize/R/5_Ratio_900_L_9_R_10.png","img/250/equaldotanddens/L/2_Ratio_250_L_16_R_4.png","img/500/equaldotanddens/R/15_Ratio_500_L_1_R_2.png","img/250/equaldotanddens/L/14_Ratio_250_L_12_R_3.png","img/500/equaldotsize/L/13_Ratio_500_L_12_R_6.png","img/900/equaldotanddens/R/6_Ratio_900_L_9_R_10.png","img/250/equaldotanddens/R/8_Ratio_250_L_1_R_4.png","img/500/equaldotsize/R/6_Ratio_500_L_9_R_18.png","img/250/randomdotsizeEA/R/13_Ratio_250_L_2_R_8.png","img/900/equaldotsize/L/1_Ratio_900_L_10_R_9.png","img/500/equaldotanddens/L/7_Ratio_500_L_10_R_5.png","img/900/equaldotsize/L/1_Ratio_900_L_10_R_9.png","img/900/equaldotanddens/R/12_Ratio_900_L_18_R_20.png","img/900/randomdotsizeEA/R/6_Ratio_900_L_9_R_10.png","img/500/equaldotsize/R/9_Ratio_500_L_2_R_4.png","img/250/randomdotsizeEA/R/12_Ratio_250_L_5_R_20.png","img/250/equaldotsize/L/7_Ratio_250_L_8_R_2.png","img/900/equaldotanddens/L/10_Ratio_900_L_20_R_18.png","img/900/equaldotsize/R/11_Ratio_900_L_18_R_20.png","img/500/equaldotsize/R/6_Ratio_500_L_9_R_18.png","img/250/equaldotanddens/R/9_Ratio_250_L_3_R_12.png","img/750/equaldotsize/L/14_Ratio_750_L_8_R_6.png","img/750/equaldotsize/R/2_Ratio_750_L_6_R_8.png","img/500/equaldotanddens/L/11_Ratio_500_L_12_R_6.png","img/250/equaldotsize/L/1_Ratio_250_L_8_R_2.png","img/250/randomdotsizeEA/R/4_Ratio_250_L_3_R_12.png","img/900/randomdotsizeEA/R/3_Ratio_900_L_9_R_10.png","img/500/equaldotsize/R/9_Ratio_500_L_2_R_4.png","img/750/equaldotanddens/R/4_Ratio_750_L_15_R_20.png","img/500/equaldotsize/R/15_Ratio_500_L_1_R_2.png","img/500/equaldotanddens/R/15_Ratio_500_L_1_R_2.png","img/900/randomdotsizeEA/R/9_Ratio_900_L_18_R_20.png","img/750/equaldotanddens/L/9_Ratio_750_L_4_R_3.png","img/750/equaldotanddens/L/1_Ratio_750_L_20_R_15.png","img/750/equaldotsize/R/12_Ratio_750_L_3_R_4.png","img/500/equaldotsize/L/8_Ratio_500_L_8_R_4.png","img/750/equaldotsize/L/14_Ratio_750_L_8_R_6.png","img/750/equaldotsize/R/7_Ratio_750_L_3_R_4.png","img/500/equaldotsize/L/4_Ratio_500_L_18_R_9.png","img/250/equaldotanddens/R/4_Ratio_250_L_3_R_12.png","img/900/randomdotsizeEA/L/10_Ratio_900_L_20_R_18.png","img/900/equaldotsize/R/7_Ratio_900_L_9_R_10.png","img/500/randomdotsizeEA/R/9_Ratio_500_L_2_R_4.png","img/750/equaldotanddens/R/3_Ratio_750_L_15_R_20.png","img/750/equaldotanddens/R/3_Ratio_750_L_15_R_20.png","img/250/equaldotsize/L/3_Ratio_250_L_8_R_2.png","img/750/randomdotsizeEA/R/11_Ratio_750_L_12_R_16.png","img/500/randomdotsizeEA/R/1_Ratio_500_L_9_R_18.png","img/900/equaldotanddens/R/15_Ratio_900_L_9_R_10.png","img/900/equaldotsize/L/1_Ratio_900_L_10_R_9.png","img/750/randomdotsizeEA/R/2_Ratio_750_L_6_R_8.png","img/750/equaldotsize/R/7_Ratio_750_L_3_R_4.png","img/750/equaldotanddens/R/3_Ratio_750_L_15_R_20.png","img/900/randomdotsizeEA/R/9_Ratio_900_L_18_R_20.png","img/900/equaldotsize/L/4_Ratio_900_L_20_R_18.png"],"Rat0":[["12_Ratio_0_L_9_R_0.png","13_Ratio_0_L_6_R_0.png","5_Ratio_0_L_2_R_0.png","6_Ratio_0_L_4_R_0.png","8_Ratio_0_L_6_R_0.png"],["1_Ratio_0_L_0_R_17.png","10_Ratio_0_L_0_R_22.png","11_Ratio_0_L_0_R_1.png","14_Ratio_0_L_0_R_24.png","15_Ratio_0_L_0_R_4.png","2_Ratio_0_L_0_R_5.png","3_Ratio_0_L_0_R_17.png","4_Ratio_0_L_0_R_7.png","7_Ratio_0_L_0_R_19.png","9_Ratio_0_L_0_R_15.png"]],"Rat250":[["1_Ratio_250_L_8_R_2.png","14_Ratio_250_L_12_R_3.png","15_Ratio_250_L_12_R_3.png","2_Ratio_250_L_16_R_4.png","3_Ratio_250_L_8_R_2.png","5_Ratio_250_L_24_R_6.png","7_Ratio_250_L_8_R_2.png"],["10_Ratio_250_L_4_R_16.png","11_Ratio_250_L_3_R_12.png","12_Ratio_250_L_5_R_20.png","13_Ratio_250_L_2_R_8.png","4_Ratio_250_L_3_R_12.png","6_Ratio_250_L_6_R_24.png","8_Ratio_250_L_1_R_4.png","9_Ratio_250_L_3_R_12.png"]],"Rat500":[["10_Ratio_500_L_4_R_2.png","11_Ratio_500_L_12_R_6.png","13_Ratio_500_L_12_R_6.png","4_Ratio_500_L_18_R_9.png","5_Ratio_500_L_4_R_2.png","7_Ratio_500_L_10_R_5.png","8_Ratio_500_L_8_R_4.png"],["1_Ratio_500_L_9_R_18.png","12_Ratio_500_L_1_R_2.png","14_Ratio_500_L_5_R_10.png","15_Ratio_500_L_1_R_2.png","2_Ratio_500_L_3_R_6.png","3_Ratio_500_L_10_R_20.png","6_Ratio_500_L_9_R_18.png","9_Ratio_500_L_2_R_4.png"]],"Rat750":[["1_Ratio_750_L_20_R_15.png","10_Ratio_750_L_4_R_3.png","13_Ratio_750_L_8_R_6.png","14_Ratio_750_L_8_R_6.png","6_Ratio_750_L_24_R_18.png","8_Ratio_750_L_4_R_3.png","9_Ratio_750_L_4_R_3.png"],["11_Ratio_750_L_12_R_16.png","12_Ratio_750_L_3_R_4.png","15_Ratio_750_L_9_R_12.png","2_Ratio_750_L_6_R_8.png","3_Ratio_750_L_15_R_20.png","4_Ratio_750_L_15_R_20.png","5_Ratio_750_L_15_R_20.png","7_Ratio_750_L_3_R_4.png"]],"Rat900":[["1_Ratio_900_L_10_R_9.png","10_Ratio_900_L_20_R_18.png","2_Ratio_900_L_20_R_18.png","4_Ratio_900_L_20_R_18.png","8_Ratio_900_L_20_R_18.png"],["11_Ratio_900_L_18_R_20.png","12_Ratio_900_L_18_R_20.png","13_Ratio_900_L_18_R_20.png","14_Ratio_900_L_18_R_20.png","15_Ratio_900_L_9_R_10.png","3_Ratio_900_L_9_R_10.png","5_Ratio_900_L_9_R_10.png","6_Ratio_900_L_9_R_10.png","7_Ratio_900_L_9_R_10.png","9_Ratio_900_L_18_R_20.png"]],"Rat1000":[["10_Ratio_1000_L_16_R_16.png","11_Ratio_1000_L_6_R_6.png","12_Ratio_1000_L_14_R_14.png","13_Ratio_1000_L_20_R_20.png","15_Ratio_1000_L_15_R_15.png","2_Ratio_1000_L_17_R_17.png","4_Ratio_1000_L_9_R_9.png","5_Ratio_1000_L_6_R_6.png","6_Ratio_1000_L_19_R_19.png","8_Ratio_1000_L_14_R_14.png","9_Ratio_1000_L_25_R_25.png"],["1_Ratio_1000_L_1_R_1.png","14_Ratio_1000_L_17_R_17.png","3_Ratio_1000_L_17_R_17.png","7_Ratio_1000_L_6_R_6.png"]]}},{"start_time":1552309388586,"click_time":1552309390531,"finger_time":1552309389971,"fix_duration":532.6550053019106,"trial":1,"RT":1385,"MT":560,"sideResp":2,"stimulus":"img/250/randomdotsizeEA/R/10_Ratio_250_L_4_R_16.png","xmouse":[798,798,798,798,799,799,800,800,800,800,800,800,800,800,800,800,800,800,800,800,800,800,800,800,800,800,800,800,800,800,800,800,800,800,800,800,800,800,800,800,800,800,800,800,800,800,800,800,800,800,801,801,800,798,797,797,797,797,797,797,797,797,797,798,801,805,809,814,821,827,841,856,865,877,885,897,927,942,954,961,966,969,969,971,973,980,984,985,989,991,996,1001,1008,1018,1030,1056,1071,1087],"ymouse":[511,511,511,511,511,511,510,510,510,510,510,510,510,510,510,510,510,510,510,510,510,510,510,510,510,510,510,510,510,510,510,510,510,510,510,510,510,510,510,510,510,510,510,510,510,510,510,510,510,510,510,510,508,506,505,505,505,505,506,507,510,510,510,511,510,506,503,489,475,461,429,399,383,370,361,350,320,301,283,268,254,248,245,239,232,212,201,193,182,175,159,154,147,139,132,116,106,97],"timestamp_mouse":[11,25,58,65,85,104,125,146,165,185,206,224,244,266,284,304,326,346,364,385,406,425,445,466,486,506,524,544,566,586,604,625,645,666,686,704,725,746,766,785,804,825,846,866,884,904,926,946,964,984,1005,1026,1044,1066,1086,1105,1124,1144,1164,1185,1206,1226,1245,1265,1285,1304,1324,1345,1365,1385,1405,1424,1445,1466,1485,1505,1525,1546,1564,1586,1606,1625,1645,1665,1685,1705,1724,1745,1766,1785,1806,1826,1844,1865,1885,1906,1924,1945],"xSR":741.5,"ySR":469.95,"xT1":424.9,"yT1":0,"xT2":1058.1,"yT2":0,"toosoon":0,"cond_shown":"randomdotsizeEA","ratio_trial":250,"smaller_num":"4","larger_num":"16","correct_side":2,"subjID":"AlejandroFajardo32","gender":"0","age":"9","school":"4"},{"start_time":1552309393119,"click_time":1552309394551,"finger_time":1552309393911,"fix_duration":1245.9573956922707,"trial":2,"RT":792,"MT":640,"sideResp":1,"stimulus":"img/900/equaldotanddens/L/10_Ratio_900_L_20_R_18.png","xmouse":[788,788,788,788,788,788,788,788,788,788,788,788,788,788,788,788,788,788,788,788,788,788,788,788,788,788,788,788,788,788,788,788,788,788,788,788,788,788,786,746,730,720,710,700,676,662,644,621,585,488,427,377,342,315,315,315,315,315,320,324,327,331,342,365,373,377,381,386,392,401,413,448],"ymouse":[494,494,494,494,494,494,494,494,494,494,494,494,494,494,494,494,494,494,494,494,494,494,494,494,494,494,494,494,494,494,494,494,494,494,493,493,493,491,476,437,419,402,383,369,343,329,310,291,265,204,171,143,122,104,103,103,102,98,76,63,54,47,43,40,39,38,37,37,36,35,35,35],"timestamp_mouse":[13,31,51,72,91,113,131,152,173,192,213,231,251,271,292,311,332,351,372,392,412,432,451,473,492,512,533,553,571,592,612,632,652,673,692,713,732,751,772,792,812,832,853,872,892,911,932,952,973,991,1012,1031,1051,1073,1091,1111,1131,1152,1172,1192,1213,1232,1252,1273,1291,1311,1333,1352,1372,1391,1411,1431],"xSR":741.5,"ySR":469.95,"xT1":424.9,"yT1":0,"xT2":1058.1,"yT2":0,"toosoon":0,"cond_shown":"equaldotanddens","ratio_trial":900,"smaller_num":"18","larger_num":"20","correct_side":1,"subjID":"AlejandroFajardo32","gender":"0","age":"9","school":"4"},{"start_time":1552309396542,"click_time":1552309397750,"finger_time":1552309397391,"fix_duration":389.50409847886436,"trial":3,"RT":849,"MT":359,"sideResp":1,"stimulus":"img/750/randomdotsizeEA/L/6_Ratio_750_L_24_R_18.png","xmouse":[758,758,758,758,758,758,758,758,758,758,758,758,758,758,758,758,758,758,758,758,758,758,758,758,758,758,758,758,758,758,758,758,758,758,758,758,758,758,758,757,756,747,730,673,636,606,579,561,546,528,525,525,525,525,525,526,527,527,527,518,504],"ymouse":[504,504,504,504,504,504,504,504,504,504,504,504,504,504,504,504,504,504,504,504,504,504,504,504,504,504,504,504,504,504,504,504,504,504,504,504,504,504,504,504,503,491,471,415,383,358,335,311,291,248,236,230,226,216,211,201,187,173,156,123,99],"timestamp_mouse":[12,37,50,70,88,108,130,148,168,189,208,230,248,269,290,308,328,348,369,389,408,430,448,470,489,509,528,548,568,590,610,630,649,668,688,710,729,749,768,789,809,830,849,869,889,910,929,950,969,989,1009,1030,1049,1069,1089,1109,1129,1149,1168,1189,1208],"xSR":741.5,"ySR":469.95,"xT1":424.9,"yT1":0,"xT2":1058.1,"yT2":0,"toosoon":0,"cond_shown":"randomdotsizeEA","ratio_trial":750,"smaller_num":"18","larger_num":"24","correct_side":1,"subjID":"AlejandroFajardo32","gender":"0","age":"9","school":"4"},{"start_time":1552309401747,"click_time":1552309403210,"finger_time":1552309402710,"fix_duration":1375.846942814868,"trial":4,"RT":963,"MT":500,"sideResp":1,"stimulus":"img/750/equaldotanddens/L/6_Ratio_750_L_24_R_18.png","xmouse":[749,747,747,747,747,747,747,747,747,747,747,747,747,747,747,747,747,747,747,747,747,747,747,747,748,748,748,748,748,748,748,748,748,748,748,748,748,748,748,762,787,822,827,827,827,827,826,822,804,766,738,693,649,607,553,538,529,524,518,517,517,517,517,517,514,512,512,507,492,486,480,471,463,455],"ymouse":[478,479,482,484,494,497,499,499,499,499,499,499,499,499,499,499,499,499,499,499,499,499,499,499,500,500,500,500,500,500,500,500,500,500,500,500,500,500,500,499,495,490,488,488,488,486,483,475,452,413,392,357,323,292,249,236,227,220,215,215,215,215,215,215,209,207,203,195,160,144,131,115,102,90],"timestamp_mouse":[10,25,44,64,83,104,123,143,165,183,204,225,245,265,283,304,325,344,363,383,404,425,445,465,484,504,523,544,564,584,604,624,644,664,685,705,724,745,765,785,804,825,844,865,885,904,924,944,963,984,1004,1024,1043,1063,1083,1103,1123,1144,1165,1184,1204,1224,1243,1264,1283,1304,1324,1345,1365,1383,1403,1424,1443,1463],"xSR":741.5,"ySR":469.95,"xT1":424.9,"yT1":0,"xT2":1058.1,"yT2":0,"toosoon":0,"cond_shown":"equaldotanddens","ratio_trial":750,"smaller_num":"18","larger_num":"24","correct_side":1,"subjID":"AlejandroFajardo32","gender":"0","age":"9","school":"4"},{"start_time":1552309405201,"click_time":1552309406270,"finger_time":1552309406131,"fix_duration":787.7392200223227,"trial":5,"RT":930,"MT":139,"sideResp":1,"stimulus":"img/250/randomdotsizeEA/L/5_Ratio_250_L_24_R_6.png","xmouse":[817,817,817,817,817,817,817,817,817,817,817,817,817,817,817,817,817,817,817,817,817,817,817,817,817,817,817,817,817,817,817,817,817,817,817,817,817,817,817,817,817,817,817,817,817,815,780,739,681,622,576,516,501,482],"ymouse":[521,521,521,521,521,521,521,521,521,521,521,521,521,521,521,521,521,521,521,521,521,521,521,521,521,521,521,521,521,521,521,521,521,521,521,521,521,521,521,521,521,521,521,521,520,511,464,413,346,281,229,146,123,97],"timestamp_mouse":[9,30,53,71,90,110,130,150,171,191,210,230,251,269,290,310,330,349,371,391,410,431,450,471,490,510,530,551,570,591,610,629,650,669,690,710,731,750,769,789,810,830,849,869,891,910,930,950,970,990,1010,1030,1051,1069],"xSR":741.5,"ySR":469.95,"xT1":424.9,"yT1":0,"xT2":1058.1,"yT2":0,"toosoon":0,"cond_shown":"randomdotsizeEA","ratio_trial":250,"smaller_num":"6","larger_num":"24","correct_side":1,"subjID":"AlejandroFajardo32","gender":"0","age":"9","school":"4"},{"start_time":1552309407882,"click_time":1552309409691,"finger_time":1552309408930,"fix_duration":250,"trial":6,"RT":1048,"MT":761,"sideResp":2,"stimulus":"img/250/equaldotanddens/R/4_Ratio_250_L_3_R_12.png","xmouse":[787,787,787,787,787,787,787,787,787,787,787,787,787,787,787,787,787,787,787,787,787,787,787,787,787,787,787,787,787,787,787,787,787,787,787,787,787,787,787,787,787,787,787,787,787,787,787,787,787,790,796,812,843,854,869,885,898,915,923,929,935,940,948,953,958,963,968,985,989,993,996,998,1006,1009,1016,1025,1031,1049,1054,1058,1062,1064,1066,1067,1067,1067,1067,1072,1078,1083,1085],"ymouse":[519,519,519,519,519,519,519,519,519,519,519,519,519,519,519,519,519,519,519,519,519,519,519,519,519,519,519,519,519,519,519,519,519,519,519,519,519,519,519,519,519,519,519,519,519,519,519,519,519,518,514,505,485,479,467,454,443,421,411,403,397,387,374,366,360,352,343,312,304,297,290,287,274,268,254,237,225,185,171,158,150,145,140,138,138,138,138,130,121,108,98],"timestamp_mouse":[9,28,61,69,89,109,129,150,169,190,208,229,248,270,290,309,329,349,370,390,408,429,449,470,488,509,530,549,570,589,609,628,650,670,688,710,729,749,770,789,809,830,849,869,888,909,930,948,968,989,1008,1030,1048,1069,1089,1108,1128,1149,1169,1188,1210,1229,1249,1269,1288,1309,1329,1350,1369,1389,1409,1429,1450,1468,1488,1509,1529,1550,1569,1588,1609,1629,1650,1668,1689,1709,1728,1749,1769,1788,1809],"xSR":741.5,"ySR":469.95,"xT1":424.9,"yT1":0,"xT2":1058.1,"yT2":0,"toosoon":0,"cond_shown":"equaldotanddens","ratio_trial":250,"smaller_num":"3","larger_num":"12","correct_side":2,"subjID":"AlejandroFajardo32","gender":"0","age":"9","school":"4"},{"start_time":1552309413703,"click_time":1552309414751,"finger_time":1552309414351,"fix_duration":250,"trial":7,"RT":648,"MT":400,"sideResp":1,"stimulus":"img/500/equaldotanddens/L/11_Ratio_500_L_12_R_6.png","xmouse":[767,767,767,767,767,767,767,767,767,767,767,767,767,767,767,767,767,767,767,767,767,767,767,767,767,767,767,767,767,767,767,769,756,747,717,698,683,662,658,654,653,649,638,627,616,608,598,577,565,556,548,537,515],"ymouse":[513,513,513,513,513,513,513,513,513,513,513,513,513,513,513,513,513,513,513,513,513,513,513,513,513,513,513,513,513,512,509,493,438,428,393,375,361,340,336,332,330,326,307,286,270,253,233,193,170,150,128,103,64],"timestamp_mouse":[9,29,53,68,88,109,128,148,168,189,207,228,249,267,288,307,328,349,368,388,407,427,449,469,488,509,529,549,568,587,608,628,648,668,687,708,728,747,768,788,808,827,848,867,887,909,929,947,969,988,1009,1028,1047],"xSR":741.5,"ySR":469.95,"xT1":424.9,"yT1":0,"xT2":1058.1,"yT2":0,"toosoon":0,"cond_shown":"equaldotanddens","ratio_trial":500,"smaller_num":"6","larger_num":"12","correct_side":1,"subjID":"AlejandroFajardo32","gender":"0","age":"9","school":"4"},{"start_time":1552309416770,"click_time":1552309418051,"finger_time":1552309417651,"fix_duration":978.5922577039025,"trial":8,"RT":881,"MT":400,"sideResp":2,"stimulus":"img/750/equaldotsize/R/3_Ratio_750_L_15_R_20.png","xmouse":[780,780,780,781,782,782,782,782,782,782,782,782,782,782,782,782,782,782,782,782,782,782,782,782,782,782,782,782,782,782,782,782,783,786,801,807,808,808,808,812,818,824,830,836,851,860,872,881,895,923,940,953,965,978,992,1025,1036,1048,1058,1073,1078,1084,1090,1096,1105],"ymouse":[538,538,538,538,537,537,537,537,537,537,537,537,537,537,537,537,537,537,537,537,537,537,537,537,537,537,537,537,537,537,537,536,530,522,502,495,494,494,494,492,491,489,488,488,485,482,478,474,468,449,434,419,402,381,357,302,280,259,235,188,169,151,134,119,96],"timestamp_mouse":[9,20,43,61,81,102,120,141,162,182,201,220,241,261,281,301,322,341,361,380,400,422,441,461,482,502,522,541,560,581,602,621,642,660,681,701,721,741,762,781,802,821,842,861,881,901,921,941,960,982,1001,1020,1044,1061,1081,1101,1122,1140,1161,1181,1200,1221,1241,1261,1281],"xSR":741.5,"ySR":469.95,"xT1":424.9,"yT1":0,"xT2":1058.1,"yT2":0,"toosoon":0,"cond_shown":"equaldotsize","ratio_trial":750,"smaller_num":"15","larger_num":"20","correct_side":2,"subjID":"AlejandroFajardo32","gender":"0","age":"9","school":"4"},{"start_time":1552309419541,"click_time":1552309420670,"finger_time":1552309420170,"fix_duration":508.68556223943085,"trial":9,"RT":629,"MT":500,"sideResp":2,"stimulus":"img/900/equaldotanddens/R/14_Ratio_900_L_18_R_20.png","xmouse":[773,773,773,773,773,773,773,773,773,773,773,773,773,773,773,773,773,773,773,773,773,773,773,773,775,787,799,812,820,824,826,840,854,870,888,924,936,943,952,971,988,1028,1045,1061,1079,1090,1114,1117,1120,1121,1122,1123,1123,1123,1123,1123,1123],"ymouse":[518,518,518,518,518,518,518,518,518,518,518,518,518,518,518,518,518,518,518,518,518,518,518,518,516,504,495,487,482,480,480,466,453,436,416,381,371,365,357,337,321,288,274,259,247,238,217,209,203,192,185,165,152,140,123,107,86],"timestamp_mouse":[9,29,49,70,91,111,130,150,171,191,209,230,250,269,290,310,331,351,371,389,411,429,450,470,490,511,530,550,570,591,609,629,649,671,690,712,729,750,770,790,809,829,850,870,890,910,929,950,969,990,1011,1030,1050,1071,1090,1110,1129],"xSR":741.5,"ySR":469.95,"xT1":424.9,"yT1":0,"xT2":1058.1,"yT2":0,"toosoon":0,"cond_shown":"equaldotanddens","ratio_trial":900,"smaller_num":"18","larger_num":"20","correct_side":2,"subjID":"AlejandroFajardo32","gender":"0","age":"9","school":"4"},{"start_time":1552309423648,"click_time":1552309427791,"finger_time":1552309426510,"fix_duration":475.5171224371134,"trial":10,"RT":2862,"MT":1281,"sideResp":2,"stimulus":"img/250/equaldotsize/L/5_Ratio_250_L_24_R_6.png","xmouse":[797,797,797,797,797,797,797,797,797,797,797,797,797,797,797,797,797,797,797,797,797,797,797,797,797,797,797,797,797,797,797,797,797,797,797,797,797,797,797,797,797,797,797,797,797,797,797,797,797,797,797,797,797,797,797,797,797,797,797,797,797,797,797,797,797,797,797,797,797,797,797,797,797,797,797,797,797,797,797,797,797,797,797,797,797,797,797,797,797,797,797,797,797,797,797,797,797,797,797,797,797,797,797,797,797,797,797,797,797,797,797,797,797,797,797,797,797,797,797,797,797,797,797,797,797,797,797,797,797,797,797,797,797,797,797,797,797,797,800,803,808,813,817,820,822,830,841,846,849,851,853,855,856,856,856,856,856,856,856,856,847,841,786,759,739,727,724,722,722,722,722,724,735,752,771,792,839,864,891,914,932,941,942,942,942,943,946,949,953,961,971,990,1005,1008,1010,1012,1015,1022,1023,1025,1033,1053,1060,1066,1071,1078,1095,1100],"ymouse":[544,544,544,544,544,544,544,544,544,544,544,544,544,544,544,544,544,544,544,544,544,545,545,545,545,545,545,545,545,545,545,545,545,545,545,545,545,545,545,545,545,545,545,545,545,545,545,545,545,545,545,545,545,545,545,545,545,545,545,545,545,545,545,545,545,545,545,545,545,545,545,545,545,545,545,545,545,545,545,545,545,545,545,545,545,545,545,545,545,545,545,545,545,545,545,545,545,545,545,545,545,545,545,545,545,545,545,545,545,545,545,545,545,545,545,545,545,545,545,545,545,545,545,545,545,545,545,545,545,545,545,545,545,545,545,545,545,545,536,528,513,487,477,465,454,440,411,400,388,382,375,372,369,369,368,368,368,368,368,367,353,346,305,286,270,258,251,247,247,246,246,244,243,239,237,237,239,242,247,249,249,249,249,249,249,245,237,232,227,223,218,212,208,207,205,201,199,187,179,167,147,127,123,121,118,113,103,99],"timestamp_mouse":[10,23,44,62,82,103,124,143,163,184,202,224,242,263,283,303,323,343,364,383,404,423,443,463,484,503,523,544,563,583,602,622,644,662,683,702,723,742,764,782,802,824,842,863,884,902,923,944,962,984,1003,1022,1044,1064,1083,1104,1123,1143,1163,1182,1204,1224,1243,1263,1284,1304,1322,1344,1362,1383,1404,1422,1444,1464,1484,1503,1522,1544,1562,1583,1604,1622,1643,1664,1684,1703,1723,1744,1762,1783,1804,1824,1843,1863,1884,1903,1922,1944,1964,1983,2003,2023,2043,2063,2084,2104,2123,2143,2162,2182,2204,2223,2242,2264,2284,2303,2323,2344,2363,2383,2402,2423,2442,2463,2482,2502,2522,2544,2562,2584,2602,2624,2643,2662,2684,2704,2723,2743,2762,2782,2803,2823,2843,2862,2883,2902,2923,2943,2963,2983,3003,3023,3042,3062,3084,3103,3124,3144,3163,3182,3202,3222,3243,3262,3283,3303,3323,3343,3362,3383,3402,3424,3443,3463,3483,3504,3523,3542,3563,3583,3602,3624,3643,3664,3683,3703,3724,3742,3763,3783,3803,3822,3842,3862,3882,3903,3922,3944,3963,3983,4004,4024,4042,4062,4083,4102,4124,4143],"xSR":741.5,"ySR":469.95,"xT1":424.9,"yT1":0,"xT2":1058.1,"yT2":0,"toosoon":0,"cond_shown":"equaldotsize","ratio_trial":250,"smaller_num":"6","larger_num":"24","correct_side":1,"subjID":"AlejandroFajardo32","gender":"0","age":"9","school":"4"},{"start_time":1552309429712,"click_time":1552309439050,"finger_time":1552309438492,"fix_duration":818.405025161495,"trial":11,"RT":8780,"MT":558,"sideResp":1,"stimulus":"img/750/randomdotsizeEA/L/9_Ratio_750_L_4_R_3.png","xmouse":[829,829,829,829,829,829,829,829,829,829,829,829,829,829,829,829,829,829,829,829,829,829,829,829,829,829,829,829,829,829,829,829,829,829,829,829,829,829,829,829,829,829,829,829,829,829,829,829,829,829,829,829,829,829,829,829,829,829,829,829,829,829,829,829,829,829,829,829,829,829,829,829,829,829,829,829,829,829,829,829,829,829,829,829,829,829,829,829,829,829,829,829,829,829,829,829,829,829,829,829,829,829,829,829,829,829,829,829,829,829,829,829,829,829,829,829,829,829,829,829,829,829,829,829,829,829,829,829,829,829,829,829,829,829,829,829,829,829,829,829,829,829,829,829,829,829,829,829,829,829,829,829,829,829,829,829,829,829,829,829,829,829,829,829,829,829,829,829,829,829,829,829,829,829,829,829,829,829,829,829,829,829,829,829,829,829,829,829,829,829,829,829,829,829,829,829,829,829,829,829,829,829,829,829,829,829,829,829,829,829,829,829,829,829,829,829,829,829,829,829,829,829,829,829,829,829,829,829,829,829,829,829,829,829,829,829,829,829,829,829,830,830,830,830,830,830,830,830,830,830,830,830,830,830,830,830,830,830,830,830,830,830,830,830,830,830,830,830,830,830,830,830,830,830,830,830,830,830,830,830,830,830,830,830,830,830,830,830,830,830,830,830,830,830,830,830,830,830,830,830,830,830,830,830,830,830,830,830,830,830,830,830,830,830,830,830,830,830,830,830,830,830,830,830,830,830,830,830,830,830,830,830,830,830,830,830,830,830,830,830,830,830,830,830,830,830,830,830,830,830,830,830,830,830,830,830,830,830,830,830,830,830,830,830,830,830,830,830,830,830,830,830,830,830,830,830,830,830,830,830,830,830,830,830,830,830,830,830,830,830,830,830,830,830,830,830,830,830,830,830,830,830,830,830,830,830,830,830,830,830,830,830,830,830,829,828,828,828,828,828,828,828,828,828,828,828,828,828,828,828,828,828,828,828,828,828,826,823,814,785,762,738,724,707,702,697,697,696,694,686,682,675,667,646,629,592,577,568,565,563,562,562,562,562,562,558,528,482],"ymouse":[516,516,516,516,516,516,516,516,516,516,516,516,516,516,516,516,516,516,516,516,516,516,516,516,516,516,516,516,516,516,516,516,516,516,516,516,516,516,516,516,516,516,516,516,516,516,516,516,516,516,516,516,516,516,516,516,516,516,516,516,516,516,516,516,516,516,516,516,516,516,516,516,516,516,516,516,516,516,516,516,516,516,516,516,516,516,516,516,516,516,516,516,516,516,515,515,515,515,515,515,515,515,515,515,515,515,515,515,515,515,515,515,515,515,515,515,515,515,515,515,515,515,515,515,515,515,515,515,515,515,515,515,515,515,515,515,515,515,515,515,515,515,515,515,515,515,515,515,515,515,515,515,515,515,515,515,515,515,515,515,515,515,515,515,515,515,515,515,515,515,515,515,515,515,515,515,515,515,515,515,515,515,515,515,515,515,515,515,515,515,515,515,515,515,515,515,515,515,515,515,515,515,515,515,515,515,515,515,515,515,515,515,515,515,515,515,515,515,515,515,515,515,515,515,515,515,515,515,515,515,515,515,515,515,515,515,515,515,515,515,515,515,515,515,515,515,515,515,515,515,515,515,515,515,515,515,515,515,515,515,515,515,515,515,515,515,515,515,515,515,515,515,515,515,515,515,515,515,515,515,515,515,515,515,515,515,515,515,515,515,515,515,515,515,515,515,515,515,515,515,515,515,515,515,515,515,515,515,515,515,515,515,515,515,515,515,515,515,515,515,515,515,515,515,515,515,515,515,515,515,515,515,515,515,515,515,515,515,515,515,515,515,515,515,515,515,515,515,515,515,515,515,515,515,515,515,515,515,515,515,515,515,515,515,515,515,515,515,515,515,515,515,515,515,515,515,515,515,515,515,515,515,515,515,515,515,515,515,515,515,515,515,515,515,515,515,515,515,515,515,515,515,515,515,515,515,515,515,515,515,515,515,515,515,515,515,515,515,515,515,515,515,515,515,515,515,515,515,515,515,515,515,515,515,515,515,509,501,481,434,408,378,356,325,310,288,283,278,272,256,244,229,211,178,156,114,99,89,84,79,76,76,76,76,76,75,70,63],"timestamp_mouse":[1,18,44,59,80,99,119,139,158,178,199,218,239,259,278,299,319,338,359,378,399,420,439,460,478,500,520,538,560,580,600,618,639,659,680,700,719,738,758,779,798,818,838,858,880,900,920,939,958,978,999,1020,1039,1060,1079,1099,1120,1140,1160,1179,1199,1219,1239,1260,1279,1298,1318,1340,1360,1380,1398,1419,1440,1460,1480,1499,1518,1540,1559,1578,1599,1619,1639,1660,1678,1698,1720,1740,1759,1780,1799,1818,1839,1859,1879,1899,1919,1938,1959,1978,2000,2020,2040,2059,2078,2099,2118,2140,2159,2178,2200,2219,2239,2260,2279,2300,2320,2338,2358,2380,2400,2419,2439,2460,2480,2500,2519,2539,2558,2580,2599,2619,2640,2659,2678,2698,2719,2739,2759,2780,2798,2818,2840,2860,2878,2900,2920,2940,2960,2979,3000,3019,3038,3059,3079,3099,3120,3140,3160,3179,3198,3218,3239,3260,3280,3299,3318,3338,3358,3380,3400,3419,3440,3458,3479,3500,3519,3539,3559,3579,3599,3618,3638,3658,3680,3700,3720,3738,3759,3779,3799,3820,3839,3860,3879,3898,3918,3938,3959,3979,4000,4018,4039,4060,4079,4100,4118,4138,4160,4179,4198,4220,4239,4260,4278,4298,4318,4339,4360,4379,4400,4420,4439,4460,4479,4500,4519,4538,4560,4579,4600,4619,4638,4660,4679,4700,4719,4739,4758,4779,4800,4819,4838,4860,4879,4898,4918,4938,4959,4978,4999,5018,5038,5060,5079,5099,5118,5138,5158,5179,5198,5220,5240,5259,5280,5299,5319,5340,5358,5379,5400,5420,5439,5459,5479,5498,5519,5538,5560,5579,5600,5620,5639,5658,5679,5699,5720,5739,5759,5779,5800,5819,5839,5859,5878,5900,5920,5940,5960,5979,5999,6020,6039,6060,6079,6099,6120,6140,6159,6179,6199,6219,6238,6258,6279,6298,6319,6340,6359,6379,6399,6418,6438,6459,6480,6498,6518,6539,6560,6579,6599,6619,6638,6660,6678,6700,6718,6738,6759,6778,6799,6823,6839,6858,6879,6900,6919,6939,6959,6978,7000,7019,7038,7059,7078,7099,7120,7139,7159,7180,7199,7220,7239,7259,7279,7298,7320,7340,7359,7378,7400,7420,7438,7459,7480,7500,7520,7539,7559,7580,7600,7620,7640,7659,7679,7698,7720,7738,7759,7780,7800,7820,7838,7859,7880,7900,7918,7938,7960,7979,8000,8018,8039,8060,8080,8100,8119,8138,8159,8180,8199,8220,8238,8258,8279,8298,8320,8340,8358,8380,8400,8418,8439,8460,8479,8500,8520,8540,8559,8580,8599,8619,8640,8658,8679,8699,8719,8740,8758,8780,8798,8819,8838,8858,8879,8898,8918,8939,8958,8980,8999,9018,9038,9059,9079,9098,9118,9138,9158,9179,9198,9219,9240,9259,9279,9298,9318,9338],"xSR":741.5,"ySR":469.95,"xT1":424.9,"yT1":0,"xT2":1058.1,"yT2":0,"toosoon":0,"cond_shown":"randomdotsizeEA","ratio_trial":750,"smaller_num":"3","larger_num":"4","correct_side":1,"subjID":"AlejandroFajardo32","gender":"0","age":"9","school":"4"},{"start_time":1552309440582,"click_time":1552309442092,"finger_time":1552309441411,"fix_duration":250,"trial":12,"RT":829,"MT":681,"sideResp":2,"stimulus":"img/900/randomdotsizeEA/L/4_Ratio_900_L_20_R_18.png","xmouse":[782,782,782,782,782,782,782,782,782,782,782,782,782,782,782,782,782,782,782,782,782,782,782,782,782,782,778,778,777,777,777,777,777,777,779,781,788,796,799,805,811,830,841,851,863,872,890,905,919,928,933,945,952,955,959,964,977,987,993,998,1001,1008,1014,1021,1030,1039,1064,1071,1076,1081,1087,1095,1101,1106,1110,1114],"ymouse":[518,518,519,520,520,520,520,520,520,520,520,520,520,520,520,520,520,520,520,520,520,520,520,520,520,520,516,515,514,514,514,514,514,513,511,509,501,493,490,485,481,468,458,449,437,428,410,394,381,371,364,350,343,339,333,327,312,299,291,284,280,270,262,253,239,227,199,190,179,169,157,139,127,115,102,88],"timestamp_mouse":[9,42,50,68,89,109,129,149,169,190,209,228,249,269,290,310,328,349,368,389,410,430,450,469,490,508,528,548,569,590,609,628,648,669,689,709,729,749,768,790,809,829,848,870,888,909,929,949,968,989,1009,1028,1049,1068,1088,1108,1129,1150,1168,1189,1209,1228,1248,1268,1290,1310,1329,1349,1368,1388,1409,1428,1448,1470,1490,1510],"xSR":741.5,"ySR":469.95,"xT1":424.9,"yT1":0,"xT2":1058.1,"yT2":0,"toosoon":0,"cond_shown":"randomdotsizeEA","ratio_trial":900,"smaller_num":"18","larger_num":"20","correct_side":1,"subjID":"AlejandroFajardo32","gender":"0","age":"9","school":"4"},{"start_time":1552309444032,"click_time":1552309445691,"finger_time":1552309444812,"fix_duration":898.0529363510091,"trial":13,"RT":780,"MT":879,"sideResp":2,"stimulus":"img/750/randomdotsizeEA/L/9_Ratio_750_L_4_R_3.png","xmouse":[804,804,804,804,804,804,804,804,804,804,804,804,804,804,804,804,804,804,804,804,804,804,804,804,804,804,804,804,804,804,804,804,804,804,804,804,804,806,810,814,823,829,835,840,848,849,850,850,850,860,871,881,892,903,921,964,988,1005,1020,1026,1042,1050,1056,1063,1067,1067,1067,1067,1067,1067,1067,1067,1067,1067,1067,1068,1069,1070,1073,1077,1082,1085,1091,1094],"ymouse":[551,551,551,551,551,551,551,551,551,551,551,551,551,551,551,551,551,551,551,551,551,551,551,551,551,551,551,551,551,551,551,551,551,551,551,544,522,497,475,450,411,395,381,369,352,349,347,347,347,340,334,327,319,311,300,283,270,258,244,235,216,205,198,189,185,185,185,185,185,185,185,185,185,185,185,183,180,176,169,158,133,123,102,92],"timestamp_mouse":[1,18,46,59,79,99,120,139,160,179,199,219,240,258,279,298,319,339,359,379,398,418,438,460,480,500,520,539,559,580,600,620,639,660,680,698,718,739,758,780,799,819,839,858,880,898,919,939,958,980,998,1019,1038,1058,1079,1100,1118,1139,1158,1178,1198,1218,1238,1259,1280,1299,1319,1339,1360,1379,1399,1418,1439,1459,1480,1498,1518,1538,1558,1580,1599,1620,1639,1659],"xSR":741.5,"ySR":469.95,"xT1":424.9,"yT1":0,"xT2":1058.1,"yT2":0,"toosoon":0,"cond_shown":"randomdotsizeEA","ratio_trial":750,"smaller_num":"3","larger_num":"4","correct_side":1,"subjID":"AlejandroFajardo32","gender":"0","age":"9","school":"4"},{"start_time":1552309448025,"click_time":1552309449591,"finger_time":1552309448751,"fix_duration":1233.245617384133,"trial":14,"RT":726,"MT":840,"sideResp":1,"stimulus":"img/500/equaldotsize/L/5_Ratio_500_L_4_R_2.png","xmouse":[795,795,795,795,795,795,795,795,795,795,795,795,795,795,795,795,795,795,795,795,795,795,795,795,795,795,795,795,795,795,795,795,795,795,800,832,878,937,984,1022,1049,1059,1064,1068,1072,1074,1074,1074,1074,1072,1060,1043,1001,960,915,848,828,816,808,802,790,775,763,751,736,696,674,652,634,623,594,583,573,562,553,532,527,525,522],"ymouse":[519,519,519,519,519,519,519,519,519,519,519,519,519,519,519,519,519,519,519,519,519,519,519,519,519,519,519,519,519,519,519,519,519,519,519,505,482,458,437,412,377,353,335,319,305,285,280,277,272,268,256,244,219,199,174,135,121,110,105,100,91,84,79,73,67,53,46,42,38,36,35,35,35,35,35,41,45,46,48],"timestamp_mouse":[10,25,46,67,86,106,127,147,166,187,206,225,247,267,286,306,326,346,367,387,407,426,446,466,486,506,527,547,566,587,607,625,645,667,686,706,726,745,765,786,805,826,845,866,886,906,925,946,965,986,1006,1026,1045,1067,1086,1105,1126,1145,1166,1186,1205,1225,1245,1266,1285,1305,1326,1345,1365,1387,1405,1426,1445,1465,1485,1505,1525,1546,1566],"xSR":741.5,"ySR":469.95,"xT1":424.9,"yT1":0,"xT2":1058.1,"yT2":0,"toosoon":0,"cond_shown":"equaldotsize","ratio_trial":500,"smaller_num":"2","larger_num":"4","correct_side":1,"subjID":"AlejandroFajardo32","gender":"0","age":"9","school":"4"},{"start_time":1552309452895,"click_time":1552309454391,"finger_time":1552309453972,"fix_duration":962.8332786211257,"trial":15,"RT":1077,"MT":419,"sideResp":2,"stimulus":"img/500/equaldotanddens/R/6_Ratio_500_L_9_R_18.png","xmouse":[785,785,785,785,785,785,785,785,785,785,785,785,785,785,785,785,785,785,785,785,785,785,785,785,785,785,785,785,785,785,785,785,785,785,785,785,785,785,785,785,785,785,785,785,785,785,785,785,785,785,790,820,834,850,865,876,879,883,889,899,912,925,948,958,964,970,982,985,989,992,1001,1027,1041,1056,1073],"ymouse":[525,525,525,525,525,525,525,525,525,525,525,525,525,525,525,525,525,525,525,525,525,525,525,525,525,525,525,525,525,525,525,525,525,525,525,525,525,525,525,525,525,525,525,525,525,525,525,525,525,525,525,498,477,456,430,401,330,307,282,259,238,214,174,154,140,128,110,107,106,106,105,100,93,87,79],"timestamp_mouse":[15,36,56,80,96,116,136,157,176,196,215,236,255,277,297,316,336,357,377,395,416,437,456,475,496,517,536,556,577,597,616,636,656,676,695,716,736,756,776,797,815,835,855,877,895,916,936,955,976,997,1016,1037,1055,1077,1096,1117,1136,1156,1175,1195,1215,1237,1256,1276,1297,1316,1337,1356,1377,1395,1415,1437,1455,1476,1496],"xSR":741.5,"ySR":469.95,"xT1":424.9,"yT1":0,"xT2":1058.1,"yT2":0,"toosoon":0,"cond_shown":"equaldotanddens","ratio_trial":500,"smaller_num":"9","larger_num":"18","correct_side":2,"subjID":"AlejandroFajardo32","gender":"0","age":"9","school":"4"},{"start_time":1552309459418,"click_time":1552309460651,"finger_time":1552309460171,"fix_duration":305.3793422982928,"trial":16,"RT":753,"MT":480,"sideResp":2,"stimulus":"img/900/equaldotsize/R/12_Ratio_900_L_18_R_20.png","xmouse":[765,765,765,765,765,765,765,765,765,765,765,765,765,765,765,765,765,765,765,765,765,765,765,765,765,765,765,765,765,765,765,765,765,765,769,787,812,850,870,894,902,935,949,963,972,979,991,993,995,997,1000,1008,1011,1016,1023,1032,1044,1048,1051,1055,1061,1075],"ymouse":[508,508,508,508,508,508,508,508,508,508,508,508,508,508,508,508,508,508,508,508,508,508,508,508,508,508,508,508,508,508,508,508,508,507,504,494,477,453,441,425,418,388,372,352,335,320,296,292,287,282,275,258,248,234,213,193,167,158,146,132,113,72],"timestamp_mouse":[13,33,67,73,92,112,133,152,172,192,213,233,254,273,294,313,332,353,372,393,413,434,454,473,493,513,533,553,572,593,612,633,653,674,693,714,733,753,792,794,813,833,853,873,892,913,933,952,972,992,1012,1033,1052,1074,1092,1112,1132,1153,1172,1192,1212,1233],"xSR":741.5,"ySR":469.95,"xT1":424.9,"yT1":0,"xT2":1058.1,"yT2":0,"toosoon":0,"cond_shown":"equaldotsize","ratio_trial":900,"smaller_num":"18","larger_num":"20","correct_side":2,"subjID":"AlejandroFajardo32","gender":"0","age":"9","school":"4"},{"start_time":1552309465924,"click_time":1552309467270,"finger_time":1552309466691,"fix_duration":1171.8544371173566,"trial":17,"RT":767,"MT":579,"sideResp":2,"stimulus":"img/900/equaldotsize/R/14_Ratio_900_L_18_R_20.png","xmouse":[796,796,796,796,796,796,796,796,796,796,796,796,796,796,796,796,796,796,796,796,796,796,796,796,796,796,796,796,796,796,796,796,796,796,796,796,797,819,871,904,928,954,978,980,982,983,984,987,990,995,998,1000,1005,1007,1009,1011,1016,1023,1029,1034,1037,1042,1054,1064,1074,1086,1094,1107],"ymouse":[514,514,514,514,514,514,514,514,514,514,514,514,514,514,514,514,514,514,514,514,514,514,514,514,514,514,514,514,514,514,514,514,514,514,514,514,513,500,476,463,453,441,425,423,419,415,413,405,395,380,365,346,308,292,280,263,247,219,201,191,183,173,153,139,130,117,110,94],"timestamp_mouse":[9,26,47,67,87,106,128,148,166,186,206,227,248,268,287,307,328,348,367,386,406,428,447,466,486,506,528,546,566,587,608,627,647,666,688,708,727,746,767,786,808,826,846,867,886,906,926,946,967,987,1007,1026,1047,1066,1086,1107,1126,1146,1166,1187,1207,1228,1246,1267,1286,1306,1327,1346],"xSR":741.5,"ySR":469.95,"xT1":424.9,"yT1":0,"xT2":1058.1,"yT2":0,"toosoon":0,"cond_shown":"equaldotsize","ratio_trial":900,"smaller_num":"18","larger_num":"20","correct_side":2,"subjID":"AlejandroFajardo32","gender":"0","age":"9","school":"4"},{"start_time":1552309469489,"click_time":1552309470672,"finger_time":1552309470371,"fix_duration":978.1225165116823,"trial":18,"RT":882,"MT":301,"sideResp":2,"stimulus":"img/250/randomdotsizeEA/R/8_Ratio_250_L_1_R_4.png","xmouse":[820,820,820,820,820,820,820,820,820,820,820,820,820,820,820,820,820,820,820,820,820,820,820,820,820,820,820,820,820,820,820,820,820,820,820,820,820,820,820,820,820,820,824,836,912,958,1004,1046,1074,1088,1099,1103,1110,1118,1133,1138,1141,1144,1144,1144],"ymouse":[543,543,543,543,543,543,543,543,543,543,543,543,543,543,543,543,543,543,543,543,543,543,543,543,543,543,543,543,543,543,543,543,543,543,543,543,543,543,543,543,543,543,542,540,522,508,482,447,411,383,344,323,300,274,223,202,181,158,138,95],"timestamp_mouse":[10,21,41,62,81,103,121,142,162,183,202,221,241,262,283,301,322,342,362,382,403,422,443,461,481,503,523,541,562,582,601,623,643,663,682,701,723,743,763,782,802,823,842,862,882,901,921,942,962,982,1001,1021,1041,1061,1082,1102,1123,1141,1162,1183],"xSR":741.5,"ySR":469.95,"xT1":424.9,"yT1":0,"xT2":1058.1,"yT2":0,"toosoon":0,"cond_shown":"randomdotsizeEA","ratio_trial":250,"smaller_num":"1","larger_num":"4","correct_side":2,"subjID":"AlejandroFajardo32","gender":"0","age":"9","school":"4"},{"start_time":1552309472264,"click_time":1552309473430,"finger_time":1552309473012,"fix_duration":250,"trial":19,"RT":748,"MT":418,"sideResp":2,"stimulus":"img/250/equaldotanddens/R/11_Ratio_250_L_3_R_12.png","xmouse":[753,753,753,753,753,753,753,753,753,753,753,753,753,753,753,753,753,753,753,753,753,753,753,753,753,753,753,753,753,753,753,753,753,753,757,778,809,866,888,950,976,1010,1022,1028,1037,1044,1064,1078,1086,1095,1100,1107,1107,1107,1107,1108,1109,1109,1111],"ymouse":[503,503,503,503,503,503,503,503,503,503,503,503,503,503,503,503,503,503,503,503,503,503,503,503,503,503,503,503,503,503,503,503,503,503,503,503,493,477,471,449,434,401,385,369,351,332,287,252,230,209,190,152,138,129,123,119,109,102,95],"timestamp_mouse":[10,35,47,66,86,108,127,146,167,187,207,227,247,267,286,307,328,347,367,387,407,426,448,467,487,506,528,548,567,587,608,626,646,667,687,707,726,748,767,787,806,826,846,866,886,906,926,948,966,987,1007,1026,1047,1066,1087,1106,1126,1146,1166],"xSR":741.5,"ySR":469.95,"xT1":424.9,"yT1":0,"xT2":1058.1,"yT2":0,"toosoon":0,"cond_shown":"equaldotanddens","ratio_trial":250,"smaller_num":"3","larger_num":"12","correct_side":2,"subjID":"AlejandroFajardo32","gender":"0","age":"9","school":"4"},{"start_time":1552309478093,"click_time":1552309479792,"finger_time":1552309478971,"fix_duration":1240.5318761593091,"trial":20,"RT":878,"MT":821,"sideResp":1,"stimulus":"img/750/equaldotsize/R/11_Ratio_750_L_12_R_16.png","xmouse":[752,752,752,752,752,752,752,752,752,752,752,752,752,752,752,752,752,752,752,752,752,752,752,752,752,752,752,752,752,752,752,754,755,764,767,777,784,789,793,797,798,799,799,799,798,779,768,756,743,721,713,708,703,697,689,684,676,669,660,633,615,595,565,557,546,543,541,541,541,541,542,543,544,544,517,517,517,517,517,517,517,517,517,517,503],"ymouse":[533,533,533,533,533,533,533,533,533,533,533,533,533,533,533,533,533,533,533,533,533,533,533,533,533,533,533,533,533,533,533,532,532,530,529,522,516,511,505,497,492,487,481,469,464,432,417,402,387,363,352,345,337,326,308,298,290,280,271,248,233,218,191,183,164,148,143,142,141,131,121,109,90,68,0,0,0,0,0,0,0,0,0,0,4],"timestamp_mouse":[18,39,58,77,97,118,139,159,177,197,218,238,259,279,297,317,337,358,379,398,417,438,458,478,499,517,538,558,578,597,618,637,658,678,697,718,738,757,777,798,819,837,858,878,897,917,937,959,978,999,1017,1038,1058,1079,1098,1117,1138,1158,1177,1198,1217,1237,1257,1278,1298,1319,1337,1357,1377,1398,1417,1437,1457,1478,1498,1517,1537,1558,1578,1598,1619,1639,1658,1678,1698],"xSR":741.5,"ySR":469.95,"xT1":424.9,"yT1":0,"xT2":1058.1,"yT2":0,"toosoon":0,"cond_shown":"equaldotsize","ratio_trial":750,"smaller_num":"12","larger_num":"16","correct_side":2,"subjID":"AlejandroFajardo32","gender":"0","age":"9","school":"4"},{"start_time":1552309482705,"click_time":1552309483950,"finger_time":1552309483430,"fix_duration":1232.5617255066259,"trial":21,"RT":725,"MT":520,"sideResp":2,"stimulus":"img/500/equaldotsize/R/9_Ratio_500_L_2_R_4.png","xmouse":[792,792,792,792,792,792,792,792,792,792,792,792,792,792,792,792,792,792,792,792,792,792,792,792,792,792,792,792,792,792,792,792,796,799,804,833,862,888,909,925,942,948,967,983,999,1019,1027,1034,1040,1049,1077,1086,1091,1096,1100,1105,1106,1108,1108,1109,1113,1116,1120],"ymouse":[523,523,523,523,523,523,523,523,523,523,523,523,523,523,523,523,523,523,523,523,523,523,523,523,523,523,523,523,523,523,523,522,521,520,518,510,499,488,477,465,447,436,408,386,364,329,315,303,290,274,223,204,190,176,164,146,142,137,134,130,116,106,94],"timestamp_mouse":[9,26,47,66,87,106,127,146,165,186,205,227,247,266,286,305,326,345,367,386,407,426,446,467,487,505,526,547,566,585,607,625,646,666,685,705,725,745,765,786,805,826,845,866,886,905,925,946,966,987,1005,1026,1046,1066,1086,1105,1125,1146,1165,1186,1205,1226,1245],"xSR":741.5,"ySR":469.95,"xT1":424.9,"yT1":0,"xT2":1058.1,"yT2":0,"toosoon":0,"cond_shown":"equaldotsize","ratio_trial":500,"smaller_num":"2","larger_num":"4","correct_side":2,"subjID":"AlejandroFajardo32","gender":"0","age":"9","school":"4"},{"start_time":1552309486220,"click_time":1552309489392,"finger_time":1552309487710,"fix_duration":968.2852584024477,"trial":22,"RT":1490,"MT":1682,"sideResp":1,"stimulus":"img/500/randomdotsizeEA/R/14_Ratio_500_L_5_R_10.png","xmouse":[802,802,802,802,802,802,802,802,802,802,802,802,802,802,802,802,800,799,799,799,799,799,799,799,797,796,795,794,794,794,794,793,793,793,793,793,793,793,793,793,793,793,793,793,793,793,793,793,793,793,793,793,793,793,793,793,793,793,792,792,791,790,790,790,790,790,790,790,790,790,790,790,789,785,735,696,675,662,643,602,592,587,585,581,567,554,541,525,509,480,473,468,468,468,468,476,483,493,506,528,534,538,541,544,547,549,549,549,549,541,537,535,534,534,534,534,534,534,534,534,534,534,534,534,534,534,534,534,534,534,534,534,534,534,534,534,534,534,534,534,534,534,534,534,534,534,534,534,534,534,534,534,534,534,532,530,528,525,524],"ymouse":[530,530,530,530,530,530,530,530,530,530,530,530,530,530,530,530,531,532,532,532,532,532,532,532,532,532,532,532,532,532,532,532,532,532,532,532,532,532,532,532,532,532,532,532,532,532,532,532,532,532,532,532,532,532,532,532,532,532,533,533,533,533,533,533,533,533,533,533,533,533,533,533,533,533,485,458,443,433,422,401,395,392,390,384,342,318,294,267,244,214,207,203,202,200,194,178,171,163,156,144,139,134,127,118,108,88,76,64,51,32,26,22,22,22,22,22,22,22,22,22,22,22,22,22,22,22,22,22,22,22,22,22,22,22,22,22,22,22,22,22,22,22,22,22,22,22,22,22,22,22,22,22,22,22,22,22,23,24,25],"timestamp_mouse":[10,30,50,70,90,111,130,151,172,190,212,230,251,272,290,311,330,350,370,391,412,430,452,471,491,511,530,552,571,592,611,630,651,672,691,712,731,751,771,790,810,832,850,872,891,911,930,950,972,990,1010,1031,1052,1070,1090,1110,1131,1151,1171,1192,1210,1231,1251,1271,1291,1312,1331,1351,1372,1391,1410,1432,1451,1471,1490,1510,1531,1550,1570,1591,1611,1631,1650,1671,1691,1710,1730,1750,1770,1791,1810,1830,1850,1871,1891,1911,1930,1951,1970,1991,2010,2031,2051,2072,2090,2110,2130,2151,2171,2192,2210,2230,2251,2270,2291,2311,2332,2352,2371,2391,2411,2431,2450,2470,2492,2511,2531,2551,2571,2590,2611,2632,2652,2672,2692,2710,2730,2750,2770,2792,2810,2831,2852,2871,2892,2910,2930,2951,2970,2991,3011,3031,3052,3071,3091,3112,3131,3151,3172],"xSR":741.5,"ySR":469.95,"xT1":424.9,"yT1":0,"xT2":1058.1,"yT2":0,"toosoon":0,"cond_shown":"randomdotsizeEA","ratio_trial":500,"smaller_num":"5","larger_num":"10","correct_side":2,"subjID":"AlejandroFajardo32","gender":"0","age":"9","school":"4"},{"start_time":1552309492403,"click_time":1552309493652,"finger_time":1552309493230,"fix_duration":250,"trial":23,"RT":827,"MT":422,"sideResp":2,"stimulus":"img/250/equaldotsize/R/13_Ratio_250_L_2_R_8.png","xmouse":[762,762,762,762,762,762,762,762,762,762,762,762,762,762,762,762,762,762,762,762,762,762,762,762,762,762,762,762,762,762,762,762,762,762,762,762,782,789,792,801,811,830,841,851,862,875,910,932,955,973,988,1014,1032,1042,1050,1059,1080,1092,1100,1107,1112,1118,1119],"ymouse":[560,560,560,560,560,560,560,560,560,560,560,560,560,560,560,560,560,560,560,560,560,560,560,560,560,560,560,560,560,560,560,560,560,560,560,561,558,555,552,539,513,410,347,316,297,282,268,264,258,254,250,240,228,218,207,196,171,156,143,129,118,101,98],"timestamp_mouse":[12,27,56,68,88,107,127,149,167,187,209,229,248,267,289,308,327,347,369,387,408,429,448,467,489,508,527,547,567,588,608,627,649,668,688,708,727,748,767,787,808,827,848,867,887,907,928,947,968,988,1008,1027,1047,1067,1088,1109,1128,1147,1167,1187,1208,1228,1249],"xSR":741.5,"ySR":469.95,"xT1":424.9,"yT1":0,"xT2":1058.1,"yT2":0,"toosoon":0,"cond_shown":"equaldotsize","ratio_trial":250,"smaller_num":"2","larger_num":"8","correct_side":2,"subjID":"AlejandroFajardo32","gender":"0","age":"9","school":"4"},{"start_time":1552309498789,"click_time":1552309500371,"finger_time":1552309499631,"fix_duration":1197.1835506660493,"trial":24,"RT":842,"MT":740,"sideResp":2,"stimulus":"img/250/randomdotsizeEA/R/4_Ratio_250_L_3_R_12.png","xmouse":[809,809,809,809,809,809,809,809,809,809,809,809,809,809,809,809,809,809,809,809,809,809,809,809,809,809,809,809,809,809,809,809,809,812,812,812,812,812,812,812,818,828,847,887,906,926,940,957,976,980,989,992,998,1000,1002,1006,1012,1015,1022,1024,1032,1039,1046,1055,1056,1058,1059,1063,1077,1083,1089,1092,1093,1094,1094,1094,1096,1098,1103,1105],"ymouse":[553,553,553,553,553,553,553,553,553,553,553,553,553,553,553,553,553,553,553,553,553,553,553,553,553,553,553,553,553,553,553,553,552,551,551,551,551,551,551,551,546,541,526,488,463,417,378,311,263,254,238,230,219,214,211,205,198,194,188,186,181,177,173,166,165,163,162,159,149,143,133,128,126,123,123,123,121,118,106,99],"timestamp_mouse":[10,21,48,62,82,101,123,142,161,181,201,221,241,261,281,302,323,341,363,383,401,422,443,461,482,503,521,543,563,583,603,622,643,661,681,703,723,741,761,781,801,822,842,861,881,901,921,944,962,982,1001,1022,1043,1062,1081,1102,1121,1141,1161,1183,1201,1222,1242,1262,1283,1301,1321,1342,1361,1382,1401,1421,1441,1461,1482,1503,1522,1542,1561,1581],"xSR":741.5,"ySR":469.95,"xT1":424.9,"yT1":0,"xT2":1058.1,"yT2":0,"toosoon":0,"cond_shown":"randomdotsizeEA","ratio_trial":250,"smaller_num":"3","larger_num":"12","correct_side":2,"subjID":"AlejandroFajardo32","gender":"0","age":"9","school":"4"},{"start_time":1552309502832,"click_time":1552309504751,"finger_time":1552309503650,"fix_duration":1080.602477247032,"trial":25,"RT":818,"MT":1101,"sideResp":1,"stimulus":"img/900/equaldotanddens/L/4_Ratio_900_L_20_R_18.png","xmouse":[798,798,798,798,798,798,798,798,798,798,798,798,798,798,798,798,798,798,798,798,798,798,798,798,798,798,798,798,798,798,798,798,798,798,798,798,798,798,800,817,851,868,887,913,935,956,965,973,981,993,1006,1034,1045,1051,1054,1056,1056,1056,1056,1056,1056,1056,1056,1056,1056,1053,1047,1037,1024,1010,983,978,976,972,963,896,862,830,804,782,755,746,737,728,714,685,647,634,621,609,601,574,556,539,525,521],"ymouse":[505,505,505,505,505,505,505,505,505,505,505,505,505,505,505,505,505,505,505,505,505,505,505,505,505,505,505,505,505,505,505,505,505,505,505,505,505,504,500,487,454,434,407,373,334,288,261,243,224,203,183,147,131,118,110,105,105,105,105,105,105,105,105,105,105,105,105,103,99,94,86,86,85,85,83,69,58,50,42,36,32,32,32,32,33,38,43,45,48,50,51,55,56,56,56,56],"timestamp_mouse":[19,44,59,78,98,120,138,158,178,200,220,240,259,278,299,319,339,358,379,398,420,439,459,478,500,520,539,558,579,600,618,639,659,680,700,718,738,759,779,798,818,838,859,878,899,919,938,958,979,998,1018,1038,1059,1079,1099,1119,1139,1160,1180,1199,1220,1238,1258,1278,1299,1319,1338,1358,1379,1398,1419,1438,1459,1478,1499,1519,1538,1558,1579,1599,1619,1640,1660,1680,1700,1718,1738,1758,1778,1798,1818,1839,1860,1880,1899,1919],"xSR":741.5,"ySR":469.95,"xT1":424.9,"yT1":0,"xT2":1058.1,"yT2":0,"toosoon":0,"cond_shown":"equaldotanddens","ratio_trial":900,"smaller_num":"18","larger_num":"20","correct_side":1,"subjID":"AlejandroFajardo32","gender":"0","age":"9","school":"4"},{"start_time":1552309506565,"click_time":1552309507771,"finger_time":1552309507291,"fix_duration":250,"trial":26,"RT":726,"MT":480,"sideResp":2,"stimulus":"img/750/randomdotsizeEA/R/2_Ratio_750_L_6_R_8.png","xmouse":[826,826,826,826,826,826,826,826,826,826,826,826,826,826,826,826,826,826,826,826,826,826,826,826,826,826,826,826,826,826,826,826,826,826,828,840,855,885,916,961,969,969,965,954,945,945,945,945,947,949,956,962,968,979,1010,1027,1046,1066,1092,1107,1128],"ymouse":[520,520,520,520,520,520,520,520,520,520,520,520,520,520,520,520,520,520,520,520,520,520,520,520,520,520,520,520,520,520,520,520,520,520,518,511,501,479,454,395,363,332,299,274,247,244,242,240,238,235,227,223,220,214,198,188,176,162,141,126,95],"timestamp_mouse":[9,25,46,68,86,106,127,147,165,185,206,227,246,267,286,305,325,345,366,386,406,426,447,467,486,507,526,545,566,586,606,626,645,665,687,705,726,746,766,787,805,826,846,865,887,905,926,946,965,985,1005,1027,1046,1065,1087,1106,1126,1145,1165,1186,1205],"xSR":741.5,"ySR":469.95,"xT1":424.9,"yT1":0,"xT2":1058.1,"yT2":0,"toosoon":0,"cond_shown":"randomdotsizeEA","ratio_trial":750,"smaller_num":"6","larger_num":"8","correct_side":2,"subjID":"AlejandroFajardo32","gender":"0","age":"9","school":"4"},{"start_time":1552309510030,"click_time":1552309511571,"finger_time":1552309511070,"fix_duration":1058.9184337255965,"trial":27,"RT":1040,"MT":501,"sideResp":1,"stimulus":"img/500/randomdotsizeEA/L/5_Ratio_500_L_4_R_2.png","xmouse":[762,762,762,762,762,762,762,762,762,762,762,762,762,762,762,762,762,762,762,762,762,762,762,762,762,762,762,762,762,762,762,762,762,762,762,762,762,762,763,764,766,768,768,768,768,768,768,768,768,768,768,768,761,743,725,714,706,703,703,701,699,696,678,653,637,620,605,584,580,577,574,574,574,572,567,555,534,494],"ymouse":[487,487,487,487,487,487,487,487,487,487,487,487,487,487,487,487,487,487,487,487,487,487,487,487,487,487,487,487,487,487,487,487,487,487,487,487,487,487,487,487,487,487,487,487,487,487,487,487,487,487,487,481,459,415,372,317,280,233,218,203,190,174,135,103,86,71,58,40,37,35,34,34,34,34,34,34,37,38],"timestamp_mouse":[13,24,42,62,82,101,121,140,160,180,200,220,241,262,280,301,320,342,361,381,401,421,441,461,481,502,520,542,562,581,600,621,641,660,682,701,722,740,761,780,800,821,840,862,882,900,921,940,960,980,1001,1022,1040,1061,1081,1101,1121,1141,1162,1180,1200,1220,1240,1260,1280,1301,1321,1340,1362,1382,1402,1421,1441,1461,1480,1501,1520,1541],"xSR":741.5,"ySR":469.95,"xT1":424.9,"yT1":0,"xT2":1058.1,"yT2":0,"toosoon":0,"cond_shown":"randomdotsizeEA","ratio_trial":500,"smaller_num":"2","larger_num":"4","correct_side":1,"subjID":"AlejandroFajardo32","gender":"0","age":"9","school":"4"},{"start_time":1552309513009,"click_time":1552309513931,"finger_time":1552309513631,"fix_duration":338.49792438624814,"trial":28,"RT":622,"MT":300,"sideResp":2,"stimulus":"img/500/randomdotsizeEA/R/1_Ratio_500_L_9_R_18.png","xmouse":[822,822,822,822,822,822,822,822,822,822,822,822,822,822,822,822,822,822,822,822,822,822,822,822,822,822,822,822,823,826,832,842,873,937,959,978,993,1006,1021,1042,1048,1053,1059,1082,1096,1109,1116],"ymouse":[536,536,536,536,536,536,536,536,536,536,536,536,536,536,536,536,536,536,536,536,536,536,536,536,536,536,536,536,536,536,533,525,493,431,412,398,385,374,363,344,333,318,296,213,164,117,91],"timestamp_mouse":[1,21,46,62,83,102,122,141,163,183,201,223,243,263,282,301,323,341,361,381,402,422,443,461,482,502,523,541,562,581,602,622,643,662,681,701,721,742,762,781,801,822,843,862,881,902,922],"xSR":741.5,"ySR":469.95,"xT1":424.9,"yT1":0,"xT2":1058.1,"yT2":0,"toosoon":0,"cond_shown":"randomdotsizeEA","ratio_trial":500,"smaller_num":"9","larger_num":"18","correct_side":2,"subjID":"AlejandroFajardo32","gender":"0","age":"9","school":"4"},{"start_time":1552309515922,"click_time":1552309517173,"finger_time":1552309516491,"fix_duration":1028.370226033551,"trial":29,"RT":569,"MT":682,"sideResp":1,"stimulus":"img/250/equaldotsize/L/7_Ratio_250_L_8_R_2.png","xmouse":[790,790,790,790,790,786,786,786,786,786,786,786,786,786,786,786,786,786,786,786,786,786,786,786,786,785,786,799,849,886,911,920,921,921,921,921,921,921,909,876,811,725,636,514,475,470,469,469,469,469,469,469,469,469,469,469,469,469,471,472,472,473,474],"ymouse":[543,543,543,543,543,543,543,543,543,543,543,543,543,543,543,543,543,543,543,543,543,543,543,543,543,543,541,531,485,455,438,431,431,431,431,431,431,430,421,396,356,301,246,176,150,145,143,143,143,142,137,132,126,124,124,124,123,122,113,109,105,101,95],"timestamp_mouse":[9,41,50,68,88,109,130,150,169,190,209,228,248,269,288,309,330,349,369,390,409,428,450,468,490,509,529,548,569,589,608,629,650,669,689,709,730,749,769,789,809,828,849,869,890,910,928,950,968,989,1010,1029,1051,1069,1088,1108,1128,1149,1168,1189,1209,1230,1251],"xSR":741.5,"ySR":469.95,"xT1":424.9,"yT1":0,"xT2":1058.1,"yT2":0,"toosoon":0,"cond_shown":"equaldotsize","ratio_trial":250,"smaller_num":"2","larger_num":"8","correct_side":1,"subjID":"AlejandroFajardo32","gender":"0","age":"9","school":"4"},{"start_time":1552309519240,"click_time":1552309520411,"finger_time":1552309520011,"fix_duration":787.4264829853922,"trial":30,"RT":771,"MT":400,"sideResp":2,"stimulus":"img/500/equaldotanddens/R/12_Ratio_500_L_1_R_2.png","xmouse":[793,793,793,793,793,793,793,793,793,793,793,793,793,793,793,793,793,793,792,791,791,791,791,791,791,791,791,791,791,791,791,791,791,791,791,791,791,823,860,904,962,1012,1092,1109,1118,1120,1120,1120,1119,1119,1125,1134,1140,1142,1142,1143,1144,1146,1147],"ymouse":[538,538,538,538,538,538,538,538,538,538,538,538,538,538,538,538,538,539,540,541,541,541,541,541,541,541,541,541,541,541,541,541,541,541,541,541,539,513,493,470,440,405,338,316,303,300,300,299,282,263,241,222,193,178,160,146,132,107,97],"timestamp_mouse":[11,38,50,71,92,111,130,152,172,191,211,231,252,270,290,311,332,351,370,392,412,430,451,472,490,511,531,551,571,591,610,632,650,671,691,712,730,750,771,791,810,830,850,870,890,910,932,951,970,990,1012,1030,1051,1070,1091,1111,1131,1151,1171],"xSR":741.5,"ySR":469.95,"xT1":424.9,"yT1":0,"xT2":1058.1,"yT2":0,"toosoon":0,"cond_shown":"equaldotanddens","ratio_trial":500,"smaller_num":"1","larger_num":"2","correct_side":2,"subjID":"AlejandroFajardo32","gender":"0","age":"9","school":"4"},{"start_time":1552309521713,"click_time":1552309523111,"finger_time":1552309522710,"fix_duration":281.25913758801426,"trial":31,"RT":997,"MT":401,"sideResp":1,"stimulus":"img/900/randomdotsizeEA/L/4_Ratio_900_L_20_R_18.png","xmouse":[780,780,780,780,780,780,780,780,780,780,780,780,780,780,780,780,780,780,780,780,780,780,780,780,780,780,780,780,780,780,780,783,787,793,797,800,803,807,810,811,811,811,811,811,811,811,811,806,793,755,730,702,676,667,656,653,650,645,643,636,631,623,620,604,594,581,567,554,528,517],"ymouse":[552,552,552,552,552,552,552,552,552,552,552,552,552,552,552,552,552,552,552,552,552,552,552,552,552,552,552,552,552,552,551,550,548,540,535,530,525,519,514,512,511,511,511,511,511,511,505,499,482,429,391,355,317,299,276,268,258,242,236,220,212,201,196,170,155,142,128,117,94,85],"timestamp_mouse":[18,41,58,79,97,119,139,158,178,198,218,239,259,278,298,318,339,357,377,398,417,438,459,478,499,519,538,557,577,598,619,639,658,678,698,718,738,758,778,799,818,838,858,878,898,918,937,958,977,997,1018,1038,1059,1078,1099,1117,1150,1157,1177,1197,1217,1237,1258,1278,1298,1317,1339,1357,1379,1397],"xSR":741.5,"ySR":469.95,"xT1":424.9,"yT1":0,"xT2":1058.1,"yT2":0,"toosoon":0,"cond_shown":"randomdotsizeEA","ratio_trial":900,"smaller_num":"18","larger_num":"20","correct_side":1,"subjID":"AlejandroFajardo32","gender":"0","age":"9","school":"4"},{"start_time":1552309525496,"click_time":1552309526611,"finger_time":1552309526190,"fix_duration":1403.3260973318731,"trial":32,"RT":694,"MT":421,"sideResp":1,"stimulus":"img/250/equaldotanddens/L/7_Ratio_250_L_8_R_2.png","xmouse":[778,778,778,778,778,778,778,778,778,778,778,778,778,778,778,778,778,778,778,778,778,778,778,778,778,778,778,778,778,778,779,779,778,774,767,751,743,733,723,710,683,665,623,588,555,516,503,493,489,489,489,489,489,490,491,492],"ymouse":[516,516,516,516,516,516,516,516,516,516,516,516,516,516,516,516,516,516,516,516,516,516,516,516,516,516,516,516,516,516,515,514,497,482,465,428,409,390,373,355,322,302,253,220,198,175,163,153,147,145,131,123,115,107,101,95],"timestamp_mouse":[16,35,60,76,96,115,136,154,175,195,215,235,254,274,295,315,334,354,375,395,416,434,454,476,495,514,534,555,576,596,615,634,655,675,694,715,736,755,774,795,814,836,855,874,894,914,935,955,974,994,1014,1034,1054,1074,1094,1115],"xSR":741.5,"ySR":469.95,"xT1":424.9,"yT1":0,"xT2":1058.1,"yT2":0,"toosoon":0,"cond_shown":"equaldotanddens","ratio_trial":250,"smaller_num":"2","larger_num":"8","correct_side":1,"subjID":"AlejandroFajardo32","gender":"0","age":"9","school":"4"},{"start_time":1552309529609,"click_time":1552309530851,"finger_time":1552309529750,"fix_duration":296.71280169825576,"trial":33,"RT":141,"MT":1101,"sideResp":1,"stimulus":"img/500/randomdotsizeEA/L/5_Ratio_500_L_4_R_2.png","xmouse":[792,792,792,789,783,763,745,739,735,734,734,734,734,734,734,734,734,734,734,734,734,734,734,734,734,734,734,734,734,734,734,734,739,750,770,846,881,902,915,924,938,944,947,948,948,948,948,948,948,947,929,903,860,790,726,668,589,575,563,552,533,527,524],"ymouse":[535,535,535,535,534,526,510,503,498,496,496,496,496,496,496,496,496,496,496,496,496,496,496,496,496,496,496,496,496,496,496,495,495,495,495,480,466,451,434,415,367,343,323,306,295,290,289,289,289,289,283,273,255,228,200,173,132,122,115,109,101,99,97],"timestamp_mouse":[9,34,42,61,82,102,122,141,161,183,203,222,241,262,281,302,322,341,361,383,402,421,441,462,481,502,523,542,562,582,601,621,642,661,681,701,721,743,762,783,802,821,842,862,881,901,922,943,962,983,1002,1021,1041,1062,1081,1102,1122,1141,1161,1181,1203,1221,1242],"xSR":741.5,"ySR":469.95,"xT1":424.9,"yT1":0,"xT2":1058.1,"yT2":0,"toosoon":0,"cond_shown":"randomdotsizeEA","ratio_trial":500,"smaller_num":"2","larger_num":"4","correct_side":1,"subjID":"AlejandroFajardo32","gender":"0","age":"9","school":"4"},{"start_time":1552309532644,"click_time":1552309534191,"finger_time":1552309533332,"fix_duration":250,"trial":34,"RT":688,"MT":859,"sideResp":2,"stimulus":"img/500/equaldotanddens/R/9_Ratio_500_L_2_R_4.png","xmouse":[795,796,796,796,796,796,796,796,796,796,796,796,796,796,796,796,796,796,796,796,796,796,796,796,796,796,796,796,796,796,796,801,814,828,856,869,880,887,890,894,895,902,904,913,928,936,941,946,948,974,996,1017,1027,1032,1038,1039,1042,1044,1047,1048,1049,1050,1051,1052,1056,1058,1060,1063,1068,1080,1084,1085,1086,1086,1086,1086,1086,1089],"ymouse":[510,510,510,510,510,510,510,510,510,510,510,510,510,510,510,510,510,510,510,510,510,510,510,510,510,510,510,510,510,510,510,509,500,486,454,433,409,388,369,337,327,312,309,291,264,252,247,242,241,236,233,225,220,217,213,208,203,196,185,181,178,172,168,162,154,151,148,144,136,113,106,105,104,104,104,102,100,93],"timestamp_mouse":[14,26,47,68,86,108,127,147,167,187,206,226,248,268,286,307,328,347,368,387,407,428,448,467,487,508,528,546,567,586,607,626,647,666,688,706,727,746,768,786,807,827,848,866,887,906,926,946,966,986,1008,1026,1047,1066,1086,1107,1127,1147,1168,1186,1207,1228,1247,1267,1288,1308,1327,1347,1367,1386,1406,1428,1447,1467,1486,1507,1527,1547],"xSR":741.5,"ySR":469.95,"xT1":424.9,"yT1":0,"xT2":1058.1,"yT2":0,"toosoon":0,"cond_shown":"equaldotanddens","ratio_trial":500,"smaller_num":"2","larger_num":"4","correct_side":2,"subjID":"AlejandroFajardo32","gender":"0","age":"9","school":"4"},{"start_time":1552309537673,"click_time":1552309538470,"finger_time":1552309538231,"fix_duration":619.8976419068256,"trial":35,"RT":558,"MT":239,"sideResp":2,"stimulus":"img/250/equaldotanddens/R/6_Ratio_250_L_6_R_24.png","xmouse":[813,813,813,813,813,813,813,813,813,813,813,813,813,813,813,813,813,813,813,813,813,813,814,814,814,818,827,875,903,933,955,971,999,1009,1018,1027,1036,1053,1067,1072],"ymouse":[533,533,533,533,533,533,533,533,533,533,533,533,533,533,536,539,540,540,540,539,537,532,530,530,529,527,514,432,388,347,316,291,252,234,219,203,187,145,111,91],"timestamp_mouse":[18,48,59,77,97,119,137,158,177,198,217,238,258,279,298,317,338,357,378,397,418,437,459,479,497,517,537,558,577,597,617,637,658,678,698,719,738,758,779,797],"xSR":741.5,"ySR":469.95,"xT1":424.9,"yT1":0,"xT2":1058.1,"yT2":0,"toosoon":0,"cond_shown":"equaldotanddens","ratio_trial":250,"smaller_num":"6","larger_num":"24","correct_side":2,"subjID":"AlejandroFajardo32","gender":"0","age":"9","school":"4"},{"start_time":1552309540319,"click_time":1552309541751,"finger_time":1552309540911,"fix_duration":486.96731913169975,"trial":36,"RT":592,"MT":840,"sideResp":2,"stimulus":"img/750/equaldotanddens/R/12_Ratio_750_L_3_R_4.png","xmouse":[781,781,781,781,781,781,781,781,781,781,781,781,781,781,781,781,781,781,781,781,781,781,781,781,781,782,804,819,833,847,863,869,872,875,876,878,879,879,879,881,884,891,896,900,901,903,904,906,908,911,917,928,937,942,957,964,975,978,982,986,989,1002,1013,1022,1038,1058,1070,1081,1093,1104,1112,1128],"ymouse":[535,535,535,535,535,535,535,535,535,535,535,535,535,535,535,535,535,535,535,535,535,535,535,535,535,535,534,530,525,516,496,484,474,464,455,444,435,426,417,405,391,368,356,348,347,341,339,335,330,323,313,297,284,278,263,253,239,235,230,226,222,212,204,198,186,172,164,156,147,133,116,67],"timestamp_mouse":[14,32,53,72,91,111,131,151,172,192,211,232,253,272,293,312,332,353,372,391,412,433,453,471,492,511,533,551,573,592,613,631,651,671,691,713,731,752,771,791,812,831,853,872,893,913,931,953,971,991,1011,1031,1052,1071,1091,1112,1133,1151,1172,1193,1212,1231,1251,1272,1293,1313,1331,1352,1372,1393,1411,1432],"xSR":741.5,"ySR":469.95,"xT1":424.9,"yT1":0,"xT2":1058.1,"yT2":0,"toosoon":0,"cond_shown":"equaldotanddens","ratio_trial":750,"smaller_num":"3","larger_num":"4","correct_side":2,"subjID":"AlejandroFajardo32","gender":"0","age":"9","school":"4"},{"start_time":1552309545366,"click_time":1552309546412,"finger_time":1552309546151,"fix_duration":774.2949000438736,"trial":37,"RT":785,"MT":261,"sideResp":1,"stimulus":"img/750/randomdotsizeEA/R/4_Ratio_750_L_15_R_20.png","xmouse":[814,814,814,814,814,814,814,814,814,814,814,814,814,814,814,814,814,814,814,814,814,814,814,814,814,814,814,814,814,814,814,816,818,818,818,818,815,809,795,683,616,551,500,470,455,453,451,446,442,442,448,453,463],"ymouse":[558,558,558,558,558,558,558,558,558,558,558,558,558,558,558,558,558,558,558,558,558,558,558,558,558,558,558,558,558,558,558,558,558,558,558,558,546,534,505,390,332,272,228,202,189,184,178,166,155,127,117,108,96],"timestamp_mouse":[9,41,44,64,86,104,125,145,165,185,205,225,245,265,284,304,324,345,365,385,405,424,446,465,485,506,525,545,566,586,606,624,645,665,684,705,724,745,765,785,805,825,845,866,885,904,924,946,964,985,1004,1025,1046],"xSR":741.5,"ySR":469.95,"xT1":424.9,"yT1":0,"xT2":1058.1,"yT2":0,"toosoon":0,"cond_shown":"randomdotsizeEA","ratio_trial":750,"smaller_num":"15","larger_num":"20","correct_side":2,"subjID":"AlejandroFajardo32","gender":"0","age":"9","school":"4"},{"start_time":1552309549080,"click_time":1552309549970,"finger_time":1552309549851,"fix_duration":1427.1281901080092,"trial":38,"RT":771,"MT":119,"sideResp":1,"stimulus":"img/250/equaldotsize/L/14_Ratio_250_L_12_R_3.png","xmouse":[826,826,826,826,826,826,826,826,826,826,826,826,826,826,826,826,826,826,826,826,826,826,826,826,826,826,826,826,826,826,826,826,826,826,826,822,817,803,756,724,682,637,583,546,510],"ymouse":[544,544,544,544,544,544,544,544,544,544,544,544,544,544,544,544,544,544,544,544,544,544,544,544,544,544,544,544,544,544,544,544,544,544,544,539,523,472,371,325,274,221,162,130,98],"timestamp_mouse":[10,42,51,71,92,111,132,150,171,192,211,231,250,272,292,310,331,351,371,390,410,430,452,471,492,511,530,550,570,590,610,631,652,672,691,711,730,752,771,790,810,831,850,870,890],"xSR":741.5,"ySR":469.95,"xT1":424.9,"yT1":0,"xT2":1058.1,"yT2":0,"toosoon":0,"cond_shown":"equaldotsize","ratio_trial":250,"smaller_num":"3","larger_num":"12","correct_side":1,"subjID":"AlejandroFajardo32","gender":"0","age":"9","school":"4"},{"start_time":1552309551423,"click_time":1552309552870,"finger_time":1552309552210,"fix_duration":250,"trial":39,"RT":787,"MT":660,"sideResp":2,"stimulus":"img/250/equaldotsize/R/6_Ratio_250_L_6_R_24.png","xmouse":[782,782,782,782,782,782,782,782,782,782,782,782,782,782,782,782,782,782,782,782,782,782,782,782,782,782,782,782,782,782,782,782,782,782,782,782,783,803,826,856,895,942,997,1018,1029,1039,1050,1069,1076,1085,1093,1099,1117,1129,1135,1142,1148,1160,1169,1172,1173,1173,1171,1171,1169,1169,1167,1166,1165,1165,1164,1161,1152],"ymouse":[517,517,517,517,517,517,517,517,517,517,517,517,517,517,517,517,517,517,517,517,517,517,517,517,517,517,517,517,517,517,517,517,517,517,517,517,518,514,508,500,484,461,414,377,354,329,306,269,252,237,221,206,177,158,149,137,123,90,73,58,46,37,31,30,28,28,25,25,25,25,25,25,26],"timestamp_mouse":[9,28,63,68,88,107,129,148,168,187,208,229,249,268,288,307,329,348,368,389,409,429,448,467,488,509,528,547,568,589,609,629,649,667,688,709,728,747,767,787,807,828,848,869,887,908,927,947,967,987,1007,1028,1047,1067,1087,1108,1128,1148,1167,1188,1207,1228,1248,1268,1288,1308,1330,1347,1367,1387,1408,1429,1447],"xSR":741.5,"ySR":469.95,"xT1":424.9,"yT1":0,"xT2":1058.1,"yT2":0,"toosoon":0,"cond_shown":"equaldotsize","ratio_trial":250,"smaller_num":"6","larger_num":"24","correct_side":2,"subjID":"AlejandroFajardo32","gender":"0","age":"9","school":"4"},{"start_time":1552309556741,"click_time":1552309558030,"finger_time":1552309557670,"fix_duration":1067.4858957043282,"trial":40,"RT":929,"MT":360,"sideResp":2,"stimulus":"img/250/randomdotsizeEA/R/6_Ratio_250_L_6_R_24.png","xmouse":[742,742,742,742,742,742,742,742,742,742,742,742,742,742,742,742,742,742,742,742,742,742,742,742,742,742,742,742,742,742,742,742,742,742,742,742,742,742,742,742,742,742,742,742,743,755,847,933,965,999,1025,1040,1059,1072,1091,1107,1137,1144,1150,1150,1151,1151,1149,1147,1143],"ymouse":[504,504,504,504,504,504,504,504,504,504,504,504,504,504,504,504,504,504,504,504,504,504,504,504,504,504,504,504,504,504,504,504,504,504,504,504,504,504,504,504,504,504,504,504,504,503,488,454,426,379,327,292,259,247,232,221,185,168,152,141,132,113,106,101,93],"timestamp_mouse":[10,31,49,71,89,110,130,151,170,190,210,231,249,270,291,310,329,350,369,390,411,430,451,470,491,510,530,550,569,591,611,630,651,669,690,710,730,749,770,790,809,830,850,870,891,910,929,951,970,991,1010,1030,1049,1069,1089,1110,1130,1149,1170,1191,1211,1231,1249,1270,1289],"xSR":741.5,"ySR":469.95,"xT1":424.9,"yT1":0,"xT2":1058.1,"yT2":0,"toosoon":0,"cond_shown":"randomdotsizeEA","ratio_trial":250,"smaller_num":"6","larger_num":"24","correct_side":2,"subjID":"AlejandroFajardo32","gender":"0","age":"9","school":"4"},{"start_time":1552309560698,"click_time":1552309561872,"finger_time":1552309561492,"fix_duration":1405.28425832161,"trial":41,"RT":794,"MT":380,"sideResp":2,"stimulus":"img/750/equaldotsize/R/4_Ratio_750_L_15_R_20.png","xmouse":[800,800,800,800,800,800,800,800,800,800,800,800,800,800,800,800,800,800,800,800,800,800,800,800,800,800,800,800,800,800,800,800,800,800,800,800,800,805,823,875,904,922,932,934,936,940,947,957,969,996,1011,1024,1033,1039,1052,1063,1071,1077,1085],"ymouse":[524,524,524,524,524,524,524,524,524,524,524,524,524,524,524,524,524,524,524,524,524,524,524,524,524,524,524,524,524,524,524,524,524,524,524,524,524,519,502,455,426,404,392,387,381,372,363,351,335,297,277,260,247,236,207,177,151,127,99],"timestamp_mouse":[14,41,54,74,94,113,133,153,173,194,214,233,254,272,292,312,334,353,373,392,414,433,452,473,493,514,533,553,573,593,612,632,654,672,692,712,734,753,773,794,813,832,852,872,892,914,933,953,972,993,1012,1032,1052,1073,1092,1113,1134,1153,1174],"xSR":741.5,"ySR":469.95,"xT1":424.9,"yT1":0,"xT2":1058.1,"yT2":0,"toosoon":0,"cond_shown":"equaldotsize","ratio_trial":750,"smaller_num":"15","larger_num":"20","correct_side":2,"subjID":"AlejandroFajardo32","gender":"0","age":"9","school":"4"},{"start_time":1552309564293,"click_time":1552309565390,"finger_time":1552309565092,"fix_duration":1300.5816070732783,"trial":42,"RT":799,"MT":298,"sideResp":2,"stimulus":"img/500/randomdotsizeEA/R/12_Ratio_500_L_1_R_2.png","xmouse":[816,816,816,816,816,816,816,816,816,816,816,816,816,816,816,816,816,816,816,816,816,816,816,816,816,816,816,816,816,816,816,816,816,816,816,816,817,818,819,843,865,896,931,965,1033,1047,1062,1072,1082,1099,1108,1116,1122,1132,1140],"ymouse":[542,542,542,542,542,542,542,542,542,542,542,542,542,542,542,542,542,542,542,542,542,542,542,542,542,542,542,542,542,542,542,542,542,542,542,542,541,540,539,518,494,463,432,403,343,320,294,269,247,210,190,168,146,112,81],"timestamp_mouse":[19,38,61,77,97,119,139,158,177,198,219,238,258,279,298,318,337,358,379,398,417,437,459,479,498,519,538,558,579,598,619,638,658,678,697,718,737,758,779,799,818,838,859,879,898,918,938,958,977,997,1018,1037,1057,1077,1097],"xSR":741.5,"ySR":469.95,"xT1":424.9,"yT1":0,"xT2":1058.1,"yT2":0,"toosoon":0,"cond_shown":"randomdotsizeEA","ratio_trial":500,"smaller_num":"1","larger_num":"2","correct_side":2,"subjID":"AlejandroFajardo32","gender":"0","age":"9","school":"4"},{"start_time":1552309567272,"click_time":1552309568471,"finger_time":1552309568131,"fix_duration":278.3732621194334,"trial":43,"RT":859,"MT":340,"sideResp":1,"stimulus":"img/900/equaldotsize/L/10_Ratio_900_L_20_R_18.png","xmouse":[789,789,789,789,789,789,789,789,789,789,789,789,788,787,786,783,783,783,783,783,783,783,783,783,783,783,783,783,783,783,783,783,783,783,783,783,783,783,783,784,784,780,758,741,706,694,624,608,598,592,588,582,578,571,562,549,540,524,516,507,498],"ymouse":[513,513,513,513,513,513,513,513,513,513,513,513,515,523,530,551,555,555,555,555,555,555,555,555,556,556,556,556,556,556,556,556,556,556,556,556,556,556,556,555,552,542,506,482,429,408,290,261,244,233,228,216,209,200,187,167,155,132,122,109,96],"timestamp_mouse":[1,19,41,58,79,99,119,139,159,180,200,220,238,258,279,298,320,339,359,379,400,419,438,459,478,500,519,540,560,579,600,618,639,660,678,700,719,738,759,779,798,818,839,859,880,899,920,938,958,979,998,1020,1039,1059,1079,1100,1118,1138,1158,1178,1199],"xSR":741.5,"ySR":469.95,"xT1":424.9,"yT1":0,"xT2":1058.1,"yT2":0,"toosoon":0,"cond_shown":"equaldotsize","ratio_trial":900,"smaller_num":"18","larger_num":"20","correct_side":1,"subjID":"AlejandroFajardo32","gender":"0","age":"9","school":"4"},{"start_time":1552309572392,"click_time":1552309573430,"finger_time":1552309573110,"fix_duration":1159.699094030918,"trial":44,"RT":718,"MT":320,"sideResp":2,"stimulus":"img/250/equaldotsize/R/8_Ratio_250_L_1_R_4.png","xmouse":[827,827,827,827,827,827,827,827,827,827,827,827,827,827,827,827,827,827,827,827,827,827,827,827,827,827,827,827,827,828,829,829,830,830,834,846,851,857,865,877,908,929,942,957,971,1011,1026,1045,1069,1101,1131,1153],"ymouse":[550,550,550,550,550,550,550,550,550,550,550,550,550,550,550,550,550,550,550,550,550,550,550,550,550,550,550,550,550,550,550,550,549,548,546,533,526,517,503,485,435,407,387,367,344,276,250,223,189,149,110,73],"timestamp_mouse":[19,39,60,79,99,119,139,160,178,199,220,239,258,280,298,319,338,360,379,398,420,440,458,479,498,520,540,558,580,599,619,640,659,678,699,718,739,758,779,798,819,838,859,880,900,919,938,959,979,999,1018,1038],"xSR":741.5,"ySR":469.95,"xT1":424.9,"yT1":0,"xT2":1058.1,"yT2":0,"toosoon":0,"cond_shown":"equaldotsize","ratio_trial":250,"smaller_num":"1","larger_num":"4","correct_side":2,"subjID":"AlejandroFajardo32","gender":"0","age":"9","school":"4"},{"start_time":1552309575592,"click_time":1552309576931,"finger_time":1552309576451,"fix_duration":799.4800968770468,"trial":45,"RT":859,"MT":480,"sideResp":2,"stimulus":"img/500/equaldotanddens/R/3_Ratio_500_L_10_R_20.png","xmouse":[806,806,806,806,806,806,806,806,806,806,806,806,806,806,806,806,806,806,806,806,806,806,806,806,806,806,806,806,806,806,806,806,806,806,806,806,806,806,806,806,808,828,852,890,906,927,940,942,942,944,945,948,950,954,961,967,978,985,992,999,1005,1021,1037,1048,1056,1064,1077],"ymouse":[523,523,523,523,523,523,523,523,523,523,523,523,523,523,523,523,523,523,523,523,523,523,523,523,523,523,523,523,523,523,523,523,523,523,523,523,523,523,523,522,520,502,482,442,427,393,361,343,326,313,307,295,289,276,250,232,202,190,181,173,164,146,132,124,115,108,96],"timestamp_mouse":[18,39,59,78,99,119,140,158,180,198,219,239,260,280,298,318,339,360,380,398,418,439,459,479,499,519,540,560,578,599,618,639,660,680,699,719,738,760,779,798,818,838,859,879,899,918,938,958,979,1000,1019,1039,1058,1078,1098,1118,1140,1158,1178,1198,1218,1238,1259,1279,1298,1318,1339],"xSR":741.5,"ySR":469.95,"xT1":424.9,"yT1":0,"xT2":1058.1,"yT2":0,"toosoon":0,"cond_shown":"equaldotanddens","ratio_trial":500,"smaller_num":"10","larger_num":"20","correct_side":2,"subjID":"AlejandroFajardo32","gender":"0","age":"9","school":"4"},{"start_time":1552309579152,"click_time":1552309580431,"finger_time":1552309579931,"fix_duration":999.8781507983496,"trial":46,"RT":779,"MT":500,"sideResp":2,"stimulus":"img/250/equaldotanddens/R/8_Ratio_250_L_1_R_4.png","xmouse":[771,771,771,774,776,776,776,776,776,776,776,776,776,776,776,776,776,776,776,776,776,776,776,776,776,776,776,776,776,776,776,776,776,776,776,777,780,796,891,953,1024,1086,1117,1139,1147,1156,1164,1174,1188,1192,1194,1194,1194,1189,1186,1184,1183,1183,1183,1181,1171,1152,1134,1121],"ymouse":[500,500,503,515,517,518,518,518,518,518,518,518,518,518,518,518,518,518,518,518,518,518,518,518,518,518,518,518,518,518,518,518,518,518,518,519,519,514,467,428,375,323,292,265,256,249,239,226,192,176,163,154,145,136,133,131,130,130,130,129,124,113,101,78],"timestamp_mouse":[19,41,60,79,98,119,139,158,179,198,219,239,258,279,299,320,340,359,380,398,419,440,459,479,498,519,538,559,578,598,619,640,658,679,699,718,739,759,779,798,818,838,860,879,899,919,938,960,980,998,1019,1038,1060,1079,1100,1119,1139,1160,1180,1200,1218,1239,1259,1278],"xSR":741.5,"ySR":469.95,"xT1":424.9,"yT1":0,"xT2":1058.1,"yT2":0,"toosoon":0,"cond_shown":"equaldotanddens","ratio_trial":250,"smaller_num":"1","larger_num":"4","correct_side":2,"subjID":"AlejandroFajardo32","gender":"0","age":"9","school":"4"},{"start_time":1552309582952,"click_time":1552309584392,"finger_time":1552309583691,"fix_duration":1320.6025536963025,"trial":47,"RT":739,"MT":701,"sideResp":2,"stimulus":"img/750/equaldotsize/R/3_Ratio_750_L_15_R_20.png","xmouse":[745,745,745,745,745,745,745,745,745,745,745,745,745,745,745,745,745,745,745,745,745,745,745,745,745,745,745,745,745,745,745,746,752,765,802,815,827,840,864,882,907,943,1008,1060,1071,1082,1094,1108,1140,1154,1167,1178,1190,1192,1196,1199,1201,1205,1212,1213,1213,1211,1210,1206,1199,1192,1184,1177,1170,1168,1163,1155],"ymouse":[531,531,531,531,531,531,531,531,531,531,531,531,531,531,531,531,531,531,531,531,531,531,531,531,531,531,531,531,531,531,531,529,524,513,478,470,463,457,448,442,436,424,405,388,382,373,363,347,309,292,277,260,234,223,195,180,166,151,121,110,101,94,87,82,74,63,52,43,35,35,35,35],"timestamp_mouse":[19,45,58,78,99,119,139,160,178,198,220,240,258,278,299,319,340,358,379,399,419,440,458,478,498,520,540,559,579,599,619,640,659,678,700,720,739,759,780,798,819,839,859,879,898,919,939,959,980,998,1020,1040,1058,1079,1100,1120,1139,1159,1179,1200,1219,1238,1258,1280,1298,1319,1340,1358,1380,1398,1419,1440],"xSR":741.5,"ySR":469.95,"xT1":424.9,"yT1":0,"xT2":1058.1,"yT2":0,"toosoon":0,"cond_shown":"equaldotsize","ratio_trial":750,"smaller_num":"15","larger_num":"20","correct_side":2,"subjID":"AlejandroFajardo32","gender":"0","age":"9","school":"4"},{"start_time":1552309586422,"click_time":1552309587551,"finger_time":1552309587010,"fix_duration":1071.4166144250514,"trial":48,"RT":588,"MT":541,"sideResp":2,"stimulus":"img/750/equaldotanddens/R/5_Ratio_750_L_15_R_20.png","xmouse":[764,764,764,764,764,764,764,764,764,764,764,764,764,764,764,764,764,764,764,764,764,764,764,764,764,766,773,801,841,866,899,910,918,929,941,955,973,976,985,995,1022,1038,1053,1066,1078,1090,1111,1122,1129,1134,1137,1140,1141,1142,1142,1142,1142],"ymouse":[531,531,531,531,531,531,531,531,531,531,531,531,531,531,531,531,531,531,531,531,531,531,531,531,531,531,524,507,483,468,442,432,419,401,380,365,349,346,327,309,264,242,224,209,194,178,151,137,129,124,118,112,107,104,102,100,99],"timestamp_mouse":[14,29,49,68,88,109,128,148,169,189,209,228,248,268,290,310,330,349,370,390,408,429,449,469,488,509,529,548,568,588,610,629,648,669,690,709,728,750,769,789,811,829,849,868,888,908,928,949,969,988,1008,1028,1049,1070,1090,1109,1129],"xSR":741.5,"ySR":469.95,"xT1":424.9,"yT1":0,"xT2":1058.1,"yT2":0,"toosoon":0,"cond_shown":"equaldotanddens","ratio_trial":750,"smaller_num":"15","larger_num":"20","correct_side":2,"subjID":"AlejandroFajardo32","gender":"0","age":"9","school":"4"},{"start_time":1552309589024,"click_time":1552309590351,"finger_time":1552309589830,"fix_duration":250,"trial":49,"RT":806,"MT":521,"sideResp":1,"stimulus":"img/900/randomdotsizeEA/R/5_Ratio_900_L_9_R_10.png","xmouse":[802,802,802,802,802,802,802,802,802,802,802,802,802,802,802,802,802,802,802,802,802,802,802,802,802,802,802,802,805,807,807,807,808,808,809,809,811,812,813,813,813,805,798,791,780,769,744,726,719,710,706,701,701,697,693,687,668,660,653,645,632,613,606,602,595,576,516],"ymouse":[517,517,517,517,517,517,517,517,517,517,517,517,517,517,517,517,517,517,517,517,517,517,517,517,517,517,517,518,518,518,518,518,517,517,515,514,509,500,488,476,461,434,420,403,383,362,315,283,265,245,231,201,186,172,159,146,116,106,97,90,82,66,60,56,53,44,26],"timestamp_mouse":[9,26,51,68,86,106,128,148,167,187,207,226,247,268,288,308,327,347,368,387,407,428,446,466,487,508,527,546,566,587,607,626,646,667,686,707,727,747,766,786,806,827,846,867,887,907,927,947,967,987,1008,1027,1046,1066,1087,1106,1127,1148,1167,1187,1208,1227,1247,1266,1286,1306,1327],"xSR":741.5,"ySR":469.95,"xT1":424.9,"yT1":0,"xT2":1058.1,"yT2":0,"toosoon":0,"cond_shown":"randomdotsizeEA","ratio_trial":900,"smaller_num":"9","larger_num":"10","correct_side":2,"subjID":"AlejandroFajardo32","gender":"0","age":"9","school":"4"},{"start_time":1552309592339,"click_time":1552309593471,"finger_time":1552309592891,"fix_duration":986.0095503103349,"trial":50,"RT":552,"MT":580,"sideResp":2,"stimulus":"img/500/randomdotsizeEA/R/12_Ratio_500_L_1_R_2.png","xmouse":[780,780,780,780,780,780,780,780,780,780,780,780,780,780,780,780,780,780,780,780,780,780,780,780,782,804,826,848,871,904,925,969,989,1009,1025,1036,1058,1071,1088,1108,1152,1183,1187,1188,1188,1188,1188,1188,1187,1183,1179,1178,1178,1177,1174,1163,1153],"ymouse":[512,512,512,512,512,512,512,512,512,512,512,512,512,512,512,512,512,512,512,512,512,512,512,512,512,509,506,503,499,495,492,482,473,462,452,443,425,416,404,388,352,315,306,299,295,286,279,270,259,240,213,195,173,148,126,80,58],"timestamp_mouse":[12,42,51,73,92,112,132,151,171,193,211,232,251,272,292,312,332,353,373,391,412,432,452,473,493,512,531,552,573,592,612,632,652,672,691,711,731,752,772,793,812,832,852,873,893,912,931,951,971,992,1013,1033,1053,1073,1092,1113,1132],"xSR":741.5,"ySR":469.95,"xT1":424.9,"yT1":0,"xT2":1058.1,"yT2":0,"toosoon":0,"cond_shown":"randomdotsizeEA","ratio_trial":500,"smaller_num":"1","larger_num":"2","correct_side":2,"subjID":"AlejandroFajardo32","gender":"0","age":"9","school":"4"},{"start_time":1552309595366,"click_time":1552309596831,"finger_time":1552309596211,"fix_duration":673.476368159052,"trial":51,"RT":845,"MT":620,"sideResp":1,"stimulus":"img/900/randomdotsizeEA/L/10_Ratio_900_L_20_R_18.png","xmouse":[796,796,796,796,796,796,796,796,796,796,796,796,796,796,796,796,796,796,796,796,796,796,796,796,796,796,796,796,796,796,796,796,796,796,796,795,793,791,788,784,774,770,767,764,760,756,754,754,751,748,734,724,711,698,673,656,646,646,646,646,646,646,646,645,638,584,565,556,555,555,551,543,528,506],"ymouse":[536,536,536,536,536,536,536,536,536,536,536,536,536,536,536,536,536,536,536,536,536,536,536,536,536,536,536,536,536,536,536,536,535,533,532,526,521,515,510,503,484,470,456,442,426,406,396,388,373,355,316,297,274,252,220,206,195,194,194,194,194,194,194,193,187,138,121,110,104,101,94,88,83,80],"timestamp_mouse":[9,38,45,65,84,106,124,144,164,186,205,224,245,265,285,304,325,345,365,386,404,425,444,466,485,505,526,546,565,585,606,625,645,664,684,705,726,744,765,784,804,824,845,864,885,904,924,944,965,984,1004,1026,1044,1066,1087,1104,1124,1144,1166,1186,1205,1224,1245,1264,1286,1304,1325,1346,1365,1386,1406,1426,1444,1465],"xSR":741.5,"ySR":469.95,"xT1":424.9,"yT1":0,"xT2":1058.1,"yT2":0,"toosoon":0,"cond_shown":"randomdotsizeEA","ratio_trial":900,"smaller_num":"18","larger_num":"20","correct_side":1,"subjID":"AlejandroFajardo32","gender":"0","age":"9","school":"4"},{"start_time":1552309599257,"click_time":1552309600491,"finger_time":1552309600150,"fix_duration":1284.497023717948,"trial":52,"RT":893,"MT":341,"sideResp":1,"stimulus":"img/750/randomdotsizeEA/R/11_Ratio_750_L_12_R_16.png","xmouse":[784,784,784,784,784,784,784,784,784,784,784,784,784,784,784,784,784,784,784,784,784,784,784,784,784,784,784,784,784,784,784,784,784,784,784,784,784,784,784,784,785,785,785,778,766,729,708,684,666,653,624,614,603,592,579,566,545,540,538,536,534,524],"ymouse":[547,547,547,547,547,547,547,547,547,547,547,547,547,547,547,547,547,547,547,547,547,547,547,547,547,547,547,547,547,547,547,547,547,547,547,547,547,547,547,547,546,527,503,480,450,375,338,305,279,262,224,210,196,182,166,150,119,108,101,91,87,67],"timestamp_mouse":[13,43,53,74,95,115,135,154,174,195,213,234,255,274,294,314,334,354,375,394,415,433,454,474,494,515,535,555,574,594,614,634,655,674,694,714,734,755,773,793,813,834,855,873,893,914,933,953,974,994,1014,1033,1054,1075,1095,1114,1133,1154,1173,1193,1213,1234],"xSR":741.5,"ySR":469.95,"xT1":424.9,"yT1":0,"xT2":1058.1,"yT2":0,"toosoon":0,"cond_shown":"randomdotsizeEA","ratio_trial":750,"smaller_num":"12","larger_num":"16","correct_side":2,"subjID":"AlejandroFajardo32","gender":"0","age":"9","school":"4"},{"start_time":1552309602922,"click_time":1552309604173,"finger_time":1552309603612,"fix_duration":1469.2830427344372,"trial":53,"RT":690,"MT":561,"sideResp":2,"stimulus":"img/750/equaldotanddens/R/2_Ratio_750_L_6_R_8.png","xmouse":[762,762,762,762,762,762,762,762,762,762,762,762,762,762,762,762,762,762,762,762,763,765,768,772,773,774,774,774,774,777,784,794,807,837,854,866,878,888,908,918,926,935,945,963,971,983,991,1005,1014,1022,1027,1030,1031,1032,1032,1032,1032,1033,1040,1044,1047,1051,1061],"ymouse":[517,517,517,517,517,517,517,517,517,517,517,517,517,517,517,517,517,517,517,517,517,519,523,531,533,533,533,533,533,533,533,533,532,525,511,499,484,469,441,424,406,385,362,310,287,257,240,205,183,163,145,133,123,122,122,122,122,119,111,107,104,101,94],"timestamp_mouse":[10,29,49,68,90,109,128,148,170,190,209,228,250,270,288,308,328,349,369,390,409,430,449,468,490,510,528,549,569,589,610,628,648,669,690,709,728,748,768,788,808,829,850,868,888,908,929,950,968,990,1010,1030,1050,1068,1088,1109,1128,1149,1168,1190,1208,1230,1250],"xSR":741.5,"ySR":469.95,"xT1":424.9,"yT1":0,"xT2":1058.1,"yT2":0,"toosoon":0,"cond_shown":"equaldotanddens","ratio_trial":750,"smaller_num":"6","larger_num":"8","correct_side":2,"subjID":"AlejandroFajardo32","gender":"0","age":"9","school":"4"},{"start_time":1552309605945,"click_time":1552309607051,"finger_time":1552309606691,"fix_duration":292.1372764760717,"trial":54,"RT":746,"MT":360,"sideResp":1,"stimulus":"img/250/randomdotsizeEA/L/1_Ratio_250_L_8_R_2.png","xmouse":[799,799,799,799,799,799,799,799,799,799,799,799,799,799,799,799,799,799,799,798,798,798,797,797,797,797,797,797,797,797,797,797,797,797,795,791,786,772,766,757,746,735,707,674,652,620,597,581,579,576,572,566,549,539,531,524],"ymouse":[513,513,513,513,513,513,513,513,513,513,513,513,513,513,513,513,513,513,513,514,514,514,514,514,514,514,514,514,514,514,514,514,514,514,507,495,481,454,444,432,415,395,345,285,240,187,145,99,84,66,53,45,39,37,36,34],"timestamp_mouse":[11,26,46,66,86,105,126,147,167,187,206,226,245,266,287,305,325,345,367,386,407,427,445,466,485,507,525,546,565,587,607,626,647,666,687,705,725,745,767,786,807,825,845,866,887,907,926,946,967,987,1006,1025,1046,1067,1086,1106],"xSR":741.5,"ySR":469.95,"xT1":424.9,"yT1":0,"xT2":1058.1,"yT2":0,"toosoon":0,"cond_shown":"randomdotsizeEA","ratio_trial":250,"smaller_num":"2","larger_num":"8","correct_side":1,"subjID":"AlejandroFajardo32","gender":"0","age":"9","school":"4"},{"start_time":1552309609031,"click_time":1552309610212,"finger_time":1552309609711,"fix_duration":939.2739092065534,"trial":55,"RT":680,"MT":501,"sideResp":1,"stimulus":"img/500/equaldotanddens/L/5_Ratio_500_L_4_R_2.png","xmouse":[782,782,782,782,782,782,782,782,782,782,782,782,782,782,782,782,782,782,782,782,782,782,782,782,782,782,782,782,782,782,782,782,782,782,761,670,579,482,387,267,246,238,234,233,231,231,231,232,266,292,314,330,337,343,343,346,350,360,383,428],"ymouse":[483,483,483,483,483,483,483,483,483,483,483,483,483,483,483,483,483,483,483,483,483,483,483,483,483,483,483,483,483,483,483,483,483,483,457,354,285,218,156,85,69,60,53,47,37,35,32,29,19,15,15,15,15,17,18,20,23,30,48,73],"timestamp_mouse":[6,26,47,60,80,100,120,140,160,179,199,220,240,260,279,301,321,340,359,381,400,420,440,460,480,499,520,539,560,580,600,621,641,660,680,700,721,740,760,779,800,820,840,859,879,899,919,940,960,980,1000,1020,1041,1061,1080,1100,1119,1139,1161,1181],"xSR":741.5,"ySR":469.95,"xT1":424.9,"yT1":0,"xT2":1058.1,"yT2":0,"toosoon":0,"cond_shown":"equaldotanddens","ratio_trial":500,"smaller_num":"2","larger_num":"4","correct_side":1,"subjID":"AlejandroFajardo32","gender":"0","age":"9","school":"4"},{"start_time":1552309612389,"click_time":1552309613350,"finger_time":1552309613212,"fix_duration":1336.0502349019998,"trial":56,"RT":823,"MT":138,"sideResp":1,"stimulus":"img/900/randomdotsizeEA/L/10_Ratio_900_L_20_R_18.png","xmouse":[795,795,795,795,795,795,795,795,795,795,795,795,795,795,795,795,795,795,795,795,795,795,795,795,795,795,795,795,795,796,797,797,798,800,801,801,801,801,797,792,784,745,708,659,610,565,489,453,437],"ymouse":[550,550,550,550,550,550,550,550,550,550,550,550,550,550,550,550,550,550,550,550,550,550,550,550,550,550,550,550,550,551,551,551,550,547,538,529,515,509,501,494,486,458,428,384,335,281,186,122,85],"timestamp_mouse":[12,34,42,61,81,101,123,143,162,182,201,222,241,262,283,301,321,342,362,382,401,422,441,462,482,502,523,541,562,583,603,622,641,662,682,702,722,742,761,783,801,823,841,862,881,903,921,942,961],"xSR":741.5,"ySR":469.95,"xT1":424.9,"yT1":0,"xT2":1058.1,"yT2":0,"toosoon":0,"cond_shown":"randomdotsizeEA","ratio_trial":900,"smaller_num":"18","larger_num":"20","correct_side":1,"subjID":"AlejandroFajardo32","gender":"0","age":"9","school":"4"},{"start_time":1552309614982,"click_time":1552309616192,"finger_time":1552309615891,"fix_duration":250,"trial":57,"RT":909,"MT":301,"sideResp":1,"stimulus":"img/500/randomdotsizeEA/L/7_Ratio_500_L_10_R_5.png","xmouse":[758,758,758,758,758,758,758,758,758,758,758,758,758,758,758,758,758,758,758,758,758,758,758,758,758,758,758,758,758,758,758,758,758,758,758,758,758,758,758,758,758,758,758,752,742,711,626,578,567,565,565,565,563,561,557,554,539,534,528,519,510],"ymouse":[522,522,522,522,522,522,522,522,522,522,522,522,522,522,522,522,522,522,522,522,522,522,522,522,522,522,522,522,522,522,522,522,522,522,522,522,522,522,522,522,522,522,522,499,479,418,305,252,240,234,233,233,224,213,200,188,159,147,132,115,96],"timestamp_mouse":[9,28,48,68,89,109,130,149,168,189,208,230,249,268,290,310,329,349,368,390,410,428,449,470,489,508,528,549,569,588,609,628,649,670,690,710,728,749,769,788,809,828,849,870,890,909,929,949,969,989,1008,1028,1048,1070,1090,1109,1128,1148,1169,1190,1210],"xSR":741.5,"ySR":469.95,"xT1":424.9,"yT1":0,"xT2":1058.1,"yT2":0,"toosoon":0,"cond_shown":"randomdotsizeEA","ratio_trial":500,"smaller_num":"5","larger_num":"10","correct_side":1,"subjID":"AlejandroFajardo32","gender":"0","age":"9","school":"4"},{"start_time":1552309618573,"click_time":1552309619612,"finger_time":1552309619511,"fix_duration":1200.6066666621643,"trial":58,"RT":938,"MT":101,"sideResp":1,"stimulus":"img/900/equaldotanddens/L/8_Ratio_900_L_20_R_18.png","xmouse":[769,769,769,769,769,769,769,769,769,769,769,769,769,769,769,769,769,769,769,769,769,769,769,769,769,