[{"start_time":1552308651786,"click_time":1552308655772,"finger_time":1552308651792,"fix_duration":250,"trial":0,"RT":6,"MT":3980,"sideResp":2,"stimulus":[],"xmouse":[820,819,819,819,819,819,819,818,818,818,818,818,818,818,818,818,818,818,818,818,818,817,816,816,814,812,810,809,808,808,808,808,808,808,808,808,808,808,808,808,808,808,806,804,800,797,796,795,794,793,792,792,792,792,792,792,792,792,792,792,792,792,792,792,792,792,792,792,792,792,792,792,792,792,792,792,792,792,792,792,792,792,792,792,792,792,792,792,792,792,792,792,792,792,792,792,792,792,792,792,792,792,792,792,792,792,792,792,792,792,792,792,792,792,792,792,792,792,792,792,792,792,792,792,792,792,792,792,792,792,792,792,792,792,792,792,792,792,792,792,792,792,792,792,792,794,797,798,799,799,799,799,799,800,800,800,800,800,800,800,801,812,819,828,836,845,869,886,905,925,954,1030,1078,1156,1207,1244,1282,1282,1309,1315,1315,1313,1311,1306,1304,1304,1296,1277,1249,1220,1199,1181,1178,1174,1171,1168,1160,1159,1159,1157],"ymouse":[544,544,544,544,544,544,544,544,544,544,544,544,544,544,544,544,544,544,544,544,544,544,544,544,545,546,551,556,559,560,560,560,560,560,560,560,560,560,560,560,560,560,564,572,582,593,596,598,601,606,613,614,614,614,614,614,614,614,614,614,614,614,614,614,615,617,622,623,624,625,626,626,626,626,626,626,626,626,626,626,626,626,626,626,626,626,626,626,626,626,626,626,626,626,626,626,626,626,626,626,626,626,626,626,626,626,626,626,626,626,626,626,626,626,626,626,626,626,626,626,626,626,626,626,626,626,626,626,626,626,626,626,626,626,626,626,626,626,626,626,626,626,626,626,626,626,624,623,622,622,622,622,622,622,622,622,622,622,622,622,620,618,616,613,610,606,592,580,564,547,518,441,384,283,204,130,26,26,0,0,0,0,0,0,0,0,0,7,20,33,41,51,54,57,59,61,65,65,65,66],"timestamp_mouse":[6,25,45,66,86,106,124,144,165,185,206,225,245,264,285,305,325,345,365,384,406,426,445,465,484,505,524,546,566,586,605,626,644,665,684,706,725,745,764,784,805,824,845,865,885,905,926,945,965,985,1006,1026,1045,1066,1085,1106,1126,1146,1164,1186,1205,1224,1245,1265,1286,1305,1326,1346,1366,1385,1405,1426,1445,1464,1486,1505,1525,1545,1565,1586,1606,1626,1644,1665,1686,1704,1724,1745,1764,1785,1805,1825,1845,1864,1886,1905,1924,1946,1966,1986,2005,2026,2045,2065,2085,2105,2125,2146,2164,2185,2206,2224,2246,2264,2284,2306,2326,2345,2366,2385,2404,2425,2444,2466,2486,2506,2524,2546,2565,2585,2604,2625,2646,2665,2686,2705,2724,2745,2766,2786,2806,2825,2846,2866,2886,2906,2925,2946,2964,2985,3005,3025,3046,3065,3086,3106,3125,3146,3164,3185,3205,3225,3246,3266,3285,3306,3325,3345,3365,3385,3406,3425,3444,3464,3485,3506,3526,3545,3565,3585,3605,3626,3644,3665,3685,3705,3725,3746,3765,3784,3804,3825,3845,3864,3884,3905,3924,3945,3965,3985],"xSR":741.5,"ySR":501.8,"xT1":424.9,"yT1":0,"xT2":1058.1,"yT2":0,"toosoon":0,"cond_shown":"Congruent","ratio_trial":200,"L_num":6,"L_den":20,"R_num":11,"R_den":22,"correct_side":2,"subjID":"AlejandroFajardo32","gender":"0","age":"9","school":"4","test":{"fix_dur":[250,1500],"timestim":1000,"targets_dim":[100,100],"targets_relative_coord":[0.3,0.7],"size_stim":[880,420],"start_dim":[100,100],"size_start":[300,300],"size_fix":60,"samplingrate":20,"img_types":["Congruent","Incongruent"],"ratios":[100,200,300],"rep_conds":19,"nTrials":120,"trials_to_rest":500,"Trials_order":[74,101,61,105,26,108,5,39,24,34,45,30,86,66,32,10,1,55,15,70,14,114,91,40,69,23,80,62,65,36,104,63,72,100,57,93,103,48,73,33,81,112,99,107,71,49,106,17,64,25,116,85,98,90,42,83,37,89,102,31,119,8,3,60,87,28,19,79,29,84,94,110,7,78,111,77,117,18,75,68,58,43,115,46,59,113,35,12,53,13,44,20,96,51,9,118,21,95,2,109,27,22,76,41,67,47,16,38,82,88,11,4,52,0,97,92,56,50,6,54],"cond_shown":["Congruent","Incongruent","Incongruent","Incongruent","Congruent","Congruent","Incongruent","Incongruent","Congruent","Congruent","Incongruent","Congruent","Congruent","Congruent","Congruent","Congruent","Incongruent","Incongruent","Incongruent","Congruent","Congruent","Congruent","Incongruent","Congruent","Incongruent","Incongruent","Congruent","Congruent","Incongruent","Congruent","Congruent","Incongruent","Congruent","Congruent","Incongruent","Incongruent","Incongruent","Congruent","Incongruent","Incongruent","Incongruent","Congruent","Incongruent","Incongruent","Incongruent","Incongruent","Congruent","Incongruent","Congruent","Incongruent","Congruent","Incongruent","Congruent","Congruent","Congruent","Incongruent","Incongruent","Incongruent","Congruent","Incongruent","Incongruent","Congruent","Incongruent","Congruent","Incongruent","Congruent","Incongruent","Incongruent","Incongruent","Congruent","Congruent","Congruent","Incongruent","Congruent","Incongruent","Incongruent","Incongruent","Congruent","Incongruent","Congruent","Congruent","Incongruent","Incongruent","Congruent","Incongruent","Incongruent","Incongruent","Congruent","Incongruent","Incongruent","Congruent","Congruent","Congruent","Incongruent","Incongruent","Congruent","Incongruent","Incongruent","Congruent","Incongruent","Incongruent","Congruent","Congruent","Incongruent","Incongruent","Incongruent","Congruent","Congruent","Congruent","Congruent","Incongruent","Congruent","Congruent","Congruent","Incongruent","Congruent","Congruent","Congruent","Congruent","Congruent"],"ratio_trial":[200,300,100,200,200,100,300,200,100,300,200,100,200,100,200,300,100,100,200,300,200,100,100,300,200,300,200,200,300,100,200,200,100,300,200,200,100,100,100,200,200,300,200,300,300,100,300,300,300,100,200,100,200,100,100,300,100,300,100,100,300,200,200,100,200,300,100,100,300,100,300,200,100,100,200,300,200,100,200,200,300,100,100,300,300,300,300,100,300,100,200,200,100,200,200,300,200,300,200,100,200,300,300,300,100,300,300,200,300,300,300,300,300,100,100,200,200,200,100,100],"left_num":[6,13,1,7,15,1,1,7,1,1,3,3,12,9,6,11,10,10,9,1,8,6,13,20,4,1,16,16,1,11,6,1,10,11,3,4,11,3,10,1,7,12,7,8,8,3,20,4,4,10,3,12,15,11,9,4,9,13,11,6,1,3,7,4,4,2,9,17,4,6,8,9,9,6,4,4,6,3,4,3,1,12,11,24,4,4,4,12,4,11,8,7,12,9,9,9,6,13,5,6,9,11,1,3,9,1,3,12,3,24,4,8,4,4,13,16,6,8,11,3],"right_num":[11,12,8,14,4,18,3,14,3,3,11,4,6,8,7,4,8,8,8,7,7,5,12,13,1,3,12,12,3,6,11,2,3,2,1,14,9,4,8,3,6,2,6,14,9,4,9,2,1,8,11,9,4,4,8,2,14,12,4,13,3,11,12,6,1,12,14,10,2,5,1,4,6,5,14,2,3,2,1,14,19,2,9,2,2,2,2,13,2,9,3,18,13,8,8,3,3,12,14,7,8,2,11,4,20,2,2,6,2,8,2,1,2,15,12,9,7,2,4,2],"left_den":[20,26,2,10,25,2,2,10,2,5,4,20,20,15,12,22,25,25,15,20,15,20,26,25,30,2,20,20,2,22,20,3,25,22,10,6,22,20,25,2,15,24,15,10,10,6,25,20,10,25,10,24,25,22,15,20,15,26,22,10,2,10,10,8,30,10,15,30,20,20,16,20,18,20,6,20,20,6,30,10,3,30,22,30,20,20,20,30,20,22,15,15,30,15,15,10,20,26,10,10,15,22,5,6,10,2,6,20,6,30,20,16,5,10,26,30,12,15,22,6],"right_den":[22,15,20,28,10,30,15,28,5,6,20,16,15,16,10,20,16,16,10,20,21,25,20,26,3,15,20,20,15,15,22,15,10,10,2,30,15,16,16,10,9,10,9,28,18,10,18,4,10,16,22,15,10,10,16,4,28,15,10,26,15,22,24,10,3,24,28,15,4,25,5,16,10,25,30,4,6,5,3,28,30,4,15,4,4,4,4,26,4,15,9,27,26,10,10,5,6,15,20,14,10,10,22,20,25,10,10,15,10,16,4,5,4,30,20,27,10,6,10,5],"correct_side":[2,2,1,1,1,2,1,1,2,2,1,2,1,1,2,1,2,2,2,2,1,1,2,1,2,1,1,1,1,1,2,1,1,1,2,1,2,2,2,1,2,1,2,1,1,1,1,2,1,2,2,2,1,1,1,2,1,2,1,1,1,2,1,2,2,2,1,2,2,1,1,1,2,1,1,2,2,1,2,2,2,2,2,1,2,2,2,2,2,2,1,2,2,2,2,1,2,2,2,1,2,1,2,1,1,1,1,1,1,1,2,1,1,2,2,1,2,1,1,1],"img_shown":["img2/200/Congruent/R/C_Dist_200_LN_6_LD_20_RN_11_RD_22_1.png","img2/300/Incongruent/R/I_Dist_300_LN_13_LD_26_RN_12_RD_15_1.png","img2/100/Incongruent/L/I_Dist_100_LN_1_LD_2_RN_8_RD_20_0.png","img2/200/Incongruent/L/I_Dist_200_LN_7_LD_10_RN_14_RD_28_0.png","img2/200/Congruent/L/C_Dist_200_LN_15_LD_25_RN_4_RD_10_0.png","img2/100/Congruent/R/C_Dist_100_LN_1_LD_2_RN_18_RD_30_1.png","img2/300/Incongruent/L/I_Dist_300_LN_1_LD_2_RN_3_RD_15_0.png","img2/200/Incongruent/L/I_Dist_200_LN_7_LD_10_RN_14_RD_28_0.png","img2/100/Congruent/R/C_Dist_100_LN_1_LD_2_RN_3_RD_5_1.png","img2/300/Congruent/R/C_Dist_300_LN_1_LD_5_RN_3_RD_6_1.png","img2/200/Incongruent/L/I_Dist_200_LN_3_LD_4_RN_11_RD_20_0.png","img2/100/Congruent/R/C_Dist_100_LN_3_LD_20_RN_4_RD_16_1.png","img2/200/Congruent/L/C_Dist_200_LN_12_LD_20_RN_6_RD_15_0.png","img2/100/Congruent/L/C_Dist_100_LN_9_LD_15_RN_8_RD_16_0.png","img2/200/Congruent/R/C_Dist_200_LN_6_LD_12_RN_7_RD_10_1.png","img2/300/Congruent/L/C_Dist_300_LN_11_LD_22_RN_4_RD_20_0.png","img2/100/Incongruent/R/I_Dist_100_LN_10_LD_25_RN_8_RD_16_1.png","img2/100/Incongruent/R/I_Dist_100_LN_10_LD_25_RN_8_RD_16_1.png","img2/200/Incongruent/R/I_Dist_200_LN_9_LD_15_RN_8_RD_10_1.png","img2/300/Congruent/R/C_Dist_300_LN_1_LD_20_RN_7_RD_20_1.png","img2/200/Congruent/L/C_Dist_200_LN_8_LD_15_RN_7_RD_21_0.png","img2/100/Congruent/L/C_Dist_100_LN_6_LD_20_RN_5_RD_25_0.png","img2/100/Incongruent/R/I_Dist_100_LN_13_LD_26_RN_12_RD_20_1.png","img2/300/Congruent/L/C_Dist_300_LN_20_LD_25_RN_13_RD_26_0.png","img2/200/Incongruent/R/I_Dist_200_LN_4_LD_30_RN_1_RD_3_1.png","img2/300/Incongruent/L/I_Dist_300_LN_1_LD_2_RN_3_RD_15_0.png","img2/200/Congruent/L/C_Dist_200_LN_16_LD_20_RN_12_RD_20_0.png","img2/200/Congruent/L/C_Dist_200_LN_16_LD_20_RN_12_RD_20_0.png","img2/300/Incongruent/L/I_Dist_300_LN_1_LD_2_RN_3_RD_15_0.png","img2/100/Congruent/L/C_Dist_100_LN_11_LD_22_RN_6_RD_15_0.png","img2/200/Congruent/R/C_Dist_200_LN_6_LD_20_RN_11_RD_22_1.png","img2/200/Incongruent/L/I_Dist_200_LN_1_LD_3_RN_2_RD_15_0.png","img2/100/Congruent/L/C_Dist_100_LN_10_LD_25_RN_3_RD_10_0.png","img2/300/Congruent/L/C_Dist_300_LN_11_LD_22_RN_2_RD_10_0.png","img2/200/Incongruent/R/I_Dist_200_LN_3_LD_10_RN_1_RD_2_1.png","img2/200/Incongruent/L/I_Dist_200_LN_4_LD_6_RN_14_RD_30_0.png","img2/100/Incongruent/R/I_Dist_100_LN_11_LD_22_RN_9_RD_15_1.png","img2/100/Congruent/R/C_Dist_100_LN_3_LD_20_RN_4_RD_16_1.png","img2/100/Incongruent/R/I_Dist_100_LN_10_LD_25_RN_8_RD_16_1.png","img2/200/Incongruent/L/I_Dist_200_LN_1_LD_2_RN_3_RD_10_0.png","img2/200/Incongruent/R/I_Dist_200_LN_7_LD_15_RN_6_RD_9_1.png","img2/300/Congruent/L/C_Dist_300_LN_12_LD_24_RN_2_RD_10_0.png","img2/200/Incongruent/R/I_Dist_200_LN_7_LD_15_RN_6_RD_9_1.png","img2/300/Incongruent/L/I_Dist_300_LN_8_LD_10_RN_14_RD_28_0.png","img2/300/Incongruent/L/I_Dist_300_LN_8_LD_10_RN_9_RD_18_0.png","img2/100/Incongruent/L/I_Dist_100_LN_3_LD_6_RN_4_RD_10_0.png","img2/300/Congruent/L/C_Dist_300_LN_20_LD_25_RN_9_RD_18_0.png","img2/300/Incongruent/R/I_Dist_300_LN_4_LD_20_RN_2_RD_4_1.png","img2/300/Congruent/L/C_Dist_300_LN_4_LD_10_RN_1_RD_10_0.png","img2/100/Incongruent/R/I_Dist_100_LN_10_LD_25_RN_8_RD_16_1.png","img2/200/Congruent/R/C_Dist_200_LN_3_LD_10_RN_11_RD_22_1.png","img2/100/Incongruent/R/I_Dist_100_LN_12_LD_24_RN_9_RD_15_1.png","img2/200/Congruent/L/C_Dist_200_LN_15_LD_25_RN_4_RD_10_0.png","img2/100/Congruent/L/C_Dist_100_LN_11_LD_22_RN_4_RD_10_0.png","img2/100/Congruent/L/C_Dist_100_LN_9_LD_15_RN_8_RD_16_0.png","img2/300/Incongruent/R/I_Dist_300_LN_4_LD_20_RN_2_RD_4_1.png","img2/100/Incongruent/L/I_Dist_100_LN_9_LD_15_RN_14_RD_28_0.png","img2/300/Incongruent/R/I_Dist_300_LN_13_LD_26_RN_12_RD_15_1.png","img2/100/Congruent/L/C_Dist_100_LN_11_LD_22_RN_4_RD_10_0.png","img2/100/Incongruent/L/I_Dist_100_LN_6_LD_10_RN_13_RD_26_0.png","img2/300/Incongruent/L/I_Dist_300_LN_1_LD_2_RN_3_RD_15_0.png","img2/200/Congruent/R/C_Dist_200_LN_3_LD_10_RN_11_RD_22_1.png","img2/200/Incongruent/L/I_Dist_200_LN_7_LD_10_RN_12_RD_24_0.png","img2/100/Congruent/R/C_Dist_100_LN_4_LD_8_RN_6_RD_10_1.png","img2/200/Incongruent/R/I_Dist_200_LN_4_LD_30_RN_1_RD_3_1.png","img2/300/Congruent/R/C_Dist_300_LN_2_LD_10_RN_12_RD_24_1.png","img2/100/Incongruent/L/I_Dist_100_LN_9_LD_15_RN_14_RD_28_0.png","img2/100/Incongruent/R/I_Dist_100_LN_17_LD_30_RN_10_RD_15_1.png","img2/300/Incongruent/R/I_Dist_300_LN_4_LD_20_RN_2_RD_4_1.png","img2/100/Congruent/L/C_Dist_100_LN_6_LD_20_RN_5_RD_25_0.png","img2/300/Congruent/L/C_Dist_300_LN_8_LD_16_RN_1_RD_5_0.png","img2/200/Congruent/L/C_Dist_200_LN_9_LD_20_RN_4_RD_16_0.png","img2/100/Incongruent/R/I_Dist_100_LN_9_LD_18_RN_6_RD_10_1.png","img2/100/Congruent/L/C_Dist_100_LN_6_LD_20_RN_5_RD_25_0.png","img2/200/Incongruent/L/I_Dist_200_LN_4_LD_6_RN_14_RD_30_0.png","img2/300/Incongruent/R/I_Dist_300_LN_4_LD_20_RN_2_RD_4_1.png","img2/200/Incongruent/R/I_Dist_200_LN_6_LD_20_RN_3_RD_6_1.png","img2/100/Congruent/L/C_Dist_100_LN_3_LD_6_RN_2_RD_5_0.png","img2/200/Incongruent/R/I_Dist_200_LN_4_LD_30_RN_1_RD_3_1.png","img2/200/Congruent/R/C_Dist_200_LN_3_LD_10_RN_14_RD_28_1.png","img2/300/Congruent/R/C_Dist_300_LN_1_LD_3_RN_19_RD_30_1.png","img2/100/Incongruent/R/I_Dist_100_LN_12_LD_30_RN_2_RD_4_1.png","img2/100/Incongruent/R/I_Dist_100_LN_11_LD_22_RN_9_RD_15_1.png","img2/300/Congruent/L/C_Dist_300_LN_24_LD_30_RN_2_RD_4_0.png","img2/300/Incongruent/R/I_Dist_300_LN_4_LD_20_RN_2_RD_4_1.png","img2/300/Incongruent/R/I_Dist_300_LN_4_LD_20_RN_2_RD_4_1.png","img2/300/Incongruent/R/I_Dist_300_LN_4_LD_20_RN_2_RD_4_1.png","img2/100/Congruent/R/C_Dist_100_LN_12_LD_30_RN_13_RD_26_1.png","img2/300/Incongruent/R/I_Dist_300_LN_4_LD_20_RN_2_RD_4_1.png","img2/100/Incongruent/R/I_Dist_100_LN_11_LD_22_RN_9_RD_15_1.png","img2/200/Congruent/L/C_Dist_200_LN_8_LD_15_RN_3_RD_9_0.png","img2/200/Congruent/R/C_Dist_200_LN_7_LD_15_RN_18_RD_27_1.png","img2/100/Congruent/R/C_Dist_100_LN_12_LD_30_RN_13_RD_26_1.png","img2/200/Incongruent/R/I_Dist_200_LN_9_LD_15_RN_8_RD_10_1.png","img2/200/Incongruent/R/I_Dist_200_LN_9_LD_15_RN_8_RD_10_1.png","img2/300/Congruent/L/C_Dist_300_LN_9_LD_10_RN_3_RD_5_0.png","img2/200/Incongruent/R/I_Dist_200_LN_6_LD_20_RN_3_RD_6_1.png","img2/300/Incongruent/R/I_Dist_300_LN_13_LD_26_RN_12_RD_15_1.png","img2/200/Congruent/R/C_Dist_200_LN_5_LD_10_RN_14_RD_20_1.png","img2/100/Incongruent/L/I_Dist_100_LN_6_LD_10_RN_7_RD_14_0.png","img2/200/Incongruent/R/I_Dist_200_LN_9_LD_15_RN_8_RD_10_1.png","img2/300/Congruent/L/C_Dist_300_LN_11_LD_22_RN_2_RD_10_0.png","img2/300/Congruent/R/C_Dist_300_LN_1_LD_5_RN_11_RD_22_1.png","img2/300/Incongruent/L/I_Dist_300_LN_3_LD_6_RN_4_RD_20_0.png","img2/100/Incongruent/L/I_Dist_100_LN_9_LD_10_RN_20_RD_25_0.png","img2/300/Incongruent/L/I_Dist_300_LN_1_LD_2_RN_2_RD_10_0.png","img2/300/Congruent/L/C_Dist_300_LN_3_LD_6_RN_2_RD_10_0.png","img2/200/Congruent/L/C_Dist_200_LN_12_LD_20_RN_6_RD_15_0.png","img2/300/Congruent/L/C_Dist_300_LN_3_LD_6_RN_2_RD_10_0.png","img2/300/Congruent/L/C_Dist_300_LN_24_LD_30_RN_8_RD_16_0.png","img2/300/Incongruent/R/I_Dist_300_LN_4_LD_20_RN_2_RD_4_1.png","img2/300/Congruent/L/C_Dist_300_LN_8_LD_16_RN_1_RD_5_0.png","img2/300/Congruent/L/C_Dist_300_LN_4_LD_5_RN_2_RD_4_0.png","img2/100/Congruent/R/C_Dist_100_LN_4_LD_10_RN_15_RD_30_1.png","img2/100/Incongruent/R/I_Dist_100_LN_13_LD_26_RN_12_RD_20_1.png","img2/200/Congruent/L/C_Dist_200_LN_16_LD_30_RN_9_RD_27_0.png","img2/200/Congruent/R/C_Dist_200_LN_6_LD_12_RN_7_RD_10_1.png","img2/200/Congruent/L/C_Dist_200_LN_8_LD_15_RN_2_RD_6_0.png","img2/100/Congruent/L/C_Dist_100_LN_11_LD_22_RN_4_RD_10_0.png","img2/100/Congruent/L/C_Dist_100_LN_3_LD_6_RN_2_RD_5_0.png"],"dist100_C":[["C_Dist_100_LN_10_LD_25_RN_3_RD_10_0.png","C_Dist_100_LN_11_LD_22_RN_4_RD_10_0.png","C_Dist_100_LN_11_LD_22_RN_6_RD_15_0.png","C_Dist_100_LN_15_LD_25_RN_13_RD_26_0.png","C_Dist_100_LN_3_LD_6_RN_2_RD_5_0.png","C_Dist_100_LN_6_LD_20_RN_5_RD_25_0.png","C_Dist_100_LN_8_LD_16_RN_2_RD_5_0.png","C_Dist_100_LN_9_LD_15_RN_8_RD_16_0.png"],["C_Dist_100_LN_1_LD_2_RN_18_RD_30_1.png","C_Dist_100_LN_1_LD_2_RN_3_RD_5_1.png","C_Dist_100_LN_12_LD_30_RN_13_RD_26_1.png","C_Dist_100_LN_2_LD_5_RN_11_RD_22_1.png","C_Dist_100_LN_2_LD_5_RN_6_RD_12_1.png","C_Dist_100_LN_3_LD_20_RN_4_RD_16_1.png","C_Dist_100_LN_4_LD_10_RN_15_RD_30_1.png","C_Dist_100_LN_4_LD_8_RN_6_RD_10_1.png","C_Dist_100_LN_6_LD_12_RN_15_RD_25_1.png","C_Dist_100_LN_7_LD_14_RN_15_RD_25_1.png","C_Dist_100_LN_7_LD_14_RN_9_RD_15_1.png"]],"dist100_I":[["I_Dist_100_LN_1_LD_2_RN_8_RD_20_0.png","I_Dist_100_LN_2_LD_4_RN_6_RD_15_0.png","I_Dist_100_LN_2_LD_4_RN_8_RD_20_0.png","I_Dist_100_LN_3_LD_5_RN_11_RD_22_0.png","I_Dist_100_LN_3_LD_5_RN_8_RD_16_0.png","I_Dist_100_LN_3_LD_6_RN_4_RD_10_0.png","I_Dist_100_LN_3_LD_9_RN_7_RD_30_0.png","I_Dist_100_LN_4_LD_8_RN_8_RD_20_0.png","I_Dist_100_LN_6_LD_10_RN_11_RD_22_0.png","I_Dist_100_LN_6_LD_10_RN_13_RD_26_0.png","I_Dist_100_LN_6_LD_10_RN_7_RD_14_0.png","I_Dist_100_LN_9_LD_10_RN_20_RD_25_0.png","I_Dist_100_LN_9_LD_15_RN_13_RD_26_0.png","I_Dist_100_LN_9_LD_15_RN_14_RD_28_0.png"],["I_Dist_100_LN_10_LD_25_RN_8_RD_16_1.png","I_Dist_100_LN_10_LD_25_RN_9_RD_18_1.png","I_Dist_100_LN_11_LD_22_RN_9_RD_15_1.png","I_Dist_100_LN_12_LD_24_RN_9_RD_15_1.png","I_Dist_100_LN_12_LD_30_RN_2_RD_4_1.png","I_Dist_100_LN_13_LD_26_RN_12_RD_20_1.png","I_Dist_100_LN_13_LD_26_RN_6_RD_10_1.png","I_Dist_100_LN_17_LD_30_RN_10_RD_15_1.png","I_Dist_100_LN_6_LD_12_RN_3_RD_5_1.png","I_Dist_100_LN_8_LD_16_RN_6_RD_10_1.png","I_Dist_100_LN_8_LD_20_RN_1_RD_2_1.png","I_Dist_100_LN_9_LD_18_RN_6_RD_10_1.png"]],"dist100_S":[["E_Dist_100_LN_2_LD_12_RN_2_RD_30_0.png","E_Dist_100_LN_6_LD_10_RN_6_RD_12_0.png"],["E_Dist_100_LN_6_LD_12_RN_6_RD_10_1.png"]],"dist200_C":[["C_Dist_200_LN_11_LD_22_RN_3_RD_10_0.png","C_Dist_200_LN_12_LD_15_RN_6_RD_10_0.png","C_Dist_200_LN_12_LD_20_RN_6_RD_15_0.png","C_Dist_200_LN_14_LD_28_RN_6_RD_20_0.png","C_Dist_200_LN_15_LD_25_RN_4_RD_10_0.png","C_Dist_200_LN_16_LD_20_RN_12_RD_20_0.png","C_Dist_200_LN_16_LD_30_RN_9_RD_27_0.png","C_Dist_200_LN_20_LD_25_RN_9_RD_15_0.png","C_Dist_200_LN_21_LD_30_RN_2_RD_4_0.png","C_Dist_200_LN_4_LD_10_RN_3_RD_15_0.png","C_Dist_200_LN_4_LD_8_RN_3_RD_10_0.png","C_Dist_200_LN_6_LD_15_RN_3_RD_15_0.png","C_Dist_200_LN_7_LD_21_RN_2_RD_15_0.png","C_Dist_200_LN_8_LD_15_RN_2_RD_6_0.png","C_Dist_200_LN_8_LD_15_RN_3_RD_9_0.png","C_Dist_200_LN_8_LD_15_RN_7_RD_21_0.png","C_Dist_200_LN_9_LD_20_RN_4_RD_16_0.png"],["C_Dist_200_LN_1_LD_2_RN_21_RD_30_1.png","C_Dist_200_LN_13_LD_26_RN_14_RD_20_1.png","C_Dist_200_LN_3_LD_10_RN_11_RD_22_1.png","C_Dist_200_LN_3_LD_10_RN_14_RD_28_1.png","C_Dist_200_LN_3_LD_10_RN_7_RD_14_1.png","C_Dist_200_LN_3_LD_12_RN_9_RD_20_1.png","C_Dist_200_LN_3_LD_6_RN_14_RD_20_1.png","C_Dist_200_LN_5_LD_10_RN_14_RD_20_1.png","C_Dist_200_LN_6_LD_12_RN_7_RD_10_1.png","C_Dist_200_LN_6_LD_20_RN_11_RD_22_1.png","C_Dist_200_LN_7_LD_15_RN_18_RD_27_1.png","C_Dist_200_LN_9_LD_30_RN_13_RD_26_1.png"]],"dist200_I":[["I_Dist_200_LN_1_LD_2_RN_3_RD_10_0.png","I_Dist_200_LN_1_LD_3_RN_2_RD_15_0.png","I_Dist_200_LN_3_LD_4_RN_11_RD_20_0.png","I_Dist_200_LN_4_LD_5_RN_6_RD_10_0.png","I_Dist_200_LN_4_LD_6_RN_14_RD_30_0.png","I_Dist_200_LN_7_LD_10_RN_12_RD_24_0.png","I_Dist_200_LN_7_LD_10_RN_14_RD_28_0.png","I_Dist_200_LN_7_LD_10_RN_8_RD_16_0.png"],["I_Dist_200_LN_11_LD_20_RN_3_RD_4_1.png","I_Dist_200_LN_14_LD_30_RN_12_RD_18_1.png","I_Dist_200_LN_14_LD_30_RN_6_RD_9_1.png","I_Dist_200_LN_3_LD_10_RN_1_RD_2_1.png","I_Dist_200_LN_4_LD_30_RN_1_RD_3_1.png","I_Dist_200_LN_6_LD_20_RN_3_RD_6_1.png","I_Dist_200_LN_7_LD_15_RN_4_RD_6_1.png","I_Dist_200_LN_7_LD_15_RN_6_RD_9_1.png","I_Dist_200_LN_9_LD_15_RN_8_RD_10_1.png"]],"dist200_S":[["E_Dist_200_LN_3_LD_6_RN_3_RD_10_0.png"],["E_Dist_200_LN_3_LD_10_RN_3_RD_6_1.png"]],"dist300_C":[["C_Dist_300_LN_11_LD_22_RN_1_RD_5_0.png","C_Dist_300_LN_11_LD_22_RN_2_RD_10_0.png","C_Dist_300_LN_11_LD_22_RN_4_RD_20_0.png","C_Dist_300_LN_12_LD_24_RN_2_RD_10_0.png","C_Dist_300_LN_18_LD_20_RN_9_RD_15_0.png","C_Dist_300_LN_20_LD_25_RN_13_RD_26_0.png","C_Dist_300_LN_20_LD_25_RN_14_RD_28_0.png","C_Dist_300_LN_20_LD_25_RN_5_RD_10_0.png","C_Dist_300_LN_20_LD_25_RN_8_RD_16_0.png","C_Dist_300_LN_20_LD_25_RN_9_RD_18_0.png","C_Dist_300_LN_24_LD_30_RN_2_RD_4_0.png","C_Dist_300_LN_24_LD_30_RN_8_RD_16_0.png","C_Dist_300_LN_3_LD_6_RN_2_RD_10_0.png","C_Dist_300_LN_4_LD_10_RN_1_RD_10_0.png","C_Dist_300_LN_4_LD_5_RN_2_RD_4_0.png","C_Dist_300_LN_8_LD_16_RN_1_RD_5_0.png","C_Dist_300_LN_9_LD_10_RN_3_RD_5_0.png"],["C_Dist_300_LN_1_LD_20_RN_7_RD_20_1.png","C_Dist_300_LN_1_LD_3_RN_19_RD_30_1.png","C_Dist_300_LN_1_LD_30_RN_8_RD_24_1.png","C_Dist_300_LN_1_LD_5_RN_11_RD_22_1.png","C_Dist_300_LN_1_LD_5_RN_3_RD_6_1.png","C_Dist_300_LN_1_LD_5_RN_6_RD_12_1.png","C_Dist_300_LN_2_LD_10_RN_12_RD_24_1.png","C_Dist_300_LN_2_LD_20_RN_10_RD_25_1.png","C_Dist_300_LN_3_LD_12_RN_11_RD_20_1.png","C_Dist_300_LN_3_LD_6_RN_4_RD_5_1.png","C_Dist_300_LN_4_LD_20_RN_13_RD_26_1.png","C_Dist_300_LN_5_LD_25_RN_6_RD_12_1.png","C_Dist_300_LN_5_LD_25_RN_7_RD_14_1.png","C_Dist_300_LN_7_LD_14_RN_20_RD_25_1.png","C_Dist_300_LN_8_LD_15_RN_10_RD_12_1.png"]],"dist300_I":[["I_Dist_300_LN_1_LD_2_RN_2_RD_10_0.png","I_Dist_300_LN_1_LD_2_RN_3_RD_15_0.png","I_Dist_300_LN_2_LD_4_RN_6_RD_30_0.png","I_Dist_300_LN_3_LD_6_RN_4_RD_20_0.png","I_Dist_300_LN_4_LD_5_RN_6_RD_12_0.png","I_Dist_300_LN_4_LD_5_RN_8_RD_16_0.png","I_Dist_300_LN_7_LD_10_RN_8_RD_20_0.png","I_Dist_300_LN_8_LD_10_RN_14_RD_28_0.png","I_Dist_300_LN_8_LD_10_RN_9_RD_18_0.png"],["I_Dist_300_LN_13_LD_26_RN_12_RD_15_1.png","I_Dist_300_LN_4_LD_20_RN_2_RD_4_1.png"]],"dist300_S":[["E_Dist_300_LN_9_LD_12_RN_9_RD_20_0.png"],["E_Dist_300_LN_18_LD_30_RN_18_RD_20_1.png","E_Dist_300_LN_3_LD_10_RN_3_RD_5_1.png","E_Dist_300_LN_9_LD_20_RN_9_RD_12_1.png"]],"dist500_C":[["C_Dist_500_LN_10_LD_13_RN_7_RD_26_0.png","C_Dist_500_LN_10_LD_15_RN_4_RD_24_0.png","C_Dist_500_LN_12_LD_16_RN_3_RD_12_0.png","C_Dist_500_LN_12_LD_18_RN_4_RD_24_0.png","C_Dist_500_LN_15_LD_18_RN_5_RD_15_0.png","C_Dist_500_LN_15_LD_20_RN_1_RD_4_0.png","C_Dist_500_LN_18_LD_27_RN_1_RD_6_0.png","C_Dist_500_LN_20_LD_24_RN_1_RD_3_0.png","C_Dist_500_LN_20_LD_24_RN_3_RD_9_0.png","C_Dist_500_LN_20_LD_24_RN_7_RD_21_0.png","C_Dist_500_LN_20_LD_28_RN_3_RD_14_0.png","C_Dist_500_LN_21_LD_28_RN_6_RD_24_0.png","C_Dist_500_LN_22_LD_28_RN_2_RD_7_0.png","C_Dist_500_LN_25_LD_30_RN_9_RD_27_0.png","C_Dist_500_LN_4_LD_6_RN_1_RD_6_0.png","C_Dist_500_LN_5_LD_6_RN_2_RD_6_0.png","C_Dist_500_LN_6_LD_9_RN_1_RD_6_0.png","C_Dist_500_LN_7_LD_10_RN_1_RD_5_0.png","C_Dist_500_LN_8_LD_12_RN_1_RD_6_0.png","C_Dist_500_LN_8_LD_12_RN_4_RD_24_0.png"],["C_Dist_500_LN_1_LD_4_RN_12_RD_16_1.png","C_Dist_500_LN_1_LD_4_RN_9_RD_12_1.png","C_Dist_500_LN_1_LD_9_RN_11_RD_18_1.png","C_Dist_500_LN_10_LD_24_RN_22_RD_24_1.png","C_Dist_500_LN_2_LD_12_RN_10_RD_15_1.png","C_Dist_500_LN_2_LD_12_RN_12_RD_18_1.png","C_Dist_500_LN_2_LD_12_RN_4_RD_6_1.png","C_Dist_500_LN_2_LD_24_RN_7_RD_12_1.png","C_Dist_500_LN_2_LD_5_RN_18_RD_20_1.png","C_Dist_500_LN_2_LD_5_RN_9_RD_10_1.png","C_Dist_500_LN_2_LD_8_RN_12_RD_16_1.png","C_Dist_500_LN_2_LD_8_RN_21_RD_28_1.png","C_Dist_500_LN_3_LD_10_RN_4_RD_5_1.png","C_Dist_500_LN_3_LD_12_RN_15_RD_20_1.png","C_Dist_500_LN_3_LD_30_RN_6_RD_10_1.png","C_Dist_500_LN_3_LD_8_RN_14_RD_16_1.png","C_Dist_500_LN_4_LD_16_RN_15_RD_20_1.png","C_Dist_500_LN_4_LD_24_RN_12_RD_18_1.png","C_Dist_500_LN_5_LD_14_RN_6_RD_7_1.png","C_Dist_500_LN_7_LD_21_RN_20_RD_24_1.png","C_Dist_500_LN_7_LD_28_RN_12_RD_16_1.png","C_Dist_500_LN_7_LD_28_RN_9_RD_12_1.png","C_Dist_500_LN_9_LD_27_RN_20_RD_24_1.png"]],"dist500_I":[["I_Dist_500_LN_2_LD_3_RN_4_RD_24_0.png","I_Dist_500_LN_5_LD_6_RN_6_RD_18_0.png","I_Dist_500_LN_7_LD_8_RN_9_RD_24_0.png"],["I_Dist_500_LN_7_LD_21_RN_5_RD_6_1.png"]],"dist500_S":[["E_Dist_500_LN_6_LD_8_RN_6_RD_24_0.png"],["E_Dist_500_LN_2_LD_12_RN_2_RD_3_1.png","E_Dist_500_LN_6_LD_24_RN_6_RD_8_1.png"]]}},{"start_time":1552308658727,"click_time":1552308661231,"finger_time":1552308661152,"fix_duration":1254.0628052740838,"trial":1,"RT":2425,"MT":79,"sideResp":1,"stimulus":[],"xmouse":[780,780,780,780,780,780,780,780,780,780,780,780,780,780,780,780,780,780,780,780,780,780,780,780,780,780,780,780,780,780,780,780,780,780,780,780,780,780,780,780,780,780,780,780,780,780,780,780,780,780,780,780,780,780,780,780,780,780,780,780,780,780,780,780,780,780,780,780,780,780,780,780,780,780,780,780,780,780,780,780,780,780,780,780,780,780,780,780,780,780,781,781,781,781,781,781,781,781,781,781,781,781,781,781,781,781,781,781,781,781,781,781,781,781,781,781,781,781,781,777,769,756,720,682,559,467],"ymouse":[643,643,643,643,643,643,643,643,643,643,643,643,643,643,643,643,643,643,643,643,643,643,643,643,643,643,643,643,643,643,643,643,643,643,643,643,643,643,643,643,643,643,643,643,643,643,643,643,643,643,643,643,643,643,643,643,643,643,643,643,643,643,643,643,643,643,643,643,643,643,643,643,643,643,643,643,643,643,643,643,643,643,643,643,643,643,643,643,643,643,642,642,642,642,642,642,642,642,642,642,642,642,642,642,642,642,642,642,642,642,642,642,642,642,642,642,642,642,640,617,594,555,463,379,165,53],"timestamp_mouse":[10,23,47,63,84,105,124,145,163,185,205,223,244,265,285,304,324,344,365,384,403,425,445,463,485,504,525,545,565,584,605,625,644,665,685,704,724,745,765,783,805,823,845,863,885,904,924,945,965,984,1004,1025,1043,1063,1084,1105,1123,1143,1164,1185,1204,1224,1243,1265,1284,1304,1324,1345,1365,1385,1404,1425,1444,1464,1484,1504,1525,1543,1565,1584,1605,1624,1644,1665,1685,1704,1725,1744,1764,1784,1804,1824,1844,1865,1883,1904,1923,1944,1965,1984,2004,2024,2043,2064,2085,2105,2124,2144,2165,2185,2203,2225,2244,2263,2284,2304,2325,2343,2365,2384,2403,2425,2444,2464,2484,2503],"xSR":741.5,"ySR":573.95,"xT1":424.9,"yT1":0,"xT2":1058.1,"yT2":0,"toosoon":0,"cond_shown":"Incongruent","ratio_trial":300,"L_num":13,"L_den":26,"R_num":12,"R_den":15,"correct_side":2,"subjID":"AlejandroFajardo32","gender":"0","school":"4","age":"9"},{"start_time":1552308664041,"click_time":1552308665971,"finger_time":1552308665531,"fix_duration":1208.6486288934261,"trial":2,"RT":1490,"MT":440,"sideResp":2,"stimulus":[],"xmouse":[770,773,779,779,785,785,785,785,785,785,789,794,801,807,812,812,812,812,812,812,812,821,827,833,836,836,836,836,836,836,836,836,836,836,836,836,836,836,836,836,836,836,836,836,836,836,836,836,836,836,836,836,836,836,836,836,836,836,836,836,836,836,836,836,836,836,836,836,836,836,836,836,837,837,853,873,906,935,959,995,1003,1009,1018,1032,1051,1063,1067,1067,1070,1087,1097,1102,1108,1111,1116,1121,1127],"ymouse":[625,628,632,632,636,636,636,636,636,636,636,636,637,640,641,641,641,641,641,641,641,643,644,647,648,648,648,648,648,648,648,648,648,648,648,648,648,648,648,648,648,648,648,648,648,648,648,648,648,648,648,648,648,648,648,648,648,648,648,648,648,648,648,648,648,648,648,648,648,648,648,648,648,646,624,601,549,508,475,431,420,413,399,388,370,347,328,316,303,266,244,220,199,176,124,101,78],"timestamp_mouse":[13,29,54,70,91,111,130,150,169,191,211,230,250,270,290,311,330,350,369,391,411,430,449,470,489,510,529,549,569,590,610,629,651,671,689,710,731,751,770,789,810,829,851,870,890,910,931,950,970,989,1009,1030,1050,1071,1090,1110,1130,1151,1171,1190,1209,1231,1251,1270,1290,1310,1331,1351,1370,1390,1410,1429,1449,1470,1490,1510,1530,1550,1570,1589,1611,1630,1650,1671,1689,1710,1730,1751,1770,1789,1810,1831,1851,1870,1890,1910,1930],"xSR":741.5,"ySR":573.95,"xT1":424.9,"yT1":0,"xT2":1058.1,"yT2":0,"toosoon":0,"cond_shown":"Incongruent","ratio_trial":100,"L_num":1,"L_den":2,"R_num":8,"R_den":20,"correct_side":1,"subjID":"AlejandroFajardo32","gender":"0","school":"4","age":"9"},{"start_time":1552308668272,"click_time":1552308670091,"finger_time":1552308669652,"fix_duration":459.62035716030016,"trial":3,"RT":1380,"MT":439,"sideResp":2,"stimulus":[],"xmouse":[767,767,768,769,769,769,769,771,779,785,790,796,797,799,800,801,802,804,805,805,805,805,805,805,805,805,805,805,805,805,805,805,805,805,805,805,805,805,805,805,807,808,809,814,816,818,822,824,826,827,828,829,832,833,835,836,836,836,836,836,836,836,836,836,836,836,836,836,840,850,863,902,941,1004,1169,1246,1297,1312,1306,1299,1295,1292,1292,1285,1271,1251,1231,1210,1181,1167,1159,1157],"ymouse":[633,633,633,633,633,633,633,633,633,633,635,636,636,636,636,636,636,636,636,636,636,636,636,636,636,636,636,636,636,636,636,636,636,636,636,636,636,636,636,636,636,636,636,632,630,626,619,614,610,609,607,604,597,592,585,583,583,583,583,583,583,583,583,583,583,583,583,583,577,565,549,500,455,380,171,78,11,0,0,0,0,0,0,3,11,18,24,35,50,61,66,68],"timestamp_mouse":[1,19,39,59,80,99,120,138,159,180,199,220,239,259,280,299,319,338,359,378,399,419,440,460,479,499,519,539,559,579,599,619,639,659,680,699,719,739,759,779,799,819,839,860,879,900,919,938,959,980,999,1019,1038,1058,1079,1099,1119,1139,1159,1179,1199,1220,1240,1260,1280,1298,1319,1339,1359,1380,1399,1419,1439,1460,1480,1499,1518,1539,1559,1578,1599,1620,1640,1660,1678,1699,1719,1739,1761,1779,1800,1819],"xSR":741.5,"ySR":573.95,"xT1":424.9,"yT1":0,"xT2":1058.1,"yT2":0,"toosoon":0,"cond_shown":"Incongruent","ratio_trial":200,"L_num":7,"L_den":10,"R_num":14,"R_den":28,"correct_side":1,"subjID":"AlejandroFajardo32","gender":"0","school":"4","age":"9"},{"start_time":1552308673418,"click_time":1552308674672,"finger_time":1552308674211,"fix_duration":1485.0728790738217,"trial":4,"RT":793,"MT":461,"sideResp":1,"stimulus":[],"xmouse":[818,818,818,818,818,818,816,814,812,812,812,812,812,812,812,812,812,812,812,812,812,812,812,812,812,812,812,812,812,812,812,810,804,792,777,766,761,761,761,761,758,745,736,729,722,719,715,708,698,686,674,662,660,657,651,643,613,593,574,556,537,526,524],"ymouse":[622,622,622,622,622,622,619,617,616,616,616,616,616,616,616,616,616,616,616,616,616,616,616,616,616,616,616,616,616,616,616,613,608,600,591,583,579,579,579,573,558,476,438,411,369,319,243,211,178,158,145,129,126,123,117,108,84,72,62,55,50,50,50],"timestamp_mouse":[13,32,61,73,93,113,133,153,172,194,214,233,253,272,293,314,333,353,373,394,414,433,452,472,492,514,534,553,572,592,613,633,653,673,693,713,732,752,774,793,813,833,853,872,894,913,933,952,973,994,1013,1033,1054,1072,1093,1113,1132,1153,1173,1192,1213,1233,1254],"xSR":741.5,"ySR":573.95,"xT1":424.9,"yT1":0,"xT2":1058.1,"yT2":0,"toosoon":0,"cond_shown":"Congruent","ratio_trial":200,"L_num":15,"L_den":25,"R_num":4,"R_den":10,"correct_side":1,"subjID":"AlejandroFajardo32","gender":"0","school":"4","age":"9"},{"start_time":1552308681520,"click_time":1552308683850,"finger_time":1552308683091,"fix_duration":307.8180229981007,"trial":5,"RT":1571,"MT":759,"sideResp":2,"stimulus":[],"xmouse":[776,776,776,776,776,776,776,776,776,776,776,776,776,776,776,776,776,776,776,776,776,776,776,776,776,776,776,776,776,776,776,776,776,776,776,776,776,776,776,776,776,776,776,776,776,776,776,776,776,776,776,776,776,776,776,776,776,776,776,776,776,776,776,776,776,776,776,776,776,776,776,776,776,776,776,776,777,783,788,793,796,798,794,791,791,791,793,801,814,834,854,873,915,930,946,963,980,1003,1006,1010,1014,1017,1026,1028,1033,1034,1034,1034,1034,1034,1034,1034,1038,1045,1051,1058,1062],"ymouse":[622,622,622,622,622,622,622,622,622,622,622,622,622,622,622,622,622,622,622,622,622,622,622,622,622,622,622,622,622,622,622,622,622,622,622,622,622,622,622,622,622,622,622,622,622,622,622,622,622,622,622,622,622,622,622,622,622,622,622,622,622,622,622,622,622,622,622,622,622,622,622,622,622,622,622,622,622,590,559,521,491,460,395,373,361,355,352,351,351,350,349,347,330,317,301,280,258,208,181,155,130,104,40,16,0,0,0,0,0,0,0,0,7,17,26,33,38],"timestamp_mouse":[10,31,66,70,91,111,131,151,170,190,210,230,250,271,291,312,331,350,370,391,411,431,450,471,491,511,532,552,572,592,611,631,652,671,691,711,732,751,772,792,812,831,851,870,891,912,932,952,971,990,1011,1032,1051,1072,1091,1110,1131,1150,1171,1192,1212,1232,1250,1272,1292,1310,1332,1352,1372,1392,1411,1430,1452,1472,1491,1512,1530,1550,1571,1591,1611,1632,1651,1671,1691,1711,1730,1751,1771,1791,1810,1831,1851,1871,1891,1910,1930,1951,1971,1991,2010,2031,2051,2072,2092,2110,2131,2150,2172,2191,2211,2232,2251,2272,2290,2310,2330],"xSR":741.5,"ySR":573.95,"xT1":424.9,"yT1":0,"xT2":1058.1,"yT2":0,"toosoon":0,"cond_shown":"Congruent","ratio_trial":100,"L_num":1,"L_den":2,"R_num":18,"R_den":30,"correct_side":2,"subjID":"AlejandroFajardo32","gender":"0","school":"4","age":"9"},{"start_time":1552308694465,"click_time":1552308696492,"finger_time":1552308695791,"fix_duration":373.98557952759523,"trial":6,"RT":1326,"MT":701,"sideResp":2,"stimulus":[],"xmouse":[817,817,817,817,817,817,817,817,817,816,816,815,815,815,815,815,815,815,815,815,815,815,815,815,815,815,815,815,815,815,815,815,815,815,815,815,815,815,815,815,815,815,815,815,815,815,817,818,819,819,819,819,819,819,819,819,820,820,820,820,820,820,820,822,824,828,837,843,847,849,853,896,931,969,1012,1056,1142,1167,1185,1198,1204,1214,1229,1238,1244,1245,1246,1246,1246,1246,1246,1246,1245,1241,1239,1236,1228,1223,1210,1202,1174,1140],"ymouse":[654,654,654,654,654,654,654,654,654,654,653,651,650,649,649,648,647,647,646,646,646,646,646,646,646,646,646,646,646,646,646,646,646,646,646,646,646,646,646,645,643,641,638,636,635,632,623,617,611,608,606,606,606,606,606,606,605,603,602,602,602,602,602,599,596,589,565,552,539,529,511,406,330,264,204,161,115,103,93,84,79,72,62,57,54,52,52,52,52,52,52,52,54,56,57,59,60,60,60,60,60,61],"timestamp_mouse":[11,26,46,77,86,107,126,146,166,185,206,225,247,266,287,306,327,346,366,387,406,425,445,466,485,505,526,546,567,586,607,627,646,666,686,707,726,747,765,787,806,826,847,865,887,906,926,947,966,985,1006,1027,1045,1067,1086,1107,1127,1146,1165,1186,1207,1225,1247,1267,1287,1306,1326,1345,1367,1387,1407,1426,1445,1467,1485,1506,1526,1546,1566,1585,1606,1626,1645,1666,1687,1706,1726,1746,1766,1787,1807,1826,1846,1866,1886,1906,1927,1946,1967,1987,2007,2026],"xSR":741.5,"ySR":573.95,"xT1":424.9,"yT1":0,"xT2":1058.1,"yT2":0,"toosoon":0,"cond_shown":"Incongruent","ratio_trial":300,"L_num":1,"L_den":2,"R_num":3,"R_den":15,"correct_side":1,"subjID":"AlejandroFajardo32","gender":"0","school":"4","age":"9"},{"start_time":1552308699324,"click_time":1552308701011,"finger_time":1552308700492,"fix_duration":250,"trial":7,"RT":1168,"MT":519,"sideResp":2,"stimulus":[],"xmouse":[779,779,779,779,779,779,779,779,779,779,779,779,779,779,779,779,779,779,779,779,779,779,779,779,779,779,779,779,779,779,779,779,779,779,779,779,779,779,779,779,779,779,779,779,779,779,779,779,779,779,779,779,779,779,781,786,794,809,826,863,881,897,910,920,931,944,952,960,980,993,1005,1024,1050,1066,1089,1102,1106,1110,1111,1117,1125,1135,1142,1146,1148],"ymouse":[626,626,626,626,626,626,626,626,626,626,626,626,626,626,626,626,626,626,626,626,626,626,626,626,626,626,626,626,626,626,626,626,626,626,626,626,626,626,626,626,626,626,626,626,626,626,626,626,626,626,626,626,626,626,626,620,605,583,562,530,517,507,497,488,471,454,442,430,404,385,365,334,302,279,242,218,208,200,195,172,149,127,111,101,91],"timestamp_mouse":[12,37,47,67,86,107,127,146,166,187,208,228,247,266,287,308,328,347,366,387,408,428,448,467,487,507,527,548,567,588,607,628,648,667,687,706,728,748,767,787,807,828,846,866,886,907,927,948,966,987,1007,1027,1048,1068,1087,1107,1127,1147,1168,1187,1207,1227,1246,1266,1286,1307,1327,1347,1368,1387,1408,1426,1446,1467,1487,1507,1527,1547,1568,1588,1608,1627,1646,1667,1686],"xSR":741.5,"ySR":573.95,"xT1":424.9,"yT1":0,"xT2":1058.1,"yT2":0,"toosoon":0,"cond_shown":"Incongruent","ratio_trial":200,"L_num":7,"L_den":10,"R_num":14,"R_den":28,"correct_side":1,"subjID":"AlejandroFajardo32","gender":"0","school":"4","age":"9"},{"start_time":1552308703740,"click_time":1552308705292,"finger_time":1552308704811,"fix_duration":1287.10466396797,"trial":8,"RT":1071,"MT":481,"sideResp":2,"stimulus":[],"xmouse":[783,783,783,783,783,783,783,783,783,783,783,783,783,783,783,783,783,783,783,783,783,783,783,783,783,783,783,783,783,783,783,783,783,783,783,783,783,783,783,783,783,783,783,783,783,783,783,783,783,783,784,790,807,851,887,917,937,956,984,998,1008,1016,1024,1032,1038,1046,1056,1065,1079,1082,1082,1082,1082,1080,1080,1081,1084,1088],"ymouse":[620,620,620,620,620,620,620,620,620,620,620,620,620,620,620,620,620,620,620,620,620,620,620,620,620,620,620,620,620,620,620,620,620,620,620,620,620,620,620,620,620,620,620,620,620,620,620,620,620,620,619,611,585,539,503,477,462,450,424,411,398,386,377,364,352,334,311,289,250,228,207,183,151,132,126,120,109,95],"timestamp_mouse":[11,35,52,71,90,112,132,152,170,192,212,232,251,271,291,311,330,350,371,392,410,431,451,471,492,511,530,550,572,591,611,631,651,672,692,711,732,752,772,791,811,831,852,871,890,910,932,951,970,992,1012,1031,1051,1071,1092,1111,1131,1151,1171,1192,1211,1232,1251,1271,1291,1311,1330,1350,1371,1390,1412,1432,1452,1471,1490,1510,1530,1552],"xSR":741.5,"ySR":573.95,"xT1":424.9,"yT1":0,"xT2":1058.1,"yT2":0,"toosoon":0,"cond_shown":"Congruent","ratio_trial":100,"L_num":1,"L_den":2,"R_num":3,"R_den":5,"correct_side":2,"subjID":"AlejandroFajardo32","gender":"0","school":"4","age":"9"},{"start_time":1552308711548,"click_time":1552308714131,"finger_time":1552308712992,"fix_duration":514.3349366739048,"trial":9,"RT":1444,"MT":1139,"sideResp":2,"stimulus":[],"xmouse":[792,792,792,792,792,792,792,792,792,792,792,792,792,792,792,792,792,792,792,792,792,792,792,792,792,792,792,792,792,792,792,792,792,792,792,792,792,792,792,792,792,792,792,792,792,792,792,792,792,792,792,792,792,792,792,792,792,792,792,792,792,792,792,792,792,793,794,797,799,806,812,820,825,832,842,846,848,851,855,865,869,874,880,883,887,891,895,904,918,934,941,952,963,973,996,1010,1025,1039,1053,1091,1101,1111,1120,1124,1130,1132,1136,1137,1143,1160,1163,1163,1164,1164,1164,1164,1164,1164,1164,1164,1164,1164,1164,1164,1164,1164,1164,1160,1160,1126],"ymouse":[596,596,596,596,596,596,596,596,596,596,596,596,596,596,596,596,596,596,596,596,596,596,596,596,596,596,596,596,596,596,596,596,596,596,596,596,596,596,596,596,596,596,596,596,596,596,596,596,596,596,596,596,596,596,596,596,596,596,596,596,596,596,596,596,596,596,595,592,591,584,580,575,572,567,559,553,551,547,542,529,523,518,510,506,500,494,487,476,460,442,435,425,416,406,389,385,376,367,352,281,260,239,218,210,198,192,183,174,158,100,86,82,79,78,76,76,76,76,76,76,76,76,76,76,76,76,76,73,73,54],"timestamp_mouse":[12,26,44,65,84,103,123,143,164,183,204,223,243,263,283,303,324,343,363,383,403,425,443,464,485,503,524,543,564,585,604,624,643,664,684,703,723,745,764,784,803,824,844,863,883,904,923,944,964,984,1003,1024,1043,1064,1083,1103,1123,1144,1164,1183,1204,1224,1243,1264,1284,1304,1324,1343,1363,1383,1404,1424,1444,1463,1483,1503,1524,1544,1564,1583,1603,1623,1644,1664,1683,1705,1723,1744,1763,1783,1803,1823,1843,1863,1883,1905,1925,1944,1964,1983,2004,2023,2044,2064,2083,2104,2124,2144,2164,2183,2204,2223,2244,2263,2283,2303,2323,2344,2363,2384,2403,2423,2443,2463,2483,2505,2523,2543,2564,2583],"xSR":741.5,"ySR":573.95,"xT1":424.9,"yT1":0,"xT2":1058.1,"yT2":0,"toosoon":0,"cond_shown":"Congruent","ratio_trial":300,"L_num":1,"L_den":5,"R_num":3,"R_den":6,"correct_side":2,"subjID":"AlejandroFajardo32","gender":"0","school":"4","age":"9"},{"start_time":1552308719512,"click_time":1552308721412,"finger_time":1552308720833,"fix_duration":360.5354962958889,"trial":10,"RT":1321,"MT":579,"sideResp":2,"stimulus":[],"xmouse":[799,799,798,798,798,798,798,798,798,798,798,798,798,798,798,798,798,798,798,798,798,798,798,798,798,798,798,798,798,798,798,798,798,798,798,798,798,798,798,798,798,798,798,798,798,798,798,798,798,798,798,798,798,798,802,806,819,824,827,828,829,832,833,836,839,852,871,888,906,935,956,990,1004,1013,1020,1026,1039,1043,1045,1046,1046,1047,1051,1052,1053,1054,1054,1054,1055,1058,1063,1075,1079,1083,1084],"ymouse":[628,627,626,626,626,626,626,626,626,626,626,626,626,626,626,626,626,626,626,626,626,626,626,626,626,626,626,626,626,626,626,626,626,626,626,626,626,626,626,626,626,626,626,626,626,626,626,626,626,626,626,626,626,626,626,625,622,620,619,619,618,616,616,614,611,590,563,541,522,496,470,410,377,353,333,310,262,237,210,184,160,144,132,129,128,126,126,126,125,122,118,109,105,101,99],"timestamp_mouse":[19,51,60,80,101,119,140,160,179,199,220,240,260,279,299,319,339,360,380,400,419,440,460,479,500,521,540,560,579,600,619,639,659,680,699,721,739,759,779,800,819,840,860,880,900,920,939,960,979,1000,1019,1039,1060,1081,1099,1120,1139,1160,1179,1200,1219,1240,1259,1279,1300,1321,1339,1360,1380,1399,1419,1440,1460,1479,1500,1519,1539,1560,1579,1600,1619,1639,1659,1679,1700,1719,1740,1759,1779,1799,1819,1840,1859,1880,1900],"xSR":741.5,"ySR":573.95,"xT1":424.9,"yT1":0,"xT2":1058.1,"yT2":0,"toosoon":0,"cond_shown":"Incongruent","ratio_trial":200,"L_num":3,"L_den":4,"R_num":11,"R_den":20,"correct_side":1,"subjID":"AlejandroFajardo32","gender":"0","school":"4","age":"9"},{"start_time":1552308730572,"click_time":1552308732691,"finger_time":1552308732191,"fix_duration":1018.3168099660679,"trial":11,"RT":1619,"MT":500,"sideResp":2,"stimulus":[],"xmouse":[788,788,788,788,788,788,788,788,788,788,788,788,788,788,788,788,788,788,788,788,788,788,788,788,788,788,788,788,788,788,788,788,788,788,788,788,788,788,788,788,788,788,788,788,788,788,788,788,788,788,788,788,788,788,788,788,788,788,788,788,788,788,788,788,788,788,788,788,788,788,788,788,788,788,788,788,788,788,792,822,864,907,940,959,975,1007,1015,1029,1047,1054,1064,1071,1075,1080,1087,1097,1105,1118,1125,1134,1138,1139,1140,1141,1142,1142],"ymouse":[642,642,642,642,642,642,642,642,642,642,642,642,642,642,642,642,642,642,642,642,642,642,642,642,642,642,642,642,642,642,642,642,642,642,642,642,642,642,642,643,643,643,643,643,643,643,643,643,643,643,643,643,643,643,643,643,643,643,643,643,643,643,643,643,643,643,643,643,643,643,643,643,643,643,643,643,643,643,640,619,588,553,524,502,482,440,427,402,371,357,331,314,299,278,256,219,201,175,160,134,123,116,113,108,100,98],"timestamp_mouse":[20,39,60,80,100,125,140,159,180,199,219,240,260,280,299,320,340,360,379,399,420,439,460,479,499,520,539,559,580,599,619,640,661,679,699,720,740,760,779,800,820,839,859,879,900,920,941,960,980,999,1019,1039,1059,1080,1099,1120,1140,1160,1179,1200,1220,1239,1260,1280,1300,1320,1340,1360,1380,1400,1420,1440,1460,1479,1500,1520,1540,1559,1580,1599,1619,1640,1659,1680,1699,1719,1739,1759,1781,1800,1819,1840,1860,1879,1900,1920,1940,1959,1980,2000,2019,2040,2059,2080,2100,2119],"xSR":741.5,"ySR":573.95,"xT1":424.9,"yT1":0,"xT2":1058.1,"yT2":0,"toosoon":0,"cond_shown":"Congruent","ratio_trial":100,"L_num":3,"L_den":20,"R_num":4,"R_den":16,"correct_side":2,"subjID":"AlejandroFajardo32","gender":"0","school":"4","age":"9"},{"start_time":1552308737584,"click_time":1552308739733,"finger_time":1552308739191,"fix_duration":791.2933561138606,"trial":12,"RT":1607,"MT":542,"sideResp":1,"stimulus":[],"xmouse":[774,774,774,774,774,774,774,774,774,774,774,774,774,774,774,774,774,774,774,774,774,774,774,774,774,774,774,774,774,774,774,774,774,774,774,774,774,774,774,774,774,774,774,774,774,774,774,774,774,774,774,774,774,774,774,774,774,774,774,774,774,774,774,774,774,774,774,774,774,774,774,774,774,774,774,774,774,774,772,764,742,724,701,675,650,623,615,606,601,598,588,581,574,565,559,543,534,526,520,514,506,504,502,500,496,487,482,478],"ymouse":[623,623,623,623,623,623,623,623,623,623,623,623,623,623,623,623,623,623,623,623,623,623,623,623,623,623,623,623,623,623,623,623,623,623,623,623,623,623,623,623,623,623,623,623,623,623,623,623,623,623,623,623,623,623,623,623,623,623,623,623,623,623,623,623,623,623,623,623,623,623,623,623,623,623,623,623,623,618,616,603,569,544,513,472,434,367,348,333,325,318,297,285,273,261,252,223,212,200,189,174,153,144,137,132,124,108,102,97],"timestamp_mouse":[14,27,48,71,87,107,128,147,167,188,207,227,248,267,287,307,327,348,368,389,407,428,447,468,488,507,528,548,568,589,608,627,647,668,688,707,728,748,768,788,809,827,848,867,887,907,927,947,967,987,1007,1027,1047,1068,1088,1107,1128,1148,1168,1188,1207,1228,1248,1268,1287,1308,1328,1347,1367,1387,1408,1428,1448,1468,1488,1508,1527,1547,1567,1587,1607,1628,1648,1667,1688,1707,1728,1748,1767,1788,1808,1827,1847,1867,1887,1907,1927,1948,1968,1987,2007,2027,2047,2068,2088,2107,2127,2148],"xSR":741.5,"ySR":573.95,"xT1":424.9,"yT1":0,"xT2":1058.1,"yT2":0,"toosoon":0,"cond_shown":"Congruent","ratio_trial":200,"L_num":12,"L_den":20,"R_num":6,"R_den":15,"correct_side":1,"subjID":"AlejandroFajardo32","gender":"0","school":"4","age":"9"},{"start_time":1552308742370,"click_time":1552308744953,"finger_time":1552308744312,"fix_duration":1377.9419145226234,"trial":13,"RT":1942,"MT":641,"sideResp":2,"stimulus":[],"xmouse":[777,777,777,777,777,777,777,777,777,777,777,777,777,777,777,777,777,777,777,777,777,777,777,777,777,777,777,777,777,777,777,777,777,777,777,777,777,777,777,777,777,777,777,777,777,777,777,777,777,777,777,777,777,777,777,777,777,777,777,777,777,777,777,777,777,777,777,777,777,777,777,777,777,777,777,777,777,777,777,777,777,777,777,777,777,777,777,777,777,777,777,777,777,777,778,781,785,804,824,849,882,913,974,991,1009,1020,1028,1044,1049,1052,1053,1056,1059,1063,1066,1069,1075,1081,1082,1085,1087,1088,1089,1090,1092,1096,1098,1103,1106,1108],"ymouse":[636,636,636,636,636,634,634,634,634,634,634,634,634,634,634,634,634,634,634,634,634,634,634,634,634,634,634,634,634,634,634,634,634,634,634,634,634,634,634,634,634,634,634,634,634,634,634,634,634,634,634,634,634,634,634,634,634,634,634,634,634,634,634,634,634,634,634,634,634,634,634,634,634,634,634,634,634,634,634,634,634,634,634,634,634,634,634,634,634,634,634,634,634,633,626,618,606,568,547,526,508,491,456,442,421,407,392,360,345,331,317,305,276,251,234,215,177,160,149,141,135,132,126,120,116,110,108,101,100,98],"timestamp_mouse":[9,21,41,72,81,101,122,142,161,182,202,222,241,262,281,302,322,342,362,382,401,421,442,462,482,502,521,542,562,582,602,622,641,662,681,702,721,741,762,782,802,821,841,862,881,901,922,941,961,982,1001,1021,1042,1062,1081,1101,1121,1141,1162,1181,1201,1221,1242,1262,1282,1301,1322,1342,1361,1382,1401,1422,1442,1462,1481,1502,1521,1541,1562,1581,1602,1622,1641,1662,1681,1702,1722,1741,1761,1782,1802,1821,1842,1862,1882,1902,1922,1942,1962,1981,2001,2021,2041,2062,2082,2101,2122,2142,2162,2181,2202,2222,2242,2262,2282,2301,2322,2341,2361,2382,2402,2422,2442,2461,2482,2501,2521,2542,2562,2582],"xSR":741.5,"ySR":573.95,"xT1":424.9,"yT1":0,"xT2":1058.1,"yT2":0,"toosoon":0,"cond_shown":"Congruent","ratio_trial":100,"L_num":9,"L_den":15,"R_num":8,"R_den":16,"correct_side":1,"subjID":"AlejandroFajardo32","gender":"0","school":"4","age":"9"},{"start_time":1552308747642,"click_time":1552308749792,"finger_time":1552308748132,"fix_duration":1369.3465537422517,"trial":14,"RT":490,"MT":1660,"sideResp":1,"stimulus":[],"xmouse":[807,807,807,807,807,807,807,807,807,807,807,807,807,807,807,807,807,807,807,807,807,807,807,814,820,823,826,827,828,828,828,828,828,828,828,828,828,828,828,828,828,828,828,828,828,828,828,824,815,810,805,801,798,795,795,794,794,794,794,793,792,792,792,792,792,792,792,792,792,792,792,792,792,792,792,792,792,792,792,792,792,792,792,790,792,791,760,711,602,589,579,578,577,577,577,575,574,572,569,566,561,555,549,537,533,528,525,518],"ymouse":[618,618,618,618,618,618,618,618,618,618,618,618,618,618,618,618,618,618,618,618,618,618,608,576,555,541,534,529,527,527,527,527,527,527,527,527,527,527,527,527,527,527,527,527,527,527,529,534,555,565,576,585,592,601,603,604,605,606,611,614,618,618,618,618,618,618,618,618,618,618,618,618,618,618,618,618,618,618,618,618,618,618,613,575,546,481,388,297,135,107,91,81,77,64,55,50,47,44,43,43,42,41,41,41,41,41,41,42],"timestamp_mouse":[11,42,49,69,89,110,130,151,170,190,210,229,249,270,289,309,330,350,371,389,410,430,450,469,490,509,530,550,570,590,609,631,651,669,690,709,729,749,770,789,809,831,849,869,889,909,929,950,969,990,1010,1030,1050,1069,1090,1110,1129,1149,1169,1189,1209,1230,1249,1270,1289,1309,1329,1350,1369,1390,1409,1429,1450,1469,1490,1509,1529,1549,1569,1590,1610,1630,1650,1669,1690,1709,1730,1749,1769,1790,1809,1830,1849,1869,1889,1910,1930,1950,1969,1991,2010,2029,2049,2069,2089,2110,2130,2150],"xSR":741.5,"ySR":573.95,"xT1":424.9,"yT1":0,"xT2":1058.1,"yT2":0,"toosoon":0,"cond_shown":"Congruent","ratio_trial":200,"L_num":6,"L_den":12,"R_num":7,"R_den":10,"correct_side":2,"subjID":"AlejandroFajardo32","gender":"0","school":"4","age":"9"},{"start_time":1552308751764,"click_time":1552308753432,"finger_time":1552308752871,"fix_duration":250,"trial":15,"RT":1107,"MT":561,"sideResp":1,"stimulus":[],"xmouse":[794,794,794,794,794,794,794,794,794,794,794,794,794,794,794,794,794,794,794,794,794,794,794,794,794,794,794,794,794,794,794,794,794,794,794,794,794,794,794,794,794,794,794,794,794,794,794,794,794,794,794,794,793,790,785,776,761,743,716,705,702,701,699,697,693,685,675,664,648,639,633,628,618,612,605,596,585,567,558,549,541,536,528,514],"ymouse":[640,640,640,640,640,640,640,640,640,640,640,640,640,640,640,640,640,640,640,640,640,640,640,640,640,640,640,640,640,640,640,640,640,640,640,640,640,640,640,640,640,640,640,640,640,640,640,640,640,640,640,640,626,609,589,566,540,515,480,467,465,464,461,456,450,436,419,400,363,334,315,294,259,243,221,202,183,158,147,135,127,120,111,95],"timestamp_mouse":[9,28,47,68,88,107,127,147,168,187,207,227,247,267,288,308,327,348,367,388,408,427,448,468,489,507,528,548,567,588,607,628,648,667,688,708,727,747,768,787,807,827,847,867,888,908,928,948,967,987,1008,1027,1048,1067,1088,1107,1127,1147,1167,1188,1208,1227,1247,1267,1288,1307,1328,1348,1368,1387,1407,1427,1448,1467,1487,1507,1527,1549,1567,1588,1607,1628,1647,1668],"xSR":741.5,"ySR":573.95,"xT1":424.9,"yT1":0,"xT2":1058.1,"yT2":0,"toosoon":0,"cond_shown":"Congruent","ratio_trial":300,"L_num":11,"L_den":22,"R_num":4,"R_den":20,"correct_side":1,"subjID":"AlejandroFajardo32","gender":"0","school":"4","age":"9"},{"start_time":1552308755329,"click_time":1552308757531,"finger_time":1552308756811,"fix_duration":476.32271655954594,"trial":16,"RT":1482,"MT":720,"sideResp":1,"stimulus":[],"xmouse":[795,795,795,795,795,795,795,795,795,795,795,795,795,795,795,795,795,795,795,795,795,795,795,795,795,795,795,795,795,795,795,795,795,795,795,795,795,795,795,795,795,795,795,795,795,795,795,795,795,795,795,795,795,795,795,795,795,795,795,795,795,795,795,795,795,795,795,795,795,795,795,798,816,840,869,913,926,934,937,943,970,989,1012,1034,1052,1081,1092,1099,1105,1112,1115,1115,1115,1115,1115,1113,1110,1103,1094,1084,1053,1013,974,929,867,723,645,591,549,529,506],"ymouse":[603,603,603,603,603,603,603,603,603,603,603,603,603,603,603,603,603,603,603,603,603,603,603,603,603,603,603,603,603,603,603,603,603,603,603,603,603,603,603,603,603,603,603,603,603,603,603,603,603,603,603,603,603,603,603,603,603,603,603,603,603,603,603,603,603,603,603,603,603,603,603,603,594,580,562,537,529,526,523,519,496,475,448,423,398,357,336,317,296,274,254,251,249,247,244,238,234,231,229,226,221,209,195,179,153,97,64,39,25,17,11],"timestamp_mouse":[9,23,47,63,83,102,122,142,162,182,202,223,242,263,283,302,323,342,362,382,403,423,443,463,482,503,523,543,564,582,602,623,643,663,683,703,723,742,763,783,802,823,843,862,882,903,922,943,962,982,1002,1023,1043,1063,1083,1102,1122,1143,1162,1182,1203,1222,1242,1262,1282,1303,1323,1342,1362,1383,1403,1422,1442,1462,1482,1503,1523,1542,1563,1582,1602,1622,1643,1662,1683,1703,1723,1742,1763,1782,1802,1822,1842,1862,1882,1903,1922,1942,1962,1982,2003,2022,2042,2062,2083,2103,2122,2142,2162,2182,2202],"xSR":741.5,"ySR":573.95,"xT1":424.9,"yT1":0,"xT2":1058.1,"yT2":0,"toosoon":0,"cond_shown":"Incongruent","ratio_trial":100,"L_num":10,"L_den":25,"R_num":8,"R_den":16,"correct_side":2,"subjID":"AlejandroFajardo32","gender":"0","school":"4","age":"9"},{"start_time":1552308760263,"click_time":1552308761652,"finger_time":1552308761131,"fix_duration":1250.0246574994276,"trial":17,"RT":868,"MT":521,"sideResp":1,"stimulus":[],"xmouse":[769,769,770,771,771,771,771,771,771,771,771,771,771,771,771,771,771,771,771,771,771,771,771,771,771,771,771,771,771,771,771,771,771,771,771,771,771,771,771,771,771,771,771,775,775,771,755,739,705,689,667,659,636,596,569,556,518,502,498,498,498,498,498,498,498,498,498,498,498,495],"ymouse":[600,600,599,599,599,599,599,599,599,599,599,599,599,599,599,599,599,599,599,599,599,599,599,599,599,599,599,599,599,599,599,599,599,599,599,599,599,599,599,599,599,599,598,551,491,422,367,322,237,180,127,114,83,43,21,12,0,0,0,0,0,0,0,0,0,0,0,0,0,2],"timestamp_mouse":[9,28,49,68,89,109,130,149,168,189,208,228,248,269,288,308,328,349,368,388,409,428,449,469,488,508,528,549,569,588,609,628,648,669,689,708,728,748,769,789,809,830,848,868,888,908,928,949,968,989,1010,1028,1049,1068,1088,1108,1129,1149,1168,1189,1208,1228,1249,1268,1290,1309,1328,1349,1368,1388],"xSR":741.5,"ySR":573.95,"xT1":424.9,"yT1":0,"xT2":1058.1,"yT2":0,"toosoon":0,"cond_shown":"Incongruent","ratio_trial":100,"L_num":10,"L_den":25,"R_num":8,"R_den":16,"correct_side":2,"subjID":"AlejandroFajardo32","gender":"0","school":"4","age":"9"},{"start_time":1552308763304,"click_time":1552308765131,"finger_time":1552308764772,"fix_duration":250,"trial":18,"RT":1468,"MT":359,"sideResp":2,"stimulus":[],"xmouse":[784,784,784,784,784,784,784,784,784,784,784,784,784,784,784,784,784,784,784,784,784,784,784,784,784,784,784,784,784,784,784,784,784,784,784,784,784,784,784,784,785,785,785,785,785,784,784,784,784,784,784,784,784,784,784,784,784,784,786,786,787,787,787,787,787,787,787,787,788,790,790,794,815,835,856,884,903,943,973,1011,1051,1086,1136,1150,1158,1159,1159,1159,1159,1159,1159,1156],"ymouse":[638,638,638,638,638,638,638,638,638,638,638,638,638,638,638,638,638,638,638,638,638,638,638,638,638,638,638,638,638,638,638,638,638,638,638,638,638,638,638,638,636,633,621,618,614,613,613,613,613,613,613,613,613,613,613,613,611,608,606,605,604,603,602,602,602,602,602,602,602,600,599,596,577,560,544,520,502,456,427,393,361,329,263,233,201,183,166,150,126,115,107,94],"timestamp_mouse":[9,28,47,68,88,108,127,147,167,188,208,227,247,267,288,307,328,348,368,387,408,428,448,467,487,508,527,548,567,587,608,628,648,667,687,707,728,748,768,787,807,828,847,868,888,908,928,947,967,987,1008,1029,1047,1068,1088,1108,1127,1147,1167,1188,1207,1227,1248,1268,1287,1308,1328,1348,1368,1387,1408,1427,1447,1468,1487,1507,1527,1547,1567,1587,1608,1627,1648,1667,1687,1707,1728,1747,1768,1787,1807,1827],"xSR":741.5,"ySR":573.95,"xT1":424.9,"yT1":0,"xT2":1058.1,"yT2":0,"toosoon":0,"cond_shown":"Incongruent","ratio_trial":200,"L_num":9,"L_den":15,"R_num":8,"R_den":10,"correct_side":2,"subjID":"AlejandroFajardo32","gender":"0","school":"4","age":"9"},{"start_time":1552308767328,"click_time":1552308768912,"finger_time":1552308768191,"fix_duration":956.882601082339,"trial":19,"RT":863,"MT":721,"sideResp":2,"stimulus":[],"xmouse":[763,763,763,763,763,763,763,763,763,763,763,763,763,763,763,763,763,763,763,763,763,763,763,762,761,761,760,760,760,760,760,760,760,760,760,760,760,760,760,764,768,779,812,842,860,874,900,909,916,920,922,925,936,942,947,952,958,968,971,975,981,990,1012,1015,1018,1021,1023,1027,1028,1030,1033,1037,1048,1051,1057,1061,1064,1069,1070,1073],"ymouse":[604,604,604,604,604,604,604,604,604,604,604,604,604,604,604,604,604,604,604,604,605,607,610,611,612,613,614,614,614,614,614,614,614,614,614,614,614,614,614,615,615,615,608,600,594,585,568,560,550,540,527,512,478,469,460,450,440,425,419,413,402,385,344,336,326,313,298,273,264,253,242,227,176,155,137,122,113,103,100,96],"timestamp_mouse":[12,24,44,64,84,104,125,143,163,184,203,224,244,263,283,304,323,344,365,384,403,424,443,464,483,503,523,543,563,583,603,624,643,663,684,704,724,743,764,784,804,823,843,863,884,904,925,944,964,984,1004,1023,1045,1064,1083,1104,1123,1144,1164,1184,1204,1224,1244,1264,1284,1304,1324,1344,1364,1383,1403,1423,1443,1464,1483,1504,1523,1543,1564,1584],"xSR":741.5,"ySR":573.95,"xT1":424.9,"yT1":0,"xT2":1058.1,"yT2":0,"toosoon":0,"cond_shown":"Congruent","ratio_trial":300,"L_num":1,"L_den":20,"R_num":7,"R_den":20,"correct_side":2,"subjID":"AlejandroFajardo32","gender":"0","school":"4","age":"9"},{"start_time":1552308771755,"click_time":1552308774691,"finger_time":1552308773511,"fix_duration":1361.3264646259242,"trial":20,"RT":1756,"MT":1180,"sideResp":2,"stimulus":[],"xmouse":[793,793,793,793,793,793,793,793,793,793,793,793,793,793,793,793,793,793,793,793,793,793,793,793,793,793,793,793,793,793,793,793,793,793,793,793,793,793,793,793,793,793,793,793,793,793,793,793,793,793,793,793,793,793,793,793,793,793,793,793,793,793,793,793,793,793,793,793,793,793,793,793,793,793,793,793,793,793,793,793,793,793,793,793,793,803,822,853,864,887,920,923,923,923,923,923,923,923,923,923,923,923,918,912,905,887,881,875,873,872,872,872,872,872,872,872,872,872,869,866,866,870,881,895,916,1000,1038,1069,1101,1138,1197,1207,1216,1223,1230,1240,1242,1242,1240,1226,1208,1200,1194,1186,1177,1165,1157],"ymouse":[631,631,631,631,631,631,631,631,631,631,631,631,631,631,631,631,631,631,631,631,631,631,631,631,631,631,631,631,631,631,631,631,631,631,631,631,631,631,631,631,631,631,631,631,631,631,631,631,631,631,631,631,631,631,631,631,631,631,631,631,631,631,631,631,631,631,631,631,631,631,631,631,631,631,631,631,631,631,631,631,631,631,631,631,632,633,634,640,641,647,657,658,658,658,658,658,658,658,658,658,658,659,659,659,659,654,652,651,649,649,649,649,649,649,649,649,649,649,647,639,633,617,599,577,543,439,389,347,301,246,143,125,109,94,77,32,4,0,0,0,0,0,0,6,13,32,51],"timestamp_mouse":[16,36,66,77,96,117,137,156,176,196,216,236,257,276,296,317,337,357,376,396,416,437,457,477,496,516,537,557,576,596,616,636,657,677,697,716,737,758,777,797,817,836,857,877,897,918,937,957,977,996,1016,1036,1056,1076,1097,1116,1137,1156,1177,1196,1216,1237,1256,1276,1296,1316,1337,1356,1377,1397,1417,1437,1457,1477,1497,1516,1538,1556,1577,1596,1616,1636,1657,1677,1696,1716,1736,1756,1777,1797,1816,1838,1856,1877,1896,1917,1936,1956,1977,1996,2017,2036,2057,2077,2097,2116,2136,2157,2177,2197,2217,2237,2256,2276,2297,2317,2337,2356,2377,2396,2417,2437,2458,2476,2498,2516,2536,2556,2576,2596,2616,2636,2656,2677,2697,2716,2737,2756,2776,2796,2818,2836,2856,2877,2896,2918,2936],"xSR":741.5,"ySR":573.95,"xT1":424.9,"yT1":0,"xT2":1058.1,"yT2":0,"toosoon":0,"cond_shown":"Congruent","ratio_trial":200,"L_num":8,"L_den":15,"R_num":7,"R_den":21,"correct_side":1,"subjID":"AlejandroFajardo32","gender":"0","school":"4","age":"9"},{"start_time":1552308776177,"click_time":1552308778472,"finger_time":1552308777391,"fix_duration":383.9258625765877,"trial":21,"RT":1214,"MT":1081,"sideResp":1,"stimulus":[],"xmouse":[798,798,798,798,798,798,798,798,798,798,798,798,798,798,798,798,798,798,798,798,798,798,798,798,798,798,798,798,798,798,798,798,798,798,798,798,798,798,798,798,798,798,798,798,798,798,800,802,804,805,806,807,807,807,808,808,811,815,821,827,846,857,870,885,913,933,944,953,962,969,976,977,977,977,977,977,977,977,977,977,977,977,977,977,977,976,960,928,879,764,710,659,594,523,429,398,398,398,398,398,394,391,389,388,388,388,388,388,388,388,388,389,398,412,428],"ymouse":[621,621,621,621,621,621,621,621,621,621,621,621,621,621,621,621,621,621,621,621,621,621,621,621,621,621,621,621,621,621,621,621,621,621,621,621,621,621,621,621,621,621,621,621,621,621,621,618,616,615,614,614,614,614,613,613,610,608,605,601,590,583,575,566,547,531,521,509,496,486,472,470,469,469,469,469,469,469,469,469,469,469,469,469,469,455,417,352,267,64,0,0,0,0,0,0,0,0,0,0,3,14,22,30,35,40,40,40,40,40,40,43,47,51,53],"timestamp_mouse":[15,41,55,74,95,115,135,154,174,195,214,235,255,274,295,314,335,354,374,395,415,434,455,476,495,514,535,555,575,594,614,636,656,675,695,714,735,755,775,795,815,835,855,874,895,914,934,955,975,994,1014,1035,1054,1074,1094,1114,1135,1155,1174,1195,1214,1235,1254,1274,1296,1314,1334,1354,1375,1394,1414,1434,1454,1474,1494,1515,1534,1555,1574,1594,1614,1634,1654,1674,1696,1716,1735,1754,1775,1796,1815,1836,1855,1874,1896,1915,1934,1955,1974,1995,2015,2034,2055,2075,2094,2115,2135,2155,2175,2195,2214,2234,2254,2274,2295],"xSR":741.5,"ySR":573.95,"xT1":424.9,"yT1":0,"xT2":1058.1,"yT2":0,"toosoon":0,"cond_shown":"Congruent","ratio_trial":100,"L_num":6,"L_den":20,"R_num":5,"R_den":25,"correct_side":1,"subjID":"AlejandroFajardo32","gender":"0","school":"4","age":"9"},{"start_time":1552308780983,"click_time":1552308783512,"finger_time":1552308782751,"fix_duration":1149.5349579466733,"trial":22,"RT":1768,"MT":761,"sideResp":2,"stimulus":[],"xmouse":[780,780,780,780,780,780,780,780,780,780,780,780,780,780,780,780,780,780,780,780,780,780,780,780,780,780,780,780,780,780,780,780,780,780,780,780,780,780,780,780,780,780,780,780,780,780,780,780,780,780,780,780,780,780,780,780,780,780,780,780,780,780,780,780,780,780,780,780,780,780,780,780,780,780,780,780,780,780,780,780,780,780,780,780,780,778,773,772,788,828,890,908,919,936,952,964,992,1008,1025,1039,1056,1065,1068,1077,1079,1083,1093,1100,1112,1129,1150,1193,1213,1221,1221,1220,1214,1212,1212,1212,1212,1212,1212,1209,1201,1167,1149],"ymouse":[600,600,600,600,600,600,600,600,600,600,600,600,600,600,600,600,600,600,600,600,600,600,600,600,600,600,600,600,600,600,600,600,600,600,600,600,600,600,600,600,600,600,600,600,600,600,600,600,600,600,600,600,600,600,600,600,600,600,600,600,600,600,600,600,600,600,600,600,600,600,600,600,600,600,600,600,600,600,600,600,600,600,600,600,600,601,615,646,680,701,694,679,663,649,644,637,606,583,557,537,508,485,478,458,448,434,401,375,330,266,190,51,0,0,0,0,0,0,0,0,0,0,0,1,6,23,30],"timestamp_mouse":[10,39,49,69,89,109,128,149,169,189,209,229,248,268,288,308,328,348,368,389,409,428,448,468,488,509,528,549,568,589,608,629,650,670,688,709,729,749,769,790,809,829,849,869,889,908,929,948,968,988,1009,1028,1049,1069,1089,1108,1129,1148,1169,1190,1210,1229,1249,1268,1289,1309,1328,1349,1369,1388,1408,1428,1449,1469,1488,1509,1529,1549,1569,1589,1609,1630,1648,1669,1689,1708,1730,1749,1768,1789,1809,1828,1848,1869,1889,1908,1928,1948,1969,1989,2009,2028,2048,2068,2089,2109,2128,2148,2169,2188,2208,2228,2249,2269,2289,2310,2329,2349,2368,2388,2409,2430,2448,2469,2488,2511,2528],"xSR":741.5,"ySR":573.95,"xT1":424.9,"yT1":0,"xT2":1058.1,"yT2":0,"toosoon":0,"cond_shown":"Incongruent","ratio_trial":100,"L_num":13,"L_den":26,"R_num":12,"R_den":20,"correct_side":2,"subjID":"AlejandroFajardo32","gender":"0","school":"4","age":"9"},{"start_time":1552308785387,"click_time":1552308786932,"finger_time":1552308786312,"fix_duration":693.962207836781,"trial":23,"RT":925,"MT":620,"sideResp":1,"stimulus":[],"xmouse":[790,790,790,790,790,790,790,790,790,790,790,790,790,790,790,790,790,790,790,790,790,790,790,790,790,790,790,790,790,790,790,790,790,790,790,790,790,790,790,790,790,790,790,794,795,797,798,798,791,780,764,718,701,686,671,660,646,642,640,638,634,621,614,605,595,585,570,568,568,568,568,568,568,568,567,562,534,516],"ymouse":[641,641,641,641,641,641,641,641,641,641,641,641,641,641,641,641,641,641,641,641,641,641,641,641,641,641,641,641,641,641,641,641,641,641,641,641,641,641,641,641,641,641,641,625,615,594,555,535,512,482,440,347,316,293,271,255,236,230,227,221,212,182,165,148,133,119,104,104,103,103,103,103,103,103,103,101,94,89],"timestamp_mouse":[14,29,45,64,84,105,125,144,165,185,204,225,245,265,285,305,324,345,365,384,406,426,444,464,485,504,524,544,566,584,605,624,644,665,685,704,724,745,765,784,804,825,844,865,885,905,925,945,966,985,1005,1024,1044,1065,1084,1105,1125,1144,1165,1186,1205,1224,1244,1264,1284,1304,1324,1344,1364,1385,1404,1425,1445,1465,1485,1504,1524,1544],"xSR":741.5,"ySR":573.95,"xT1":424.9,"yT1":0,"xT2":1058.1,"yT2":0,"toosoon":0,"cond_shown":"Congruent","ratio_trial":300,"L_num":20,"L_den":25,"R_num":13,"R_den":26,"correct_side":1,"subjID":"AlejandroFajardo32","gender":"0","school":"4","age":"9"},{"start_time":1552308789130,"click_time":1552308790911,"finger_time":1552308790231,"fix_duration":1015.1605226593526,"trial":24,"RT":1101,"MT":680,"sideResp":1,"stimulus":[],"xmouse":[817,817,817,817,817,814,813,811,811,811,811,811,811,811,811,811,811,811,811,811,811,811,811,811,811,811,811,811,811,811,811,811,811,811,811,811,811,811,811,811,811,811,811,811,811,811,811,811,811,811,811,811,810,806,790,779,762,742,720,696,694,694,694,694,690,680,670,661,655,637,627,607,590,569,544,541,540,540,540,540,540,540,540,540,540,540,540,538,532,514],"ymouse":[623,623,623,623,623,623,623,623,623,623,623,623,623,623,623,623,623,623,623,623,623,623,623,623,623,623,623,623,623,623,623,623,623,623,623,623,623,623,623,623,623,623,623,623,623,623,623,623,623,623,623,623,623,619,588,571,551,531,512,497,496,496,496,496,491,476,458,438,418,369,338,272,215,169,120,116,115,115,115,115,115,115,115,115,115,115,115,112,100,69],"timestamp_mouse":[10,21,44,63,81,101,121,142,161,182,202,221,241,262,282,302,321,341,362,381,402,421,441,461,481,502,523,541,561,582,602,622,642,662,681,701,722,741,762,781,801,822,842,861,882,901,922,941,962,981,1001,1022,1041,1062,1081,1101,1121,1141,1161,1181,1201,1222,1242,1261,1281,1301,1321,1342,1362,1381,1401,1422,1443,1462,1481,1501,1521,1542,1561,1581,1601,1622,1643,1662,1682,1702,1722,1741,1761,1781],"xSR":741.5,"ySR":573.95,"xT1":424.9,"yT1":0,"xT2":1058.1,"yT2":0,"toosoon":0,"cond_shown":"Incongruent","ratio_trial":200,"L_num":4,"L_den":30,"R_num":1,"R_den":3,"correct_side":2,"subjID":"AlejandroFajardo32","gender":"0","school":"4","age":"9"},{"start_time":1552308795582,"click_time":1552308798932,"finger_time":1552308797131,"fix_duration":250,"trial":25,"RT":1549,"MT":1801,"sideResp":2,"stimulus":[],"xmouse":[802,802,802,802,802,802,802,802,802,802,802,802,802,802,802,802,802,802,802,802,802,802,802,802,802,802,802,802,802,802,802,802,802,802,802,802,802,802,802,802,802,802,802,802,802,802,802,802,802,802,802,802,802,802,802,802,802,802,802,802,802,802,802,802,802,802,802,802,802,804,806,807,812,815,819,824,834,846,852,857,863,868,882,891,901,910,920,937,941,944,947,948,954,955,959,964,968,989,997,1006,1012,1017,1024,1024,1024,1024,1025,1027,1028,1028,1029,1031,1038,1044,1051,1061,1071,1084,1089,1092,1094,1095,1095,1095,1095,1095,1095,1095,1095,1095,1095,1095,1095,1095,1095,1095,1095,1095,1095,1095,1095,1095,1095,1095,1095,1095,1095,1095,1095,1095,1095,1095,1095,1095,1095,1095,1095,1095,1095,1095,1095,1095,1095,1095,1095,1096,1096,1098],"ymouse":[645,645,645,645,645,645,645,645,645,645,645,645,645,645,645,645,645,645,645,645,645,645,645,645,645,645,645,645,645,645,645,645,645,645,645,645,645,645,645,645,645,645,645,645,645,645,645,645,645,645,645,645,645,645,645,645,645,645,645,645,645,645,645,645,645,645,645,645,645,644,643,641,635,630,623,615,597,575,563,554,541,528,497,476,454,433,410,356,340,326,315,307,295,289,282,270,263,224,210,198,191,186,178,178,178,177,176,175,175,174,173,173,171,169,167,162,152,136,127,121,117,115,114,114,114,114,114,114,114,114,114,113,111,111,111,111,111,111,111,111,111,111,111,111,111,111,111,111,111,111,111,111,111,111,111,111,111,111,111,111,111,111,111,111,111,108,103,90],"timestamp_mouse":[10,30,49,69,89,110,130,150,170,189,209,230,249,269,290,310,330,350,369,390,410,430,450,471,490,509,529,550,569,589,610,631,650,669,690,709,730,750,770,791,809,830,849,870,890,911,930,950,969,990,1009,1030,1049,1069,1089,1109,1129,1149,1170,1189,1209,1229,1249,1269,1289,1309,1329,1350,1370,1389,1410,1430,1449,1470,1489,1509,1529,1549,1570,1589,1610,1630,1649,1669,1689,1710,1730,1749,1771,1790,1810,1830,1849,1869,1889,1909,1930,1949,1969,1989,2010,2030,2049,2069,2090,2109,2129,2149,2170,2190,2209,2230,2249,2269,2290,2309,2329,2349,2369,2389,2409,2429,2449,2469,2491,2509,2530,2550,2569,2590,2610,2629,2649,2669,2689,2709,2730,2750,2770,2789,2810,2831,2849,2870,2890,2909,2930,2950,2969,2989,3009,3029,3049,3069,3089,3109,3129,3150,3169,3191,3210,3230,3250,3269,3289,3309,3330,3349],"xSR":741.5,"ySR":573.95,"xT1":424.9,"yT1":0,"xT2":1058.1,"yT2":0,"toosoon":0,"cond_shown":"Incongruent","ratio_trial":300,"L_num":1,"L_den":2,"R_num":3,"R_den":15,"correct_side":1,"subjID":"AlejandroFajardo32","gender":"0","school":"4","age":"9"},{"start_time":1552308800583,"click_time":1552308802611,"finger_time":1552308802131,"fix_duration":250,"trial":26,"RT":1548,"MT":480,"sideResp":2,"stimulus":[],"xmouse":[814,813,813,813,813,813,814,814,814,814,814,814,815,815,815,815,815,815,815,815,815,815,815,815,815,817,818,819,821,822,822,822,822,823,823,823,823,823,823,823,823,823,823,823,823,823,823,823,823,823,823,823,823,823,823,823,823,823,823,823,823,823,823,823,823,823,823,823,823,823,823,823,823,823,825,828,834,848,928,953,961,973,980,996,1002,1006,1010,1012,1015,1016,1016,1017,1020,1043,1056,1070,1086,1111,1120,1130,1137,1140],"ymouse":[642,642,641,640,637,636,635,635,633,633,633,633,632,632,632,632,632,632,632,632,632,632,632,632,632,629,628,627,624,623,623,623,623,623,623,623,623,623,623,623,623,623,623,623,623,623,623,623,623,623,623,623,623,623,623,623,623,623,623,623,623,623,623,623,623,623,623,623,623,623,623,623,623,623,620,613,600,570,401,350,329,302,278,227,214,205,197,192,187,186,185,183,182,172,166,160,149,130,120,110,101,95],"timestamp_mouse":[10,28,48,69,89,108,129,149,170,189,208,229,248,269,290,308,329,349,368,389,409,429,449,469,488,508,529,548,569,589,608,628,649,670,689,708,729,748,768,789,808,828,849,869,888,909,929,949,968,989,1008,1028,1048,1068,1089,1109,1130,1148,1169,1188,1209,1228,1248,1269,1288,1309,1328,1349,1369,1388,1408,1429,1448,1468,1489,1508,1529,1548,1569,1589,1608,1629,1649,1669,1690,1708,1729,1749,1768,1789,1808,1828,1849,1870,1889,1908,1928,1949,1968,1989,2009,2028],"xSR":741.5,"ySR":573.95,"xT1":424.9,"yT1":0,"xT2":1058.1,"yT2":0,"toosoon":0,"cond_shown":"Congruent","ratio_trial":200,"L_num":16,"L_den":20,"R_num":12,"R_den":20,"correct_side":1,"subjID":"AlejandroFajardo32","gender":"0","school":"4","age":"9"},{"start_time":1552308804947,"click_time":1552308806151,"finger_time":1552308805371,"fix_duration":1194.6047134894275,"trial":27,"RT":424,"MT":780,"sideResp":1,"stimulus":[],"xmouse":[808,808,808,808,808,808,808,808,808,808,808,808,808,808,808,808,808,808,808,809,812,812,812,803,777,752,748,745,745,745,745,745,745,745,745,745,745,745,745,745,745,745,745,745,743,719,701,686,671,663,656,653,641,635,613,578,562,546,534,523,503],"ymouse":[618,618,618,618,618,618,618,618,618,618,618,618,618,618,618,618,618,618,618,614,587,552,487,419,349,290,278,274,274,274,274,274,274,274,274,274,274,274,274,274,274,274,274,274,269,241,228,217,206,200,194,191,184,181,166,142,134,126,116,109,94],"timestamp_mouse":[8,25,44,64,84,105,124,145,164,185,205,224,246,265,285,305,325,346,364,384,404,424,444,465,486,504,526,544,564,585,604,625,644,665,684,704,724,745,764,784,804,825,844,864,886,904,925,944,964,985,1004,1024,1044,1065,1084,1104,1126,1144,1165,1185,1204],"xSR":741.5,"ySR":573.95,"xT1":424.9,"yT1":0,"xT2":1058.1,"yT2":0,"toosoon":0,"cond_shown":"Congruent","ratio_trial":200,"L_num":16,"L_den":20,"R_num":12,"R_den":20,"correct_side":1,"subjID":"AlejandroFajardo32","gender":"0","school":"4","age":"9"},{"start_time":1552308812963,"click_time":1552308814472,"finger_time":1552308813832,"fix_duration":569.3623551789832,"trial":28,"RT":869,"MT":640,"sideResp":1,"stimulus":[],"xmouse":[808,806,806,800,799,799,799,799,799,799,799,799,799,799,799,799,799,799,799,799,799,799,799,799,799,799,799,799,799,799,799,799,799,799,799,799,799,799,799,799,798,795,792,785,763,739,712,673,634,600,547,538,531,524,518,509,505,502,498,495,494,494,494,494,494,494,494,494,494,494,494,494,494,494,494,493],"ymouse":[607,607,607,614,616,616,616,616,616,616,616,616,616,616,616,616,616,616,616,616,616,616,616,616,616,616,616,616,616,616,616,616,616,616,616,616,616,616,616,616,614,604,588,560,457,375,286,192,105,35,0,0,0,0,0,0,0,0,0,0,0,0,0,0,0,0,0,0,0,0,0,0,0,0,0,2],"timestamp_mouse":[13,38,48,69,88,108,128,149,169,188,208,228,248,269,290,309,330,349,369,389,408,429,448,468,489,508,528,548,568,589,609,628,648,669,688,710,730,749,768,789,808,828,849,869,890,908,928,948,968,988,1012,1028,1049,1068,1088,1109,1128,1148,1168,1188,1209,1228,1248,1269,1289,1308,1328,1349,1369,1389,1408,1428,1448,1469,1488,1508],"xSR":741.5,"ySR":573.95,"xT1":424.9,"yT1":0,"xT2":1058.1,"yT2":0,"toosoon":0,"cond_shown":"Incongruent","ratio_trial":300,"L_num":1,"L_den":2,"R_num":3,"R_den":15,"correct_side":1,"subjID":"AlejandroFajardo32","gender":"0","school":"4","age":"9"},{"start_time":1552308816584,"click_time":1552308818312,"finger_time":1552308817772,"fix_duration":250,"trial":29,"RT":1188,"MT":540,"sideResp":2,"stimulus":[],"xmouse":[792,792,792,793,795,795,795,795,795,795,795,795,795,795,795,795,795,795,795,795,795,795,795,795,795,795,795,795,795,795,795,795,795,795,795,795,795,795,795,795,795,795,795,795,795,795,795,795,795,795,795,795,795,795,795,796,800,809,821,851,866,881,895,905,916,923,926,935,941,957,966,977,984,991,994,1000,1004,1006,1010,1021,1027,1035,1041,1052,1071,1087,1100],"ymouse":[626,626,626,621,617,616,616,616,616,616,616,616,616,616,616,616,616,616,616,616,616,616,616,616,616,616,616,616,616,616,616,616,616,616,616,616,616,616,616,616,616,616,616,616,616,616,616,616,616,616,616,616,616,616,616,615,613,607,597,570,557,543,530,518,498,482,477,457,440,402,384,366,348,328,314,287,278,261,245,219,203,186,166,149,122,106,96],"timestamp_mouse":[9,44,48,67,87,107,128,148,168,188,207,228,247,268,287,307,328,347,368,388,407,428,447,468,487,507,528,548,568,587,608,627,647,667,688,707,728,747,767,789,807,827,847,867,887,907,927,947,967,987,1007,1028,1048,1067,1088,1107,1128,1147,1167,1188,1207,1228,1248,1268,1288,1307,1327,1347,1367,1387,1407,1428,1448,1468,1488,1507,1527,1547,1568,1588,1607,1628,1648,1667,1688,1707,1728],"xSR":741.5,"ySR":573.95,"xT1":424.9,"yT1":0,"xT2":1058.1,"yT2":0,"toosoon":0,"cond_shown":"Congruent","ratio_trial":100,"L_num":11,"L_den":22,"R_num":6,"R_den":15,"correct_side":1,"subjID":"AlejandroFajardo32","gender":"0","school":"4","age":"9"},{"start_time":1552308820639,"click_time":1552308822232,"finger_time":1552308821451,"fix_duration":844.0394712340535,"trial":30,"RT":812,"MT":781,"sideResp":1,"stimulus":[],"xmouse":[799,799,799,799,799,799,799,799,799,799,799,799,799,799,799,799,799,799,799,799,799,799,799,799,799,799,799,799,799,799,799,799,799,799,799,799,799,798,793,783,770,759,752,752,752,752,752,752,751,749,736,716,693,680,670,662,656,643,635,628,614,610,584,572,564,558,555,551,547,543,537,530,527,525,522,518,513,506,506,505],"ymouse":[629,629,629,629,629,629,629,629,629,629,629,629,629,629,629,629,629,629,629,629,629,629,629,629,629,629,629,629,629,629,629,629,629,629,629,629,629,625,608,587,567,551,541,541,541,541,541,541,539,536,515,491,464,448,434,420,410,381,359,336,307,298,255,239,227,219,215,210,205,201,193,184,175,170,160,147,132,108,100,94],"timestamp_mouse":[14,36,53,73,93,112,132,152,173,192,213,232,253,272,293,312,332,352,374,392,413,432,452,472,493,513,533,552,573,594,612,633,652,673,693,713,733,752,773,792,812,833,852,872,892,913,932,953,972,992,1012,1034,1053,1073,1094,1112,1133,1152,1172,1193,1212,1232,1252,1272,1293,1312,1333,1352,1374,1392,1413,1432,1452,1473,1492,1513,1532,1552,1573,1593],"xSR":741.5,"ySR":573.95,"xT1":424.9,"yT1":0,"xT2":1058.1,"yT2":0,"toosoon":0,"cond_shown":"Congruent","ratio_trial":200,"L_num":6,"L_den":20,"R_num":11,"R_den":22,"correct_side":2,"subjID":"AlejandroFajardo32","gender":"0","school":"4","age":"9"},{"start_time":1552308823724,"click_time":1552308825491,"finger_time":1552308824511,"fix_duration":250,"trial":31,"RT":787,"MT":980,"sideResp":1,"stimulus":[],"xmouse":[838,838,838,837,835,834,834,834,833,833,832,832,832,831,831,831,831,831,831,831,831,831,831,831,831,831,831,831,831,831,831,831,831,831,831,831,830,825,815,790,779,772,769,767,764,758,748,736,704,693,684,678,673,668,664,659,652,636,610,598,587,578,572,571,571,571,571,571,571,570,566,560,548,527,523,519,519,519,519,519,519,519,519,520,520,520,520,519,510],"ymouse":[624,624,624,624,624,625,625,625,625,625,625,625,625,625,625,625,625,625,625,625,625,625,625,625,625,625,625,625,625,625,625,625,625,625,625,625,623,616,597,549,529,516,511,508,505,500,491,481,453,445,438,433,429,422,416,405,394,369,339,327,317,310,305,304,304,304,304,304,304,299,284,262,234,183,168,158,152,149,146,144,142,141,139,132,129,124,113,101,81],"timestamp_mouse":[10,41,47,67,87,107,129,148,167,188,208,228,248,268,287,309,327,348,368,387,408,428,447,467,488,508,527,547,567,589,608,627,647,667,687,707,727,748,767,787,807,827,847,867,887,908,928,948,967,988,1008,1027,1047,1067,1087,1107,1128,1147,1167,1187,1208,1227,1248,1267,1287,1307,1328,1348,1368,1388,1407,1427,1448,1467,1487,1508,1527,1548,1567,1588,1607,1628,1648,1667,1687,1708,1728,1747,1767],"xSR":741.5,"ySR":573.95,"xT1":424.9,"yT1":0,"xT2":1058.1,"yT2":0,"toosoon":0,"cond_shown":"Incongruent","ratio_trial":200,"L_num":1,"L_den":3,"R_num":2,"R_den":15,"correct_side":1,"subjID":"AlejandroFajardo32","gender":"0","school":"4","age":"9"},{"start_time":1552308827732,"click_time":1552308829893,"finger_time":1552308829212,"fix_duration":617.3018048715705,"trial":32,"RT":1480,"MT":681,"sideResp":2,"stimulus":[],"xmouse":[796,796,796,796,796,796,796,796,796,796,796,796,796,796,796,796,796,796,796,796,796,796,796,796,796,796,796,796,796,796,796,796,796,796,796,796,796,796,796,796,796,796,796,796,796,796,796,796,796,796,796,796,796,796,796,796,796,796,796,796,796,796,796,796,796,796,796,796,796,796,796,800,805,818,864,883,898,915,936,941,948,953,958,964,980,998,1010,1023,1032,1038,1043,1050,1057,1066,1078,1079,1080,1081,1081,1081,1084,1088,1092,1101,1101,1101,1101,1101,1103],"ymouse":[648,648,648,648,648,648,648,648,648,648,648,648,648,648,648,648,648,648,648,648,648,648,648,648,648,648,648,648,648,648,648,648,648,648,648,648,648,648,648,648,648,648,648,648,648,648,648,648,648,648,648,648,648,648,648,648,648,648,648,648,648,648,648,648,648,648,648,648,648,648,648,646,643,633,593,579,566,554,540,537,534,530,527,523,511,491,470,439,409,363,344,323,297,268,225,220,218,216,216,214,205,191,177,140,125,113,106,101,93],"timestamp_mouse":[2,20,40,61,80,100,120,139,160,180,199,220,240,259,279,300,319,340,360,379,400,421,439,460,480,499,519,539,559,579,600,619,640,659,680,701,720,739,760,779,800,819,840,859,880,899,919,940,959,979,999,1020,1039,1059,1079,1099,1120,1140,1159,1179,1199,1219,1240,1260,1279,1299,1319,1339,1359,1380,1400,1420,1439,1459,1480,1500,1519,1540,1561,1579,1600,1620,1641,1660,1680,1700,1720,1740,1759,1779,1799,1819,1840,1860,1880,1900,1919,1940,1960,1980,2000,2020,2039,2061,2079,2099,2119,2139,2160],"xSR":741.5,"ySR":573.95,"xT1":424.9,"yT1":0,"xT2":1058.1,"yT2":0,"toosoon":0,"cond_shown":"Congruent","ratio_trial":100,"L_num":10,"L_den":25,"R_num":3,"R_den":10,"correct_side":1,"subjID":"AlejandroFajardo32","gender":"0","school":"4","age":"9"},{"start_time":1552308833450,"click_time":1552308834772,"finger_time":1552308834311,"fix_duration":1237.5878055143753,"trial":33,"RT":861,"MT":461,"sideResp":2,"stimulus":[],"xmouse":[814,814,814,814,814,814,814,814,814,814,814,814,814,814,814,814,814,814,814,814,814,814,814,814,814,814,814,814,814,814,814,814,814,814,814,814,814,814,814,814,814,815,819,876,889,901,917,928,949,956,965,974,985,1010,1023,1037,1053,1076,1105,1116,1124,1131,1137,1144,1146,1148,1149],"ymouse":[622,622,622,622,622,622,622,622,622,622,622,622,622,622,622,622,622,622,622,622,622,622,622,622,622,622,622,622,622,622,622,622,622,622,622,622,622,622,622,622,622,622,618,552,528,513,497,487,470,462,450,440,425,397,378,357,331,278,211,185,166,150,137,120,113,104,94],"timestamp_mouse":[9,21,43,62,81,101,121,140,163,182,201,222,241,262,282,301,322,342,362,380,402,422,441,461,481,501,522,541,561,581,601,621,642,662,682,702,722,742,761,782,801,821,841,861,881,902,922,942,961,982,1001,1022,1042,1062,1081,1102,1121,1142,1161,1181,1200,1221,1241,1262,1281,1301,1322],"xSR":741.5,"ySR":573.95,"xT1":424.9,"yT1":0,"xT2":1058.1,"yT2":0,"toosoon":0,"cond_shown":"Congruent","ratio_trial":300,"L_num":11,"L_den":22,"R_num":2,"R_den":10,"correct_side":1,"subjID":"AlejandroFajardo32","gender":"0","school":"4","age":"9"},{"start_time":1552308836409,"click_time":1552308837972,"finger_time":1552308837331,"fix_duration":395.2867936622557,"trial":34,"RT":922,"MT":641,"sideResp":1,"stimulus":[],"xmouse":[773,773,773,773,773,773,774,777,780,782,783,784,785,786,786,786,786,786,786,786,786,786,786,786,786,786,786,786,786,786,786,786,786,786,786,786,785,781,779,777,777,777,777,777,777,768,760,739,725,713,706,706,706,706,706,706,706,706,706,706,706,706,706,706,706,706,705,701,688,670,618,596,585,576,570,553,536,517,493],"ymouse":[658,658,658,658,658,658,658,658,656,655,654,653,652,650,650,650,650,650,650,650,650,650,650,650,650,650,650,650,650,650,650,650,650,650,649,636,627,617,611,608,606,606,606,606,599,580,563,533,515,500,489,489,489,489,489,489,489,489,489,489,489,489,489,489,489,489,483,458,423,382,294,261,240,222,201,160,133,105,74],"timestamp_mouse":[11,22,43,66,83,102,122,142,162,182,202,222,243,262,282,303,323,342,362,383,403,422,443,463,483,502,523,543,562,582,603,622,641,663,683,702,722,743,763,783,803,823,841,863,883,902,922,942,963,982,1003,1022,1043,1062,1082,1103,1123,1143,1163,1183,1203,1222,1242,1263,1283,1303,1323,1342,1363,1383,1402,1422,1442,1461,1482,1503,1522,1542,1563],"xSR":741.5,"ySR":573.95,"xT1":424.9,"yT1":0,"xT2":1058.1,"yT2":0,"toosoon":0,"cond_shown":"Incongruent","ratio_trial":200,"L_num":3,"L_den":10,"R_num":1,"R_den":2,"correct_side":2,"subjID":"AlejandroFajardo32","gender":"0","school":"4","age":"9"},{"start_time":1552308840639,"click_time":1552308842671,"finger_time":1552308841831,"fix_duration":1446.6902734633277,"trial":35,"RT":1192,"MT":840,"sideResp":1,"stimulus":[],"xmouse":[782,782,782,782,782,782,782,782,782,782,782,782,782,782,782,782,782,782,782,782,782,782,782,782,782,782,782,782,782,782,782,782,782,782,782,782,782,782,779,773,771,771,771,771,771,771,771,771,771,771,771,771,771,771,771,771,771,771,768,747,735,716,712,697,679,669,657,643,631,607,598,591,584,581,574,568,561,556,550,546,544,542,539,534,529,528,528,528,528,528,528,528,528,528,528,528,528,528,528,528,527,523],"ymouse":[632,632,632,632,632,632,632,632,632,632,632,632,632,632,632,632,632,632,632,632,632,632,632,632,632,632,632,632,632,632,632,632,632,632,632,632,632,632,632,634,634,634,634,634,634,634,634,634,634,634,634,634,634,634,634,634,627,607,575,494,464,431,422,399,360,336,311,287,268,233,223,215,206,202,192,184,173,164,154,141,134,122,103,76,60,60,60,60,60,60,60,60,60,60,60,60,60,60,60,60,59,59],"timestamp_mouse":[16,47,52,72,93,113,132,153,172,191,213,233,253,273,293,312,332,352,373,393,411,433,453,473,493,512,533,553,572,592,612,633,653,672,693,713,732,753,771,792,812,832,852,871,892,912,932,952,972,993,1012,1032,1053,1073,1093,1113,1133,1152,1173,1192,1212,1232,1253,1272,1293,1313,1332,1351,1373,1392,1412,1433,1452,1472,1492,1512,1532,1552,1572,1593,1613,1632,1653,1672,1692,1713,1732,1753,1772,1792,1813,1832,1853,1872,1892,1912,1932,1953,1973,1993,2012,2032],"xSR":741.5,"ySR":573.95,"xT1":424.9,"yT1":0,"xT2":1058.1,"yT2":0,"toosoon":0,"cond_shown":"Incongruent","ratio_trial":200,"L_num":4,"L_den":6,"R_num":14,"R_den":30,"correct_side":1,"subjID":"AlejandroFajardo32","gender":"0","school":"4","age":"9"},{"start_time":1552308850152,"click_time":1552308853012,"finger_time":1552308851851,"fix_duration":879.0465687293055,"trial":36,"RT":1699,"MT":1161,"sideResp":2,"stimulus":[],"xmouse":[769,769,769,769,769,769,769,769,769,769,769,769,769,769,769,769,769,769,769,769,769,769,769,769,769,769,769,769,769,769,769,769,769,769,769,769,769,769,769,769,769,769,769,769,769,769,769,769,769,769,769,769,769,769,769,769,769,769,769,769,769,769,769,769,769,769,769,769,769,769,769,769,769,769,769,769,769,769,769,769,769,769,768,755,725,716,712,709,708,705,701,698,697,691,684,683,679,673,665,649,639,629,617,591,573,539,526,517,510,506,506,506,506,506,506,505,505,505,506,555,605,703,736,839,956,1000,1035,1066,1089,1114,1120,1122,1124,1126,1127,1126,1124,1122,1119,1118,1118,1118,1118],"ymouse":[654,654,654,654,654,654,654,654,654,654,654,654,654,654,654,654,654,654,654,654,654,654,654,654,654,654,654,654,654,654,654,654,654,654,654,654,654,654,654,654,654,654,654,654,654,654,654,654,654,654,654,654,654,654,654,654,654,654,654,654,654,654,654,654,654,654,654,654,654,654,654,654,654,654,654,654,654,654,654,654,654,654,652,639,621,614,610,607,606,597,590,585,583,573,562,556,549,534,520,485,463,439,417,379,354,308,290,278,267,261,261,261,260,260,258,253,250,247,243,237,234,234,234,234,234,234,234,234,233,224,219,213,207,196,171,159,145,131,121,111,108,103,93],"timestamp_mouse":[20,43,60,79,100,120,139,160,179,199,219,238,260,280,299,319,340,359,379,399,420,440,460,480,499,520,539,558,580,600,619,640,659,679,700,719,739,760,780,800,820,839,860,878,899,920,939,960,979,1000,1020,1039,1060,1079,1100,1119,1140,1160,1179,1200,1220,1240,1260,1279,1300,1320,1340,1360,1379,1400,1419,1440,1459,1479,1499,1520,1540,1559,1579,1600,1619,1639,1660,1680,1699,1720,1740,1759,1779,1799,1820,1839,1859,1880,1899,1920,1939,1960,1980,1999,2019,2039,2059,2079,2099,2120,2140,2159,2179,2199,2219,2239,2260,2280,2299,2319,2340,2360,2379,2399,2419,2440,2460,2479,2499,2520,2539,2560,2580,2599,2619,2640,2660,2679,2699,2719,2739,2759,2779,2799,2819,2839,2859],"xSR":741.5,"ySR":573.95,"xT1":424.9,"yT1":0,"xT2":1058.1,"yT2":0,"toosoon":0,"cond_shown":"Incongruent","ratio_trial":100,"L_num":11,"L_den":22,"R_num":9,"R_den":15,"correct_side":2,"subjID":"AlejandroFajardo32","gender":"0","school":"4","age":"9"},{"start_time":1552308856842,"click_time":1552308858611,"finger_time":1552308858432,"fix_duration":368.8415610751368,"trial":37,"RT":1590,"MT":179,"sideResp":1,"stimulus":[],"xmouse":[778,778,778,778,778,778,778,778,778,778,778,778,778,778,778,778,778,778,778,778,778,778,778,778,778,778,778,778,778,778,778,778,778,778,778,778,778,778,778,778,778,778,778,778,778,778,778,778,778,778,778,778,778,778,778,778,778,778,778,778,778,778,778,778,778,778,778,778,778,778,778,778,778,778,778,778,778,778,778,778,766,710,670,624,580,548,489,477,468],"ymouse":[601,601,601,601,601,601,601,601,601,601,601,601,601,601,601,601,601,601,601,601,601,601,601,601,601,601,601,601,601,601,601,601,601,601,601,601,601,601,601,601,601,601,601,601,601,601,601,601,601,601,601,601,601,601,601,601,601,601,601,601,601,601,601,601,601,601,601,601,601,601,601,601,601,601,601,601,601,601,594,572,539,419,352,294,243,205,122,101,80],"timestamp_mouse":[13,45,50,69,89,110,129,150,170,189,209,229,249,269,290,310,330,349,369,390,409,429,449,470,489,510,529,549,569,589,609,630,650,670,690,709,730,749,769,790,809,830,849,870,890,910,930,949,970,988,1010,1029,1049,1070,1089,1110,1129,1149,1168,1190,1209,1229,1249,1270,1290,1309,1330,1350,1370,1389,1409,1429,1449,1470,1489,1509,1531,1549,1569,1590,1609,1630,1650,1670,1689,1709,1729,1749,1769],"xSR":741.5,"ySR":573.95,"xT1":424.9,"yT1":0,"xT2":1058.1,"yT2":0,"toosoon":0,"cond_shown":"Congruent","ratio_trial":100,"L_num":3,"L_den":20,"R_num":4,"R_den":16,"correct_side":2,"subjID":"AlejandroFajardo32","gender":"0","school":"4","age":"9"},{"start_time":1552308860891,"click_time":1552308863251,"finger_time":1552308862592,"fix_duration":638.5005293744136,"trial":38,"RT":1701,"MT":659,"sideResp":2,"stimulus":[],"xmouse":[782,782,782,782,782,782,782,782,782,782,782,782,782,782,782,782,782,782,782,782,782,782,782,782,782,782,782,782,782,782,782,782,782,782,782,782,782,782,782,782,782,782,782,782,782,782,782,782,782,782,782,782,782,782,782,782,782,782,782,782,782,782,782,782,782,782,782,782,782,782,782,782,782,782,782,782,782,782,782,782,782,782,782,783,796,805,815,825,832,839,840,840,840,840,840,839,839,839,839,839,840,844,855,865,885,896,909,919,931,959,974,990,1010,1018,1027,1039,1047,1052,1059],"ymouse":[621,621,621,621,621,621,621,621,621,621,621,621,621,621,621,621,621,621,621,621,621,621,621,621,621,621,621,621,621,621,621,621,621,621,621,621,621,621,621,621,621,621,621,621,621,621,621,621,621,621,621,621,621,621,621,621,621,621,621,621,621,621,621,621,621,621,621,621,621,621,621,621,621,621,621,621,621,621,621,621,621,621,621,619,589,567,543,521,500,475,470,469,468,466,463,459,458,456,455,452,447,438,419,403,366,346,325,307,290,251,230,209,176,161,145,110,90,69,44],"timestamp_mouse":[9,34,39,61,80,100,120,140,161,180,201,220,241,261,281,301,321,340,361,381,401,420,440,461,480,501,521,539,561,581,600,621,640,660,680,700,720,741,761,781,800,820,841,861,880,901,921,940,961,981,1001,1021,1040,1060,1080,1100,1121,1141,1160,1180,1200,1221,1240,1260,1280,1300,1321,1341,1361,1380,1400,1421,1441,1460,1482,1501,1521,1540,1560,1580,1600,1621,1640,1661,1680,1701,1720,1741,1760,1780,1800,1821,1841,1861,1881,1900,1921,1940,1960,1981,2000,2021,2040,2061,2080,2100,2120,2141,2161,2180,2200,2220,2240,2260,2280,2300,2320,2341,2360],"xSR":741.5,"ySR":573.95,"xT1":424.9,"yT1":0,"xT2":1058.1,"yT2":0,"toosoon":0,"cond_shown":"Incongruent","ratio_trial":100,"L_num":10,"L_den":25,"R_num":8,"R_den":16,"correct_side":2,"subjID":"AlejandroFajardo32","gender":"0","school":"4","age":"9"},{"start_time":1552308867228,"click_time":1552308868832,"finger_time":1552308868352,"fix_duration":616.5546983198989,"trial":39,"RT":1124,"MT":480,"sideResp":1,"stimulus":[],"xmouse":[811,811,811,811,811,811,811,811,811,811,811,811,811,811,811,811,811,811,811,811,811,811,811,811,811,811,811,811,811,811,811,811,811,811,811,811,811,811,811,811,811,811,811,811,811,811,811,811,811,811,811,811,811,811,811,805,792,772,751,739,732,724,718,706,699,689,681,674,664,659,656,651,649,640,634,627,618,602,556,532,514],"ymouse":[588,588,588,588,588,588,588,588,588,588,588,588,588,588,588,588,588,588,588,588,588,588,588,588,588,588,588,588,588,588,588,588,588,588,588,588,588,588,588,588,588,588,588,588,588,588,588,588,588,588,588,588,588,587,585,575,546,500,435,411,393,371,356,323,307,284,265,248,225,214,206,194,191,178,170,162,148,129,93,79,66],"timestamp_mouse":[9,40,44,63,84,103,123,144,164,184,204,223,243,263,282,304,323,344,364,383,404,424,443,464,483,503,523,544,562,583,603,624,644,663,683,703,724,744,764,784,803,823,843,864,883,904,924,944,964,983,1003,1024,1044,1063,1084,1104,1124,1144,1163,1183,1203,1224,1243,1262,1284,1303,1324,1344,1363,1383,1403,1424,1443,1463,1484,1503,1524,1543,1564,1583,1604],"xSR":741.5,"ySR":573.95,"xT1":424.9,"yT1":0,"xT2":1058.1,"yT2":0,"toosoon":0,"cond_shown":"Incongruent","ratio_trial":200,"L_num":1,"L_den":2,"R_num":3,"R_den":10,"correct_side":1,"subjID":"AlejandroFajardo32","gender":"0","school":"4","age":"9"},{"start_time":1552308871413,"click_time":1552308874012,"finger_time":1552308873051,"fix_duration":720.2746633591482,"trial":40,"RT":1638,"MT":961,"sideResp":2,"stimulus":[],"xmouse":[817,817,817,817,817,817,817,817,817,817,817,817,817,817,817,817,817,817,817,817,817,817,817,817,817,817,817,817,817,817,817,817,817,817,817,817,817,817,817,817,817,817,817,817,817,817,817,817,817,817,817,817,817,817,817,817,817,817,817,817,817,817,817,817,817,817,817,817,817,817,817,817,817,817,817,817,817,817,817,814,800,768,730,694,664,661,661,661,661,661,661,661,661,661,661,655,646,637,627,610,607,604,601,596,591,587,585,583,581,579,579,579,580,581,594,603,611,617,632,648,665,688,721,765,860,904,950,996,1037,1098],"ymouse":[628,628,628,628,628,628,628,628,628,628,628,628,628,628,628,628,628,628,628,628,628,628,628,628,628,628,628,628,628,628,628,628,628,628,628,628,628,628,628,628,628,628,628,628,628,628,628,628,628,628,628,628,628,628,628,628,628,628,628,628,628,628,628,628,628,628,628,628,628,628,628,628,628,628,628,628,628,628,628,627,602,554,499,458,429,427,427,427,427,427,427,427,427,426,421,411,396,378,362,330,322,316,307,296,284,275,268,263,255,244,241,237,236,229,207,195,184,177,162,156,150,144,135,122,95,82,70,56,45,29],"timestamp_mouse":[19,42,58,79,99,119,139,158,178,199,219,238,258,278,299,318,338,359,379,398,418,438,458,478,498,518,538,558,578,598,618,639,658,679,698,718,739,758,779,799,818,839,858,878,898,918,938,959,978,998,1019,1038,1059,1078,1098,1119,1139,1158,1179,1198,1218,1238,1259,1278,1299,1318,1339,1359,1378,1398,1419,1438,1459,1477,1497,1519,1539,1558,1579,1598,1617,1638,1659,1678,1699,1718,1738,1759,1778,1799,1818,1839,1858,1879,1899,1919,1938,1958,1980,1999,2018,2038,2059,2078,2099,2118,2139,2158,2179,2197,2219,2239,2258,2279,2299,2318,2339,2359,2380,2399,2418,2438,2459,2479,2499,2518,2539,2558,2579,2599],"xSR":741.5,"ySR":573.95,"xT1":424.9,"yT1":0,"xT2":1058.1,"yT2":0,"toosoon":0,"cond_shown":"Incongruent","ratio_trial":200,"L_num":7,"L_den":15,"R_num":6,"R_den":9,"correct_side":2,"subjID":"AlejandroFajardo32","gender":"0","school":"4","age":"9"},{"start_time":1552308877266,"click_time":1552308878832,"finger_time":1552308878131,"fix_duration":1352.490834680369,"trial":41,"RT":865,"MT":701,"sideResp":2,"stimulus":[],"xmouse":[789,789,789,789,789,789,789,789,789,789,789,789,789,789,789,789,789,789,789,789,789,789,789,789,789,789,789,789,789,789,789,789,789,789,789,789,788,785,785,785,785,785,785,785,785,785,782,781,781,781,781,782,782,782,782,782,782,782,782,782,782,782,782,788,794,803,808,813,821,838,864,891,915,959,985,1003,1021,1059,1075],"ymouse":[630,630,630,630,630,630,630,630,630,630,630,630,630,630,630,630,630,630,630,630,630,630,630,630,630,630,630,630,630,630,630,630,630,630,627,622,615,602,598,596,592,587,574,539,509,403,350,316,310,310,310,309,309,309,309,308,308,308,308,308,308,308,308,301,295,288,285,281,272,255,234,211,193,162,144,133,123,101,92],"timestamp_mouse":[9,25,45,65,86,107,125,145,165,186,206,224,245,265,286,306,326,346,366,385,405,425,446,465,486,506,524,546,565,586,606,626,645,665,685,705,725,745,766,786,806,825,845,865,886,906,925,945,965,986,1006,1025,1045,1065,1086,1105,1125,1145,1166,1185,1205,1225,1246,1265,1285,1306,1326,1346,1364,1385,1405,1425,1445,1466,1485,1505,1525,1545,1566],"xSR":741.5,"ySR":573.95,"xT1":424.9,"yT1":0,"xT2":1058.1,"yT2":0,"toosoon":0,"cond_shown":"Congruent","ratio_trial":300,"L_num":12,"L_den":24,"R_num":2,"R_den":10,"correct_side":1,"subjID":"AlejandroFajardo32","gender":"0","school":"4","age":"9"},{"start_time":1552308880992,"click_time":1552308883952,"finger_time":1552308882871,"fix_duration":799.3843101382618,"trial":42,"RT":1879,"MT":1081,"sideResp":2,"stimulus":[],"xmouse":[797,797,797,797,797,797,797,797,797,797,797,797,797,797,797,797,797,797,797,797,797,797,797,797,797,797,797,797,797,797,797,797,797,797,797,797,797,797,797,797,797,797,797,797,797,797,797,797,797,797,797,797,797,797,797,797,797,797,797,797,797,797,797,797,797,797,797,797,797,797,797,797,797,797,797,797,797,797,797,797,797,797,797,797,797,797,797,797,797,797,797,798,813,832,854,885,909,934,936,937,938,941,949,954,961,971,980,1001,1007,1012,1016,1023,1033,1040,1046,1052,1058,1074,1081,1087,1091,1095,1101,1104,1107,1108,1109,1111,1113,1114,1115,1116,1118,1118,1118,1118,1118,1118,1118,1118,1118,1118,1118,1118,1118,1118,1118,1118,1118],"ymouse":[610,610,610,610,610,610,610,610,610,610,610,610,610,610,610,610,610,610,610,610,610,610,610,610,610,610,610,610,610,610,610,610,610,610,610,610,610,610,610,610,610,610,610,610,610,610,610,610,610,610,610,610,610,610,610,610,610,610,610,610,610,610,610,610,610,610,610,610,610,610,610,610,610,610,610,610,610,610,610,610,610,610,610,610,610,610,610,610,610,610,610,606,597,588,577,562,552,536,534,531,527,522,504,489,471,449,426,378,364,351,341,328,304,294,283,273,261,227,217,207,201,194,181,173,167,164,158,151,146,142,137,131,128,127,126,125,124,124,124,124,124,124,124,124,124,123,119,102,97],"timestamp_mouse":[1,26,39,60,79,99,119,139,160,179,199,219,239,259,280,300,319,340,360,380,400,419,438,460,480,499,518,540,559,580,599,618,640,660,680,699,720,739,759,779,800,820,840,859,880,900,919,939,960,979,1000,1020,1039,1060,1080,1099,1119,1139,1160,1179,1199,1220,1240,1259,1279,1300,1319,1338,1360,1380,1399,1419,1440,1458,1479,1499,1520,1539,1560,1579,1599,1619,1640,1659,1679,1700,1719,1740,1760,1779,1799,1819,1840,1859,1879,1900,1920,1939,1959,1979,1999,2019,2040,2059,2079,2099,2120,2139,2159,2179,2200,2219,2240,2260,2280,2299,2319,2340,2360,2379,2399,2419,2440,2459,2480,2499,2519,2539,2559,2579,2600,2620,2639,2659,2679,2699,2719,2739,2759,2780,2798,2819,2839,2859,2879,2900,2919,2939,2959],"xSR":741.5,"ySR":573.95,"xT1":424.9,"yT1":0,"xT2":1058.1,"yT2":0,"toosoon":0,"cond_shown":"Incongruent","ratio_trial":200,"L_num":7,"L_den":15,"R_num":6,"R_den":9,"correct_side":2,"subjID":"AlejandroFajardo32","gender":"0","school":"4","age":"9"},{"start_time":1552308887513,"click_time":1552308890092,"finger_time":1552308889071,"fix_duration":1279.8268865958187,"trial":43,"RT":1558,"MT":1021,"sideResp":2,"stimulus":[],"xmouse":[810,810,810,810,810,810,810,810,810,810,810,810,810,810,810,810,810,810,810,810,810,810,810,810,810,810,810,810,810,810,810,810,810,810,810,810,810,810,810,810,810,810,810,810,810,810,810,810,810,810,810,810,810,810,810,810,810,810,810,810,809,803,798,797,797,797,797,797,797,797,797,797,797,797,797,798,813,835,854,872,889,905,932,940,947,953,975,997,1011,1026,1046,1081,1093,1098,1100,1102,1106,1106,1107,1107,1107,1107,1104,1104,1103,1102,1102,1102,1102,1102,1102,1102,1101,1100,1100,1100,1100,1100,1100,1100,1100,1100,1100,1100,1100,1100,1100,1097,1083,1074],"ymouse":[642,642,642,642,642,642,642,642,642,642,642,642,642,642,642,642,642,642,642,642,642,642,642,642,642,642,642,642,642,642,642,642,642,642,642,642,642,642,642,642,642,642,642,642,642,642,642,642,642,642,642,642,642,642,642,642,642,642,642,642,642,643,643,644,644,644,644,644,644,644,644,644,644,644,644,644,633,624,618,610,603,596,582,578,575,570,543,504,476,444,405,321,287,264,247,232,205,195,184,176,170,165,156,153,150,146,143,141,140,140,140,138,136,133,131,130,130,130,130,130,130,130,130,130,130,130,130,127,108,97],"timestamp_mouse":[1,18,39,65,78,98,119,139,158,177,198,219,237,258,278,299,319,339,357,378,399,419,438,458,479,499,519,539,559,579,599,619,639,659,679,698,719,739,758,779,798,819,839,858,878,898,918,938,959,979,998,1018,1038,1059,1078,1099,1118,1138,1159,1178,1198,1218,1239,1257,1278,1299,1318,1338,1358,1377,1398,1419,1438,1458,1477,1499,1518,1539,1558,1578,1599,1618,1638,1659,1679,1698,1719,1738,1758,1779,1798,1819,1838,1858,1879,1899,1919,1938,1958,1979,1999,2018,2038,2058,2078,2098,2118,2138,2159,2178,2198,2220,2237,2258,2278,2298,2319,2338,2358,2378,2398,2418,2438,2459,2479,2499,2519,2538,2558,2579],"xSR":741.5,"ySR":573.95,"xT1":424.9,"yT1":0,"xT2":1058.1,"yT2":0,"toosoon":0,"cond_shown":"Incongruent","ratio_trial":300,"L_num":8,"L_den":10,"R_num":14,"R_den":28,"correct_side":1,"subjID":"AlejandroFajardo32","gender":"0","school":"4","age":"9"},{"start_time":1552308895211,"click_time":1552308896851,"finger_time":1552308896511,"fix_duration":737.5983957129172,"trial":44,"RT":1300,"MT":340,"sideResp":1,"stimulus":[],"xmouse":[798,798,798,798,798,798,798,798,798,798,798,798,798,798,798,798,798,798,798,798,798,798,798,798,798,798,798,798,798,798,798,798,798,798,798,798,798,798,798,798,798,798,798,798,798,798,798,798,798,798,798,798,798,798,798,798,798,797,796,795,795,794,794,794,790,770,740,687,670,663,658,656,654,644,635,624,615,594,586,579,569,549,522],"ymouse":[651,651,651,651,651,651,651,651,651,651,651,651,651,651,651,651,651,651,651,651,651,651,651,651,651,651,651,651,651,651,651,651,651,651,651,651,651,651,651,651,651,651,651,651,651,651,651,651,651,651,651,651,651,651,651,651,649,646,643,642,641,638,633,630,593,518,450,359,334,319,299,288,274,243,225,208,191,159,149,142,132,117,94],"timestamp_mouse":[9,21,41,72,79,101,120,140,160,180,199,221,239,261,280,301,320,339,359,381,401,420,439,461,481,499,521,540,560,581,600,620,641,660,681,700,720,741,760,780,799,819,841,860,880,900,920,940,960,981,1000,1020,1041,1060,1081,1100,1120,1141,1161,1180,1200,1221,1240,1261,1281,1300,1320,1339,1360,1381,1400,1420,1440,1461,1481,1501,1520,1540,1561,1581,1601,1621,1639],"xSR":741.5,"ySR":573.95,"xT1":424.9,"yT1":0,"xT2":1058.1,"yT2":0,"toosoon":0,"cond_shown":"Incongruent","ratio_trial":300,"L_num":8,"L_den":10,"R_num":9,"R_den":18,"correct_side":1,"subjID":"AlejandroFajardo32","gender":"0","school":"4","age":"9"},{"start_time":1552308901243,"click_time":1552308903112,"finger_time":1552308902731,"fix_duration":1309.1063836873388,"trial":45,"RT":1488,"MT":381,"sideResp":1,"stimulus":[],"xmouse":[808,808,808,808,808,808,808,808,808,808,808,808,808,808,808,808,808,808,808,808,808,808,808,808,808,808,808,808,808,808,808,808,808,808,808,808,807,806,806,806,805,804,804,804,804,804,804,804,804,804,804,804,804,804,804,804,804,804,804,804,804,804,804,804,804,804,804,804,804,804,804,804,823,837,859,862,862,856,850,846,843,836,835,834,828,821,795,779,758,728,692,612,571,521],"ymouse":[647,647,647,647,647,647,647,647,647,647,647,647,647,647,647,647,647,647,647,647,647,647,647,647,647,647,647,647,647,647,647,647,647,647,647,647,646,646,650,653,657,659,659,659,659,659,659,659,659,659,659,659,659,659,659,659,659,659,659,659,659,659,659,659,659,659,659,659,659,659,659,659,641,624,562,512,427,402,384,370,358,341,335,328,313,300,275,263,249,228,202,145,117,83],"timestamp_mouse":[9,28,54,68,88,109,129,149,169,18