[{"start_time":1552313762674,"click_time":1552313764694,"finger_time":1552313762953,"fix_duration":735.1669049855747,"trial":0,"RT":279,"MT":1741,"sideResp":2,"stimulus":"img/750/equaldotsize/L/1_Ratio_750_L_20_R_15.png","xmouse":[797,797,797,797,798,799,799,799,799,799,799,799,799,800,800,800,800,800,800,801,801,801,801,801,801,800,800,800,800,800,800,800,800,800,800,798,797,793,785,774,752,744,737,733,727,705,687,670,655,644,615,588,568,549,537,526,525,525,525,525,546,581,616,660,706,787,814,837,854,865,887,901,912,921,932,947,951,955,958,962,976,985,990,997,1005,1020,1024,1028,1032,1037,1045,1048,1048,1048,1048,1048,1048,1049,1051,1054,1057,1066],"ymouse":[502,502,500,494,490,486,486,486,486,486,486,485,480,473,462,445,439,435,432,428,425,415,407,402,398,394,392,392,392,392,392,392,392,392,392,390,389,385,380,372,359,352,346,343,339,326,319,312,305,299,283,269,256,244,235,227,226,226,226,226,236,251,261,274,284,294,294,294,294,292,281,271,264,260,256,247,243,237,233,229,213,200,191,181,173,154,148,142,138,134,124,119,114,109,106,101,98,95,91,86,81,68],"timestamp_mouse":[11,19,38,59,79,99,119,140,159,178,198,219,239,260,279,301,318,339,359,379,399,420,438,458,479,500,520,538,559,580,600,620,638,659,678,699,719,739,758,779,800,818,838,859,879,899,919,939,959,978,1000,1018,1039,1060,1079,1100,1119,1139,1159,1180,1200,1218,1238,1259,1278,1300,1318,1339,1359,1380,1400,1419,1440,1459,1479,1499,1519,1540,1560,1579,1599,1619,1639,1660,1679,1700,1718,1739,1760,1780,1800,1819,1839,1859,1879,1900,1918,1939,1959,1980,1999,2020],"xSR":741.5,"ySR":469.95,"xT1":424.9,"yT1":0,"xT2":1058.1,"yT2":0,"toosoon":0,"cond_shown":"equaldotsize","ratio_trial":750,"smaller_num":"15","larger_num":"20","correct_side":1,"subjID":"JACOBO DÍAZ SEGURA 5","gender":"0","age":"9","school":"4","test":{"fix_dur":[250,1500],"timestim":300,"targets_dim":[100,100],"targets_relative_coord":[0.3,0.7],"size_stim":[880,420],"start_dim":[100,100],"size_start":[300,300],"size_fix":60,"samplingrate":20,"img_types":["equaldotsize","equaldotanddens","randomdotsizeEA"],"ratios":[250,500,750,900],"rep_conds":9,"nTrials":120,"trials_to_rest":500,"Trials_order":[30,78,26,13,111,80,116,55,60,105,87,63,71,15,75,115,54,69,42,92,79,73,58,114,53,68,65,24,22,70,86,104,64,118,29,112,88,28,93,41,14,96,16,19,52,8,23,34,50,31,45,108,97,7,0,99,27,59,33,100,40,66,5,76,2,37,56,89,98,46,81,32,38,51,84,43,49,110,44,48,77,109,74,47,102,10,67,90,61,83,62,39,17,101,103,119,91,72,94,82,12,35,1,106,117,25,3,9,95,21,85,6,20,107,36,113,57,4,18,11],"cond_shown":["equaldotsize","equaldotsize","randomdotsizeEA","equaldotanddens","equaldotsize","randomdotsizeEA","randomdotsizeEA","equaldotanddens","equaldotsize","equaldotsize","equaldotsize","equaldotsize","randomdotsizeEA","equaldotsize","equaldotsize","equaldotanddens","equaldotsize","equaldotsize","equaldotsize","randomdotsizeEA","equaldotanddens","equaldotanddens","equaldotanddens","equaldotsize","randomdotsizeEA","randomdotsizeEA","randomdotsizeEA","equaldotsize","equaldotanddens","equaldotanddens","randomdotsizeEA","randomdotsizeEA","equaldotanddens","equaldotanddens","randomdotsizeEA","equaldotanddens","equaldotanddens","equaldotanddens","equaldotsize","randomdotsizeEA","randomdotsizeEA","equaldotsize","equaldotanddens","equaldotanddens","equaldotanddens","randomdotsizeEA","randomdotsizeEA","equaldotanddens","randomdotsizeEA","equaldotanddens","equaldotsize","equaldotsize","equaldotanddens","equaldotanddens","equaldotsize","equaldotsize","equaldotsize","randomdotsizeEA","equaldotsize","equaldotanddens","equaldotanddens","equaldotsize","randomdotsizeEA","equaldotanddens","randomdotsizeEA","equaldotanddens","randomdotsizeEA","randomdotsizeEA","randomdotsizeEA","equaldotanddens","equaldotsize","randomdotsizeEA","randomdotsizeEA","equaldotsize","equaldotsize","equaldotanddens","equaldotanddens","randomdotsizeEA","randomdotsizeEA","equaldotsize","randomdotsizeEA","equaldotanddens","randomdotsizeEA","randomdotsizeEA","equaldotsize","equaldotanddens","equaldotanddens","equaldotsize","equaldotanddens","randomdotsizeEA","randomdotsizeEA","equaldotsize","randomdotsizeEA","randomdotsizeEA","equaldotanddens","randomdotsizeEA","equaldotanddens","equaldotsize","equaldotanddens","equaldotanddens","equaldotsize","randomdotsizeEA","equaldotanddens","equaldotanddens","equaldotsize","equaldotanddens","equaldotsize","equaldotsize","randomdotsizeEA","equaldotsize","equaldotanddens","equaldotsize","randomdotsizeEA","randomdotsizeEA","equaldotsize","randomdotsizeEA","equaldotsize","equaldotanddens","equaldotsize","randomdotsizeEA"],"ratio_trial":[750,750,250,250,500,750,750,750,250,900,500,500,900,500,500,750,750,900,750,750,750,250,900,750,500,750,500,250,900,900,250,750,500,900,500,500,500,500,900,500,250,250,500,750,500,750,900,900,250,750,900,250,250,750,250,500,500,900,900,500,500,750,500,500,250,250,750,500,250,900,900,750,250,500,250,750,250,250,750,250,500,250,250,900,750,900,750,750,250,900,250,500,500,500,750,900,750,250,900,900,250,900,250,900,900,250,500,900,900,900,250,750,750,900,250,500,900,500,750,900],"smaller_num":["15","12","6","3","2","15","6","15","2","9","3","9","9","9","10","3","6","9","3","15","3","4","9","15","9","12","2","3","9","18","6","9","9","18","9","6","3","5","18","9","3","2","10","15","2","3","18","18","3","3","18","3","3","18","2","9","6","18","18","3","5","3","3","5","2","2","15","6","4","18","9","3","6","3","3","3","2","2","3","6","5","3","3","18","9","18","15","6","2","18","4","5","5","9","6","18","9","5","18","18","3","18","1","18","18","3","10","18","18","18","4","18","12","18","6","2","18","6","9","18"],"larger_num":["20","16","24","12","4","20","8","20","8","10","6","18","10","18","20","4","8","10","4","20","4","16","10","20","18","16","4","12","10","20","24","12","18","20","18","12","6","10","20","18","12","8","20","20","4","4","20","20","12","4","20","12","12","24","8","18","12","20","20","6","10","4","6","10","8","8","20","12","16","20","10","4","24","6","12","4","8","8","4","24","10","12","12","20","12","20","20","8","8","20","16","10","10","18","8","20","12","20","20","20","12","20","4","20","20","12","20","20","20","20","16","24","16","20","24","4","20","12","12","20"],"correct_side":[1,2,1,1,2,2,1,2,2,2,2,1,2,2,2,1,1,2,1,2,2,2,2,2,2,2,1,1,1,1,2,2,1,1,1,1,2,1,1,2,2,1,2,2,1,2,1,2,2,1,2,2,1,1,1,1,1,1,1,2,1,2,2,1,1,1,1,1,2,1,2,2,1,2,2,1,1,1,1,1,1,1,2,2,2,1,2,1,1,2,1,2,1,2,1,1,2,2,1,1,2,1,2,1,1,2,2,2,2,1,2,1,2,1,2,1,1,1,2,1],"img_shown":["img/750/equaldotsize/L/1_Ratio_750_L_20_R_15.png","img/750/equaldotsize/R/11_Ratio_750_L_12_R_16.png","img/250/randomdotsizeEA/L/5_Ratio_250_L_24_R_6.png","img/250/equaldotanddens/L/15_Ratio_250_L_12_R_3.png","img/500/equaldotsize/R/9_Ratio_500_L_2_R_4.png","img/750/randomdotsizeEA/R/3_Ratio_750_L_15_R_20.png","img/750/randomdotsizeEA/L/14_Ratio_750_L_8_R_6.png","img/750/equaldotanddens/R/4_Ratio_750_L_15_R_20.png","img/250/equaldotsize/R/13_Ratio_250_L_2_R_8.png","img/900/equaldotsize/R/15_Ratio_900_L_9_R_10.png","img/500/equaldotsize/R/2_Ratio_500_L_3_R_6.png","img/500/equaldotsize/L/4_Ratio_500_L_18_R_9.png","img/900/randomdotsizeEA/R/6_Ratio_900_L_9_R_10.png","img/500/equaldotsize/R/6_Ratio_500_L_9_R_18.png","img/500/equaldotsize/R/3_Ratio_500_L_10_R_20.png","img/750/equaldotanddens/L/8_Ratio_750_L_4_R_3.png","img/750/equaldotsize/L/13_Ratio_750_L_8_R_6.png","img/900/equaldotsize/R/7_Ratio_900_L_9_R_10.png","img/750/equaldotsize/L/8_Ratio_750_L_4_R_3.png","img/750/randomdotsizeEA/R/3_Ratio_750_L_15_R_20.png","img/750/equaldotanddens/R/12_Ratio_750_L_3_R_4.png","img/250/equaldotanddens/R/10_Ratio_250_L_4_R_16.png","img/900/equaldotanddens/R/6_Ratio_900_L_9_R_10.png","img/750/equaldotsize/R/3_Ratio_750_L_15_R_20.png","img/500/randomdotsizeEA/R/1_Ratio_500_L_9_R_18.png","img/750/randomdotsizeEA/R/11_Ratio_750_L_12_R_16.png","img/500/randomdotsizeEA/L/10_Ratio_500_L_4_R_2.png","img/250/equaldotsize/L/14_Ratio_250_L_12_R_3.png","img/900/equaldotanddens/L/1_Ratio_900_L_10_R_9.png","img/900/equaldotanddens/L/10_Ratio_900_L_20_R_18.png","img/250/randomdotsizeEA/R/6_Ratio_250_L_6_R_24.png","img/750/randomdotsizeEA/R/15_Ratio_750_L_9_R_12.png","img/500/equaldotanddens/L/4_Ratio_500_L_18_R_9.png","img/900/equaldotanddens/L/4_Ratio_900_L_20_R_18.png","img/500/randomdotsizeEA/L/4_Ratio_500_L_18_R_9.png","img/500/equaldotanddens/L/13_Ratio_500_L_12_R_6.png","img/500/equaldotanddens/R/2_Ratio_500_L_3_R_6.png","img/500/equaldotanddens/L/7_Ratio_500_L_10_R_5.png","img/900/equaldotsize/L/10_Ratio_900_L_20_R_18.png","img/500/randomdotsizeEA/R/6_Ratio_500_L_9_R_18.png","img/250/randomdotsizeEA/R/4_Ratio_250_L_3_R_12.png","img/250/equaldotsize/L/7_Ratio_250_L_8_R_2.png","img/500/equaldotanddens/R/3_Ratio_500_L_10_R_20.png","img/750/equaldotanddens/R/4_Ratio_750_L_15_R_20.png","img/500/equaldotanddens/L/10_Ratio_500_L_4_R_2.png","img/750/randomdotsizeEA/R/12_Ratio_750_L_3_R_4.png","img/900/randomdotsizeEA/L/10_Ratio_900_L_20_R_18.png","img/900/equaldotanddens/R/12_Ratio_900_L_18_R_20.png","img/250/randomdotsizeEA/R/9_Ratio_250_L_3_R_12.png","img/750/equaldotanddens/L/10_Ratio_750_L_4_R_3.png","img/900/equaldotsize/R/12_Ratio_900_L_18_R_20.png","img/250/equaldotsize/R/11_Ratio_250_L_3_R_12.png","img/250/equaldotanddens/L/15_Ratio_250_L_12_R_3.png","img/750/equaldotanddens/L/6_Ratio_750_L_24_R_18.png","img/250/equaldotsize/L/1_Ratio_250_L_8_R_2.png","img/500/equaldotsize/L/4_Ratio_500_L_18_R_9.png","img/500/equaldotsize/L/11_Ratio_500_L_12_R_6.png","img/900/randomdotsizeEA/L/10_Ratio_900_L_20_R_18.png","img/900/equaldotsize/L/10_Ratio_900_L_20_R_18.png","img/500/equaldotanddens/R/2_Ratio_500_L_3_R_6.png","img/500/equaldotanddens/L/7_Ratio_500_L_10_R_5.png","img/750/equaldotsize/R/7_Ratio_750_L_3_R_4.png","img/500/randomdotsizeEA/R/2_Ratio_500_L_3_R_6.png","img/500/equaldotanddens/L/7_Ratio_500_L_10_R_5.png","img/250/randomdotsizeEA/L/1_Ratio_250_L_8_R_2.png","img/250/equaldotanddens/L/7_Ratio_250_L_8_R_2.png","img/750/randomdotsizeEA/L/1_Ratio_750_L_20_R_15.png","img/500/randomdotsizeEA/L/13_Ratio_500_L_12_R_6.png","img/250/randomdotsizeEA/R/10_Ratio_250_L_4_R_16.png","img/900/equaldotanddens/L/10_Ratio_900_L_20_R_18.png","img/900/equaldotsize/R/6_Ratio_900_L_9_R_10.png","img/750/randomdotsizeEA/R/12_Ratio_750_L_3_R_4.png","img/250/randomdotsizeEA/L/5_Ratio_250_L_24_R_6.png","img/500/equaldotsize/R/2_Ratio_500_L_3_R_6.png","img/250/equaldotsize/R/4_Ratio_250_L_3_R_12.png","img/750/equaldotanddens/L/9_Ratio_750_L_4_R_3.png","img/250/equaldotanddens/L/7_Ratio_250_L_8_R_2.png","img/250/randomdotsizeEA/L/1_Ratio_250_L_8_R_2.png","img/750/randomdotsizeEA/L/8_Ratio_750_L_4_R_3.png","img/250/equaldotsize/L/5_Ratio_250_L_24_R_6.png","img/500/randomdotsizeEA/L/7_Ratio_500_L_10_R_5.png","img/250/equaldotanddens/L/15_Ratio_250_L_12_R_3.png","img/250/randomdotsizeEA/R/11_Ratio_250_L_3_R_12.png","img/900/randomdotsizeEA/R/12_Ratio_900_L_18_R_20.png","img/750/equaldotsize/R/15_Ratio_750_L_9_R_12.png","img/900/equaldotanddens/L/4_Ratio_900_L_20_R_18.png","img/750/equaldotanddens/R/4_Ratio_750_L_15_R_20.png","img/750/equaldotsize/L/14_Ratio_750_L_8_R_6.png","img/250/equaldotanddens/L/1_Ratio_250_L_8_R_2.png","img/900/randomdotsizeEA/R/14_Ratio_900_L_18_R_20.png","img/250/randomdotsizeEA/L/2_Ratio_250_L_16_R_4.png","img/500/equaldotsize/R/14_Ratio_500_L_5_R_10.png","img/500/randomdotsizeEA/L/7_Ratio_500_L_10_R_5.png","img/500/randomdotsizeEA/R/6_Ratio_500_L_9_R_18.png","img/750/equaldotanddens/L/13_Ratio_750_L_8_R_6.png","img/900/randomdotsizeEA/L/4_Ratio_900_L_20_R_18.png","img/750/equaldotanddens/R/15_Ratio_750_L_9_R_12.png","img/250/equaldotsize/R/12_Ratio_250_L_5_R_20.png","img/900/equaldotanddens/L/10_Ratio_900_L_20_R_18.png","img/900/equaldotanddens/L/2_Ratio_900_L_20_R_18.png","img/250/equaldotsize/R/4_Ratio_250_L_3_R_12.png","img/900/randomdotsizeEA/L/2_Ratio_900_L_20_R_18.png","img/250/equaldotanddens/R/8_Ratio_250_L_1_R_4.png","img/900/equaldotanddens/L/2_Ratio_900_L_20_R_18.png","img/900/equaldotsize/L/8_Ratio_900_L_20_R_18.png","img/250/equaldotanddens/R/9_Ratio_250_L_3_R_12.png","img/500/equaldotsize/R/3_Ratio_500_L_10_R_20.png","img/900/equaldotsize/R/12_Ratio_900_L_18_R_20.png","img/900/randomdotsizeEA/R/12_Ratio_900_L_18_R_20.png","img/900/equaldotsize/L/8_Ratio_900_L_20_R_18.png","img/250/equaldotanddens/R/10_Ratio_250_L_4_R_16.png","img/750/equaldotsize/L/6_Ratio_750_L_24_R_18.png","img/750/randomdotsizeEA/R/11_Ratio_750_L_12_R_16.png","img/900/randomdotsizeEA/L/2_Ratio_900_L_20_R_18.png","img/250/equaldotsize/R/6_Ratio_250_L_6_R_24.png","img/500/randomdotsizeEA/L/10_Ratio_500_L_4_R_2.png","img/900/equaldotsize/L/10_Ratio_900_L_20_R_18.png","img/500/equaldotanddens/L/13_Ratio_500_L_12_R_6.png","img/750/equaldotsize/R/15_Ratio_750_L_9_R_12.png","img/900/randomdotsizeEA/L/2_Ratio_900_L_20_R_18.png"],"Rat0":[["12_Ratio_0_L_9_R_0.png","13_Ratio_0_L_6_R_0.png","5_Ratio_0_L_2_R_0.png","6_Ratio_0_L_4_R_0.png","8_Ratio_0_L_6_R_0.png"],["1_Ratio_0_L_0_R_17.png","10_Ratio_0_L_0_R_22.png","11_Ratio_0_L_0_R_1.png","14_Ratio_0_L_0_R_24.png","15_Ratio_0_L_0_R_4.png","2_Ratio_0_L_0_R_5.png","3_Ratio_0_L_0_R_17.png","4_Ratio_0_L_0_R_7.png","7_Ratio_0_L_0_R_19.png","9_Ratio_0_L_0_R_15.png"]],"Rat250":[["1_Ratio_250_L_8_R_2.png","14_Ratio_250_L_12_R_3.png","15_Ratio_250_L_12_R_3.png","2_Ratio_250_L_16_R_4.png","3_Ratio_250_L_8_R_2.png","5_Ratio_250_L_24_R_6.png","7_Ratio_250_L_8_R_2.png"],["10_Ratio_250_L_4_R_16.png","11_Ratio_250_L_3_R_12.png","12_Ratio_250_L_5_R_20.png","13_Ratio_250_L_2_R_8.png","4_Ratio_250_L_3_R_12.png","6_Ratio_250_L_6_R_24.png","8_Ratio_250_L_1_R_4.png","9_Ratio_250_L_3_R_12.png"]],"Rat500":[["10_Ratio_500_L_4_R_2.png","11_Ratio_500_L_12_R_6.png","13_Ratio_500_L_12_R_6.png","4_Ratio_500_L_18_R_9.png","5_Ratio_500_L_4_R_2.png","7_Ratio_500_L_10_R_5.png","8_Ratio_500_L_8_R_4.png"],["1_Ratio_500_L_9_R_18.png","12_Ratio_500_L_1_R_2.png","14_Ratio_500_L_5_R_10.png","15_Ratio_500_L_1_R_2.png","2_Ratio_500_L_3_R_6.png","3_Ratio_500_L_10_R_20.png","6_Ratio_500_L_9_R_18.png","9_Ratio_500_L_2_R_4.png"]],"Rat750":[["1_Ratio_750_L_20_R_15.png","10_Ratio_750_L_4_R_3.png","13_Ratio_750_L_8_R_6.png","14_Ratio_750_L_8_R_6.png","6_Ratio_750_L_24_R_18.png","8_Ratio_750_L_4_R_3.png","9_Ratio_750_L_4_R_3.png"],["11_Ratio_750_L_12_R_16.png","12_Ratio_750_L_3_R_4.png","15_Ratio_750_L_9_R_12.png","2_Ratio_750_L_6_R_8.png","3_Ratio_750_L_15_R_20.png","4_Ratio_750_L_15_R_20.png","5_Ratio_750_L_15_R_20.png","7_Ratio_750_L_3_R_4.png"]],"Rat900":[["1_Ratio_900_L_10_R_9.png","10_Ratio_900_L_20_R_18.png","2_Ratio_900_L_20_R_18.png","4_Ratio_900_L_20_R_18.png","8_Ratio_900_L_20_R_18.png"],["11_Ratio_900_L_18_R_20.png","12_Ratio_900_L_18_R_20.png","13_Ratio_900_L_18_R_20.png","14_Ratio_900_L_18_R_20.png","15_Ratio_900_L_9_R_10.png","3_Ratio_900_L_9_R_10.png","5_Ratio_900_L_9_R_10.png","6_Ratio_900_L_9_R_10.png","7_Ratio_900_L_9_R_10.png","9_Ratio_900_L_18_R_20.png"]],"Rat1000":[["10_Ratio_1000_L_16_R_16.png","11_Ratio_1000_L_6_R_6.png","12_Ratio_1000_L_14_R_14.png","13_Ratio_1000_L_20_R_20.png","15_Ratio_1000_L_15_R_15.png","2_Ratio_1000_L_17_R_17.png","4_Ratio_1000_L_9_R_9.png","5_Ratio_1000_L_6_R_6.png","6_Ratio_1000_L_19_R_19.png","8_Ratio_1000_L_14_R_14.png","9_Ratio_1000_L_25_R_25.png"],["1_Ratio_1000_L_1_R_1.png","14_Ratio_1000_L_17_R_17.png","3_Ratio_1000_L_17_R_17.png","7_Ratio_1000_L_6_R_6.png"]]}},{"start_time":1552313766976,"click_time":1552313768393,"finger_time":1552313767874,"fix_duration":520.8855887307127,"trial":1,"RT":898,"MT":519,"sideResp":1,"stimulus":"img/750/equaldotsize/R/11_Ratio_750_L_12_R_16.png","xmouse":[788,788,788,788,787,787,787,787,786,785,785,785,785,785,785,785,785,785,785,785,785,785,785,785,785,785,785,785,785,785,785,785,785,785,785,785,785,785,785,785,780,774,762,760,745,722,703,683,660,636,602,593,586,580,572,563,558,553,547,544,537,529,525,516,498,473,463,454,447,442,441],"ymouse":[515,515,515,515,515,515,515,515,514,513,513,513,513,513,513,513,513,513,513,513,513,513,513,513,512,512,512,512,512,512,512,512,512,512,511,510,507,506,503,501,492,485,473,470,454,429,413,399,385,371,348,339,332,324,313,295,284,274,264,254,226,205,198,184,163,140,129,119,110,104,95],"timestamp_mouse":[16,41,57,77,98,117,137,158,178,198,216,237,257,277,297,317,336,358,376,396,417,437,457,478,498,517,537,558,576,596,618,637,657,678,697,718,737,757,778,796,817,838,857,877,898,917,937,956,976,997,1016,1037,1057,1076,1096,1116,1137,1158,1177,1197,1217,1236,1257,1276,1297,1316,1337,1358,1377,1398,1417],"xSR":741.5,"ySR":469.95,"xT1":424.9,"yT1":0,"xT2":1058.1,"yT2":0,"toosoon":0,"cond_shown":"equaldotsize","ratio_trial":750,"smaller_num":"12","larger_num":"16","correct_side":2,"subjID":"JACOBO DÍAZ SEGURA 5","gender":"0","age":"9","school":"4"},{"start_time":1552313770208,"click_time":1552313772294,"finger_time":1552313771412,"fix_duration":414.01655452457254,"trial":2,"RT":1204,"MT":882,"sideResp":2,"stimulus":"img/250/randomdotsizeEA/L/5_Ratio_250_L_24_R_6.png","xmouse":[791,791,791,791,791,791,791,791,791,791,791,791,791,790,790,790,790,789,789,789,788,788,788,788,788,788,788,788,788,788,788,788,788,788,788,788,788,788,788,788,788,788,788,788,788,788,788,787,787,787,787,787,787,787,787,787,788,788,787,778,769,752,739,735,730,730,730,730,730,730,730,730,730,730,730,730,730,730,730,730,730,730,730,730,730,730,730,730,736,749,760,770,781,791,814,829,844,855,864,889,909,936,961,992,1102],"ymouse":[515,515,515,515,515,515,515,515,515,515,515,515,516,516,517,517,517,518,518,519,520,520,520,520,520,520,520,520,520,520,520,520,520,520,520,520,520,520,520,520,520,520,520,520,520,520,520,520,520,520,520,520,520,520,520,520,521,522,528,557,580,626,658,670,672,672,672,672,672,672,672,672,672,672,672,672,672,672,672,672,672,672,672,672,672,672,672,672,670,663,654,643,627,609,562,530,492,449,399,297,243,195,164,133,56],"timestamp_mouse":[18,33,44,66,85,104,124,146,166,185,206,225,246,265,286,305,325,344,365,385,405,426,444,464,486,505,526,546,565,584,606,625,644,664,684,706,726,744,764,785,804,826,846,864,886,905,926,946,966,985,1004,1026,1045,1064,1086,1104,1125,1146,1166,1184,1204,1225,1246,1266,1285,1305,1325,1345,1365,1385,1405,1425,1445,1465,1485,1505,1524,1545,1566,1585,1605,1624,1645,1664,1685,1704,1725,1745,1765,1786,1805,1824,1845,1866,1885,1905,1925,1945,1964,1986,2004,2025,2045,2065,2085],"xSR":741.5,"ySR":469.95,"xT1":424.9,"yT1":0,"xT2":1058.1,"yT2":0,"toosoon":0,"cond_shown":"randomdotsizeEA","ratio_trial":250,"smaller_num":"6","larger_num":"24","correct_side":1,"subjID":"JACOBO DÍAZ SEGURA 5","gender":"0","age":"9","school":"4"},{"start_time":1552313776007,"click_time":1552313791833,"finger_time":1552313777093,"fix_duration":592.9935823208039,"trial":3,"RT":1086,"MT":14740,"sideResp":1,"stimulus":"img/250/equaldotanddens/L/15_Ratio_250_L_12_R_3.png","xmouse":[805,805,805,805,805,805,805,805,805,805,805,805,805,805,805,805,805,805,805,805,805,805,805,805,805,805,805,805,805,805,805,805,805,805,805,805,805,805,805,805,805,805,805,805,805,805,805,805,805,805,799,790,775,754,731,701,697,695,692,690,685,682,677,670,661,645,637,623,619,608,595,594,594,594,594,594,594,594,594,594,594,594,592,592,590,590,588,588,583,579,573,572,572,572,572,572,570,568,561,555,544,538,533,529,524,515,510,507,507,506,505,505,505,505,505,505,505,504,502,502,502,501,501,500,500,497,497,497,497,497,497,497,497,497,497,497,498,498,498,498,498,498,498,498,498,498,498,498,498,498,498,498,498,498,498,498,498,498,498,498,498,498,498,498,498,498,498,498,498,498,498,498,498,498,498,498,498,498,498,498,498,498,498,498,498,498,498,498,498,498,498,498,498,498,498,498,498,498,498,498,498,498,498,498,498,498,498,498,498,498,498,498,498,498,498,498,498,498,498,498,498,498,498,498,498,498,498,498,498,498,498,498,498,498,498,498,498,498,498,498,498,498,498,498,498,498,498,498,498,498,498,498,498,498,498,498,498,498,498,498,498,498,498,498,498,498,498,498,498,498,498,498,498,498,498,498,498,498,498,498,498,498,498,498,498,498,498,498,498,498,498,498,498,498,498,498,498,498,498,498,498,498,498,498,498,498,498,498,498,498,498,498,498,498,498,498,498,498,498,498,498,498,498,498,498,498,498,498,498,498,498,498,498,498,498,498,498,498,498,498,498,498,498,498,498,498,498,498,498,498,498,498,498,498,498,498,498,498,498,498,498,498,498,498,498,498,498,498,498,498,498,498,498,498,498,498,498,498,498,498,498,498,498,498,498,498,498,498,498,498,498,498,498,498,498,498,498,498,498,498,498,498,498,498,498,498,498,498,498,498,498,498,498,498,498,498,498,498,498,498,498,498,498,498,498,498,498,498,498,498,498,498,498,498,498,498,498,498,498,498,498,498,498,498,498,498,498,498,498,498,498,498,498,498,498,498,498,498,498,498,498,498,498,498,498,498,498,498,498,498,498,498,498,498,498,498,498,498,498,498,498,498,498,498,498,498,498,498,498,498,498,498,498,498,498,498,498,498,498,498,498,498,498,498,498,498,498,498,498,498,498,498,498,498,498,498,498,498,498,498,498,498,498,498,498,498,498,498,498,498,498,498,498,498,498,498,498,498,498,498,498,498,498,498,498,498,498,498,498,498,498,498,498,498,498,498,498,498,498,498,498,498,498,498,498,498,498,498,498,498,498,498,498,498,498,498,498,498,498,498,498,498,498,498,498,498,498,498,498,498,498,498,498,498,498,498,498,498,498,498,498,498,498,498,498,498,498,498,498,498,498,498,498,498,498,498,498,498,498,498,498,498,498,498,498,498,498,498,498,498,498,498,498,498,498,498,498,498,498,498,498,498,498,498,498,498,498,498,498,498,498,498,498,498,498,498,498,498,498,498,498,498,498,498,498,498,498,498,498,498,498,498,498,498,498,498,498,498,498,498,498,498,498,498,498,498,498,498,498,498,498,498,498,498,498,498,498,498,498,498,498,498,498,498,523,578,623,623,623,623,623,623,623,623,623,623,623,623,623,623,623,623,623,623,623,623,711,740,749,754,761,769,769,769,769,769,769,770,772,775,777,779,780,781,782,784,786,788,788,789,789,789,789,789,789,789,788,787,786,786,786,785,782,780,776,773,766,744,736,726,720,708,663,634,614,600,585,580,578,576,575,564,560,556,553,551,549,541,536,532,529,522],"ymouse":[540,540,540,540,540,540,540,540,540,540,540,540,540,540,540,540,540,540,540,540,540,540,540,540,540,540,540,540,540,540,540,540,540,540,540,540,540,540,540,540,540,540,540,540,540,540,540,540,540,539,533,527,519,508,496,476,470,464,455,449,431,420,406,390,375,348,337,319,314,301,292,291,291,291,291,291,291,291,291,291,291,291,291,291,291,291,292,292,294,295,296,296,296,296,296,296,296,295,288,278,253,240,227,214,201,179,170,166,164,160,157,157,157,157,157,157,156,156,156,157,160,162,164,168,173,186,196,204,206,207,208,211,213,216,218,225,232,238,244,248,253,253,253,254,254,254,254,254,254,254,254,254,254,254,254,254,254,254,254,254,254,254,254,254,254,254,254,254,254,254,254,254,254,254,254,254,254,254,254,254,254,254,254,254,254,254,254,254,254,254,254,254,254,254,254,254,254,254,254,254,254,254,254,254,254,254,254,254,254,254,254,254,254,254,254,254,254,254,254,254,254,254,254,254,254,254,254,254,254,254,254,254,254,254,254,254,254,254,254,254,254,254,254,254,254,254,254,254,254,254,254,254,254,254,254,254,254,254,254,254,254,254,254,254,254,254,254,254,254,254,254,254,254,254,254,254,254,254,254,254,254,254,254,254,254,254,254,254,254,254,254,254,254,254,254,254,254,254,254,254,254,254,254,254,254,254,254,254,254,254,254,254,254,254,254,254,254,254,254,254,254,254,254,254,254,254,254,254,254,254,254,254,254,254,254,254,254,254,254,254,254,254,254,254,254,254,254,254,254,254,254,254,254,254,254,254,254,254,254,254,254,254,254,254,254,254,254,254,254,254,254,254,254,254,254,254,254,254,254,254,254,254,254,254,254,254,254,254,254,254,254,254,254,254,254,254,254,254,254,254,254,254,254,254,254,254,254,254,254,254,254,254,254,254,254,254,254,254,254,254,254,254,254,254,254,254,254,254,254,254,254,254,254,254,254,254,254,254,254,254,254,254,254,254,254,254,254,254,254,254,254,254,254,254,254,254,254,254,254,254,254,254,254,254,254,254,254,254,254,254,254,254,254,254,254,254,254,254,254,254,254,254,254,254,254,254,254,254,254,254,254,254,254,254,254,254,254,254,254,254,254,254,254,254,254,254,254,254,254,254,254,254,254,254,254,254,254,254,254,254,254,254,254,254,254,254,254,254,254,254,254,254,254,254,254,254,254,254,254,254,254,254,254,254,254,254,254,254,254,254,254,254,254,254,254,254,254,254,254,254,254,254,254,254,254,254,254,254,254,254,254,254,254,254,254,254,254,254,254,254,254,254,254,254,254,254,254,254,254,254,254,254,254,254,254,254,254,254,254,254,254,254,254,254,254,254,254,254,254,254,254,254,254,254,254,254,254,254,254,254,254,254,254,254,254,254,254,254,254,254,254,254,254,254,254,254,254,254,254,254,254,254,254,254,254,254,254,254,254,254,254,254,254,254,254,254,254,254,254,254,254,254,254,254,254,254,254,254,254,254,254,254,254,254,254,254,254,254,254,254,254,254,254,254,254,254,254,254,254,254,254,254,254,254,254,254,254,254,254,254,254,254,254,255,200,102,12,12,12,12,12,12,12,12,12,12,12,12,12,12,12,12,12,12,12,12,1,68,103,141,186,298,319,329,334,338,342,349,354,364,373,380,383,385,387,392,395,397,398,399,400,400,402,403,405,408,412,414,416,416,417,417,421,422,422,422,421,410,404,396,388,369,310,281,263,244,214,204,198,195,194,184,177,167,160,156,151,137,123,112,104,94],"timestamp_mouse":[9,25,45,66,86,105,125,146,166,185,206,226,245,267,286,306,327,346,365,387,406,426,446,467,487,507,526,546,566,585,607,626,645,667,685,707,726,745,766,786,805,825,845,867,887,905,925,945,966,985,1006,1026,1047,1067,1086,1106,1125,1147,1165,1187,1206,1226,1245,1267,1287,1305,1326,1345,1365,1386,1406,1426,1446,1466,1487,1506,1526,1546,1566,1587,1606,1626,1646,1666,1685,1706,1726,1747,1767,1786,1805,1827,1847,1866,1886,1905,1927,1946,1966,1986,2006,2026,2045,2065,2086,2106,2125,2146,2165,2186,2206,2227,2247,2266,2286,2305,2326,2345,2365,2385,2406,2427,2447,2467,2486,2506,2525,2546,2566,2585,2605,2625,2645,2666,2685,2706,2725,2746,2766,2786,2805,2827,2846,2865,2886,2906,2927,2946,2966,2985,3006,3025,3047,3067,3085,3106,3125,3145,3165,3186,3206,3227,3247,3266,3286,3306,3326,3346,3365,3386,3406,3427,3447,3467,3487,3507,3527,3546,3565,3585,3606,3626,3646,3666,3687,3706,3727,3746,3766,3785,3806,3825,3846,3866,3885,3906,3926,3947,3966,3985,4005,4026,4047,4065,4086,4106,4126,4146,4165,4185,4206,4226,4247,4266,4287,4306,4327,4345,4366,4386,4406,4426,4447,4467,4486,4505,4527,4546,4566,4586,4606,4626,4645,4665,4685,4706,4727,4747,4767,4786,4805,4827,4847,4866,4887,4906,4926,4946,4965,4985,5005,5026,5047,5066,5087,5106,5126,5146,5166,5186,5206,5226,5245,5265,5285,5306,5325,5346,5366,5387,5406,5426,5447,5465,5486,5506,5525,5546,5567,5587,5606,5626,5646,5666,5686,5707,5727,5747,5766,5786,5806,5826,5846,5867,5886,5907,5926,5946,5967,5986,6007,6026,6046,6067,6085,6106,6125,6147,6166,6186,6207,6226,6247,6267,6287,6307,6326,6345,6367,6387,6407,6426,6446,6466,6486,6506,6526,6546,6566,6586,6606,6625,6645,6665,6686,6706,6726,6746,6766,6786,6805,6827,6847,6867,6886,6906,6926,6947,6967,6987,7007,7026,7045,7066,7086,7107,7125,7147,7165,7187,7207,7227,7247,7265,7286,7307,7325,7346,7366,7385,7406,7425,7445,7466,7487,7507,7526,7546,7566,7587,7605,7626,7645,7666,7686,7707,7726,7746,7766,7787,7806,7826,7846,7865,7886,7906,7926,7947,7966,7987,8006,8027,8046,8067,8086,8106,8125,8146,8167,8187,8206,8227,8246,8265,8285,8306,8327,8347,8366,8387,8406,8425,8446,8466,8485,8506,8526,8545,8567,8587,8608,8625,8646,8665,8686,8706,8725,8747,8766,8787,8806,8826,8846,8865,8887,8906,8927,8947,8966,8985,9006,9026,9046,9066,9087,9107,9127,9146,9167,9186,9206,9225,9245,9266,9285,9307,9325,9346,9366,9386,9407,9426,9446,9465,9486,9507,9526,9546,9566,9586,9606,9626,9646,9667,9687,9706,9726,9746,9766,9786,9806,9825,9846,9866,9886,9907,9925,9946,9966,9986,10006,10027,10047,10067,10086,10105,10126,10146,10165,10186,10207,10226,10247,10265,10285,10307,10325,10346,10367,10386,10405,10426,10447,10466,10487,10507,10526,10547,10566,10585,10606,10626,10646,10666,10687,10707,10725,10746,10767,10786,10806,10826,10846,10867,10887,10905,10927,10946,10965,10985,11006,11026,11047,11066,11087,11106,11127,11146,11167,11186,11206,11227,11247,11266,11287,11307,11325,11347,11366,11386,11407,11425,11446,11465,11486,11507,11526,11546,11567,11587,11605,11626,11647,11666,11687,11706,11727,11745,11766,11786,11806,11826,11846,11867,11886,11907,11926,11947,11966,11985,12006,12026,12046,12066,12085,12105,12126,12146,12166,12187,12207,12226,12247,12267,12287,12305,12326,12346,12366,12386,12407,12426,12446,12466,12486,12507,12527,12546,12567,12587,12607,12626,12645,12666,12686,12705,12726,12747,12766,12786,12807,12826,12846,12867,12886,12906,12926,12946,12966,12986,13006,13026,13046,13067,13086,13105,13125,13146,13166,13186,13207,13226,13246,13266,13286,13307,13326,13346,13367,13386,13406,13425,13446,13466,13487,13506,13526,13547,13567,13587,13606,13626,13646,13666,13686,13705,13727,13747,13767,13787,13806,13825,13846,13866,13886,13907,13926,13946,13967,13987,14006,14026,14045,14066,14087,14106,14127,14146,14166,14186,14205,14225,14246,14267,14287,14306,14326,14346,14366,14385,14406,14426,14446,14466,14486,14505,14526,14546,14565,14586,14606,14627,14645,14666,14687,14706,14725,14746,14765,14785,14807,14827,14846,14866,14886,14906,14926,14945,14966,14986,15006,15026,15045,15065,15085,15106,15127,15145,15166,15185,15205,15226,15246,15266,15286,15307,15325,15346,15366,15387,15406,15426,15445,15466,15486,15506,15527,15545,15566,15585,15605,15627,15645,15665,15687,15706,15727,15745,15766,15786,15806,15825],"xSR":741.5,"ySR":469.95,"xT1":424.9,"yT1":0,"xT2":1058.1,"yT2":0,"toosoon":0,"cond_shown":"equaldotanddens","ratio_trial":250,"smaller_num":"3","larger_num":"12","correct_side":1,"subjID":"JACOBO DÍAZ SEGURA 5","gender":"0","age":"9","school":"4"},{"start_time":1552313794427,"click_time":1552313799854,"finger_time":1552313799093,"fix_duration":1451.1068681313916,"trial":4,"RT":4666,"MT":761,"sideResp":2,"stimulus":"img/500/equaldotsize/R/9_Ratio_500_L_2_R_4.png","xmouse":[795,795,795,795,795,795,795,795,795,795,795,795,795,795,795,795,795,795,795,795,796,797,797,797,797,797,799,801,802,802,802,803,804,805,806,806,806,806,805,801,783,758,753,753,753,753,753,753,753,753,753,753,753,753,753,753,753,753,753,753,753,753,753,753,753,753,753,753,753,753,753,753,753,753,753,753,753,753,753,753,753,753,753,753,753,753,753,753,753,753,753,753,753,753,753,753,753,753,753,753,753,753,753,753,753,753,753,753,753,753,753,753,753,753,753,753,753,753,753,753,753,753,753,753,753,753,753,753,753,753,753,753,753,753,753,753,753,753,753,753,753,753,753,753,753,753,753,753,753,753,753,753,753,753,753,753,753,753,753,753,753,753,753,753,753,753,753,753,753,753,753,753,753,753,753,753,753,753,753,753,753,753,753,753,753,753,753,753,753,753,753,753,753,753,753,753,753,753,753,753,753,754,754,754,754,754,754,755,756,756,756,756,756,757,757,758,758,758,759,761,762,769,772,777,785,795,807,810,811,812,813,818,822,829,836,840,854,857,862,865,867,871,874,874,876,879,887,888,888,888,888,889,889,884,872,852,808,801,803,816,839,914,954,988,1017,1037,1053,1079,1085,1089,1092,1093],"ymouse":[499,499,499,499,499,499,499,499,499,499,499,499,499,499,499,499,499,499,499,498,495,491,491,491,491,491,491,492,492,492,492,492,493,493,493,493,493,493,500,509,532,547,549,549,549,549,549,549,549,549,549,549,549,549,549,549,549,549,549,549,549,549,549,549,549,549,549,549,549,549,549,549,549,549,549,549,549,549,549,549,549,549,549,549,549,549,549,549,549,549,549,549,549,549,549,549,549,549,549,549,549,549,549,549,549,549,549,549,549,549,549,549,549,549,549,549,549,549,549,549,549,549,549,549,549,549,549,549,549,549,549,549,549,549,549,549,549,549,549,549,549,549,549,549,549,549,549,549,549,549,549,549,549,549,549,549,549,549,549,549,549,549,549,549,549,549,549,549,549,549,549,549,549,549,549,549,549,549,549,549,549,549,549,549,549,549,549,549,549,549,549,549,549,549,549,549,549,549,549,549,549,549,549,549,549,549,549,549,549,549,549,549,548,548,548,546,544,542,541,539,538,533,527,519,511,501,494,493,493,492,490,482,474,464,455,452,449,448,447,444,442,430,422,414,403,389,362,353,343,333,322,312,295,287,279,270,254,252,252,253,258,264,261,249,233,214,191,145,128,113,101,90],"timestamp_mouse":[12,36,46,66,86,107,127,146,166,187,206,226,247,265,287,306,325,346,366,386,406,426,445,467,486,506,525,546,567,587,606,625,647,667,685,706,727,747,766,786,806,826,847,866,886,906,925,946,966,986,1007,1027,1047,1066,1085,1106,1125,1146,1167,1186,1206,1225,1246,1266,1287,1307,1326,1345,1366,1386,1405,1425,1446,1467,1486,1505,1527,1547,1567,1585,1606,1625,1646,1666,1687,1706,1727,1747,1767,1786,1807,1826,1846,1866,1887,1907,1926,1946,1967,1985,2006,2027,2046,2067,2086,2106,2125,2147,2167,2187,2206,2227,2246,2266,2287,2307,2326,2347,2367,2386,2405,2425,2447,2466,2486,2506,2526,2545,2566,2587,2606,2626,2647,2667,2687,2707,2725,2745,2767,2787,2807,2826,2846,2866,2886,2907,2926,2946,2965,2987,3006,3027,3046,3065,3087,3107,3127,3146,3166,3187,3206,3227,3246,3266,3286,3305,3326,3346,3367,3385,3406,3426,3445,3466,3487,3507,3527,3547,3566,3587,3607,3626,3645,3666,3687,3706,3726,3747,3765,3786,3806,3827,3847,3865,3885,3907,3926,3947,3967,3985,4006,4027,4047,4067,4086,4106,4125,4146,4166,4185,4205,4225,4247,4266,4286,4306,4326,4347,4366,4385,4407,4426,4446,4466,4486,4507,4526,4546,4566,4586,4606,4626,4646,4666,4686,4705,4727,4745,4766,4787,4806,4827,4845,4866,4886,4905,4927,4946,4966,4986,5006,5026,5045,5066,5086,5106,5127,5145,5165,5186,5205,5227,5246,5266,5286,5305,5325,5347,5366,5386,5406,5427],"xSR":741.5,"ySR":469.95,"xT1":424.9,"yT1":0,"xT2":1058.1,"yT2":0,"toosoon":0,"cond_shown":"equaldotsize","ratio_trial":500,"smaller_num":"2","larger_num":"4","correct_side":2,"subjID":"JACOBO DÍAZ SEGURA 5","gender":"0","age":"9","school":"4"},{"start_time":1552313801985,"click_time":1552313804153,"finger_time":1552313803414,"fix_duration":250,"trial":5,"RT":1429,"MT":739,"sideResp":2,"stimulus":"img/750/randomdotsizeEA/R/3_Ratio_750_L_15_R_20.png","xmouse":[817,817,817,816,816,816,816,815,815,815,815,815,815,814,814,814,814,813,813,813,813,813,813,813,813,813,813,813,813,813,813,813,813,813,813,813,813,813,813,813,813,813,813,813,813,813,813,813,813,813,813,813,813,813,813,813,813,813,813,813,813,813,813,813,813,813,815,817,820,830,837,850,867,885,920,938,950,966,975,986,988,990,990,990,993,995,1000,1002,1004,1015,1026,1032,1040,1047,1068,1076,1084,1090,1096,1109,1115,1119,1124,1127,1134,1139,1145,1146,1147],"ymouse":[520,520,520,520,520,520,520,520,520,520,520,520,520,520,520,520,520,520,520,520,520,520,520,520,520,520,520,520,520,520,520,520,520,520,520,520,520,520,520,520,520,520,520,520,520,520,520,520,520,520,520,520,520,520,520,520,520,520,520,520,520,520,520,520,520,520,520,519,518,514,511,507,501,493,474,462,451,433,420,388,371,356,346,336,316,309,295,290,285,269,263,261,257,252,240,233,222,212,203,182,171,163,151,144,127,118,106,102,99],"timestamp_mouse":[9,39,48,69,87,109,129,149,168,187,207,228,249,268,289,308,328,348,368,388,409,429,448,468,489,509,528,549,568,588,609,628,648,668,689,707,727,748,767,787,809,829,849,869,888,908,927,948,969,987,1008,1029,1049,1068,1088,1109,1128,1147,1169,1188,1209,1228,1249,1269,1288,1308,1328,1347,1368,1388,1408,1429,1448,1467,1487,1509,1528,1548,1568,1589,1608,1627,1649,1668,1688,1708,1728,1747,1768,1788,1808,1829,1848,1868,1888,1908,1928,1947,1969,1987,2008,2029,2049,2067,2088,2108,2128,2147,2168],"xSR":741.5,"ySR":469.95,"xT1":424.9,"yT1":0,"xT2":1058.1,"yT2":0,"toosoon":0,"cond_shown":"randomdotsizeEA","ratio_trial":750,"smaller_num":"15","larger_num":"20","correct_side":2,"subjID":"JACOBO DÍAZ SEGURA 5","gender":"0","age":"9","school":"4"},{"start_time":1552313806875,"click_time":1552313808853,"finger_time":1552313808214,"fix_duration":1100.3893724133034,"trial":6,"RT":1339,"MT":639,"sideResp":2,"stimulus":"img/750/randomdotsizeEA/L/14_Ratio_750_L_8_R_6.png","xmouse":[794,794,794,794,794,794,794,794,794,794,794,794,794,794,794,794,794,794,794,794,794,794,794,794,794,794,795,795,795,795,795,795,796,796,797,797,797,798,799,801,803,804,805,806,807,809,810,811,811,812,813,813,813,813,813,813,813,813,813,813,813,813,813,814,816,839,853,863,869,876,884,895,912,925,953,966,977,986,993,1002,1034,1046,1057,1066,1073,1083,1086,1090,1094,1100,1108,1111,1113,1116,1117,1117,1117,1117,1117],"ymouse":[506,506,506,506,506,506,506,506,506,506,506,506,506,506,506,506,506,506,506,506,506,506,506,506,506,506,506,506,506,506,506,506,506,506,505,505,505,505,505,504,504,503,503,503,502,502,500,500,499,499,497,497,496,495,495,494,494,494,494,494,494,493,493,492,490,478,470,466,463,458,451,442,430,422,402,392,381,367,355,340,299,282,264,250,234,207,196,184,175,166,143,134,128,122,112,109,105,103,97],"timestamp_mouse":[19,38,58,78,99,117,137,159,179,198,219,237,258,277,298,318,338,359,379,397,419,438,457,477,498,517,538,558,578,598,618,638,658,677,698,718,738,758,778,798,817,838,857,878,898,917,938,959,977,998,1017,1037,1058,1079,1097,1118,1139,1158,1177,1199,1219,1238,1258,1279,1298,1318,1339,1359,1378,1399,1418,1437,1457,1477,1499,1518,1539,1558,1579,1598,1619,1638,1659,1678,1698,1718,1738,1758,1778,1797,1817,1838,1858,1878,1899,1917,1937,1958,1978],"xSR":741.5,"ySR":469.95,"xT1":424.9,"yT1":0,"xT2":1058.1,"yT2":0,"toosoon":0,"cond_shown":"randomdotsizeEA","ratio_trial":750,"smaller_num":"6","larger_num":"8","correct_side":1,"subjID":"JACOBO DÍAZ SEGURA 5","gender":"0","age":"9","school":"4"},{"start_time":1552313810546,"click_time":1552313812413,"finger_time":1552313812072,"fix_duration":250,"trial":7,"RT":1526,"MT":341,"sideResp":2,"stimulus":"img/750/equaldotanddens/R/4_Ratio_750_L_15_R_20.png","xmouse":[794,794,794,794,794,794,794,794,794,794,794,794,794,794,794,794,794,794,794,794,794,794,794,794,794,794,794,794,794,794,794,794,794,794,794,794,794,794,794,794,794,794,794,794,794,794,794,794,794,794,794,794,794,794,794,794,794,794,794,794,794,794,794,794,794,794,794,794,794,794,795,797,802,809,818,829,849,876,888,902,915,928,952,964,976,999,1015,1047,1058,1067,1074,1079,1090,1093],"ymouse":[513,513,513,513,513,513,513,513,513,513,513,513,513,513,513,513,513,512,512,512,512,512,512,512,512,512,512,512,512,512,512,512,512,512,512,512,512,512,512,512,512,512,512,512,512,512,512,512,512,512,512,512,512,512,512,512,512,512,512,512,512,512,512,512,512,512,512,512,512,512,510,510,506,501,493,484,468,440,424,408,393,379,351,334,316,290,273,229,208,192,170,151,111,92],"timestamp_mouse":[10,26,46,66,86,108,128,146,167,188,208,226,246,268,287,307,326,346,368,386,406,428,446,468,486,507,527,548,567,587,606,627,648,667,686,708,728,747,767,788,806,827,848,867,887,906,928,946,966,986,1008,1027,1048,1067,1087,1106,1128,1146,1167,1188,1208,1228,1248,1266,1288,1307,1328,1347,1366,1387,1407,1427,1447,1467,1488,1507,1526,1548,1567,1587,1607,1626,1647,1667,1687,1707,1727,1749,1767,1787,1807,1827,1846,1867],"xSR":741.5,"ySR":469.95,"xT1":424.9,"yT1":0,"xT2":1058.1,"yT2":0,"toosoon":0,"cond_shown":"equaldotanddens","ratio_trial":750,"smaller_num":"15","larger_num":"20","correct_side":2,"subjID":"JACOBO DÍAZ SEGURA 5","gender":"0","age":"9","school":"4"},{"start_time":1552313814390,"click_time":1552313815794,"finger_time":1552313815433,"fix_duration":815.9483952535144,"trial":8,"RT":1043,"MT":361,"sideResp":2,"stimulus":"img/250/equaldotsize/R/13_Ratio_250_L_2_R_8.png","xmouse":[790,790,790,790,790,790,790,790,790,790,790,790,790,790,790,790,790,790,790,790,790,790,790,790,790,790,790,790,790,790,790,790,790,790,790,790,790,790,790,790,790,790,790,790,791,799,804,808,813,818,829,838,845,853,863,874,900,916,936,954,992,1021,1040,1057,1070,1093,1102,1108,1114,1117,1129],"ymouse":[524,524,524,524,524,524,524,524,524,524,524,524,524,524,524,524,524,524,524,524,524,524,524,524,524,524,524,524,524,524,524,524,524,524,524,524,524,524,524,524,524,524,524,524,523,521,519,516,512,507,491,479,470,461,449,437,413,400,385,372,336,302,283,264,248,210,190,172,150,131,98],"timestamp_mouse":[9,24,44,63,83,104,122,144,164,183,204,222,242,264,284,303,322,342,364,383,402,423,444,463,484,503,523,542,563,583,604,623,642,663,683,703,723,743,763,783,803,823,843,862,883,903,923,943,963,983,1003,1022,1043,1063,1083,1102,1122,1143,1163,1182,1203,1222,1243,1263,1284,1303,1322,1343,1364,1384,1404],"xSR":741.5,"ySR":469.95,"xT1":424.9,"yT1":0,"xT2":1058.1,"yT2":0,"toosoon":0,"cond_shown":"equaldotsize","ratio_trial":250,"smaller_num":"2","larger_num":"8","correct_side":2,"subjID":"JACOBO DÍAZ SEGURA 5","gender":"0","age":"9","school":"4"},{"start_time":1552313817245,"click_time":1552313818633,"finger_time":1552313818253,"fix_duration":250,"trial":9,"RT":1008,"MT":380,"sideResp":1,"stimulus":"img/900/equaldotsize/R/15_Ratio_900_L_9_R_10.png","xmouse":[807,807,807,807,807,807,807,807,807,807,807,807,807,807,807,807,807,807,807,807,807,807,807,807,807,807,807,807,807,807,807,807,807,807,807,807,807,807,807,807,807,807,807,807,807,807,806,794,784,769,753,737,719,689,675,660,651,641,628,618,609,597,572,561,550,540,533,521,515,510],"ymouse":[515,515,515,515,515,515,515,515,515,515,515,515,515,515,515,515,515,515,515,515,515,515,515,515,515,515,515,515,515,515,515,515,515,515,515,515,515,515,515,515,515,515,515,515,515,515,513,504,494,477,458,435,408,360,340,320,304,284,258,242,227,210,177,162,148,136,127,110,103,94],"timestamp_mouse":[13,31,49,68,88,108,128,147,169,189,209,228,248,267,288,309,327,348,369,388,407,428,448,468,488,508,528,549,568,588,608,629,649,667,687,708,727,749,768,787,809,827,847,867,889,908,927,949,969,988,1008,1028,1047,1068,1088,1108,1127,1148,1167,1188,1207,1229,1249,1267,1289,1308,1327,1349,1367,1388],"xSR":741.5,"ySR":469.95,"xT1":424.9,"yT1":0,"xT2":1058.1,"yT2":0,"toosoon":0,"cond_shown":"equaldotsize","ratio_trial":900,"smaller_num":"9","larger_num":"10","correct_side":2,"subjID":"JACOBO DÍAZ SEGURA 5","gender":"0","age":"9","school":"4"},{"start_time":1552313821388,"click_time":1552313823192,"finger_time":1552313822832,"fix_duration":474.6070268942215,"trial":10,"RT":1444,"MT":360,"sideResp":2,"stimulus":"img/500/equaldotsize/R/2_Ratio_500_L_3_R_6.png","xmouse":[818,823,823,823,823,823,823,821,819,818,816,813,811,809,807,806,803,802,802,802,801,800,800,800,799,799,799,799,799,799,799,799,799,799,799,799,799,799,799,799,799,799,799,799,799,799,799,799,799,799,799,799,799,799,799,799,799,799,799,799,799,799,799,799,799,799,799,799,799,802,808,832,847,864,884,914,961,986,1008,1035,1049,1072,1082,1092,1103,1112,1127,1133,1135,1136,1136],"ymouse":[499,499,499,499,499,499,499,499,498,497,497,496,495,494,493,493,492,491,491,491,491,491,491,491,490,490,490,490,490,490,490,490,490,490,490,490,490,490,490,490,490,490,490,490,490,490,490,490,490,490,490,490,490,490,490,490,490,490,490,490,490,490,490,490,490,490,490,490,490,488,485,473,462,447,428,400,354,333,312,285,270,234,219,203,185,170,141,127,112,105,98],"timestamp_mouse":[4,25,44,66,85,106,124,145,164,184,204,224,244,266,285,304,324,344,366,385,405,424,445,465,485,505,525,545,565,585,605,624,645,664,684,704,725,744,764,785,805,824,846,865,884,904,925,944,965,985,1005,1025,1045,1064,1085,1105,1126,1145,1164,1185,1206,1225,1244,1264,1285,1304,1325,1345,1364,1385,1405,1424,1444,1465,1485,1504,1524,1544,1564,1585,1604,1624,1645,1664,1684,1704,1725,1745,1764,1785,1804],"xSR":741.5,"ySR":469.95,"xT1":424.9,"yT1":0,"xT2":1058.1,"yT2":0,"toosoon":0,"cond_shown":"equaldotsize","ratio_trial":500,"smaller_num":"3","larger_num":"6","correct_side":2,"subjID":"JACOBO DÍAZ SEGURA 5","gender":"0","age":"9","school":"4"},{"start_time":1552313827335,"click_time":1552313828793,"finger_time":1552313828272,"fix_duration":1120.898708496979,"trial":11,"RT":937,"MT":521,"sideResp":1,"stimulus":"img/500/equaldotsize/L/4_Ratio_500_L_18_R_9.png","xmouse":[779,779,779,779,779,779,779,779,779,779,779,779,779,779,779,779,779,779,779,779,779,779,779,779,779,779,779,779,779,779,779,779,779,779,779,779,779,779,779,779,779,779,779,779,773,761,725,709,655,609,595,581,574,568,558,552,545,538,531,526,525,523,520,518,511,508,504,502,502,502,502,502,498],"ymouse":[534,534,534,534,534,534,534,534,534,534,534,534,534,534,534,534,534,534,534,534,534,534,534,534,534,534,534,534,534,534,534,534,534,534,534,534,534,534,534,534,534,534,534,534,532,528,516,511,486,453,440,426,414,403,377,366,354,343,328,310,299,285,270,254,218,201,183,161,148,125,114,104,95],"timestamp_mouse":[17,39,58,78,97,117,138,158,178,198,218,237,258,277,297,318,339,358,378,399,418,438,458,478,497,517,538,558,578,598,617,638,657,678,698,718,738,758,777,799,819,838,858,877,897,918,937,957,978,998,1018,1037,1057,1078,1097,1118,1138,1157,1177,1197,1217,1238,1257,1277,1297,1318,1338,1357,1377,1397,1417,1438,1457],"xSR":741.5,"ySR":469.95,"xT1":424.9,"yT1":0,"xT2":1058.1,"yT2":0,"toosoon":0,"cond_shown":"equaldotsize","ratio_trial":500,"smaller_num":"9","larger_num":"18","correct_side":1,"subjID":"JACOBO DÍAZ SEGURA 5","gender":"0","age":"9","school":"4"},{"start_time":1552313831050,"click_time":1552313835092,"finger_time":1552313833132,"fix_duration":316.5054649917652,"trial":12,"RT":2082,"MT":1960,"sideResp":2,"stimulus":"img/900/randomdotsizeEA/R/6_Ratio_900_L_9_R_10.png","xmouse":[771,771,771,771,771,771,771,771,771,771,771,771,771,771,771,771,771,771,771,771,771,771,771,771,771,771,771,771,771,771,771,771,771,771,771,771,771,771,771,771,771,771,771,771,771,771,771,771,771,771,771,771,771,771,771,771,771,771,771,771,771,771,771,771,771,771,771,771,771,771,771,771,771,771,771,771,771,771,771,771,771,771,771,771,771,771,771,771,771,771,771,771,771,771,771,771,771,771,771,771,770,766,762,753,742,725,720,714,707,697,693,681,671,658,639,635,632,631,631,631,631,631,631,631,631,631,631,631,635,641,662,671,681,693,703,727,738,750,758,768,780,785,789,794,807,815,823,829,833,834,834,834,834,834,834,834,834,834,834,834,834,834,834,834,834,834,834,834,834,834,833,832,828,824,807,798,795,795,795,795,806,813,824,839,863,875,886,902,914,929,954,962,966,970,984,993,1005,1016,1026,1039,1055,1063,1069],"ymouse":[497,497,497,497,497,497,497,497,497,497,497,497,497,497,497,497,497,497,497,497,497,497,497,497,497,497,497,497,497,497,497,497,497,497,497,497,497,497,497,497,497,497,497,497,497,497,497,497,497,497,497,497,497,497,497,497,497,497,497,497,497,497,497,497,497,497,497,497,497,497,497,497,497,497,497,497,497,497,497,497,497,497,497,497,497,497,497,497,497,497,497,497,497,497,497,497,497,497,496,495,489,485,480,473,463,438,427,415,400,383,373,351,339,321,298,291,287,283,282,282,282,282,282,282,282,282,282,282,284,288,296,298,301,305,308,313,315,318,320,321,323,324,324,324,327,328,331,333,333,334,334,334,334,334,334,334,334,334,334,334,334,334,334,334,334,334,334,334,334,334,334,334,333,331,324,320,318,316,315,312,301,297,291,285,275,270,262,252,243,231,209,199,192,187,172,165,155,148,140,126,109,103,98],"timestamp_mouse":[10,22,42,63,82,104,123,143,163,183,203,222,243,263,282,302,323,343,362,382,402,423,444,462,483,504,522,543,562,582,604,623,642,662,682,702,723,742,763,784,803,823,843,864,883,903,922,943,964,982,1003,1022,1044,1062,1082,1104,1122,1143,1162,1183,1203,1222,1243,1262,1282,1303,1323,1343,1362,1383,1402,1422,1443,1462,1482,1502,1522,1542,1563,1583,1603,1623,1643,1663,1684,1703,1723,1743,1764,1782,1803,1822,1844,1864,1883,1903,1923,1943,1963,1983,2003,2022,2044,2063,2082,2102,2122,2143,2162,2184,2204,2223,2242,2262,2283,2302,2323,2342,2362,2383,2402,2423,2443,2463,2483,2503,2522,2543,2562,2582,2603,2622,2642,2662,2682,2702,2722,2742,2762,2782,2803,2822,2843,2862,2883,2902,2922,2943,2962,2983,3003,3023,3044,3062,3083,3102,3123,3143,3163,3183,3202,3222,3243,3263,3282,3303,3323,3343,3363,3383,3403,3422,3443,3462,3483,3502,3522,3543,3562,3582,3603,3622,3643,3664,3684,3702,3722,3742,3762,3782,3803,3822,3843,3862,3884,3902,3922,3943,3962,3983,4004,4023,4042],"xSR":741.5,"ySR":469.95,"xT1":424.9,"yT1":0,"xT2":1058.1,"yT2":0,"toosoon":0,"cond_shown":"randomdotsizeEA","ratio_trial":900,"smaller_num":"9","larger_num":"10","correct_side":2,"subjID":"JACOBO DÍAZ SEGURA 5","gender":"0","age":"9","school":"4"},{"start_time":1552313839023,"click_time":1552313840272,"finger_time":1552313839992,"fix_duration":1189.773820559198,"trial":13,"RT":969,"MT":280,"sideResp":2,"stimulus":"img/500/equaldotsize/R/6_Ratio_500_L_9_R_18.png","xmouse":[819,828,829,829,829,829,829,829,829,828,827,826,824,821,818,817,816,816,814,811,809,808,808,808,808,808,808,808,808,808,808,808,808,808,808,808,808,808,808,808,808,808,808,807,807,807,817,827,846,860,877,913,942,962,988,1010,1061,1099,1121,1135,1145,1148,1149],"ymouse":[533,535,536,536,536,536,536,536,536,536,536,536,536,536,534,534,534,534,534,533,532,532,532,532,532,532,532,532,532,532,532,532,532,532,532,532,532,532,532,532,532,532,532,530,529,525,509,495,472,456,435,388,358,337,316,296,245,199,174,150,129,114,99],"timestamp_mouse":[9,29,49,69,90,110,129,150,169,191,209,229,249,269,289,309,330,350,369,389,409,430,450,469,490,510,529,550,570,589,610,630,650,669,690,709,730,749,770,791,810,830,849,869,889,909,929,950,969,989,1009,1030,1049,1069,1089,1109,1129,1149,1169,1190,1209,1229,1249],"xSR":741.5,"ySR":469.95,"xT1":424.9,"yT1":0,"xT2":1058.1,"yT2":0,"toosoon":0,"cond_shown":"equaldotsize","ratio_trial":500,"smaller_num":"9","larger_num":"18","correct_side":2,"subjID":"JACOBO DÍAZ SEGURA 5","gender":"0","age":"9","school":"4"},{"start_time":1552313842613,"click_time":1552313845255,"finger_time":1552313844592,"fix_duration":1159.0990171114158,"trial":14,"RT":1979,"MT":663,"sideResp":2,"stimulus":"img/500/equaldotsize/R/3_Ratio_500_L_10_R_20.png","xmouse":[803,803,803,803,803,803,803,803,803,803,803,803,803,803,803,803,803,803,803,803,803,803,803,803,803,803,803,803,803,803,803,803,803,803,803,803,803,802,802,802,802,802,802,802,802,802,802,802,802,802,802,802,802,802,802,802,802,802,802,802,802,802,802,802,802,802,802,802,802,802,802,802,802,802,802,802,802,802,802,802,802,802,802,802,802,802,802,802,802,802,802,802,802,802,802,802,802,803,814,824,834,844,867,877,885,890,898,911,937,954,971,988,1009,1045,1056,1067,1070,1078,1089,1092,1094,1094,1096,1096,1096,1096,1096,1096,1096,1097,1098,1098,1101],"ymouse":[509,509,509,509,509,509,509,509,509,509,509,509,509,509,509,509,509,509,509,509,509,509,509,509,509,509,509,509,509,509,509,509,509,509,509,509,509,509,509,509,509,508,508,508,508,508,508,508,508,508,508,508,508,508,508,508,508,508,508,508,508,508,508,508,508,508,508,508,508,508,508,508,508,508,508,508,508,508,508,508,508,508,508,508,508,508,508,508,508,508,508,508,508,508,508,508,505,501,481,465,448,431,390,372,355,343,329,307,271,252,233,218,200,171,161,152,148,141,134,131,130,129,127,127,126,125,125,123,119,116,112,108,97],"timestamp_mouse":[1,28,40,59,79,100,120,139,160,179,201,220,239,260,279,300,320,340,361,381,400,420,440,460,480,500,520,539,559,579,600,619,640,659,679,700,719,740,759,779,800,819,839,860,880,901,919,940,959,980,1001,1021,1039,1060,1079,1100,1119,1139,1159,1180,1200,1221,1241,1260,1280,1300,1320,1340,1360,1380,1401,1419,1440,1459,1480,1501,1520,1540,1560,1579,1600,1619,1639,1660,1680,1701,1720,1740,1760,1780,1799,1820,1840,1860,1881,1899,1920,1939,1960,1979,1999,2020,2041,2059,2079,2100,2120,2140,2159,2180,2200,2220,2239,2259,2280,2299,2320,2340,2359,2379,2400,2420,2441,2459,2479,2500,2519,2539,2559,2580,2599,2619,2641],"xSR":741.5,"ySR":469.95,"xT1":424.9,"yT1":0,"xT2":1058.1,"yT2":0,"toosoon":0,"cond_shown":"equaldotsize","ratio_trial":500,"smaller_num":"10","larger_num":"20","correct_side":2,"subjID":"JACOBO DÍAZ SEGURA 5","gender":"0","age":"9","school":"4"},{"start_time":1552313847123,"click_time":1552313851053,"finger_time":1552313848172,"fix_duration":849.099508169596,"trial":15,"RT":1049,"MT":2881,"sideResp":2,"stimulus":"img/750/equaldotanddens/L/8_Ratio_750_L_4_R_3.png","xmouse":[795,795,796,796,797,797,798,798,798,798,798,798,798,798,798,798,798,798,798,798,798,798,798,798,798,798,798,797,797,797,797,797,797,797,797,797,797,797,797,797,797,797,797,798,799,800,801,804,804,805,812,821,844,852,856,858,861,872,880,888,904,916,950,967,983,999,1011,1030,1034,1038,1039,1039,1041,1041,1041,1041,1041,1041,1041,1041,1041,1041,1041,1041,1041,1041,1041,1040,1040,1040,1040,1039,1039,1038,1038,1038,1038,1038,1038,1038,1038,1038,1037,1036,1036,1035,1034,1032,1029,1025,1022,1021,1021,1021,1021,1020,1020,1019,1017,1017,1017,1016,1014,1013,1012,1009,1007,999,995,988,984,981,978,971,966,961,957,952,945,942,938,935,931,923,919,917,915,912,910,909,907,904,896,894,891,889,888,887,886,885,884,883,879,877,877,877,877,877,877,877,877,877,877,876,874,872,868,862,860,859,859,859,859,859,862,871,885,920,946,966,989,1008,1025,1047,1053,1057,1059],"ymouse":[531,531,530,530,530,530,529,529,528,526,526,526,525,525,524,524,524,524,524,524,524,524,524,524,524,522,522,521,521,521,520,520,520,520,520,520,519,519,518,517,517,516,514,513,511,511,509,507,506,505,497,488,470,464,458,453,447,430,421,412,399,388,363,351,340,329,320,304,299,295,294,292,291,291,291,291,291,291,291,291,291,291,291,291,291,291,291,291,291,291,291,291,291,291,291,291,291,291,291,291,291,291,291,291,291,291,291,291,291,291,291,291,291,291,291,292,292,292,293,293,293,293,293,293,293,294,294,295,295,295,295,295,295,295,295,295,295,295,294,293,293,292,292,290,290,290,290,289,289,289,289,289,288,288,287,287,287,286,286,286,286,286,286,286,286,286,286,286,286,286,286,286,286,286,286,286,286,288,289,290,290,290,290,290,289,283,275,249,220,198,174,148,125,87,74,64,56],"timestamp_mouse":[9,29,49,69,90,109,130,149,169,190,209,229,250,269,289,309,330,350,370,389,410,429,449,470,490,510,530,549,570,590,610,630,651,670,690,709,729,749,769,789,809,829,849,870,890,909,930,949,970,990,1009,1029,1049,1069,1089,1110,1130,1150,1169,1190,1209,1229,1250,1283,1289,1309,1329,1350,1369,1389,1410,1429,1449,1470,1489,1510,1529,1549,1570,1590,1609,1630,1649,1670,1689,1710,1730,1750,1769,1789,1810,1829,1849,1869,1901,1909,1931,1949,1970,1990,2010,2029,2049,2070,2089,2109,2130,2149,2169,2189,2210,2230,2249,2270,2291,2309,2329,2349,2370,2390,2410,2429,2449,2470,2490,2511,2530,2550,2570,2590,2609,2631,2649,2669,2690,2709,2731,2749,2770,2789,2810,2829,2849,2869,2890,2909,2929,2950,2970,2990,3009,3029,3049,3069,3089,3109,3130,3150,3169,3190,3210,3229,3250,3269,3290,3310,3329,3350,3370,3389,3410,3430,3450,3469,3489,3509,3530,3550,3569,3590,3610,3630,3649,3669,3689,3709,3730,3750,3769,3790,3809,3830,3850,3869,3889,3909,3930],"xSR":741.5,"ySR":469.95,"xT1":424.9,"yT1":0,"xT2":1058.1,"yT2":0,"toosoon":0,"cond_shown":"equaldotanddens","ratio_trial":750,"smaller_num":"3","larger_num":"4","correct_side":1,"subjID":"JACOBO DÍAZ SEGURA 5","gender":"0","age":"9","school":"4"},{"start_time":1552313852744,"click_time":1552313856153,"finger_time":1552313854712,"fix_duration":469.49798224781426,"trial":16,"RT":1968,"MT":1441,"sideResp":2,"stimulus":"img/750/equaldotsize/L/13_Ratio_750_L_8_R_6.png","xmouse":[793,793,793,792,792,792,792,792,792,792,792,791,791,789,788,788,787,786,786,786,786,786,785,784,784,783,783,782,782,782,782,782,782,782,782,782,782,781,781,781,780,780,780,780,780,780,780,780,780,780,780,780,780,779,779,778,778,778,778,778,778,778,778,778,778,778,778,778,778,778,778,778,778,778,778,777,777,777,776,776,776,776,776,776,776,776,776,776,776,776,776,776,776,776,775,773,769,760,753,742,731,720,696,684,675,663,652,628,613,599,590,585,576,573,569,567,564,563,563,563,563,563,563,563,563,563,565,571,578,592,611,635,681,696,714,723,731,754,766,780,791,806,842,862,882,911,930,966,980,989,998,1003,1011,1014,1020,1021,1024,1027,1028,1029,1031,1033,1036,1038,1040,1044,1047,1053,1056,1057,1059],"ymouse":[490,490,491,492,492,492,492,492,492,492,492,493,493,494,494,494,494,495,495,495,495,495,495,495,495,495,495,495,495,495,495,495,495,495,495,495,495,495,495,495,495,495,494,494,494,494,494,494,494,494,494,494,493,492,491,491,491,491,491,491,491,491,491,491,491,491,491,490,489,489,489,489,489,489,489,488,488,488,488,487,487,487,487,487,487,487,487,487,487,485,485,484,484,483,483,480,477,471,465,457,450,445,433,426,419,410,402,383,371,360,348,336,313,301,292,286,279,274,274,272,272,271,266,263,260,254,251,248,245,242,240,237,231,229,227,224,222,219,218,216,214,212,205,202,200,196,192,181,175,168,162,156,144,140,133,131,128,121,118,116,114,112,108,107,105,102,100,96,94,94,92],"timestamp_mouse":[9,28,48,69,89,108,129,149,168,189,208,229,248,269,290,309,328,349,368,388,408,428,448,468,488,510,528,549,568,589,609,629,649,668,688,709,728,749,769,789,808,830,850,869,888,908,929,950,968,988,1009,1029,1048,1069,1088,1108,1128,1149,1169,1189,1209,1229,1249,1270,1288,1308,1328,1349,1368,1389,1410,1429,1448,1469,1489,1508,1529,1549,1569,1588,1609,1629,1649,1668,1689,1708,1728,1748,1769,1788,1808,1829,1849,1868,1889,1909,1928,1948,1968,1989,2009,2029,2049,2068,2088,2108,2128,2148,2169,2188,2209,2228,2248,2268,2288,2308,2329,2349,2368,2388,2408,2430,2448,2468,2488,2508,2529,2548,2568,2588,2608,2628,2648,2669,2688,2708,2728,2749,2769,2788,2809,2828,2848,2868,2889,2909,2928,2949,2968,2988,3009,3028,3048,3068,3088,3109,3128,3149,3168,3188,3208,3230,3248,3269,3289,3308,3328,3348,3369,3388,3409],"xSR":741.5,"ySR":469.95,"xT1":424.9,"yT1":0,"xT2":1058.1,"yT2":0,"toosoon":0,"cond_shown":"equaldotsize","ratio_trial":750,"smaller_num":"6","larger_num":"8","correct_side":1,"subjID":"JACOBO DÍAZ SEGURA 5","gender":"0","age":"9","school":"4"},{"start_time":1552313859449,"click_time":1552313861013,"finger_time":1552313860413,"fix_duration":1296.099385695983,"trial":17,"RT":964,"MT":600,"sideResp":2,"stimulus":"img/900/equaldotsize/R/7_Ratio_900_L_9_R_10.png","xmouse":[794,794,794,794,794,794,794,794,794,794,794,794,794,794,794,794,794,794,794,794,794,794,794,794,794,794,794,794,794,794,794,794,794,794,794,794,794,794,794,794,794,794,794,794,794,794,794,814,827,837,845,855,877,890,911,935,962,981,1023,1039,1056,1071,1083,1097,1102,1105,1106,1108,1110,1111,1111,1111,1111,1112,1112,1112,1112,1112,1112],"ymouse":[498,498,498,498,497,497,497,496,495,495,495,495,495,495,494,494,494,494,494,494,493,493,493,493,493,493,493,493,493,493,493,493,493,493,493,493,493,493,493,493,493,493,493,493,493,493,491,475,466,458,452,442,415,400,382,361,338,316,270,251,234,215,196,161,150,140,131,125,112,109,106,105,103,102,102,102,100,100,91],"timestamp_mouse":[10,23,44,64,83,104,123,144,163,183,203,224,244,264,284,303,323,343,363,384,403,423,445,464,484,504,525,543,564,583,603,624,644,664,683,703,723,744,764,784,805,824,844,864,884,904,923,944,964,984,1003,1023,1044,1063,1083,1104,1124,1143,1164,1183,1203,1224,1243,1263,1283,1303,1323,1343,1364,1384,1404,1423,1444,1464,1484,1503,1523,1543,1564],"xSR":741.5,"ySR":469.95,"xT1":424.9,"yT1":0,"xT2":1058.1,"yT2":0,"toosoon":0,"cond_shown":"equaldotsize","ratio_trial":900,"smaller_num":"9","larger_num":"10","correct_side":2,"subjID":"JACOBO DÍAZ SEGURA 5","gender":"0","age":"9","school":"4"},{"start_time":1552313864797,"click_time":1552313866413,"finger_time":1552313866173,"fix_duration":1443.5589610629227,"trial":18,"RT":1376,"MT":240,"sideResp":1,"stimulus":"img/750/equaldotsize/L/8_Ratio_750_L_4_R_3.png","xmouse":[788,788,788,788,788,788,788,788,788,788,788,788,788,788,788,788,788,788,788,788,788,788,788,788,788,788,788,788,788,788,788,788,788,788,788,788,788,788,788,788,788,788,788,788,788,788,788,788,788,788,788,788,788,788,788,788,788,788,788,789,788,786,784,782,780,779,776,772,766,756,730,713,694,678,662,622,582,556,534,514,494],"ymouse":[524,524,524,524,524,524,524,524,524,524,524,524,524,524,524,524,524,524,524,524,524,524,524,524,524,524,524,524,524,524,524,524,524,524,524,524,524,524,524,524,524,524,524,524,524,524,524,524,524,524,524,524,524,524,524,524,524,524,524,524,518,514,511,508,506,502,492,482,468,449,406,383,356,328,300,237,186,158,136,119,97],"timestamp_mouse":[16,35,56,75,96,115,136,156,176,195,215,236,256,276,296,316,336,356,376,395,415,436,456,475,496,515,536,556,575,596,616,636,657,675,695,716,736,756,775,795,817,836,855,876,896,916,936,956,975,997,1015,1036,1056,1075,1096,1116,1136,1156,1176,1195,1215,1235,1256,1276,1296,1315,1336,1355,1376,1395,1415,1435,1455,1475,1495,1516,1535,1555,1576,1595,1616],"xSR":741.5,"ySR":469.95,"xT1":424.9,"yT1":0,"xT2":1058.1,"yT2":0,"toosoon":0,"cond_shown":"equaldotsize","ratio_trial":750,"smaller_num":"3","larger_num":"4","correct_side":1,"subjID":"JACOBO DÍAZ SEGURA 5","gender":"0","age":"9","school":"4"},{"start_time":1552313868854,"click_time":1552313873273,"finger_time":1552313871713,"fix_duration":739.4486299276535,"trial":19,"RT":2859,"MT":1560,"sideResp":1,"stimulus":"img/750/randomdotsizeEA/R/3_Ratio_750_L_15_R_20.png","xmouse":[780,780,780,781,781,781,781,781,781,781,781,781,782,782,782,782,782,782,782,782,782,782,782,782,782,782,782,782,782,782,781,780,776,768,768,767,766,764,754,751,750,750,749,749,749,749,749,749,749,749,749,749,749,749,749,749,749,749,749,749,749,749,749,749,749,749,749,749,749,749,749,749,749,749,749,749,749,749,749,749,749,749,749,749,749,749,749,750,751,752,752,753,754,754,755,755,757,759,760,760,760,760,760,761,761,762,762,762,762,762,762,762,763,763,763,763,763,763,763,763,763,763,763,761,760,759,759,759,759,758,758,758,758,758,758,758,758,758,758,759,759,761,762,762,763,763,765,766,768,769,771,773,779,788,793,795,797,799,805,807,811,814,817,823,827,831,834,836,840,840,842,844,847,849,849,850,850,851,853,853,853,854,854,855,855,855,855,854,841,821,806,800,781,767,763,756,747,732,696,675,653,629,622,612,605,597,587,576,558,553,547,543,539,535,532,527,524,521,518,517,516],"ymouse":[520,520,520,520,520,520,520,520,520,520,520,520,520,520,520,520,520,520,520,520,520,520,520,520,520,520,520,520,520,520,521,521,522,523,523,524,525,526,528,528,528,528,529,529,529,529,529,529,529,529,529,529,529,529,529,529,529,529,529,529,529,529,529,529,529,529,529,529,529,529,529,529,529,529,529,529,529,529,529,529,529,529,529,528,528,526,525,523,521,519,519,518,516,515,513,512,509,504,502,501,500,498,498,497,496,494,494,494,494,493,493,492,492,492,492,491,491,491,490,490,489,488,487,486,485,484,484,484,483,483,481,481,481,481,481,481,480,477,476,473,473,471,469,468,468,467,465,463,461,460,458,457,454,449,446,445,443,441,437,435,433,430,428,423,420,417,415,414,412,411,410,409,408,406,406,406,406,405,404,404,404,403,403,403,403,402,402,401,395,387,380,379,371,361,357,352,346,338,317,307,297,281,275,259,250,239,227,213,189,179,164,155,146,131,124,116,112,108,102,100,98],"timestamp_mouse":[18,38,58,78,99,119,139,158,178,199,218,240,259,283,298,319,338,358,379,398,418,439,458,480,499,518,538,558,578,598,618,638,658,680,698,719,738,759,778,800,819,838,859,878,898,919,939,958,979,998,1019,1038,1059,1089,1098,1118,1140,1159,1178,1199,1219,1238,1258,1278,1300,1319,1338,1359,1379,1399,1419,1439,1459,1479,1498,1520,1539,1559,1579,1599,1618,1639,1659,1678,1698,1719,1739,1758,1778,1799,1818,1839,1859,1879,1898,1918,1938,1959,1978,1998,2018,2039,2059,2078,2099,2119,2139,2158,2179,2199,2219,2239,2260,2279,2299,2318,2339,2360,2379,2398,2418,2439,2458,2479,2499,2519,2539,2559,2578,2599,2619,2640,2659,2678,2698,2718,2738,2758,2778,2799,2818,2838,2859,2878,2898,2918,2938,2959,2978,2998,3018,3038,3059,3079,3098,3118,3138,3159,3178,3198,3218,3239,3259,3278,3298,3318,3338,3358,3378,3398,3418,3439,3458,3479,3498,3518,3538,3559,3578,3599,3619,3638,3659,3679,3699,3719,3738,3759,3778,3798,3818,3839,3859,3878,3898,3920,3939,3958,3978,3998,4019,4039,4059,4078,4098,4119,4138,4158,4178,4198,4218,4238,4259,4279,4298,4318,4338,4359,4378,4398,4419],"xSR":741.5,"ySR":469.95,"xT1":424.9,"yT1":0,"xT2":1058.1,"yT2":0,"toosoon":0,"cond_shown":"randomdotsizeEA","ratio_trial":750,"smaller_num":"15","larger_num":"20","correct_side":2,"subjID":"JACOBO DÍAZ SEGURA 5","gender":"0","age":"9","school":"4"},{"start_time":1552313875383,"click_time":1552313877233,"finger_time":1552313876632,"fix_duration":349.84120784297437,"trial":20,"RT":1249,"MT":601,"sideResp":2,"stimulus":"img/750/equaldotanddens/R/12_Ratio_750_L_3_R_4.png","xmouse":[775,775,775,775,775,775,775,775,775,776,778,780,781,781,781,781,782,782,782,782,782,782,782,782,782,782,782,782,782,782,782,782,782,782,782,782,782,782,782,782,782,782,781,780,780,779,779,774,772,770,768,766,765,765,765,765,765,765,765,768,778,791,817,828,831,835,837,852,863,877,892,907,940,966,980,992,1002,1030,1046,1062,1078,1091,1101,1101,1102,1104,1107,1109,1109,1109,1109,1109,1109],"ymouse":[516,516,516,516,516,516,516,516,516,515,515,517,517,517,517,517,517,517,517,517,517,517,518,518,518,518,518,518,518,518,518,518,518,518,518,518,518,518,518,519,519,520,521,522,522,523,523,526,526,527,527,528,528,528,528,528,528,528,528,522,504,487,456,436,424,413,405,380,367,351,333,319,293,276,266,254,243,221,211,199,186,174,145,139,135,132,127,120,116,110,106,101,89],"timestamp_mouse":[9,38,49,69,89,110,129,149,169,190,209,229,249,270,289,311,329,350,371,389,410,429,450,470,490,510,530,550,569,590,610,630,649,669,690,711,730,750,769,790,810,829,850,871,890,909,930,949,969,990,1010,1030,1049,1070,1090,1110,1131,1149,1169,1189,1209,1230,1249,1269,1289,1309,1329,1350,1369,1390,1409,1429,1451,1469,1489,1509,1529,1549,1569,1589,1609,1629,1650,1669,1689,1711,1730,1750,1769,1789,1809,1829,1849],"xSR":741.5,"ySR":469.95,"xT1":424.9,"yT1":0,"xT2":1058.1,"yT2":0,"toosoon":0,"cond_shown":"equaldotanddens","ratio_trial":750,"smaller_num":"3","larger_num":"4","correct_side":2,"subjID":"JACOBO DÍAZ SEGURA 5","gender":"0","age":"9","school":"4"},{"start_time":1552313879464,"click_time":1552313881332,"finger_time":1552313880492,"fix_duration":511.7189335873326,"trial":21,"RT":1028,"MT":840,"sideResp":2,"stimulus":"img/250/equaldotanddens/R/10_Ratio_250_L_4_R_16.png","xmouse":[788,788,788,788,788,788,788,788,788,788,788,788,788,788,788,788,788,788,788,788,788,788,788,788,788,788,788,788,788,788,788,788,788,788,788,788,788,788,788,788,788,788,788,788,788,788,788,790,798,825,840,855,870,885,922,943,967,990,1066,1089,1104,1114,1120,1128,1145,1153,1163,1165,1175,1187,1194,1200,1202,1204,1204,1204,1202,1194,1189,1189,1189,1189,1189,1189,1189,1189,1189,1189,1189,1189,1189,1189,1189,1089],"ymouse":[512,512,512,512,512,512,512,512,512,512,512,512,512,512,512,512,512,512,512,512,512,512,512,512,512,512,512,512,512,512,512,512,512,512,512,512,512,512,512,512,512,512,512,512,512,512,512,512,507,496,491,486,481,476,460,451,441,431,398,386,377,369,362,350,320,305,284,278,255,215,189,166,145,126,93,73,55,25,6,6,6,6,6,6,6,6,6,6,6,6,6,6,6,7],"timestamp_mouse":[12,31,48,69,88,108,129,148,168,189,208,230,248,268,289,310,329,349,368,388,409,428,450,469,489,509,530,549,570,589,608,629,648,669,690,708,729,749,769,788,809,828,849,868,889,909,929,948,969,988,1008,1028,1049,1069,1088,1108,1129,1148,1170,1188,1208,1228,1248,1269,1288,1309,1329,1349,1368,1388,1408,1428,1448,1468,1488,1509,1528,1549,1568,1588,1609,1628,1649,1668,1689,1709,1728,1748,1768,1788,1808,1829,1849,1868],"xSR":741.5,"ySR":469.95,"xT1":424.9,"yT1":0,"xT2":1058.1,"yT2":0,"toosoon":0,"cond_shown":"equaldotanddens","ratio_trial":250,"smaller_num":"4","larger_num":"16","correct_side":2,"subjID":"JACOBO DÍAZ SEGURA 5","gender":"0","age":"9","school":"4"},{"start_time":1552313883589,"click_time":1552313885893,"finger_time":1552313884753,"fix_duration":835.5862292091352,"trial":22,"RT":1164,"MT":1140,"sideResp":2,"stimulus":"img/900/equaldotanddens/R/6_Ratio_900_L_9_R_10.png","xmouse":[771,771,771,771,771,771,771,771,771,771,771,771,771,771,771,771,771,771,771,771,771,771,771,771,771,771,771,771,771,771,771,771,771,771,771,771,771,771,771,771,771,771,771,771,771,771,771,771,771,771,771,771,771,771,772,780,796,815,861,898,919,935,943,948,948,948,950,959,1008,1071,1118,1165,1205,1242,1288,1302,1320,1320,1320,1320,1320,1320,1320,1320,1320,1320,1320,1320,1320,1320,1320,1320,1320,1320,1320,1320,1320,1320,917,900,900,900,900,900,900,900,902,908,916,946,961,979,999,1020,1052,1063],"ymouse":[505,505,505,505,505,505,505,505,505,505,505,505,505,505,505,505,505,505,505,505,505,505,505,505,505,505,505,505,505,505,505,505,505,505,505,505,505,505,505,505,505,505,505,505,505,505,505,505,505,505,505,505,505,505,505,500,494,486,467,451,441,434,430,428,428,428,426,419,382,319,265,204,151,102,40,21,0,0,0,0,0,0,0,0,0,0,0,0,0,0,0,0,0,0,0,0,0,0,23,26,26,26,26,26,26,26,26,25,23,19,17,16,16,16,16,16],"timestamp_mouse":[13,34,45,64,85,105,124,145,165,185,204,224,245,265,284,305,325,345,364,385,405,424,445,465,484,505,525,543,565,585,604,625,644,665,684,703,725,745,764,785,804,824,845,864,885,905,925,945,965,985,1005,1025,1044,1065,1084,1104,1124,1144,1164,1185,1204,1224,1244,1265,1284,1304,1325,1344,1365,1384,1404,1425,1444,1464,1484,1505,1525,1544,1565,1584,1605,1625,1645,1664,1684,1704,1724,1744,1764,1784,1804,1825,1844,1864,1884,1905,1924,1945,1965,1983,2005,2025,2045,2065,2085,2105,2124,2144,2164,2185,2204,2224,2244,2264,2284,2303],"xSR":741.5,"ySR":469.95,"xT1":424.9,"yT1":0,"xT2":1058.1,"yT2":0,"toosoon":0,"cond_shown":"equaldotanddens","ratio_trial":900,"smaller_num":"9","larger_num":"10","correct_side":2,"subjID":"JACOBO DÍAZ SEGURA 5","gender":"0","age":"9","school":"4"},{"start_time":1552313888080,"click_time":1552313889655,"finger_time":1552313888993,"fix_duration":666.7042952212852,"trial":23,"RT":913,"MT":662,"sideResp":2,"stimulus":"img/750/equaldotsize/R/3_Ratio_750_L_15_R_20.png","xmouse":[797,797,797,797,797,797,797,797,797,797,797,797,797,797,797,797,797,797,797,797,797,797,797,797,797,797,797,797,797,797,797,797,797,797,797,797,797,797,797,797,797,798,800,806,834,852,872,891,935,955,975,993,1012,1022,1035,1040,1048,1058,1094,1118,1146,1174,1188,1195,1196,1197,1198,1198,1199,1201,1201,1201,1201,1201,1200,1197,1188,1170,1145],"ymouse":[509,509,509,509,509,509,509,509,509,509,509,509,509,509,509,509,509,509,509,509,509,509,509,509,509,509,509,509,509,509,509,509,509,509,509,509,509,509,509,509,509,509,508,506,497,490,483,474,455,445,434,425,414,406,396,391,381,369,308,252,184,129,101,83,77,74,69,65,60,50,50,50,50,49,49,48,46,44,42],"timestamp_mouse":[14,37,53,74,93,114,134,154,174,194,213,234,254,273,294,313,333,354,373,394,414,433,453,474,493,514,533,554,574,594,613,633,653,673,694,713,732,753,774,794,814,833,853,874,894,913,934,953,974,993,1013,1033,1054,1073,1093,1113,1134,1153,1175,1193,1214,1234,1253,1273,1294,1313,1333,1353,1373,1397,1413,1433,1452,1474,1493,1513,1534,1554,1575],"xSR":741.5,"ySR":469.95,"xT1":424.9,"yT1":0,"xT2":1058.1,"yT2":0,"toosoon":0,"cond_shown":"equaldotsize","ratio_trial":750,"smaller_num":"15","larger_num":"20","correct_side":2,"subjID":"JACOBO DÍAZ SEGURA 5","gender":"0","age":"9","school":"4"},{"start_time":1552313892886,"click_time":1552313894373,"finger_time":1552313893633,"fix_duration":250,"trial":24,"RT":747,"MT":740,"sideResp":1,"stimulus":"img/500/randomdotsizeEA/R/1_Ratio_500_L_9_R_18.png","xmouse":[813,813,813,813,813,813,813,813,813,813,813,813,813,813,813,813,813,813,813,813,813,813,813,813,813,813,813,813,813,813,813,813,813,813,813,813,813,814,816,816,816,808,795,773,762,762,762,762,762,762,762,762,762,762,762,762,762,762,762,572,560,560,560,560,560,560,560,560,560,553,548,543,538,529,518],"ymouse":[471,471,471,471,471,471,471,471,471,471,471,471,471,471,471,471,471,471,471,471,471,471,471,471,471,471,471,471,471,471,471,471,471,471,471,471,472,461,451,352,289,203,116,35,0,0,0,0,0,0,0,0,0,0,0,0,0,0,0,7,29,29,29,29,29,29,29,29,29,29,29,29,29,29,29],"timestamp_mouse":[12,30,47,68,87,106,128,148,167,187,208,227,248,267,287,307,327,348,367,388,408,428,448,468,487,507,528,547,568,587,608,628,647,667,687,708,728,747,767,788,807,827,848,867,888,909,927,947,968,987,1007,1028,1046,1066,1088,1106,1127,1147,1168,1187,1206,1227,1247,1268,1287,1308,1328,1348,1367,1388,1407,1427,1447,1466,1487],"xSR":741.5,"ySR":469.95,"xT1":424.9,"yT1":0,"xT2":1058.1,"yT2":0,"toosoon":0,"cond_shown":"randomdotsizeEA","ratio_trial":500,"smaller_num":"9","larger_num":"18","correct_side":2,"subjID":"JACOBO DÍAZ SEGURA 5","gender":"0","age":"9","school":"4"},{"start_time":1552313898338,"click_time":1552313899773,"finger_time":1552313899293,"fix_duration":563.1994178167287,"trial":25,"RT":955,"MT":480,"sideResp":2,"stimulus":"img/750/randomdotsizeEA/R/11_Ratio_750_L_12_R_16.png","xmouse":[791,791,791,791,791,791,791,791,791,791,791,791,791,791,791,791,791,791,791,791,791,791,791,791,791,791,791,791,791,791,791,791,791,791,791,791,791,791,791,791,791,791,791,791,791,791,802,851,884,912,931,945,956,964,967,977,987,1007,1019,1031,1043,1058,1088,1103,1119,1128,1132,1138,1139,1141,1142,1145],"ymouse":[516,516,516,516,516,516,516,516,516,516,516,516,516,516,516,516,516,516,516,516,516,516,516,516,516,516,516,516,516,516,516,516,516,516,516,516,516,516,516,516,516,516,516,516,516,514,502,463,441,421,407,396,387,381,377,364,354,330,315,298,280,259,212,186,153,137,128,119,115,111,105,94],"timestamp_mouse":[21,35,55,75,95,115,135,155,176,195,215,236,255,275,295,316,335,356,375,396,415,435,455,475,496,515,536,556,575,595,615,635,656,675,695,715,736,755,775,796,816,836,855,876,896,915,935,955,975,994,1015,1034,1055,1076,1095,1115,1135,1155,1175,1195,1216,1234,1256,1276,1295,1316,1335,1355,1375,1396,1415,1435],"xSR":741.5,"ySR":469.95,"xT1":424.9,"yT1":0,"xT2":1058.1,"yT2":0,"toosoon":0,"cond_shown":"randomdotsizeEA","ratio_trial":750,"smaller_num":"12","larger_num":"16","correct_side":2,"subjID":"JACOBO DÍAZ SEGURA 5","gender":"0","age":"9","school":"4"},{"start_time":1552313902205,"click_time":1552313903613,"finger_time":1552313903133,"fix_duration":789.3935892826237,"trial":26,"RT":928,"MT":480,"sideResp":1,"stimulus":"img/500/randomdotsizeEA/L/10_Ratio_500_L_4_R_2.png","xmouse":[781,781,781,781,781,781,781,781,781,781,781,781,781,781,781,781,781,781,781,781,781,781,781,781,781,781,781,781,781,781,781,781,781,781,781,781,781,781,781,781,781,781,781,781,780,774,769,762,753,727,717,709,704,701,698,695,693,689,683,676,664,662,657,649,638,608,589,567,548,530,508],"ymouse":[488,488,488,488,488,488,488,488,488,488,488,488,488,488,488,488,488,488,488,488,488,488,488,488,488,488,488,488,488,488,488,488,488,488,488,488,488,488,488,488,488,488,488,488,487,471,456,436,408,320,289,266,244,225,197,184,174,163,151,140,130,129,129,127,125,116,110,103,98,92,85],"timestamp_mouse":[9,36,48,68,88,108,129,148,169,188,208,229,248,268,289,309,328,348,368,389,408,428,449,468,488,509,528,549,568,589,608,628,648,669,689,709,729,749,768,789,807,829,849,868,889,908,928,948,969,989,1009,1029,1049,1069,1088,1108,1129,1147,1169,1188,1208,1227,1249,1268,1287,1307,1328,1348,1368,1388,1408],"xSR":741.5,"ySR":469.95,"xT1":424.9,"yT1":0,"xT2":1058.1,"yT2":0,"toosoon":0,"cond_shown":"randomdotsizeEA","ratio_trial":500,"smaller_num":"2","larger_num":"4","correct_side":1,"subjID":"JACOBO DÍAZ SEGURA 5","gender":"0","age":"9","school":"4"},{"start_time":1552313906872,"click_time":1552313908353,"finger_time":1552313907613,"fix_duration":578.0450421912498,"trial":27,"RT":741,"MT":740,"sideResp":1,"stimulus":"img/250/equaldotsize/L/14_Ratio_250_L_12_R_3.png","xmouse":[801,801,801,801,801,801,801,801,801,801,801,801,801,800,800,800,800,800,800,800,799,799,799,799,799,798,798,796,796,796,796,795,794,794,792,791,790,785,782,776,772,766,749,735,707,694,655,611,594,577,564,555,539,535,533,532,532,532,532,531,531,531,531,531,531,531,531,531,531,531,531,531,529,525,522],"ymouse":[527,527,527,527,527,527,527,527,527,527,527,527,527,526,526,526,526,526,526,526,526,526,526,526,524,522,520,515,514,513,511,510,507,504,501,493,487,469,458,443,426,404,343,301,231,207,145,93,77,64,56,51,43,40,40,40,40,40,40,40,40,40,40,40,40,40,40,40,40,40,40,40,41,43,44],"timestamp_mouse":[12,21,41,61,81,101,122,141,161,182,201,223,242,261,282,301,321,341,361,382,402,421,441,461,481,501,522,541,562,581,601,621,641,661,682,701,721,741,761,781,801,821,840,862,881,900,921,941,961,980,1002,1021,1041,1061,1082,1101,1121,1142,1162,1181,1202,1220,1241,1261,1282,1301,1321,1342,1362,1382,1401,1422,1441,1461,1481],"xSR":741.5,"ySR":469.95,"xT1":424.9,"yT1":0,"xT2":1058.1,"yT2":0,"toosoon":0,"cond_shown":"equaldotsize","ratio_trial":250,"smaller_num":"3","larger_num":"12","correct_side":1,"subjID":"JACOBO DÍAZ SEGURA 5","gender":"0","age":"9","school":"4"},{"start_time":1552313910729,"click_time":1552313914534,"finger_time":1552313912694,"fix_duration":1135.9459903085335,"trial":28,"RT":1965,"MT":1840,"sideResp":2,"stimulus":"img/900/equaldotanddens/L/1_Ratio_900_L_10_R_9.png","xmouse":[806,806,806,806,806,806,806,806,806,806,806,806,806,806,806,806,806,806,806,806,806,806,806,806,806,806,806,806,806,806,806,806,806,806,806,806,806,806,806,806,806,806,806,806,806,806,806,806,806,806,806,806,806,806,806,806,806,806,806,806,806,806,806,806,806,806,806,806,806,806,806,806,806,806,806,806,806,806,806,806,806,806,806,806,806,806,806,806,806,806,806,806,807,809,814,818,823,831,839,846,861,862,863,863,863,863,863,863,863,863,863,863,863,863,863,863,859,847,825,779,727,718,718,718,718,718,718,718,718,718,718,718,718,718,718,718,718,718,719,725,731,736,742,748,765,775,785,794,799,802,812,818,829,840,853,863,849,825,786,786,786,786,786,786,786,786,786,786,786,786,748,748,754,764,774,790,795,795,795,795,795,796,796,800,820,840,878,927,992,1073,1130],"ymouse":[516,516,516,516,516,516,516,516,516,516,516,516,516,516,516,516,516,516,516,516,516,516,516,516,516,516,516,516,516,516,516,516,516,516,516,516,516,516,516,516,516,516,516,516,516,516,516,516,516,516,516,516,516,516,516,516,516,516,516,516,516,516,516,516,516,516,516,516,516,516,516,516,516,516,516,516,516,516,516,516,516,516,516,516,516,516,516,516,516,516,516,516,514,509,501,496,487,477,465,452,431,429,428,428,428,428,428,428,428,428,428,428,428,428,428,428,432,443,461,498,535,540,540,540,540,540,540,540,540,540,540,540,540,540,540,540,540,540,540,537,536,534,533,532,526,524,521,518,517,515,508,503,489,466,422,267,179,98,15,15,15,15,15,15,15,15,15,15,15,15,20,83,161,232,297,369,378,379,379,379,379,379,379,378,360,344,308,266,204,127,84],"timestamp_mouse":[9,23,44,64,85,104,124,144,164,184,204,223,245,265,285,304,324,345,364,385,404,426,445,465,485,504,525,544,563,585,605,625,644,665,684,705,725,744,765,783,805,825,845,865,885,903,924,945,965,984,1004,1024,1044,1064,1084,1105,1125,1145,1165,1185,1204,1225,1244,1265,1284,1304,1324,1344,1364,1385,1404,1425,1445,1465,1485,1505,1525,1544,1565,1584,1604,1625,1645,1665,1685,1704,1724,1744,1764,1785,1805,1824,1844,1864,1884,1904,1923,1944,1965,1984,2004,2024,2044,2064,2084,2105,2125,2144,2164,2185,2204,2224,2245,2264,2285,2304,2325,2344,2364,2384,2404,2425,2444,2464,2485,2505,2524,2544,2564,2585,2604,2625,2644,2663,2685,2704,2725,2744,2764,2785,2804,2824,2845,2864,2885,2904,2924,2945,2964,2984,3004,3024,3044,3064,3084,3104,3124,3144,3165,3184,3205,3224,3244,3264,3284,3304,3325,3345,3365,3385,3405,3424,3445,3464,3485,3504,3525,3545,3564,3584,3604,3625,3644,3664,3686,3703,3725,3744,3765,3784,3805],"xSR":741.5,"ySR":469.95,"xT1":424.9,"yT1":0,"xT2":1058.1,"yT2":0,"toosoon":0,"cond_shown":"equaldotanddens","ratio_trial":900,"smaller_num":"9","larger_num":"10","correct_side":1,"subjID":"JACOBO DÍAZ SEGURA 5","gender":"0","age":"9","school":"4"},{"start_time":1552313917270,"click_time":1552313918973,"finger_time":1552313918233,"fix_duration":374.92929901142935,"trial":29,"RT":963,"MT":740,"sideResp":1,"stimulus":"img/900/equaldotanddens/L/10_Ratio_900_L_20_R_18.png","xmouse":[755,755,755,755,755,755,755,755,755,755,755,755,755,755,755,755,755,755,755,755,755,755,755,755,755,755,755,755,755,755,755,755,755,755,755,755,755,755,755,755,755,755,755,755,755,755,756,755,740,736,717,702,687,655,643,633,626,624,623,623,623,623,623,623,619,614,609,598,576,559,552,548,546,546,546,546,546,546,546,545,544,542,538,529,525,522],"ymouse":[503,503,503,503,503,503,503,503,503,503,503,503,503,503,503,503,503,503,503,503,503,503,503,503,503,503,503,503,503,503,503,503,503,503,503,503,503,503,503,503,503,503,503,503,503,503,503,501,486,482,461,444,424,373,352,334,322,315,314,314,314,314,314,305,292,274,253,228,179,151,139,131,129,128,128,128,128,128,128,127,125,121,112,90,82,78],"timestamp_mouse":[13,24,43,63,84,104,124,144,163,184,203,224,243,263,283,304,323,344,363,383,403,424,444,463,484,504,522,543,563,584,604,624,644,664,683,704,723,744,764,783,804,824,844,863,884,903,923,943,963,984,1003,1024,1043,1063,1083,1103,1124,1143,1163,1183,1203,1224,1243,1263,1283,1303,1324,1344,1362,1382,1403,1423,1443,1463,1483,1503,1523,1542,1563,1583,1603,1623,1643,1663,1683,1703],"xSR":741.5,"ySR":469.95,"xT1":424.9,"yT1":0,"xT2":1058.1,"yT2":0,"toosoon":0,"cond_shown":"equaldotanddens","ratio_trial":900,"smaller_num":"18","larger_num":"20","correct_side":1,"subjID":"JACOBO DÍAZ SEGURA 5","gender":"0","age":"9","school":"4"},{"start_time":1552313921913,"click_time":1552313924513,"finger_time":1552313923853,"fix_duration":1398.4573002921097,"trial":30,"RT":1940,"MT":660,"sideResp":2,"stimulus":"img/250/randomdotsizeEA/R/6_Ratio_250_L_6_R_24.png","xmouse":[782,783,783,783,783,783,783,783,783,783,783,783,783,783,783,783,783,783,783,783,783,783,783,783,783,783,783,783,783,783,783,783,783,783,783,783,783,783,783,783,783,783,783,783,783,783,783,783,783,783,783,783,783,783,783,783,783,783,783,783,783,783,783,783,783,783,783,783,783,783,783,783,783,783,783,783,783,783,783,783,783,783,783,783,783,783,783,783,783,783,783,783,784,789,792,804,820,844,858,873,887,903,937,969,984,1013,1058,1106,1122,1133,1142,1152,1168,1175,1183,1191,1199,1200,1200,1200,1200,1200,1200,1200,1200,1200,1200,1196,1187,1173,1154],"ymouse":[515,515,515,515,515,515,515,515,515,515,515,515,515,515,515,515,515,515,515,515,515,515,515,515,515,515,515,515,515,515,515,515,515,515,515,515,515,515,515,515,515,515,515,515,515,515,515,515,515,515,515,515,515,515,515,515,515,515,515,515,515,515,515,515,515,515,515,515,515,515,515,515,515,515,515,515,515,515,515,515,515,515,515,515,515,515,515,515,515,515,515,515,514,513,512,509,502,494,489,481,475,467,448,428,418,394,362,323,308,293,277,261,227,210,192,166,139,135,135,135,135,135,135,135,135,134,134,130,122,110,97],"timestamp_mouse":[1,20,41,60,80,101,120,140,161,181,201,221,240,261,281,300,320,341,360,381,401,420,441,460,479,501,521,541,559,581,601,620,640,661,681,700,721,740,760,781,800,820,841,861,881,900,920,941,961,980,999,1020,1041,1061,1080,1101,1121,1140,1161,1180,1199,1220,1241,1261,1279,1300,1320,1341,1361,1381,1401,1421,1441,1460,1481,1500,1521,1540,1560,1581,1600,1621,1641,1661,1680,1701,1721,1741,1761,1781,1800,1820,1840,1861,1880,1901,1921,1940,1960,1980,2000,2021,2040,2060,2080,2101,2120,2141,2160,2180,2200,2220,2240,2260,2280,2300,2321,2341,2360,2380,2401,2421,2440,2460,2480,2500,2521,2540,2560,2581,2600],"xSR":741.5,"ySR":469.95,"xT1":424.9,"yT1":0,"xT2":1058.1,"yT2":0,"toosoon":0,"cond_shown":"randomdotsizeEA","ratio_trial":250,"smaller_num":"6","larger_num":"24","correct_side":2,"subjID":"JACOBO DÍAZ SEGURA 5","gender":"0","age":"9","school":"4"},{"start_time":1552313927676,"click_time":1552313929354,"finger_time":1552313928753,"fix_duration":461.5713840949066,"trial":31,"RT":1077,"MT":601,"sideResp":2,"stimulus":"img/750/randomdotsizeEA/R/15_Ratio_750_L_9_R_12.png","xmouse":[789,789,789,789,790,790,791,792,792,792,792,792,792,792,792,792,792,792,792,792,792,792,792,792,792,792,792,792,792,792,792,792,792,792,792,792,792,792,792,792,792,792,792,792,792,792,792,792,792,792,798,804,828,946,1073,1139,1182,1207,1215,1216,1216,1216,1216,1216,1216,1216,1216,1216,1215,1215,1215,1215,1215,1215,1209,1203,1198,1192,1185,1180,1174,1165,1160,1157],"ymouse":[531,531,531,530,528,526,525,523,522,521,521,521,521,521,521,521,521,521,521,521,521,521,521,521,521,521,521,521,521,521,521,521,521,521,521,521,521,521,521,521,521,521,521,521,521,521,521,521,521,521,515,510,490,374,273,225,196,185,183,183,183,183,183,183,179,173,167,161,158,158,158,158,158,157,152,147,143,139,132,121,106,87,77,71],"timestamp_mouse":[17,55,56,78,97,117,137,156,176,197,218,238,257,277,298,317,336,357,377,398,417,437,457,478,498,518,538,558,578,598,618,638,657,678,697,716,738,758,777,796,816,838,858,877,898,917,938,958,977,997,1018,1037,1057,1077,1097,1117,1138,1157,1178,1197,1217,1238,1257,1277,1298,1317,1337,1358,1378,1397,1417,1438,1458,1478,1497,1517,1537,1557,1578,1596,1617,1637,1657,1677],"xSR":741.5,"ySR":469.95,"xT1":424.9,"yT1":0,"xT2":1058.1,"yT2":0,"toosoon":0,"cond_shown":"randomdotsizeEA","ratio_trial":750,"smaller_num":"9","larger_num":"12","correct_side":2,"subjID":"JACOBO DÍAZ SEGURA 5","gender":"0","age":"9","school":"4"},{"start_time":1552313931561,"click_time":1552313932973,"finger_time":1552313932314,"fix_duration":706.7935153662421,"trial":32,"RT":753,"MT":659,"sideResp":1,"stimulus":"img/500/equaldotanddens/L/4_Ratio_500_L_18_R_9.png","xmouse":[794,794,794,794,794,794,794,794,794,794,794,794,794,794,794,794,794,794,794,794,794,794,794,794,794,794,794,794,794,794,794,794,794,794,794,788,778,771,762,754,749,749,749,749,749,749,748,747,744,729,722,715,709,703,699,681,671,660,648,627,607,599,593,590,585,576,567,559,541,529,506],"ymouse":[543,543,543,543,543,543,543,543,543,543,543,543,543,543,543,543,543,543,543,543,543,543,543,543,543,543,543,543,543,543,543,543,543,541,537,511,487,463,434,397,368,364,363,361,359,350,340,331,317,275,263,253,246,240,236,222,213,204,193,178,165,160,156,153,149,140,129,119,102,92,76],"timestamp_mouse":[12,37,53,72,93,112,132,152,173,193,213,232,253,272,293,312,332,352,373,392,413,433,453,472,492,513,532,553,572,592,613,632,653,671,693,711,732,753,773,792,812,832,853,872,892,912,933,952,973,994,1013,1032,1052,1072,1093,1112,1132,1152,1172,1192,1212,1231,1252,1272,1292,1312,1332,1352,1373,1392,1412],"xSR":741.5,"ySR":469.95,"xT1":424.9,"yT1":0,"xT2":1058.1,"yT2":0,"toosoon":0,"cond_shown":"equaldotanddens","ratio_trial":500,"smaller_num":"9","larger_num":"18","correct_side":1,"subjID":"JACOBO DÍAZ SEGURA 5","gender":"0","age":"9","school":"4"},{"start_time":1552313935491,"click_time":1552313936933,"finger_time":1552313936373,"fix_duration":977.3446735930711,"trial":33,"RT":882,"MT":560,"sideResp":1,"stimulus":"img/900/equaldotanddens/L/4_Ratio_900_L_20_R_18.png","xmouse":[780,780,780,780,780,780,780,780,780,780,780,780,780,780,780,780,780,780,780,780,780,780,780,780,780,780,780,780,780,780,780,780,780,780,780,780,780,780,780,780,780,780,779,779,779,779,777,770,763,758,743,738,730,723,708,700,688,675,662,637,621,611,603,595,582,576,565,553,542,523,503,495,487],"ymouse":[499,499,500,500,500,500,500,500,500,500,500,500,500,500,500,500,500,500,500,500,500,500,500,500,500,500,500,500,500,500,500,500,500,500,500,500,500,500,500,500,500,500,497,488,459,439,416,391,367,344,292,275,259,247,225,214,203,193,186,175,172,169,167,165,164,162,157,150,142,125,108,101,92],"timestamp_mouse":[10,22,43,62,83,103,122,142,162,183,203,223,242,262,283,302,323,342,363,383,402,423,442,461,481,503,523,542,563,583,602,623,642,662,683,703,721,743,762,783,803,822,843,862,882,901,923,942,963,983,1003,1022,1043,1062,1083,1102,1122,1142,1163,1183,1202,1222,1243,1262,1282,1302,1322,1342,1362,1382,1402,1422,1442],"xSR":741.5,"ySR":469.95,"xT1":424.9,"yT1":0,"xT2":1058.1,"yT2":0,"toosoon":0,"cond_shown":"equaldotanddens","ratio_trial":900,"smaller_num":"18","larger_num":"20","correct_side":1,"subjID":"JACOBO DÍAZ SEGURA 5","gender":"0","age":"9","school":"4"},{"start_time":1552313938817,"click_time":1552313940393,"finger_time":1552313939854,"fix_duration":942.4734404611859,"trial":34,"RT":1037,"MT":539,"sideResp":2,"stimulus":"img/500/randomdotsizeEA/L/4_Ratio_500_L_18_R_9.png","xmouse":[808,808,808,808,808,808,808,808,808,808,808,808,808,808,808,808,808,808,808,808,808,808,808,808,808,808,808,808,808,808,808,808,808,808,808,808,808,808,808,808,808,808,810,819,822,825,826,828,832,834,837,842,847,862,870,879,892,932,948,963,975,988,1001,1005,1009,1015,1023,1030,1041,1044,1045,1046,1046,1046,1048,1054,1064,1089,1102],"ymouse":[512,512,512,512,512,512,512,512,512,512,512,512,512,512,512,512,512,512,512,512,512,512,512,512,512,512,512,512,512,512,512,512,512,512,512,512,512,512,512,512,512,512,512,501,497,493,491,489,484,480,477,470,465,443,434,421,402,342,320,304,291,276,261,254,247,238,224,212,190,184,182,181,181,181,176,165,149,108,90],"timestamp_mouse":[16,36,56,76,96,116,135,156,176,197,216,237,257,276,297,317,337,357,377,397,417,436,457,476,497,516,536,557,577,597,616,637,656,677,697,716,737,757,777,797,817,837,856,876,896,916,936,956,976,997,1016,1037,1056,1076,1096,1116,1136,1157,1176,1197,1217,1236,1257,1276,1296,1316,1336,1356,1375,1397,1417,1436,1457,1477,1496,1517,1537,1558,1575],"xSR":741.5,"ySR":469.95,"xT1":424.9,"yT1":0,"xT2":1058.1,"yT2":0,"toosoon":0,"cond_shown":"randomdotsizeEA","ratio_trial":500,"smaller_num":"9","larger_num":"18","correct_side":1,"subjID":"JACOBO DÍAZ SEGURA 5","gender":"0","age":"9","school":"4"},{"start_time":1552313941938,"click_time":1552313943334,"finger_time":1552313942874,"fix_duration":262.1421515888115,"trial":35,"RT":936,"MT":460,"sideResp":1,"stimulus":"img/500/equaldotanddens/L/13_Ratio_500_L_12_R_6.png","xmouse":[805,805,805,805,805,805,805,805,805,805,805,805,805,805,805,805,805,805,805,805,805,805,805,805,805,805,805,805,805,805,805,805,805,805,805,805,805,805,805,805,805,804,804,801,796,783,767,720,701,685,672,665,658,658,655,653,651,641,634,626,620,612,597,580,569,553,539,515,505,500],"ymouse":[516,516,516,516,516,516,516,516,516,516,516,516,516,516,516,516,516,516,516,516,516,516,516,516,516,516,516,516,516,516,516,516,516,516,516,516,516,516,516,516,516,516,516,514,507,490,465,390,356,330,313,302,292,290,285,281,274,256,247,237,229,219,200,179,164,147,130,108,100,95],"timestamp_mouse":[15,36,55,76,95,116,135,154,176,196,215,236,255,275,296,315,334,355,376,396,415,434,456,475,496,516,536,556,575,596,616,636,655,675,694,715,736,756,775,794,815,836,856,876,895,915,936,955,975,995,1015,1034,1055,1075,1095,1116,1135,1155,1174,1195,1215,1235,1255,1276,1295,1315,1336,1355,1375,1396],"xSR":741.5,"ySR":469.95,"xT1":424.9,"yT1":0,"xT2":1058.1,"yT2":0,"toosoon":0,"cond_shown":"equaldotanddens","ratio_trial":500,"smaller_num":"6","larger_num":"12","correct_side":1,"subjID":"JACOBO DÍAZ SEGURA 5","gender":"0","age":"9","school":"4"},{"start_time":1552313946191,"click_time":1552313947553,"finger_time":1552313947013,"fix_duration":975.1487667911158,"trial":36,"RT":822,"MT":540,"sideResp":2,"stimulus":"img/500/equaldotanddens/R/2_Ratio_500_L_3_R_6.png","xmouse":[787,787,787,787,787,787,787,787,787,787,787,787,787,787,787,787,787,787,787,787,787,787,787,787,787,787,787,787,787,787,787,787,787,787,787,787,787,787,787,785,785,806,826,847,871,890,923,935,947,961,977,989,1000,1012,1023,1040,1043,1045,1046,1047,1047,1048,1048,1048,1048,1052,1055,1058,1064],"ymouse":[491,491,491,491,491,491,491,491,491,491,491,491,491,491,491,491,491,491,491,491,491,491,491,491,491,491,491,491,491,491,491,491,491,491,491,491,491,491,491,491,489,469,450,428,403,381,338,321,304,284,255,234,215,194,171,142,133,129,125,123,122,121,121,120,120,114,108,102,94],"timestamp_mouse":[10,29,43,63,83,102,123,142,163,183,203,222,243,263,283,302,323,342,363,382,403,422,443,463,483,502,522,542,563,583,603,623,643,663,682,702,723,742,763,783,802,822,842,863,882,902,922,942,962,982,1003,1022,1042,1062,1082,1103,1122,1142,1162,1182,1203,1222,1242,1262,1282,1303,1322,1343,1362],"xSR":741.5,"ySR":469.95,"xT1":424.9,"yT1":0,"xT2":1058.1,"yT2":0,"toosoon":0,"cond_shown":"equaldotanddens","ratio_trial":500,"smaller_num":"3","larger_num":"6","correct_side":2,"subjID":"JACOBO DÍAZ SEGURA 5","gender":"0","age":"9","school":"4"},{"start_time":1552313951127,"click_time":1552313952353,"finger_time":1552313951813,"fix_duration":772.8473013714249,"trial":37,"RT":686,"MT":540,"sideResp":1,"stimulus":"img/500/equaldotanddens/L/7_Ratio_500_L_10_R_5.png","xmouse":[775,775,775,775,775,775,775,775,775,775,775,775,775,775,775,775,775,775,778,781,782,783,783,783,783,783,783,783,783,783,783,783,783,783,779,773,766,756,744,716,697,672,654,638,603,583,565,548,537,525,521,518,517,517,517,516,515,515,513,508,506,501],"ymouse":[527,527,527,527,527,527,527,527,527,527,527,527,527,527,527,527,526,523,518,511,508,507,507,507,507,507,507,507,507,507,505,500,492,479,447,428,408,385,359,309,281,248,226,207,177,161,148,139,133,127,125,123,123,122,122,122,121,120,117,106,103,92],"timestamp_mouse":[12,30,46,67,87,106,127,146,167,186,206,226,247,267,286,306,327,346,366,386,407,426,446,466,486,506,526,547,566,586,606,626,646,666,686,706,726,746,766,786,807,826,848,867,886,906,927,946,966,986,1007,1026,1046,1067,1087,1106,1126,1146,1167,1187,1206,1226],"xSR":741.5,"ySR":469.95,"xT1":424.9,"yT1":0,"xT2":1058.1,"yT2":0,"toosoon":0,"cond_shown":"equaldotanddens","ratio_trial":500,"smaller_num":"5","larger_num":"10","correct_side":1,"subjID":"JACOBO DÍAZ SEGURA 5","gender":"0","age":"9","school":"4"},{"start_time":1552313953325,"click_time":1552313957753,"finger_time":1552313955213,"fix_duration":250,"trial":38,"RT":1888,"MT":2540,"sideResp":1,"stimulus":"img/900/equaldotsize/L/10_Ratio_900_L_20_R_18.png","xmouse":[815,815,815,815,815,815,815,815,815,815,815,815,815,815,815,815,815,815,815,815,815,815,815,815,815,815,815,815,815,815,815,815,815,815,815,815,815,815,815,815,815,815,815,815,815,815,815,815,815,815,815,815,815,815,815,815,815,815,815,815,815,815,815,815,815,815,815,815,815,815,815,815,815,815,815,815,815,815,815,815,815,815,815,815,815,815,815,815,815,815,815,815,815,815,810,806,802,798,796,795,794,794,794,794,794,794,794,794,794,793,792,792,792,792,792,792,792,792,792,792,792,792,792,792,792,792,792,792,792,792,792,792,792,792,789,789,788,788,787,787,786,786,786,786,786,786,786,786,786,786,786,786,786,786,786,786,786,786,786,786,786,786,786,787,790,798,805,812,819,828,835,839,843,844,846,850,853,856,861,871,874,876,876,876,876,876,876,876,874,869,831,782,711,625,533,387,354,340,334,334,333,332,331,330,330,330,330,330,330,330,330,330,330,331,337,343,352,362,373,404,417,433],"ymouse":[507,507,507,507,507,507,507,507,507,507,507,507,507,507,507,507,507,507,507,507,507,507,507,507,507,507,507,507,507,507,507,507,507,507,507,507,507,507,507,507,507,507,507,507,507,507,507,507,507,507,507,507,507,507,507,507,507,507,507,507,507,507,507,507,507,507,507,507,507,507,507,507,507,507,507,507,507,507,507,507,507,507,507,507,507,507,507,507,507,507,507,507,495,489,452,434,419,408,400,393,391,391,391,391,391,391,389,389,388,384,382,382,382,381,381,381,381,381,381,381,381,381,381,381,381,381,381,381,381,381,381,381,381,380,376,376,375,375,375,374,373,373,373,373,373,373,373,373,373,373,373,373,373,373,373,373,373,373,373,373,373,373,372,371,370,366,364,360,356,350,345,343,341,340,338,335,333,330,326,318,316,315,315,315,315,315,315,315,315,314,296,265,215,156,100,30,16,10,7,6,6,4,3,2,2,2,2,2,2,2,2,2,2,4,9,13,21,30,38,54,62,69],"timestamp_mouse":[9,32,48,68,88,110,129,148,169,188,208,229,248,268,288,308,329,348,368,389,409,428,449,468,489,508,529,549,568,588,608,628,648,669,688,709,728,749,769,788,808,830,849,868,889,909,929,950,968,989,1009,1029,1049,1068,1088,1109,1128,1149,1169,1189,1209,1229,1248,1269,1289,1309,1329,1349,1369,1389,1409,1429,1448,1468,1488,1509,1529,1549,1568,1588,1608,1629,1648,1668,1688,1709,1728,1748,1769,1788,1808,1829,1849,1868,1888,1908,1928,1948,1968,1989,2008,2028,2049,2068,2089,2107,2128,2149,2169,2189,2208,2228,2249,2268,2289,2308,2329,2348,2369,2389,2409,2428,2449,2469,2489,2509,2528,2548,2569,2588,2608,2629,2649,2668,2689,2708,2729,2749,2769,2788,2809,2829,2848,2869,2888,2908,2929,2949,2969,2989,3008,3029,3049,3068,3089,3108,3129,3148,3169,3188,3209,3229,3249,3268,3288,3307,3328,3348,3368,3388,3409,3428,3449,3468,3488,3508,3529,3549,3568,3589,3608,3628,3648,3668,3688,3709,3729,3749,3769,3788,3808,3828,3848,3868,3889,3908,3929,3948,3968,3990,4008,4028,4048,4069,4089,4108,4128,4149,4169,4190,4209,4229,4249,4268,4290,4308,4328,4348,4368,4389,4408,4428],"xSR":741.5,"ySR":469.95,"xT1":424.9,"yT1":0,"xT2":1058.1,"yT2":0,"toosoon":0,"cond_shown":"equaldotsize","ratio_trial":900,"smaller_num":"18","larger_num":"20","correct_side":1,"subjID":"JACOBO DÍAZ SEGURA 5","gender":"0","age":"9","school":"4"},{"start_time":1552313961498,"click_time":1552313964054,"finger_time":1552313963193,"fix_duration":863.978495795444,"trial":39,"RT":1695,"MT":861,"sideResp":2,"stimulus":"img/500/randomdotsizeEA/R/6_Ratio_500_L_9_R_18.png","xmouse":[781,781,781,781,781,781,781,781,781,781,781,781,781,781,781,781,781,781,781,781,781,781,781,781,781,781,781,781,781,781,781,781,781,781,781,781,781,781,781,781,781,781,781,781,781,781,781,781,781,781,781,781,781,781,781,781,781,781,781,781,781,781,781,781,781,781,781,781,781,781,781,781,781,781,782,785,793,805,809,814,820,827,833,838,844,850,864,870,877,884,889,892,894,896,898,900,905,912,917,924,928,946,967,996,1034,1067,1094,1123,1128,1129,1129,1129,1129,1126,1123,1116,1108,1089,1088,1088,1088,1090,1104,1114,1123,1126,1127,1131],"ymouse":[503,503,503,503,503,503,503,503,503,503,503,503,503,503,503,503,503,503,503,503,503,503,503,503,503,503,503,503,503,503,503,503,503,503,503,503,503,503,503,503,503,503,503,503,503,503,503,503,503,503,503,503,503,503,503,503,503,503,503,503,503,503,503,503,503,503,503,503,503,503,503,503,503,503,503,503,501,496,495,493,491,489,488,486,485,484,478,471,459,446,433,423,406,396,387,381,367,357,352,346,343,331,319,308,297,291,283,272,267,265,261,256,248,241,231,218,206,183,179,174,167,156,132,120,110,106,104,98],"timestamp_mouse":[15,35,55,76,95,115,136,156,175,195,216,235,256,275,296,315,335,355,375,396,416,436,456,475,496,515,535,556,576,595,616,636,656,676,696,716,735,756,775,796,816,835,855,876,896,916,936,956,975,996,1016,1035,1055,1075,1095,1116,1135,1156,1175,1195,1215,1235,1255,1275,1296,1315,1336,1355,1376,1395,1415,1436,1456,1476,1495,1516,1535,1555,1575,1595,1616,1635,1655,1676,1695,1715,1736,1754,1775,1796,1815,1836,1855,1875,1895,1916,1936,1955,1975,1996,2015,2036,2055,2075,2095,2115,2135,2156,2175,2196,2216,2236,2254,2276,2295,2316,2335,2355,2375,2395,2415,2436,2456,2475,2495,2515,2535,2556],"xSR":741.5,"ySR":469.95,"xT1":424.9,"yT1":0,"xT2":1058.1,"yT2":0,"toosoon":0,"cond_shown":"randomdotsizeEA","ratio_trial":500,"smaller_num":"9","larger_num":"18","correct_side":2,"subjID":"JACOBO DÍAZ SEGURA 5","gender":"0","age":"9","school":"4"},{"start_time":1552313967424,"click_time":1552313968974,"finger_time":1552313968393,"fix_duration":430.101620575178,"trial":40,"RT":969,"MT":581,"sideResp":2,"stimulus":"img/250/randomdotsizeEA/R/4_Ratio_250_L_3_R_12.png","xmouse":[812,812,812,812,812,812,812,812,812,812,812,812,812,812,812,812,812,812,812,812,812,812,812,812,812,812,812,812,812,812,812,812,812,812,812,812,812,812,812,812,812,812,812,812,812,813,823,837,855,880,898,920,927,934,941,946,960,968,977,989,1000,1018,1023,1026,1029,1032,1041,1047,1056,1062,1065,1070,1071,1074,1076,1077,1079,1081],"ymouse":[491,491,491,491,491,491,491,491,491,491,491,491,491,491,491,491,491,491,491,491,491,491,491,491,491,491,491,491,491,491,491,491,491,491,491,491,491,491,491,491,491,491,491,491,491,489,483,475,465,447,434,403,388,372,358,345,320,301,288,274,261,235,227,221,216,210,198,191,179,170,164,149,141,134,126,120,107,95],"timestamp_mouse":[10,33,49,71,89,110,129,150,170,190,209,230,249,270,290,310,329,350,369,390,409,429,450,469,490,509,530,550,570,589,610,630,650,669,689,709,730,750,770,789,810,829,849,870,889,910,929,949,969,989,1009,1029,1049,1069,1089,1110,1129,1149,1169,1190,1209,1229,1249,1269,1289,1309,1329,1350,1369,1389,1409,1430,1449,1469,1489,1509,1529,1550],"xSR":741.5,"ySR":469.95,"xT1":424.9,"yT1":0,"xT2":1058.1,"yT2":0,"toosoon":0,"cond_shown":"randomdotsizeEA","ratio_trial":250,"smaller_num":"3","larger_num":"12","correct_side":2,"subjID":"JACOBO DÍAZ SEGURA 5","gender":"0","age":"9","school":"4"},{"start_time":1552313976359,"click_time":1552313978173,"finger_time":1552313977233,"fix_duration":1324.3560799344682,"trial":41,"RT":874,"MT":940,"sideResp":1,"stimulus":"img/250/equaldotsize/L/7_Ratio_250_L_8_R_2.png","xmouse":[795,794,794,794,794,794,794,794,793,792,792,792,792,792,792,792,792,792,792,792,792,792,792,792,792,792,792,792,792,792,792,792,792,792,792,792,792,792,792,790,779,769,755,740,720,681,666,655,642,636,631,631,630,628,628,626,626,623,616,610,595,588,583,577,569,558,554,551,542,535,512,498,483,467,449,412,410,408,407,407,407,407,407,407,407,407,409,413,418,424,436],"ymouse":[526,526,526,526,526,526,526,526,526,526,526,526,526,526,526,526,526,526,526,526,526,526,526,526,526,526,526,526,526,526,526,526,526,526,526,526,526,526,526,525,520,515,507,496,481,457,446,435,424,418,410,406,402,397,392,382,375,361,347,333,304,291,279,264,248,2