[{"start_time":1552313035445,"click_time":1552313038089,"finger_time":1552313035510,"fix_duration":250,"trial":0,"RT":65,"MT":2579,"sideResp":2,"stimulus":[],"xmouse":[802,805,805,809,809,808,807,805,805,804,804,804,804,804,803,803,803,803,803,803,803,803,803,803,803,803,803,802,802,800,798,796,795,792,790,789,789,789,789,789,789,789,789,789,789,789,789,789,789,789,789,789,789,789,789,789,789,789,789,789,789,789,789,789,789,791,791,792,792,792,792,792,792,792,792,792,792,792,792,792,792,792,793,793,794,797,802,810,817,825,827,828,828,829,829,834,836,839,843,851,873,882,889,898,914,922,931,935,940,950,955,961,968,978,997,1006,1014,1021,1026,1039,1044,1049,1053,1056,1067,1073,1077,1081,1086,1092,1093,1096,1096],"ymouse":[593,582,582,563,545,535,529,525,523,522,522,522,522,522,522,522,522,522,522,522,522,522,522,522,522,522,522,522,522,522,526,531,536,542,550,554,555,555,555,555,555,555,556,556,559,562,566,569,574,582,582,583,584,584,585,586,586,587,587,588,591,594,598,603,613,617,619,621,621,621,621,621,621,621,621,621,621,621,621,621,621,620,619,616,609,604,597,588,580,569,566,565,563,562,560,552,547,541,535,524,503,492,482,473,453,446,439,435,430,419,415,406,397,385,360,347,336,324,316,293,284,274,265,256,231,217,202,185,167,129,118,108,98],"timestamp_mouse":[12,32,44,65,83,104,125,144,165,184,205,224,244,265,284,303,325,344,364,384,405,424,445,464,484,504,525,544,564,584,605,624,645,664,684,704,724,744,764,784,805,825,844,863,884,904,925,944,964,984,1004,1024,1045,1065,1084,1105,1124,1144,1165,1184,1204,1224,1244,1264,1284,1304,1324,1345,1365,1384,1403,1425,1445,1464,1485,1505,1523,1545,1565,1583,1604,1624,1644,1664,1685,1704,1725,1744,1763,1784,1805,1824,1844,1864,1884,1904,1924,1944,1965,1984,2005,2024,2044,2064,2084,2104,2124,2144,2164,2184,2205,2224,2245,2264,2284,2304,2324,2344,2364,2384,2405,2424,2445,2463,2484,2503,2524,2544,2565,2584,2604,2624,2644],"xSR":741.5,"ySR":469.95,"xT1":424.9,"yT1":0,"xT2":1058.1,"yT2":0,"toosoon":0,"cond_shown":"Congruent","ratio_trial":100,"L_num":6,"L_den":20,"R_num":5,"R_den":25,"correct_side":1,"subjID":"JACOBO DÍAZ SEGURA 5","gender":"0","age":"9","school":"4","test":{"fix_dur":[250,1500],"timestim":1000,"targets_dim":[100,100],"targets_relative_coord":[0.3,0.7],"size_stim":[880,420],"start_dim":[100,100],"size_start":[300,300],"size_fix":60,"samplingrate":20,"img_types":["Congruent","Incongruent"],"ratios":[100,200,300],"rep_conds":19,"nTrials":120,"trials_to_rest":500,"Trials_order":[60,106,89,2,113,41,85,26,57,33,48,93,22,11,92,30,111,96,67,69,52,10,105,90,72,91,63,74,50,59,76,75,99,84,80,70,65,115,1,51,38,94,55,4,34,64,12,61,56,88,117,114,45,42,81,87,28,0,101,104,86,5,66,98,78,8,97,68,103,107,79,6,36,31,13,27,18,43,39,112,110,40,24,23,62,14,16,109,118,49,35,47,119,15,54,3,20,25,21,73,71,77,37,32,82,17,44,29,19,46,116,58,102,100,9,53,7,83,95,108],"cond_shown":["Congruent","Congruent","Incongruent","Congruent","Incongruent","Incongruent","Incongruent","Congruent","Incongruent","Incongruent","Congruent","Incongruent","Congruent","Incongruent","Congruent","Congruent","Incongruent","Congruent","Incongruent","Incongruent","Congruent","Congruent","Incongruent","Congruent","Congruent","Incongruent","Incongruent","Congruent","Congruent","Incongruent","Congruent","Incongruent","Incongruent","Congruent","Congruent","Congruent","Incongruent","Incongruent","Incongruent","Incongruent","Congruent","Congruent","Incongruent","Congruent","Congruent","Congruent","Congruent","Incongruent","Congruent","Congruent","Incongruent","Congruent","Incongruent","Congruent","Incongruent","Incongruent","Congruent","Congruent","Incongruent","Congruent","Congruent","Incongruent","Congruent","Congruent","Congruent","Congruent","Incongruent","Congruent","Incongruent","Incongruent","Incongruent","Congruent","Congruent","Incongruent","Incongruent","Incongruent","Congruent","Incongruent","Incongruent","Congruent","Congruent","Congruent","Congruent","Incongruent","Congruent","Congruent","Congruent","Incongruent","Congruent","Incongruent","Incongruent","Incongruent","Incongruent","Incongruent","Congruent","Incongruent","Congruent","Incongruent","Incongruent","Incongruent","Incongruent","Incongruent","Incongruent","Congruent","Congruent","Incongruent","Congruent","Incongruent","Incongruent","Congruent","Congruent","Congruent","Congruent","Congruent","Incongruent","Incongruent","Incongruent","Incongruent","Incongruent","Congruent"],"ratio_trial":[100,300,300,200,300,300,100,200,200,200,100,200,300,300,200,100,200,100,100,200,300,300,200,100,100,100,200,200,200,300,300,200,200,100,200,300,300,100,100,200,200,300,100,300,300,300,100,100,200,300,200,100,200,100,200,200,300,100,300,200,200,300,100,200,100,200,100,200,100,300,100,100,100,100,100,200,100,100,200,300,200,300,100,300,200,200,300,100,300,100,300,300,300,200,100,200,200,100,200,100,300,300,100,200,300,300,200,300,100,300,200,300,100,300,200,300,100,300,300,100],"left_num":[6,20,8,7,2,2,3,3,4,9,9,14,8,13,16,2,6,15,11,3,11,1,4,6,10,9,7,21,3,13,7,1,6,3,4,1,7,17,6,4,3,11,3,2,11,1,2,13,1,20,9,8,7,1,7,11,20,7,13,8,1,13,11,7,4,9,3,4,10,13,13,11,12,2,3,4,3,9,3,3,15,1,15,4,3,14,7,6,12,6,3,8,13,3,1,7,8,6,6,9,4,13,8,16,20,8,9,13,3,8,3,3,1,4,3,4,1,13,3,10],"right_num":[5,9,9,2,6,6,11,14,1,8,8,12,1,12,9,6,3,13,9,1,4,8,6,5,3,20,12,2,14,12,20,2,3,4,3,6,8,10,7,6,9,1,11,12,2,8,6,12,21,14,8,2,14,3,14,3,9,15,12,7,21,12,4,18,6,13,8,3,9,12,12,4,13,8,8,6,4,20,11,4,4,3,13,2,14,6,20,7,2,3,4,9,12,1,18,12,3,7,3,13,2,12,6,9,5,14,4,12,8,10,9,4,18,1,11,2,8,12,4,3],"left_den":[20,25,10,21,4,4,5,10,30,15,15,30,16,26,30,5,20,25,22,10,22,30,5,20,25,10,10,30,6,26,14,3,20,20,10,5,10,30,10,5,12,22,5,10,22,30,5,26,2,25,15,16,10,2,10,20,25,14,26,15,2,26,22,15,8,30,5,10,25,26,26,22,30,4,5,5,20,10,4,6,25,5,25,20,10,28,14,10,24,12,6,10,26,10,2,10,15,10,20,15,20,26,16,30,25,10,20,26,5,15,12,6,2,10,4,20,2,26,6,25],"right_den":[25,18,18,15,30,30,22,28,3,10,16,18,5,15,27,12,6,26,15,2,20,24,10,25,10,25,24,4,20,15,25,15,6,16,15,12,20,15,14,10,20,5,22,24,10,24,12,20,30,28,10,5,28,5,28,4,18,25,15,21,30,15,10,27,10,26,16,15,18,15,20,10,26,20,16,10,16,25,20,5,10,6,26,4,28,20,25,14,10,5,20,18,15,2,30,24,9,14,6,26,4,15,10,27,10,28,16,15,16,12,20,5,30,10,20,4,20,15,20,10],"correct_side":[1,1,1,1,1,1,1,2,2,2,1,2,1,2,1,2,2,1,2,2,1,2,1,1,1,1,1,1,2,2,2,1,2,2,1,2,1,2,1,1,2,1,1,2,1,2,2,2,2,1,2,1,1,2,1,2,1,2,2,1,2,2,1,2,2,2,1,1,2,2,2,1,2,1,1,1,2,1,1,2,1,2,1,2,2,1,2,1,1,2,1,1,2,2,2,1,1,1,2,1,2,2,2,1,1,1,1,2,1,2,2,2,2,1,1,2,1,2,1,1],"img_shown":["img2/100/Congruent/L/C_Dist_100_LN_6_LD_20_RN_5_RD_25_0.png","img2/300/Congruent/L/C_Dist_300_LN_20_LD_25_RN_9_RD_18_0.png","img2/300/Incongruent/L/I_Dist_300_LN_8_LD_10_RN_9_RD_18_0.png","img2/200/Congruent/L/C_Dist_200_LN_7_LD_21_RN_2_RD_15_0.png","img2/300/Incongruent/L/I_Dist_300_LN_2_LD_4_RN_6_RD_30_0.png","img2/300/Incongruent/L/I_Dist_300_LN_2_LD_4_RN_6_RD_30_0.png","img2/100/Incongruent/L/I_Dist_100_LN_3_LD_5_RN_11_RD_22_0.png","img2/200/Congruent/R/C_Dist_200_LN_3_LD_10_RN_14_RD_28_1.png","img2/200/Incongruent/R/I_Dist_200_LN_4_LD_30_RN_1_RD_3_1.png","img2/200/Incongruent/R/I_Dist_200_LN_9_LD_15_RN_8_RD_10_1.png","img2/100/Congruent/L/C_Dist_100_LN_9_LD_15_RN_8_RD_16_0.png","img2/200/Incongruent/R/I_Dist_200_LN_14_LD_30_RN_12_RD_18_1.png","img2/300/Congruent/L/C_Dist_300_LN_8_LD_16_RN_1_RD_5_0.png","img2/300/Incongruent/R/I_Dist_300_LN_13_LD_26_RN_12_RD_15_1.png","img2/200/Congruent/L/C_Dist_200_LN_16_LD_30_RN_9_RD_27_0.png","img2/100/Congruent/R/C_Dist_100_LN_2_LD_5_RN_6_RD_12_1.png","img2/200/Incongruent/R/I_Dist_200_LN_6_LD_20_RN_3_RD_6_1.png","img2/100/Congruent/L/C_Dist_100_LN_15_LD_25_RN_13_RD_26_0.png","img2/100/Incongruent/R/I_Dist_100_LN_11_LD_22_RN_9_RD_15_1.png","img2/200/Incongruent/R/I_Dist_200_LN_3_LD_10_RN_1_RD_2_1.png","img2/300/Congruent/L/C_Dist_300_LN_11_LD_22_RN_4_RD_20_0.png","img2/300/Congruent/R/C_Dist_300_LN_1_LD_30_RN_8_RD_24_1.png","img2/200/Incongruent/L/I_Dist_200_LN_4_LD_5_RN_6_RD_10_0.png","img2/100/Congruent/L/C_Dist_100_LN_6_LD_20_RN_5_RD_25_0.png","img2/100/Congruent/L/C_Dist_100_LN_10_LD_25_RN_3_RD_10_0.png","img2/100/Incongruent/L/I_Dist_100_LN_9_LD_10_RN_20_RD_25_0.png","img2/200/Incongruent/L/I_Dist_200_LN_7_LD_10_RN_12_RD_24_0.png","img2/200/Congruent/L/C_Dist_200_LN_21_LD_30_RN_2_RD_4_0.png","img2/200/Congruent/R/C_Dist_200_LN_3_LD_6_RN_14_RD_20_1.png","img2/300/Incongruent/R/I_Dist_300_LN_13_LD_26_RN_12_RD_15_1.png","img2/300/Congruent/R/C_Dist_300_LN_7_LD_14_RN_20_RD_25_1.png","img2/200/Incongruent/L/I_Dist_200_LN_1_LD_3_RN_2_RD_15_0.png","img2/200/Incongruent/R/I_Dist_200_LN_6_LD_20_RN_3_RD_6_1.png","img2/100/Congruent/R/C_Dist_100_LN_3_LD_20_RN_4_RD_16_1.png","img2/200/Congruent/L/C_Dist_200_LN_4_LD_10_RN_3_RD_15_0.png","img2/300/Congruent/R/C_Dist_300_LN_1_LD_5_RN_6_RD_12_1.png","img2/300/Incongruent/L/I_Dist_300_LN_7_LD_10_RN_8_RD_20_0.png","img2/100/Incongruent/R/I_Dist_100_LN_17_LD_30_RN_10_RD_15_1.png","img2/100/Incongruent/L/I_Dist_100_LN_6_LD_10_RN_7_RD_14_0.png","img2/200/Incongruent/L/I_Dist_200_LN_4_LD_5_RN_6_RD_10_0.png","img2/200/Congruent/R/C_Dist_200_LN_3_LD_12_RN_9_RD_20_1.png","img2/300/Congruent/L/C_Dist_300_LN_11_LD_22_RN_1_RD_5_0.png","img2/100/Incongruent/L/I_Dist_100_LN_3_LD_5_RN_11_RD_22_0.png","img2/300/Congruent/R/C_Dist_300_LN_2_LD_10_RN_12_RD_24_1.png","img2/300/Congruent/L/C_Dist_300_LN_11_LD_22_RN_2_RD_10_0.png","img2/300/Congruent/R/C_Dist_300_LN_1_LD_30_RN_8_RD_24_1.png","img2/100/Congruent/R/C_Dist_100_LN_2_LD_5_RN_6_RD_12_1.png","img2/100/Incongruent/R/I_Dist_100_LN_13_LD_26_RN_12_RD_20_1.png","img2/200/Congruent/R/C_Dist_200_LN_1_LD_2_RN_21_RD_30_1.png","img2/300/Congruent/L/C_Dist_300_LN_20_LD_25_RN_14_RD_28_0.png","img2/200/Incongruent/R/I_Dist_200_LN_9_LD_15_RN_8_RD_10_1.png","img2/100/Congruent/L/C_Dist_100_LN_8_LD_16_RN_2_RD_5_0.png","img2/200/Incongruent/L/I_Dist_200_LN_7_LD_10_RN_14_RD_28_0.png","img2/100/Congruent/R/C_Dist_100_LN_1_LD_2_RN_3_RD_5_1.png","img2/200/Incongruent/L/I_Dist_200_LN_7_LD_10_RN_14_RD_28_0.png","img2/200/Incongruent/R/I_Dist_200_LN_11_LD_20_RN_3_RD_4_1.png","img2/300/Congruent/L/C_Dist_300_LN_20_LD_25_RN_9_RD_18_0.png","img2/100/Congruent/R/C_Dist_100_LN_7_LD_14_RN_15_RD_25_1.png","img2/300/Incongruent/R/I_Dist_300_LN_13_LD_26_RN_12_RD_15_1.png","img2/200/Congruent/L/C_Dist_200_LN_8_LD_15_RN_7_RD_21_0.png","img2/200/Congruent/R/C_Dist_200_LN_1_LD_2_RN_21_RD_30_1.png","img2/300/Incongruent/R/I_Dist_300_LN_13_LD_26_RN_12_RD_15_1.png","img2/100/Congruent/L/C_Dist_100_LN_11_LD_22_RN_4_RD_10_0.png","img2/200/Congruent/R/C_Dist_200_LN_7_LD_15_RN_18_RD_27_1.png","img2/100/Congruent/R/C_Dist_100_LN_4_LD_8_RN_6_RD_10_1.png","img2/200/Congruent/R/C_Dist_200_LN_9_LD_30_RN_13_RD_26_1.png","img2/100/Incongruent/L/I_Dist_100_LN_3_LD_5_RN_8_RD_16_0.png","img2/200/Congruent/L/C_Dist_200_LN_4_LD_10_RN_3_RD_15_0.png","img2/100/Incongruent/R/I_Dist_100_LN_10_LD_25_RN_9_RD_18_1.png","img2/300/Incongruent/R/I_Dist_300_LN_13_LD_26_RN_12_RD_15_1.png","img2/100/Incongruent/R/I_Dist_100_LN_13_LD_26_RN_12_RD_20_1.png","img2/100/Congruent/L/C_Dist_100_LN_11_LD_22_RN_4_RD_10_0.png","img2/100/Congruent/R/C_Dist_100_LN_12_LD_30_RN_13_RD_26_1.png","img2/100/Incongruent/L/I_Dist_100_LN_2_LD_4_RN_8_RD_20_0.png","img2/100/Incongruent/L/I_Dist_100_LN_3_LD_5_RN_8_RD_16_0.png","img2/200/Incongruent/L/I_Dist_200_LN_4_LD_5_RN_6_RD_10_0.png","img2/100/Congruent/R/C_Dist_100_LN_3_LD_20_RN_4_RD_16_1.png","img2/100/Incongruent/L/I_Dist_100_LN_9_LD_10_RN_20_RD_25_0.png","img2/200/Incongruent/L/I_Dist_200_LN_3_LD_4_RN_11_RD_20_0.png","img2/300/Congruent/R/C_Dist_300_LN_3_LD_6_RN_4_RD_5_1.png","img2/200/Congruent/L/C_Dist_200_LN_15_LD_25_RN_4_RD_10_0.png","img2/300/Congruent/R/C_Dist_300_LN_1_LD_5_RN_3_RD_6_1.png","img2/100/Congruent/L/C_Dist_100_LN_15_LD_25_RN_13_RD_26_0.png","img2/300/Incongruent/R/I_Dist_300_LN_4_LD_20_RN_2_RD_4_1.png","img2/200/Congruent/R/C_Dist_200_LN_3_LD_10_RN_14_RD_28_1.png","img2/200/Congruent/L/C_Dist_200_LN_14_LD_28_RN_6_RD_20_0.png","img2/300/Congruent/R/C_Dist_300_LN_7_LD_14_RN_20_RD_25_1.png","img2/100/Incongruent/L/I_Dist_100_LN_6_LD_10_RN_7_RD_14_0.png","img2/300/Congruent/L/C_Dist_300_LN_12_LD_24_RN_2_RD_10_0.png","img2/100/Incongruent/R/I_Dist_100_LN_6_LD_12_RN_3_RD_5_1.png","img2/300/Incongruent/L/I_Dist_300_LN_3_LD_6_RN_4_RD_20_0.png","img2/300/Incongruent/L/I_Dist_300_LN_8_LD_10_RN_9_RD_18_0.png","img2/300/Incongruent/R/I_Dist_300_LN_13_LD_26_RN_12_RD_15_1.png","img2/200/Incongruent/R/I_Dist_200_LN_3_LD_10_RN_1_RD_2_1.png","img2/100/Congruent/R/C_Dist_100_LN_1_LD_2_RN_18_RD_30_1.png","img2/200/Incongruent/L/I_Dist_200_LN_7_LD_10_RN_12_RD_24_0.png","img2/200/Congruent/L/C_Dist_200_LN_8_LD_15_RN_3_RD_9_0.png","img2/100/Incongruent/L/I_Dist_100_LN_6_LD_10_RN_7_RD_14_0.png","img2/200/Incongruent/R/I_Dist_200_LN_6_LD_20_RN_3_RD_6_1.png","img2/100/Incongruent/L/I_Dist_100_LN_9_LD_15_RN_13_RD_26_0.png","img2/300/Incongruent/R/I_Dist_300_LN_4_LD_20_RN_2_RD_4_1.png","img2/300/Incongruent/R/I_Dist_300_LN_13_LD_26_RN_12_RD_15_1.png","img2/100/Incongruent/R/I_Dist_100_LN_8_LD_16_RN_6_RD_10_1.png","img2/200/Congruent/L/C_Dist_200_LN_16_LD_30_RN_9_RD_27_0.png","img2/300/Congruent/L/C_Dist_300_LN_20_LD_25_RN_5_RD_10_0.png","img2/300/Incongruent/L/I_Dist_300_LN_8_LD_10_RN_14_RD_28_0.png","img2/200/Congruent/L/C_Dist_200_LN_9_LD_20_RN_4_RD_16_0.png","img2/300/Incongruent/R/I_Dist_300_LN_13_LD_26_RN_12_RD_15_1.png","img2/100/Incongruent/L/I_Dist_100_LN_3_LD_5_RN_8_RD_16_0.png","img2/300/Congruent/R/C_Dist_300_LN_8_LD_15_RN_10_RD_12_1.png","img2/200/Congruent/R/C_Dist_200_LN_3_LD_12_RN_9_RD_20_1.png","img2/300/Congruent/R/C_Dist_300_LN_3_LD_6_RN_4_RD_5_1.png","img2/100/Congruent/R/C_Dist_100_LN_1_LD_2_RN_18_RD_30_1.png","img2/300/Congruent/L/C_Dist_300_LN_4_LD_10_RN_1_RD_10_0.png","img2/200/Incongruent/L/I_Dist_200_LN_3_LD_4_RN_11_RD_20_0.png","img2/300/Incongruent/R/I_Dist_300_LN_4_LD_20_RN_2_RD_4_1.png","img2/100/Incongruent/L/I_Dist_100_LN_1_LD_2_RN_8_RD_20_0.png","img2/300/Incongruent/R/I_Dist_300_LN_13_LD_26_RN_12_RD_15_1.png","img2/300/Incongruent/L/I_Dist_300_LN_3_LD_6_RN_4_RD_20_0.png","img2/100/Congruent/L/C_Dist_100_LN_10_LD_25_RN_3_RD_10_0.png"],"dist100_C":[["C_Dist_100_LN_10_LD_25_RN_3_RD_10_0.png","C_Dist_100_LN_11_LD_22_RN_4_RD_10_0.png","C_Dist_100_LN_11_LD_22_RN_6_RD_15_0.png","C_Dist_100_LN_15_LD_25_RN_13_RD_26_0.png","C_Dist_100_LN_3_LD_6_RN_2_RD_5_0.png","C_Dist_100_LN_6_LD_20_RN_5_RD_25_0.png","C_Dist_100_LN_8_LD_16_RN_2_RD_5_0.png","C_Dist_100_LN_9_LD_15_RN_8_RD_16_0.png"],["C_Dist_100_LN_1_LD_2_RN_18_RD_30_1.png","C_Dist_100_LN_1_LD_2_RN_3_RD_5_1.png","C_Dist_100_LN_12_LD_30_RN_13_RD_26_1.png","C_Dist_100_LN_2_LD_5_RN_11_RD_22_1.png","C_Dist_100_LN_2_LD_5_RN_6_RD_12_1.png","C_Dist_100_LN_3_LD_20_RN_4_RD_16_1.png","C_Dist_100_LN_4_LD_10_RN_15_RD_30_1.png","C_Dist_100_LN_4_LD_8_RN_6_RD_10_1.png","C_Dist_100_LN_6_LD_12_RN_15_RD_25_1.png","C_Dist_100_LN_7_LD_14_RN_15_RD_25_1.png","C_Dist_100_LN_7_LD_14_RN_9_RD_15_1.png"]],"dist100_I":[["I_Dist_100_LN_1_LD_2_RN_8_RD_20_0.png","I_Dist_100_LN_2_LD_4_RN_6_RD_15_0.png","I_Dist_100_LN_2_LD_4_RN_8_RD_20_0.png","I_Dist_100_LN_3_LD_5_RN_11_RD_22_0.png","I_Dist_100_LN_3_LD_5_RN_8_RD_16_0.png","I_Dist_100_LN_3_LD_6_RN_4_RD_10_0.png","I_Dist_100_LN_3_LD_9_RN_7_RD_30_0.png","I_Dist_100_LN_4_LD_8_RN_8_RD_20_0.png","I_Dist_100_LN_6_LD_10_RN_11_RD_22_0.png","I_Dist_100_LN_6_LD_10_RN_13_RD_26_0.png","I_Dist_100_LN_6_LD_10_RN_7_RD_14_0.png","I_Dist_100_LN_9_LD_10_RN_20_RD_25_0.png","I_Dist_100_LN_9_LD_15_RN_13_RD_26_0.png","I_Dist_100_LN_9_LD_15_RN_14_RD_28_0.png"],["I_Dist_100_LN_10_LD_25_RN_8_RD_16_1.png","I_Dist_100_LN_10_LD_25_RN_9_RD_18_1.png","I_Dist_100_LN_11_LD_22_RN_9_RD_15_1.png","I_Dist_100_LN_12_LD_24_RN_9_RD_15_1.png","I_Dist_100_LN_12_LD_30_RN_2_RD_4_1.png","I_Dist_100_LN_13_LD_26_RN_12_RD_20_1.png","I_Dist_100_LN_13_LD_26_RN_6_RD_10_1.png","I_Dist_100_LN_17_LD_30_RN_10_RD_15_1.png","I_Dist_100_LN_6_LD_12_RN_3_RD_5_1.png","I_Dist_100_LN_8_LD_16_RN_6_RD_10_1.png","I_Dist_100_LN_8_LD_20_RN_1_RD_2_1.png","I_Dist_100_LN_9_LD_18_RN_6_RD_10_1.png"]],"dist100_S":[["E_Dist_100_LN_2_LD_12_RN_2_RD_30_0.png","E_Dist_100_LN_6_LD_10_RN_6_RD_12_0.png"],["E_Dist_100_LN_6_LD_12_RN_6_RD_10_1.png"]],"dist200_C":[["C_Dist_200_LN_11_LD_22_RN_3_RD_10_0.png","C_Dist_200_LN_12_LD_15_RN_6_RD_10_0.png","C_Dist_200_LN_12_LD_20_RN_6_RD_15_0.png","C_Dist_200_LN_14_LD_28_RN_6_RD_20_0.png","C_Dist_200_LN_15_LD_25_RN_4_RD_10_0.png","C_Dist_200_LN_16_LD_20_RN_12_RD_20_0.png","C_Dist_200_LN_16_LD_30_RN_9_RD_27_0.png","C_Dist_200_LN_20_LD_25_RN_9_RD_15_0.png","C_Dist_200_LN_21_LD_30_RN_2_RD_4_0.png","C_Dist_200_LN_4_LD_10_RN_3_RD_15_0.png","C_Dist_200_LN_4_LD_8_RN_3_RD_10_0.png","C_Dist_200_LN_6_LD_15_RN_3_RD_15_0.png","C_Dist_200_LN_7_LD_21_RN_2_RD_15_0.png","C_Dist_200_LN_8_LD_15_RN_2_RD_6_0.png","C_Dist_200_LN_8_LD_15_RN_3_RD_9_0.png","C_Dist_200_LN_8_LD_15_RN_7_RD_21_0.png","C_Dist_200_LN_9_LD_20_RN_4_RD_16_0.png"],["C_Dist_200_LN_1_LD_2_RN_21_RD_30_1.png","C_Dist_200_LN_13_LD_26_RN_14_RD_20_1.png","C_Dist_200_LN_3_LD_10_RN_11_RD_22_1.png","C_Dist_200_LN_3_LD_10_RN_14_RD_28_1.png","C_Dist_200_LN_3_LD_10_RN_7_RD_14_1.png","C_Dist_200_LN_3_LD_12_RN_9_RD_20_1.png","C_Dist_200_LN_3_LD_6_RN_14_RD_20_1.png","C_Dist_200_LN_5_LD_10_RN_14_RD_20_1.png","C_Dist_200_LN_6_LD_12_RN_7_RD_10_1.png","C_Dist_200_LN_6_LD_20_RN_11_RD_22_1.png","C_Dist_200_LN_7_LD_15_RN_18_RD_27_1.png","C_Dist_200_LN_9_LD_30_RN_13_RD_26_1.png"]],"dist200_I":[["I_Dist_200_LN_1_LD_2_RN_3_RD_10_0.png","I_Dist_200_LN_1_LD_3_RN_2_RD_15_0.png","I_Dist_200_LN_3_LD_4_RN_11_RD_20_0.png","I_Dist_200_LN_4_LD_5_RN_6_RD_10_0.png","I_Dist_200_LN_4_LD_6_RN_14_RD_30_0.png","I_Dist_200_LN_7_LD_10_RN_12_RD_24_0.png","I_Dist_200_LN_7_LD_10_RN_14_RD_28_0.png","I_Dist_200_LN_7_LD_10_RN_8_RD_16_0.png"],["I_Dist_200_LN_11_LD_20_RN_3_RD_4_1.png","I_Dist_200_LN_14_LD_30_RN_12_RD_18_1.png","I_Dist_200_LN_14_LD_30_RN_6_RD_9_1.png","I_Dist_200_LN_3_LD_10_RN_1_RD_2_1.png","I_Dist_200_LN_4_LD_30_RN_1_RD_3_1.png","I_Dist_200_LN_6_LD_20_RN_3_RD_6_1.png","I_Dist_200_LN_7_LD_15_RN_4_RD_6_1.png","I_Dist_200_LN_7_LD_15_RN_6_RD_9_1.png","I_Dist_200_LN_9_LD_15_RN_8_RD_10_1.png"]],"dist200_S":[["E_Dist_200_LN_3_LD_6_RN_3_RD_10_0.png"],["E_Dist_200_LN_3_LD_10_RN_3_RD_6_1.png"]],"dist300_C":[["C_Dist_300_LN_11_LD_22_RN_1_RD_5_0.png","C_Dist_300_LN_11_LD_22_RN_2_RD_10_0.png","C_Dist_300_LN_11_LD_22_RN_4_RD_20_0.png","C_Dist_300_LN_12_LD_24_RN_2_RD_10_0.png","C_Dist_300_LN_18_LD_20_RN_9_RD_15_0.png","C_Dist_300_LN_20_LD_25_RN_13_RD_26_0.png","C_Dist_300_LN_20_LD_25_RN_14_RD_28_0.png","C_Dist_300_LN_20_LD_25_RN_5_RD_10_0.png","C_Dist_300_LN_20_LD_25_RN_8_RD_16_0.png","C_Dist_300_LN_20_LD_25_RN_9_RD_18_0.png","C_Dist_300_LN_24_LD_30_RN_2_RD_4_0.png","C_Dist_300_LN_24_LD_30_RN_8_RD_16_0.png","C_Dist_300_LN_3_LD_6_RN_2_RD_10_0.png","C_Dist_300_LN_4_LD_10_RN_1_RD_10_0.png","C_Dist_300_LN_4_LD_5_RN_2_RD_4_0.png","C_Dist_300_LN_8_LD_16_RN_1_RD_5_0.png","C_Dist_300_LN_9_LD_10_RN_3_RD_5_0.png"],["C_Dist_300_LN_1_LD_20_RN_7_RD_20_1.png","C_Dist_300_LN_1_LD_3_RN_19_RD_30_1.png","C_Dist_300_LN_1_LD_30_RN_8_RD_24_1.png","C_Dist_300_LN_1_LD_5_RN_11_RD_22_1.png","C_Dist_300_LN_1_LD_5_RN_3_RD_6_1.png","C_Dist_300_LN_1_LD_5_RN_6_RD_12_1.png","C_Dist_300_LN_2_LD_10_RN_12_RD_24_1.png","C_Dist_300_LN_2_LD_20_RN_10_RD_25_1.png","C_Dist_300_LN_3_LD_12_RN_11_RD_20_1.png","C_Dist_300_LN_3_LD_6_RN_4_RD_5_1.png","C_Dist_300_LN_4_LD_20_RN_13_RD_26_1.png","C_Dist_300_LN_5_LD_25_RN_6_RD_12_1.png","C_Dist_300_LN_5_LD_25_RN_7_RD_14_1.png","C_Dist_300_LN_7_LD_14_RN_20_RD_25_1.png","C_Dist_300_LN_8_LD_15_RN_10_RD_12_1.png"]],"dist300_I":[["I_Dist_300_LN_1_LD_2_RN_2_RD_10_0.png","I_Dist_300_LN_1_LD_2_RN_3_RD_15_0.png","I_Dist_300_LN_2_LD_4_RN_6_RD_30_0.png","I_Dist_300_LN_3_LD_6_RN_4_RD_20_0.png","I_Dist_300_LN_4_LD_5_RN_6_RD_12_0.png","I_Dist_300_LN_4_LD_5_RN_8_RD_16_0.png","I_Dist_300_LN_7_LD_10_RN_8_RD_20_0.png","I_Dist_300_LN_8_LD_10_RN_14_RD_28_0.png","I_Dist_300_LN_8_LD_10_RN_9_RD_18_0.png"],["I_Dist_300_LN_13_LD_26_RN_12_RD_15_1.png","I_Dist_300_LN_4_LD_20_RN_2_RD_4_1.png"]],"dist300_S":[["E_Dist_300_LN_9_LD_12_RN_9_RD_20_0.png"],["E_Dist_300_LN_18_LD_30_RN_18_RD_20_1.png","E_Dist_300_LN_3_LD_10_RN_3_RD_5_1.png","E_Dist_300_LN_9_LD_20_RN_9_RD_12_1.png"]],"dist500_C":[["C_Dist_500_LN_10_LD_13_RN_7_RD_26_0.png","C_Dist_500_LN_10_LD_15_RN_4_RD_24_0.png","C_Dist_500_LN_12_LD_16_RN_3_RD_12_0.png","C_Dist_500_LN_12_LD_18_RN_4_RD_24_0.png","C_Dist_500_LN_15_LD_18_RN_5_RD_15_0.png","C_Dist_500_LN_15_LD_20_RN_1_RD_4_0.png","C_Dist_500_LN_18_LD_27_RN_1_RD_6_0.png","C_Dist_500_LN_20_LD_24_RN_1_RD_3_0.png","C_Dist_500_LN_20_LD_24_RN_3_RD_9_0.png","C_Dist_500_LN_20_LD_24_RN_7_RD_21_0.png","C_Dist_500_LN_20_LD_28_RN_3_RD_14_0.png","C_Dist_500_LN_21_LD_28_RN_6_RD_24_0.png","C_Dist_500_LN_22_LD_28_RN_2_RD_7_0.png","C_Dist_500_LN_25_LD_30_RN_9_RD_27_0.png","C_Dist_500_LN_4_LD_6_RN_1_RD_6_0.png","C_Dist_500_LN_5_LD_6_RN_2_RD_6_0.png","C_Dist_500_LN_6_LD_9_RN_1_RD_6_0.png","C_Dist_500_LN_7_LD_10_RN_1_RD_5_0.png","C_Dist_500_LN_8_LD_12_RN_1_RD_6_0.png","C_Dist_500_LN_8_LD_12_RN_4_RD_24_0.png"],["C_Dist_500_LN_1_LD_4_RN_12_RD_16_1.png","C_Dist_500_LN_1_LD_4_RN_9_RD_12_1.png","C_Dist_500_LN_1_LD_9_RN_11_RD_18_1.png","C_Dist_500_LN_10_LD_24_RN_22_RD_24_1.png","C_Dist_500_LN_2_LD_12_RN_10_RD_15_1.png","C_Dist_500_LN_2_LD_12_RN_12_RD_18_1.png","C_Dist_500_LN_2_LD_12_RN_4_RD_6_1.png","C_Dist_500_LN_2_LD_24_RN_7_RD_12_1.png","C_Dist_500_LN_2_LD_5_RN_18_RD_20_1.png","C_Dist_500_LN_2_LD_5_RN_9_RD_10_1.png","C_Dist_500_LN_2_LD_8_RN_12_RD_16_1.png","C_Dist_500_LN_2_LD_8_RN_21_RD_28_1.png","C_Dist_500_LN_3_LD_10_RN_4_RD_5_1.png","C_Dist_500_LN_3_LD_12_RN_15_RD_20_1.png","C_Dist_500_LN_3_LD_30_RN_6_RD_10_1.png","C_Dist_500_LN_3_LD_8_RN_14_RD_16_1.png","C_Dist_500_LN_4_LD_16_RN_15_RD_20_1.png","C_Dist_500_LN_4_LD_24_RN_12_RD_18_1.png","C_Dist_500_LN_5_LD_14_RN_6_RD_7_1.png","C_Dist_500_LN_7_LD_21_RN_20_RD_24_1.png","C_Dist_500_LN_7_LD_28_RN_12_RD_16_1.png","C_Dist_500_LN_7_LD_28_RN_9_RD_12_1.png","C_Dist_500_LN_9_LD_27_RN_20_RD_24_1.png"]],"dist500_I":[["I_Dist_500_LN_2_LD_3_RN_4_RD_24_0.png","I_Dist_500_LN_5_LD_6_RN_6_RD_18_0.png","I_Dist_500_LN_7_LD_8_RN_9_RD_24_0.png"],["I_Dist_500_LN_7_LD_21_RN_5_RD_6_1.png"]],"dist500_S":[["E_Dist_500_LN_6_LD_8_RN_6_RD_24_0.png"],["E_Dist_500_LN_2_LD_12_RN_2_RD_3_1.png","E_Dist_500_LN_6_LD_24_RN_6_RD_8_1.png"]]}},{"start_time":1552313040453,"click_time":1552313042291,"finger_time":1552313041909,"fix_duration":1142.5744878154112,"trial":1,"RT":1456,"MT":382,"sideResp":1,"stimulus":[],"xmouse":[803,803,803,803,803,803,803,803,803,803,803,803,803,803,803,803,803,803,803,803,803,803,803,803,803,803,803,803,803,803,803,803,803,803,803,803,803,803,803,803,803,803,803,803,803,803,803,803,803,803,803,803,803,803,803,803,803,803,803,803,803,803,803,803,803,803,803,803,803,803,802,796,775,741,660,626,601,588,578,557,547,539,530,522,505,498,495,492,492,491,491,488],"ymouse":[618,618,618,618,618,618,618,618,618,618,618,618,618,618,618,618,618,618,618,618,618,618,618,618,618,618,618,618,618,618,618,618,618,618,618,618,618,618,618,618,618,618,618,618,618,618,618,618,618,618,618,618,618,618,618,618,618,618,618,618,618,618,618,618,618,618,618,618,618,618,611,601,568,524,421,380,345,327,309,276,257,236,215,196,150,130,120,110,107,106,103,96],"timestamp_mouse":[17,38,57,75,97,116,137,155,176,197,217,237,256,277,297,316,337,357,376,396,415,437,456,477,496,517,537,556,575,597,616,637,656,676,697,716,737,757,776,795,816,836,856,876,897,916,937,957,976,997,1017,1037,1055,1076,1096,1117,1135,1156,1176,1197,1217,1236,1256,1277,1296,1316,1335,1357,1376,1397,1416,1437,1456,1477,1496,1517,1535,1556,1576,1597,1616,1636,1656,1677,1695,1716,1736,1755,1776,1796,1816,1837],"xSR":741.5,"ySR":573.95,"xT1":424.9,"yT1":0,"xT2":1058.1,"yT2":0,"toosoon":0,"cond_shown":"Congruent","ratio_trial":300,"L_num":20,"L_den":25,"R_num":9,"R_den":18,"correct_side":1,"subjID":"JACOBO DÍAZ SEGURA 5","gender":"0","school":"4","age":"9"},{"start_time":1552313045720,"click_time":1552313047949,"finger_time":1552313047089,"fix_duration":429.9298734148771,"trial":2,"RT":1369,"MT":860,"sideResp":2,"stimulus":[],"xmouse":[788,788,788,788,788,788,788,788,788,788,788,788,788,788,788,788,788,788,788,788,788,788,788,788,788,788,788,788,788,788,788,788,788,788,788,788,788,788,788,788,788,788,788,788,788,788,788,788,788,788,788,788,788,788,788,788,788,788,788,788,788,788,788,788,789,790,800,819,847,878,898,909,920,923,927,933,949,957,963,970,975,975,975,976,979,984,1002,1011,1018,1023,1026,1026,1026,1027,1030,1032,1040,1043,1045,1045,1046,1046,1046,1046,1046,1047,1051,1054,1056,1057,1058,1059],"ymouse":[631,631,631,631,631,631,631,631,631,631,631,631,631,631,631,631,631,631,631,631,631,631,631,631,631,631,631,631,631,631,631,631,631,631,631,631,631,631,631,631,631,631,631,631,631,631,631,631,631,631,631,631,631,631,631,631,631,631,631,631,631,631,631,631,631,631,625,605,575,544,520,508,489,484,476,467,433,412,388,362,338,291,272,252,236,217,175,153,137,127,122,122,122,121,121,118,112,110,108,106,105,104,104,104,104,102,93,90,88,85,84,84],"timestamp_mouse":[13,29,49,68,89,109,129,150,168,190,209,230,249,269,290,310,328,350,368,389,409,429,449,468,489,509,528,549,570,590,608,629,650,669,689,710,730,749,770,789,808,829,850,870,888,908,930,950,969,989,1010,1030,1048,1068,1088,1110,1129,1150,1170,1188,1210,1228,1248,1270,1290,1309,1329,1349,1369,1389,1409,1429,1449,1469,1490,1509,1529,1549,1570,1589,1609,1629,1649,1669,1688,1708,1729,1749,1769,1788,1809,1830,1850,1869,1888,1908,1929,1949,1969,1989,2009,2029,2049,2068,2089,2109,2129,2149,2169,2189,2210,2229],"xSR":741.5,"ySR":573.95,"xT1":424.9,"yT1":0,"xT2":1058.1,"yT2":0,"toosoon":0,"cond_shown":"Incongruent","ratio_trial":300,"L_num":8,"L_den":10,"R_num":9,"R_den":18,"correct_side":1,"subjID":"JACOBO DÍAZ SEGURA 5","gender":"0","school":"4","age":"9"},{"start_time":1552313050242,"click_time":1552313052349,"finger_time":1552313051869,"fix_duration":332.6448629130482,"trial":3,"RT":1627,"MT":480,"sideResp":2,"stimulus":[],"xmouse":[804,804,804,804,804,804,804,804,804,804,804,804,804,804,804,804,804,804,804,804,804,804,804,804,804,804,804,804,804,804,804,804,804,804,804,804,804,804,804,804,804,804,804,803,803,803,803,803,803,803,803,803,803,803,803,803,803,802,802,802,802,802,802,802,802,802,802,802,802,802,802,802,802,802,802,802,802,802,802,790,781,770,769,769,769,769,769,769,769,771,780,799,832,892,912,958,991,1002,1013,1024,1048,1061,1074,1084,1090,1093],"ymouse":[606,606,606,606,606,606,606,606,606,606,606,606,606,606,606,606,606,606,606,606,606,606,606,606,606,606,606,606,606,606,606,606,606,606,606,606,606,606,606,606,606,606,606,606,606,606,606,606,606,606,606,606,606,606,606,606,606,607,607,607,607,607,607,607,607,607,607,607,607,607,607,607,607,607,607,607,607,604,598,585,574,560,559,559,559,558,558,558,557,556,550,533,498,429,406,338,278,260,246,230,196,177,154,123,102,83],"timestamp_mouse":[26,41,47,67,87,107,127,147,168,188,207,227,248,268,287,306,326,348,368,387,407,427,448,467,488,507,527,548,567,588,607,626,648,666,687,708,727,747,768,787,808,828,848,867,888,907,928,948,968,988,1008,1027,1048,1067,1087,1108,1128,1147,1166,1188,1207,1228,1246,1268,1288,1306,1328,1346,1368,1388,1407,1428,1448,1466,1488,1508,1528,1547,1566,1587,1607,1627,1647,1666,1687,1708,1727,1747,1767,1787,1808,1827,1847,1866,1886,1907,1928,1946,1968,1987,2008,2027,2047,2066,2087,2107],"xSR":741.5,"ySR":573.95,"xT1":424.9,"yT1":0,"xT2":1058.1,"yT2":0,"toosoon":0,"cond_shown":"Congruent","ratio_trial":200,"L_num":7,"L_den":21,"R_num":2,"R_den":15,"correct_side":1,"subjID":"JACOBO DÍAZ SEGURA 5","gender":"0","school":"4","age":"9"},{"start_time":1552313054461,"click_time":1552313057009,"finger_time":1552313056210,"fix_duration":250,"trial":4,"RT":1749,"MT":799,"sideResp":1,"stimulus":[],"xmouse":[807,807,807,807,807,807,807,807,807,807,807,807,807,807,807,807,807,807,807,807,807,807,807,807,807,807,807,807,807,807,807,807,807,807,807,807,807,807,807,807,807,807,807,807,807,807,807,807,807,807,807,807,807,807,807,807,807,807,807,807,807,807,807,807,807,807,807,807,807,807,807,807,807,807,807,807,807,807,807,807,807,807,807,807,807,801,783,726,638,539,323,290,216,189,174,163,163,163,164,164,165,169,171,173,174,176,181,185,189,193,199,202,206,212,220,249,261,269,276,284,299,308,315,320,326,363,409,456],"ymouse":[612,612,612,612,612,612,612,612,612,612,612,612,612,612,612,612,612,612,612,612,612,612,612,612,612,612,612,612,612,612,612,612,612,612,612,612,612,612,612,612,612,612,612,612,612,612,612,612,612,612,612,612,612,612,612,612,612,612,612,612,612,612,612,612,612,612,612,612,612,612,612,612,612,612,612,612,612,612,612,612,612,612,612,612,611,601,581,525,437,319,51,12,0,0,0,0,0,0,0,0,0,0,0,0,0,0,0,0,0,0,0,0,0,0,0,0,0,0,0,0,0,0,0,0,0,7,19,36],"timestamp_mouse":[12,33,47,68,88,109,129,147,167,188,208,229,248,268,289,308,328,349,367,389,408,429,447,468,489,509,528,549,567,588,608,628,648,667,688,708,729,749,769,788,808,827,849,868,888,909,928,949,969,989,1007,1029,1048,1069,1089,1109,1129,1149,1169,1188,1209,1228,1247,1268,1289,1307,1328,1348,1367,1389,1407,1427,1448,1469,1488,1509,1528,1547,1569,1589,1608,1629,1648,1668,1688,1708,1728,1749,1768,1788,1808,1828,1848,1868,1889,1908,1928,1948,1968,1987,2008,2028,2048,2067,2088,2109,2128,2148,2168,2188,2208,2227,2248,2268,2287,2310,2328,2349,2369,2389,2408,2428,2448,2468,2488,2509,2527,2548],"xSR":741.5,"ySR":573.95,"xT1":424.9,"yT1":0,"xT2":1058.1,"yT2":0,"toosoon":0,"cond_shown":"Incongruent","ratio_trial":300,"L_num":2,"L_den":4,"R_num":6,"R_den":30,"correct_side":1,"subjID":"JACOBO DÍAZ SEGURA 5","gender":"0","school":"4","age":"9"},{"start_time":1552313060275,"click_time":1552313062109,"finger_time":1552313061689,"fix_duration":943.421547462915,"trial":5,"RT":1414,"MT":420,"sideResp":1,"stimulus":[],"xmouse":[784,784,784,784,784,784,783,783,783,783,783,783,783,783,783,783,783,783,783,783,783,783,783,783,783,783,783,783,783,783,783,783,783,783,783,783,783,783,783,783,783,783,783,783,783,783,783,783,783,783,783,783,783,783,783,783,783,783,783,783,783,783,783,783,783,783,783,783,783,775,721,679,646,625,611,592,582,574,563,551,527,519,513,510,509,509,507,504,499,488,439,432],"ymouse":[614,614,614,614,614,614,614,614,614,614,614,614,614,614,614,614,614,614,614,614,614,614,614,614,614,614,614,614,614,614,614,614,614,614,614,614,614,614,614,614,614,614,614,614,614,614,614,614,614,614,614,614,614,614,614,614,614,614,614,614,614,614,614,614,614,614,614,614,614,610,570,539,514,492,470,432,404,386,365,346,309,296,284,276,268,249,231,215,196,166,105,94],"timestamp_mouse":[15,34,54,75,95,113,135,154,174,194,215,235,255,275,295,313,335,354,374,395,414,433,455,475,494,513,534,555,574,593,614,634,654,673,695,715,734,754,774,795,815,835,854,875,895,914,935,955,974,994,1013,1035,1055,1075,1094,1114,1134,1154,1175,1194,1215,1235,1255,1274,1295,1315,1334,1354,1374,1394,1414,1434,1454,1474,1494,1514,1534,1554,1574,1594,1614,1635,1655,1674,1694,1714,1735,1754,1775,1794,1814,1834],"xSR":741.5,"ySR":573.95,"xT1":424.9,"yT1":0,"xT2":1058.1,"yT2":0,"toosoon":0,"cond_shown":"Incongruent","ratio_trial":300,"L_num":2,"L_den":4,"R_num":6,"R_den":30,"correct_side":1,"subjID":"JACOBO DÍAZ SEGURA 5","gender":"0","school":"4","age":"9"},{"start_time":1552313067368,"click_time":1552313070829,"finger_time":1552313069489,"fix_duration":1477.2833808972237,"trial":6,"RT":2121,"MT":1340,"sideResp":1,"stimulus":[],"xmouse":[786,786,786,786,786,786,786,786,786,786,786,786,786,786,786,786,786,785,785,785,785,785,785,785,785,785,785,785,785,785,785,785,785,785,785,784,784,784,784,784,784,784,784,784,784,784,784,784,784,784,784,784,784,784,784,784,784,784,784,784,784,784,784,784,784,784,784,784,784,784,784,784,784,784,784,784,784,784,784,784,784,784,784,784,784,784,784,784,784,784,784,784,784,784,785,785,785,785,785,786,786,788,789,791,792,796,800,806,809,815,818,821,827,830,831,833,834,835,835,835,835,835,834,828,808,769,715,608,539,515,448,415,385,384,384,384,384,384,384,384,384,384,384,383,383,383,383,383,384,384,384,384,384,385,385,387,388,397,399,400,403,405,413,415,416,417,417,417,417,418,420,423,424,428],"ymouse":[586,586,586,586,586,586,586,586,586,586,586,586,586,586,586,586,586,586,586,586,586,586,586,586,586,586,586,586,586,586,586,586,586,586,586,586,586,586,587,587,587,587,587,587,587,587,587,587,587,587,587,587,587,587,587,587,587,587,587,587,587,587,587,587,587,587,587,587,587,587,587,587,587,587,587,587,587,587,587,587,587,587,587,587,587,587,587,587,587,587,587,587,587,586,586,586,586,586,586,585,585,584,584,581,581,576,571,556,550,537,530,523,512,506,500,494,488,479,477,475,473,473,468,449,386,287,176,0,0,0,0,0,0,0,0,0,0,0,0,0,0,0,0,0,2,7,14,24,25,25,25,25,25,26,26,26,27,28,28,29,29,30,30,31,31,31,31,31,31,32,32,32,33,34],"timestamp_mouse":[10,33,42,62,81,101,121,142,162,182,201,222,240,262,282,302,321,340,362,381,401,422,442,462,481,502,521,542,561,581,602,621,642,660,682,701,721,741,761,782,800,822,841,862,882,902,921,942,961,980,1001,1022,1042,1062,1081,1102,1121,1141,1162,1181,1201,1222,1241,1261,1282,1302,1321,1340,1361,1381,1402,1420,1441,1462,1481,1502,1521,1542,1562,1582,1601,1622,1642,1662,1682,1700,1720,1741,1760,1782,1802,1822,1842,1861,1882,1902,1921,1942,1961,1981,2002,2022,2041,2060,2081,2101,2121,2141,2161,2180,2202,2221,2241,2261,2281,2301,2322,2341,2362,2381,2402,2421,2440,2462,2481,2501,2522,2541,2561,2581,2601,2622,2642,2661,2682,2701,2721,2740,2762,2782,2801,2822,2842,2861,2880,2901,2921,2942,2962,2982,3002,3021,3041,3062,3082,3102,3122,3141,3161,3181,3200,3220,3241,3262,3280,3300,3321,3342,3361,3381,3401,3421,3442,3461],"xSR":741.5,"ySR":573.95,"xT1":424.9,"yT1":0,"xT2":1058.1,"yT2":0,"toosoon":0,"cond_shown":"Incongruent","ratio_trial":100,"L_num":3,"L_den":5,"R_num":11,"R_den":22,"correct_side":1,"subjID":"JACOBO DÍAZ SEGURA 5","gender":"0","school":"4","age":"9"},{"start_time":1552313073623,"click_time":1552313076330,"finger_time":1552313075090,"fix_duration":1252.5055172422926,"trial":7,"RT":1467,"MT":1240,"sideResp":2,"stimulus":[],"xmouse":[815,815,815,815,815,815,815,815,815,815,815,815,815,815,815,815,815,815,815,815,815,815,815,815,815,815,815,815,814,814,814,814,814,814,814,814,814,814,814,814,814,814,814,814,814,814,814,814,814,814,814,814,814,813,813,813,813,813,813,813,813,813,813,813,813,813,813,813,813,814,817,821,828,837,841,849,852,855,859,862,870,874,878,881,884,890,893,896,901,906,915,922,931,932,941,951,958,964,970,977,995,1005,1013,1022,1031,1035,1037,1040,1043,1050,1054,1055,1056,1056,1056,1056,1056,1056,1056,1056,1056,1056,1056,1056,1057,1058,1058,1058,1058,1058,1058,1058,1058,1058,1058,1059],"ymouse":[611,611,611,611,611,611,611,611,611,611,611,611,611,611,611,611,611,611,611,612,612,612,612,612,612,612,612,612,612,612,612,612,612,612,612,612,612,612,612,612,612,612,612,612,612,612,612,612,612,612,612,612,612,613,613,613,613,613,613,613,613,613,613,613,613,613,613,613,613,613,609,600,588,571,563,549,542,536,527,519,498,489,479,464,455,437,425,414,402,388,356,342,323,319,304,286,274,264,254,243,214,195,181,159,140,132,126,118,108,87,77,71,68,68,68,68,68,68,68,68,68,68,68,68,68,67,66,66,66,66,66,66,66,66,66,66],"timestamp_mouse":[10,37,46,66,87,107,127,147,167,186,207,226,247,265,286,307,327,346,366,387,406,427,447,467,486,506,526,547,567,586,607,627,646,666,687,706,727,745,766,786,806,826,846,866,885,905,927,947,965,986,1006,1026,1046,1066,1087,1107,1126,1146,1165,1185,1207,1227,1247,1266,1287,1305,1326,1345,1365,1387,1406,1425,1446,1467,1486,1505,1527,1546,1565,1587,1606,1626,1646,1666,1685,1706,1726,1747,1766,1786,1805,1827,1845,1866,1886,1906,1927,1946,1966,1986,2006,2026,2046,2066,2087,2105,2126,2147,2166,2187,2206,2226,2246,2266,2286,2306,2326,2347,2367,2385,2406,2425,2445,2466,2487,2507,2527,2546,2566,2585,2605,2626,2647,2666,2687,2707],"xSR":741.5,"ySR":573.95,"xT1":424.9,"yT1":0,"xT2":1058.1,"yT2":0,"toosoon":0,"cond_shown":"Congruent","ratio_trial":200,"L_num":3,"L_den":10,"R_num":14,"R_den":28,"correct_side":2,"subjID":"JACOBO DÍAZ SEGURA 5","gender":"0","school":"4","age":"9"},{"start_time":1552313079148,"click_time":1552313082170,"finger_time":1552313081429,"fix_duration":1038.4816999312186,"trial":8,"RT":2281,"MT":741,"sideResp":2,"stimulus":[],"xmouse":[798,798,798,798,798,798,798,798,798,799,799,799,799,799,799,799,799,799,800,800,800,800,800,801,801,801,801,801,801,801,801,801,801,801,801,801,801,801,801,801,801,801,801,801,801,801,801,801,801,801,801,801,801,801,801,801,801,801,801,801,801,801,801,801,801,801,801,801,801,801,801,801,801,801,801,801,801,801,801,801,801,802,802,803,803,804,804,804,804,804,804,804,803,802,801,798,798,798,798,798,798,798,798,798,797,797,797,797,797,797,797,797,797,797,799,802,805,808,815,837,849,861,873,885,909,921,930,939,948,967,977,985,992,999,1002,1014,1022,1029,1034,1046,1052,1057,1060,1064,1070,1072,1072,1074,1075,1078,1080,1081],"ymouse":[622,622,622,622,622,622,622,622,622,622,622,622,622,622,622,622,622,622,621,621,621,621,621,621,621,621,621,621,621,621,621,621,621,621,621,621,621,621,621,621,621,621,621,621,621,621,621,621,621,621,621,621,621,621,621,621,621,621,621,621,621,621,621,621,621,621,621,621,621,621,621,621,621,621,621,621,621,621,621,621,621,621,620,619,608,600,598,596,595,593,592,590,588,586,584,578,578,578,578,578,578,578,578,576,575,575,575,575,575,575,575,574,574,574,572,571,569,567,563,547,537,527,517,507,480,465,450,432,413,367,345,324,301,275,250,201,187,176,166,154,149,145,143,138,130,125,123,120,118,109,102,98],"timestamp_mouse":[10,32,40,62,82,101,122,142,162,182,201,220,242,262,281,302,322,341,362,382,402,421,441,461,480,501,522,540,561,581,602,621,641,661,681,701,722,742,761,782,801,822,842,861,881,902,922,941,960,981,1001,1021,1041,1061,1082,1102,1121,1141,1160,1181,1202,1220,1242,1261,1281,1301,1322,1341,1360,1382,1402,1420,1442,1461,1481,1502,1522,1541,1560,1580,1602,1622,1641,1661,1681,1702,1722,1742,1762,1781,1801,1820,1840,1860,1880,1900,1920,1940,1960,1980,2000,2020,2042,2062,2081,2102,2122,2142,2161,2181,2201,2221,2241,2260,2280,2301,2321,2341,2360,2380,2402,2420,2440,2460,2480,2500,2521,2540,2560,2581,2601,2622,2642,2661,2680,2701,2721,2742,2761,2781,2800,2821,2841,2862,2880,2901,2921,2941,2961,2981,3001,3022],"xSR":741.5,"ySR":573.95,"xT1":424.9,"yT1":0,"xT2":1058.1,"yT2":0,"toosoon":0,"cond_shown":"Incongruent","ratio_trial":200,"L_num":4,"L_den":30,"R_num":1,"R_den":3,"correct_side":2,"subjID":"JACOBO DÍAZ SEGURA 5","gender":"0","school":"4","age":"9"},{"start_time":1552313083702,"click_time":1552313086149,"finger_time":1552313085409,"fix_duration":250,"trial":9,"RT":1707,"MT":740,"sideResp":2,"stimulus":[],"xmouse":[799,800,800,800,800,800,800,800,800,800,800,800,800,800,800,800,800,800,800,800,800,800,800,800,800,800,800,800,800,800,800,800,800,800,800,800,800,800,800,800,800,800,800,800,800,800,800,800,800,800,800,800,800,800,800,800,800,800,800,800,800,800,800,800,800,800,800,800,800,800,800,800,801,801,801,802,803,807,809,810,811,813,824,830,838,846,852,868,877,885,892,909,920,930,939,952,959,968,973,978,984,991,1001,1008,1018,1024,1028,1038,1043,1048,1054,1068,1073,1078,1081,1084,1089,1092,1093,1093,1094,1095,1096],"ymouse":[660,660,660,660,660,659,659,659,659,659,659,659,659,659,659,659,659,659,659,659,659,659,659,659,659,659,659,659,659,659,659,659,659,659,659,659,659,659,659,659,659,659,659,659,659,659,659,659,659,659,659,659,659,659,659,659,659,659,659,659,659,659,659,659,659,659,659,659,659,659,659,659,658,658,658,656,655,648,646,644,642,637,617,602,579,559,541,501,481,463,445,409,390,373,356,335,324,303,292,283,272,262,241,229,212,202,194,180,173,167,162,151,146,141,136,131,123,114,111,109,106,102,98],"timestamp_mouse":[6,28,54,68,87,108,128,146,168,187,207,228,248,267,287,308,326,348,368,388,407,426,448,468,488,508,527,548,567,586,607,628,647,668,687,707,728,747,767,788,806,828,847,866,888,907,928,948,968,988,1008,1027,1047,1067,1088,1107,1127,1147,1167,1188,1208,1227,1247,1268,1288,1306,1328,1347,1367,1388,1408,1428,1447,1467,1486,1507,1527,1546,1568,1588,1608,1627,1647,1667,1686,1707,1727,1747,1767,1788,1808,1828,1846,1867,1886,1906,1927,1948,1967,1987,2007,2027,2048,2067,2087,2108,2127,2148,2167,2187,2207,2228,2247,2268,2287,2308,2327,2348,2366,2387,2406,2428,2447],"xSR":741.5,"ySR":573.95,"xT1":424.9,"yT1":0,"xT2":1058.1,"yT2":0,"toosoon":0,"cond_shown":"Incongruent","ratio_trial":200,"L_num":9,"L_den":15,"R_num":8,"R_den":10,"correct_side":2,"subjID":"JACOBO DÍAZ SEGURA 5","gender":"0","school":"4","age":"9"},{"start_time":1552313088982,"click_time":1552313090889,"finger_time":1552313090469,"fix_duration":1392.5033828955306,"trial":10,"RT":1487,"MT":420,"sideResp":1,"stimulus":[],"xmouse":[816,816,816,816,816,815,815,815,815,815,815,814,814,814,814,814,814,814,814,814,814,814,813,813,813,813,813,813,813,813,813,813,813,813,813,813,813,813,813,813,813,813,813,813,813,813,813,813,813,813,813,813,813,813,813,813,813,813,813,813,813,813,813,813,813,813,813,813,813,813,813,813,811,793,761,718,674,645,616,609,603,597,592,584,582,579,576,574,574,573,570,563,556,539,531,524],"ymouse":[607,607,607,607,607,607,607,607,607,607,607,607,607,607,607,607,607,607,607,607,607,607,607,607,607,607,607,607,607,607,607,607,607,607,607,607,607,607,607,607,607,607,607,607,607,607,607,607,607,607,607,607,607,607,607,607,607,607,607,607,607,607,607,607,607,607,607,607,607,607,607,607,606,592,569,543,512,490,449,436,423,409,393,364,348,329,310,288,234,211,188,162,138,93,76,60],"timestamp_mouse":[15,31,47,67,86,108,127,147,166,187,207,228,248,267,288,307,327,348,367,388,408,427,447,467,486,507,528,548,567,588,606,628,648,668,688,707,727,747,768,787,806,828,847,867,888,906,927,948,967,988,1007,1027,1047,1067,1088,1108,1128,1148,1167,1187,1208,1227,1247,1267,1288,1306,1328,1347,1368,1388,1407,1428,1447,1466,1487,1507,1526,1546,1567,1586,1607,1627,1647,1667,1687,1706,1727,1748,1767,1787,1806,1827,1847,1866,1887,1907],"xSR":741.5,"ySR":573.95,"xT1":424.9,"yT1":0,"xT2":1058.1,"yT2":0,"toosoon":0,"cond_shown":"Congruent","ratio_trial":100,"L_num":9,"L_den":15,"R_num":8,"R_den":16,"correct_side":1,"subjID":"JACOBO DÍAZ SEGURA 5","gender":"0","school":"4","age":"9"},{"start_time":1552313092907,"click_time":1552313095169,"finger_time":1552313094529,"fix_duration":495.313479047768,"trial":11,"RT":1622,"MT":640,"sideResp":2,"stimulus":[],"xmouse":[825,825,825,825,825,825,825,825,825,825,825,825,825,825,825,825,825,825,825,825,825,825,825,825,825,825,825,825,825,825,825,824,824,824,824,824,824,824,824,824,824,824,824,824,824,824,824,824,824,824,824,824,824,824,824,824,824,824,824,824,823,823,823,823,823,823,823,823,823,822,822,822,820,817,816,816,816,816,816,818,820,827,832,848,857,866,873,885,893,902,911,921,934,948,956,964,971,983,989,995,1001,1012,1020,1036,1044,1052,1060,1069,1084,1090,1095,1097,1098,1098],"ymouse":[621,621,621,621,621,621,621,621,621,621,621,621,621,621,621,621,621,621,621,621,621,621,621,621,621,621,621,621,621,621,621,621,621,621,621,621,621,621,621,621,621,621,621,621,621,621,621,621,620,620,620,620,620,620,620,620,620,620,620,620,620,620,620,620,620,620,620,620,620,619,619,619,617,612,611,610,610,608,605,595,584,559,540,506,494,481,473,459,448,436,423,409,389,357,339,321,307,279,268,254,244,229,220,199,189,176,166,152,127,118,111,104,101,93],"timestamp_mouse":[13,22,43,63,83,103,123,143,163,184,202,223,242,263,283,302,323,342,363,382,402,423,443,462,483,503,522,542,563,583,603,623,643,662,682,702,723,743,763,782,803,822,843,863,882,903,923,942,962,982,1002,1022,1042,1062,1083,1103,1122,1143,1163,1183,1202,1223,1243,1263,1283,1303,1323,1342,1364,1382,1403,1422,1442,1463,1483,1503,1524,1543,1562,1582,1602,1622,1642,1663,1682,1702,1722,1742,1762,1782,1802,1823,1842,1863,1882,1904,1922,1943,1962,1982,2002,2022,2042,2063,2082,2102,2122,2142,2162,2182,2203,2222,2242,2262],"xSR":741.5,"ySR":573.95,"xT1":424.9,"yT1":0,"xT2":1058.1,"yT2":0,"toosoon":0,"cond_shown":"Incongruent","ratio_trial":200,"L_num":14,"L_den":30,"R_num":12,"R_den":18,"correct_side":2,"subjID":"JACOBO DÍAZ SEGURA 5","gender":"0","school":"4","age":"9"},{"start_time":1552313097503,"click_time":1552313099391,"finger_time":1552313099090,"fix_duration":250,"trial":12,"RT":1587,"MT":301,"sideResp":1,"stimulus":[],"xmouse":[804,804,804,804,804,804,804,804,804,804,804,804,804,804,804,804,804,804,804,804,804,804,804,804,804,804,804,804,804,804,804,804,804,804,804,804,804,804,804,804,804,804,804,804,804,804,804,804,804,804,804,804,804,804,804,804,804,804,804,804,804,804,804,804,804,804,804,804,803,800,788,782,777,772,772,772,772,772,767,752,734,713,694,672,666,663,663,660,654,644,614,595,572,531,512],"ymouse":[630,630,630,630,630,630,630,630,630,630,630,630,630,630,630,630,630,630,630,630,630,630,630,630,630,630,630,630,630,630,630,630,630,630,630,630,630,630,630,630,630,630,630,630,630,630,630,630,630,630,630,630,630,630,630,630,630,630,630,630,630,630,630,630,630,630,630,630,629,626,609,601,595,589,589,589,588,587,575,543,507,470,438,396,386,378,374,355,332,300,229,183,132,49,17],"timestamp_mouse":[13,33,47,66,86,107,126,147,167,186,207,226,247,266,287,307,328,346,367,386,406,426,448,466,488,506,526,546,566,587,606,627,646,667,686,707,726,747,767,787,807,827,846,867,887,906,926,947,966,987,1007,1026,1047,1066,1087,1107,1128,1147,1166,1187,1207,1227,1247,1267,1287,1306,1327,1346,1366,1386,1406,1426,1446,1467,1486,1508,1526,1547,1566,1587,1606,1627,1646,1666,1687,1706,1726,1748,1766,1787,1806,1826,1846,1866,1887],"xSR":741.5,"ySR":573.95,"xT1":424.9,"yT1":0,"xT2":1058.1,"yT2":0,"toosoon":0,"cond_shown":"Congruent","ratio_trial":300,"L_num":8,"L_den":16,"R_num":1,"R_den":5,"correct_side":1,"subjID":"JACOBO DÍAZ SEGURA 5","gender":"0","school":"4","age":"9"},{"start_time":1552313101962,"click_time":1552313104110,"finger_time":1552313103349,"fix_duration":311.9985583965863,"trial":13,"RT":1387,"MT":761,"sideResp":2,"stimulus":[],"xmouse":[789,789,789,789,789,789,789,789,789,789,789,789,789,789,789,789,789,789,789,789,789,789,789,789,789,789,789,789,789,789,789,789,789,789,789,789,789,789,789,789,789,789,789,789,789,789,789,787,786,785,785,785,785,785,785,785,785,785,785,785,785,784,783,783,783,783,783,783,783,783,784,788,791,798,806,821,878,914,941,958,968,977,979,982,985,991,1007,1014,1017,1023,1030,1040,1044,1046,1049,1051,1057,1061,1063,1065,1066,1068,1071,1073,1076,1081,1084,1084],"ymouse":[596,596,597,597,597,597,597,597,597,597,597,597,597,597,597,597,597,597,597,597,597,597,597,597,597,597,597,597,597,597,597,597,597,597,597,597,597,597,597,597,597,597,597,597,596,595,593,590,590,588,588,588,588,587,587,586,586,586,586,584,583,581,580,579,578,577,577,576,574,573,571,564,560,551,540,521,457,416,385,362,348,329,326,321,316,308,275,252,228,210,192,169,160,158,157,155,151,148,145,143,141,137,132,127,122,109,103,99],"timestamp_mouse":[12,37,47,67,87,107,127,147,168,188,207,228,248,268,288,307,327,348,368,388,407,429,449,467,488,508,527,547,568,587,609,628,648,667,688,707,728,747,767,787,807,827,847,867,888,908,928,947,968,987,1009,1027,1047,1067,1087,1108,1128,1147,1168,1187,1207,1227,1248,1268,1288,1307,1327,1347,1367,1387,1407,1427,1448,1467,1487,1507,1527,1547,1568,1587,1607,1627,1648,1667,1687,1707,1727,1747,1767,1787,1808,1827,1849,1867,1888,1907,1927,1948,1967,1987,2009,2027,2049,2067,2087,2109,2127,2147],"xSR":741.5,"ySR":573.95,"xT1":424.9,"yT1":0,"xT2":1058.1,"yT2":0,"toosoon":0,"cond_shown":"Incongruent","ratio_trial":300,"L_num":13,"L_den":26,"R_num":12,"R_den":15,"correct_side":2,"subjID":"JACOBO DÍAZ SEGURA 5","gender":"0","school":"4","age":"9"},{"start_time":1552313105851,"click_time":1552313108389,"finger_time":1552313107469,"fix_duration":380.7482327673072,"trial":14,"RT":1618,"MT":920,"sideResp":1,"stimulus":[],"xmouse":[804,804,804,804,804,804,804,804,804,804,804,804,804,804,804,804,804,804,804,804,804,803,803,803,803,803,803,803,803,803,803,803,803,803,803,803,803,803,803,803,803,803,803,802,802,802,802,802,802,802,802,802,802,802,802,802,802,802,802,802,802,802,802,802,802,802,802,802,802,802,802,802,802,802,801,800,793,786,772,753,733,697,681,669,659,654,649,647,647,645,643,638,633,629,626,620,610,606,602,598,595,590,587,586,583,580,571,567,564,563,560,552,549,547,544,541,539,539,539,539,538,538,537,537,535,530,519],"ymouse":[615,615,615,615,615,615,615,615,615,616,616,616,616,616,616,616,616,616,616,616,616,616,616,616,616,616,616,616,616,616,616,616,616,616,616,616,616,616,616,616,616,616,616,617,617,617,617,617,617,617,617,617,617,617,617,617,617,617,617,617,617,617,617,617,617,617,617,617,617,617,617,617,617,617,617,617,613,603,592,576,560,515,492,471,454,444,423,416,407,399,386,357,342,325,310,295,256,239,225,212,202,185,178,172,165,158,141,134,130,128,123,113,109,106,102,100,97,97,97,97,96,96,95,95,93,90,81],"timestamp_mouse":[18,38,58,78,98,118,138,158,178,198,218,238,258,279,298,318,338,358,378,399,418,438,458,478,499,519,538,558,578,599,618,638,659,679,700,718,738,758,779,798,818,838,859,879,898,918,939,958,978,999,1018,1038,1058,1079,1098,1120,1138,1159,1178,1198,1218,1238,1258,1278,1298,1318,1339,1359,1378,1399,1419,1438,1459,1479,1498,1518,1538,1559,1578,1599,1618,1638,1658,1679,1698,1718,1738,1758,1779,1798,1818,1839,1859,1879,1898,1919,1938,1958,1978,1998,2018,2038,2058,2078,2098,2119,2138,2158,2178,2199,2218,2238,2258,2278,2299,2319,2339,2359,2379,2399,2419,2439,2459,2478,2498,2519,2538],"xSR":741.5,"ySR":573.95,"xT1":424.9,"yT1":0,"xT2":1058.1,"yT2":0,"toosoon":0,"cond_shown":"Congruent","ratio_trial":200,"L_num":16,"L_den":30,"R_num":9,"R_den":27,"correct_side":1,"subjID":"JACOBO DÍAZ SEGURA 5","gender":"0","school":"4","age":"9"},{"start_time":1552313112504,"click_time":1552313114510,"finger_time":1552313113909,"fix_duration":1153.4173186561916,"trial":15,"RT":1405,"MT":601,"sideResp":2,"stimulus":[],"xmouse":[758,758,758,758,758,758,758,758,758,758,758,758,758,758,758,758,757,757,757,757,757,757,757,757,757,757,757,757,757,757,757,757,757,757,757,757,757,757,757,757,757,757,757,757,757,757,757,757,757,757,757,757,757,757,757,757,757,757,757,757,757,757,757,757,758,758,759,761,764,769,777,782,792,800,824,839,858,883,908,926,958,962,976,983,989,1000,1006,1010,1013,1016,1021,1024,1026,1028,1031,1038,1041,1045,1049,1053,1059],"ymouse":[601,601,601,601,601,601,601,601,601,601,601,601,601,601,601,601,601,601,601,601,601,601,601,601,601,601,601,601,601,601,601,601,601,601,601,601,601,601,601,601,601,601,601,601,601,601,601,601,601,601,601,601,601,601,601,601,601,601,601,601,601,601,601,601,601,601,601,599,594,585,568,557,537,521,484,464,437,401,363,327,260,250,226,213,199,174,162,152,144,139,131,128,127,125,123,119,116,112,108,103,97],"timestamp_mouse":[13,32,45,65,86,106,125,145,166,186,206,225,245,266,285,307,325,345,366,386,405,426,445,465,486,505,525,546,566,586,606,625,646,666,685,706,726,745,765,786,806,825,846,865,886,906,925,945,966,985,1006,1027,1045,1066,1086,1105,1126,1146,1165,1186,1206,1227,1246,1266,1285,1306,1325,1345,1366,1386,1405,1425,1445,1466,1491,1505,1525,1546,1566,1586,1605,1625,1646,1665,1685,1705,1726,1745,1765,1785,1805,1825,1845,1865,1885,1905,1926,1945,1965,1985,2006],"xSR":741.5,"ySR":573.95,"xT1":424.9,"yT1":0,"xT2":1058.1,"yT2":0,"toosoon":0,"cond_shown":"Congruent","ratio_trial":100,"L_num":2,"L_den":5,"R_num":6,"R_den":12,"correct_side":2,"subjID":"JACOBO DÍAZ SEGURA 5","gender":"0","school":"4","age":"9"},{"start_time":1552313116862,"click_time":1552313118709,"finger_time":1552313118029,"fix_duration":250,"trial":16,"RT":1167,"MT":680,"sideResp":1,"stimulus":[],"xmouse":[784,784,784,784,784,784,784,784,784,784,784,784,784,784,783,783,782,782,782,782,782,782,782,782,782,782,782,782,782,782,782,782,782,782,782,782,782,782,782,782,782,782,782,782,782,782,782,782,782,782,782,782,781,779,776,772,768,757,750,745,740,733,716,706,695,686,677,665,659,651,640,630,614,606,598,587,577,560,554,549,546,542,538,538,538,538,538,538,538,537,534,529,507],"ymouse":[592,592,592,592,592,592,592,592,592,592,592,592,592,592,592,592,592,592,592,592,592,592,592,592,592,592,592,592,592,592,592,592,592,592,592,592,592,592,592,592,592,592,592,592,592,592,592,592,592,592,592,592,592,591,589,587,585,577,573,570,566,561,544,534,521,511,502,485,472,458,440,424,392,374,353,326,303,264,250,237,228,219,210,210,210,210,210,210,208,198,184,163,76],"timestamp_mouse":[13,31,48,67,88,108,127,147,167,188,208,228,248,268,287,309,328,347,367,387,408,428,447,468,487,508,528,547,567,587,607,627,648,668,689,708,728,747,767,788,809,828,848,868,887,908,928,947,967,987,1007,1028,1047,1068,1088,1108,1127,1147,1167,1188,1208,1227,1247,1268,1287,1307,1327,1348,1367,1387,1407,1427,1447,1467,1487,1508,1527,1547,1567,1588,1607,1627,1647,1667,1688,1708,1728,1748,1767,1788,1807,1828,1847],"xSR":741.5,"ySR":573.95,"xT1":424.9,"yT1":0,"xT2":1058.1,"yT2":0,"toosoon":0,"cond_shown":"Incongruent","ratio_trial":200,"L_num":6,"L_den":20,"R_num":3,"R_den":6,"correct_side":2,"subjID":"JACOBO DÍAZ SEGURA 5","gender":"0","school":"4","age":"9"},{"start_time":1552313123115,"click_time":1552313124870,"finger_time":1552313124509,"fix_duration":1285.8880186478755,"trial":17,"RT":1394,"MT":361,"sideResp":1,"stimulus":[],"xmouse":[780,780,780,780,780,780,780,780,780,780,780,780,780,780,780,780,780,780,780,780,780,780,780,780,780,780,780,780,780,780,780,780,780,780,780,780,780,780,780,780,780,780,780,780,780,780,780,780,780,780,780,780,780,780,780,780,780,780,780,780,781,781,781,782,783,783,783,781,774,766,742,730,720,711,704,691,679,675,670,663,656,646,641,633,619,572,535,493],"ymouse":[634,634,634,634,634,634,634,634,634,634,634,634,634,634,634,634,634,634,634,634,634,634,634,634,634,634,634,634,634,634,634,634,634,634,634,634,634,634,634,634,634,634,634,634,634,634,634,634,634,634,634,634,634,634,634,634,634,634,634,634,633,633,633,632,631,623,618,608,593,572,529,508,492,477,464,444,419,406,392,375,361,331,313,292,259,185,139,88],"timestamp_mouse":[22,45,55,74,95,115,134,154,175,194,214,234,256,275,294,315,335,355,375,395,415,435,454,475,495,514,534,555,575,595,615,636,655,674,695,715,734,754,775,795,814,835,854,875,895,915,935,955,974,995,1014,1035,1055,1075,1094,1114,1135,1155,1174,1195,1215,1235,1254,1275,1294,1314,1335,1354,1375,1394,1414,1434,1455,1474,1495,1514,1535,1554,1574,1594,1614,1635,1655,1676,1694,1714,1734,1755],"xSR":741.5,"ySR":573.95,"xT1":424.9,"yT1":0,"xT2":1058.1,"yT2":0,"toosoon":0,"cond_shown":"Congruent","ratio_trial":100,"L_num":15,"L_den":25,"R_num":13,"R_den":26,"correct_side":1,"subjID":"JACOBO DÍAZ SEGURA 5","gender":"0","school":"4","age":"9"},{"start_time":1552313126907,"click_time":1552313129369,"finger_time":1552313128449,"fix_duration":815.1155638850113,"trial":18,"RT":1542,"MT":920,"sideResp":2,"stimulus":[],"xmouse":[830,830,829,829,829,829,829,829,829,829,828,828,827,827,827,827,827,827,827,827,827,827,827,827,827,827,827,827,827,827,827,827,827,827,827,826,826,826,826,826,826,825,825,825,825,825,825,825,825,825,825,825,825,825,825,825,825,825,825,825,825,825,825,825,825,825,825,825,825,825,825,825,825,825,825,825,827,833,837,841,843,849,854,858,862,866,870,877,879,882,886,897,904,915,920,939,967,980,990,997,1001,1005,1011,1013,1017,1021,1024,1031,1032,1033,1033,1033,1034,1035,1037,1038,1039,1045,1047,1049,1050,1053,1058,1062],"ymouse":[598,598,598,598,598,598,598,598,598,598,599,599,600,600,600,600,600,600,600,600,600,600,600,600,600,600,600,600,600,600,600,600,600,600,600,601,601,601,601,601,601,601,601,601,601,601,601,601,601,601,601,601,601,601,601,601,601,601,601,601,601,601,601,601,601,601,601,601,601,601,601,601,601,601,600,593,584,566,557,548,541,519,502,488,471,452,439,417,409,401,392,366,350,325,313,268,208,186,169,154,145,138,131,129,126,123,119,107,105,103,103,103,103,102,100,99,99,95,95,93,92,91,89,87],"timestamp_mouse":[13,22,42,62,83,103,122,142,163,183,203,222,242,263,283,302,322,343,362,383,402,423,442,463,484,504,523,542,563,583,602,622,642,663,683,703,723,742,763,783,802,822,843,862,883,902,922,942,962,982,1002,1023,1043,1062,1083,1103,1122,1143,1163,1182,1202,1223,1243,1264,1283,1303,1323,1342,1363,1383,1403,1424,1443,1462,1482,1502,1522,1542,1562,1582,1602,1623,1642,1662,1683,1702,1722,1743,1764,1782,1802,1824,1842,1863,1882,1902,1923,1942,1962,1983,2003,2022,2042,2062,2083,2102,2122,2142,2162,2182,2203,2222,2242,2262,2282,2303,2322,2343,2362,2382,2403,2422,2443,2462],"xSR":741.5,"ySR":573.95,"xT1":424.9,"yT1":0,"xT2":1058.1,"yT2":0,"toosoon":0,"cond_shown":"Incongruent","ratio_trial":100,"L_num":11,"L_den":22,"R_num":9,"R_den":15,"correct_side":2,"subjID":"JACOBO DÍAZ SEGURA 5","gender":"0","school":"4","age":"9"},{"start_time":1552313132287,"click_time":1552313133749,"finger_time":1552313133130,"fix_duration":1076.6619705972025,"trial":19,"RT":843,"MT":619,"sideResp":1,"stimulus":[],"xmouse":[785,785,785,785,785,785,785,785,785,785,785,785,785,785,785,785,785,785,785,785,785,785,785,785,784,783,783,783,783,783,783,783,783,783,783,783,783,783,783,782,776,756,730,653,631,616,606,596,587,584,582,582,581,581,581,581,581,581,579,577,575,573,571,567,566,566,564,563,555,550,544,539,535,524],"ymouse":[625,625,625,625,625,625,625,625,625,625,625,625,625,625,625,625,625,625,625,625,625,625,625,625,625,626,626,626,626,626,626,626,626,626,626,626,626,626,626,626,620,604,581,513,490,469,451,434,407,397,389,381,373,355,346,336,323,308,277,260,247,233,222,204,202,197,190,181,159,148,133,122,109,75],"timestamp_mouse":[2,29,44,62,83,102,122,142,162,182,203,223,243,263,283,303,322,342,363,383,403,422,443,463,483,503,523,542,562,582,603,623,643,663,683,703,724,742,762,782,803,822,843,862,882,902,923,942,962,982,1002,1022,1042,1062,1082,1102,1122,1143,1162,1183,1203,1223,1242,1262,1283,1302,1322,1342,1362,1382,1403,1422,1442,1462],"xSR":741.5,"ySR":573.95,"xT1":424.9,"yT1":0,"xT2":1058.1,"yT2":0,"toosoon":0,"cond_shown":"Incongruent","ratio_trial":200,"L_num":3,"L_den":10,"R_num":1,"R_den":2,"correct_side":2,"subjID":"JACOBO DÍAZ SEGURA 5","gender":"0","school":"4","age":"9"},{"start_time":1552313135461,"click_time":1552313137391,"finger_time":1552313136849,"fix_duration":250,"trial":20,"RT":1388,"MT":542,"sideResp":1,"stimulus":[],"xmouse":[812,812,811,810,810,810,809,809,809,809,809,809,808,808,808,808,808,808,808,808,808,807,807,807,807,807,807,807,807,807,807,807,807,807,807,807,807,807,807,807,807,807,807,807,807,807,807,807,807,807,807,807,807,807,807,807,807,807,807,807,807,807,807,806,805,798,791,783,769,739,727,709,683,656,590,573,562,554,550,548,547,547,545,543,539,538,537,537,537,537,537,537,537,536,521,510,500],"ymouse":[644,644,644,644,644,644,645,645,645,645,645,645,646,646,646,646,646,646,646,646,646,646,646,646,646,646,646,646,646,646,646,646,646,646,646,646,646,646,646,646,646,646,646,646,646,646,646,646,646,646,646,646,646,646,646,646,646,646,646,646,646,646,646,646,646,638,631,623,611,587,573,549,506,458,339,308,284,269,256,237,228,217,204,192,164,157,153,153,152,152,151,151,151,146,121,106,89],"timestamp_mouse":[12,32,48,69,88,108,129,150,169,188,209,228,249,269,289,309,328,349,369,388,409,428,450,469,489,508,529,549,569,588,609,628,649,668,689,709,729,748,768,788,808,829,848,868,890,910,929,949,968,989,1009,1029,1049,1068,1088,1109,1129,1148,1169,1188,1209,1229,1249,1269,1288,1308,1328,1349,1368,1388,1408,1428,1448,1469,1488,1508,1528,1548,1568,1588,1608,1628,1648,1669,1688,1708,1729,1749,1768,1788,1808,1829,1848,1868,1889,1908,1929],"xSR":741.5,"ySR":573.95,"xT1":424.9,"yT1":0,"xT2":1058.1,"yT2":0,"toosoon":0,"cond_shown":"Congruent","ratio_trial":300,"L_num":11,"L_den":22,"R_num":4,"R_den":20,"correct_side":1,"subjID":"JACOBO DÍAZ SEGURA 5","gender":"0","school":"4","age":"9"},{"start_time":1552313140721,"click_time":1552313142189,"finger_time":1552313141750,"fix_duration":250,"trial":21,"RT":1029,"MT":439,"sideResp":2,"stimulus":[],"xmouse":[783,783,783,783,783,783,783,783,783,783,783,783,783,783,783,783,783,783,783,783,783,783,783,783,783,783,783,783,783,783,783,783,783,783,783,783,783,783,783,783,783,783,783,783,783,784,785,796,799,812,822,843,853,865,875,885,894,911,921,935,943,951,964,972,978,984,990,1009,1024,1033,1042,1048,1057,1059],"ymouse":[617,617,617,617,617,617,617,617,617,617,617,617,617,617,617,617,617,617,617,617,617,617,617,617,617,617,617,617,617,617,617,617,617,617,617,617,617,617,617,617,617,617,617,617,616,615,614,603,599,588,581,565,555,544,533,522,511,484,470,449,434,419,385,364,345,324,301,246,201,178,155,132,93,80],"timestamp_mouse":[9,36,49,69,88,108,128,149,169,188,209,229,249,269,288,308,329,348,369,388,410,428,449,468,488,509,529,549,569,589,608,629,649,669,689,709,728,748,768,790,808,828,849,869,889,908,928,948,968,988,1008,1029,1048,1070,1088,1110,1129,1148,1169,1188,1208,1229,1249,1268,1288,1308,1329,1348,1368,1388,1408,1428,1448,1468],"xSR":741.5,"ySR":573.95,"xT1":424.9,"yT1":0,"xT2":1058.1,"yT2":0,"toosoon":0,"cond_shown":"Congruent","ratio_trial":300,"L_num":1,"L_den":30,"R_num":8,"R_den":24,"correct_side":2,"subjID":"JACOBO DÍAZ SEGURA 5","gender":"0","school":"4","age":"9"},{"start_time":1552313143978,"click_time":1552313145730,"finger_time":1552313145149,"fix_duration":506.1153536426012,"trial":22,"RT":1171,"MT":581,"sideResp":1,"stimulus":[],"xmouse":[812,812,812,812,812,812,812,812,812,812,812,812,812,812,812,812,812,812,812,812,812,812,812,812,812,812,812,812,812,812,812,812,812,812,812,812,812,812,812,812,812,812,812,812,812,812,812,812,812,812,812,812,812,812,805,797,789,780,772,763,757,751,744,733,702,690,678,666,655,628,615,606,601,595,577,568,558,553,548,538,531,527,521,515,506,502,499,497],"ymouse":[593,593,593,593,593,593,593,593,593,593,593,593,593,593,593,593,593,593,593,593,593,593,593,593,593,593,593,593,593,593,593,593,593,593,593,593,593,593,593,593,593,593,593,593,593,593,593,593,593,593,593,593,593,593,589,585,579,576,572,567,563,560,554,547,524,516,504,494,482,457,444,436,426,414,375,354,332,314,295,250,227,206,186,159,127,114,102,97],"timestamp_mouse":[25,44,51,71,91,111,132,151,171,191,212,231,251,271,291,311,332,352,371,391,411,432,452,471,492,511,531,552,572,591,612,632,651,672,691,711,731,751,771,791,812,832,851,871,891,912,931,952,971,993,1012,1032,1051,1072,1091,1111,1132,1152,1171,1191,1211,1231,1251,1272,1291,1312,1331,1352,1371,1391,1411,1431,1452,1471,1491,1512,1531,1552,1571,1591,1611,1631,1652,1672,1691,1712,1731,1751],"xSR":741.5,"ySR":573.95,"xT1":424.9,"yT1":0,"xT2":1058.1,"yT2":0,"toosoon":0,"cond_shown":"Incongruent","ratio_trial":200,"L_num":4,"L_den":5,"R_num":6,"R_den":10,"correct_side":1,"subjID":"JACOBO DÍAZ SEGURA 5","gender":"0","school":"4","age":"9"},{"start_time":1552313148060,"click_time":1552313150389,"finger_time":1552313149469,"fix_duration":1088.8191099366843,"trial":23,"RT":1409,"MT":920,"sideResp":2,"stimulus":[],"xmouse":[773,773,773,773,773,774,775,776,776,777,778,779,780,780,780,780,780,780,780,780,780,780,780,780,780,780,780,780,780,780,780,780,780,780,780,780,780,780,780,780,780,780,780,780,780,780,780,780,780,780,780,780,780,780,780,780,780,780,780,780,780,780,780,780,782,782,782,782,776,758,732,677,658,650,647,644,642,637,628,626,622,619,618,618,618,618,618,618,618,618,618,618,618,618,620,622,627,630,632,636,642,667,685,704,728,783,818,856,914,947,983,1029,1048,1063,1075,1085,1092],"ymouse":[644,644,644,644,644,644,643,643,643,642,642,641,640,640,640,640,640,640,640,640,640,640,640,640,640,640,640,640,640,640,640,640,640,640,640,640,640,640,640,640,640,640,640,640,640,640,640,640,640,640,640,640,640,640,640,640,640,640,640,640,640,640,640,640,638,633,629,618,606,585,559,515,503,498,495,485,471,453,426,413,400,386,383,381,379,373,372,371,371,371,371,371,371,371,370,368,367,366,365,362,360,351,346,341,334,314,299,284,260,244,226,197,183,165,143,118,79],"timestamp_mouse":[13,35,50,69,90,109,129,149,169,190,210,230,249,270,290,309,329,350,370,390,410,430,450,470,490,509,529,549,570,590,609,630,649,669,690,710,730,749,770,789,809,830,851,870,890,909,930,950,971,990,1009,1030,1049,1069,1089,1110,1129,1149,1169,1191,1209,1230,1249,1269,1289,1310,1329,1349,1370,1389,1409,1429,1451,1470,1489,1510,1529,1551,1569,1589,1610,1630,1649,1669,1689,1710,1729,1749,1769,1790,1809,1830,1850,1870,1889,1909,1929,1950,1970,1990,2011,2030,2049,2070,2089,2110,2129,2151,2170,2189,2209,2229,2249,2269,2290,2310,2329],"xSR":741.5,"ySR":573.95,"xT1":424.9,"yT1":0,"xT2":1058.1,"yT2":0,"toosoon":0,"cond_shown":"Congruent","ratio_trial":100,"L_num":6,"L_den":20,"R_num":5,"R_den":25,"correct_side":1,"subjID":"JACOBO DÍAZ SEGURA 5","gender":"0","school":"4","age":"9"},{"start_time":1552313152684,"click_time":1552313154289,"finger_time":1552313153989,"fix_duration":712.4380922028001,"trial":24,"RT":1305,"MT":300,"sideResp":1,"stimulus":[],"xmouse":[815,815,815,815,815,815,815,815,815,815,815,815,815,815,815,815,815,815,815,815,815,815,815,815,815,815,815,815,815,815,815,815,815,815,815,815,815,815,815,815,815,815,815,815,815,815,815,815,815,815,815,815,815,815,815,815,815,815,815,815,815,815,815,813,809,777,760,741,728,717,703,694,683,668,653,620,594,569,538,511,464],"ymouse":[589,589,589,589,589,589,589,589,589,589,589,589,589,589,589,589,589,589,589,589,589,589,589,589,589,589,589,589,589,589,589,589,589,589,589,589,589,589,589,589,589,589,589,589,589,589,589,589,589,589,589,589,589,589,589,589,589,589,589,589,589,589,589,589,587,568,556,544,534,525,509,495,476,452,424,364,317,272,221,176,96],"timestamp_mouse":[13,33,50,66,86,106,125,145,166,186,205,225,246,267,286,306,326,346,366,386,406,426,446,465,486,506,527,545,566,585,606,626,646,665,686,706,726,746,765,786,806,826,845,866,885,906,926,946,965,986,1006,1026,1045,1066,1085,1106,1126,1145,1165,1185,1205,1225,1245,1265,1285,1305,1325,1345,1366,1386,1405,1425,1445,1466,1486,1505,1525,1545,1565,1585,1605],"xSR":741.5,"ySR":573.95,"xT1":424.9,"yT1":0,"xT2":1058.1,"yT2":0,"toosoon":0,"cond_shown":"Congruent","ratio_trial":100,"L_num":10,"L_den":25,"R_num":3,"R_den":10,"correct_side":1,"subjID":"JACOBO DÍAZ SEGURA 5","gender":"0","school":"4","age":"9"},{"start_time":1552313165384,"click_time":1552313166689,"finger_time":1552313166470,"fix_duration":1093.2522087679174,"trial":25,"RT":1086,"MT":219,"sideResp":1,"stimulus":[],"xmouse":[794,794,794,794,794,794,794,794,794,794,794,794,794,794,794,794,794,794,794,794,794,794,794,793,793,793,793,793,793,793,793,793,793,793,793,793,793,793,793,793,793,794,795,799,801,804,805,807,807,808,808,808,810,810,810,809,807,787,766,744,719,691,602,565,527,496],"ymouse":[627,627,627,627,627,627,627,627,627,627,627,627,627,627,627,627,627,627,627,627,627,627,627,627,627,627,627,627,627,627,627,627,627,627,627,627,627,627,627,627,627,627,626,623,621,618,617,613,611,610,608,606,596,592,570,553,531,463,412,366,319,273,154,106,61,19],"timestamp_mouse":[14,26,47,65,86,106,125,146,165,186,205,225,245,266,286,306,325,346,366,385,405,425,445,466,486,505,525,546,565,586,606,626,645,666,685,705,726,746,766,786,806,825,845,866,885,905,925,945,966,986,1005,1026,1045,1066,1086,1106,1125,1145,1166,1185,1205,1226,1245,1266,1285,1305],"xSR":741.5,"ySR":573.95,"xT1":424.9,"yT1":0,"xT2":1058.1,"yT2":0,"toosoon":0,"cond_shown":"Incongruent","ratio_trial":100,"L_num":9,"L_den":10,"R_num":20,"R_den":25,"correct_side":1,"subjID":"JACOBO DÍAZ SEGURA 5","gender":"0","school":"4","age":"9"},{"start_time":1552313171767,"click_time":1552313173389,"finger_time":1552313172990,"fix_duration":1094.339668534514,"trial":26,"RT":1223,"MT":399,"sideResp":1,"stimulus":[],"xmouse":[774,774,774,774,774,774,774,774,774,774,774,774,774,774,774,773,773,773,773,773,773,773,773,773,773,773,773,773,773,773,773,773,773,773,773,773,773,773,773,773,773,773,773,773,773,773,773,773,773,773,773,773,773,773,771,770,768,766,764,752,744,731,720,698,684,672,661,649,625,615,598,586,576,566,551,548,545,542,539,531,525,523],"ymouse":[622,622,622,622,622,622,622,622,622,622,622,622,622,622,622,622,622,622,622,622,622,622,622,622,622,622,622,622,622,622,622,622,622,622,622,622,622,622,622,622,622,622,622,622,622,622,622,622,622,622,622,622,622,622,622,621,620,619,618,604,595,579,565,534,516,498,483,465,421,398,360,337,312,286,237,215,193,173,153,120,100,90],"timestamp_mouse":[12,32,43,62,84,102,123,143,163,183,203,223,243,262,283,303,322,342,362,383,403,422,443,462,483,503,522,543,563,582,602,623,643,662,683,703,723,743,763,783,803,822,843,863,883,904,923,943,963,982,1002,1023,1042,1063,1082,1102,1122,1142,1162,1182,1202,1223,1243,1263,1283,1302,1323,1343,1363,1382,1403,1422,1442,1462,1482,1502,1522,1543,1563,1582,1602,1622],"xSR":741.5,"ySR":573.95,"xT1":424.9,"yT1":0,"xT2":1058.1,"yT2":0,"toosoon":0,"cond_shown":"Incongruent","ratio_trial":200,"L_num":7,"L_den":10,"R_num":12,"R_den":24,"correct_side":1,"subjID":"JACOBO DÍAZ SEGURA 5","gender":"0","school":"4","age":"9"},{"start_time":1552313175717,"click_time":1552313177530,"finger_time":1552313176789,"fix_duration":864.0126294806947,"trial":27,"RT":1072,"MT":741,"sideResp":1,"stimulus":[],"xmouse":[796,796,796,796,797,797,797,797,797,797,797,797,797,797,797,797,797,797,797,797,797,797,797,797,797,797,797,797,797,797,797,797,798,798,798,798,798,798,798,798,798,799,799,799,799,799,799,799,799,799,798,797,797,796,795,794,793,791,791,789,788,783,781,777,771,763,744,732,720,705,672,552,516,501,498,499,499,499,499,499,498,489,487,487,487,487,487,486,483,481,481],"ymouse":[621,621,621,621,621,621,621,621,621,621,621,621,621,621,621,621,621,621,621,621,621,621,621,621,621,621,621,621,621,621,621,621,621,621,621,621,621,621,621,621,621,614,610,606,604,601,598,596,593,590,587,579,575,573,569,566,560,557,553,549,547,535,532,524,515,501,470,450,429,404,362,219,174,147,136,131,130,130,130,128,124,112,111,110,110,110,110,107,103,100,99],"timestamp_mouse":[12,32,58,72,92,112,132,154,173,193,212,232,252,272,293,312,333,353,372,393,413,432,453,473,492,512,533,553,572,592,613,632,653,672,693,712,733,752,773,792,812,833,853,873,892,913,932,952,973,992,1012,1032,1052,1072,1093,1114,1132,1152,1173,1192,1212,1232,1253,1272,1292,1314,1332,1352,1373,1392,1413,1432,1454,1472,1492,1514,1533,1553,1573,1592,1613,1632,1653,1673,1692,1713,1732,1752,1772,1792,1812],"xSR":741.5,"ySR":573.95,"xT1":424.9,"yT1":0,"xT2":1058.1,"yT2":0,"toosoon":0,"cond_shown":"Congruent","ratio_trial":200,"L_num":21,"L_den":30,"R_num":2,"R_den":4,"correct_side":1,"subjID":"JACOBO DÍAZ SEGURA 5","gender":"0","school":"4","age":"9"},{"start_time":1552313180440,"click_time":1552313181770,"finger_time":1552313181250,"fix_duration":966.8270140110915,"trial":28,"RT":810,"MT":520,"sideResp":2,"stimulus":[],"xmouse":[777,777,777,777,777,777,777,777,777,777,777,777,777,777,777,777,777,777,777,777,777,777,777,777,777,777,777,777,777,777,777,777,777,777,778,784,792,802,813,822,844,852,857,863,869,883,895,910,925,940,951,971,981,993,1011,1019,1037,1046,1057,1067,1089,1099,1110,1119,1127,1130,1134],"ymouse":[601,603,604,604,604,604,604,604,604,604,604,604,604,604,604,604,604,604,604,604,604,604,604,604,604,604,604,604,604,604,604,605,605,606,606,607,608,608,608,608,608,608,608,606,603,593,583,572,561,546,528,488,468,447,414,394,355,336,316,298,257,234,207,176,129,103,66],"timestamp_mouse":[9,38,50,69,89,109,129,149,170,189,210,230,249,269,290,309,330,349,369,390,410,430,450,469,489,509,530,550,570,589,609,629,649,669,689,709,729,749,769,790,810,830,849,869,890,910,929,951,970,989,1010,1029,1049,1069,1089,1110,1129,1149,1170,1190,1210,1229,1250,1270,1290,1310,1330],"xSR":741.5,"ySR":573.95,"xT1":424.9,"yT1":0,"xT2":1058.1,"yT2":0,"toosoon":0,"cond_shown":"Congruent","ratio_trial":200,"L_num":3,"L_den":6,"R_num":14,"R_den":20,"correct_side":2,"subjID":"JACOBO DÍAZ SEGURA 5","gender":"0","school":"4","age":"9"},{"start_time":1552313183681,"click_time":1552313185869,"finger_time":1552313185450,"fix_duration":689.9639840985308,"trial":29,"RT":1769,"MT":419,"sideResp":1,"stimulus":[],"xmouse":[830,830,829,829,829,829,829,829,829,829,829,829,829,829,829,829,829,828,828,828,828,828,828,828,828,828,828,828,828,828,828,828,828,828,828,828,828,828,828,828,828,828,828,828,828,828,828,828,828,828,828,828,828,828,828,828,828,828,827,827,826,826,825,824,824,823,823,822,822,822,820,818,814,809,800,796,796,796,796,795,795,795,795,795,790,779,765,749,731,689,643,617,590,573,549,542,537,536,536,536,533,531,527,523,516,513,511,508,503,495],"ymouse":[646,646,646,646,646,646,646,646,646,646,646,646,646,646,646,646,646,646,646,646,646,646,646,646,646,646,646,646,646,646,646,646,646,646,646,646,646,646,646,646,646,646,646,646,646,646,646,646,646,646,646,646,646,646,646,646,646,646,646,645,645,645,645,644,644,643,643,643,643,643,642,642,639,637,633,631,631,631,631,631,631,631,631,631,628,617,600,583,566,521,472,444,417,395,358,345,335,329,324,312,294,278,259,238,196,175,156,136,115,82],"timestamp_mouse":[12,31,49,68,88,108,129,148,168,188,208,228,248,268,289,308,329,348,368,389,409,428,449,468,488,508,530,549,569,588,610,629,649,668,689,708,729,749,768,788,808,829,849,868,888,909,929,948,969,989,1008,1029,1048,1068,1089,1109,1128,1148,1168,1189,1208,1228,1248,1268,1288,1308,1328,1348,1369,1388,1408,1429,1449,1469,1488,1509,1529,1548,1569,1589,1609,1629,1648,1669,1688,1708,1729,1749,1769,1788,1808,1828,1848,1868,1888,1909,1928,1948,1968,1988,2008,2028,2049,2068,2089,2109,2129,2148,2168,2188],"xSR":741.5,"ySR":573.95,"xT1":424.9,"yT1":0,"xT2":1058.1,"yT2":0,"toosoon":0,"cond_shown":"Incongruent","ratio_trial":300,"L_num":13,"L_den":26,"R_num":12,"R_den":15,"correct_side":2,"subjID":"JACOBO DÍAZ SEGURA 5","gender":"0","school":"4","age":"9"},{"start_time":1552313188499,"click_time":1552313189790,"finger_time":1552313189429,"fix_duration":1227.6073703048298,"trial":30,"RT":930,"MT":361,"sideResp":2,"stimulus":[],"xmouse":[786,786,786,786,786,786,786,786,786,786,786,786,786,786,786,786,786,786,786,786,786,786,786,786,786,786,786,786,786,786,786,786,786,786,786,786,786,786,786,786,786,786,786,788,797,822,879,921,984,1004,1020,1032,1042,1063,1077,1088,1102,1122,1140,1143,1146,1147,1147,1147,1147],"ymouse":[615,615,615,615,615,615,615,615,615,615,615,615,615,615,615,615,615,615,615,615,615,615,615,615,615,615,615,615,615,615,615,615,615,615,615,615,615,615,615,615,615,615,615,615,611,602,585,573,543,527,511,491,474,437,413,388,356,304,237,208,179,154,131,102,91],"timestamp_mouse":[10,40,51,71,90,110,130,150,171,191,211,231,251,270,291,311,331,350,370,391,411,430,450,471,491,511,531,551,570,591,611,631,651,672,690,710,731,751,771,790,810,831,850,870,890,911,930,950,970,990,1010,1031,1050,1070,1090,1112,1130,1150,1170,1191,1210,1231,1250,1270,1291],"xSR":741.5,"ySR":573.95,"xT1":424.9,"yT1":0,"xT2":1058.1,"yT2":0,"toosoon":0,"cond_shown":"Congruent","ratio_trial":300,"L_num":7,"L_den":14,"R_num":20,"R_den":25,"correct_side":2,"subjID":"JACOBO DÍAZ SEGURA 5","gender":"0","school":"4","age":"9"},{"start_time":1552313191829,"click_time":1552313193690,"finger_time":1552313193389,"fix_duration":518.8736893316851,"trial":31,"RT":1560,"MT":301,"sideResp":2,"stimulus":[],"xmouse":[791,791,791,791,791,791,791,791,791,791,791,791,791,791,791,791,791,791,791,791,791,791,791,791,791,791,791,791,791,791,791,791,791,791,791,791,791,791,791,791,791,791,791,791,791,791,791,791,791,791,791,791,791,791,791,791,791,791,791,791,791,791,791,791,792,792,793,793,793,794,795,797,802,808,812,817,824,834,869,877,899,913,944,965,989,1015,1031,1044,1075,1080,1089,1094,1097,1105],"ymouse":[625,625,625,625,625,625,625,625,625,625,625,625,625,625,625,625,625,625,625,625,625,625,625,625,625,625,625,625,625,625,625,625,625,625,625,625,625,625,625,625,625,625,625,625,625,625,625,625,625,625,625,625,625,625,625,625,625,625,625,625,625,625,625,625,624,624,624,624,624,623,623,622,619,615,612,608,602,593,565,557,533,517,473,436,384,319,267,224,148,138,117,107,100,85],"timestamp_mouse":[10,21,40,61,81,100,120,141,160,180,201,221,240,260,281,301,322,341,361,381,400,420,442,461,480,501,521,541,561,581,600,621,640,661,680,701,721,741,761,780,800,821,841,860,881,901,921,940,960,981,1001,1020,1041,1060,1081,1102,1120,1141,1161,1181,1201,1221,1241,1260,1280,1301,1320,1340,1361,1381,1401,1421,1441,1460,1481,1501,1520,1541,1560,1581,1600,1621,1642,1660,1681,1700,1721,1742,1760,1781,1800,1821,1840,1861],"xSR":741.5,"ySR":573.95,"xT1":424.9,"yT1":0,"xT2":1058.1,"yT2":0,"toosoon":0,"cond_shown":"Incongruent","ratio_trial":200,"L_num":1,"L_den":3,"R_num":2,"R_den":15,"correct_side":1,"subjID":"JACOBO DÍAZ SEGURA 5","gender":"0","school":"4","age":"9"},{"start_time":1552313196445,"click_time":1552313198189,"finger_time":1552313197789,"fix_duration":1253.653472044716,"trial":32,"RT":1344,"MT":400,"sideResp":1,"stimulus":[],"xmouse":[810,810,810,810,810,809,808,807,807,807,807,807,807,807,807,807,807,807,807,806,806,806,806,806,806,806,806,806,806,806,806,806,806,806,806,806,806,806,806,806,806,806,806,806,806,806,806,806,806,805,805,805,805,805,805,805,805,805,805,805,805,805,805,805,803,799,786,728,681,636,603,573,547,538,536,530,523,509,505,503,502,499,496,495,493,492,491,488],"ymouse":[606,606,606,606,607,608,608,609,609,609,609,609,609,609,609,609,609,609,609,609,609,610,610,610,610,610,610,610,610,610,610,610,610,610,610,610,610,610,610,610,610,610,610,610,610,610,610,610,610,610,610,610,610,610,610,610,610,610,610,610,610,610,610,610,610,607,599,562,528,493,459,420,369,338,328,306,286,234,215,197,182,168,145,135,126,118,110,94],"timestamp_mouse":[13,25,45,65,85,105,124,144,164,185,204,225,244,264,285,305,326,345,364,385,404,425,445,464,484,505,525,544,565,584,604,625,644,665,685,705,725,745,764,785,805,824,845,865,884,904,925,944,964,984,1004,1025,1045,1065,1084,1104,1125,1144,1164,1184,1205,1224,1244,1264,1285,1304,1324,1344,1364,1384,1405,1425,1444,1465,1484,1504,1524,1544,1564,1584,1604,1625,1644,1664,1684,1704,1725,1744],"xSR":741.5,"ySR":573.95,"xT1":424.9,"yT1":0,"xT2":1058.1,"yT2":0,"toosoon":0,"cond_shown":"Incongruent","ratio_trial":200,"L_num":6,"L_den":20,"R_num":3,"R_den":6,"correct_side":2,"subjID":"JACOBO DÍAZ SEGURA 5","gender":"0","school":"4","age":"9"},{"start_time":1552313200015,"click_time":1552313202290,"finger_time":1552313201589,"fix_duration":424.27106555791295,"trial":33,"RT":1574,"MT":701,"sideResp":2,"stimulus":[],"xmouse":[800,800,800,800,800,800,800,800,800,800,800,800,800,800,800,800,800,800,800,800,800,800,800,800,799,799,799,799,799,799,799,799,799,799,799,799,799,799,799,799,799,799,799,799,799,799,799,799,799,800,801,802,803,805,806,808,809,810,812,813,814,814,815,816,817,819,821,822,824,826,827,828,829,831,832,834,836,838,842,844,846,848,851,854,866,873,881,893,910,921,930,939,947,964,971,977,985,992,997,1008,1012,1017,1023,1031,1035,1038,1041,1047,1051,1062,1068,1072,1077,1086],"ymouse":[600,600,600,600,600,600,600,600,600,600,600,600,600,600,600,600,601,601,601,601,601,601,602,602,603,603,603,603,603,603,603,603,604,604,604,604,604,604,604,604,604,604,604,604,604,604,604,604,604,604,604,604,605,605,605,605,605,605,606,606,606,606,606,606,606,606,606,606,606,606,605,605,605,604,603,602,601,600,598,597,597,595,594,592,585,579,573,562,542,528,512,498,483,452,438,421,403,374,356,319,303,285,268,239,226,213,202,186,175,149,135,120,102,71],"timestamp_mouse":[14,36,54,75,95,115,134,154,175,195,214,235,255,274,295,315,334,355,375,394,415,435,455,475,495,514,535,555,574,594,615,635,654,674,694,715,734,755,775,794,814,834,854,874,894,914,935,955,974,994,1014,1035,1055,1074,1094,1114,1134,1155,1175,1195,1214,1235,1255,1274,1294,1314,1334,1355,1374,1394,1414,1434,1455,1475,1494,1514,1534,1555,1574,1594,1614,1634,1655,1674,1694,1714,1735,1755,1775,1794,1815,1835,1855,1874,1894,1914,1934,1955,1974,1994,2014,2034,2054,2075,2094,2114,2134,2154,2175,2195,2214,2235,2254,2275],"xSR":741.5,"ySR":573.95,"xT1":424.9,"yT1":0,"xT2":1058.1,"yT2":0,"toosoon":0,"cond_shown":"Congruent","ratio_trial":100,"L_num":3,"L_den":20,"R_num":4,"R_den":16,"correct_side":2,"subjID":"JACOBO DÍAZ SEGURA 5","gender":"0","school":"4","age":"9"},{"start_time":1552313204742,"click_time":1552313206450,"finger_time":1552313206370,"fix_duration":950.2410737497893,"trial":34,"RT":1628,"MT":80,"sideResp":1,"stimulus":[],"xmouse":[807,807,807,807,807,807,807,807,807,807,807,807,807,807,807,807,807,807,807,807,807,807,807,807,807,807,807,807,807,807,807,807,807,807,807,807,807,807,807,807,807,807,807,807,807,807,807,807,807,807,807,807,807,807,807,807,807,807,807,807,807,807,807,807,807,807,807,807,807,807,807,807,807,807,807,807,807,807,807,806,792,750,691,588,550,520],"ymouse":[599,599,599,599,599,599,599,599,599,599,599,599,599,599,599,599,599,599,599,599,599,599,599,599,599,599,599,599,599,599,599,599,599,599,599,599,599,599,599,599,599,599,599,599,599,599,599,599,599,599,599,599,599,599,599,599,599,599,599,599,599,599,599,599,599,599,599,599,599,599,599,599,599,599,599,599,599,599,599,599,575,505,404,197,119,54],"timestamp_mouse":[12,32,48,68,88,107,127,148,168,187,207,227,248,268,287,307,327,348,367,388,407,428,447,467,489,508,527,548,568,587,607,628,647,667,687,707,727,748,768,787,807,828,847,868,888,908,928,948,968,988,1007,1028,1049,1068,1087,1108,1128,1148,1167,1188,1208,1228,1248,1267,1287,1307,1327,1348,1368,1387,1407,1428,1447,1468,1488,1508,1528,1548,1568,1587,1608,1628,1649,1667,1687,1708],"xSR":741.5,"ySR":573.95,"xT1":424.9,"yT1":0,"xT2":1058.1,"yT2":0,"toosoon":0,"cond_shown":"Congruent","ratio_trial":200,"L_num":4,"L_den":10,"R_num":3,"R_den":15,"correct_side":1,"subjID":"JACOBO DÍAZ SEGURA 5","gender":"0","school":"4","age":"9"},{"start_time":1552313208162,"click_time":1552313210009,"finger_time":1552313209249,"fix_duration":250,"trial":35,"RT":1087,"MT":760,"sideResp":2,"stimulus":[],"xmouse":[775,775,775,775,775,775,776,777,779,780,780,780,780,780,781,781,781,781,781,781,781,781,781,781,781,782,783,783,783,783,783,784,784,784,784,784,784,786,787,788,789,790,792,795,798,802,807,813,825,829,831,833,834,838,847,854,860,868,882,888,895,901,909,923,935,945,955,967,989,1000,1010,1019,1025,1034,1038,1040,1042,1045,1051,1052,1054,1055,1056,1056,1056,1056,1056,1057,1062,1065,1068,1070,1071],"ymouse":[629,629,629,629,628,628,627,626,625,624,624,624,624,624,623,623,623,623,623,623,622,622,622,622,622,622,622,622,622,621,621,621,621,621,621,621,621,620,619,619,618,617,616,614,612,609,606,601,595,592,591,590,589,585,575,565,556,545,523,512,499,487,474,444,415,391,369,342,288,262,239,217,198,165,158,154,148,141,127,122,116,114,113,113,113,113,113,112,107,105,102,100,98],"timestamp_mouse":[9,38,47,67,88,108,127,148,168,188,207,227,248,267,287,308,327,348,367,388,408,428,447,468,487,507,528,548,567,588,607,628,648,667,687,708,727,748,767,788,807,828,848,867,887,907,927,948,967,987,1008,1028,1048,1067,1087,1107,1127,1147,1167,1188,1207,1227,1248,1267,1287,1307,1328,1348,1368,1387,1408,1427,1447,1467,1489,1507,1527,1548,1567,1587,1607,1627,1648,1667,1688,1707,1728,1748,1767,1787,1807,1828,1847],"xSR":741.5,"ySR":573.95,"xT1":424.9,"yT1":0,"xT2":1058.1,"yT2":0,"toosoon":0,"cond_shown":"Congruent","ratio_trial":300,"L_num":1,"L_den":5,"R_num":6,"R_den":12,"correct_side":2,"subjID":"JACOBO DÍAZ SEGURA 5","gender":"0","school":"4","age":"9"},{"start_time":1552313212569,"click_time":1552313214730,"finger_time":1552313214029,"fix_duration":1078.6026566071362,"trial":36,"RT":1460,"MT":701,"sideResp":1,"stimulus":[],"xmouse":[785,785,785,785,785,785,785,785,785,785,785,785,785,785,785,785,785,785,785,785,785,785,785,785,785,785,785,785,785,785,785,785,785,785,785,785,785,785,785,785,785,785,785,785,785,785,785,785,785,785,785,785,785,785,785,785,785,785,785,785,785,785,785,785,785,785,785,785,785,785,785,781,768,698,632,565,490,427,354,344,340,340,340,342,343,345,347,352,356,364,371,380,382,393,397,400,403,404,406,407,411,413,414,416,418,419,420,422,425],"ymouse":[627,627,627,627,627,627,627,627,627,627,627,627,627,627,627,627,627,627,627,627,627,627,627,627,627,627,627,627,627,627,627,627,627,627,627,627,627,627,627,627,627,627,627,627,627,627,627,627,627,627,627,627,627,627,627,627,627,627,627,627,627,627,627,627,627,627,627,627,627,627,627,625,611,566,528,488,447,400,347,336,327,319,312,288,277,265,254,243,232,215,206,190,185,156,143,133,123,115,104,98,92,90,89,88,87,86,86,84,83],"timestamp_mouse":[2,20,41,60,80,100,120,140,160,181,201,220,240,260,280,300,320,341,360,380,400,420,440,460,481,500,520,540,561,581,600,620,641,661,681,701,720,741,760,781,800,821,840,860,880,901,921,941,960,980,1000,1021,1040,1060,1081,1101,1121,1141,1160,1180,1202,1221,1241,1261,1280,1300,1321,1341,1361,1381,1401,1420,1441,1460,1480,1500,1521,1541,1561,1580,1600,1620,1641,1661,1680,1701,1721,1740,1760,1781,1801,1820,1840,1861,1880,1900,1921,1941,1961,1980,2001,2021,2040,2060,2080,2101,2120,2140,2161],"xSR":741.5,"ySR":573.95,"xT1":424.9,"yT1":0,"xT2":1058.1,"yT2":0,"toosoon":0,"cond_shown":"Incongruent","ratio_trial":300,"L_num":7,"L_den":10,"R_num":8,"R_den":20,"correct_side":1,"subjID":"JACOBO DÍAZ SEGURA 5","gender":"0","school":"4","age":"9"},{"start_time":1552313216282,"click_time":1552313218069,"finger_time":1552313217749,"fix_duration":250,"trial":37,"RT":1467,"MT":320,"sideResp":1,"stimulus":[],"xmouse":[782,782,782,780,779,779,778,777,777,776,776,774,774,774,774,774,774,774,774,774,774,774,774,774,774,774,774,774,774,774,774,774,774,774,774,774,774,774,774,774,774,774,774,774,774,774,774,774,774,774,774,774,774,774,774,774,774,774,774,774,774,774,774,774,774,774,774,774,774,774,773,767,764,737,727,700,679,651,581,557,545,538,525,513,498,494,490,489,486,486],"ymouse":[618,618,618,619,619,619,619,620,620,620,620,621,621,621,621,621,621,621,621,621,621,621,621,621,621,621,621,621,621,621,621,621,621,621,621,621,621,621,621,621,621,621,621,621,621,621,621,621,621,621,621,621,621,621,621,621,621,621,621,621,621,621,621,621,621,621,621,621,621,621,621,612,604,535,517,467,430,384,283,250,232,218,196,178,154,141,131,121,102,96],"timestamp_mouse":[11,27,47,68,88,107,128,148,168,187,208,227,248,267,287,308,327,347,367,388,407,428,447,468,487,507,529,547,568,587,607,627,648,668,688,708,728,748,767,788,808,827,848,868,888,908,927,948,968,987,1008,1027,1047,1068,1087,1108,1127,1147,1168,1188,1207,1227,1247,1268,1287,1307,1328,1349,1367,1387,1408,1427,1447,1467,1487,1507,1527,1547,1567,1587,1608,1627,1649,1667,1687,1707,1727,1747,1768,1787],"xSR":741.5,"ySR":573.95,"xT1":424.9,"yT1":0,"xT2":1058.1,"yT2":0,"toosoon":0,"cond_shown":"Incongruent","ratio_trial":100,"L_num":17,"L_den":30,"R_num":10,"R_den":15,"correct_side":2,"subjID":"JACOBO DÍAZ SEGURA 5","gender":"0","school":"4","age":"9"},{"start_time":1552313222423,"click_time":1552313224629,"finger_time":1552313223910,"fix_duration":1412.741846215537,"trial":38,"RT":1487,"MT":719,"sideResp":2,"stimulus":[],"xmouse":[813,808,802,795,794,793,793,793,793,793,793,793,793,793,793,793,793,793,793,793,793,793,793,793,793,793,793,793,793,793,793,793,793,793,793,793,793,793,793,793,793,793,793,793,793,793,793,793,793,793,793,793,793,793,793,793,793,793,793,793,793,793,793,793,793,793,793,793,794,795,796,802,821,829,841,847,852,860,863,865,867,873,876,879,889,900,912,937,951,959,963,966,974,977,982,986,995,1001,1007,1012,1017,1023,1033,1041,1043,1045,1053,1055,1057,1058,1059],"ymouse":[622,621,619,617,617,617,617,617,617,617,617,617,617,617,617,617,617,617,617,617,617,617,617,617,617,617,617,617,617,617,617,617,617,617,617,617,617,617,617,617,617,617,617,617,617,617,617,617,617,617,617,617,617,617,617,617,617,617,617,617,617,617,617,617,617,617,617,616,616,614,613,606,586,577,562,555,548,537,532,526,521,511,504,498,479,461,439,385,348,313,286,262,227,215,200,189,161,146,133,122,113,104,90,83,81,79,74,73,72,71,71],"timestamp_mouse":[6,27,54,66,86,107,127,146,166,187,207,227,246,266,286,307,326,346,367,386,406,426,446,467,486,507,526,547,566,586,606,627,647,667,687,707,726,746,767,786,807,826,848,866,886,906,926,946,967,986,1006,1027,1047,1067,1086,1106,1127,1147,1167,1187,1206,1226,1247,1266,1286,1306,1327,1347,1366,1387,1407,1427,1446,1466,1487,1506,1528,1547,1567,1586,1607,1627,1646,1666,1686,1706,1726,1747,1766,1786,1806,1827,1846,1866,1886,1906,1928,1946,1966,1987,2006,2027,2046,2067,2086,2106,2127,2146,2167,2187,2206],"xSR":741.5,"ySR":573.95,"xT1":424.9,"yT1":0,"xT2":1058.1,"yT2":0,"toosoon":0,"cond_shown":"Incongruent","ratio_trial":100,"L_num":6,"L_den":10,"R_num":7,"R_den":14,"correct_side":1,"subjID":"JACOBO DÍAZ SEGURA 5","gender":"0","school":"4","age":"9"},{"start_time":1552313226568,"click_time":1552313228429,"finger_time":1552313227569,"fix_duration":656.8760908508367,"trial":39,"RT":1001,"MT":860,"sideResp":1,"stimulus":[],"xmouse":[782,782,782,782,783,783,783,783,783,783,783,783,783,783,783,783,783,783,783,783,783,783,783,783,783,783,783,783,783,783,783,783,783,783,783,783,783,783,783,783,783,782,781,779,773,757,752,750,746,742,730,720,707,695,685,661,652,645,638,634,623,620,616,611,606,594,592,589,587,584,580,578,576,574,573,567,559,548,537,529,521,521,521,521,521,521,521,521,521,521,521,521,515,498],"ymouse":[610,610,610,610,611,611,611,611,611,611,611,611,611,611,611,611,611,611,611,611,611,611,611,611,611,611,611,611,611,611,611,611,611,611,611,611,611,611,611,611,611,609,609,608,605,597,594,591,589,585,575,566,555,545,533,499,484,471,456,445,419,405,391,374,355,302,281,260,241,225,201,195,190,186,183,173,161,146,132,120,110,110,110,110,110,110,110,110,110,110,110,109,102,88],"timestamp_mouse":[9,30,41,62,81,101,121,141,161,181,201,222,242,261,282,302,321,342,362,383,402,422,441,461,481,501,522,542,561,581,601,621,641,661,682,702,721,742,761,782,802,821,842,862,881,901,921,941,962,982,1001,1022,1042,1061,1081,1102,1121,1141,1162,1182,1201,1222,1241,1262,1281,1301,1323,1342,1361,1382,1401,1422,1441,1461,1482,1501,1521,1541,1562,1583,1601,1623,1641,1662,1682,1702,1722,1742,1761,1783,1802,1821,1842,1861],"xSR":741.5,"ySR":573.95,"xT1":424.9,"yT1":0,"xT2":1058.1,"yT2":0,"toosoon":0,"cond_shown":"Incongruent","ratio_trial":200,"L_num":4,"L_den":5,"R_num":6,"R_den":10,"correct_side":1,"subjID":"JACOBO DÍAZ SEGURA 5","gender":"0","school":"4","age":"9"},{"start_time":1552313230242,"click_time":1552313232171,"finger_time":1552313231550,"fix_duration":250,"trial":40,"RT":1308,"MT":621,"sideResp":2,"stimulus":[],"xmouse":[782,782,782,782,782,782,782,782,782,782,782,782,782,782,782,782,782,782,782,782,782,782,782,782,782,782,782,782,782,782,782,782,782,782,782,782,782,782,782,782,782,782,782,782,782,782,782,782,782,782,782,784,784,785,785,787,788,789,791,792,795,806,814,822,833,842,860,872,883,900,913,936,945,956,965,974,996,1007,1017,1026,1036,1058,1065,1070,1075,1079,1086,1088,1091,1092,1094,1097,1097,1099,1100,1102,1105],"ymouse":[621,621,621,621,621,621,621,621,621,621,621,621,621,621,621,621,621,621,621,621,621,621,621,621,621,621,621,621,621,621,621,621,621,621,621,621,621,621,621,621,621,621,621,621,621,621,621,621,621,621,620,619,619,618,618,617,617,616,616,615,613,605,600,593,584,576,556,544,530,507,490,463,449,437,426,416,389,373,360,346,333,295,279,264,251,237,214,204,194,182,171,141,128,120,114,107,95],"timestamp_mouse":[12,31,48,67,88,107,127,147,167,188,209,227,248,267,287,307,327,348,368,387,408,427,448,467,487,508,528,547,567,587,608,627,647,667,688,707,728,747,769,787,807,828,847,867,887,907,928,947,967,988,1008,1028,1048,1067,1087,1109,1127,1147,1167,1188,1207,1227,1248,1268,1288,1308,1327,1347,1367,1388,1407,1427,1447,1467,1487,1508,1527,1547,1568,1587,1608,1627,1647,1667,1688,1707,1729,1747,1767,1787,1808,1828,1848,1867,1887,1908,1929],"xSR":741.5,"ySR":573.95,"xT1":424.9,"yT1":0,"xT2":1058.1,"yT2":0,"toosoon":0,"cond_shown":"Congruent","ratio_trial":200,"L_num":3,"L_den":12,"R_num":9,"R_den":20,"correct_side":2,"subjID":"JACOBO DÍAZ SEGURA 5","gender":"0","school":"4","age":"9"},{"start_time":1552313233642,"click_time":1552313235671,"finger_time":1552313235010,"fix_duration":252.9965532415115,"trial":41,"RT":1368,"MT":661,"sideResp":1,"stimulus":[],"xmouse":[788,788,788,788,788,788,788,788,788,788,788,788,788,788,788,788,788,788,788,788,788,788,788,788,788,788,788,788,788,788,788,788,788,788,788,788,788,788,788,788,787,787,787,787,787,787,786,785,785,785,785,785,784,782,781,781,778,777,776,775,774,774,774,774,774,770,761,750,731,718,707,699,690,687,685,680,675,660,653,645,641,633,629,625,623,618,615,606,599,595,588,581,568,564,561,561,561,561,560,560,552,509],"ymouse":[608,608,608,608,608,608,608,608,608,608,608,608,608,608,608,608,608,608,608,608,608,608,608,608,608,608,608,608,608,608,608,608,608,608,608,608,608,608,608,608,608,608,608,609,609,609,609,610,610,610,610,610,610,610,610,611,611,611,612,612,612,612,612,612,612,612,606,600,586,576,566,555,542,536,531,520,506,472,455,430,414,381,363,344,326,308,288,247,220,203,186,169,144,135,131,131,131,131,130,129,112,26],"timestamp_mouse":[9,28,47,68,87,108,127,147,168,188,208,227,248,268,288,308,327,347,368,388,407,427,448,468,488,507,527,547,568,588,608,627,648,668,687,708,729,748,767,787,807,827,848,867,888,907,928,947,968,987,1008,1028,1048,1068,1088,1107,1128,1147,1167,1188,1207,1228,1248,1268,1287,1307,1328,1347,1368,1387,1408,1429,1448,1468,1487,1507,1528,1547,1567,1587,1608,1629,1647,1667,1687,1707,1727,1747,1768,1787,1807,1827,1848,1868,1889,1907,1928,1948,1967,1987,2008,2028],"xSR":741.5,"ySR":573.95,"xT1":424.9,"yT1":0,"xT2":1058.1,"yT2":0,"toosoon":0,"cond_shown":"Congruent","ratio_trial":300,"L_num":11,"L_den":22,"R_num":1,"R_den":5,"correct_side":1,"subjID":"JACOBO DÍAZ SEGURA 5","gender":"0","school":"4","age":"9"},{"start_time":1552313238302,"click_time":1552313240329,"finger_time":1552313240010,"fix_duration":1130.9489545556914,"trial":42,"RT":1708,"MT":319,"sideResp":2,"stimulus":[],"xmouse":[801,801,801,801,801,801,801,801,800,800,800,800,799,799,799,799,799,798,798,798,798,798,797,797,797,797,796,796,796,796,796,796,796,796,796,796,796,796,796,796,796,796,796,796,796,796,796,796,796,796,796,796,796,796,796,796,796,796,796,796,796,796,796,796,796,796,796,796,796,796,796,796,796,796,796,796,796,796,796,796,796,796,797,803,827,855,861,864,868,872,883,893,913,930,970,986,1003,1021,1037,1058,1066,1072],"ymouse":[648,648,648,648,648,648,648,648,646,641,640,639,639,639,638,638,638,638,638,638,638,638,638,638,638,638,637,637,637,637,637,637,637,637,637,637,637,637,637,637,637,637,637,637,637,637,637,637,637,637,637,637,637,637,637,637,637,637,637,637,637,637,637,637,637,637,637,637,637,637,637,637,637,637,637,637,637,637,637,637,637,637,636,633,613,589,583,580,575,570,557,546,521,500,442,413,375,333,278,180,128,81],"timestamp_mouse":[19,35,47,67,87,107,128,147,167,187,208,227,248,268,287,307,327,347,367,387,407,428,447,467,487,508,528,547,567,587,608,628,648,667,688,708,728,748,768,787,807,828,847,867,888,908,928,948,967,987,1008,1028,1048,1068,1087,1109,1128,1147,1168,1188,1207,1228,1248,1267,1288,1307,1328,1347,1368,1387,1407,1427,1448,1467,1487,1508,1528,1547,1567,1588,1607,1627,1648,1668,1687,1708,1727,1748,1767,1788,1807,1827,1847,1867,1887,1907,1927,1948,1967,1987,2007,2027],"xSR":741.5,"ySR":573.95,"xT1":424.9,"yT1":0,"xT2":1058.1,"yT2":0,"toosoon":0,"cond_shown":"Incongruent","ratio_trial":100,"L_num":3,"L_den":5,"R_num":11,"R_den":22,"correct_side":1,"subjID":"JACOBO DÍAZ SEGURA 5","gender":"0","school":"4","age":"9"},{"start_time":1552313242796,"click_time":1552313244590,"finger_time":1552313244009,"fix_duration":926.2669898322143,"trial":43,"RT":1213,"MT":581,"sideResp":2,"stimulus":[],"xmouse":[808,808,808,808,808,808,808,808,808,808,808,808,808,808,808,808,808,808,808,808,808,808,808,808,808,808,808,808,808,808,808,808,808,808,808,808,808,808,808,808,808,808,808,808,808,808,808,808,808,808,809,810,812,814,815,822,827,830,831,835,852,861,871,879,891,928,947,963,981,998,1048,1088,1125,1154,1166,1173,1172,1167,1161,1155,1146,1145,1144,1144,1143,1143,1143,1142,1142,1139],"ymouse":[607,607,607,607,607,607,607,607,607,607,607,607,607,607,607,607,607,607,607,607,607,607,607,607,607,607,607,607,607,607,607,607,607,607,607,607,607,607,607,607,607,607,607,607,607,607,607,607,607,607,607,606,605,605,604,599,596,595,595,592,581,574,568,559,549,507,485,465,443,419,345,297,261,226,201,164,145,134,125,115,103,102,102,102,102,102,102,101,100,95],"timestamp_mouse":[13,38,53,74,95,114,134,153,174,193,214,233,254,273,293,313,335,353,374,395,414,434,453,474,494,513,534,554,574,594,614,634,653,674,694,714,734,754,774,794,814,833,854,873,893,914,934,953,974,995,1013,1034,1053,1073,1094,1113,1133,1154,1173,1194,1213,1234,1253,1273,1293,1313,1333,1354,1373,1394,1413,1434,1454,1474,1494,1513,1534,1553,1573,1593,1613,1634,1653,1674,1693,1713,1733,1754,1773,1794],"xSR":741.5,"ySR":573.95,"xT1":424.9,"yT1":0,"xT2":1058.1,"yT2":0,"toosoon":0,"cond_shown":"Congruent","ratio_trial":300,"L_num":2,"L_den":10,"R_num":12,"R_den":24,"correct_side":2,"subjID":"JACOBO DÍAZ SEGURA 5","gender":"0","school":"4","age":"9"},{"start_time":1552313246084,"click_time":1552313248010,"finger_time":1552313247369,"fix_duration":254.53063035379398,"trial":44,"RT":1285,"MT":641,"sideResp":1,"stimulus":[],"xmouse":[770,771,771,772,772,772,774,774,775,775,776,778,778,778,778,778,779,779,779,779,779,779,779,779,779,779,779,779,779,779,779,779,779,779,779,779,779,779,779,779,779,779,779,779,779,779,779,779,779,779,779,779,779,779,779,779,779,779,779,779,779,768,757,744,725,700,651,636,630,627,626,626,626,626,626,626,624,619,616,613,607,591,584,579,573,567,561,561,560,558,556,551,547,541,534,527,517],"ymouse":[657,656,656,656,656,656,655,654,654,654,653,653,653,653,653,653,652,652,652,652,652,652,652,652,652,652,652,652,652,652,652,652,652,652,652,652,652,652,652,652,652,652,652,652,652,652,652,652,652,652,652,652,652,652,652,652,652,652,652,652,651,631,617,604,591,573,535,521,512,505,498,480,470,458,443,427,409,370,350,330,308,260,243,231,219,207,195,191,186,182,176,163,154,145,133,121,97],"timestamp_mouse":[5,26,46,66,86,106,126,145,165,186,206,225,247,266,286,306,326,345,366,385,406,425,446,466,485,505,526,545,566,586,605,625,646,666,685,706,725,746,766,785,805,826,845,865,886,905,926,945,966,986,1005,1026,1045,1065,1086,1106,1126,1146,1166,1186,1205,1225,1245,1266,1285,1306,1325,1345,1365,1385,1405,1426,1445,1465,1486,1505,1525,1546,1565,1585,1606,1626,1645,1666,1686,1705,1725,1746,1765,1786,1805,1825,1845,1865,1885,1906,1926],"xSR":741.5,"ySR":573.95,"xT1":424.9,"yT1":0,"xT2":1058.1,"yT2":0,"toosoon":0,"cond_shown":"Congruent","ratio_trial":300,"L_num":11,"L_den":22,"R_num":2,"R_den":10,"correct_side":1,"subjID":"JACOBO DÍAZ SEGURA 5","gender":"0","school":"4","age":"9"},{"start_time":1552313249904,"click_time":1552313251869,"finger_time":1552313251189,"fix_duration":393.53548802731075,"trial":45,"RT":1285,"MT":680,"sideResp":2,"stimulus":[],"xmouse":[778,778,778,778,778,778,778,778,778,778,778,778,778,778,778,778,778,778,778,778,778,778,778,778,778,778,778,778,778,778,778,778,778,778,778,778,778,778,778,778,778,778,778,778,778,778,778,778,778,778,778,778,778,778,779,779,779,781,782,784,787,804,816,831,847,880,895,915,927,940,965,974,984,992,1001,1008,1021,1025,1030,1033,1038,1039,1041,1044,1047,1053,1064,1070,1072,1074,1077,1079,1080,1081,1083,1084,1087,1089,1089],"ymouse":[625,625,625,625,625,625,625,625,625,625,625,625,625,625,625,625,625,625,625,625,625,625,625,625,625,625,625,625,625,625,625,625,625,625,625,625,625,625,625,625,625,625,625,625,625,625,625,625,625,625,625,625,625,625,625,625,624,624,623,622,620,611,604,595,584,560,545,517,500,484,449,433,418,406,392,379,349,335,316,305,285,278,272,264,255,243,207,181,167,155,142,138,134,128,123,116,106,100,99],"timestamp_mouse":[11,34,45,65,86,106,126,145,165,186,205,226,245,265,286,305,326,346,367,386,406,426,445,465,485,506,525,546,565,585,606,625,646,666,685,706,726,745,765,786,805,826,846,866,886,906,926,946,965,985,1005,1026,1045,1066,1085,1105,1125,1145,1165,1185,1206,1226,1245,1265,1285,1307,1325,1346,1365,1385,1406,1425,1446,1465,1486,1505,1525,1545,1565,1585,1606,1624,1646,1665,1685,1705,1725,1745,1765,1785,1806,1825,1845,1865,1886,1906,1925,1946,1965],"xSR":741.5,"ySR":573.95,"xT1":424.9,"yT1":0,"xT2":1058.1,"yT2":0,"toosoon":0,"cond_shown":"Congruent","ratio_trial":300,"L_num":1,"L_den":30,"R_num":8,"R_den":24,"correct_side":2,"subjID":"JACOBO DÍAZ SEGURA 5","gender":"0","school":"4","age":"9"},{"start_time":1552313253741,"click_time":1552313255330,"finger_time":1552313254910,"fix_duration":409.2693646677579,"trial":46,"RT":1169,"MT":420,"sideResp":2,"stimulus":[],"xmouse":[820,820,820,820,820,820,820,820,820,820,820,820,820,820,820,820,820,820,820,820,820,820,820,820,820,820,820,820,820,820,820,820,820,820,820,820,820,820,820,820,820,820,82