[{"start_time":1552308593588,"click_time":1552308598761,"finger_time":1552308598260,"fix_duration":1042.0522804593847,"trial":0,"RT":4672,"MT":501,"sideResp":1,"stimulus":[],"xmouse":[781,781,781,781,781,781,781,781,781,781,781,781,781,781,781,781,781,781,781,781,781,781,781,781,781,781,781,781,781,781,781,781,781,781,781,781,781,781,781,781,781,781,781,781,781,781,781,781,781,781,781,781,781,781,781,781,781,781,781,781,781,781,781,781,781,781,781,781,781,781,781,781,781,781,781,781,781,781,781,781,781,781,781,781,781,781,781,781,781,781,781,781,781,781,781,781,781,781,781,781,781,781,781,781,781,781,781,781,781,783,784,786,790,792,792,792,792,792,792,792,792,792,792,792,792,792,792,792,792,792,794,797,801,805,807,810,815,820,826,826,826,826,826,826,826,826,826,826,826,826,826,826,826,826,826,826,826,826,826,826,826,826,826,826,826,826,826,826,826,826,826,826,826,826,825,822,820,818,814,810,806,799,793,786,786,786,786,786,786,786,786,786,786,786,786,786,786,786,786,786,786,786,786,786,786,786,786,786,786,786,786,786,786,786,786,786,786,786,786,786,786,786,786,786,786,786,786,786,786,786,786,784,781,719,593,552,499,496,490,481,474,466,461,457,457,459,465,469,477,481,485,489,493,494,497,497,496,495,494],"ymouse":[488,488,488,488,488,488,488,488,488,488,488,488,488,488,488,488,488,488,488,488,488,488,488,488,488,488,488,488,488,488,488,488,488,488,488,488,488,488,488,488,488,488,488,488,488,488,488,488,488,488,488,488,488,488,488,488,488,488,488,488,488,488,488,488,488,488,488,488,488,488,488,488,488,488,488,488,488,488,488,488,488,488,488,488,488,488,488,488,488,488,488,488,488,488,488,488,488,488,488,488,488,488,488,488,488,488,488,488,486,482,482,482,482,482,482,482,482,482,482,482,482,482,482,482,482,482,482,482,482,482,484,489,493,497,501,508,520,528,537,537,537,537,537,537,537,537,537,537,537,537,537,537,537,537,537,537,537,537,537,537,537,537,537,537,537,537,537,537,537,537,537,537,537,537,536,534,532,532,529,526,522,516,511,505,505,505,505,505,505,505,505,505,505,505,505,505,505,505,505,505,505,505,505,505,505,505,505,505,505,505,505,505,505,505,505,505,505,505,505,505,505,505,505,505,505,505,505,505,505,505,505,504,504,522,525,525,505,501,472,453,441,421,400,360,332,323,297,283,252,238,225,212,186,173,159,147,125,112,94],"timestamp_mouse":[13,44,53,72,93,114,134,153,172,193,213,232,253,274,292,313,333,353,372,393,412,432,452,472,492,513,533,554,572,593,612,634,653,674,693,714,733,752,772,793,813,834,853,874,893,912,933,954,974,993,1013,1032,1053,1072,1092,1114,1134,1154,1173,1192,1213,1233,1254,1274,1292,1312,1333,1353,1372,1393,1414,1433,1454,1474,1494,1513,1532,1552,1574,1592,1614,1633,1653,1673,1693,1714,1732,1752,1774,1792,1812,1833,1853,1872,1892,1912,1934,1952,1972,1993,2013,2033,2053,2072,2093,2113,2134,2154,2172,2194,2213,2233,2252,2272,2293,2312,2334,2354,2372,2393,2414,2432,2452,2474,2494,2513,2534,2553,2573,2592,2612,2632,2653,2672,2693,2712,2732,2753,2774,2792,2812,2834,2852,2874,2893,2912,2933,2953,2972,2993,3012,3033,3054,3073,3092,3114,3132,3152,3173,3192,3213,3232,3254,3273,3293,3314,3334,3354,3372,3392,3414,3432,3452,3472,3494,3512,3533,3553,3573,3592,3612,3633,3652,3672,3692,3712,3733,3753,3774,3793,3814,3833,3852,3873,3894,3912,3932,3952,3972,3993,4014,4033,4052,4073,4093,4114,4133,4154,4173,4194,4213,4232,4253,4274,4293,4312,4332,4353,4373,4392,4413,4432,4453,4474,4494,4512,4534,4554,4574,4593,4613,4632,4652,4672,4694,4713,4732,4752,4773,4792,4813,4834,4853,4873,4893,4913,4932,4952,4973,4993,5014,5033,5054,5072,5093,5112,5133,5152,5172],"xSR":741.5,"ySR":469.95,"xT1":424.9,"yT1":0,"xT2":1058.1,"yT2":0,"toosoon":0,"cond_shown":"Congruent","ratio_trial":300,"L_num":24,"L_den":30,"R_num":8,"R_den":16,"correct_side":1,"subjID":"Jesusbitrago13","gender":"0","age":"10","school":"4","test":{"fix_dur":[250,1500],"timestim":1000,"targets_dim":[100,100],"targets_relative_coord":[0.3,0.7],"size_stim":[880,420],"start_dim":[100,100],"size_start":[300,300],"size_fix":60,"samplingrate":20,"img_types":["Congruent","Incongruent"],"ratios":[100,200,300],"rep_conds":19,"nTrials":120,"trials_to_rest":500,"Trials_order":[76,44,95,50,15,63,38,9,30,0,18,98,103,89,104,60,58,100,66,112,23,29,42,55,32,62,68,69,51,35,75,92,5,39,115,1,20,72,94,70,84,107,34,46,21,59,86,102,13,12,53,49,33,37,52,25,106,110,41,6,90,16,105,116,109,45,57,117,65,79,7,101,19,77,22,31,67,118,78,71,56,48,91,28,17,111,96,40,73,87,93,80,47,83,4,43,81,11,24,61,97,27,88,26,99,54,85,108,82,2,64,10,113,119,3,74,8,36,14,114],"cond_shown":["Congruent","Congruent","Incongruent","Congruent","Incongruent","Incongruent","Congruent","Incongruent","Congruent","Congruent","Congruent","Congruent","Incongruent","Incongruent","Congruent","Congruent","Congruent","Congruent","Congruent","Congruent","Incongruent","Incongruent","Congruent","Incongruent","Congruent","Congruent","Congruent","Incongruent","Incongruent","Incongruent","Incongruent","Congruent","Incongruent","Incongruent","Incongruent","Incongruent","Congruent","Congruent","Congruent","Congruent","Congruent","Incongruent","Congruent","Congruent","Incongruent","Incongruent","Congruent","Congruent","Incongruent","Congruent","Incongruent","Incongruent","Incongruent","Incongruent","Congruent","Incongruent","Congruent","Congruent","Incongruent","Congruent","Congruent","Congruent","Incongruent","Congruent","Incongruent","Incongruent","Incongruent","Incongruent","Incongruent","Incongruent","Incongruent","Incongruent","Incongruent","Incongruent","Congruent","Incongruent","Incongruent","Congruent","Congruent","Incongruent","Congruent","Congruent","Incongruent","Congruent","Incongruent","Incongruent","Congruent","Congruent","Incongruent","Incongruent","Incongruent","Congruent","Incongruent","Incongruent","Congruent","Incongruent","Incongruent","Incongruent","Congruent","Incongruent","Incongruent","Incongruent","Congruent","Congruent","Incongruent","Congruent","Incongruent","Congruent","Congruent","Congruent","Congruent","Congruent","Incongruent","Incongruent","Incongruent","Congruent","Congruent","Congruent","Congruent","Congruent"],"ratio_trial":[300,200,300,200,200,200,200,200,100,100,100,200,100,300,200,100,300,300,100,300,300,300,100,100,200,200,200,200,200,300,200,200,300,200,100,100,200,100,300,300,100,300,300,300,200,300,200,100,100,100,300,100,200,100,300,100,300,200,300,100,100,300,200,200,100,200,200,200,300,100,100,300,100,300,300,100,100,300,100,300,200,100,100,300,300,200,100,300,100,200,200,200,300,300,300,100,200,300,100,100,100,200,300,200,200,100,100,100,300,200,300,300,300,300,200,200,200,100,200,100],"left_num":[24,20,1,9,11,1,12,4,10,1,8,3,4,4,13,4,20,20,10,18,4,3,9,13,16,9,6,7,7,13,1,20,13,11,10,8,4,15,20,2,7,13,1,1,7,4,5,9,17,6,7,2,4,13,4,10,2,11,3,11,15,1,7,3,12,9,6,14,4,11,10,1,9,4,9,3,17,12,3,13,7,1,2,11,13,7,7,20,1,7,1,8,4,4,4,13,4,13,10,4,13,6,1,7,3,12,10,12,3,13,2,11,13,4,3,12,9,10,7,1],"right_num":[8,9,2,13,3,2,6,1,3,3,2,11,8,2,14,6,13,14,3,9,8,4,8,12,12,4,11,6,4,12,3,9,12,3,8,6,3,13,14,12,15,12,19,3,14,2,14,8,10,15,8,6,1,6,2,8,10,3,4,4,13,6,4,9,9,8,3,6,8,9,9,2,6,8,3,11,10,2,2,12,2,18,8,1,12,14,15,9,8,8,2,7,8,2,1,6,6,12,3,8,12,3,19,18,11,13,8,13,11,14,12,1,12,2,11,6,13,3,18,18],"left_den":[30,25,2,30,20,3,20,30,25,2,16,10,8,20,26,8,25,25,25,20,5,6,15,26,20,20,20,15,15,26,2,25,26,20,25,16,8,25,25,10,14,26,3,5,10,20,10,15,30,12,10,4,30,26,5,25,20,22,6,22,25,5,15,12,24,15,20,30,5,22,25,2,18,5,10,5,30,24,6,26,21,2,4,22,26,10,14,25,2,10,3,15,5,20,10,26,5,26,25,8,26,20,3,15,4,30,25,30,12,26,10,22,26,20,4,20,30,25,15,2],"right_den":[16,15,10,26,4,15,15,3,10,5,5,22,20,4,20,10,26,28,10,15,16,20,16,20,20,16,22,9,6,15,10,15,15,4,16,10,10,26,28,24,25,15,30,6,28,4,20,16,15,25,20,15,3,10,4,16,25,10,20,10,26,12,6,20,15,10,6,9,16,15,18,10,10,16,5,22,15,10,5,15,15,30,20,5,15,28,25,18,20,16,15,21,16,4,10,10,10,15,10,20,20,6,30,27,20,26,16,26,20,20,24,5,15,4,20,15,26,10,27,30],"correct_side":[1,1,1,2,2,1,1,2,1,2,1,2,1,2,2,2,1,1,1,1,1,1,1,2,1,1,2,2,2,2,1,1,2,2,2,2,1,1,1,2,2,2,2,2,1,2,2,1,2,2,1,1,2,2,1,2,2,1,1,1,1,2,2,2,2,2,2,2,1,2,2,1,2,1,1,1,2,1,1,2,1,2,1,1,2,1,2,1,1,1,1,1,1,2,1,2,1,2,1,1,2,2,2,2,1,2,2,2,2,2,2,1,2,2,1,1,2,1,2,2],"img_shown":["img2/300/Congruent/L/C_Dist_300_LN_24_LD_30_RN_8_RD_16_0.png","img2/200/Congruent/L/C_Dist_200_LN_20_LD_25_RN_9_RD_15_0.png","img2/300/Incongruent/L/I_Dist_300_LN_1_LD_2_RN_2_RD_10_0.png","img2/200/Congruent/R/C_Dist_200_LN_9_LD_30_RN_13_RD_26_1.png","img2/200/Incongruent/R/I_Dist_200_LN_11_LD_20_RN_3_RD_4_1.png","img2/200/Incongruent/L/I_Dist_200_LN_1_LD_3_RN_2_RD_15_0.png","img2/200/Congruent/L/C_Dist_200_LN_12_LD_20_RN_6_RD_15_0.png","img2/200/Incongruent/R/I_Dist_200_LN_4_LD_30_RN_1_RD_3_1.png","img2/100/Congruent/L/C_Dist_100_LN_10_LD_25_RN_3_RD_10_0.png","img2/100/Congruent/R/C_Dist_100_LN_1_LD_2_RN_3_RD_5_1.png","img2/100/Congruent/L/C_Dist_100_LN_8_LD_16_RN_2_RD_5_0.png","img2/200/Congruent/R/C_Dist_200_LN_3_LD_10_RN_11_RD_22_1.png","img2/100/Incongruent/L/I_Dist_100_LN_4_LD_8_RN_8_RD_20_0.png","img2/300/Incongruent/R/I_Dist_300_LN_4_LD_20_RN_2_RD_4_1.png","img2/200/Congruent/R/C_Dist_200_LN_13_LD_26_RN_14_RD_20_1.png","img2/100/Congruent/R/C_Dist_100_LN_4_LD_8_RN_6_RD_10_1.png","img2/300/Congruent/L/C_Dist_300_LN_20_LD_25_RN_13_RD_26_0.png","img2/300/Congruent/L/C_Dist_300_LN_20_LD_25_RN_14_RD_28_0.png","img2/100/Congruent/L/C_Dist_100_LN_10_LD_25_RN_3_RD_10_0.png","img2/300/Congruent/L/C_Dist_300_LN_18_LD_20_RN_9_RD_15_0.png","img2/300/Incongruent/L/I_Dist_300_LN_4_LD_5_RN_8_RD_16_0.png","img2/300/Incongruent/L/I_Dist_300_LN_3_LD_6_RN_4_RD_20_0.png","img2/100/Congruent/L/C_Dist_100_LN_9_LD_15_RN_8_RD_16_0.png","img2/100/Incongruent/R/I_Dist_100_LN_13_LD_26_RN_12_RD_20_1.png","img2/200/Congruent/L/C_Dist_200_LN_16_LD_20_RN_12_RD_20_0.png","img2/200/Congruent/L/C_Dist_200_LN_9_LD_20_RN_4_RD_16_0.png","img2/200/Congruent/R/C_Dist_200_LN_6_LD_20_RN_11_RD_22_1.png","img2/200/Incongruent/R/I_Dist_200_LN_7_LD_15_RN_6_RD_9_1.png","img2/200/Incongruent/R/I_Dist_200_LN_7_LD_15_RN_4_RD_6_1.png","img2/300/Incongruent/R/I_Dist_300_LN_13_LD_26_RN_12_RD_15_1.png","img2/200/Incongruent/L/I_Dist_200_LN_1_LD_2_RN_3_RD_10_0.png","img2/200/Congruent/L/C_Dist_200_LN_20_LD_25_RN_9_RD_15_0.png","img2/300/Incongruent/R/I_Dist_300_LN_13_LD_26_RN_12_RD_15_1.png","img2/200/Incongruent/R/I_Dist_200_LN_11_LD_20_RN_3_RD_4_1.png","img2/100/Incongruent/R/I_Dist_100_LN_10_LD_25_RN_8_RD_16_1.png","img2/100/Incongruent/R/I_Dist_100_LN_8_LD_16_RN_6_RD_10_1.png","img2/200/Congruent/L/C_Dist_200_LN_4_LD_8_RN_3_RD_10_0.png","img2/100/Congruent/L/C_Dist_100_LN_15_LD_25_RN_13_RD_26_0.png","img2/300/Congruent/L/C_Dist_300_LN_20_LD_25_RN_14_RD_28_0.png","img2/300/Congruent/R/C_Dist_300_LN_2_LD_10_RN_12_RD_24_1.png","img2/100/Congruent/R/C_Dist_100_LN_7_LD_14_RN_15_RD_25_1.png","img2/300/Incongruent/R/I_Dist_300_LN_13_LD_26_RN_12_RD_15_1.png","img2/300/Congruent/R/C_Dist_300_LN_1_LD_3_RN_19_RD_30_1.png","img2/300/Congruent/R/C_Dist_300_LN_1_LD_5_RN_3_RD_6_1.png","img2/200/Incongruent/L/I_Dist_200_LN_7_LD_10_RN_14_RD_28_0.png","img2/300/Incongruent/R/I_Dist_300_LN_4_LD_20_RN_2_RD_4_1.png","img2/200/Congruent/R/C_Dist_200_LN_5_LD_10_RN_14_RD_20_1.png","img2/100/Congruent/L/C_Dist_100_LN_9_LD_15_RN_8_RD_16_0.png","img2/100/Incongruent/R/I_Dist_100_LN_17_LD_30_RN_10_RD_15_1.png","img2/100/Congruent/R/C_Dist_100_LN_6_LD_12_RN_15_RD_25_1.png","img2/300/Incongruent/L/I_Dist_300_LN_7_LD_10_RN_8_RD_20_0.png","img2/100/Incongruent/L/I_Dist_100_LN_2_LD_4_RN_6_RD_15_0.png","img2/200/Incongruent/R/I_Dist_200_LN_4_LD_30_RN_1_RD_3_1.png","img2/100/Incongruent/R/I_Dist_100_LN_13_LD_26_RN_6_RD_10_1.png","img2/300/Congruent/L/C_Dist_300_LN_4_LD_5_RN_2_RD_4_0.png","img2/100/Incongruent/R/I_Dist_100_LN_10_LD_25_RN_8_RD_16_1.png","img2/300/Congruent/R/C_Dist_300_LN_2_LD_20_RN_10_RD_25_1.png","img2/200/Congruent/L/C_Dist_200_LN_11_LD_22_RN_3_RD_10_0.png","img2/300/Incongruent/L/I_Dist_300_LN_3_LD_6_RN_4_RD_20_0.png","img2/100/Congruent/L/C_Dist_100_LN_11_LD_22_RN_4_RD_10_0.png","img2/100/Congruent/L/C_Dist_100_LN_15_LD_25_RN_13_RD_26_0.png","img2/300/Congruent/R/C_Dist_300_LN_1_LD_5_RN_6_RD_12_1.png","img2/200/Incongruent/R/I_Dist_200_LN_7_LD_15_RN_4_RD_6_1.png","img2/200/Congruent/R/C_Dist_200_LN_3_LD_12_RN_9_RD_20_1.png","img2/100/Incongruent/R/I_Dist_100_LN_12_LD_24_RN_9_RD_15_1.png","img2/200/Incongruent/R/I_Dist_200_LN_9_LD_15_RN_8_RD_10_1.png","img2/200/Incongruent/R/I_Dist_200_LN_6_LD_20_RN_3_RD_6_1.png","img2/200/Incongruent/R/I_Dist_200_LN_14_LD_30_RN_6_RD_9_1.png","img2/300/Incongruent/L/I_Dist_300_LN_4_LD_5_RN_8_RD_16_0.png","img2/100/Incongruent/R/I_Dist_100_LN_11_LD_22_RN_9_RD_15_1.png","img2/100/Incongruent/R/I_Dist_100_LN_10_LD_25_RN_9_RD_18_1.png","img2/300/Incongruent/L/I_Dist_300_LN_1_LD_2_RN_2_RD_10_0.png","img2/100/Incongruent/R/I_Dist_100_LN_9_LD_18_RN_6_RD_10_1.png","img2/300/Incongruent/L/I_Dist_300_LN_4_LD_5_RN_8_RD_16_0.png","img2/300/Congruent/L/C_Dist_300_LN_9_LD_10_RN_3_RD_5_0.png","img2/100/Incongruent/L/I_Dist_100_LN_3_LD_5_RN_11_RD_22_0.png","img2/100/Incongruent/R/I_Dist_100_LN_17_LD_30_RN_10_RD_15_1.png","img2/300/Congruent/L/C_Dist_300_LN_12_LD_24_RN_2_RD_10_0.png","img2/100/Congruent/L/C_Dist_100_LN_3_LD_6_RN_2_RD_5_0.png","img2/300/Incongruent/R/I_Dist_300_LN_13_LD_26_RN_12_RD_15_1.png","img2/200/Congruent/L/C_Dist_200_LN_7_LD_21_RN_2_RD_15_0.png","img2/100/Congruent/R/C_Dist_100_LN_1_LD_2_RN_18_RD_30_1.png","img2/100/Incongruent/L/I_Dist_100_LN_2_LD_4_RN_8_RD_20_0.png","img2/300/Congruent/L/C_Dist_300_LN_11_LD_22_RN_1_RD_5_0.png","img2/300/Incongruent/R/I_Dist_300_LN_13_LD_26_RN_12_RD_15_1.png","img2/200/Incongruent/L/I_Dist_200_LN_7_LD_10_RN_14_RD_28_0.png","img2/100/Congruent/R/C_Dist_100_LN_7_LD_14_RN_15_RD_25_1.png","img2/300/Congruent/L/C_Dist_300_LN_20_LD_25_RN_9_RD_18_0.png","img2/100/Incongruent/L/I_Dist_100_LN_1_LD_2_RN_8_RD_20_0.png","img2/200/Incongruent/L/I_Dist_200_LN_7_LD_10_RN_8_RD_16_0.png","img2/200/Incongruent/L/I_Dist_200_LN_1_LD_3_RN_2_RD_15_0.png","img2/200/Congruent/L/C_Dist_200_LN_8_LD_15_RN_7_RD_21_0.png","img2/300/Incongruent/L/I_Dist_300_LN_4_LD_5_RN_8_RD_16_0.png","img2/300/Incongruent/R/I_Dist_300_LN_4_LD_20_RN_2_RD_4_1.png","img2/300/Congruent/L/C_Dist_300_LN_4_LD_10_RN_1_RD_10_0.png","img2/100/Incongruent/R/I_Dist_100_LN_13_LD_26_RN_6_RD_10_1.png","img2/200/Incongruent/L/I_Dist_200_LN_4_LD_5_RN_6_RD_10_0.png","img2/300/Incongruent/R/I_Dist_300_LN_13_LD_26_RN_12_RD_15_1.png","img2/100/Congruent/L/C_Dist_100_LN_10_LD_25_RN_3_RD_10_0.png","img2/100/Incongruent/L/I_Dist_100_LN_4_LD_8_RN_8_RD_20_0.png","img2/100/Incongruent/R/I_Dist_100_LN_13_LD_26_RN_12_RD_20_1.png","img2/200/Incongruent/R/I_Dist_200_LN_6_LD_20_RN_3_RD_6_1.png","img2/300/Congruent/R/C_Dist_300_LN_1_LD_3_RN_19_RD_30_1.png","img2/200/Congruent/R/C_Dist_200_LN_7_LD_15_RN_18_RD_27_1.png","img2/200/Incongruent/L/I_Dist_200_LN_3_LD_4_RN_11_RD_20_0.png","img2/100/Congruent/R/C_Dist_100_LN_12_LD_30_RN_13_RD_26_1.png","img2/100/Incongruent/R/I_Dist_100_LN_10_LD_25_RN_8_RD_16_1.png","img2/100/Congruent/R/C_Dist_100_LN_12_LD_30_RN_13_RD_26_1.png","img2/300/Congruent/R/C_Dist_300_LN_3_LD_12_RN_11_RD_20_1.png","img2/200/Congruent/R/C_Dist_200_LN_13_LD_26_RN_14_RD_20_1.png","img2/300/Congruent/R/C_Dist_300_LN_2_LD_10_RN_12_RD_24_1.png","img2/300/Congruent/L/C_Dist_300_LN_11_LD_22_RN_1_RD_5_0.png","img2/300/Incongruent/R/I_Dist_300_LN_13_LD_26_RN_12_RD_15_1.png","img2/300/Incongruent/R/I_Dist_300_LN_4_LD_20_RN_2_RD_4_1.png","img2/200/Incongruent/L/I_Dist_200_LN_3_LD_4_RN_11_RD_20_0.png","img2/200/Congruent/L/C_Dist_200_LN_12_LD_20_RN_6_RD_15_0.png","img2/200/Congruent/R/C_Dist_200_LN_9_LD_30_RN_13_RD_26_1.png","img2/100/Congruent/L/C_Dist_100_LN_10_LD_25_RN_3_RD_10_0.png","img2/200/Congruent/R/C_Dist_200_LN_7_LD_15_RN_18_RD_27_1.png","img2/100/Congruent/R/C_Dist_100_LN_1_LD_2_RN_18_RD_30_1.png"],"dist100_C":[["C_Dist_100_LN_10_LD_25_RN_3_RD_10_0.png","C_Dist_100_LN_11_LD_22_RN_4_RD_10_0.png","C_Dist_100_LN_11_LD_22_RN_6_RD_15_0.png","C_Dist_100_LN_15_LD_25_RN_13_RD_26_0.png","C_Dist_100_LN_3_LD_6_RN_2_RD_5_0.png","C_Dist_100_LN_6_LD_20_RN_5_RD_25_0.png","C_Dist_100_LN_8_LD_16_RN_2_RD_5_0.png","C_Dist_100_LN_9_LD_15_RN_8_RD_16_0.png"],["C_Dist_100_LN_1_LD_2_RN_18_RD_30_1.png","C_Dist_100_LN_1_LD_2_RN_3_RD_5_1.png","C_Dist_100_LN_12_LD_30_RN_13_RD_26_1.png","C_Dist_100_LN_2_LD_5_RN_11_RD_22_1.png","C_Dist_100_LN_2_LD_5_RN_6_RD_12_1.png","C_Dist_100_LN_3_LD_20_RN_4_RD_16_1.png","C_Dist_100_LN_4_LD_10_RN_15_RD_30_1.png","C_Dist_100_LN_4_LD_8_RN_6_RD_10_1.png","C_Dist_100_LN_6_LD_12_RN_15_RD_25_1.png","C_Dist_100_LN_7_LD_14_RN_15_RD_25_1.png","C_Dist_100_LN_7_LD_14_RN_9_RD_15_1.png"]],"dist100_I":[["I_Dist_100_LN_1_LD_2_RN_8_RD_20_0.png","I_Dist_100_LN_2_LD_4_RN_6_RD_15_0.png","I_Dist_100_LN_2_LD_4_RN_8_RD_20_0.png","I_Dist_100_LN_3_LD_5_RN_11_RD_22_0.png","I_Dist_100_LN_3_LD_5_RN_8_RD_16_0.png","I_Dist_100_LN_3_LD_6_RN_4_RD_10_0.png","I_Dist_100_LN_3_LD_9_RN_7_RD_30_0.png","I_Dist_100_LN_4_LD_8_RN_8_RD_20_0.png","I_Dist_100_LN_6_LD_10_RN_11_RD_22_0.png","I_Dist_100_LN_6_LD_10_RN_13_RD_26_0.png","I_Dist_100_LN_6_LD_10_RN_7_RD_14_0.png","I_Dist_100_LN_9_LD_10_RN_20_RD_25_0.png","I_Dist_100_LN_9_LD_15_RN_13_RD_26_0.png","I_Dist_100_LN_9_LD_15_RN_14_RD_28_0.png"],["I_Dist_100_LN_10_LD_25_RN_8_RD_16_1.png","I_Dist_100_LN_10_LD_25_RN_9_RD_18_1.png","I_Dist_100_LN_11_LD_22_RN_9_RD_15_1.png","I_Dist_100_LN_12_LD_24_RN_9_RD_15_1.png","I_Dist_100_LN_12_LD_30_RN_2_RD_4_1.png","I_Dist_100_LN_13_LD_26_RN_12_RD_20_1.png","I_Dist_100_LN_13_LD_26_RN_6_RD_10_1.png","I_Dist_100_LN_17_LD_30_RN_10_RD_15_1.png","I_Dist_100_LN_6_LD_12_RN_3_RD_5_1.png","I_Dist_100_LN_8_LD_16_RN_6_RD_10_1.png","I_Dist_100_LN_8_LD_20_RN_1_RD_2_1.png","I_Dist_100_LN_9_LD_18_RN_6_RD_10_1.png"]],"dist100_S":[["E_Dist_100_LN_2_LD_12_RN_2_RD_30_0.png","E_Dist_100_LN_6_LD_10_RN_6_RD_12_0.png"],["E_Dist_100_LN_6_LD_12_RN_6_RD_10_1.png"]],"dist200_C":[["C_Dist_200_LN_11_LD_22_RN_3_RD_10_0.png","C_Dist_200_LN_12_LD_15_RN_6_RD_10_0.png","C_Dist_200_LN_12_LD_20_RN_6_RD_15_0.png","C_Dist_200_LN_14_LD_28_RN_6_RD_20_0.png","C_Dist_200_LN_15_LD_25_RN_4_RD_10_0.png","C_Dist_200_LN_16_LD_20_RN_12_RD_20_0.png","C_Dist_200_LN_16_LD_30_RN_9_RD_27_0.png","C_Dist_200_LN_20_LD_25_RN_9_RD_15_0.png","C_Dist_200_LN_21_LD_30_RN_2_RD_4_0.png","C_Dist_200_LN_4_LD_10_RN_3_RD_15_0.png","C_Dist_200_LN_4_LD_8_RN_3_RD_10_0.png","C_Dist_200_LN_6_LD_15_RN_3_RD_15_0.png","C_Dist_200_LN_7_LD_21_RN_2_RD_15_0.png","C_Dist_200_LN_8_LD_15_RN_2_RD_6_0.png","C_Dist_200_LN_8_LD_15_RN_3_RD_9_0.png","C_Dist_200_LN_8_LD_15_RN_7_RD_21_0.png","C_Dist_200_LN_9_LD_20_RN_4_RD_16_0.png"],["C_Dist_200_LN_1_LD_2_RN_21_RD_30_1.png","C_Dist_200_LN_13_LD_26_RN_14_RD_20_1.png","C_Dist_200_LN_3_LD_10_RN_11_RD_22_1.png","C_Dist_200_LN_3_LD_10_RN_14_RD_28_1.png","C_Dist_200_LN_3_LD_10_RN_7_RD_14_1.png","C_Dist_200_LN_3_LD_12_RN_9_RD_20_1.png","C_Dist_200_LN_3_LD_6_RN_14_RD_20_1.png","C_Dist_200_LN_5_LD_10_RN_14_RD_20_1.png","C_Dist_200_LN_6_LD_12_RN_7_RD_10_1.png","C_Dist_200_LN_6_LD_20_RN_11_RD_22_1.png","C_Dist_200_LN_7_LD_15_RN_18_RD_27_1.png","C_Dist_200_LN_9_LD_30_RN_13_RD_26_1.png"]],"dist200_I":[["I_Dist_200_LN_1_LD_2_RN_3_RD_10_0.png","I_Dist_200_LN_1_LD_3_RN_2_RD_15_0.png","I_Dist_200_LN_3_LD_4_RN_11_RD_20_0.png","I_Dist_200_LN_4_LD_5_RN_6_RD_10_0.png","I_Dist_200_LN_4_LD_6_RN_14_RD_30_0.png","I_Dist_200_LN_7_LD_10_RN_12_RD_24_0.png","I_Dist_200_LN_7_LD_10_RN_14_RD_28_0.png","I_Dist_200_LN_7_LD_10_RN_8_RD_16_0.png"],["I_Dist_200_LN_11_LD_20_RN_3_RD_4_1.png","I_Dist_200_LN_14_LD_30_RN_12_RD_18_1.png","I_Dist_200_LN_14_LD_30_RN_6_RD_9_1.png","I_Dist_200_LN_3_LD_10_RN_1_RD_2_1.png","I_Dist_200_LN_4_LD_30_RN_1_RD_3_1.png","I_Dist_200_LN_6_LD_20_RN_3_RD_6_1.png","I_Dist_200_LN_7_LD_15_RN_4_RD_6_1.png","I_Dist_200_LN_7_LD_15_RN_6_RD_9_1.png","I_Dist_200_LN_9_LD_15_RN_8_RD_10_1.png"]],"dist200_S":[["E_Dist_200_LN_3_LD_6_RN_3_RD_10_0.png"],["E_Dist_200_LN_3_LD_10_RN_3_RD_6_1.png"]],"dist300_C":[["C_Dist_300_LN_11_LD_22_RN_1_RD_5_0.png","C_Dist_300_LN_11_LD_22_RN_2_RD_10_0.png","C_Dist_300_LN_11_LD_22_RN_4_RD_20_0.png","C_Dist_300_LN_12_LD_24_RN_2_RD_10_0.png","C_Dist_300_LN_18_LD_20_RN_9_RD_15_0.png","C_Dist_300_LN_20_LD_25_RN_13_RD_26_0.png","C_Dist_300_LN_20_LD_25_RN_14_RD_28_0.png","C_Dist_300_LN_20_LD_25_RN_5_RD_10_0.png","C_Dist_300_LN_20_LD_25_RN_8_RD_16_0.png","C_Dist_300_LN_20_LD_25_RN_9_RD_18_0.png","C_Dist_300_LN_24_LD_30_RN_2_RD_4_0.png","C_Dist_300_LN_24_LD_30_RN_8_RD_16_0.png","C_Dist_300_LN_3_LD_6_RN_2_RD_10_0.png","C_Dist_300_LN_4_LD_10_RN_1_RD_10_0.png","C_Dist_300_LN_4_LD_5_RN_2_RD_4_0.png","C_Dist_300_LN_8_LD_16_RN_1_RD_5_0.png","C_Dist_300_LN_9_LD_10_RN_3_RD_5_0.png"],["C_Dist_300_LN_1_LD_20_RN_7_RD_20_1.png","C_Dist_300_LN_1_LD_3_RN_19_RD_30_1.png","C_Dist_300_LN_1_LD_30_RN_8_RD_24_1.png","C_Dist_300_LN_1_LD_5_RN_11_RD_22_1.png","C_Dist_300_LN_1_LD_5_RN_3_RD_6_1.png","C_Dist_300_LN_1_LD_5_RN_6_RD_12_1.png","C_Dist_300_LN_2_LD_10_RN_12_RD_24_1.png","C_Dist_300_LN_2_LD_20_RN_10_RD_25_1.png","C_Dist_300_LN_3_LD_12_RN_11_RD_20_1.png","C_Dist_300_LN_3_LD_6_RN_4_RD_5_1.png","C_Dist_300_LN_4_LD_20_RN_13_RD_26_1.png","C_Dist_300_LN_5_LD_25_RN_6_RD_12_1.png","C_Dist_300_LN_5_LD_25_RN_7_RD_14_1.png","C_Dist_300_LN_7_LD_14_RN_20_RD_25_1.png","C_Dist_300_LN_8_LD_15_RN_10_RD_12_1.png"]],"dist300_I":[["I_Dist_300_LN_1_LD_2_RN_2_RD_10_0.png","I_Dist_300_LN_1_LD_2_RN_3_RD_15_0.png","I_Dist_300_LN_2_LD_4_RN_6_RD_30_0.png","I_Dist_300_LN_3_LD_6_RN_4_RD_20_0.png","I_Dist_300_LN_4_LD_5_RN_6_RD_12_0.png","I_Dist_300_LN_4_LD_5_RN_8_RD_16_0.png","I_Dist_300_LN_7_LD_10_RN_8_RD_20_0.png","I_Dist_300_LN_8_LD_10_RN_14_RD_28_0.png","I_Dist_300_LN_8_LD_10_RN_9_RD_18_0.png"],["I_Dist_300_LN_13_LD_26_RN_12_RD_15_1.png","I_Dist_300_LN_4_LD_20_RN_2_RD_4_1.png"]],"dist300_S":[["E_Dist_300_LN_9_LD_12_RN_9_RD_20_0.png"],["E_Dist_300_LN_18_LD_30_RN_18_RD_20_1.png","E_Dist_300_LN_3_LD_10_RN_3_RD_5_1.png","E_Dist_300_LN_9_LD_20_RN_9_RD_12_1.png"]],"dist500_C":[["C_Dist_500_LN_10_LD_13_RN_7_RD_26_0.png","C_Dist_500_LN_10_LD_15_RN_4_RD_24_0.png","C_Dist_500_LN_12_LD_16_RN_3_RD_12_0.png","C_Dist_500_LN_12_LD_18_RN_4_RD_24_0.png","C_Dist_500_LN_15_LD_18_RN_5_RD_15_0.png","C_Dist_500_LN_15_LD_20_RN_1_RD_4_0.png","C_Dist_500_LN_18_LD_27_RN_1_RD_6_0.png","C_Dist_500_LN_20_LD_24_RN_1_RD_3_0.png","C_Dist_500_LN_20_LD_24_RN_3_RD_9_0.png","C_Dist_500_LN_20_LD_24_RN_7_RD_21_0.png","C_Dist_500_LN_20_LD_28_RN_3_RD_14_0.png","C_Dist_500_LN_21_LD_28_RN_6_RD_24_0.png","C_Dist_500_LN_22_LD_28_RN_2_RD_7_0.png","C_Dist_500_LN_25_LD_30_RN_9_RD_27_0.png","C_Dist_500_LN_4_LD_6_RN_1_RD_6_0.png","C_Dist_500_LN_5_LD_6_RN_2_RD_6_0.png","C_Dist_500_LN_6_LD_9_RN_1_RD_6_0.png","C_Dist_500_LN_7_LD_10_RN_1_RD_5_0.png","C_Dist_500_LN_8_LD_12_RN_1_RD_6_0.png","C_Dist_500_LN_8_LD_12_RN_4_RD_24_0.png"],["C_Dist_500_LN_1_LD_4_RN_12_RD_16_1.png","C_Dist_500_LN_1_LD_4_RN_9_RD_12_1.png","C_Dist_500_LN_1_LD_9_RN_11_RD_18_1.png","C_Dist_500_LN_10_LD_24_RN_22_RD_24_1.png","C_Dist_500_LN_2_LD_12_RN_10_RD_15_1.png","C_Dist_500_LN_2_LD_12_RN_12_RD_18_1.png","C_Dist_500_LN_2_LD_12_RN_4_RD_6_1.png","C_Dist_500_LN_2_LD_24_RN_7_RD_12_1.png","C_Dist_500_LN_2_LD_5_RN_18_RD_20_1.png","C_Dist_500_LN_2_LD_5_RN_9_RD_10_1.png","C_Dist_500_LN_2_LD_8_RN_12_RD_16_1.png","C_Dist_500_LN_2_LD_8_RN_21_RD_28_1.png","C_Dist_500_LN_3_LD_10_RN_4_RD_5_1.png","C_Dist_500_LN_3_LD_12_RN_15_RD_20_1.png","C_Dist_500_LN_3_LD_30_RN_6_RD_10_1.png","C_Dist_500_LN_3_LD_8_RN_14_RD_16_1.png","C_Dist_500_LN_4_LD_16_RN_15_RD_20_1.png","C_Dist_500_LN_4_LD_24_RN_12_RD_18_1.png","C_Dist_500_LN_5_LD_14_RN_6_RD_7_1.png","C_Dist_500_LN_7_LD_21_RN_20_RD_24_1.png","C_Dist_500_LN_7_LD_28_RN_12_RD_16_1.png","C_Dist_500_LN_7_LD_28_RN_9_RD_12_1.png","C_Dist_500_LN_9_LD_27_RN_20_RD_24_1.png"]],"dist500_I":[["I_Dist_500_LN_2_LD_3_RN_4_RD_24_0.png","I_Dist_500_LN_5_LD_6_RN_6_RD_18_0.png","I_Dist_500_LN_7_LD_8_RN_9_RD_24_0.png"],["I_Dist_500_LN_7_LD_21_RN_5_RD_6_1.png"]],"dist500_S":[["E_Dist_500_LN_6_LD_8_RN_6_RD_24_0.png"],["E_Dist_500_LN_2_LD_12_RN_2_RD_3_1.png","E_Dist_500_LN_6_LD_24_RN_6_RD_8_1.png"]]}},{"start_time":1552308603658,"click_time":1552308605624,"finger_time":1552308605084,"fix_duration":1336.67013165168,"trial":1,"RT":1426,"MT":540,"sideResp":1,"stimulus":[],"xmouse":[788,788,788,788,788,788,788,788,788,788,788,788,788,788,788,788,788,788,788,788,788,788,788,788,788,788,788,788,788,788,788,788,788,788,788,788,788,788,788,788,788,788,788,788,788,788,788,788,788,788,788,788,788,788,788,788,788,788,788,788,788,788,788,788,788,788,788,788,788,786,769,762,756,756,755,755,757,757,757,757,757,746,732,708,696,676,669,665,660,656,645,637,628,609,594,563,549,534,519],"ymouse":[535,535,535,535,535,535,535,535,535,535,535,535,535,535,535,535,535,535,535,535,535,535,535,535,535,535,535,535,535,535,535,535,535,535,535,535,535,535,535,535,535,535,535,535,535,535,535,535,535,535,535,535,535,535,535,535,535,535,535,535,535,535,535,535,535,535,535,535,533,520,473,462,454,452,449,444,433,415,397,372,313,282,248,204,184,155,148,140,134,127,114,106,100,85,74,51,42,32,23],"timestamp_mouse":[9,23,42,65,83,103,122,143,162,182,204,222,243,263,282,302,326,346,367,386,406,426,445,465,487,505,526,546,566,585,605,626,646,666,685,706,726,746,766,787,807,825,845,866,886,907,925,946,967,985,1005,1025,1045,1066,1085,1105,1126,1146,1166,1186,1206,1225,1247,1265,1285,1306,1325,1346,1365,1387,1405,1426,1445,1465,1487,1505,1525,1545,1565,1586,1605,1626,1645,1667,1686,1706,1725,1745,1765,1786,1805,1825,1846,1865,1886,1905,1926,1945,1965],"xSR":741.5,"ySR":469.95,"xT1":424.9,"yT1":0,"xT2":1058.1,"yT2":0,"toosoon":0,"cond_shown":"Congruent","ratio_trial":200,"L_num":20,"L_den":25,"R_num":9,"R_den":15,"correct_side":1,"subjID":"Jesusbitrago13","gender":"0","school":"4","age":"10"},{"start_time":1552308608518,"click_time":1552308611244,"finger_time":1552308610285,"fix_duration":1334.2361735599532,"trial":2,"RT":1767,"MT":959,"sideResp":2,"stimulus":[],"xmouse":[811,811,811,811,811,811,811,811,811,811,811,811,811,811,811,811,811,811,811,811,811,811,811,811,811,811,811,811,811,811,811,811,811,811,811,811,811,811,811,811,811,811,811,811,811,811,811,811,811,811,811,811,811,811,811,811,811,811,811,811,811,811,811,811,811,811,811,811,811,811,811,811,811,811,811,811,811,811,808,806,806,806,806,806,806,806,806,806,807,808,810,811,816,820,823,828,831,843,850,856,869,882,888,894,899,902,912,913,915,916,918,921,926,930,933,937,944,946,948,949,950,951,953,957,960,964,968,973,976,980,988,996,1018,1031,1041,1050,1060],"ymouse":[501,501,501,501,501,501,501,501,501,501,501,501,501,501,501,501,501,501,501,501,501,501,501,501,501,501,501,501,501,501,501,501,501,501,501,501,501,501,501,501,501,501,501,501,501,501,501,501,501,501,501,501,501,501,501,501,501,501,501,501,501,501,501,501,501,501,501,501,501,501,501,501,501,501,501,501,501,499,496,494,494,494,494,494,494,493,491,478,466,458,447,437,419,409,400,389,378,359,348,339,330,320,314,303,293,286,275,272,266,262,259,250,239,231,224,212,196,191,187,184,182,179,176,172,169,165,160,154,150,146,140,134,117,107,101,94,88],"timestamp_mouse":[10,25,48,65,85,106,126,147,165,185,205,225,246,267,286,305,325,345,365,385,406,426,445,465,486,506,525,547,566,585,606,625,645,667,686,705,726,747,766,786,806,825,847,866,886,907,927,945,966,986,1006,1026,1045,1066,1087,1106,1125,1146,1165,1185,1207,1227,1246,1266,1286,1307,1326,1345,1366,1385,1406,1426,1445,1465,1486,1506,1525,1545,1566,1586,1605,1626,1647,1667,1685,1705,1725,1745,1767,1786,1806,1825,1845,1865,1885,1906,1925,1945,1965,1985,2006,2027,2045,2065,2086,2106,2127,2145,2166,2185,2205,2225,2245,2265,2286,2306,2327,2345,2365,2386,2406,2427,2445,2465,2485,2505,2526,2545,2565,2587,2605,2625,2645,2665,2686,2705,2726],"xSR":741.5,"ySR":469.95,"xT1":424.9,"yT1":0,"xT2":1058.1,"yT2":0,"toosoon":0,"cond_shown":"Incongruent","ratio_trial":300,"L_num":1,"L_den":2,"R_num":2,"R_den":10,"correct_side":1,"subjID":"Jesusbitrago13","gender":"0","school":"4","age":"10"},{"start_time":1552308613187,"click_time":1552308614463,"finger_time":1552308613663,"fix_duration":701.8374393139803,"trial":3,"RT":476,"MT":800,"sideResp":1,"stimulus":[],"xmouse":[812,812,812,812,812,812,812,812,812,812,812,812,812,812,812,812,812,812,808,801,798,793,790,774,757,752,737,731,718,716,710,705,697,680,671,664,659,646,641,637,632,630,629,629,629,629,629,629,629,629,629,625,619,602,581,574,560,550,548,546,546,541,534,510],"ymouse":[519,519,519,519,519,519,519,519,519,519,519,519,519,519,519,519,519,519,517,510,505,496,491,469,443,436,415,405,382,379,370,361,346,321,304,293,285,269,262,257,252,248,247,246,246,246,246,246,246,246,244,232,218,179,139,128,105,82,80,78,78,77,76,73],"timestamp_mouse":[18,38,70,76,97,116,137,156,176,196,216,237,258,277,297,316,338,357,376,396,416,436,456,476,497,517,537,557,581,596,617,636,657,676,698,716,736,758,776,796,816,837,857,878,897,916,936,957,976,996,1017,1037,1057,1076,1096,1116,1136,1158,1176,1197,1217,1237,1256,1276],"xSR":741.5,"ySR":469.95,"xT1":424.9,"yT1":0,"xT2":1058.1,"yT2":0,"toosoon":0,"cond_shown":"Congruent","ratio_trial":200,"L_num":9,"L_den":30,"R_num":13,"R_den":26,"correct_side":2,"subjID":"Jesusbitrago13","gender":"0","school":"4","age":"10"},{"start_time":1552308616961,"click_time":1552308618063,"finger_time":1552308617463,"fix_duration":976.4256832466282,"trial":4,"RT":502,"MT":600,"sideResp":1,"stimulus":[],"xmouse":[802,802,802,802,802,802,802,802,802,802,802,802,802,802,802,802,802,802,802,802,802,802,802,802,796,766,726,715,691,678,658,646,634,620,576,556,546,538,536,535,534,534,533,532,532,529,529,527,527,527,527,527,527,527,527,521],"ymouse":[511,511,511,511,511,511,511,511,511,511,511,511,511,511,511,511,511,511,511,511,511,511,511,511,499,452,395,380,345,328,297,280,263,240,172,144,128,116,110,108,105,105,103,102,101,100,100,100,100,100,100,100,100,100,100,97],"timestamp_mouse":[10,22,42,62,84,104,122,143,163,182,203,222,242,263,282,302,324,343,363,383,402,422,442,463,482,502,522,543,562,583,602,622,642,663,684,703,722,742,764,783,803,822,842,863,882,902,923,942,963,983,1002,1023,1044,1064,1083,1102],"xSR":741.5,"ySR":469.95,"xT1":424.9,"yT1":0,"xT2":1058.1,"yT2":0,"toosoon":0,"cond_shown":"Incongruent","ratio_trial":200,"L_num":11,"L_den":20,"R_num":3,"R_den":4,"correct_side":2,"subjID":"Jesusbitrago13","gender":"0","school":"4","age":"10"},{"start_time":1552308620279,"click_time":1552308621124,"finger_time":1552308620925,"fix_duration":833.4228466546842,"trial":5,"RT":646,"MT":199,"sideResp":1,"stimulus":[],"xmouse":[797,797,797,797,797,797,797,797,797,797,797,797,797,797,797,797,797,797,797,797,797,797,797,797,797,797,797,797,795,785,760,751,727,716,697,685,668,645,618,576,558,534,521],"ymouse":[508,508,508,508,508,508,508,508,508,508,508,508,508,508,508,508,508,508,508,508,508,508,508,508,508,508,508,508,508,506,489,485,462,449,416,393,355,298,241,142,99,43,15],"timestamp_mouse":[10,38,45,65,85,104,126,145,165,185,204,226,245,264,285,305,324,344,365,385,405,425,445,465,484,504,525,544,565,584,604,624,646,665,685,704,724,745,765,784,805,824,845],"xSR":741.5,"ySR":469.95,"xT1":424.9,"yT1":0,"xT2":1058.1,"yT2":0,"toosoon":0,"cond_shown":"Incongruent","ratio_trial":200,"L_num":1,"L_den":3,"R_num":2,"R_den":15,"correct_side":1,"subjID":"Jesusbitrago13","gender":"0","school":"4","age":"10"},{"start_time":1552308625701,"click_time":1552308627324,"finger_time":1552308626763,"fix_duration":475.5693459945982,"trial":6,"RT":1062,"MT":561,"sideResp":1,"stimulus":[],"xmouse":[753,753,753,753,753,753,753,753,753,753,753,753,753,753,753,753,753,753,753,753,753,753,753,753,753,753,753,753,753,753,753,753,753,753,753,753,753,753,753,753,753,753,753,753,753,753,753,753,753,753,753,753,753,740,719,692,666,651,644,641,634,630,624,620,620,620,620,618,609,602,594,580,571,552,540,529,522,518,514,510,507,504],"ymouse":[540,540,540,540,540,540,540,540,540,540,540,540,540,540,540,540,540,540,540,540,540,540,540,540,540,540,540,540,540,540,540,540,540,540,540,540,540,540,540,540,540,540,540,540,540,540,540,540,540,540,540,540,540,538,534,531,528,525,520,511,488,482,469,452,445,439,434,424,390,366,344,311,289,245,219,191,171,156,129,117,106,99],"timestamp_mouse":[9,22,47,62,82,102,123,144,162,182,202,222,243,262,282,304,323,343,362,383,402,422,443,462,482,502,522,542,562,583,602,623,642,664,683,702,724,743,763,782,802,823,844,862,882,903,922,943,963,982,1003,1022,1042,1062,1082,1102,1123,1143,1162,1183,1202,1222,1242,1263,1282,1302,1322,1343,1362,1382,1402,1423,1442,1462,1482,1503,1522,1542,1562,1583,1603,1623],"xSR":741.5,"ySR":469.95,"xT1":424.9,"yT1":0,"xT2":1058.1,"yT2":0,"toosoon":0,"cond_shown":"Congruent","ratio_trial":200,"L_num":12,"L_den":20,"R_num":6,"R_den":15,"correct_side":1,"subjID":"Jesusbitrago13","gender":"0","school":"4","age":"10"},{"start_time":1552308628926,"click_time":1552308631325,"finger_time":1552308630445,"fix_duration":261.63092529960664,"trial":7,"RT":1519,"MT":880,"sideResp":2,"stimulus":[],"xmouse":[827,827,827,827,827,827,827,827,827,827,827,827,827,827,825,824,820,819,817,816,813,813,813,813,813,813,813,813,813,813,813,813,813,813,813,813,813,813,813,813,813,813,813,813,813,813,813,813,813,813,813,813,813,813,813,813,813,813,813,813,813,813,813,813,813,813,813,813,813,813,813,813,813,813,813,778,732,681,634,601,578,567,565,563,561,560,559,559,559,559,559,559,559,559,559,566,578,589,601,638,685,822,890,942,974,998,1017,1027,1032,1049,1059,1075,1080,1081,1082,1083,1084,1086,1088,1094],"ymouse":[536,536,536,536,536,536,536,536,536,536,536,536,536,536,536,535,535,535,535,534,533,533,533,533,533,533,533,533,533,533,533,533,533,533,533,533,533,533,533,533,533,533,533,533,533,533,533,533,533,533,533,533,533,533,533,533,533,533,533,533,533,533,533,533,533,533,533,533,533,533,533,533,533,533,531,441,374,312,258,225,202,184,181,176,172,168,167,167,167,167,167,167,167,167,167,167,167,167,168,173,175,172,162,154,147,140,132,127,125,120,118,114,113,112,111,109,107,105,104,99],"timestamp_mouse":[18,50,59,78,97,119,137,157,177,198,218,237,257,277,297,317,338,358,378,398,417,438,457,478,498,518,538,557,577,598,617,639,658,678,698,719,739,758,778,798,817,838,858,878,898,917,938,957,977,997,1018,1039,1057,1078,1098,1118,1137,1157,1178,1197,1219,1237,1258,1277,1299,1318,1338,1358,1379,1398,1418,1438,1457,1478,1498,1519,1537,1558,1577,1597,1617,1637,1657,1677,1697,1718,1737,1757,1778,1798,1818,1837,1857,1877,1898,1919,1937,1958,1978,1997,2017,2037,2059,2077,2097,2117,2137,2158,2177,2198,2217,2237,2257,2278,2298,2319,2337,2358,2378,2399],"xSR":741.5,"ySR":469.95,"xT1":424.9,"yT1":0,"xT2":1058.1,"yT2":0,"toosoon":0,"cond_shown":"Incongruent","ratio_trial":200,"L_num":4,"L_den":30,"R_num":1,"R_den":3,"correct_side":2,"subjID":"Jesusbitrago13","gender":"0","school":"4","age":"10"},{"start_time":1552308633164,"click_time":1552308635563,"finger_time":1552308634763,"fix_duration":716.7509849140803,"trial":8,"RT":1599,"MT":800,"sideResp":2,"stimulus":[],"xmouse":[787,787,787,787,787,787,787,787,787,787,787,787,787,787,787,787,787,787,787,787,787,787,787,787,787,787,787,787,787,787,787,787,787,787,787,787,787,787,787,787,787,787,787,787,787,787,787,787,787,787,787,787,787,787,787,787,787,787,787,787,787,787,787,787,787,787,787,787,787,787,787,787,787,787,787,787,790,801,811,822,835,842,849,857,874,884,894,905,917,924,931,932,930,926,923,921,921,921,921,921,921,921,924,930,942,968,991,997,1010,1015,1019,1023,1025,1028,1031,1037,1040,1045,1050,1056,1063],"ymouse":[534,534,534,534,534,534,534,534,534,534,534,534,534,534,534,534,534,534,534,534,534,534,534,534,534,534,534,534,534,534,534,534,534,534,534,534,534,534,534,534,534,534,534,534,534,534,534,534,534,534,534,534,534,534,534,534,534,534,534,534,534,534,534,534,534,534,534,534,534,534,534,534,534,534,534,534,525,509,495,481,459,446,433,421,389,372,355,337,316,298,264,253,244,238,235,235,235,235,235,235,235,234,224,214,202,172,155,146,123,109,96,93,90,87,84,78,77,76,75,75,75],"timestamp_mouse":[1,19,40,59,80,100,119,140,159,180,199,220,240,260,280,299,321,340,360,380,400,420,440,460,481,499,519,540,560,580,599,620,640,660,681,699,720,739,760,779,799,819,840,860,880,899,920,939,960,980,1000,1019,1040,1059,1080,1100,1119,1141,1161,1179,1200,1220,1239,1260,1281,1300,1320,1340,1359,1379,1399,1420,1439,1460,1480,1499,1519,1540,1561,1580,1599,1619,1639,1659,1681,1699,1719,1740,1760,1779,1799,1819,1839,1860,1881,1900,1920,1939,1959,1981,1999,2019,2040,2059,2079,2099,2121,2139,2159,2180,2200,2219,2240,2259,2280,2299,2319,2339,2360,2381,2399],"xSR":741.5,"ySR":469.95,"xT1":424.9,"yT1":0,"xT2":1058.1,"yT2":0,"toosoon":0,"cond_shown":"Congruent","ratio_trial":100,"L_num":10,"L_den":25,"R_num":3,"R_den":10,"correct_side":1,"subjID":"Jesusbitrago13","gender":"0","school":"4","age":"10"},{"start_time":1552308638158,"click_time":1552308639285,"finger_time":1552308638763,"fix_duration":1193.8933636092631,"trial":9,"RT":605,"MT":522,"sideResp":1,"stimulus":[],"xmouse":[800,800,800,800,800,800,800,800,800,800,800,800,800,800,800,800,800,800,800,800,800,800,800,800,800,800,800,798,794,774,749,740,731,724,715,701,693,688,681,670,664,657,651,645,639,631,628,624,620,609,599,593,589,582,558,539,522],"ymouse":[506,506,506,506,506,506,506,506,506,506,506,506,506,506,506,506,506,506,506,506,506,506,506,506,506,506,506,506,498,475,440,423,406,389,371,340,323,305,281,244,225,208,195,183,172,161,158,155,150,140,131,128,124,119,102,91,81],"timestamp_mouse":[9,26,46,67,85,106,125,147,165,186,206,226,246,265,286,305,325,345,366,386,406,427,446,465,487,506,526,545,566,586,605,625,645,667,685,705,726,745,765,786,805,825,846,865,885,905,926,946,965,985,1005,1025,1045,1065,1087,1105,1127],"xSR":741.5,"ySR":469.95,"xT1":424.9,"yT1":0,"xT2":1058.1,"yT2":0,"toosoon":0,"cond_shown":"Congruent","ratio_trial":100,"L_num":1,"L_den":2,"R_num":3,"R_den":5,"correct_side":2,"subjID":"Jesusbitrago13","gender":"0","school":"4","age":"10"},{"start_time":1552308641470,"click_time":1552308643464,"finger_time":1552308643063,"fix_duration":1004.3767879117521,"trial":10,"RT":1593,"MT":401,"sideResp":1,"stimulus":[],"xmouse":[816,816,816,816,816,816,816,816,816,816,815,813,809,807,806,806,806,804,803,803,803,803,803,803,803,803,803,803,803,803,803,803,803,803,803,803,803,803,803,799,795,792,792,792,792,792,792,792,792,792,792,792,792,792,792,792,792,792,792,792,792,792,792,792,792,792,792,792,792,792,792,792,792,792,792,792,792,788,782,756,733,702,663,625,595,589,588,588,588,588,588,587,587,584,575,566,555,544,516,502],"ymouse":[524,524,524,524,524,524,524,524,524,524,524,524,524,524,524,524,524,524,524,524,524,524,524,524,524,524,524,524,524,524,524,524,524,524,524,524,524,524,524,524,523,522,522,522,522,522,522,522,522,522,522,522,522,522,522,522,522,522,522,522,522,522,522,522,522,522,522,522,522,522,522,522,522,522,522,522,522,515,503,451,409,358,306,255,220,213,212,212,212,212,212,212,212,212,204,194,179,161,116,90],"timestamp_mouse":[13,39,53,73,93,113,134,154,174,194,213,234,254,273,293,313,333,353,374,394,415,434,454,475,493,514,533,555,574,593,613,633,654,674,694,714,733,754,774,793,814,835,854,873,893,914,934,953,973,994,1013,1033,1053,1074,1093,1115,1134,1153,1173,1193,1213,1235,1254,1273,1293,1314,1335,1353,1374,1393,1414,1435,1454,1473,1494,1514,1534,1554,1574,1593,1614,1633,1654,1673,1694,1713,1735,1754,1774,1793,1814,1835,1853,1873,1893,1913,1933,1953,1975,1994],"xSR":741.5,"ySR":469.95,"xT1":424.9,"yT1":0,"xT2":1058.1,"yT2":0,"toosoon":0,"cond_shown":"Congruent","ratio_trial":100,"L_num":8,"L_den":16,"R_num":2,"R_den":5,"correct_side":1,"subjID":"Jesusbitrago13","gender":"0","school":"4","age":"10"},{"start_time":1552308645245,"click_time":1552308646763,"finger_time":1552308646124,"fix_duration":439.09338094195994,"trial":11,"RT":879,"MT":639,"sideResp":2,"stimulus":[],"xmouse":[811,811,811,811,810,805,800,797,795,787,783,778,777,776,776,776,776,776,776,776,776,776,776,776,776,776,776,776,776,776,776,776,776,776,776,776,776,776,776,776,786,806,831,854,867,884,888,894,896,898,914,928,941,959,978,989,998,1006,1015,1030,1037,1042,1043,1043,1043,1046,1050,1052,1053,1058,1062,1067,1071,1083,1088,1095],"ymouse":[541,541,541,541,541,541,540,539,539,539,537,536,536,535,535,535,535,535,535,535,535,535,535,535,535,535,535,535,535,535,535,535,535,535,535,535,535,535,535,533,522,504,483,457,440,410,394,374,347,313,250,231,216,195,175,167,161,155,149,137,133,131,130,130,130,130,130,130,130,127,125,121,117,108,104,97],"timestamp_mouse":[18,39,58,79,99,119,138,160,178,199,218,239,258,278,298,319,339,358,378,398,419,438,458,479,500,520,539,559,578,598,620,638,658,679,699,718,738,759,778,799,818,838,858,879,898,918,940,959,978,998,1019,1038,1058,1079,1099,1118,1139,1158,1178,1200,1218,1240,1258,1279,1298,1318,1338,1358,1378,1400,1418,1439,1458,1478,1498,1518],"xSR":741.5,"ySR":469.95,"xT1":424.9,"yT1":0,"xT2":1058.1,"yT2":0,"toosoon":0,"cond_shown":"Congruent","ratio_trial":200,"L_num":3,"L_den":10,"R_num":11,"R_den":22,"correct_side":2,"subjID":"Jesusbitrago13","gender":"0","school":"4","age":"10"},{"start_time":1552308648897,"click_time":1552308650145,"finger_time":1552308649565,"fix_duration":1071.7862859241557,"trial":12,"RT":668,"MT":580,"sideResp":1,"stimulus":[],"xmouse":[771,771,771,771,771,771,771,771,771,771,771,771,771,771,771,771,771,771,771,771,771,771,771,771,771,771,771,771,769,764,763,758,755,750,744,740,734,719,712,703,694,675,642,630,625,622,618,616,606,600,591,584,578,576,573,571,570,568,564,555,535,528,523],"ymouse":[530,530,530,530,530,530,530,530,530,530,530,530,530,530,530,530,530,530,530,530,530,530,530,530,530,530,530,528,516,502,497,481,471,449,439,426,411,376,359,338,316,279,230,215,205,199,190,183,167,157,142,129,115,108,103,98,95,91,86,83,76,73,71],"timestamp_mouse":[12,38,46,67,86,106,127,148,167,186,207,228,247,268,286,307,327,348,366,388,407,427,446,466,486,507,527,546,566,587,606,626,646,668,686,706,726,748,766,787,807,827,848,866,887,906,928,946,966,986,1006,1027,1048,1067,1086,1107,1127,1146,1166,1187,1206,1227,1247],"xSR":741.5,"ySR":469.95,"xT1":424.9,"yT1":0,"xT2":1058.1,"yT2":0,"toosoon":0,"cond_shown":"Incongruent","ratio_trial":100,"L_num":4,"L_den":8,"R_num":8,"R_den":20,"correct_side":1,"subjID":"Jesusbitrago13","gender":"0","school":"4","age":"10"},{"start_time":1552308652195,"click_time":1552308653403,"finger_time":1552308652984,"fix_duration":1029.7249543829828,"trial":13,"RT":789,"MT":419,"sideResp":2,"stimulus":[],"xmouse":[786,786,786,786,786,786,786,786,786,786,786,786,786,786,786,786,786,786,786,786,786,786,786,786,786,786,786,786,786,786,786,788,789,794,796,799,801,809,824,832,842,854,865,889,913,918,943,973,988,1000,1011,1022,1039,1044,1049,1053,1061,1070,1074,1076,1080],"ymouse":[530,530,530,530,530,530,530,530,530,530,530,530,530,530,530,530,530,530,530,530,530,530,530,530,530,530,530,530,530,530,530,527,526,517,512,509,504,492,473,461,448,429,410,368,338,329,292,252,229,208,192,176,157,149,142,136,125,112,107,104,98],"timestamp_mouse":[9,28,48,68,89,109,130,148,169,189,208,230,249,269,288,308,328,349,369,388,408,429,448,469,489,509,529,550,568,588,609,628,648,668,688,708,729,748,769,789,809,829,849,868,889,908,928,950,968,990,1008,1028,1049,1068,1089,1108,1128,1150,1168,1189,1208],"xSR":741.5,"ySR":469.95,"xT1":424.9,"yT1":0,"xT2":1058.1,"yT2":0,"toosoon":0,"cond_shown":"Incongruent","ratio_trial":300,"L_num":4,"L_den":20,"R_num":2,"R_den":4,"correct_side":2,"subjID":"Jesusbitrago13","gender":"0","school":"4","age":"10"},{"start_time":1552308655860,"click_time":1552308657445,"finger_time":1552308656863,"fix_duration":1013.6462526809056,"trial":14,"RT":1003,"MT":582,"sideResp":1,"stimulus":[],"xmouse":[803,803,803,803,803,803,803,803,803,803,803,803,803,803,803,803,803,803,803,803,803,803,803,803,803,803,803,803,803,803,803,803,803,803,803,803,803,803,803,803,803,803,803,803,803,803,803,799,794,780,751,739,732,724,721,717,715,714,711,706,694,674,667,643,608,590,570,554,538,525,504,496,489,479,468,463,460,457,455,453],"ymouse":[514,514,514,514,514,514,514,514,514,514,514,514,514,514,514,514,514,514,514,514,514,514,514,514,514,514,514,514,514,514,514,514,514,514,514,514,514,514,514,514,514,514,514,514,514,514,514,512,506,493,467,454,445,433,429,420,417,414,410,402,378,348,338,313,280,265,248,235,222,211,190,180,172,157,140,132,123,112,103,84],"timestamp_mouse":[14,26,47,63,84,104,124,144,165,184,204,223,244,264,284,304,324,343,364,383,404,424,443,464,484,504,524,545,564,584,605,623,644,663,684,704,723,743,765,783,803,825,845,863,883,904,924,943,963,984,1003,1024,1043,1063,1084,1103,1123,1144,1164,1184,1203,1224,1243,1263,1285,1304,1324,1344,1363,1384,1403,1423,1444,1464,1485,1503,1524,1543,1563,1585],"xSR":741.5,"ySR":469.95,"xT1":424.9,"yT1":0,"xT2":1058.1,"yT2":0,"toosoon":0,"cond_shown":"Congruent","ratio_trial":200,"L_num":13,"L_den":26,"R_num":14,"R_den":20,"correct_side":2,"subjID":"Jesusbitrago13","gender":"0","school":"4","age":"10"},{"start_time":1552308659274,"click_time":1552308660304,"finger_time":1552308659923,"fix_duration":250,"trial":15,"RT":649,"MT":381,"sideResp":2,"stimulus":[],"xmouse":[786,786,786,786,786,786,786,786,786,786,786,786,786,786,786,786,786,786,786,786,786,786,786,786,786,786,786,786,789,802,823,840,857,863,876,884,900,921,945,1000,1020,1041,1051,1058,1058,1059,1060,1061,1063,1066,1068,1071],"ymouse":[508,508,508,508,508,508,508,508,508,508,508,508,508,508,508,508,508,508,508,508,508,508,508,508,508,508,508,508,508,508,502,492,479,474,454,444,425,399,370,290,253,219,195,166,142,137,133,131,123,115,105,99],"timestamp_mouse":[10,41,50,69,89,110,129,150,170,190,209,230,249,269,289,309,329,349,370,390,409,430,450,470,490,510,530,550,571,590,610,629,649,670,690,711,729,749,771,789,811,829,850,869,889,910,929,949,971,989,1010,1029],"xSR":741.5,"ySR":469.95,"xT1":424.9,"yT1":0,"xT2":1058.1,"yT2":0,"toosoon":0,"cond_shown":"Congruent","ratio_trial":100,"L_num":4,"L_den":8,"R_num":6,"R_den":10,"correct_side":2,"subjID":"Jesusbitrago13","gender":"0","school":"4","age":"10"},{"start_time":1552308662800,"click_time":1552308663925,"finger_time":1552308663444,"fix_duration":1295.984984953506,"trial":16,"RT":644,"MT":481,"sideResp":1,"stimulus":[],"xmouse":[779,779,779,779,779,779,779,779,779,779,779,779,779,779,779,779,779,779,779,779,779,779,779,779,779,779,779,779,779,779,778,771,709,660,613,574,549,543,540,539,539,538,538,536,535,533,526,522,516,514,512,510,508,504,502,497,493],"ymouse":[539,539,539,539,539,539,539,539,539,539,539,539,539,539,539,539,539,539,539,539,539,539,539,539,539,539,539,539,539,539,528,515,425,368,315,262,225,211,197,193,191,189,186,183,179,176,163,156,142,137,134,130,126,118,113,106,99],"timestamp_mouse":[9,24,43,63,84,103,124,143,163,183,204,223,244,263,284,304,325,344,364,383,403,423,443,463,485,504,524,544,564,583,604,623,644,663,683,703,723,744,763,783,804,823,843,863,884,904,924,944,963,983,1003,1023,1043,1063,1083,1103,1124],"xSR":741.5,"ySR":469.95,"xT1":424.9,"yT1":0,"xT2":1058.1,"yT2":0,"toosoon":0,"cond_shown":"Congruent","ratio_trial":300,"L_num":20,"L_den":25,"R_num":13,"R_den":26,"correct_side":1,"subjID":"Jesusbitrago13","gender":"0","school":"4","age":"10"},{"start_time":1552308665928,"click_time":1552308666924,"finger_time":1552308666744,"fix_duration":461.9298055803519,"trial":17,"RT":816,"MT":180,"sideResp":1,"stimulus":[],"xmouse":[825,825,825,825,825,825,825,825,825,825,825,825,825,825,825,825,825,825,825,825,825,825,822,818,816,812,810,808,807,807,807,807,807,807,805,803,798,792,783,769,757,732,720,705,684,658,589,560,537,514],"ymouse":[520,520,520,520,520,520,520,520,520,520,520,520,520,520,520,520,520,520,520,520,520,520,520,520,520,520,520,520,520,520,520,520,520,520,520,519,516,509,496,472,454,420,401,373,332,280,162,116,79,36],"timestamp_mouse":[16,39,56,77,95,117,137,157,176,196,216,237,256,275,297,317,337,356,377,396,417,435,456,477,497,517,535,557,576,596,615,636,656,677,696,717,735,755,776,797,816,836,856,876,896,916,936,956,975,996],"xSR":741.5,"ySR":469.95,"xT1":424.9,"yT1":0,"xT2":1058.1,"yT2":0,"toosoon":0,"cond_shown":"Congruent","ratio_trial":300,"L_num":20,"L_den":25,"R_num":14,"R_den":28,"correct_side":1,"subjID":"Jesusbitrago13","gender":"0","school":"4","age":"10"},{"start_time":1552308669536,"click_time":1552308671546,"finger_time":1552308670223,"fix_duration":1150.9588376523095,"trial":18,"RT":687,"MT":1323,"sideResp":2,"stimulus":[],"xmouse":[805,805,805,805,805,805,805,805,805,805,805,805,805,805,805,805,805,805,805,805,805,805,805,805,805,805,805,805,805,805,804,789,773,753,731,712,684,672,663,656,647,641,638,635,634,632,630,630,630,630,630,629,629,629,627,617,605,590,572,550,539,529,528,528,528,528,529,533,546,558,590,610,635,667,693,719,774,813,843,904,948,1015,1042,1063,1075,1080,1082,1083,1083,1083,1082,1081,1080,1080,1080,1082,1084,1087,1088,1091,1093],"ymouse":[514,514,514,514,514,514,514,514,514,514,514,514,514,514,514,514,514,514,514,514,514,514,514,514,514,514,514,514,514,514,514,504,493,480,460,441,405,389,376,364,352,343,338,332,328,324,317,313,312,309,308,304,301,297,290,274,262,250,235,212,198,178,175,174,174,174,173,173,173,176,183,189,197,205,211,215,223,229,232,239,239,239,239,232,224,213,183,175,165,161,157,153,151,148,145,138,134,128,122,112,94],"timestamp_mouse":[13,43,49,68,88,109,129,148,169,188,209,229,249,268,289,309,328,348,368,406,408,428,448,469,489,507,527,548,569,587,608,629,648,668,687,708,728,749,768,787,808,828,849,867,887,909,927,948,968,988,1009,1028,1047,1067,1088,1109,1128,1148,1169,1188,1208,1228,1247,1267,1288,1309,1328,1348,1368,1389,1410,1429,1448,1468,1488,1509,1528,1548,1568,1588,1608,1627,1648,1668,1689,1708,1728,1748,1768,1788,1809,1828,1848,1869,1888,1909,1928,1948,1969,1988,2010],"xSR":741.5,"ySR":469.95,"xT1":424.9,"yT1":0,"xT2":1058.1,"yT2":0,"toosoon":0,"cond_shown":"Congruent","ratio_trial":100,"L_num":10,"L_den":25,"R_num":3,"R_den":10,"correct_side":1,"subjID":"Jesusbitrago13","gender":"0","school":"4","age":"10"},{"start_time":1552308673079,"click_time":1552308674124,"finger_time":1552308673565,"fix_duration":631.6079829225607,"trial":19,"RT":486,"MT":559,"sideResp":1,"stimulus":[],"xmouse":[811,811,811,811,811,811,811,811,811,811,811,811,811,811,811,811,811,811,811,811,811,810,803,771,693,669,647,631,614,581,566,551,527,513,494,484,475,468,459,456,454,453,451,451,451,451,452,453,453,453,453,453,453],"ymouse":[500,500,500,500,500,500,500,500,500,500,500,500,500,500,500,500,500,500,500,500,500,500,497,477,431,413,396,381,366,338,321,303,271,251,216,201,184,170,148,141,135,132,128,128,127,125,124,123,121,113,109,108,99],"timestamp_mouse":[10,25,45,65,85,106,126,145,166,186,205,225,245,265,286,306,324,345,366,386,406,425,446,464,486,504,525,545,564,584,605,625,644,664,684,705,725,745,766,785,805,826,844,865,884,906,925,945,965,985,1005,1026,1045],"xSR":741.5,"ySR":469.95,"xT1":424.9,"yT1":0,"xT2":1058.1,"yT2":0,"toosoon":0,"cond_shown":"Congruent","ratio_trial":300,"L_num":18,"L_den":20,"R_num":9,"R_den":15,"correct_side":1,"subjID":"Jesusbitrago13","gender":"0","school":"4","age":"10"},{"start_time":1552308675784,"click_time":1552308676904,"finger_time":1552308676484,"fix_duration":657.8818148634379,"trial":20,"RT":700,"MT":420,"sideResp":1,"stimulus":[],"xmouse":[814,814,814,814,814,814,814,814,812,810,809,809,808,808,806,805,804,804,804,803,803,802,802,802,802,801,801,800,800,799,799,799,798,787,774,752,742,721,707,676,661,655,655,655,655,655,655,655,645,628,612,591,567,517,499,489,480],"ymouse":[517,517,517,517,517,517,517,517,517,517,517,517,517,517,517,517,517,517,517,517,517,517,517,517,517,517,517,517,517,517,517,517,516,498,482,460,450,431,419,397,385,381,381,381,381,381,381,381,361,342,320,294,260,181,148,119,98],"timestamp_mouse":[2,20,40,59,81,100,121,140,159,180,201,220,241,260,280,301,319,341,360,379,400,421,441,459,480,500,521,540,559,580,600,621,640,661,680,700,720,740,759,779,799,821,840,860,881,900,919,939,962,980,999,1021,1040,1061,1080,1101,1120],"xSR":741.5,"ySR":469.95,"xT1":424.9,"yT1":0,"xT2":1058.1,"yT2":0,"toosoon":0,"cond_shown":"Incongruent","ratio_trial":300,"L_num":4,"L_den":5,"R_num":8,"R_den":16,"correct_side":1,"subjID":"Jesusbitrago13","gender":"0","school":"4","age":"10"},{"start_time":1552308679500,"click_time":1552308681464,"finger_time":1552308680983,"fix_duration":1252.1202216683328,"trial":21,"RT":1483,"MT":481,"sideResp":1,"stimulus":[],"xmouse":[794,794,794,794,794,794,794,794,794,794,794,794,794,794,794,794,794,794,794,794,794,794,794,794,794,794,794,794,794,794,794,794,794,794,792,790,790,790,790,790,790,790,790,790,790,790,790,790,790,790,790,790,790,790,790,790,790,790,790,790,790,790,790,790,790,790,790,790,790,790,790,790,789,769,740,704,676,662,632,615,598,581,567,543,532,529,527,525,524,522,521,521,519,517,516,513,512,512,510],"ymouse":[527,527,527,527,527,527,527,527,527,527,527,527,527,527,527,527,527,527,527,527,527,527,527,527,527,527,527,527,527,527,527,527,527,527,527,527,527,527,527,527,527,527,527,527,527,527,527,527,527,527,527,527,527,527,527,527,527,527,527,527,527,527,527,527,527,527,527,527,527,527,527,527,527,505,484,451,425,405,363,339,315,293,277,251,241,237,234,221,211,200,189,174,148,139,127,117,110,104,96],"timestamp_mouse":[15,26,46,65,84,104,125,144,165,185,203,224,245,264,285,305,325,345,363,385,405,423,445,464,484,505,525,544,564,584,605,624,643,665,684,705,725,745,763,785,804,824,845,863,884,905,924,945,964,984,1004,1024,1044,1063,1085,1103,1125,1145,1164,1185,1203,1225,1245,1263,1285,1304,1323,1344,1365,1385,1403,1423,1443,1464,1483,1505,1524,1544,1564,1585,1604,1624,1645,1663,1683,1705,1724,1745,1764,1784,1803,1824,1845,1863,1883,1904,1924,1944,1964],"xSR":741.5,"ySR":469.95,"xT1":424.9,"yT1":0,"xT2":1058.1,"yT2":0,"toosoon":0,"cond_shown":"Incongruent","ratio_trial":300,"L_num":3,"L_den":6,"R_num":4,"R_den":20,"correct_side":1,"subjID":"Jesusbitrago13","gender":"0","school":"4","age":"10"},{"start_time":1552308684319,"click_time":1552308686264,"finger_time":1552308685325,"fix_duration":774.8213646407642,"trial":22,"RT":1006,"MT":939,"sideResp":1,"stimulus":[],"xmouse":[810,810,810,810,810,810,810,810,810,810,810,810,810,810,810,810,810,810,810,810,810,810,810,810,810,810,810,810,810,810,810,810,810,810,810,810,810,810,810,809,807,807,807,807,807,807,805,788,767,757,734,720,694,681,671,660,652,638,631,623,616,610,608,608,607,607,606,601,598,597,595,593,584,576,566,556,541,535,533,531,531,531,531,531,531,531,531,531,531,531,531,531,531,530,530,529,526,520],"ymouse":[527,527,527,527,527,527,527,527,527,527,527,527,527,527,527,527,527,527,527,527,527,527,527,527,527,527,527,527,527,527,527,527,527,527,527,527,527,527,527,527,527,527,527,527,527,527,525,508,484,472,440,416,353,315,274,234,194,119,91,66,40,23,20,19,18,18,18,18,17,17,17,17,19,22,27,31,37,40,40,42,42,42,42,42,42,42,42,42,42,42,42,42,42,42,42,42,43,44],"timestamp_mouse":[9,25,46,66,86,105,124,146,166,184,206,225,245,264,284,306,325,344,366,386,405,425,446,466,486,504,525,545,566,585,606,626,645,664,686,706,725,746,765,785,805,825,846,865,885,906,926,945,965,985,1006,1024,1044,1066,1085,1105,1125,1144,1165,1184,1205,1226,1245,1266,1285,1305,1325,1345,1365,1384,1405,1425,1446,1465,1486,1506,1527,1544,1566,1586,1605,1626,1645,1665,1684,1706,1726,1745,1765,1786,1805,1826,1845,1865,1884,1904,1925,1945],"xSR":741.5,"ySR":469.95,"xT1":424.9,"yT1":0,"xT2":1058.1,"yT2":0,"toosoon":0,"cond_shown":"Congruent","ratio_trial":100,"L_num":9,"L_den":15,"R_num":8,"R_den":16,"correct_side":1,"subjID":"Jesusbitrago13","gender":"0","school":"4","age":"10"},{"start_time":1552308688851,"click_time":1552308690784,"finger_time":1552308690303,"fix_duration":1306.0197043781811,"trial":23,"RT":1452,"MT":481,"sideResp":2,"stimulus":[],"xmouse":[803,803,803,803,803,803,803,803,803,803,803,803,803,803,803,803,802,802,802,802,802,802,802,802,802,802,802,802,802,802,802,802,802,801,799,798,797,795,795,795,795,795,795,795,795,795,795,795,795,795,795,795,795,795,795,795,795,795,795,795,798,799,802,804,806,811,812,816,818,821,832,839,846,858,865,884,896,909,922,938,945,950,955,962,971,983,992,1001,1010,1028,1036,1042,1055,1066,1088,1100,1110],"ymouse":[555,555,555,555,555,555,555,555,555,555,555,555,555,555,555,555,555,555,555,555,555,555,555,555,555,555,555,555,555,555,555,555,555,555,555,555,555,555,555,555,555,555,555,555,555,555,555,555,555,555,555,555,555,555,555,555,555,555,555,555,555,555,555,553,551,544,541,534,527,520,504,497,488,474,465,440,424,406,389,364,354,345,335,325,309,287,278,262,247,216,200,188,166,152,121,106,94],"timestamp_mouse":[12,33,53,75,94,114,134,153,174,192,212,233,254,273,292,313,333,354,373,394,413,434,452,473,494,514,532,552,573,594,613,633,654,673,694,713,732,753,774,793,812,834,853,874,893,914,933,954,972,994,1014,1033,1053,1073,1093,1114,1134,1153,1174,1194,1212,1233,1253,1273,1293,1314,1333,1353,1372,1393,1413,1433,1452,1473,1492,1513,1533,1553,1573,1594,1613,1633,1653,1673,1692,1712,1733,1754,1773,1794,1813,1833,1852,1872,1894,1913,1933],"xSR":741.5,"ySR":469.95,"xT1":424.9,"yT1":0,"xT2":1058.1,"yT2":0,"toosoon":0,"cond_shown":"Incongruent","ratio_trial":100,"L_num":13,"L_den":26,"R_num":12,"R_den":20,"correct_side":2,"subjID":"Jesusbitrago13","gender":"0","school":"4","age":"10"},{"start_time":1552308692456,"click_time":1552308693904,"finger_time":1552308693445,"fix_duration":250,"trial":24,"RT":989,"MT":459,"sideResp":1,"stimulus":[],"xmouse":[804,804,804,804,804,804,804,804,804,804,804,804,804,804,803,803,800,800,800,799,799,798,798,798,798,797,797,797,796,795,795,795,795,795,795,794,792,791,791,790,788,788,787,786,782,772,767,761,756,739,728,708,688,664,637,594,594,594,594,594,594,594,594,594,594,594,594,594,594,594,594,594,504],"ymouse":[521,521,521,521,521,521,521,521,521,521,521,521,521,521,522,522,522,522,522,522,522,522,522,522,522,522,522,522,522,522,522,522,522,522,522,522,522,522,522,522,522,522,522,522,521,517,514,510,505,490,473,407,337,255,158,9,9,9,9,9,9,9,9,9,9,9,9,9,9,9,9,9,4],"timestamp_mouse":[9,41,49,68,89,108,129,149,167,188,208,229,249,269,288,307,327,349,369,388,409,428,449,468,489,509,528,547,568,588,607,629,649,669,687,708,728,749,767,788,807,827,848,868,889,908,928,948,967,989,1007,1028,1047,1067,1088,1107,1129,1149,1168,1189,1208,1227,1248,1269,1288,1309,1328,1349,1368,1388,1408,1429,1448],"xSR":741.5,"ySR":469.95,"xT1":424.9,"yT1":0,"xT2":1058.1,"yT2":0,"toosoon":0,"cond_shown":"Congruent","ratio_trial":200,"L_num":16,"L_den":20,"R_num":12,"R_den":20,"correct_side":1,"subjID":"Jesusbitrago13","gender":"0","school":"4","age":"10"},{"start_time":1552308695924,"click_time":1552308697545,"finger_time":1552308696744,"fix_duration":757.4189000064005,"trial":25,"RT":820,"MT":801,"sideResp":1,"stimulus":[],"xmouse":[800,800,800,800,800,800,800,800,800,800,800,800,800,800,800,800,800,800,800,800,800,800,800,800,800,800,800,800,800,796,795,795,795,795,794,794,794,791,785,779,767,758,730,713,696,680,667,641,629,623,612,600,595,591,589,583,580,569,564,562,556,545,533,520,505,496,491,490,490,489,489,489,489,489,489,490,491,493,493,494,495,495],"ymouse":[520,520,520,520,520,520,520,520,520,520,520,520,520,520,520,520,520,520,520,520,520,520,520,520,520,520,520,520,520,520,520,520,520,520,520,520,520,516,507,497,477,465,430,411,389,368,351,320,307,299,287,272,266,260,253,244,237,216,206,199,187,170,157,145,133,125,116,113,112,112,112,112,112,112,111,111,110,108,106,105,103,99],"timestamp_mouse":[19,20,45,60,80,101,119,140,160,181,200,221,240,259,280,300,320,341,361,381,399,420,441,461,480,500,521,540,560,579,600,621,640,661,681,701,719,739,760,780,801,820,839,859,880,900,920,939,961,980,1000,1022,1039,1060,1079,1099,1120,1140,1161,1180,1200,1221,1240,1260,1280,1300,1321,1340,1361,1381,1401,1421,1441,1461,1480,1500,1521,1539,1560,1581,1600,1621],"xSR":741.5,"ySR":469.95,"xT1":424.9,"yT1":0,"xT2":1058.1,"yT2":0,"toosoon":0,"cond_shown":"Congruent","ratio_trial":200,"L_num":9,"L_den":20,"R_num":4,"R_den":16,"correct_side":1,"subjID":"Jesusbitrago13","gender":"0","school":"4","age":"10"},{"start_time":1552308700686,"click_time":1552308702084,"finger_time":1552308701245,"fix_duration":1360.8692197525445,"trial":26,"RT":559,"MT":839,"sideResp":2,"stimulus":[],"xmouse":[779,779,779,779,779,779,779,779,779,779,779,779,779,779,779,779,779,779,779,779,779,779,779,779,774,762,748,720,708,701,694,686,678,674,673,672,672,672,672,673,682,685,692,696,701,708,717,743,756,778,785,805,818,852,867,886,904,936,946,952,955,955,955,966,978,993,1004,1042,1055,1064],"ymouse":[535,535,535,535,535,535,535,535,535,535,535,535,535,535,535,535,535,535,535,535,535,535,535,535,528,516,501,478,468,462,455,447,437,433,430,429,429,429,429,429,429,429,429,430,430,430,423,389,370,340,330,304,284,247,229,213,194,155,140,130,123,122,122,122,120,117,108,80,62,44],"timestamp_mouse":[18,38,57,77,98,117,138,158,179,198,218,238,257,279,299,317,337,359,379,398,418,439,458,478,498,519,538,559,578,598,618,639,660,677,697,719,739,758,779,798,818,837,858,878,898,919,937,959,977,998,1018,1038,1058,1077,1098,1118,1139,1160,1178,1198,1219,1239,1258,1277,1298,1318,1337,1360,1378,1398],"xSR":741.5,"ySR":469.95,"xT1":424.9,"yT1":0,"xT2":1058.1,"yT2":0,"toosoon":0,"cond_shown":"Congruent","ratio_trial":200,"L_num":6,"L_den":20,"R_num":11,"R_den":22,"correct_side":2,"subjID":"Jesusbitrago13","gender":"0","school":"4","age":"10"},{"start_time":1552308703936,"click_time":1552308705484,"finger_time":1552308705204,"fix_duration":250,"trial":27,"RT":1268,"MT":280,"sideResp":2,"stimulus":[],"xmouse":[813,813,814,814,815,815,816,816,817,817,817,817,817,817,817,817,817,817,817,817,817,817,817,816,815,812,809,807,806,806,804,803,803,803,803,803,803,803,805,806,807,812,813,814,814,814,814,814,814,814,814,814,814,814,814,814,815,816,819,820,822,828,835,842,848,862,867,875,889,902,929,960,974,989,1003,1032,1046,1060],"ymouse":[534,534,534,534,534,534,534,534,534,534,534,534,534,534,533,532,530,529,528,527,525,524,523,522,521,520,519,518,518,518,518,518,518,518,518,518,518,518,518,518,518,519,519,519,520,520,520,520,520,520,520,520,520,520,520,520,520,520,521,521,521,520,509,497,481,453,437,415,390,360,310,247,198,149,116,63,42,22],"timestamp_mouse":[10,37,47,69,88,109,131,147,167,188,208,229,248,268,288,308,327,349,367,388,409,428,449,468,488,509,528,548,567,588,607,628,649,669,687,707,728,748,768,788,807,828,848,868,889,908,928,948,968,989,1008,1028,1049,1069,1088,1109,1128,1149,1168,1189,1209,1229,1248,1268,1288,1309,1327,1347,1368,1388,1408,1427,1448,1467,1488,1509,1528,1548],"xSR":741.5,"ySR":469.95,"xT1":424.9,"yT1":0,"xT2":1058.1,"yT2":0,"toosoon":0,"cond_shown":"Incongruent","ratio_trial":200,"L_num":7,"L_den":15,"R_num":6,"R_den":9,"correct_side":2,"subjID":"Jesusbitrago13","gender":"0","school":"4","age":"10"},{"start_time":1552308707076,"click_time":1552308708804,"finger_time":1552308708145,"fix_duration":250,"trial":28,"RT":1069,"MT":659,"sideResp":2,"stimulus":[],"xmouse":[836,836,836,832,826,823,821,818,818,818,818,818,818,818,818,818,818,818,818,818,818,818,817,816,816,816,816,816,816,816,816,816,816,816,818,822,826,831,834,837,837,838,838,838,838,838,838,838,838,838,838,838,838,846,855,871,886,901,912,931,940,949,961,968,987,997,1012,1025,1054,1068,1081,1091,1103,1110,1110,1110,1110,1110,1110,1110,1110,1110,1110,1110,1104,1104,1105],"ymouse":[509,509,509,509,509,508,508,507,507,507,507,507,507,507,507,507,507,507,507,507,507,507,507,507,507,507,507,507,507,507,507,507,507,507,506,503,501,498,495,493,493,493,493,493,493,493,493,493,493,493,493,493,493,491,487,476,463,448,436,409,393,378,357,344,317,301,281,260,218,198,179,166,151,142,142,142,142,142,142,142,142,142,138,134,112,102,88],"timestamp_mouse":[9,39,49,68,87,108,129,148,168,188,207,228,249,267,287,308,327,349,367,389,408,428,447,468,488,507,527,548,567,589,608,628,647,667,689,709,729,749,768,787,807,827,849,867,888,908,927,948,969,988,1009,1029,1047,1069,1088,1108,1127,1148,1168,1188,1208,1228,1249,1267,1287,1309,1327,1348,1369,1388,1408,1428,1448,1469,1487,1508,1528,1548,1568,1588,1608,1628,1647,1668,1687,1707,1728],"xSR":741.5,"ySR":469.95,"xT1":424.9,"yT1":0,"xT2":1058.1,"yT2":0,"toosoon":0,"cond_shown":"Incongruent","ratio_trial":200,"L_num":7,"L_den":15,"R_num":4,"R_den":6,"correct_side":2,"subjID":"Jesusbitrago13","gender":"0","school":"4","age":"10"},{"start_time":1552308710212,"click_time":1552308711664,"finger_time":1552308711084,"fix_duration":346.80859685482847,"trial":29,"RT":872,"MT":580,"sideResp":2,"stimulus":[],"xmouse":[790,790,790,790,790,790,790,790,790,790,790,790,790,790,790,790,790,790,790,790,790,790,790,790,790,790,790,790,790,790,790,790,790,790,790,790,803,814,822,825,830,838,841,844,849,853,861,869,876,884,892,898,910,916,921,927,938,956,963,972,980,1000,1008,1017,1028,1042,1049,1062,1067,1073,1078,1090,1096],"ymouse":[505,505,505,505,505,505,505,505,505,505,505,505,505,505,505,505,505,505,505,505,505,505,505,505,505,505,505,505,505,505,505,505,505,505,505,505,507,509,509,509,508,500,496,492,485,479,470,459,447,435,419,406,384,373,364,353,337,312,302,288,275,248,236,223,208,188,179,153,142,132,122,104,93],"timestamp_mouse":[12,34,53,73,92,111,132,153,171,193,213,232,253,273,292,312,332,352,372,393,413,432,453,473,493,511,533,553,571,593,612,633,651,672,693,713,733,751,772,792,812,833,853,872,891,912,932,952,972,992,1013,1031,1052,1071,1092,1113,1131,1152,1172,1193,1211,1233,1252,1272,1292,1313,1332,1353,1372,1391,1412,1433,1452],"xSR":741.5,"ySR":469.95,"xT1":424.9,"yT1":0,"xT2":1058.1,"yT2":0,"toosoon":0,"cond_shown":"Incongruent","ratio_trial":300,"L_num":13,"L_den":26,"R_num":12,"R_den":15,"correct_side":2,"subjID":"Jesusbitrago13","gender":"0","school":"4","age":"10"},{"start_time":1552308714220,"click_time":1552308717045,"finger_time":1552308715224,"fix_duration":1333.3448459244023,"trial":30,"RT":1004,"MT":1821,"sideResp":1,"stimulus":[],"xmouse":[791,791,791,791,791,791,791,791,791,791,791,791,791,791,791,791,791,791,791,791,791,791,791,791,791,791,791,791,791,791,791,791,791,791,791,791,791,791,791,791,791,791,791,791,791,790,789,782,772,756,734,673,645,618,596,577,563,558,558,558,558,558,558,558,558,558,554,532,525,521,520,520,520,521,524,527,536,542,550,560,575,592,634,658,681,711,730,770,795,840,898,964,996,1004,1017,1022,1027,1032,1034,1035,1036,1036,1036,1037,1037,1038,1038,1038,1038,1037,1034,1019,1007,987,968,936,908,854,838,823,808,794,770,756,741,724,700,687,677,672,666,658,643,632,616,602,589,560,546,537,527,503],"ymouse":[519,519,519,519,519,519,519,519,519,519,519,519,519,519,519,519,519,519,519,519,519,519,519,519,519,519,519,519,519,519,519,519,519,519,519,519,519,519,519,519,519,519,519,519,519,519,519,518,511,499,481,428,407,387,371,357,345,339,339,339,339,339,339,339,339,339,335,303,289,277,266,255,254,253,253,253,253,253,251,249,245,238,225,217,211,202,196,185,180,171,152,131,117,115,112,112,111,111,111,111,111,111,111,111,111,111,111,111,111,111,110,108,107,105,105,107,107,103,100,97,93,89,86,84,82,79,74,72,71,70,70,70,70,71,73,73,73,73,73,71,70,66],"timestamp_mouse":[9,24,44,64,83,103,124,145,163,183,205,224,244,264,284,303,325,344,365,384,403,425,444,463,485,503,523,545,565,584,605,625,644,664,684,705,724,744,764,785,804,825,845,864,885,904,923,945,963,984,1004,1026,1043,1064,1084,1103,1124,1144,1164,1185,1205,1224,1245,1265,1284,1304,1324,1345,1363,1385,1403,1425,1444,1464,1484,1504,1526,1544,1564,1584,1604,1625,1644,1665,1683,1703,1723,1743,1764,1784,1803,1825,1844,1865,1884,1905,1923,1943,1964,1984,2004,2025,2044,2065,2084,2105,2125,2145,2164,2185,2205,2225,2244,2265,2284,2304,2324,2344,2364,2384,2405,2424,2443,2464,2484,2505,2526,2544,2564,2584,2604,2625,2643,2664,2685,2705,2724,2743,2765,2785,2804,2825],"xSR":741.5,"ySR":469.95,"xT1":424.9,"yT1":0,"xT2":1058.1,"yT2":0,"toosoon":0,"cond_shown":"Incongruent","ratio_trial":200,"L_num":1,"L_den":2,"R_num":3,"R_den":10,"correct_side":1,"subjID":"Jesusbitrago13","gender":"0","school":"4","age":"10"},{"start_time":1552308719695,"click_time":1552308720985,"finger_time":1552308720444,"fix_duration":1430.2418543847098,"trial":31,"RT":749,"MT":541,"sideResp":1,"stimulus":[],"xmouse":[782,782,782,782,782,782,782,782,782,782,782,782,782,782,782,782,782,782,782,782,782,782,782,782,782,782,782,781,775,771,767,764,760,758,756,750,743,733,709,686,679,654,610,578,552,532,521,512,508,505,501,498,496,494,493,493,493,493,493,493,493,493,491,491,489],"ymouse":[530,530,530,530,530,530,530,530,530,530,530,530,530,530,530,530,530,530,530,530,530,530,530,530,530,530,530,530,530,530,530,530,529,528,528,525,518,508,480,450,441,405,352,328,308,293,281,258,242,225,211,190,177,149,137,128,119,115,111,110,109,107,103,100,97],"timestamp_mouse":[13,36,48,69,97,109,128,150,168,188,209,230,249,269,289,308,329,350,369,389,410,428,450,470,489,509,530,549,568,589,609,629,648,669,689,710,729,749,768,789,808,829,851,869,888,908,929,951,969,989,1008,1028,1049,1069,1089,1108,1128,1149,1168,1188,1209,1230,1250,1268,1290],"xSR":741.5,"ySR":469.95,"xT1":424.9,"yT1":0,"xT2":1058.1,"yT2":0,"toosoon":0,"cond_shown":"Congruent","ratio_trial":200,"L_num":20,"L_den":25,"R_num":9,"R_den":15,"correct_side":1,"subjID":"Jesusbitrago13","gender":"0","school":"4","age":"10"},{"start_time":1552308722811,"click_time":1552308724384,"finger_time":1552308723744,"fix_duration":565.331244789983,"trial":32,"RT":933,"MT":640,"sideResp":2,"stimulus":[],"xmouse":[781,781,781,781,781,781,781,781,781,781,781,781,781,781,781,781,781,781,781,781,779,772,768,766,766,766,766,766,766,766,766,766,766,766,766,766,766,766,766,766,766,766,766,766,765,779,833,1007,1086,1144,1189,1206,1217,1218,1219,1220,1221,1222,1223,1223,1223,1222,1212,1203,1201,1200,1200,1200,1200,1200,1198,1192,1190,1188,1186,1183,1179,1169,1157],"ymouse":[515,515,515,515,515,515,515,515,515,515,515,515,515,515,515,515,515,515,515,515,515,515,514,514,514,514,514,514,514,514,514,514,514,514,514,514,514,514,514,514,514,514,514,514,513,489,425,252,180,122,85,65,49,48,46,46,44,41,41,41,41,39,37,36,36,36,36,36,36,36,36,34,33,33,33,32,32,31,31],"timestamp_mouse":[14,35,54,72,94,113,133,152,173,193,212,234,254,274,294,313,334,352,374,392,413,434,453,472,494,514,533,553,573,593,613,634,654,674,693,713,734,754,772,793,813,834,854,873,893,913,933,953,974,993,1014,1033,1054,1074,1093,1113,1132,1152,1173,1194,1213,1233,1253,1273,1294,1313,1332,1353,1373,1392,1413,1434,1453,1474,1494,1513,1534,1552,1572],"xSR":741.5,"ySR":469.95,"xT1":424.9,"yT1":0,"xT2":1058.1,"yT2":0,"toosoon":0,"cond_shown":"Incongruent","ratio_trial":300,"L_num":13,"L_den":26,"R_num":12,"R_den":15,"correct_side":2,"subjID":"Jesusbitrago13","gender":"0","school":"4","age":"10"},{"start_time":1552308726397,"click_time":1552308727964,"finger_time":1552308727404,"fix_duration":891.4496984428748,"trial":33,"RT":1007,"MT":560,"sideResp":2,"stimulus":[],"xmouse":[825,825,825,825,825,824,822,819,818,817,817,816,815,813,812,811,810,809,807,804,802,799,794,793,793,793,793,793,793,792,791,790,789,789,789,789,789,789,789,789,789,789,789,789,789,789,789,786,779,773,767,763,762,763,768,774,778,803,814,827,838,851,878,898,905,921,932,953,964,973,985,997,1005,1022,1037,1045,1059,1070,1086],"ymouse":[505,505,505,505,505,505,505,505,505,505,505,505,505,504,504,504,504,504,504,503,503,503,503,502,502,502,502,502,502,502,502,502,501,501,501,501,501,501,501,501,501,501,501,501,501,501,501,498,485,472,457,446,428,419,410,399,393,358,342,323,301,279,243,222,213,196,188,176,170,165,159,152,146,139,132,130,120,112,95],"timestamp_mouse":[12,35,47,68,87,107,127,148,167,188,207,229,248,267,287,308,327,347,367,387,408,427,449,469,487,508,528,547,568,587,608,628,649,669,687,708,727,748,769,787,807,827,848,869,887,909,928,947,968,988,1007,1027,1049,1068,1088,1107,1127,1149,1168,1189,1208,1229,1249,1268,1288,1307,1327,1348,1367,1388,1408,1427,1447,1467,1488,1507,1527,1547,1567],"xSR":741.5,"ySR":469.95,"xT1":424.9,"yT1":0,"xT2":1058.1,"yT2":0,"toosoon":0,"cond_shown":"Incongruent","ratio_trial":200,"L_num":11,"L_den":20,"R_num":3,"R_den":4,"correct_side":2,"subjID":"Jesusbitrago13","gender":"0","school":"4","age":"10"},{"start_time":1552308730245,"click_time":1552308732065,"finger_time":1552308731904,"fix_duration":1319.687622644254,"trial":34,"RT":1659,"MT":161,"sideResp":1,"stimulus":[],"xmouse":[792,792,792,792,792,792,792,792,792,792,792,792,792,792,792,792,792,792,792,792,792,792,792,792,792,791,791,790,790,790,790,790,790,790,790,790,790,790,790,790,790,790,790,790,790,790,790,790,790,790,790,790,790,790,790,790,790,790,790,790,790,790,790,790,789,789,789,788,788,788,788,788,788,788,788,788,788,788,788,788,787,771,754,730,692,623,594,572,554,540,523,516],"ymouse":[538,538,538,538,538,538,538,538,538,538,538,538,538,538,538,538,538,538,538,538,538,538,538,538,538,538,538,538,538,538,538,538,538,538,538,538,538,538,538,538,538,538,538,538,538,538,538,538,538,538,538,538,538,538,538,538,538,538,538,538,538,538,538,538,537,537,537,537,537,537,537,537,537,537,537,537,537,537,537,537,537,524,510,488,444,336,276,227,184,152,109,93],"timestamp_mouse":[1,19,39,70,80,99,120,141,160,180,201,221,240,260,280,301,320,341,360,380,399,421,439,460,480,499,520,540,560,581,601,620,640,659,681,699,720,739,760,780,799,819,840,859,880,901,921,939,961,981,1000,1021,1039,1059,1079,1100,1120,1140,1160,1179,1200,1219,1240,1260,1279,1299,1320,1339,1361,1381,1400,1420,1439,1460,1481,1500,1521,1540,1560,1580,1599,1619,1639,1659,1679,1701,1720,1740,1760,1779,1801,1820],"xSR":741.5,"ySR":469.95,"xT1":424.9,"yT1":0,"xT2":1058.1,"yT2":0,"toosoon":0,"cond_shown":"Incongruent","ratio_trial":100,"L_num":10,"L_den":25,"R_num":8,"R_den":16,"correct_side":2,"subjID":"Jesusbitrago13","gender":"0","school":"4","age":"10"},{"start_time":1552308733609,"click_time":1552308734647,"finger_time":1552308734064,"fix_duration":304.18079367484586,"trial":35,"RT":455,"MT":583,"sideResp":2,"stimulus":[],"xmouse":[808,808,808,808,808,808,808,808,808,808,808,808,808,808,808,808,808,808,810,812,817,826,880,933,947,967,975,987,991,998,1005,1010,1024,1035,1043,1057,1065,1077,1082,1085,1087,1088,1090,1091,1091,1091,1091,1091,1091,1091,1091,1106],"ymouse":[497,497,497,497,497,497,497,497,497,497,497,497,497,497,497,497,497,497,497,498,498,494,449,399,379,337,322,301,293,281,270,261,232,215,199,175,161,142,136,132,129,125,121,120,120,120,120,120,115,111,105,83],"timestamp_mouse":[15,37,55,76,96,115,136,157,175,196,216,237,255,276,295,317,337,356,375,396,417,436,455,475,495,515,535,555,575,595,615,636,656,676,695,715,735,755,775,796,816,836,855,876,896,915,936,956,976,995,1016,1037],"xSR":741.5,"ySR":469.95,"xT1":424.9,"yT1":0,"xT2":1058.1,"yT2":0,"toosoon":0,"cond_shown":"Incongruent","ratio_trial":100,"L_num":8,"L_den":16,"R_num":6,"R_den":10,"correct_side":2,"subjID":"Jesusbitrago13","gender":"0","school":"4","age":"10"},{"start_time":1552308737691,"click_time":1552308746426,"finger_time":1552308741944,"fix_duration":445.936677369549,"trial":36,"RT":4253,"MT":4482,"sideResp":1,"stimulus":[],"xmouse":[832,832,832,832,832,832,832,832,832,832,832,832,832,832,832,832,832,832,832,832,832,832,832,832,832,832,832,832,832,832,832,832,832,832,832,832,832,832,832,832,832,832,832,832,832,832,832,832,832,832,832,832,832,832,832,832,832,832,832,832,832,832,832,832,832,832,832,832,832,832,832,832,832,832,832,832,832,832,832,832,832,832,832,832,832,832,832,832,832,832,832,832,832,832,832,832,832,832,832,832,832,832,832,832,832,832,832,832,832,832,832,832,832,832,832,832,832,832,832,832,832,832,832,832,832,832,832,832,832,832,832,832,832,832,832,832,832,832,832,832,832,832,832,832,832,832,832,832,832,832,832,832,832,832,832,832,832,832,832,832,832,832,832,832,832,832,832,832,832,832,832,832,832,832,832,832,832,832,832,832,832,832,832,832,832,832,832,832,832,832,832,832,832,832,832,832,832,832,832,832,832,832,832,832,832,832,832,832,832,829,811,794,741,724,724,724,724,724,724,724,724,724,724,727,731,735,738,745,750,754,761,764,768,777,777,777,777,777,777,777,777,777,777,777,777,777,777,777,777,777,777,777,777,777,777,777,777,777,777,777,777,777,777,777,777,777,777,777,777,777,777,777,777,777,777,777,777,777,777,777,777,777,777,777,777,777,777,777,777,777,777,777,777,777,777,777,777,777,777,777,777,777,777,777,777,777,777,777,777,777,777,777,777,777,777,777,777,777,777,777,777,777,777,777,777,777,777,777,777,777,777,777,777,777,777,777,777,777,777,777,777,777,777,777,777,777,777,777,777,778,779,780,782,787,790,791,791,792,794,795,796,797,797,797,797,797,797,797,797,797,797,797,797,797,797,797,797,797,797,797,797,797,797,797,797,797,797,797,797,797,797,797,797,797,797,797,797,797,797,797,797,797,797,797,797,795,794,786,781,772,764,761,757,749,741,734,723,705,696,685,668,656,629,617,610,602,596,589,575,563,561,550,536,530,523,518,511],"ymouse":[533,533,533,533,533,533,533,533,533,533,533,533,533,533,533,533,533,533,533,533,533,533,533,533,533,533,533,533,533,533,533,533,533,533,533,533,533,533,533,533,533,533,533,533,533,533,533,533,533,533,533,533,533,533,533,533,533,533,533,533,533,533,533,533,533,533,533,533,533,533,533,533,533,533,533,533,533,533,533,533,533,533,533,533,533,533,533,533,533,533,533,533,533,533,533,533,533,533,533,533,533,533,533,533,533,533,533,533,533,533,533,533,533,533,533,533,533,533,533,533,533,533,533,533,533,533,533,533,533,533,533,533,533,533,533,533,533,533,533,533,533,533,533,533,533,533,533,533,533,533,533,533,533,533,533,533,533,533,533,533,533,533,533,533,533,533,533,533,533,533,533,533,533,533,533,533,533,533,533,533,533,533,533,533,533,533,533,533,533,533,533,533,533,533,533,533,533,533,534,534,534,534,534,534,534,534,534,534,534,534,532,529,523,523,523,523,523,523,523,523,523,523,523,524,524,524,524,524,523,522,521,521,521,521,521,521,521,521,521,521,521,521,521,521,521,521,521,521,521,521,521,521,521,521,521,521,521,521,521,521,521,521,521,521,521,521,521,521,521,521,521,521,521,521,521,521,521,521,521,521,521,521,521,521,521,521,521,521,521,521,521,521,521,521,521,521,521,521,521,521,521,521,521,521,521,521,521,521,521,521,521,521,521,521,521,521,521,521,521,521,521,521,521,521,521,521,521,521,521,521,521,521,521,521,521,521,521,521,521,521,521,521,521,521,521,521,521,521,521,521,521,521,521,521,521,521,521,521,521,521,521,521,521,521,521,521,521,521,521,521,521,521,521,521,521,521,521,521,521,521,521,521,521,521,521,521,521,521,521,521,521,521,521,521,521,521,521,521,521,521,521,521,521,521,521,521,521,520,518,513,508,505,501,493,483,475,463,436,423,408,385,366,329,312,298,285,275,263,241,223,219,199,168,150,129,112,90],"timestamp_mouse":[14,33,62,73,93,114,133,155,173,193,213,234,253,273,294,315,334,354,375,394,414,433,454,475,495,514,534,554,573,594,614,634,654,674,693,715,733,754,774,793,814,835,853,873,894,913,934,954,975,995,1014,1033,1053,1074,1093,1114,1134,1155,1175,1193,1214,1234,1254,1274,1293,1314,1333,1353,1374,1394,1413,1434,1453,1474,1494,1515,1533,1554,1575,1595,1613,1634,1655,1673,1694,1714,1734,1753,1775,1794,1813,1835,1854,1874,1894,1913,1934,1954,1973,1994,2013,2034,2054,2074,2094,2114,2135,2154,2173,2195,2213,2234,2254,2273,2293,2314,2333,2354,2373,2394,2414,2433,2455,2474,2493,2513,2534,2554,2573,2594,2615,2634,2654,2674,2693,2713,2734,2754,2773,2794,2814,2835,2855,2874,2894,2913,2934,2955,2975,2993,3014,3034,3054,3074,3094,3114,3135,3154,3174,3194,3215,3234,3255,3275,3293,3313,3335,3354,3373,3394,3415,3434,3454,3474,3493,3514,3535,3554,3574,3595,3614,3633,3654,3673,3694,3715,3734,3754,3774,3795,3814,3834,3854,3874,3895,3915,3934,3953,3975,3995,4014,4035,4053,4073,4094,4114,4133,4154,4173,4194,4213,4234,4253,4274,4293,4315,4334,4353,4374,4395,4414,4435,4453,4473,4494,4513,4533,4554,4573,4593,4613,4633,4653,4673,4693,4713,4733,4754,4775,4794,4813,4833,4854,4875,4893,4913,4934,4955,4973,4993,5013,5035,5055,5074,5094,5114,5133,5154,5175,5195,5214,5235,5253,5274,5295,5315,5333,5353,5374,5395,5415,5434,5454,5475,5494,5513,5534,5553,5574,5595,5614,5635,5653,5674,5695,5714,5733,5754,5774,5793,5814,5835,5853,5874,5893,5915,5935,5953,5974,5994,6014,6034,6053,6073,6094,6114,6133,6154,6174,6195,6215,6235,6253,6273,6293,6313,6334,6353,6375,6395,6413,6435,6453,6473,6494,6515,6534,6553,6579,6595,6614,6634,6654,6675,6694,6713,6734,6753,6774,6795,6813,6834,6854,6875,6893,6914,6933,6953,6974,6995,7014,7034,7053,7074,7093,7115,7135,7154,7173,7194,7215,7233,7254,7274,7295,7315,7334,7353,7374,7395,7415,7435,7454,7474,7493,7513,7534,7554,7573,7594,7614,7635,7655,7674,7695,7714,7734,7754,7775,7793,7813,7834,7855,7875,7894,7915,7935,7953,7974,7995,8013,8034,8053,8075,8093,8114,8135,8154,8173,8194,8214,8233,8254,8275,8295,8315,8335,8356,8373,8393,8413,8433,8455,8473,8494,8515,8533,8554,8573,8594,8613,8634,8655,8673,8694,8714,8735],"xSR":741.5,"ySR":469.95,"xT1":424.9,"yT1":0,"xT2":1058.1,"yT2":0,"toosoon":0,"cond_shown":"Congruent","ratio_trial":200,"L_num":4,"L_den":8,"R_num":3,"R_den":10,"correct_side":1,"subjID":"Jesusbitrago13","gender":"0","school":"4","age":"10"},{"start_time":1552308747797,"click_time":1552308750006,"finger_time":1552308749264,"fix_duration":250,"trial":37,"RT":1467,"MT":742,"sideResp":2,"stimulus":[],"xmouse":[811,811,811,811,811,811,811,811,811,811,811,811,811,811,811,811,811,811,811,811,810,809,809,809,809,809,809,809,809,809,809,809,809,809,809,809,809,809,809,809,809,809,809,809,809,809,809,809,809,809,809,809,809,809,809,809,809,809,809,809,809,809,809,809,809,809,809,809,809,809,809,808,811,837,847,855,871,896,903,905,906,906,907,909,911,915,918,923,925,929,933,934,940,945,949,958,967,973,984,990,996,1001,1016,1022,1026,1032,1037,1046,1051,1056,1061],"ymouse":[500,500,500,500,500,500,500,500,500,500,500,500,500,500,500,500,500,500,500,500,500,500,500,500,500,500,500,500,500,500,500,500,500,500,500,500,500,500,500,500,500,500,500,500,500,500,500,500,500,500,500,500,500,500,500,500,500,500,500,500,500,500,500,500,500,500,500,500,500,500,500,485,472,377,311,238,141,67,52,50,49,49,48,48,48,48,48,48,48,48,49,49,50,50,50,52,54,54,57,58,59,60,62,63,65,65,67,68,68,69,70],"timestamp_mouse":[10,35,47,68,88,109,127,149,168,188,208,228,249,267,287,308,328,347,367,388,407,427,449,468,487,509,527,548,569,588,608,627,647,669,687,707,728,747,767,787,808,827,848,869,888,908,927,948,969,987,1007,1027,1048,1067,1089,1108,1127,1148,1169,1188,1208,1229,1248,1269,1289,1308,1327,1347,1368,1389,1408,1428,1448,1467,1487,1508,1528,1549,1568,1587,1608,1627,1649,1667,1689,1708,1727,1749,1767,1787,1808,1829,1848,1867,1887,1908,1928,1949,1969,1989,2009,2029,2049,2068,2087,2107,2127,2149,2167,2188,2209],"xSR":741.5,"ySR":469.95,"xT1":424.9,"yT1":0,"xT2":1058.1,"yT2":0,"toosoon":0,"cond_shown":"Congruent","ratio_trial":100,"L_num":15,"L_den":25,"R_num":13,"R_den":26,"correct_side":1,"subjID":"Jesusbitrago13","gender":"0","school":"4","age":"10"},{"start_time":1552308751599,"click_time":1552308752946,"finger_time":1552308752146,"fix_duration":552.9039895507418,"trial":38,"RT":547,"MT":800,"sideResp":1,"stimulus":[],"xmouse":[785,785,785,785,785,785,785,785,785,785,785,785,785,785,785,785,785,785,785,785,785,785,785,785,781,770,760,735,724,713,702,690,663,647,636,629,618,608,601,591,584,577,559,550,541,524,516,511,506,506,506,506,506,506,506,506,506,506,506,506,506,506,506,506,506,503,496,491],"ymouse":[551,551,551,551,551,551,551,551,551,551,551,551,551,551,551,551,551,551,551,551,551,551,551,551,546,537,527,498,482,466,449,430,382,356,331,309,285,264,252,239,227,215,189,176,164,145,135,131,128,127,127,127,127,127,127,127,127,127,127,127,127,127,127,127,127,124,102,82],"timestamp_mouse":[9,39,46,65,85,107,125,146,167,185,206,227,245,267,286,306,327,345,366,385,406,427,446,465,486,507,525,547,565,585,605,625,647,665,685,705,725,747,766,786,806,825,847,865,885,905,926,946,965,986,1007,1026,1045,1066,1085,1105,1126,1147,1166,1186,1206,1226,1245,1265,1286,1306,1327,1346],"xSR":741.5,"ySR":469.95,"xT1":424.9,"yT1":0,"xT2":1058.1,"yT2":0,"toosoon":0,"cond_shown":"Congruent","ratio_trial":300,"L_num":20,"L_den":25,"R_num":14,"R_den":28,"correct_side":1,"subjID":"Jesusbitrago13","gender":"0","school":"4","age":"10"},{"start_time":1552308754597,"click_time":1552308755746,"finger_time":1552308755365,"fix_duration":611.8617850489336,"trial":39,"RT":768,"MT":381,"sideResp":1,"stimulus":[],"xmouse":[809,809,809,809,809,809,809,809,809,809,809,807,806,799,795,792,790,789,788,787,787,787,787,787,787,787,787,787,787,787,787,787,787,787,787,786,787,798,832,849,862,872,877,878,875,867,854,821,800,779,761,737,684,648,614,582,536,475],"ymouse":[504,510,518,520,521,522,522,522,522,522,523,523,523,523,523,522,521,521,521,521,521,521,521,521,521,521,521,521,521,521,521,521,521,521,521,520,509,491,439,415,394,374,356,332,323,314,307,301,297,292,286,272,226,191,158,130,85,27],"timestamp_mouse":[7,29,57,68,88,108,128,148,167,189,208,228,247,267,288,307,328,347,369,387,408,429,447,468,487,508,527,547,567,588,609,627,648,668,688,709,728,747,768,787,807,828,847,868,887,907,927,949,967,987,1007,1028,1049,1068,1088,1108,1127,1148],"xSR":741.5,"ySR":469.95,"xT1":424.9,"yT1":0,"xT2":1058.1,"yT2":0,"toosoon":0,"cond_shown":"Congruent","ratio_trial":300,"L_num":2,"L_den":10,"R_num":12,"R_den":24,"correct_side":2,"subjID":"Jesusbitrago13","gender":"0","school":"4","age":"10"},{"start_time":1552308758735,"click_time":1552308760205,"finger_time":1552308759664,"fix_duration":809.1129782733495,"trial":40,"RT":929,"MT":541,"sideResp":2,"stimulus":[],"xmouse":[745,745,745,745,745,745,745,745,745,745,745,745,745,745,745,745,745,745,745,746,746,746,747,749,749,749,751,751,751,751,751,751,751,751,751,751,751,751,753,755,765,779,787,797,810,822,844,848,850,850,850,850,850,850,850,850,850,850,853,860,887,908,934,955,985,1014,1062,1077,1090,1096,1100,1105,1108,1112],"ymouse":[558,558,558,558,558,558,558,558,558,558,558,558,558,558,558,558,558,558,558,558,558,558,558,557,557,557,557,557,557,557,557,557,557,557,557,557,557,557,557,557,557,557,554,545,531,515,488,481,479,479,479,479,479,479,479,479,479,479,465,441,396,366,332,302,265,234,165,144,123,114,109,103,100,97],"timestamp_mouse":[9,47,49,71,90,109,131,150,170,189,211,230,249,269,290,309,329,350,371,391,410,430,450,470,489,509,530,549,570,589,610,630,649,669,690,710,731,751,769,790,809,831,849,870,889,910,929,950,969,990,1009,1029,1050,1071,1089,1110,1129,1150,1169,1190,1210,1230,1250,1270,1289,1309,1329,1350,1369,1389,1410,1431,1450,1470],"xSR":741.5,"ySR":469.95,"xT1":424.9,"yT1":0,"xT2":1058.1,"yT2":0,"toosoon":0,"cond_shown":"Congruent","ratio_trial":100,"L_num":7,"L_den":14,"R_num":15,"R_den":25,"correct_side":2,"subjID":"Jesusbitrago13","gender":"0","school":"4","age":"10"},{"start_time":1552308761739,"click_time":1552308762864,"finger_time":1552308762605,"fix_duration":513.7554485086026,"trial":41,"RT":866,"MT":259,"sideResp":2,"stimulus":[],"xmouse":[811,811,811,811,811,811,811,811,811,811,811,811,811,811,811,811,811,811,811,811,811,811,811,811,811,811,811,811,811,811,811,811,811,811,811,811,811,811,811,811,811,816,836,872,901,964,995,1012,1014,1016,1016,1028,1042,1057,1071,1090,1096],"ymouse":[508,508,508,508,508,508,508,508,508,508,508,508,508,508,508,508,508,508,508,508,508,508,508,508,508,508,508,508,508,508,508,508,508,508,508,508,508,508,508,508,508,505,477,421,358,215,157,133,132,131,131,129,127,121,113,103,97],"timestamp_mouse":[12,38,46,65,85,105,125,145,166,185,206,225,246,265,287,305,327,345,365,386,405,425,445,465,485,506,527,545,566,587,605,625,645,666,685,706,726,745,766,787,807,826,845,866,887,906,925,946,965,985,1007,1027,1046,1065,1085,1106,1125],"xSR":741.5,"ySR":469.95,"xT1":424.9,"yT1":0,"xT2":1058.1,"yT2":0,"toosoon":0,"cond_shown":"Incongruent","ratio_trial":300,"L_num":13,"L_den":26,"R_num":12,"R_den":15,"correct_side":2,"subjID":"Jesusbitrago13","gender":"0","school":"4","age":"10"},{"start_time":1552308766305,"click_time":1552308768504,"finger_time":1552308766965,"fix_duration":357.1068097101434,"trial":42,"RT":660,"MT":1539,"sideResp":2,"stimulus":[],"xmouse":[810,810,810,810,810,810,810,810,810,810,810,810,810,810,810,810,810,810,810,810,810,810,810,810,810,810,810,810,810,810,810,810,810,810,821,833,846,865,866,866,866,866,865,855,844,836,828,817,783,748,737,699,638,605,572,542,517,487,446,429,416,411,409,408,408,408,408,408,409,412,417,422,426,439,449,458,469,479,498,526,538,579,648,679,710,740,769,796,843,875,883,903,918,921,923,926,928,930,945,953,964,967,975,982,990,997,1000,1002,1016,1039,1078],"ymouse":[492,492,492,492,492,492,492,492,492,492,492,492,492,492,492,492,492,492,492,492,492,492,492,492,492,492,492,492,492,492,492,492,489,432,394,345,304,251,239,238,238,238,237,235,234,233,232,231,227,220,219,212,203,198,193,188,183,173,161,154,147,144,143,142,141,140,138,136,133,130,129,129,129,128,128,128,128,128,128,128,128,128,128,128,128,128,128,128,128,128,128,126,122,122,121,121,121,120,118,117,115,115,115,115,114,113,112,112,110,106,95],"timestamp_mouse":[9,20,40,60,80,100,119,140,159,181,199,220,240,259,280,299,319,341,361,380,400,420,439,459,480,501,521,541,559,580,600,621,640,660,679,699,720,741,760,780,799,819,841,859,880,899,919,939,959,980,999,1019,1040,1059,1079,1099,1120,1139,1159,1180,1200,1220,1241,1259,1280,1299,1320,1341,1359,1379,1399,1421,1441,1460,1481,1499,1520,1540,1560,1580,1599,1620,1641,1660,1680,1701,1720,1739,1761,1780,1800,1819,1841,1859,1880,1900,1920,1940,1961,1979,1999,2020,2041,2059,2081,2100,2121,2140,2160,2180,2199],"xSR":741.5,"ySR":469.95,"xT1":424.9,"yT1":0,"xT2":1058.1,"yT2":0,"toosoon":0,"cond_shown":"Congruent","ratio_trial":300,"L_num":1,"L_den":3,"R_num":19,"R_den":30,"correct_side":2,"subjID":"Jesusbitrago13","gender":"0","school":"4","age":"10"},{"start_time":1552308771711,"click_time":1552308773666,"finger_time":1552308772905,"fix_duration":825.496369901072,"trial":43,"RT":1194,"MT":761,"sideResp":2,"stimulus":[],"xmouse":[786,786,786,786,786,786,786,786,786,786,786,786,786,786,786,786,786,786,786,786,786,786,786,786,786,786,786,786,786,786,786,786,786,786,786,786,786,786,786,786,786,786,786,786,786,786,786,786,786,786,786,786,786,786,786,786,786,797,829,864,903,973,987,997,998,1000,1001,1001,1001,1001,1001,991,982,977,973,973,971,969,969,970,973,981,990,998,1005,1012,1021,1023,1024,1025,1025,1025,1016,1017,1028,1042,1058,1071],"ymouse":[498,498,498,498,498,498,498,498,498,498,498,498,498,498,498,498,498,498,498,498,498,498,498,498,498,498,498,498,498,498,498,498,498,498,498,498,498,498,498,498,498,498,498,498,498,498,498,498,498,498,498,498,498,498,498,498,498,487,470,447,419,368,353,339,334,330,330,330,330,330,325,291,270,246,223,202,160,145,137,133,132,132,132,132,132,132,132,131,131,129,127,121,92,76,62,53,44,39],"timestamp_mouse":[15,38,54,73,93,114,133,155,174,193,213,234,255,273,294,313,334,354,374,393,414,434,455,473,494,514,535,554,573,594,614,635,653,673,694,714,735,753,773,794,814,833,855,875,893,914,933,953,973,995,1015,1034,1054,1074,1095,1114,1134,1153,1175,1194,1214,1235,1253,1274,1293,1315,1334,1354,1373,1393,1413,1435,1453,1474,1495,1515,1534,1553,1574,1593,1613,1635,1653,1674,1695,1715,1734,1753,1774,1795,1813,1834,1854,1873,1894,1915,1935,1955],"xSR":741.5,"ySR":469.95,"xT1":424.9,"yT1":0,"xT2":1058.1,"yT2":0,"toosoon":0,"cond_shown":"Congruent","ratio_trial":300,"L_num":1,"L_den":5,"R_num":3,"R_den":6,"correct_side":2,"subjID":"Jesusbitrago13","gender":"0","school":"4","age":"10"},{"start_time":1552308777466,"click_time":1552308779604,"finger_time":1552308778805,"fix_duration":1399.3601638364435,"trial":44,"RT":1339,"MT":799,"sideResp":1,"stimulus":[],"xmouse":[806,806,806,806,806,806,806,806,806,806,806,806,806,806,806,806,806,806,806,806,806,806,806,806,806,806,806,806,806,806,806,806,806,806,806,806,806,806,806,806,806,806,806,806,806,806,806,806,806,806,806,806,806,806,806,806,806,806,806,806,806,806,806,806,806,806,794,782,771,746,727,708,684,659,649,643,642,641,637,615,596,566,544,518,486,397,361,325,298,286,282,289,293,293,293,293,293,293,293,293,293,293,293,293,293,293,293,437],"ymouse":[507,507,507,507,507,507,507,507,507,507,507,507,507,507,507,507,507,507,507,507,507,507,507,507,507,507,507,507,507,507,507,507,507,507,507,507,507,507,507,507,507,507,507,507,507,507,507,507,507,507,507,507,507,507,507,507,507,507,507,507,507,507,507,507,507,503,487,466,445,389,358,330,301,273,260,250,248,245,241,227,219,206,195,180,161,105,81,57,38,27,17,8,4,4,4,4,4,4,4,4,4,4,4,4,4,4,4,3],"timestamp_mouse":[1,18,39,63,79,98,120,139,159,178,198,219,239,260,279,299,319,340,359,379,399,420,440,459,478,499,519,539,560,578,598,619,639,660,679,699,718,738,760,778,798,818,839,860,879,899,918,938,958,978,998,1018,1038,1059,1079,1099,1119,1139,1158,1178,1199,1219,1240,1259,1279,1299,1320,1339,1359,1380,1398,1419,1439,1459,1478,1498,1518,1538,1560,1579,1598,1618,1639,1659,1680,1699,1719,1739,1760,1779,1800,1820,1838,1859,1878,1898,1918,1939,1958,1979,2000,2019,2039,2058,2079,2099,2118,2138],"xSR":741.5,"ySR":469.95,"xT1":424.9,"yT1":0,"xT2":1058.1,"yT2":0,"toosoon":0,"cond_shown":"Incongruent","ratio_trial":200,"L_num":7,"L_den":10,"R_num":14,"R_den":28,"correct_side":1,"subjID":"Jesusbitrago13","gender":"0","school":"4","age":"10"},{"start_time":1552308782039,"click_time":1552308783546,"finger_time":1552308782745,"fix_duration":892.0283614712872,"trial":45,"RT":706,"MT":801,"sideResp":2,"stimulus":[],"xmouse":[814,814,814,814,814,814,814,814,814,814,814,814,814,814,814,814,814,814,814,814,814,814,814,814,814,814,814,814,814,814,814,814,814,817,827,852,864,875,885,892,898,906,910,914,919,922,927,931,934,938,946,950,954,958,962,968,972,976,979,981,983,986,988,992,994,1001,1008,1016,1028,1038,1057,1064,1073,1076,1086,1098],"ymouse":[532,532,532,532,532,532,532,532,532,532,532,532,532,532,532,532,532,532,532,532,532,532,532,532,532,532,532,532,532,532,532,532,532,526,515,484,469,454,442,431,423,411,404,398,393,388,380,373,367,360,348,340,333,323,314,301,294,288,284,279,276,271,268,262,259,246,236,223,206,187,153,141,125,120,105,89],"timestamp_mouse":[12,38,46,66,85,105,126,145,166,186,205,225,245,265,286,306,326,345,365,386,405,425,447,466,486,506,525,545,567,586,606,627,646,665,685,706,725,747,767,787,806,826,845,865,885,906,925,946,966,987,1008,1025,1047,1067,1087,1106,1125,1145,1165,1186,1206,1225,1247,1266,1286,1306,1326,1345,1366,1386,1406,1425,1446,1465,1485,1507],"xSR":741.5,"ySR":469.95,"xT1":424.9,"yT1":0,"xT2":1058.1,"yT2":0,"toosoon":0,"cond_shown":"Incongruent","ratio_trial":300,"L_num":4,"L_den":20,"R_num":2,"R_den":4,"correct_side":2,"subjID":"Jesusbitrago13","gender":"0","school":"4","age":"10"},{"start_time":1552308785047,"click_time":1552308786506,"finger_time":1552308786025,"fix_duration":360.0533536739395,"trial":46,"RT":978,"MT":481,"sideResp":2,"stimulus":[],"xmouse":[824,824,822,819,817,814,812,812,812,812,812,812,812,812,812,812,812,812,812,812,812,812,812,812,812,812,812,812,812,812,812,812,812,812,812,812,812,812,812,812,812,812,812,812,812,812,819,838,878,966,1002,1025,1045,1055,1060,1064,1064,1065,1065,1065,1065,1065,1065,1065,1065,1065,1065,1065,1067,1078,1087,1100,1102],"ymouse":[521,522,522,522,522,525,526,526,526,526,526,526,526,526,526,526,526,526,526,526,526,526,526,526,526,526,526,526,526,526,526,526,526,526,526,526,526,526,526,526,526,526,526,526,526,526,510,475,417,313,266,226,193,181,173,167,166,165,165,165,165,165,165,165,165,165,165,165,162,137,122,103,98],"timestamp_mouse":[25,46,58,77,97,118,139,157,178,199,218,237,259,278,299,319,339,359,379,398,418,438,458,478,498,519,538,558,578,598,618,638,658,678,698,718,739,758,777,797,818,839,858,878,898,919,938,957,978,999,1018,1039,1058,1078,1097,1117,1137,1158,1178,1197,1218,1237,1258,1279,1298,1319,1338,1359,1379,1398,1417,1438,1459],"xSR":741.5,"ySR":469.95,"xT1":424.9,"yT1":0,"xT2":1058.1,"yT2":0,"toosoon":0,"cond_shown":"Congruent","ratio_trial":200,"L_num":5,"L_den":10,"R_num":14,"R_den":20,"correct_side":2,"subjID":"Jesusbitrago13","gender":"0","school":"4","age":"10"},{"start_time":1552308788487,"click_time":1552308789845,"finger_time":1552308789384,"fix_duration":318.15962331360424,"trial":47,"RT":897,"MT":461,"sideResp":1,"stimulus":[],"xmouse":[766,766,766,766,766,766,766,766,766,766,766,766,766,766,766,766,766,766,766,766,766,766,766,766,766,766,766,766,766,766,766,766,766,766,766,766,766,766,765,764,762,759,754,750,746,741,735,732,717,705,701,688,670,655,643,631,619,599,590,577,573,561,555,543,539,535,531,524],"ymouse":[532,532,532,532,532,532,532,532,532,532,532,532,532,532,532,532,532,532,532,532,532,532,532,532,532,532,532,532,532,532,532,532,532,532,532,532,532,532,528,524,513,505,487,477,465,453,439,429,398,371,360,327,284,261,240,219,202,175,162,143,137,119,109,90,85,80,76,69],"timestamp_mouse":[18,40,59,78,98,118,138,159,179,197,218,237,258,279,299,317,338,358,377,397,419,439,458,478,498,519,537,558,579,598,617,637,658,679,698,718,737,758,778,798,819,838,859,878,897,918,937,959,978,998,1018,1039,1059,1077,1099,1118,1139,1158,1177,1198,1217,1238,1258,1279,1298,1318,1338,1358],"xSR":741.5,"ySR":469.95,"xT1":424.9,"yT1":0,"xT2":1058.1,"yT2":0,"toosoon":0,"cond_shown":"Congruent","ratio_trial":100,"L_num":9,"L_den":15,"R_num":8,"R_den":16,"correct_side":1,"subjID":"Jesusbitrago13","gender":"0","school":"4","age":"10"},{"start_time":1552308791922,"click_time":1552308793225,"finger_time":1552308792684,"fix_duration":814.1145420795275,"trial":48,"RT":762,"MT":541,"sideResp":2,"stimulus":[],"xmouse":[799,799,799,799,799,799,799,799,799,799,799,799,799,799,799,799,799,799,799,799,799,799,799,799,799,799,799,799,799,799,799,799,799,799,804,806,816,834,839,845,848,857,861,866,870,875,890,895,901,907,917,933,944,953,966,980,995,1017,1027,1036,1047,1054,1056,1056,1056,1059],"ymouse":[496,496,496,496,496,496,496,496,496,496,496,496,496,496,496,496,496,496,496,496,496,496,496,496,496,496,496,496,496,496,496,496,496,496,493,492,485,470,463,448,441,409,395,379,364,349,320,306,294,281,262,236,222,208,194,177,162,135,118,96,63,55,54,54,54,53],"timestamp_mouse":[9,22,43,64,82,102,123,144,163,183,203,223,244,264,283,303,323,342,364,384,403,422,443,463,484,503,524,543,562,583,603,622,644,664,684,702,722,742,762,783,803,824,842,863,883,904,923,942,963,982,1003,1024,1042,1062,1083,1103,1122,1142,1163,1184,1204,1223,1244,1265,1283,1303],"xSR":741.5,"ySR":469.95,"xT1":424.9,"yT1":0,"xT2":1058.1,"yT2":0,"toosoon":0,"cond_shown":"Incongruent","ratio_trial":100,"L_num":17,"L_den":30,"R_num":10,"R_den":15,"correct_side":2,"subjID":"Jesusbitrago13","gender":"0","school":"4","age":"10"},{"start_time":1552308795714,"click_time":1552308797105,"finger_time":1552308796565,"fix_duration":1205.1933005484732,"trial":49,"RT":851,"MT":540,"sideResp":1,"stimulus":[],"xmouse":[795,795,795,795,795,795,795,795,795,795,795,795,795,795,795,795,795,795,795,795,795,795,795,795,795,796,797,800,803,804,804,804,804,804,804,804,804,804,804,797,791,784,770,764,759,753,737,729,721,720,712,702,687,674,663,651,640,621,609,589,577,550,537,524,514,504,491,488,486,483],"ymouse":[519,519,519,519,519,519,519,519,519,519,519,519,519,519,519,519,519,519,519,519,519,519,519,519,519,519,519,520,520,520,520,520,520,520,520,520,520,520,520,511,499,487,455,441,426,413,388,379,367,363,354,343,329,319,309,296,285,264,251,228,213,180,165,151,139,126,109,104,100,93],"timestamp_mouse":[10,34,50,70,91,112,130,151,172,192,211,230,252,272,291,310,332,350,371,392,412,431,450,471,492,510,531,552,571,591,610,632,651,670,691,712,732,750,770,790,810,831,851,871,892,912,931,951,971,990,1010,1032,1052,1071,1091,1111,1132,1151,1172,1191,1212,1232,1251,1271,1290,1311,1332,1351,1371,1391],"xSR":741.5,"ySR":469.95,"xT1":424.9,"yT1":0,"xT2":1058.1,"yT2":0,"toosoon":0,"cond_shown":"Congruent","ratio_trial":100,"L_num":6,"L_den":12,"R_num":15,"R_den":25,"correct_side":2,"subjID":"Jesusbitrago13","gender":"0","school":"4","age":"10"},{"start_time":1552308799157,"click_time":1552308800365,"finger_time":1552308800084,"fix_duration":250,"trial":50,"RT":927,"MT":281,"sideResp":1,"stimulus":[],"xmouse":[796,796,796,796,796,796,796,796,796,796,796,796,796,796,796,796,796,796,796,796,796,796,796,796,796,796,796,796,796,796,796,796,796,796,796,796,796,796,796,796,796,789,786,780,776,768,764,755,752,725,714,703,695,689,678,651,640,613,602,537,509],"ymouse":[529,529,529,529,529,529,529,529,529,529,529,529,529,529,529,529,529,529,529,529,529,529,529,529,529,529,529,529,529,529,529,529,529,529,529,529,529,529,529,529,529,521,519,512,501,476,462,433,426,375,359,346,335,324,311,268,246,199,181,85,52],"timestamp_mouse":[10,42,47,68,88,109,128,147,167,188,208,227,249,269,288,308,328,349,368,387,407,428,449,467,488,509,528,547,568,589,608,627,647,667,688,708,728,747,768,788,807,827,847,