[{"start_time":1552309171373,"click_time":1552309174663,"finger_time":1552309173562,"fix_duration":345.2872271929056,"trial":0,"RT":2189,"MT":1101,"sideResp":1,"stimulus":"img/250/equaldotanddens/L/2_Ratio_250_L_16_R_4.png","xmouse":[787,787,787,787,787,787,787,787,787,787,787,787,787,787,787,787,787,787,787,787,787,787,787,787,787,787,787,787,787,787,787,787,787,787,787,787,787,787,787,787,787,787,787,787,787,787,787,787,787,787,787,787,787,787,787,787,787,787,787,787,787,787,787,787,787,787,787,787,787,787,787,787,787,787,787,787,787,787,787,787,787,787,787,787,787,787,787,787,787,787,787,787,787,787,793,806,809,811,811,811,811,811,811,811,811,811,800,782,767,767,767,767,767,750,702,565,441,321,219,204,185,172,172,172,172,172,172,172,172,172,172,172,172,172,172,172,172,172,172,172,145,158,167,182,195,205,215,224,245,260,277,291,299,305,324,339,350,356,370,380,391,405,420,441],"ymouse":[556,556,556,556,556,556,556,556,556,556,556,556,556,556,556,556,556,556,556,556,556,556,556,556,556,556,556,556,556,556,556,556,556,556,556,556,556,556,556,556,556,556,556,556,556,556,556,556,556,556,556,556,556,556,556,556,556,556,556,556,556,556,556,556,556,556,556,556,556,556,556,556,556,556,556,556,556,556,556,556,556,556,556,556,556,556,556,556,556,556,556,556,556,556,550,546,545,544,544,544,544,544,544,544,544,544,552,565,578,578,578,578,578,559,509,429,376,333,221,147,74,33,33,33,33,33,33,33,33,33,33,33,33,33,33,33,33,33,33,33,2,31,54,81,91,94,97,98,98,92,83,72,69,69,69,71,72,73,76,79,80,82,84,87],"timestamp_mouse":[10,50,69,89,109,129,151,170,189,209,229,250,269,289,310,330,351,370,389,410,430,450,470,490,510,529,550,570,590,609,630,650,669,689,709,730,749,770,790,810,829,849,869,890,910,930,949,970,990,1009,1029,1050,1069,1090,1111,1131,1151,1170,1189,1210,1230,1249,1271,1290,1309,1330,1349,1370,1390,1409,1431,1450,1469,1490,1510,1529,1550,1569,1590,1610,1630,1650,1670,1689,1709,1731,1751,1770,1789,1810,1831,1850,1869,1889,1909,1929,1950,1970,1989,2009,2030,2049,2069,2089,2110,2129,2150,2170,2189,2210,2229,2249,2269,2290,2310,2329,2349,2369,2390,2409,2429,2450,2469,2490,2510,2531,2551,2569,2590,2609,2629,2649,2670,2689,2710,2729,2749,2769,2789,2809,2829,2849,2869,2889,2909,2930,2950,2970,2989,3011,3029,3049,3069,3089,3109,3129,3150,3170,3189,3209,3230,3249,3269,3289],"xSR":741.5,"ySR":500.5,"xT1":424.9,"yT1":0,"xT2":1058.1,"yT2":0,"toosoon":0,"cond_shown":"equaldotanddens","ratio_trial":250,"smaller_num":"4","larger_num":"16","correct_side":1,"subjID":"jesusbuitrago13","gender":"0","age":"10","school":"4","test":{"fix_dur":[250,1500],"timestim":300,"targets_dim":[100,100],"targets_relative_coord":[0.3,0.7],"size_stim":[880,420],"start_dim":[100,100],"size_start":[300,300],"size_fix":60,"samplingrate":20,"img_types":["equaldotsize","equaldotanddens","randomdotsizeEA"],"ratios":[250,500,750,900],"rep_conds":9,"nTrials":120,"trials_to_rest":500,"Trials_order":[61,58,27,106,53,37,90,87,107,50,15,48,62,10,16,111,100,60,34,68,97,108,98,7,116,101,0,35,92,20,76,69,81,21,65,33,6,42,32,43,85,24,114,57,51,54,19,14,84,39,46,3,109,89,36,88,29,95,83,110,22,30,2,72,12,75,105,23,73,82,78,112,96,71,115,26,102,70,41,38,119,11,5,99,25,77,66,91,28,94,118,117,4,113,40,17,49,104,9,1,64,67,86,52,18,103,13,8,79,74,56,80,55,47,31,44,45,93,63,59],"cond_shown":["equaldotanddens","equaldotanddens","equaldotsize","equaldotanddens","randomdotsizeEA","equaldotanddens","equaldotsize","equaldotsize","randomdotsizeEA","randomdotsizeEA","equaldotsize","equaldotsize","randomdotsizeEA","equaldotanddens","equaldotanddens","equaldotsize","equaldotanddens","equaldotsize","equaldotanddens","randomdotsizeEA","equaldotanddens","equaldotsize","randomdotsizeEA","equaldotanddens","randomdotsizeEA","randomdotsizeEA","equaldotsize","randomdotsizeEA","randomdotsizeEA","randomdotsizeEA","equaldotanddens","equaldotsize","equaldotsize","equaldotsize","randomdotsizeEA","equaldotsize","equaldotsize","equaldotsize","randomdotsizeEA","equaldotanddens","equaldotanddens","equaldotsize","equaldotsize","equaldotsize","equaldotsize","equaldotsize","equaldotanddens","randomdotsizeEA","equaldotsize","equaldotsize","equaldotanddens","equaldotsize","equaldotanddens","randomdotsizeEA","equaldotsize","equaldotanddens","randomdotsizeEA","randomdotsizeEA","randomdotsizeEA","randomdotsizeEA","equaldotanddens","equaldotsize","randomdotsizeEA","equaldotsize","equaldotsize","equaldotsize","equaldotsize","randomdotsizeEA","equaldotanddens","equaldotanddens","equaldotsize","equaldotanddens","equaldotsize","randomdotsizeEA","equaldotanddens","randomdotsizeEA","equaldotsize","equaldotanddens","randomdotsizeEA","randomdotsizeEA","randomdotsizeEA","randomdotsizeEA","randomdotsizeEA","equaldotsize","equaldotanddens","randomdotsizeEA","equaldotsize","equaldotanddens","equaldotanddens","equaldotanddens","equaldotanddens","equaldotsize","equaldotanddens","randomdotsizeEA","equaldotanddens","randomdotsizeEA","equaldotanddens","randomdotsizeEA","equaldotsize","equaldotanddens","equaldotanddens","equaldotanddens","randomdotsizeEA","equaldotanddens","equaldotsize","equaldotanddens","equaldotanddens","randomdotsizeEA","equaldotanddens","randomdotsizeEA","randomdotsizeEA","randomdotsizeEA","equaldotanddens","randomdotsizeEA","equaldotanddens","randomdotsizeEA","equaldotsize","equaldotsize","equaldotsize","randomdotsizeEA"],"ratio_trial":[250,900,500,900,500,250,750,500,900,250,500,250,250,900,500,500,500,250,900,750,250,250,250,750,750,500,250,900,750,750,500,900,900,900,500,900,750,750,750,750,250,250,750,900,500,750,750,250,250,500,900,500,250,500,250,500,500,900,900,250,900,750,250,250,250,500,900,900,250,900,750,500,250,900,750,250,750,900,500,250,900,900,500,500,250,500,750,750,500,900,900,900,500,500,500,500,250,750,900,250,500,750,250,500,750,750,250,750,750,250,750,750,750,900,750,750,900,900,500,900],"smaller_num":["4","18","9","9","9","3","15","9","18","2","3","3","2","18","4","2","5","3","18","6","4","3","2","12","3","2","4","18","15","15","2","18","18","9","9","18","3","12","6","3","3","5","6","18","9","6","15","3","3","9","18","6","1","9","6","9","5","9","18","5","18","3","3","5","3","6","9","9","3","9","3","2","3","18","3","1","3","18","2","3","18","18","5","5","3","1","15","3","9","18","9","9","2","6","3","9","6","12","9","2","5","3","3","9","18","3","3","3","3","3","6","3","18","18","3","18","9","9","5","9"],"larger_num":["16","20","18","10","18","12","20","18","20","8","6","12","8","20","8","4","10","12","20","8","16","12","8","16","4","4","16","20","20","20","4","20","20","10","18","20","4","16","8","4","12","20","8","20","18","8","20","12","12","18","20","12","4","18","24","18","10","10","20","20","20","4","12","20","12","12","10","10","12","10","4","4","12","20","4","4","4","20","4","12","20","20","10","10","12","2","20","4","18","20","10","10","4","12","6","18","24","16","10","8","10","4","12","18","24","4","12","4","4","12","8","4","24","20","4","24","10","10","10","10"],"correct_side":[1,1,2,2,1,1,2,1,2,1,2,2,1,1,1,1,2,2,1,1,2,1,1,2,1,1,2,1,2,2,1,2,2,2,2,1,2,2,1,2,2,2,1,1,2,2,1,2,2,2,1,1,2,1,1,2,2,2,2,2,2,1,1,2,2,1,1,2,2,1,1,1,2,1,1,2,1,1,2,1,2,1,1,1,2,2,2,1,2,1,1,2,1,1,2,2,1,2,2,2,2,1,2,2,1,2,1,1,1,2,1,1,1,1,2,1,1,1,2,1],"img_shown":["img/250/equaldotanddens/L/2_Ratio_250_L_16_R_4.png","img/900/equaldotanddens/L/4_Ratio_900_L_20_R_18.png","img/500/equaldotsize/R/1_Ratio_500_L_9_R_18.png","img/900/equaldotanddens/R/5_Ratio_900_L_9_R_10.png","img/500/randomdotsizeEA/L/4_Ratio_500_L_18_R_9.png","img/250/equaldotanddens/L/15_Ratio_250_L_12_R_3.png","img/750/equaldotsize/R/3_Ratio_750_L_15_R_20.png","img/500/equaldotsize/L/4_Ratio_500_L_18_R_9.png","img/900/randomdotsizeEA/R/9_Ratio_900_L_18_R_20.png","img/250/randomdotsizeEA/L/1_Ratio_250_L_8_R_2.png","img/500/equaldotsize/R/2_Ratio_500_L_3_R_6.png","img/250/equaldotsize/R/11_Ratio_250_L_3_R_12.png","img/250/randomdotsizeEA/L/3_Ratio_250_L_8_R_2.png","img/900/equaldotanddens/L/2_Ratio_900_L_20_R_18.png","img/500/equaldotanddens/L/8_Ratio_500_L_8_R_4.png","img/500/equaldotsize/L/10_Ratio_500_L_4_R_2.png","img/500/equaldotanddens/R/14_Ratio_500_L_5_R_10.png","img/250/equaldotsize/R/11_Ratio_250_L_3_R_12.png","img/900/equaldotanddens/L/4_Ratio_900_L_20_R_18.png","img/750/randomdotsizeEA/L/14_Ratio_750_L_8_R_6.png","img/250/equaldotanddens/R/10_Ratio_250_L_4_R_16.png","img/250/equaldotsize/L/15_Ratio_250_L_12_R_3.png","img/250/randomdotsizeEA/L/3_Ratio_250_L_8_R_2.png","img/750/equaldotanddens/R/11_Ratio_750_L_12_R_16.png","img/750/randomdotsizeEA/L/10_Ratio_750_L_4_R_3.png","img/500/randomdotsizeEA/L/5_Ratio_500_L_4_R_2.png","img/250/equaldotsize/R/10_Ratio_250_L_4_R_16.png","img/900/randomdotsizeEA/L/4_Ratio_900_L_20_R_18.png","img/750/randomdotsizeEA/R/3_Ratio_750_L_15_R_20.png","img/750/randomdotsizeEA/R/5_Ratio_750_L_15_R_20.png","img/500/equaldotanddens/L/5_Ratio_500_L_4_R_2.png","img/900/equaldotsize/R/13_Ratio_900_L_18_R_20.png","img/900/equaldotsize/R/9_Ratio_900_L_18_R_20.png","img/900/equaldotsize/R/5_Ratio_900_L_9_R_10.png","img/500/randomdotsizeEA/R/6_Ratio_500_L_9_R_18.png","img/900/equaldotsize/L/4_Ratio_900_L_20_R_18.png","img/750/equaldotsize/R/7_Ratio_750_L_3_R_4.png","img/750/equaldotsize/R/11_Ratio_750_L_12_R_16.png","img/750/randomdotsizeEA/L/14_Ratio_750_L_8_R_6.png","img/750/equaldotanddens/R/7_Ratio_750_L_3_R_4.png","img/250/equaldotanddens/R/11_Ratio_250_L_3_R_12.png","img/250/equaldotsize/R/12_Ratio_250_L_5_R_20.png","img/750/equaldotsize/L/14_Ratio_750_L_8_R_6.png","img/900/equaldotsize/L/2_Ratio_900_L_20_R_18.png","img/500/equaldotsize/R/1_Ratio_500_L_9_R_18.png","img/750/equaldotsize/R/2_Ratio_750_L_6_R_8.png","img/750/equaldotanddens/L/1_Ratio_750_L_20_R_15.png","img/250/randomdotsizeEA/R/4_Ratio_250_L_3_R_12.png","img/250/equaldotsize/R/4_Ratio_250_L_3_R_12.png","img/500/equaldotsize/R/6_Ratio_500_L_9_R_18.png","img/900/equaldotanddens/L/10_Ratio_900_L_20_R_18.png","img/500/equaldotsize/L/13_Ratio_500_L_12_R_6.png","img/250/equaldotanddens/R/8_Ratio_250_L_1_R_4.png","img/500/randomdotsizeEA/L/4_Ratio_500_L_18_R_9.png","img/250/equaldotsize/L/5_Ratio_250_L_24_R_6.png","img/500/equaldotanddens/R/6_Ratio_500_L_9_R_18.png","img/500/randomdotsizeEA/R/14_Ratio_500_L_5_R_10.png","img/900/randomdotsizeEA/R/3_Ratio_900_L_9_R_10.png","img/900/randomdotsizeEA/R/12_Ratio_900_L_18_R_20.png","img/250/randomdotsizeEA/R/12_Ratio_250_L_5_R_20.png","img/900/equaldotanddens/R/9_Ratio_900_L_18_R_20.png","img/750/equaldotsize/L/8_Ratio_750_L_4_R_3.png","img/250/randomdotsizeEA/L/15_Ratio_250_L_12_R_3.png","img/250/equaldotsize/R/12_Ratio_250_L_5_R_20.png","img/250/equaldotsize/R/9_Ratio_250_L_3_R_12.png","img/500/equaldotsize/L/13_Ratio_500_L_12_R_6.png","img/900/equaldotsize/L/1_Ratio_900_L_10_R_9.png","img/900/randomdotsizeEA/R/6_Ratio_900_L_9_R_10.png","img/250/equaldotanddens/R/9_Ratio_250_L_3_R_12.png","img/900/equaldotanddens/L/1_Ratio_900_L_10_R_9.png","img/750/equaldotsize/L/10_Ratio_750_L_4_R_3.png","img/500/equaldotanddens/L/10_Ratio_500_L_4_R_2.png","img/250/equaldotsize/R/9_Ratio_250_L_3_R_12.png","img/900/randomdotsizeEA/L/4_Ratio_900_L_20_R_18.png","img/750/equaldotanddens/L/8_Ratio_750_L_4_R_3.png","img/250/randomdotsizeEA/R/8_Ratio_250_L_1_R_4.png","img/750/equaldotsize/L/8_Ratio_750_L_4_R_3.png","img/900/equaldotanddens/L/4_Ratio_900_L_20_R_18.png","img/500/randomdotsizeEA/R/9_Ratio_500_L_2_R_4.png","img/250/randomdotsizeEA/L/14_Ratio_250_L_12_R_3.png","img/900/randomdotsizeEA/R/14_Ratio_900_L_18_R_20.png","img/900/randomdotsizeEA/L/4_Ratio_900_L_20_R_18.png","img/500/randomdotsizeEA/L/7_Ratio_500_L_10_R_5.png","img/500/equaldotsize/L/7_Ratio_500_L_10_R_5.png","img/250/equaldotanddens/R/11_Ratio_250_L_3_R_12.png","img/500/randomdotsizeEA/R/15_Ratio_500_L_1_R_2.png","img/750/equaldotsize/R/5_Ratio_750_L_15_R_20.png","img/750/equaldotanddens/L/8_Ratio_750_L_4_R_3.png","img/500/equaldotanddens/R/1_Ratio_500_L_9_R_18.png","img/900/equaldotanddens/L/8_Ratio_900_L_20_R_18.png","img/900/equaldotanddens/L/1_Ratio_900_L_10_R_9.png","img/900/equaldotsize/R/6_Ratio_900_L_9_R_10.png","img/500/equaldotanddens/L/10_Ratio_500_L_4_R_2.png","img/500/randomdotsizeEA/L/11_Ratio_500_L_12_R_6.png","img/500/equaldotanddens/R/2_Ratio_500_L_3_R_6.png","img/500/randomdotsizeEA/R/6_Ratio_500_L_9_R_18.png","img/250/equaldotanddens/L/5_Ratio_250_L_24_R_6.png","img/750/randomdotsizeEA/R/11_Ratio_750_L_12_R_16.png","img/900/equaldotsize/R/7_Ratio_900_L_9_R_10.png","img/250/equaldotanddens/R/13_Ratio_250_L_2_R_8.png","img/500/equaldotanddens/R/14_Ratio_500_L_5_R_10.png","img/750/equaldotanddens/L/10_Ratio_750_L_4_R_3.png","img/250/randomdotsizeEA/R/11_Ratio_250_L_3_R_12.png","img/500/equaldotanddens/R/6_Ratio_500_L_9_R_18.png","img/750/equaldotsize/L/6_Ratio_750_L_24_R_18.png","img/750/equaldotanddens/R/12_Ratio_750_L_3_R_4.png","img/250/equaldotanddens/L/14_Ratio_250_L_12_R_3.png","img/750/randomdotsizeEA/L/9_Ratio_750_L_4_R_3.png","img/750/equaldotanddens/L/10_Ratio_750_L_4_R_3.png","img/250/randomdotsizeEA/R/4_Ratio_250_L_3_R_12.png","img/750/randomdotsizeEA/L/14_Ratio_750_L_8_R_6.png","img/750/randomdotsizeEA/L/8_Ratio_750_L_4_R_3.png","img/750/equaldotanddens/L/6_Ratio_750_L_24_R_18.png","img/900/randomdotsizeEA/L/4_Ratio_900_L_20_R_18.png","img/750/equaldotanddens/R/7_Ratio_750_L_3_R_4.png","img/750/randomdotsizeEA/L/6_Ratio_750_L_24_R_18.png","img/900/equaldotsize/L/1_Ratio_900_L_10_R_9.png","img/900/equaldotsize/L/1_Ratio_900_L_10_R_9.png","img/500/equaldotsize/R/14_Ratio_500_L_5_R_10.png","img/900/randomdotsizeEA/L/1_Ratio_900_L_10_R_9.png"],"Rat0":[["12_Ratio_0_L_9_R_0.png","13_Ratio_0_L_6_R_0.png","5_Ratio_0_L_2_R_0.png","6_Ratio_0_L_4_R_0.png","8_Ratio_0_L_6_R_0.png"],["1_Ratio_0_L_0_R_17.png","10_Ratio_0_L_0_R_22.png","11_Ratio_0_L_0_R_1.png","14_Ratio_0_L_0_R_24.png","15_Ratio_0_L_0_R_4.png","2_Ratio_0_L_0_R_5.png","3_Ratio_0_L_0_R_17.png","4_Ratio_0_L_0_R_7.png","7_Ratio_0_L_0_R_19.png","9_Ratio_0_L_0_R_15.png"]],"Rat250":[["1_Ratio_250_L_8_R_2.png","14_Ratio_250_L_12_R_3.png","15_Ratio_250_L_12_R_3.png","2_Ratio_250_L_16_R_4.png","3_Ratio_250_L_8_R_2.png","5_Ratio_250_L_24_R_6.png","7_Ratio_250_L_8_R_2.png"],["10_Ratio_250_L_4_R_16.png","11_Ratio_250_L_3_R_12.png","12_Ratio_250_L_5_R_20.png","13_Ratio_250_L_2_R_8.png","4_Ratio_250_L_3_R_12.png","6_Ratio_250_L_6_R_24.png","8_Ratio_250_L_1_R_4.png","9_Ratio_250_L_3_R_12.png"]],"Rat500":[["10_Ratio_500_L_4_R_2.png","11_Ratio_500_L_12_R_6.png","13_Ratio_500_L_12_R_6.png","4_Ratio_500_L_18_R_9.png","5_Ratio_500_L_4_R_2.png","7_Ratio_500_L_10_R_5.png","8_Ratio_500_L_8_R_4.png"],["1_Ratio_500_L_9_R_18.png","12_Ratio_500_L_1_R_2.png","14_Ratio_500_L_5_R_10.png","15_Ratio_500_L_1_R_2.png","2_Ratio_500_L_3_R_6.png","3_Ratio_500_L_10_R_20.png","6_Ratio_500_L_9_R_18.png","9_Ratio_500_L_2_R_4.png"]],"Rat750":[["1_Ratio_750_L_20_R_15.png","10_Ratio_750_L_4_R_3.png","13_Ratio_750_L_8_R_6.png","14_Ratio_750_L_8_R_6.png","6_Ratio_750_L_24_R_18.png","8_Ratio_750_L_4_R_3.png","9_Ratio_750_L_4_R_3.png"],["11_Ratio_750_L_12_R_16.png","12_Ratio_750_L_3_R_4.png","15_Ratio_750_L_9_R_12.png","2_Ratio_750_L_6_R_8.png","3_Ratio_750_L_15_R_20.png","4_Ratio_750_L_15_R_20.png","5_Ratio_750_L_15_R_20.png","7_Ratio_750_L_3_R_4.png"]],"Rat900":[["1_Ratio_900_L_10_R_9.png","10_Ratio_900_L_20_R_18.png","2_Ratio_900_L_20_R_18.png","4_Ratio_900_L_20_R_18.png","8_Ratio_900_L_20_R_18.png"],["11_Ratio_900_L_18_R_20.png","12_Ratio_900_L_18_R_20.png","13_Ratio_900_L_18_R_20.png","14_Ratio_900_L_18_R_20.png","15_Ratio_900_L_9_R_10.png","3_Ratio_900_L_9_R_10.png","5_Ratio_900_L_9_R_10.png","6_Ratio_900_L_9_R_10.png","7_Ratio_900_L_9_R_10.png","9_Ratio_900_L_18_R_20.png"]],"Rat1000":[["10_Ratio_1000_L_16_R_16.png","11_Ratio_1000_L_6_R_6.png","12_Ratio_1000_L_14_R_14.png","13_Ratio_1000_L_20_R_20.png","15_Ratio_1000_L_15_R_15.png","2_Ratio_1000_L_17_R_17.png","4_Ratio_1000_L_9_R_9.png","5_Ratio_1000_L_6_R_6.png","6_Ratio_1000_L_19_R_19.png","8_Ratio_1000_L_14_R_14.png","9_Ratio_1000_L_25_R_25.png"],["1_Ratio_1000_L_1_R_1.png","14_Ratio_1000_L_17_R_17.png","3_Ratio_1000_L_17_R_17.png","7_Ratio_1000_L_6_R_6.png"]]}},{"start_time":1552309178244,"click_time":1552309178862,"finger_time":1552309178782,"fix_duration":879.1627940918661,"trial":1,"RT":538,"MT":80,"sideResp":2,"stimulus":"img/900/equaldotanddens/L/4_Ratio_900_L_20_R_18.png","xmouse":[787,787,787,787,787,787,787,787,787,787,787,787,787,787,787,787,787,787,787,787,787,787,787,787,787,787,797,827,881,943,1018,1099],"ymouse":[510,510,510,510,510,510,510,510,510,510,510,510,510,510,510,510,510,510,510,510,510,510,510,510,510,510,492,444,363,266,157,41],"timestamp_mouse":[1,18,39,64,79,98,119,140,159,179,199,219,240,258,279,298,319,339,358,378,399,418,438,459,480,498,519,538,559,578,598,618],"xSR":741.5,"ySR":469.95,"xT1":424.9,"yT1":0,"xT2":1058.1,"yT2":0,"toosoon":0,"cond_shown":"equaldotanddens","ratio_trial":900,"smaller_num":"18","larger_num":"20","correct_side":1,"subjID":"jesusbuitrago13","gender":"0","age":"10","school":"4"},{"start_time":1552309181158,"click_time":1552309181863,"finger_time":1552309181582,"fix_duration":994.1532648887744,"trial":2,"RT":424,"MT":281,"sideResp":1,"stimulus":"img/500/equaldotsize/R/1_Ratio_500_L_9_R_18.png","xmouse":[826,826,826,826,826,826,826,826,826,826,826,826,826,826,826,826,825,823,819,807,767,749,734,719,701,650,618,596,574,563,546,540,529,517,507,497],"ymouse":[499,499,499,499,499,499,499,499,499,499,499,499,499,499,499,499,499,499,499,494,476,467,457,447,434,391,359,327,289,266,223,200,172,145,121,96],"timestamp_mouse":[11,25,44,65,84,105,126,145,164,184,206,225,245,264,284,306,325,344,364,384,405,424,445,464,486,504,525,544,566,584,604,625,644,664,685,704],"xSR":741.5,"ySR":469.95,"xT1":424.9,"yT1":0,"xT2":1058.1,"yT2":0,"toosoon":0,"cond_shown":"equaldotsize","ratio_trial":500,"smaller_num":"9","larger_num":"18","correct_side":2,"subjID":"jesusbuitrago13","gender":"0","age":"10","school":"4"},{"start_time":1552309185014,"click_time":1552309185942,"finger_time":1552309185562,"fix_duration":250,"trial":3,"RT":548,"MT":380,"sideResp":1,"stimulus":"img/900/equaldotanddens/R/5_Ratio_900_L_9_R_10.png","xmouse":[821,821,821,821,821,821,821,821,821,821,821,821,821,821,821,821,821,821,821,821,821,821,821,821,821,821,822,824,824,824,824,823,823,823,823,823,823,819,802,772,730,681,626,520,466,443,433],"ymouse":[483,483,483,483,483,483,483,483,483,483,483,483,483,483,483,483,483,483,483,483,483,483,483,483,483,481,471,459,453,448,445,442,441,441,441,441,441,440,436,426,405,373,329,224,149,110,87],"timestamp_mouse":[9,39,48,68,88,108,129,149,169,188,208,229,249,268,289,309,330,348,368,389,410,429,448,468,489,509,529,548,568,588,608,628,649,668,690,709,728,749,768,789,808,830,848,869,888,908,928],"xSR":741.5,"ySR":469.95,"xT1":424.9,"yT1":0,"xT2":1058.1,"yT2":0,"toosoon":0,"cond_shown":"equaldotanddens","ratio_trial":900,"smaller_num":"9","larger_num":"10","correct_side":2,"subjID":"jesusbuitrago13","gender":"0","age":"10","school":"4"},{"start_time":1552309190280,"click_time":1552309193162,"finger_time":1552309192223,"fix_duration":1496.077962272423,"trial":4,"RT":1943,"MT":939,"sideResp":2,"stimulus":"img/500/randomdotsizeEA/L/4_Ratio_500_L_18_R_9.png","xmouse":[806,806,806,806,806,806,806,806,806,806,806,806,806,806,806,806,806,806,806,806,806,806,806,806,806,806,806,806,806,806,806,806,806,806,806,806,806,806,806,806,806,806,806,806,806,806,806,806,806,806,806,806,806,806,806,806,806,806,806,806,806,806,806,806,806,806,806,806,806,806,806,806,806,806,806,806,806,806,806,806,806,806,806,806,806,806,806,806,806,806,805,805,805,805,805,808,817,827,837,844,851,851,851,851,852,852,853,853,853,855,862,881,897,910,928,933,937,939,941,944,947,950,952,955,961,967,976,991,1013,1057,1080,1086,1087,1087,1087,1087,1087,1087,1087,1089,1089,1090,1091,1091,1091],"ymouse":[514,514,514,514,514,514,514,514,514,514,514,514,514,514,514,514,514,514,514,514,514,514,514,514,514,514,514,514,514,514,514,514,514,514,514,514,514,514,514,514,514,514,514,514,514,514,514,514,514,514,514,514,514,514,514,514,514,514,514,514,514,514,514,514,514,514,514,514,514,514,514,514,514,514,514,514,514,514,514,514,514,514,514,514,514,514,514,514,514,514,513,513,513,513,512,500,485,468,453,441,427,427,427,426,426,426,426,426,426,423,407,379,358,335,299,285,273,264,258,248,244,238,234,230,222,219,211,201,185,155,137,132,132,132,132,132,132,131,130,124,121,115,109,103,98],"timestamp_mouse":[11,22,47,62,84,103,123,142,162,183,203,224,242,263,282,302,322,342,362,383,404,422,443,463,482,504,523,543,563,582,604,622,643,662,682,702,723,742,762,783,802,822,842,863,882,903,923,943,963,982,1003,1023,1042,1062,1082,1103,1124,1143,1162,1182,1203,1223,1242,1262,1283,1303,1323,1342,1362,1382,1403,1423,1443,1462,1482,1503,1523,1543,1563,1583,1603,1623,1644,1663,1682,1703,1723,1742,1763,1782,1803,1823,1842,1863,1882,1902,1922,1943,1963,1982,2003,2023,2042,2063,2082,2103,2123,2143,2163,2183,2202,2222,2243,2263,2282,2302,2323,2342,2362,2383,2403,2422,2442,2463,2482,2502,2523,2543,2563,2582,2603,2622,2643,2662,2683,2702,2722,2742,2762,2782,2803,2822,2842,2862,2882],"xSR":741.5,"ySR":469.95,"xT1":424.9,"yT1":0,"xT2":1058.1,"yT2":0,"toosoon":0,"cond_shown":"randomdotsizeEA","ratio_trial":500,"smaller_num":"9","larger_num":"18","correct_side":1,"subjID":"jesusbuitrago13","gender":"0","age":"10","school":"4"},{"start_time":1552309195399,"click_time":1552309196862,"finger_time":1552309196362,"fix_duration":1072.932571749749,"trial":5,"RT":963,"MT":500,"sideResp":1,"stimulus":"img/250/equaldotanddens/L/15_Ratio_250_L_12_R_3.png","xmouse":[767,767,767,767,767,767,767,767,767,767,767,767,767,767,767,767,767,767,767,767,767,767,767,767,767,767,767,767,767,767,767,767,767,767,767,767,767,767,767,767,767,767,767,766,764,764,762,759,708,642,582,524,490,457,442,430,423,418,408,406,404,403,403,404,409,414,416,420,425,427,428,429,429,429],"ymouse":[514,514,514,514,514,514,514,514,514,514,514,514,514,514,514,514,514,514,514,514,514,514,514,514,514,514,514,514,514,514,514,514,514,514,514,514,514,514,514,514,514,514,514,514,514,514,514,514,469,421,379,352,333,309,297,284,275,267,249,240,233,228,225,220,217,214,211,207,195,186,176,164,146,97],"timestamp_mouse":[9,24,43,63,84,103,123,143,164,184,204,223,244,264,283,304,324,344,363,384,403,423,443,463,484,504,524,544,563,584,603,624,645,664,684,703,724,743,763,783,804,823,844,863,884,903,923,943,963,983,1003,1023,1044,1063,1084,1104,1124,1143,1163,1183,1203,1224,1243,1264,1283,1303,1324,1343,1363,1383,1405,1423,1443,1463],"xSR":741.5,"ySR":469.95,"xT1":424.9,"yT1":0,"xT2":1058.1,"yT2":0,"toosoon":0,"cond_shown":"equaldotanddens","ratio_trial":250,"smaller_num":"3","larger_num":"12","correct_side":1,"subjID":"jesusbuitrago13","gender":"0","age":"10","school":"4"},{"start_time":1552309198176,"click_time":1552309199443,"finger_time":1552309199083,"fix_duration":250,"trial":6,"RT":907,"MT":360,"sideResp":2,"stimulus":"img/750/equaldotsize/R/3_Ratio_750_L_15_R_20.png","xmouse":[778,778,777,776,775,775,775,775,775,775,775,775,775,775,775,775,775,775,775,775,775,775,775,775,775,775,775,775,775,775,775,775,775,775,775,775,775,775,775,775,775,775,775,775,785,799,808,817,825,835,842,850,856,864,879,889,906,923,942,992,1023,1056,1082,1107],"ymouse":[516,516,516,516,515,515,515,515,515,515,515,515,515,515,515,515,515,515,515,515,515,515,515,515,515,515,515,515,515,515,515,515,515,515,515,515,515,515,515,515,515,515,515,511,487,458,441,427,415,395,382,368,358,344,321,307,285,266,244,189,158,128,105,81],"timestamp_mouse":[13,26,46,66,87,106,126,146,166,187,208,226,247,267,286,306,327,346,367,387,406,427,446,466,486,507,526,547,566,586,607,627,647,666,687,707,726,747,766,787,806,828,847,866,886,907,926,947,966,986,1006,1026,1046,1067,1086,1107,1126,1146,1166,1186,1207,1226,1246,1267],"xSR":741.5,"ySR":469.95,"xT1":424.9,"yT1":0,"xT2":1058.1,"yT2":0,"toosoon":0,"cond_shown":"equaldotsize","ratio_trial":750,"smaller_num":"15","larger_num":"20","correct_side":2,"subjID":"jesusbuitrago13","gender":"0","age":"10","school":"4"},{"start_time":1552309202767,"click_time":1552309203942,"finger_time":1552309203323,"fix_duration":702.7947436940657,"trial":7,"RT":556,"MT":619,"sideResp":1,"stimulus":"img/500/equaldotsize/L/4_Ratio_500_L_18_R_9.png","xmouse":[795,795,795,795,795,795,795,795,795,795,795,795,795,795,795,795,795,795,795,795,795,795,795,793,776,763,749,728,712,677,663,653,645,638,632,631,628,625,622,613,605,598,584,573,558,550,543,534,527,514,512,510,509,507,506,489,483,479,478],"ymouse":[543,543,543,543,543,543,543,543,543,543,543,543,543,543,543,543,543,543,543,543,543,543,543,539,523,508,490,461,439,397,380,367,357,348,336,332,321,312,302,278,262,246,226,210,189,177,168,156,147,139,139,138,138,138,138,123,115,104,99],"timestamp_mouse":[15,44,56,76,95,115,135,155,175,196,215,235,257,277,295,316,337,355,375,395,416,436,455,476,495,515,536,556,575,595,615,636,656,677,696,715,735,756,775,795,815,835,855,875,895,917,935,955,975,995,1015,1035,1056,1075,1095,1116,1135,1156,1175],"xSR":741.5,"ySR":469.95,"xT1":424.9,"yT1":0,"xT2":1058.1,"yT2":0,"toosoon":0,"cond_shown":"equaldotsize","ratio_trial":500,"smaller_num":"9","larger_num":"18","correct_side":1,"subjID":"jesusbuitrago13","gender":"0","age":"10","school":"4"},{"start_time":1552309205316,"click_time":1552309206663,"finger_time":1552309206162,"fix_duration":413.42197368177426,"trial":8,"RT":846,"MT":501,"sideResp":2,"stimulus":"img/900/randomdotsizeEA/R/9_Ratio_900_L_18_R_20.png","xmouse":[787,787,787,787,787,787,787,787,787,787,787,787,787,787,787,787,787,787,787,787,787,787,787,787,787,787,787,787,787,787,787,787,787,787,787,787,787,793,799,812,820,826,831,835,838,841,846,855,866,876,887,899,922,935,946,965,981,1006,1017,1022,1026,1031,1040,1042,1046,1048,1052,1060],"ymouse":[526,526,526,526,526,526,526,526,526,526,526,526,526,526,526,526,526,526,526,526,526,526,526,526,526,526,526,526,526,526,526,526,526,526,526,526,524,515,507,494,486,475,461,453,447,440,433,417,401,390,372,356,316,292,267,237,212,173,154,143,132,120,106,101,95,93,88,80],"timestamp_mouse":[13,27,47,67,86,106,127,146,166,186,207,226,246,267,287,307,326,347,366,387,407,426,448,467,487,507,527,547,567,586,607,626,646,668,687,706,726,746,766,786,807,827,846,866,886,907,926,946,966,987,1007,1027,1047,1067,1088,1107,1127,1147,1168,1187,1208,1227,1246,1266,1288,1306,1326,1347],"xSR":741.5,"ySR":469.95,"xT1":424.9,"yT1":0,"xT2":1058.1,"yT2":0,"toosoon":0,"cond_shown":"randomdotsizeEA","ratio_trial":900,"smaller_num":"18","larger_num":"20","correct_side":2,"subjID":"jesusbuitrago13","gender":"0","age":"10","school":"4"},{"start_time":1552309208370,"click_time":1552309209322,"finger_time":1552309208802,"fix_duration":525.3512995618782,"trial":9,"RT":432,"MT":520,"sideResp":1,"stimulus":"img/250/randomdotsizeEA/L/1_Ratio_250_L_8_R_2.png","xmouse":[811,811,811,811,811,811,811,811,811,811,811,811,811,811,811,811,811,811,811,809,799,789,781,773,755,746,727,712,695,668,658,647,640,632,616,608,597,591,588,585,585,585,585,585,573,558,530,504],"ymouse":[486,486,486,486,486,486,486,486,486,486,486,486,486,486,486,486,486,486,486,485,475,465,456,448,430,420,400,383,363,329,313,298,287,272,245,232,213,204,198,194,194,194,194,194,174,156,115,81],"timestamp_mouse":[13,34,55,73,93,114,133,153,172,193,214,233,253,273,294,313,334,352,373,393,412,432,453,474,493,514,532,552,573,593,613,634,653,673,692,712,732,753,773,792,813,833,852,873,893,913,933,952],"xSR":741.5,"ySR":469.95,"xT1":424.9,"yT1":0,"xT2":1058.1,"yT2":0,"toosoon":0,"cond_shown":"randomdotsizeEA","ratio_trial":250,"smaller_num":"2","larger_num":"8","correct_side":1,"subjID":"jesusbuitrago13","gender":"0","age":"10","school":"4"},{"start_time":1552309210676,"click_time":1552309211922,"finger_time":1552309211102,"fix_duration":250,"trial":10,"RT":426,"MT":820,"sideResp":2,"stimulus":"img/500/equaldotsize/R/2_Ratio_500_L_3_R_6.png","xmouse":[821,821,821,821,821,821,821,821,821,821,821,821,821,821,821,821,821,821,821,821,813,793,750,714,690,688,686,686,686,686,686,686,686,686,686,686,687,694,714,759,774,790,793,794,804,815,829,841,855,887,910,943,972,995,1029,1037,1038,1039,1039,1043,1044,1053,1067],"ymouse":[493,494,494,494,494,494,496,496,496,496,496,496,496,496,496,496,496,496,496,496,485,467,443,417,399,397,396,396,396,396,396,396,396,396,396,396,396,396,396,383,375,365,362,357,346,335,322,304,280,223,192,158,142,128,103,96,93,92,92,91,90,89,85],"timestamp_mouse":[12,26,47,66,88,108,128,147,167,186,208,228,248,268,287,308,328,347,368,388,408,426,447,466,486,507,527,547,566,587,607,627,646,666,688,707,727,747,768,787,807,827,847,867,886,906,927,947,967,987,1007,1027,1048,1067,1086,1106,1128,1146,1167,1187,1207,1227,1246],"xSR":741.5,"ySR":469.95,"xT1":424.9,"yT1":0,"xT2":1058.1,"yT2":0,"toosoon":0,"cond_shown":"equaldotsize","ratio_trial":500,"smaller_num":"3","larger_num":"6","correct_side":2,"subjID":"jesusbuitrago13","gender":"0","age":"10","school":"4"},{"start_time":1552309213119,"click_time":1552309214062,"finger_time":1552309213662,"fix_duration":312.50066994194515,"trial":11,"RT":543,"MT":400,"sideResp":2,"stimulus":"img/250/equaldotsize/R/11_Ratio_250_L_3_R_12.png","xmouse":[790,790,790,789,789,789,788,788,787,787,787,787,786,786,785,785,785,785,785,785,785,785,785,784,787,799,818,890,913,923,926,926,926,926,928,929,933,942,951,958,965,970,983,993,1004,1017,1032,1059],"ymouse":[535,535,535,534,534,534,534,534,534,534,534,534,534,534,534,534,534,534,534,534,534,534,534,531,521,505,487,402,355,313,280,258,236,230,223,214,203,174,154,142,130,123,112,108,101,96,90,76],"timestamp_mouse":[10,24,47,65,85,103,124,143,164,185,204,223,244,263,285,305,324,345,364,383,405,423,443,463,485,504,524,543,565,585,605,624,644,663,684,704,724,744,763,783,804,824,844,864,883,903,924,943],"xSR":741.5,"ySR":469.95,"xT1":424.9,"yT1":0,"xT2":1058.1,"yT2":0,"toosoon":0,"cond_shown":"equaldotsize","ratio_trial":250,"smaller_num":"3","larger_num":"12","correct_side":2,"subjID":"jesusbuitrago13","gender":"0","age":"10","school":"4"},{"start_time":1552309215256,"click_time":1552309216163,"finger_time":1552309215943,"fix_duration":250,"trial":12,"RT":687,"MT":220,"sideResp":1,"stimulus":"img/250/randomdotsizeEA/L/3_Ratio_250_L_8_R_2.png","xmouse":[775,775,775,775,775,775,775,775,775,775,775,775,775,775,775,775,775,775,775,775,775,775,776,778,779,781,782,782,782,782,774,767,761,754,738,690,666,640,612,586,531,507,480,466,456,444],"ymouse":[528,528,528,528,528,528,528,528,528,528,528,528,528,528,528,528,528,528,528,528,528,528,528,523,519,507,501,495,491,487,481,479,478,475,468,444,429,408,381,347,268,225,176,150,127,90],"timestamp_mouse":[9,38,47,68,87,108,127,147,168,186,208,228,247,268,286,307,327,348,366,388,408,426,446,467,487,507,526,547,567,586,606,628,646,667,687,707,726,747,767,788,807,827,846,867,886,907],"xSR":741.5,"ySR":469.95,"xT1":424.9,"yT1":0,"xT2":1058.1,"yT2":0,"toosoon":0,"cond_shown":"randomdotsizeEA","ratio_trial":250,"smaller_num":"2","larger_num":"8","correct_side":1,"subjID":"jesusbuitrago13","gender":"0","age":"10","school":"4"},{"start_time":1552309217638,"click_time":1552309219063,"finger_time":1552309218143,"fix_duration":273.52581397277754,"trial":13,"RT":505,"MT":920,"sideResp":1,"stimulus":"img/900/equaldotanddens/L/2_Ratio_900_L_20_R_18.png","xmouse":[796,796,796,796,796,796,796,796,796,796,796,796,796,796,796,796,796,796,796,796,796,796,797,797,785,766,701,689,686,683,680,657,638,619,595,580,558,553,549,546,541,531,528,527,526,525,525,525,525,525,525,525,525,525,525,525,525,525,525,525,525,525,525,525,525,524,507,500,493,489,484,478],"ymouse":[524,524,524,524,524,524,524,524,524,524,524,524,524,524,524,524,524,524,524,524,524,524,520,514,490,469,430,425,423,421,420,402,387,370,342,324,295,284,271,261,248,225,213,208,205,203,203,203,203,203,203,203,203,203,203,203,203,203,203,203,203,203,203,203,203,202,187,180,167,153,135,99],"timestamp_mouse":[14,25,46,65,85,105,124,146,166,186,206,224,244,266,286,305,326,345,365,384,406,426,445,465,485,505,525,545,565,584,604,624,645,665,685,704,725,745,766,784,804,824,846,865,885,904,925,946,965,985,1004,1024,1044,1065,1085,1106,1126,1146,1165,1184,1204,1224,1245,1265,1285,1305,1325,1344,1364,1384,1405,1425],"xSR":741.5,"ySR":469.95,"xT1":424.9,"yT1":0,"xT2":1058.1,"yT2":0,"toosoon":0,"cond_shown":"equaldotanddens","ratio_trial":900,"smaller_num":"18","larger_num":"20","correct_side":1,"subjID":"jesusbuitrago13","gender":"0","age":"10","school":"4"},{"start_time":1552309221544,"click_time":1552309222444,"finger_time":1552309222084,"fix_duration":1398.9976442740056,"trial":14,"RT":540,"MT":360,"sideResp":1,"stimulus":"img/500/equaldotanddens/L/8_Ratio_500_L_8_R_4.png","xmouse":[808,808,808,806,806,806,805,805,805,805,805,805,805,805,804,804,804,804,804,803,802,797,792,788,783,775,755,726,703,675,648,621,617,614,612,610,601,592,577,552,536,503,483,460,442,425],"ymouse":[528,528,528,528,528,528,528,528,528,528,528,528,528,528,528,528,528,528,528,528,528,527,526,525,522,519,504,485,467,449,433,415,412,408,405,401,383,366,344,311,291,233,197,152,109,69],"timestamp_mouse":[1,20,39,59,79,98,118,140,158,180,199,220,239,259,280,299,319,339,358,378,398,418,438,459,478,500,518,540,558,579,599,619,640,660,679,699,719,739,759,780,799,819,838,859,879,900],"xSR":741.5,"ySR":469.95,"xT1":424.9,"yT1":0,"xT2":1058.1,"yT2":0,"toosoon":0,"cond_shown":"equaldotanddens","ratio_trial":500,"smaller_num":"4","larger_num":"8","correct_side":1,"subjID":"jesusbuitrago13","gender":"0","age":"10","school":"4"},{"start_time":1552309223655,"click_time":1552309224803,"finger_time":1552309224204,"fix_duration":250,"trial":15,"RT":549,"MT":599,"sideResp":1,"stimulus":"img/500/equaldotsize/L/10_Ratio_500_L_4_R_2.png","xmouse":[798,800,800,803,803,803,804,804,804,804,804,804,804,804,804,804,804,804,804,804,804,804,804,804,804,781,747,705,665,633,597,586,575,558,549,541,539,538,537,536,536,534,532,526,523,518,518,517,515,515,515,515,515,515,515,505,496,490],"ymouse":[508,512,512,519,522,525,526,526,526,526,526,526,526,526,526,526,526,526,526,526,526,526,526,526,526,508,487,463,439,422,395,379,364,340,326,312,308,304,299,289,255,235,216,192,183,172,171,169,166,165,165,165,165,165,164,144,119,94],"timestamp_mouse":[16,41,48,68,87,108,129,149,169,189,208,228,247,269,289,309,328,349,367,389,407,429,449,468,487,507,527,549,568,588,608,627,647,667,688,708,727,748,767,788,808,829,848,868,888,907,928,949,967,988,1008,1028,1049,1068,1088,1108,1127,1148],"xSR":741.5,"ySR":469.95,"xT1":424.9,"yT1":0,"xT2":1058.1,"yT2":0,"toosoon":0,"cond_shown":"equaldotsize","ratio_trial":500,"smaller_num":"2","larger_num":"4","correct_side":1,"subjID":"jesusbuitrago13","gender":"0","age":"10","school":"4"},{"start_time":1552309227571,"click_time":1552309228943,"finger_time":1552309228324,"fix_duration":325.8779268268288,"trial":16,"RT":753,"MT":619,"sideResp":2,"stimulus":"img/500/equaldotanddens/R/14_Ratio_500_L_5_R_10.png","xmouse":[808,808,808,808,808,808,808,808,808,808,808,808,808,808,808,808,808,808,808,808,808,808,808,808,807,807,802,798,797,797,797,797,797,797,798,810,814,833,845,863,869,875,881,888,906,918,937,949,962,983,991,1001,1010,1020,1038,1044,1054,1058,1059,1060,1062,1062,1062,1064,1065,1067,1069,1070,1071],"ymouse":[535,535,535,535,535,535,535,535,535,535,535,535,535,535,535,535,535,535,535,535,535,535,535,535,534,534,529,526,526,526,526,526,526,525,518,498,491,458,434,392,377,364,349,336,305,286,256,237,217,189,178,166,155,142,122,117,111,109,108,108,107,107,106,106,105,103,102,100,99],"timestamp_mouse":[11,32,52,78,92,112,131,153,172,193,212,232,252,273,293,312,332,351,373,393,413,432,452,472,492,512,531,553,572,591,612,631,653,672,691,711,732,753,772,791,811,833,851,871,892,913,931,953,972,992,1012,1032,1052,1072,1092,1113,1131,1153,1171,1192,1213,1231,1251,1273,1292,1312,1331,1353,1372],"xSR":741.5,"ySR":469.95,"xT1":424.9,"yT1":0,"xT2":1058.1,"yT2":0,"toosoon":0,"cond_shown":"equaldotanddens","ratio_trial":500,"smaller_num":"5","larger_num":"10","correct_side":2,"subjID":"jesusbuitrago13","gender":"0","age":"10","school":"4"},{"start_time":1552309230234,"click_time":1552309231364,"finger_time":1552309230823,"fix_duration":250,"trial":17,"RT":589,"MT":541,"sideResp":2,"stimulus":"img/250/equaldotsize/R/11_Ratio_250_L_3_R_12.png","xmouse":[797,797,797,797,797,797,797,797,797,797,797,797,797,797,797,797,797,797,797,797,797,797,797,797,797,797,798,804,814,825,838,868,884,908,924,946,989,1014,1014,1014,1014,1014,1014,1014,1014,1014,1014,1014,1014,1014,1014,1014,1014,1014,1014,1014,1126],"ymouse":[511,511,511,511,511,511,511,511,511,511,511,511,511,511,511,511,511,511,511,511,511,511,511,511,511,511,511,501,481,456,427,353,317,259,217,170,68,14,14,14,14,14,14,14,14,14,14,14,14,14,14,14,14,14,14,14,3],"timestamp_mouse":[9,30,49,68,89,110,130,150,169,189,210,228,249,269,289,310,328,350,369,389,410,429,449,470,490,509,529,548,569,589,608,629,650,669,689,709,729,749,770,790,810,830,850,869,889,909,928,950,969,988,1008,1029,1049,1068,1088,1108,1129],"xSR":741.5,"ySR":469.95,"xT1":424.9,"yT1":0,"xT2":1058.1,"yT2":0,"toosoon":0,"cond_shown":"equaldotsize","ratio_trial":250,"smaller_num":"3","larger_num":"12","correct_side":2,"subjID":"jesusbuitrago13","gender":"0","age":"10","school":"4"},{"start_time":1552309235562,"click_time":1552309237063,"finger_time":1552309236483,"fix_duration":1396.1269507258082,"trial":18,"RT":921,"MT":580,"sideResp":1,"stimulus":"img/900/equaldotanddens/L/4_Ratio_900_L_20_R_18.png","xmouse":[787,787,787,787,787,787,787,787,787,787,787,787,787,787,787,787,787,787,787,787,787,787,787,787,787,787,787,787,787,787,787,787,787,787,787,787,787,787,787,787,787,787,784,783,777,763,749,744,742,741,739,735,728,721,717,707,703,695,691,685,673,656,634,612,595,566,557,541,533,525,510,506,501,497,493,489],"ymouse":[503,503,503,503,503,503,503,503,503,503,503,503,503,503,503,503,503,503,503,503,503,503,503,503,503,503,503,503,503,503,503,503,503,503,503,503,503,503,503,503,503,503,503,501,495,479,462,455,453,452,450,446,440,432,427,416,412,404,400,395,382,364,342,319,302,268,255,233,218,204,175,161,145,129,112,77],"timestamp_mouse":[10,37,41,60,81,102,122,140,161,181,201,220,241,261,281,301,322,340,361,381,400,421,441,462,481,500,522,541,561,581,601,622,640,661,681,700,722,741,761,781,801,820,840,861,882,900,921,941,962,981,1000,1020,1040,1061,1082,1101,1121,1140,1161,1180,1200,1221,1242,1262,1282,1300,1321,1340,1360,1380,1400,1420,1442,1461,1481,1501],"xSR":741.5,"ySR":469.95,"xT1":424.9,"yT1":0,"xT2":1058.1,"yT2":0,"toosoon":0,"cond_shown":"equaldotanddens","ratio_trial":900,"smaller_num":"18","larger_num":"20","correct_side":1,"subjID":"jesusbuitrago13","gender":"0","age":"10","school":"4"},{"start_time":1552309238939,"click_time":1552309241583,"finger_time":1552309240763,"fix_duration":894.1784043259814,"trial":19,"RT":1824,"MT":820,"sideResp":1,"stimulus":"img/750/randomdotsizeEA/L/14_Ratio_750_L_8_R_6.png","xmouse":[793,793,793,793,793,793,793,793,793,793,793,793,793,793,793,793,793,793,793,793,793,793,793,793,793,793,793,793,793,793,793,793,793,793,793,793,793,793,793,793,793,793,793,793,793,793,793,793,793,793,793,793,793,793,793,793,793,793,793,793,793,793,793,793,793,793,793,793,793,793,793,793,793,793,793,793,793,793,793,793,793,793,793,793,793,793,793,793,793,793,797,819,835,846,857,866,880,889,894,900,905,918,922,927,932,938,945,947,947,947,940,912,896,875,855,836,795,763,739,718,694,652,634,618,604,592,573,555,547,542,534,511,499],"ymouse":[518,518,518,518,518,518,518,518,518,518,518,518,518,518,518,518,518,518,518,518,518,518,518,518,518,518,518,518,518,518,518,518,518,518,518,518,518,518,518,518,518,518,518,518,518,518,518,518,518,518,518,518,518,518,518,518,518,518,518,518,518,518,518,518,518,518,518,518,518,518,518,518,518,518,518,518,518,518,518,518,518,518,518,518,518,518,518,518,518,516,502,466,444,423,404,387,362,348,339,329,322,304,296,287,279,271,260,254,254,250,247,239,237,234,231,228,219,209,202,196,188,176,168,162,156,151,141,133,130,127,122,103,92],"timestamp_mouse":[9,23,46,63,83,105,125,144,163,184,205,224,244,264,284,304,323,343,364,385,404,425,443,464,484,504,524,547,565,584,604,623,645,664,684,704,723,743,764,784,804,823,843,863,884,903,924,944,963,984,1004,1023,1044,1064,1083,1104,1123,1144,1164,1185,1205,1223,1243,1263,1284,1304,1324,1345,1364,1384,1404,1424,1444,1463,1483,1504,1525,1544,1564,1584,1603,1623,1662,1665,1684,1705,1725,1745,1764,1784,1805,1824,1843,1864,1883,1904,1923,1944,1964,1984,2003,2023,2043,2064,2084,2104,2123,2143,2163,2184,2204,2224,2243,2263,2284,2304,2324,2344,2363,2384,2404,2424,2444,2464,2484,2503,2523,2544,2564,2584,2605,2623,2644],"xSR":741.5,"ySR":469.95,"xT1":424.9,"yT1":0,"xT2":1058.1,"yT2":0,"toosoon":0,"cond_shown":"randomdotsizeEA","ratio_trial":750,"smaller_num":"6","larger_num":"8","correct_side":1,"subjID":"jesusbuitrago13","gender":"0","age":"10","school":"4"},{"start_time":1552309243375,"click_time":1552309245103,"finger_time":1552309244162,"fix_duration":471.5708497961103,"trial":20,"RT":787,"MT":941,"sideResp":2,"stimulus":"img/250/equaldotanddens/R/10_Ratio_250_L_4_R_16.png","xmouse":[794,794,794,794,794,794,794,794,794,794,794,794,794,794,794,794,794,794,794,794,794,794,794,794,794,794,794,794,794,794,794,794,794,794,794,794,794,793,795,825,850,876,902,921,946,955,956,957,958,958,959,962,966,972,982,986,988,991,996,1008,1013,1018,1023,1026,1038,1060,1085,1133,1179,1223,1229,1230,1230,1230,1218,1212,1206,1200,1193,1183,1178,1173,1169,1168,1166,1164,1156],"ymouse":[507,507,507,507,507,507,507,507,507,507,507,507,507,507,507,507,507,507,507,507,507,507,507,507,507,507,507,507,507,507,507,507,507,507,507,507,507,507,485,419,374,331,286,247,193,174,164,156,155,155,153,151,146,144,133,129,128,126,123,119,118,116,115,114,109,105,103,103,103,92,88,86,86,83,78,78,77,77,77,80,82,83,83,83,83,83,82],"timestamp_mouse":[9,27,48,70,88,108,127,149,168,187,207,229,249,269,288,308,328,349,369,388,408,427,449,469,487,508,529,549,568,587,609,628,648,669,687,707,728,748,768,787,807,828,848,869,887,909,928,947,967,988,1007,1028,1048,1069,1087,1107,1127,1147,1167,1187,1207,1228,1247,1267,1287,1307,1327,1348,1369,1387,1407,1428,1448,1468,1488,1509,1527,1549,1568,1588,1608,1628,1649,1668,1688,1708,1728],"xSR":741.5,"ySR":469.95,"xT1":424.9,"yT1":0,"xT2":1058.1,"yT2":0,"toosoon":0,"cond_shown":"equaldotanddens","ratio_trial":250,"smaller_num":"4","larger_num":"16","correct_side":2,"subjID":"jesusbuitrago13","gender":"0","age":"10","school":"4"},{"start_time":1552309246435,"click_time":1552309247384,"finger_time":1552309247063,"fix_duration":290.01277239539036,"trial":21,"RT":628,"MT":321,"sideResp":1,"stimulus":"img/250/equaldotsize/L/15_Ratio_250_L_12_R_3.png","xmouse":[812,812,812,812,812,812,812,812,812,812,812,812,812,812,812,812,812,812,812,812,812,812,811,811,808,807,807,806,805,798,781,728,719,702,687,675,652,641,630,619,612,597,589,577,567,556,534,521],"ymouse":[508,508,508,508,508,508,508,508,508,508,508,508,508,508,508,508,508,508,508,508,508,508,507,506,506,506,506,506,506,503,487,438,424,384,352,322,270,243,221,199,183,157,145,129,118,106,84,75],"timestamp_mouse":[9,27,50,68,88,107,129,147,168,188,209,228,249,268,288,309,329,349,368,388,409,428,448,467,488,507,529,547,568,588,609,628,648,667,687,707,727,747,769,788,807,827,848,867,888,908,927,949],"xSR":741.5,"ySR":469.95,"xT1":424.9,"yT1":0,"xT2":1058.1,"yT2":0,"toosoon":0,"cond_shown":"equaldotsize","ratio_trial":250,"smaller_num":"3","larger_num":"12","correct_side":1,"subjID":"jesusbuitrago13","gender":"0","age":"10","school":"4"},{"start_time":1552309249852,"click_time":1552309250884,"finger_time":1552309250563,"fix_duration":1326.0118090279407,"trial":22,"RT":711,"MT":321,"sideResp":1,"stimulus":"img/250/randomdotsizeEA/L/3_Ratio_250_L_8_R_2.png","xmouse":[815,815,815,815,815,815,815,815,815,815,815,815,815,815,815,814,810,805,804,800,792,791,789,785,780,769,767,763,761,758,756,755,752,751,750,740,733,728,725,721,703,691,668,653,637,600,584,567,555,543,519,500],"ymouse":[506,506,506,506,506,506,506,506,506,506,506,506,506,506,506,506,506,505,505,504,504,503,503,501,499,494,493,491,489,487,485,484,481,478,476,464,459,455,452,449,432,421,396,378,357,308,285,257,228,196,129,82],"timestamp_mouse":[12,43,52,72,91,111,130,152,171,191,210,230,250,272,291,310,330,350,371,392,411,431,450,470,491,510,530,551,570,590,610,632,651,671,691,711,730,751,771,792,811,831,850,872,891,910,930,951,971,992,1011,1032],"xSR":741.5,"ySR":469.95,"xT1":424.9,"yT1":0,"xT2":1058.1,"yT2":0,"toosoon":0,"cond_shown":"randomdotsizeEA","ratio_trial":250,"smaller_num":"2","larger_num":"8","correct_side":1,"subjID":"jesusbuitrago13","gender":"0","age":"10","school":"4"},{"start_time":1552309252531,"click_time":1552309253422,"finger_time":1552309252983,"fix_duration":407.0830798846906,"trial":23,"RT":452,"MT":439,"sideResp":2,"stimulus":"img/750/equaldotanddens/R/11_Ratio_750_L_12_R_16.png","xmouse":[811,809,808,808,808,808,808,808,808,808,808,808,808,808,808,808,808,808,808,808,808,818,826,836,846,858,887,902,925,944,963,1009,1030,1047,1059,1065,1077,1084,1088,1091,1094,1101,1108,1116,1123],"ymouse":[492,494,495,496,496,496,496,496,496,496,496,496,496,496,496,496,496,496,496,496,493,479,468,457,447,435,409,397,376,357,338,290,266,239,216,194,164,156,152,146,142,130,121,108,94],"timestamp_mouse":[11,33,61,72,93,112,132,152,173,192,212,232,253,273,293,313,332,352,373,393,411,432,452,472,491,513,532,553,571,592,611,631,651,672,691,712,731,753,773,792,812,832,851,871,891],"xSR":741.5,"ySR":469.95,"xT1":424.9,"yT1":0,"xT2":1058.1,"yT2":0,"toosoon":0,"cond_shown":"equaldotanddens","ratio_trial":750,"smaller_num":"12","larger_num":"16","correct_side":2,"subjID":"jesusbuitrago13","gender":"0","age":"10","school":"4"},{"start_time":1552309254863,"click_time":1552309256302,"finger_time":1552309255763,"fix_duration":758.8058980518742,"trial":24,"RT":900,"MT":539,"sideResp":1,"stimulus":"img/750/randomdotsizeEA/L/10_Ratio_750_L_4_R_3.png","xmouse":[777,777,777,777,777,777,777,777,777,777,777,777,777,777,777,777,777,777,777,777,777,777,777,777,777,777,777,777,778,778,779,779,779,779,779,779,779,779,779,779,779,779,772,756,747,730,723,714,706,695,673,655,650,633,619,605,599,594,589,582,567,559,548,542,534,525,521,518,515,510,496,486,469],"ymouse":[547,547,547,547,547,547,547,547,547,547,547,547,547,547,547,547,547,547,547,547,547,547,547,547,547,547,547,547,547,547,548,548,548,548,548,548,548,548,548,548,548,548,532,517,505,478,463,446,427,408,372,349,344,327,318,308,303,297,289,279,256,244,228,218,209,196,191,184,176,167,141,125,97],"timestamp_mouse":[14,20,39,60,80,99,121,141,160,179,200,220,240,259,281,299,320,340,359,380,399,419,441,460,479,501,520,541,560,580,599,620,641,661,680,699,720,741,760,780,801,820,839,860,880,900,919,939,960,981,999,1019,1041,1060,1080,1099,1120,1139,1160,1180,1200,1220,1239,1259,1279,1299,1319,1341,1360,1381,1399,1420,1439],"xSR":741.5,"ySR":469.95,"xT1":424.9,"yT1":0,"xT2":1058.1,"yT2":0,"toosoon":0,"cond_shown":"randomdotsizeEA","ratio_trial":750,"smaller_num":"3","larger_num":"4","correct_side":1,"subjID":"jesusbuitrago13","gender":"0","age":"10","school":"4"},{"start_time":1552309258598,"click_time":1552309259502,"finger_time":1552309259382,"fix_duration":1414.3154399453904,"trial":25,"RT":784,"MT":120,"sideResp":1,"stimulus":"img/500/randomdotsizeEA/L/5_Ratio_500_L_4_R_2.png","xmouse":[777,777,777,777,777,777,777,777,777,777,777,777,777,777,777,777,777,777,777,777,777,777,777,777,777,777,777,777,781,783,786,786,786,785,783,781,780,779,773,764,755,735,710,628,581,507],"ymouse":[507,507,507,507,507,507,507,507,507,507,507,507,507,507,507,507,507,507,507,507,507,507,507,507,507,507,507,507,505,501,497,492,488,483,480,480,479,479,475,466,449,409,350,213,152,86],"timestamp_mouse":[10,39,46,65,85,105,125,144,165,186,204,224,245,265,286,304,326,345,365,385,405,425,446,465,486,506,525,545,564,584,605,625,644,664,685,705,725,745,765,784,805,825,845,865,886,904],"xSR":741.5,"ySR":469.95,"xT1":424.9,"yT1":0,"xT2":1058.1,"yT2":0,"toosoon":0,"cond_shown":"randomdotsizeEA","ratio_trial":500,"smaller_num":"2","larger_num":"4","correct_side":1,"subjID":"jesusbuitrago13","gender":"0","age":"10","school":"4"},{"start_time":1552309261303,"click_time":1552309262403,"finger_time":1552309261942,"fix_duration":658.9955095598414,"trial":26,"RT":639,"MT":461,"sideResp":2,"stimulus":"img/250/equaldotsize/R/10_Ratio_250_L_4_R_16.png","xmouse":[810,810,810,810,810,810,810,810,810,810,810,810,810,810,810,810,810,810,810,810,810,810,810,810,810,810,810,810,810,810,812,817,822,829,833,834,838,841,854,867,887,899,910,926,934,941,951,961,981,995,1000,1012,1020,1042,1054,1062],"ymouse":[495,495,495,495,495,495,495,495,495,495,495,495,495,495,495,495,495,495,495,495,495,495,495,495,495,495,495,495,495,495,485,474,461,438,426,421,413,406,383,364,332,311,292,265,253,238,221,206,173,153,145,126,115,92,81,72],"timestamp_mouse":[2,19,41,61,79,99,121,141,160,181,201,220,241,260,281,301,319,341,360,379,401,421,440,460,479,500,521,541,560,581,600,620,639,660,679,701,720,740,759,780,800,820,840,859,879,900,920,940,960,979,1001,1020,1040,1059,1079,1100],"xSR":741.5,"ySR":469.95,"xT1":424.9,"yT1":0,"xT2":1058.1,"yT2":0,"toosoon":0,"cond_shown":"equaldotsize","ratio_trial":250,"smaller_num":"4","larger_num":"16","correct_side":2,"subjID":"jesusbuitrago13","gender":"0","age":"10","school":"4"},{"start_time":1552309264875,"click_time":1552309266262,"finger_time":1552309265762,"fix_duration":250,"trial":27,"RT":887,"MT":500,"sideResp":1,"stimulus":"img/900/randomdotsizeEA/L/4_Ratio_900_L_20_R_18.png","xmouse":[791,791,791,791,791,791,791,791,791,791,791,791,791,791,791,791,791,791,791,791,791,791,791,791,791,791,791,791,791,791,791,791,791,791,791,791,791,791,791,784,771,760,751,748,740,733,724,714,706,686,665,651,632,615,586,580,575,569,563,548,535,515,501,490,473,470,468,465,461,455],"ymouse":[523,523,523,523,523,523,523,523,523,523,523,523,523,523,523,523,523,523,523,523,523,523,523,523,523,523,523,523,523,523,523,523,523,523,523,523,523,523,523,522,515,509,504,502,494,484,474,460,444,399,363,334,307,284,250,241,234,224,215,192,180,164,154,146,132,127,122,116,108,89],"timestamp_mouse":[9,27,48,67,88,108,128,148,169,187,207,227,248,267,287,307,329,348,367,387,408,428,449,467,487,508,529,549,567,587,608,629,648,667,689,708,728,748,768,787,808,828,849,868,887,908,929,948,969,987,1009,1027,1049,1068,1088,1107,1127,1148,1168,1188,1208,1227,1248,1268,1288,1308,1327,1347,1368,1387],"xSR":741.5,"ySR":469.95,"xT1":424.9,"yT1":0,"xT2":1058.1,"yT2":0,"toosoon":0,"cond_shown":"randomdotsizeEA","ratio_trial":900,"smaller_num":"18","larger_num":"20","correct_side":1,"subjID":"jesusbuitrago13","gender":"0","age":"10","school":"4"},{"start_time":1552309268514,"click_time":1552309269863,"finger_time":1552309269363,"fix_duration":1187.5441695009858,"trial":28,"RT":849,"MT":500,"sideResp":2,"stimulus":"img/750/randomdotsizeEA/R/3_Ratio_750_L_15_R_20.png","xmouse":[777,777,777,777,777,777,777,777,777,777,777,777,777,777,777,777,777,777,777,777,777,777,777,777,777,777,780,785,787,790,791,792,795,797,800,802,803,805,806,807,808,809,813,819,826,833,841,860,875,882,901,916,950,969,989,1004,1014,1029,1041,1052,1064,1073,1084,1087,1090,1092,1095,1097],"ymouse":[526,526,526,526,526,526,526,526,526,526,526,526,526,526,526,526,526,526,526,526,526,526,526,526,526,526,525,519,515,512,510,510,503,499,495,489,486,482,480,478,477,475,467,460,451,439,424,399,378,370,347,329,289,268,249,234,222,202,187,173,159,147,129,122,116,110,106,98],"timestamp_mouse":[9,29,64,69,89,109,129,150,168,190,209,229,250,268,289,309,330,349,370,389,410,430,449,469,490,510,530,548,569,589,609,629,649,668,690,709,730,749,769,789,808,829,849,869,890,909,930,948,968,990,1009,1029,1049,1069,1090,1109,1130,1148,1169,1189,1209,1229,1248,1269,1290,1310,1330,1349],"xSR":741.5,"ySR":469.95,"xT1":424.9,"yT1":0,"xT2":1058.1,"yT2":0,"toosoon":0,"cond_shown":"randomdotsizeEA","ratio_trial":750,"smaller_num":"15","larger_num":"20","correct_side":2,"subjID":"jesusbuitrago13","gender":"0","age":"10","school":"4"},{"start_time":1552309271255,"click_time":1552309272383,"finger_time":1552309272023,"fix_duration":250,"trial":29,"RT":768,"MT":360,"sideResp":1,"stimulus":"img/750/randomdotsizeEA/R/5_Ratio_750_L_15_R_20.png","xmouse":[809,809,809,809,809,809,809,809,809,809,809,809,809,809,809,809,809,809,809,809,809,809,809,809,809,809,809,809,809,809,808,808,808,807,807,803,798,791,784,774,754,741,737,726,715,691,678,663,645,628,578,552,518,497,480,451,442],"ymouse":[505,505,505,505,505,505,505,505,505,505,505,505,505,505,505,505,505,505,505,505,505,505,505,505,505,505,505,506,506,506,506,506,506,504,502,496,488,477,466,454,433,423,419,409,400,379,367,354,339,323,275,249,210,180,157,111,93],"timestamp_mouse":[10,29,49,69,87,109,128,149,168,188,208,228,248,268,288,308,329,349,368,388,409,427,448,469,489,507,529,548,569,587,608,628,649,669,688,708,728,748,768,787,808,827,848,868,888,907,927,948,968,989,1008,1028,1048,1068,1088,1108,1128],"xSR":741.5,"ySR":469.95,"xT1":424.9,"yT1":0,"xT2":1058.1,"yT2":0,"toosoon":0,"cond_shown":"randomdotsizeEA","ratio_trial":750,"smaller_num":"15","larger_num":"20","correct_side":2,"subjID":"jesusbuitrago13","gender":"0","age":"10","school":"4"},{"start_time":1552309273902,"click_time":1552309275302,"finger_time":1552309274924,"fix_duration":639.6125259653421,"trial":30,"RT":1022,"MT":378,"sideResp":1,"stimulus":"img/500/equaldotanddens/L/5_Ratio_500_L_4_R_2.png","xmouse":[822,822,822,822,822,822,822,822,822,822,822,822,822,822,822,822,822,822,822,822,822,822,822,822,822,822,822,822,822,822,822,822,822,822,822,822,822,822,822,822,822,822,822,822,819,818,813,808,793,787,774,765,753,725,707,692,679,664,642,626,614,603,590,573,566,560,554,546,534,525,518],"ymouse":[501,501,501,501,501,501,501,501,501,501,501,501,501,501,501,501,501,501,501,501,501,501,501,501,501,501,501,501,501,501,501,501,501,501,501,501,501,501,501,501,501,501,501,501,501,501,499,496,488,483,474,468,458,435,419,407,393,378,348,325,309,293,277,249,236,224,209,192,149,103,64],"timestamp_mouse":[10,20,41,61,81,102,122,141,161,181,202,222,241,261,282,301,321,341,360,381,401,422,441,461,481,501,521,541,561,581,601,620,641,662,682,701,722,741,762,781,801,822,840,860,881,901,921,941,961,981,1001,1022,1041,1061,1080,1101,1121,1142,1160,1181,1201,1221,1240,1261,1280,1301,1321,1341,1361,1381,1400],"xSR":741.5,"ySR":469.95,"xT1":424.9,"yT1":0,"xT2":1058.1,"yT2":0,"toosoon":0,"cond_shown":"equaldotanddens","ratio_trial":500,"smaller_num":"2","larger_num":"4","correct_side":1,"subjID":"jesusbuitrago13","gender":"0","age":"10","school":"4"},{"start_time":1552309276818,"click_time":1552309278903,"finger_time":1552309277724,"fix_duration":592.1527480931261,"trial":31,"RT":906,"MT":1179,"sideResp":2,"stimulus":"img/900/equaldotsize/R/13_Ratio_900_L_18_R_20.png","xmouse":[775,775,775,775,775,775,775,775,775,775,775,775,775,775,775,775,775,775,775,775,775,775,775,775,775,775,775,775,775,775,775,775,775,775,775,775,775,775,778,784,796,807,828,835,839,839,840,841,842,843,844,846,853,854,856,857,857,857,856,847,840,835,833,832,828,819,805,768,749,735,723,718,717,717,717,717,717,726,736,754,773,793,838,855,891,925,965,1019,1036,1048,1057,1062,1072,1082,1085,1088,1089,1089,1089,1089,1090,1090,1090,1091,1092],"ymouse":[537,537,537,537,537,537,537,537,537,537,537,537,537,537,537,537,537,537,537,537,537,537,537,537,537,537,537,537,537,537,537,537,537,537,537,537,537,537,537,531,519,505,486,477,470,468,466,462,460,457,454,450,438,433,430,428,428,428,427,426,425,425,425,425,424,422,417,403,394,388,383,380,379,379,379,378,377,369,363,352,339,324,283,260,222,203,186,162,150,142,136,132,126,121,119,117,116,115,114,113,111,108,104,100,96],"timestamp_mouse":[11,25,45,65,86,106,126,145,165,186,205,224,246,264,284,305,326,346,365,384,406,426,445,465,486,506,525,545,565,585,606,625,644,666,686,706,725,745,765,785,805,826,844,866,885,906,925,945,964,985,1005,1026,1045,1064,1084,1106,1125,1145,1166,1185,1205,1225,1245,1266,1286,1306,1325,1345,1364,1386,1405,1426,1446,1464,1485,1506,1525,1545,1565,1586,1605,1625,1645,1665,1685,1706,1726,1745,1765,1784,1804,1825,1845,1866,1885,1905,1925,1944,1965,1986,2005,2026,2044,2065,2084],"xSR":741.5,"ySR":469.95,"xT1":424.9,"yT1":0,"xT2":1058.1,"yT2":0,"toosoon":0,"cond_shown":"equaldotsize","ratio_trial":900,"smaller_num":"18","larger_num":"20","correct_side":2,"subjID":"jesusbuitrago13","gender":"0","age":"10","school":"4"},{"start_time":1552309280346,"click_time":1552309281922,"finger_time":1552309281262,"fix_duration":480.21006897617593,"trial":32,"RT":916,"MT":660,"sideResp":1,"stimulus":"img/900/equaldotsize/R/9_Ratio_900_L_18_R_20.png","xmouse":[775,775,775,776,783,788,790,792,792,792,794,795,795,795,795,795,795,795,795,795,795,795,795,795,795,795,795,795,795,795,795,795,795,795,795,795,795,795,795,793,791,787,782,774,759,715,692,676,660,649,619,599,577,551,524,487,472,468,457,451,440,437,435,434,434,434,434,435,437,438,440,442,443,444,445,445,445,448,450],"ymouse":[502,502,503,507,511,512,512,513,513,513,514,514,514,514,514,514,514,514,514,514,514,514,514,514,514,514,514,514,514,514,514,514,514,514,514,514,514,514,514,513,511,508,504,497,485,455,434,420,404,387,347,323,301,279,254,218,197,190,169,156,133,125,120,116,113,112,111,110,110,109,106,104,103,101,101,101,100,100,99],"timestamp_mouse":[17,42,57,77,97,116,137,156,178,197,217,238,257,278,298,317,336,357,378,397,417,437,458,478,498,517,538,558,578,597,617,637,657,677,697,717,738,757,778,797,817,836,858,877,897,916,936,956,978,997,1017,1036,1057,1077,1097,1116,1137,1158,1176,1197,1216,1237,1258,1278,1298,1318,1336,1357,1376,1397,1416,1437,1457,1477,1497,1518,1538,1556,1576],"xSR":741.5,"ySR":469.95,"xT1":424.9,"yT1":0,"xT2":1058.1,"yT2":0,"toosoon":0,"cond_shown":"equaldotsize","ratio_trial":900,"smaller_num":"18","larger_num":"20","correct_side":2,"subjID":"jesusbuitrago13","gender":"0","age":"10","school":"4"},{"start_time":1552309284612,"click_time":1552309286003,"finger_time":1552309285583,"fix_duration":1347.187724708339,"trial":33,"RT":971,"MT":420,"sideResp":1,"stimulus":"img/900/equaldotsize/R/5_Ratio_900_L_9_R_10.png","xmouse":[767,767,767,767,767,767,767,767,767,767,767,767,767,769,770,772,772,772,772,772,772,772,772,772,772,772,772,772,772,772,772,772,772,772,772,772,772,772,772,772,772,772,772,772,772,772,771,751,725,696,668,643,606,593,582,569,566,556,552,550,550,550,549,548,547,546,545,538,529,518],"ymouse":[508,508,508,508,508,508,508,508,508,508,508,508,508,508,509,510,510,510,510,510,510,510,510,510,510,510,510,510,510,510,510,510,510,510,510,510,510,510,510,510,510,510,510,510,510,510,509,496,478,458,437,421,388,371,353,322,298,236,208,184,166,154,137,135,126,119,110,87,68,51],"timestamp_mouse":[11,37,51,72,91,112,132,151,172,192,211,232,252,271,291,311,332,351,372,391,410,431,451,471,491,511,530,551,572,592,610,631,650,670,692,712,732,752,770,792,812,831,851,872,892,912,931,959,971,991,1011,1031,1051,1071,1091,1111,1130,1150,1172,1192,1211,1232,1251,1271,1290,1311,1331,1350,1372,1391],"xSR":741.5,"ySR":469.95,"xT1":424.9,"yT1":0,"xT2":1058.1,"yT2":0,"toosoon":0,"cond_shown":"equaldotsize","ratio_trial":900,"smaller_num":"9","larger_num":"10","correct_side":2,"subjID":"jesusbuitrago13","gender":"0","age":"10","school":"4"},{"start_time":1552309288588,"click_time":1552309289983,"finger_time":1552309289623,"fix_duration":1242.6701858925555,"trial":34,"RT":1035,"MT":360,"sideResp":2,"stimulus":"img/500/randomdotsizeEA/R/6_Ratio_500_L_9_R_18.png","xmouse":[803,803,803,803,803,803,803,803,803,803,803,803,803,803,803,803,803,803,803,803,803,803,803,803,803,803,803,803,803,803,803,803,803,803,803,803,803,803,803,803,803,803,803,803,803,803,803,804,804,804,807,813,820,839,848,865,876,888,908,919,927,937,942,946,947,949,957,973,1034,1076],"ymouse":[510,510,510,510,510,510,510,510,510,510,510,510,510,510,510,510,510,510,510,510,510,510,510,510,510,510,510,510,510,510,510,510,510,510,510,510,510,510,510,510,510,510,510,510,510,510,510,511,508,496,478,458,435,386,364,332,311,290,253,235,219,206,199,193,192,190,183,169,121,87],"timestamp_mouse":[15,36,54,74,95,116,136,156,175,196,214,235,256,276,296,315,335,356,375,395,415,435,454,474,495,516,535,554,576,596,615,636,655,675,695,716,734,755,775,796,816,835,855,875,896,916,936,955,975,995,1015,1035,1056,1075,1096,1115,1135,1154,1176,1195,1214,1234,1256,1274,1296,1314,1335,1355,1374,1394],"xSR":741.5,"ySR":469.95,"xT1":424.9,"yT1":0,"xT2":1058.1,"yT2":0,"toosoon":0,"cond_shown":"randomdotsizeEA","ratio_trial":500,"smaller_num":"9","larger_num":"18","correct_side":2,"subjID":"jesusbuitrago13","gender":"0","age":"10","school":"4"},{"start_time":1552309292460,"click_time":1552309293963,"finger_time":1552309293303,"fix_duration":1354.1074704171124,"trial":35,"RT":843,"MT":660,"sideResp":1,"stimulus":"img/900/equaldotsize/L/4_Ratio_900_L_20_R_18.png","xmouse":[795,795,795,795,795,795,795,795,795,795,795,795,795,795,795,795,795,795,795,795,795,795,795,795,795,795,795,795,795,795,795,795,795,795,795,795,795,795,787,783,762,747,726,713,704,683,675,669,661,652,629,614,598,579,567,542,530,516,499,484,458,449,449,449,449,449,449,449,449,449,449,449,449,449,449,450],"ymouse":[507,507,507,507,507,507,507,507,507,507,507,507,507,507,507,507,507,507,507,507,507,507,507,507,507,507,507,507,507,507,507,507,507,507,507,507,507,507,507,507,498,487,468,452,440,416,407,399,388,375,336,315,289,256,235,194,171,150,131,117,103,101,101,101,101,101,101,101,101,101,101,101,101,101,100,96],"timestamp_mouse":[9,24,43,64,83,104,123,144,163,183,204,223,243,264,284,304,324,343,362,383,403,424,444,464,484,503,523,542,562,583,604,622,643,664,682,703,723,744,763,783,803,824,843,863,883,903,923,943,963,984,1003,1022,1043,1063,1083,1102,1122,1143,1163,1184,1203,1224,1243,1262,1284,1303,1324,1344,1364,1385,1403,1423,1442,1462,1482,1503],"xSR":741.5,"ySR":469.95,"xT1":424.9,"yT1":0,"xT2":1058.1,"yT2":0,"toosoon":0,"cond_shown":"equaldotsize","ratio_trial":900,"smaller_num":"18","larger_num":"20","correct_side":1,"subjID":"jesusbuitrago13","gender":"0","age":"10","school":"4"},{"start_time":1552309295423,"click_time":1552309296783,"finger_time":1552309296363,"fix_duration":558.4989350988255,"trial":36,"RT":940,"MT":420,"sideResp":2,"stimulus":"img/750/equaldotsize/R/7_Ratio_750_L_3_R_4.png","xmouse":[795,798,800,800,800,801,801,802,802,802,802,802,802,802,802,802,802,802,802,802,802,802,802,802,802,802,802,802,802,802,802,802,802,802,802,802,802,802,802,802,802,802,802,802,807,816,823,829,835,842,846,849,852,855,864,871,882,905,922,940,959,977,1007,1020,1042,1051,1059,1080,1089],"ymouse":[510,515,521,521,522,523,523,525,525,525,525,525,525,525,525,525,525,525,525,525,525,525,525,525,525,525,525,525,525,525,525,525,525,525,525,525,525,525,525,525,525,525,525,525,517,496,471,419,400,383,369,355,334,321,299,283,264,228,209,190,172,162,138,130,119,115,111,101,97],"timestamp_mouse":[1,20,40,60,79,100,121,141,160,180,201,221,240,261,280,300,320,340,360,381,400,419,441,460,480,501,520,541,559,581,601,621,640,660,681,701,719,740,761,779,799,820,840,860,880,900,920,940,961,980,1000,1020,1040,1060,1079,1100,1120,1140,1161,1180,1200,1219,1239,1261,1280,1300,1320,1339,1360],"xSR":741.5,"ySR":469.95,"xT1":424.9,"yT1":0,"xT2":1058.1,"yT2":0,"toosoon":0,"cond_shown":"equaldotsize","ratio_trial":750,"smaller_num":"3","larger_num":"4","correct_side":2,"subjID":"jesusbuitrago13","gender":"0","age":"10","school":"4"},{"start_time":1552309298633,"click_time":1552309299964,"finger_time":1552309299524,"fix_duration":1208.993100174684,"trial":37,"RT":891,"MT":440,"sideResp":2,"stimulus":"img/750/equaldotsize/R/11_Ratio_750_L_12_R_16.png","xmouse":[795,795,795,795,795,795,795,795,795,795,795,795,795,795,795,795,795,795,795,795,795,795,795,795,795,795,795,795,795,795,795,795,795,795,795,795,795,795,795,795,795,796,802,817,868,897,947,965,980,990,997,1007,1010,1011,1012,1014,1020,1023,1025,1029,1033,1037,1039,1043,1048,1054,1063],"ymouse":[534,534,534,534,534,534,534,534,534,534,534,534,534,534,534,534,534,534,534,534,534,534,534,534,534,534,534,534,534,534,534,534,534,534,534,534,534,534,534,534,534,530,517,485,404,356,268,239,213,195,180,164,159,157,154,152,142,136,130,124,118,110,108,104,100,95,86],"timestamp_mouse":[10,40,50,69,90,110,130,151,171,191,209,230,251,270,289,310,330,350,371,391,410,431,451,471,491,511,530,550,569,591,611,631,650,670,691,709,730,751,770,791,810,830,849,870,891,910,930,951,969,990,1010,1030,1050,1070,1089,1110,1131,1151,1170,1190,1210,1230,1251,1269,1291,1310,1331],"xSR":741.5,"ySR":469.95,"xT1":424.9,"yT1":0,"xT2":1058.1,"yT2":0,"toosoon":0,"cond_shown":"equaldotsize","ratio_trial":750,"smaller_num":"12","larger_num":"16","correct_side":2,"subjID":"jesusbuitrago13","gender":"0","age":"10","school":"4"},{"start_time":1552309302327,"click_time":1552309304804,"finger_time":1552309304363,"fix_duration":1142.6865435217564,"trial":38,"RT":2036,"MT":441,"sideResp":1,"stimulus":"img/750/randomdotsizeEA/L/14_Ratio_750_L_8_R_6.png","xmouse":[808,808,808,808,808,808,808,808,808,808,808,808,808,808,808,808,808,808,808,808,808,807,807,807,807,807,807,807,807,807,807,807,807,805,804,803,797,794,792,791,791,791,791,791,791,791,791,791,791,791,791,791,791,791,791,791,791,791,791,791,791,791,791,791,791,791,791,791,791,791,791,791,791,791,791,791,791,791,791,791,791,791,791,791,791,791,791,791,791,791,791,791,791,791,791,791,791,791,791,783,769,734,719,702,687,665,623,606,583,573,565,557,554,551,548,545,541,538,533,530,526,516,511,507],"ymouse":[520,520,520,520,520,520,520,520,520,520,520,520,520,520,520,520,520,520,520,520,520,520,520,520,520,520,520,520,520,520,520,520,520,520,519,518,513,510,508,507,507,507,507,507,507,507,507,507,507,507,507,507,507,507,507,507,507,507,507,507,507,507,507,507,507,507,507,507,507,507,507,507,507,507,507,507,507,507,507,507,507,507,507,507,507,507,507,507,507,507,507,507,507,507,507,507,507,507,507,492,476,426,399,371,347,318,268,246,220,205,195,183,178,173,169,158,152,145,135,129,121,107,101,97],"timestamp_mouse":[16,37,56,77,96,116,136,156,176,197,215,236,257,276,297,316,336,356,376,397,417,437,457,477,496,517,536,557,576,597,617,635,657,676,696,716,735,757,776,796,815,836,857,876,895,915,936,957,977,997,1016,1037,1057,1076,1097,1116,1135,1155,1177,1197,1216,1236,1256,1277,1297,1317,1336,1355,1375,1397,1416,1436,1457,1477,1496,1517,1536,1557,1576,1595,1617,1636,1656,1676,1695,1717,1737,1755,1777,1797,1816,1837,1856,1876,1897,1917,1936,1955,1975,1996,2016,2036,2056,2076,2096,2116,2136,2156,2175,2197,2216,2236,2256,2277,2296,2318,2336,2356,2376,2397,2416,2436,2456,2477],"xSR":741.5,"ySR":469.95,"xT1":424.9,"yT1":0,"xT2":1058.1,"yT2":0,"toosoon":0,"cond_shown":"randomdotsizeEA","ratio_trial":750,"smaller_num":"6","larger_num":"8","correct_side":1,"subjID":"jesusbuitrago13","gender":"0","age":"10","school":"4"},{"start_time":1552309306720,"click_time":1552309308042,"finger_time":1552309307583,"fix_duration":593.3100712074406,"trial":39,"RT":863,"MT":459,"sideResp":2,"stimulus":"img/750/equaldotanddens/R/7_Ratio_750_L_3_R_4.png","xmouse":[804,804,799,799,797,795,795,795,795,795,795,795,795,795,795,795,795,795,795,795,795,795,795,795,795,795,795,795,795,795,795,795,795,795,795,795,795,795,795,795,795,799,821,841,872,908,955,1049,1091,1132,1147,1159,1173,1178,1183,1187,1191,1195,1195,1195,1195,1195,1195,1195,1195,1147,1138],"ymouse":[527,527,527,527,527,527,527,527,527,527,527,527,527,527,527,527,527,527,527,527,527,527,527,527,527,527,527,527,527,527,527,527,527,527,527,527,527,527,527,527,526,517,482,459,421,381,327,219,175,122,102,84,61,52,43,36,27,13,4,0,0,0,0,0,0,0,4],"timestamp_mouse":[9,23,56,63,83,103,123,142,164,183,203,223,244,263,284,303,324,344,364,383,402,422,442,464,483,503,523,543,564,584,604,622,643,664,684,703,723,743,764,784,804,823,843,863,883,903,924,943,963,982,1004,1023,1042,1063,1083,1104,1124,1143,1163,1183,1202,1222,1242,1263,1282,1302,1322],"xSR":741.5,"ySR":469.95,"xT1":424.9,"yT1":0,"xT2":1058.1,"yT2":0,"toosoon":0,"cond_shown":"equaldotanddens","ratio_trial":750,"smaller_num":"3","larger_num":"4","correct_side":2,"subjID":"jesusbuitrago13","gender":"0","age":"10","school":"4"},{"start_time":1552309310534,"click_time":1552309311503,"finger_time":1552309311323,"fix_duration":250,"trial":40,"RT":789,"MT":180,"sideResp":2,"stimulus":"img/250/equaldotanddens/R/11_Ratio_250_L_3_R_12.png","xmouse":[815,815,815,815,815,815,815,815,815,815,814,810,806,805,804,803,802,802,802,802,802,802,802,802,802,802,802,802,802,802,802,802,802,802,802,802,802,809,823,846,875,936,960,982,1002,1024,1071,1091,1105],"ymouse":[515,515,515,515,515,515,515,515,515,515,515,515,514,514,514,514,513,513,513,513,513,513,513,513,513,513,513,513,513,513,513,513,513,513,513,513,513,511,503,485,460,392,352,310,266,217,140,108,85],"timestamp_mouse":[13,29,48,69,89,110,129,148,169,190,209,230,248,269,290,309,329,349,370,390,410,430,450,469,489,510,530,548,569,589,609,629,649,670,689,708,729,750,769,789,809,828,848,869,889,909,929,949,969],"xSR":741.5,"ySR":469.95,"xT1":424.9,"yT1":0,"xT2":1058.1,"yT2":0,"toosoon":0,"cond_shown":"equaldotanddens","ratio_trial":250,"smaller_num":"3","larger_num":"12","correct_side":2,"subjID":"jesusbuitrago13","gender":"0","age":"10","school":"4"},{"start_time":1552309313097,"click_time":1552309314203,"finger_time":1552309313663,"fix_duration":452.5972492194774,"trial":41,"RT":566,"MT":540,"sideResp":2,"stimulus":"img/250/equaldotsize/R/12_Ratio_250_L_5_R_20.png","xmouse":[788,788,788,788,788,788,788,788,788,788,788,788,788,788,788,788,788,788,788,788,788,788,788,788,788,789,797,807,835,856,859,872,877,886,888,889,892,895,905,912,923,941,956,991,1006,1021,1031,1037,1042,1044,1045,1046,1047,1051,1056,1059],"ymouse":[509,509,509,509,509,509,509,509,509,509,509,509,509,509,509,509,509,509,509,509,509,509,509,509,508,505,493,475,412,343,323,275,257,234,228,225,221,217,210,203,194,177,162,123,105,88,74,66,59,57,57,57,56,56,56,56],"timestamp_mouse":[9,40,47,66,85,107,126,147,166,186,207,226,247,267,286,306,326,347,366,387,407,426,447,467,486,507,526,547,566,586,605,626,646,667,687,706,726,747,766,786,806,825,845,865,886,907,926,947,965,986,1006,1027,1046,1066,1086,1106],"xSR":741.5,"ySR":469.95,"xT1":424.9,"yT1":0,"xT2":1058.1,"yT2":0,"toosoon":0,"cond_shown":"equaldotsize","ratio_trial":250,"smaller_num":"5","larger_num":"20","correct_side":2,"subjID":"jesusbuitrago13","gender":"0","age":"10","school":"4"},{"start_time":1552309316158,"click_time":1552309317283,"finger_time":1552309316943,"fix_duration":653.1662135975309,"trial":42,"RT":785,"MT":340,"sideResp":1,"stimulus":"img/750/equaldotsize/L/14_Ratio_750_L_8_R_6.png","xmouse":[801,801,801,801,801,801,801,801,801,801,801,801,801,801,801,801,801,801,801,801,801,801,801,801,801,801,801,801,801,801,801,801,801,799,798,792,778,762,743,726,701,687,674,666,660,646,641,635,631,626,600,578,564,555,546,527,520],"ymouse":[525,525,525,525,525,525,525,525,525,525,525,525,525,525,525,525,525,525,525,525,525,525,525,525,525,525,525,525,525,525,525,525,525,525,525,522,511,502,490,480,460,450,437,428,417,390,373,354,329,307,243,195,158,123,96,50,37],"timestamp_mouse":[9,25,52,66,85,106,125,145,166,186,205,226,245,266,286,305,325,346,365,385,406,425,446,465,486,506,526,546,565,584,605,626,645,665,685,705,725,745,766,785,805,824,845,864,885,905,926,945,965,984,1005,1026,1045,1066,1085,1104,1125],"xSR":741.5,"ySR":469.95,"xT1":424.9,"yT1":0,"xT2":1058.1,"yT2":0,"toosoon":0,"cond_shown":"equaldotsize","ratio_trial":750,"smaller_num":"6","larger_num":"8","correct_side":1,"subjID":"jesusbuitrago13","gender":"0","age":"10","school":"4"},{"start_time":1552309319130,"click_time":1552309320462,"finger_time":1552309319803,"fix_duration":884.0762446533008,"trial":43,"RT":673,"MT":659,"sideResp":1,"stimulus":"img/900/equaldotsize/L/2_Ratio_900_L_20_R_18.png","xmouse":[773,773,773,773,773,773,773,773,773,773,773,773,769,766,762,760,759,758,756,755,753,753,752,752,752,752,752,752,752,752,752,761,778,798,818,838,883,908,922,934,944,960,964,966,968,968,969,969,969,969,969,904,846,789,753,727,686,664,650,633,617,579,564,552,541,530,510],"ymouse":[550,550,550,550,550,550,550,550,550,550,550,550,549,548,547,547,547,547,546,546,546,546,546,546,546,546,546,546,546,546,545,510,472,423,368,319,242,213,198,183,170,150,144,141,139,138,135,135,135,135,134,126,126,126,126,125,116,109,105,102,100,94,91,89,85,83,78],"timestamp_mouse":[14,33,62,72,92,114,134,152,174,192,212,233,252,274,293,313,333,354,373,393,414,432,453,473,493,513,533,553,573,593,613,633,653,673,693,714,732,754,772,794,813,833,854,873,894,913,933,954,972,993,1012,1034,1053,1073,1093,1114,1133,1154,1173,1192,1213,1232,1253,1273,1293,1313,1332],"xSR":741.5,"ySR":469.95,"xT1":424.9,"yT1":0,"xT2":1058.1,"yT2":0,"toosoon":0,"cond_shown":"equaldotsize","ratio_trial":900,"smaller_num":"18","larger_num":"20","correct_side":1,"subjID":"jesusbuitrago13","gender":"0","age":"10","school":"4"},{"start_time":1552309322662,"click_time":1552309323463,"finger_time":1552309323263,"fix_duration":897.7794130049953,"trial":44,"RT":601,"MT":200,"sideResp":2,"stimulus":"img/500/equaldotsize/R/1_Ratio_500_L_9_R_18.png","xmouse":[801,801,801,798,795,794,794,793,793,793,793,793,793,793,793,793,793,793,793,793,793,793,792,792,792,792,792,794,799,806,822,836,843,882,923,1014,1052,1080,1102,1120,1144],"ymouse":[548,548,548,541,533,532,530,529,529,529,529,529,529,529,529,529,529,529,529,529,529,529,528,528,528,527,519,511,502,489,462,439,427,371,328,250,216,191,163,138,95],"timestamp_mouse":[10,38,42,62,82,100,120,142,161,181,201,222,242,260,280,302,322,341,362,382,402,421,441,462,482,501,521,541,561,582,601,621,641,660,681,700,722,741,761,781,800],"xSR":741.5,"ySR":469.95,"xT1":424.9,"yT1":0,"xT2":1058.1,"yT2":0,"toosoon":0,"cond_shown":"equaldotsize","ratio_trial":500,"smaller_num":"9","larger_num":"18","correct_side":2,"subjID":"jesusbuitrago13","gender":"0","age":"10","school":"4"},{"start_time":1552309325801,"click_time":1552309327103,"finger_time":1552309326703,"fix_duration":1316.271531971442,"trial":45,"RT":902,"MT":400,"sideResp":2,"stimulus":"img/750/equaldotsize/R/2_Ratio_750_L_6_R_8.png","xmouse":[789,789,789,789,789,789,789,789,789,789,789,789,789,789,789,789,789,789,789,789,789,789,789,789,789,789,789,789,789,789,789,789,789,789,789,789,789,789,789,789,789,788,788,788,795,810,826,848,875,883,891,895,898,903,906,908,912,919,949,968,993,1016,1038,1079,1097,1112],"ymouse":[510,510,510,510,510,510,510,510,510,510,510,510,510,510,510,510,510,510,510,510,510,510,510,510,510,510,510,510,510,510,510,510,510,510,510,510,510,510,510,510,510,510,508,500,482,461,438,405,365,351,340,333,331,325,322,321,318,312,286,267,239,205,175,121,102,84],"timestamp_mouse":[2,23,42,61,82,103,123,143,163,183,201,223,243,263,281,301,323,342,362,383,402,423,442,462,482,502,522,543,562,583,603,622,641,662,682,703,722,742,763,781,802,822,842,862,883,902,923,942,961,983,1002,1022,1043,1061,1082,1102,1121,1142,1163,1182,1202,1222,1242,1262,1283,1302],"xSR":741.5,"ySR":469.95,"xT1":424.9,"yT1":0,"xT2":1058.1,"yT2":0,"toosoon":0,"cond_shown":"equaldotsize","ratio_trial":750,"smaller_num":"6","larger_num":"8","correct_side":2,"subjID":"jesusbuitrago13","gender":"0","age":"10","school":"4"},{"start_time":1552309328558,"click_time":1552309329865,"finger_time":1552309329305,"fix_duration":829.134992403219,"trial":46,"RT":747,"MT":560,"sideResp":1,"stimulus":"img/750/equaldotanddens/L/1_Ratio_750_L_20_R_15.png","xmouse":[769,769,769,769,769,769,769,769,769,769,769,769,769,769,769,769,769,769,769,769,769,769,769,769,769,769,769,769,769,769,769,766,763,761,760,754,746,727,709,693,664,653,644,633,623,608,601,595,590,584,569,563,556,549,542,528,514,509,499,496,494,494,494,494,493,491],"ymouse":[515,515,515,515,515,515,515,515,515,515,515,515,515,515,515,515,515,515,515,515,515,515,515,515,515,515,515,515,515,515,515,515,515,515,515,513,504,484,467,450,411,391,372,352,336,307,293,281,269,253,218,204,191,178,168,148,131,125,115,112,107,107,105,105,104,95],"timestamp_mouse":[9,27,53,67,87,107,127,147,168,187,207,227,248,266,287,307,328,348,366,386,408,427,448,467,486,506,526,547,567,587,606,626,646,668,688,706,726,746,767,787,807,827,847,866,887,906,926,946,968,987,1007,1027,1047,1067,1089,1106,1126,1146,1167,1188,1207,1227,1247,1267,1286,1307],"xSR":741.5,"ySR":469.95,"xT1":424.9,"yT1":0,"xT2":1058.1,"yT2":0,"toosoon":0,"cond_shown":"equaldotanddens","ratio_trial":750,"smaller_num":"15","larger_num":"20","correct_side":1,"subjID":"jesusbuitrago13","gender":"0","age":"10","school":"4"},{"start_time":1552309332537,"click_time":1552309333905,"finger_time":1552309333526,"fix_duration":250,"trial":47,"RT":989,"MT":379,"sideResp":2,"stimulus":"img/250/randomdotsizeEA/R/4_Ratio_250_L_3_R_12.png","xmouse":[804,804,804,804,804,804,804,804,804,804,804,804,804,804,804,804,804,804,804,804,804,804,804,804,804,804,804,804,804,804,804,804,804,804,804,803,801,801,801,801,801,801,801,801,803,805,815,822,831,845,856,882,896,913,930,941,960,965,974,982,991,1011,1020,1028,1033,1040,1050,1057,1064],"ymouse":[519,519,519,519,519,519,519,519,519,519,519,519,519,519,519,519,519,519,519,519,519,519,519,519,519,519,519,519,519,519,519,519,519,519,519,519,518,518,518,518,518,518,518,518,518,518,518,509,498,474,454,408,385,359,333,313,276,258,232,216,199,174,164,153,145,137,118,107,98],"timestamp_mouse":[13,27,47,74,87,108,129,147,167,189,209,227,249,268,287,307,327,349,367,389,408,427,449,469,489,508,528,548,568,587,608,629,648,670,688,708,728,749,769,788,809,827,849,867,888,907,927,948,967,989,1008,1028,1047,1068,1087,1108,1127,1149,1167,1187,1208,1227,1247,1267,1288,1308,1327,1348,1367],"xSR":741.5,"ySR":469.95,"xT1":424.9,"yT1":0,"xT2":1058.1,"yT2":0,"toosoon":0,"cond_shown":"randomdotsizeEA","ratio_trial":250,"smaller_num":"3","larger_num":"12","correct_side":2,"subjID":"jesusbuitrago13","gender":"0","age":"10","school":"4"},{"start_time":1552309335144,"click_time":1552309336665,"finger_time":1552309335964,"fix_duration":616.6849576299331,"trial":48,"RT":820,"MT":701,"sideResp":2,"stimulus":"img/250/equaldotsize/R/4_Ratio_250_L_3_R_12.png","xmouse":[795,795,795,795,795,795,795,795,795,795,795,795,795,795,795,795,795,795,795,795,795,795,795,795,795,795,795,795,795,795,795,795,795,795,798,800,810,816,823,828,836,855,863,871,882,896,928,941,954,964,971,979,981,984,986,989,992,995,996,998,1002,1028,1051,1071,1083,1088,1090,1090,1090,1090,1091,1091,1091,1091,1091,1091,1091],"ymouse":[524,524,524,524,524,524,524,524,524,524,524,524,524,524,524,524,524,524,524,524,524,524,524,524,524,524,524,524,524,524,524,524,524,524,521,519,509,503,495,487,476,454,446,436,425,413,385,368,347,314,291,246,224,205,186,168,145,135,131,128,124,122,122,120,119,117,116,116,116,116,116,112,111,109,105,100,86],"timestamp_mouse":[10,20,47,61,82,102,121,142,161,180,201,222,241,260,281,300,321,341,360,380,401,420,441,462,481,501,520,542,562,581,601,620,641,662,681,700,720,742,761,781,801,820,840,861,881,901,920,942,961,982,1000,1021,1041,1061,1080,1102,1120,1141,1160,1180,1200,1221,1241,1262,1280,1301,1321,1340,1362,1380,1401,1420,1440,1461,1480,1502,1520],"xSR":741.5,"ySR":469.95,"xT1":424.9,"yT1":0,"xT2":1058.1,"yT2":0,"toosoon":0,"cond_shown":"equaldotsize","ratio_trial":250,"smaller_num":"3","larger_num":"12","correct_side":2,"subjID":"jesusbuitrago13","gender":"0","age":"10","school":"4"},{"start_time":1552309338706,"click_time":1552309339684,"finger_time":1552309339145,"fix_duration":1239.0748294106756,"trial":49,"RT":439,"MT":539,"sideResp":2,"stimulus":"img/500/equaldotsize/R/6_Ratio_500_L_9_R_18.png","xmouse":[778,778,778,778,778,778,778,778,778,778,778,778,778,779,782,783,784,786,790,796,804,810,818,832,838,847,856,868,890,908,914,929,937,957,966,976,987,1000,1018,1024,1027,1027,1029,1032,1035,1040,1045,1053,1069,1076],"ymouse":[507,507,507,507,507,507,507,507,507,507,507,507,507,507,506,505,503,500,495,486,477,470,461,443,432,419,402,384,345,315,308,282,265,236,225,213,204,193,177,171,167,166,164,161,157,152,146,135,106,92],"timestamp_mouse":[1,20,40,59,79,99,120,138,159,179,198,219,240,259,279,299,318,339,359,380,398,419,439,458,478,499,519,539,558,579,599,619,639,659,678,698,718,739,758,779,798,819,838,859,879,900,920,939,958,978],"xSR":741.5,"ySR":469.95,"xT1":424.9,"yT1":0,"xT2":1058.1,"yT2":0,"toosoon":0,"cond_shown":"equaldotsize","ratio_trial":500,"smaller_num":"9","larger_num":"18","correct_side":2,"subjID":"jesusbuitrago13","gender":"0","age":"10","school":"4"},{"start_time":1552309343455,"click_time":1552309344565,"finger_time":1552309343966,"fix_duration":1268.5398964014996,"trial":50,"RT":511,"MT":599,"sideResp":1,"stimulus":"img/900/equaldotanddens/L/10_Ratio_900_L_20_R_18.png","xmouse":[768,768,768,768,768,768,768,768,768,768,768,768,768,768,768,768,772,772,775,776,779,781,789,798,808,828,835,841,844,844,844,844,842,834,817,745,694,653,628,614,592,581,564,554,534,524,524,524,524,524,524,524,524,524,453,448],"ymouse":[533,533,533,533,533,533,533,533,533,533,533,533,533,533,533,533,530,529,526,525,520,517,504,493,479,450,437,426,418,413,406,404,402,398,391,354,321,285,252,215,136,100,56,37,8,0,0,0,0,0,0,0,0,0,0,10],"timestamp_mouse":[10,37,50,69,91,110,131,150,169,191,210,230,250,269,290,309,329,350,369,390,410,431,451,469,490,511,529,549,569,590,609,631,649,671,689,709,729,750,769,789,810,830,849,871,892,910,929,950,969,991,1010,1030,1051,1071,1091,1110],"xSR":741.5,"ySR":469.95,"xT1":424.9,"yT1":0,"xT2":1058.1,"yT2":0,"toosoon":0,"cond_shown":"equaldotanddens","ratio_trial":900,"smaller_num":"18","larger_num":"20","correct_side":1,"subjID":"jesusbuitrago13","gender":"0","age":"10","school":"4"},{"start_time":1552309346174,"click_time":1552309347444,"finger_time":1552309346945,"fix_duration":646.0633201276497,"trial":51,"RT":771,"MT":499,"sideResp":1,"stimulus":"img/500/equaldotsize/L/13_Ratio_500_L_12_R_6.png","xmouse":[789,789,789,789,789,789,789,789,789,789,789,789,789,789,789,789,789,789,789,789,789,789,789,789,789,789,789,789,789,789,789,789,789,789,786,782,763,746,729,692,678,664,653,632,618,596,557,534,511,511,518,524,526,526,525,516,509,500,498,495,493,491,488,482],"ymouse":[534,534,534,534,534,534,534,534,534,534,534,534,534,534,534,534,534,534,534,534,534,534,534,534,534,534,534,534,534,534,534,534,534,534,533,531,521,511,502,480,470,459,450,426,409,385,332,295,241,226,215,206,196,185,163,147,133,117,114,109,107,106,104,99],"timestamp_mouse":[11,38,50,70,91,112,131,152,171,192,212,230,250,271,292,311,332,351,372,391,411,431,452,472,492,510,530,551,572,591,611,631,652,670,691,711,730,751,771,791,812,832,852,873,890,910,930,951,973,990,1011,1031,1050,1070,1090,1111,1131,1151,1171,1191,1211,1230,1250,1270],"xSR":741.5,"ySR":469.95,"xT1":424.9,"yT1":0,"xT2":1058.1,"yT2":0,"toosoon":0,"cond_shown":"equaldotsize","ratio_trial":500,"smaller_num":"6","larger_num":"12","correct_side":1,"subjID":"jesusbuitrago13","gender":"0","age":"10","school":"4"},{"start_time":1552309351446,"click_time":1552309352886,"finger_time":1552309352406,"fix_duration":1478.8367561656246,"trial":52,"RT":960,"MT":480,"sideResp":2,"stimulus":"img/250/equaldotanddens/R/8_Ratio_250_L_1_R_4.png","xmouse":[796,796,796,796,796,796,796,796,796,796,796,796,796,796,796,796,796,796,796,796,796,796,796,796,796,796,796,796,796,796,796,796,796,796,796,796,796,796,796,796,796,796,798,801,802,805,816,824,833,842,854,879,890,898,912,920,935,943,953,959,967,977,983,987,991,1003,1008,1017,1026,1036,1050,1075,1088],"ymouse":[531,531,531,531,531,531,531,531,531,531,531,531,531,531,531,531,531,531,531,531,531,531,531,531,531,531,531,531,531,531,531,531,531,531,531,531,531,531,531,531,531,531,529,524,519,512,497,484,467,449,429,391,372,355,332,319,291,279,267,257,247,233,223,216,211,196,189,179,169,156,142,116,97],"timestamp_mouse":[1,20,47,59,78,100,120,138,159,180,200,218,238,260,280,299,319,339,358,380,400,420,439,460,479,499,519,540,560,579,600,618,639,660,680,699,718,739,758,780,799,819,839,858,879,900,918,939,960,978,999,1018,1039,1059,1080,1099,1118,1139,1158,1178,1199,1219,1239,1259,1279,1300,1318,1338,1358,1378,1399,1418,1439],"xSR":741.5,"ySR":469.95,"xT1":424.9,"yT1":0,"xT2":1058.1,"yT2":0,"toosoon":0,"cond_shown":"equaldotanddens","ratio_trial":250,"smaller_num":"1","larger_num":"4","correct_side":2,"subjID":"jesusbuitrago13","gender":"0","age":"10","school":"4"},{"start_time":1552309353930,"click_time":1552309355344,"finger_time":1552309354744,"fix_duration":303.5845438686774,"trial":53,"RT":814,"MT":600,"sideResp":1,"stimulus":"img/500/randomdotsizeEA/L/4_Ratio_500_L_18_R_9.png","xmouse":[779,779,779,779,779,779,779,779,779,779,779,779,779,779,779,779,779,779,779,779,779,779,779,779,779,779,779,779,779,779,779,779,779,779,779,779,779,779,772,751,730,683,661,644,626,612,588,576,556,543,530,505,498,498,496,496,500,500,500,498,495,492,492,495,498,501,502,501,499,497,495],"ymouse":[536,536,536,536,536,536,536,536,536,536,536,536,536,536,536,536,536,536,536,536,536,536,536,536,536,536,536,536,536,536,536,536,536,536,536,536,536,536,530,518,505,476,461,447,433,418,384,365,338,323,310,291,286,286,285,279,254,229,213,200,189,182,180,178,176,171,156,138,123,110,95],"timestamp_mouse":[15,35,54,76,95,114,135,156,176,195,216,235,254,276,295,314,335,356,375,394,415,435,456,474,495,515,535,555,576,595,614,634,655,676,696,714,736,755,775,795,814,835,855,874,894,916,934,955,974,995,1015,1035,1055,1075,1095,1115,1135,1155,1174,1195,1216,1235,1255,1275,1296,1315,1334,1356,1375,1394,1414],"xSR":741.5,"ySR":469.95,"xT1":424.9,"yT1":0,"xT2":1058.1,"yT2":0,"toosoon":0,"cond_shown":"randomdotsizeEA","ratio_trial":500,"smaller_num":"9","larger_num":"18","correct_side":1,"subjID":"jesusbuitrago13","gender":"0","age":"10","school":"4"},{"start_time":1552309358772,"click_time":1552309359665,"finger_time":1552309359464,"fix_duration":1147.8620685525914,"trial":54,"RT":692,"MT":201,"sideResp":1,"stimulus":"img/250/equaldotsize/L/5_Ratio_250_L_24_R_6.png","xmouse":[780,780,780,780,780,780,780,780,780,780,780,780,780,780,780,780,780,780,780,780,780,780,780,780,780,780,780,780,780,780,780,780,771,762,726,695,681,668,659,633,608,583,551,494,470],"ymouse":[527,527,527,527,527,527,527,527,527,527,527,527,527,527,527,527,527,527,527,527,527,527,527,527,527,527,527,527,527,527,527,527,522,517,502,487,478,470,464,421,364,295,227,127,83],"timestamp_mouse":[12,45,52,74,93,112,132,153,174,194,213,234,253,273,292,313,334,353,374,393,413,434,454,473,493,512,533,552,573,593,613,634,652,674,692,712,732,753,772,792,813,833,854,875,893],"xSR":741.5,"ySR":469.95,"xT1":424.9,"yT1":0,"xT2":1058.1,"yT2":0,"toosoon":0,"cond_shown":"equaldotsize","ratio_trial":250,"smaller_num":"6","larger_num":"24","correct_side":1,"subjID":"jesusbuitrago13","gender":"0","age":"10","school":"4"},{"start_time":1552309362021,"click_time":1552309363045,"finger_time":1552309362764,"fix_duration":1153.1816147637905,"trial":55,"RT":743,"MT":281,"sideResp":2,"stimulus":"img/500/equaldotanddens/R/6_Ratio_500_L_9_R_18.png","xmouse":[814,814,814,814,814,814,814,814,814,814,814,814,814,814,814,814,814,814,814,814,814,814,814,814,814,814,814,814,814,814,814,814,814,814,815,824,835,862,874,886,901,922,966,987,1014,1032,1046,1071,1084,1096,1113,1123],"ymouse":[543,543,543,543,543,543,543,543,543,543,543,543,543,543,543,543,543,543,543,543,543,543,543,543,543,543,543,543,540,539,536,533,524,521,505,489,472,436,415,395,375,357,326,310,288,272,255,215,190,161,123,92],"timestamp_mouse":[9,23,44,63,84,103,124,145,165,185,204,224,245,265,284,304,324,344,364,384,405,424,445,464,484,504,524,544,563,584,604,623,643,664,684,704,723,743,764,784,804,824,843,864,883,903,924,944,964,984,1005,1024],"xSR":741.5,"ySR":469.95,"xT1":424.9,"yT1":0,"xT2":1058.1,"yT2":0,"toosoon":0,"cond_shown":"equaldotanddens","ratio_trial":500,"smaller_num":"9","larger_num":"18","correct_side":2,"subjID":"jesusbuitrago13","gender":"0","age":"10","school":"4"},{"start_time":1552309365558,"click_time":1552309367365,"finger_time":1552309366384,"fix_duration":1491.4188936542243,"trial":56,"RT":826,"MT":981,"sideResp":2,"stimulus":"img/500/randomdotsizeEA/R/14_Ratio_500_L_5_R_10.png","xmouse":[789,789,789,788,788,788,788,787,787,786,786,786,786,786,786,786,786,786,786,786,786,786,786,786,786,786,786,788,792,796,801,802,803,803,803,803,803,803,801,799,785,774,764,753,739,707,689,668,652,617,604,600,599,599,599,599,599,605,618,657,683,709,735,768,798,844,876,900,925,946,989,1008,1024,1040,1065,1080,1084,1096,1101,1105,1108,1110,1110,1110,1110,1110,1110,1110,1110,1110,1110],"ymouse":[498,498,498,499,499,499,499,499,499,500,501,503,504,505,505,505,505,505,505,505,505,505,505,505,505,505,506,506,506,504,498,496,492,490,488,487,486,484,483,481,470,463,458,449,436,401,381,356,343,324,319,317,317,317,316,316,319,325,333,352,358,364,366,367,368,368,368,368,368,368,358,350,340,330,303,279,269,243,225,208,176,163,151,140,133,120,117,111,108,103,93],"timestamp_mouse":[12,40,46,66,87,108,126,148,167,186,206,226,246,267,288,307,327,346,366,386,406,428,447,466,488,507,527,546,566,586,607,626,646,668,688,708,727,747,767,786,806,826,846,866,888,906,928,947,968,989,1006,1026,1046,1067,1088,1107,1127,1146,1167,1189,1206,1228,1247,1267,1287,1306,1328,1347,1368,1386,1407,1426,1447,1468,1489,1507,1527,1546,1567,1588,1606,1627,1647,1668,1687,1707,1726,1746,1767,1787,1807],"xSR":741.5,"ySR":469.95,"xT1":424.9,"yT1":0,"xT2":1058.1,"yT2":0,"toosoon":0,"cond_shown":"randomdotsizeEA","ratio_trial":500,"smaller_num":"5","larger_num":"10","correct_side":2,"subjID":"jesusbuitrago13","gender":"0","age":"10","school":"4"},{"start_time":1552309370797,"click_time":1552309372165,"finger_time":1552309371525,"fix_duration":869.2777068505587,"trial":57,"RT":728,"MT":640,"sideResp":1,"stimulus":"img/900/randomdotsizeEA/R/3_Ratio_900_L_9_R_10.png","xmouse":[805,805,805,805,805,805,805,805,805,805,805,805,805,805,805,805,805,805,805,805,805,805,805,803,803,802,801,801,801,801,801,800,799,795,780,749,725,703,669,659,651,648,646,646,644,644,644,643,642,641,640,639,637,635,631,627,620,615,604,597,592,585,575,556,546,540,535,528,519],"ymouse":[534,534,534,534,534,534,534,534,534,534,534,534,534,534,534,534,534,534,534,534,534,534,534,531,529,527,524,524,524,524,524,523,523,521,517,505,495,484,464,456,448,444,439,432,425,420,413,400,394,390,383,380,369,361,350,337,312,295,258,236,216,194,171,120,83,61,43,31,27],"timestamp_mouse":[9,29,48,67,88,109,129,148,169,189,209,228,248,267,289,308,328,347,367,388,408,428,448,468,487,507,529,549,567,587,608,627,647,668,688,707,728,748,768,788,807,827,847,868,887,907,927,949,968,988,1007,1029,1049,1067,1087,1108,1128,1147,1168,1187,1209,1227,1248,1267,1288,1308,1327,1348,1367],"xSR":741.5,"ySR":469.95,"xT1":424.9,"yT1":0,"xT2":1058.1,"yT2":0,"toosoon":0,"cond_shown":"randomdotsizeEA","ratio_trial":900,"smaller_num":"9","larger_num":"10","correct_side":2,"subjID":"jesusbuitrago13","gender":"0","age":"10","school":"4"},{"start_time":1552309374585,"click_time":1552309375505,"finger_time":1552309375364,"fix_duration":1118.602401217013,"trial":58,"RT":779,"MT":141,"sideResp":2,"stimulus":"img/900/randomdotsizeEA/R/12_Ratio_900_L_18_R_20.png","xmouse":[799,799,799,799,799,799,799,799,799,799,799,799,799,799,799,799,799,799,799,799,799,799,799,799,799,799,800,803,805,807,808,810,812,814,820,821,823,824,828,833,841,851,874,913,1018,1067,1139],"ymouse":[507,507,507,507,507,507,507,507,507,507,507,507,507,507,507,507,507,507,507,507,507,507,507,507,507,507,506,504,501,497,497,495,493,490,483,483,479,477,471,464,452,434,398,343,215,149,67],"timestamp_mouse":[2,20,48,59,80,100,120,139,160,179,200,219,241,260,280,300,320,340,361,380,401,421,441,460,481,500,519,540,559,580,601,619,641,661,681,700,720,740,761,779,799,820,841,860,879,900,919],"xSR":741.5,"ySR":469.95,"xT1":424.9,"yT1":0,"xT2":1058.1,"yT2":0,"toosoon":0,"cond_shown":"randomdotsizeEA","ratio_trial":900,"smaller_num":"18","larger_num":"20","correct_side":2,"subjID":"jesusbuitrago13","gender":"0","age":"10","school":"4"},{"start_time":1552309379590,"click_time":1552309380664,"finger_time":1552309380184,"fix_duration":984.6002229494803,"trial":59,"RT":594,"MT":480,"sideResp":2,"stimulus":"img/250/randomdotsizeEA/R/12_Ratio_250_L_5_R_20.png","xmouse":[814,814,814,814,814,814,814,814,814,814,814,814,814,814,814,814,812,811,809,809,808,806,805,804,804,804,804,804,806,810,814,819,826,842,851,869,880,908,924,938,953,966,978,1004,1017,1023,1026,1032,1037,1041,1043,1047,1053,1061],"ymouse":[534,534,534,534,534,534,534,534,534,534,534,534,534,534,534,534,533,531,526,524,521,516,511,507,503,497,492,480,472,463,453,441,428,399,382,353,332,279,253,231,207,185,168,138,124,119,117,115,113,112,110,108,103,93],"timestamp_mouse":[16,44,55,76,95,116,135,154,175,195,216,235,255,274,294,315,336,354,375,395,414,435,455,475,494,514,535,556,574,594,614,634,656,674,695,715,736,757,775,794,814,834,854,874,895,916,935,957,974,994,1014,1035,1055,1074],"xSR":741.5,"ySR":469.95,"xT1":424.9,"yT1":0,"xT2":1058.1,"yT2":0,"toosoon":0,"cond_shown":"randomdotsizeEA","ratio_trial":250,"smaller_num":"5","larger_num":"20","correct_side":2,"subjID":"jesusbuitrago13","gender":"0","age":"10","school":"4"},{"start_time":1552309384464,"click_time":1552309385465,"finger_time":1552309384966,"fix_duration":1377.908629125018,"trial":60,"RT":502,"MT":499,"sideResp":2,"stimulus":"img/900/equaldotanddens/R/9_Ratio_900_L_18_R_20.png","xmouse":[794,794,794,794,794,794,794,794,794,794,794,794,794,794,794,794,794,794,794,794,794,794,796,802,808,825,836,848,861,878,905,925,936,943,951,966,971,974,977,980,994,996,1003,1007,1014,1018,1022,1031,1039,1048,1060],"ymouse":[522,522,522,522,522,522,522,522,522,522,522,522,522,522,522,522,522,522,522,522,522,519,511,499,486,452,429,406,377,341,284,245,223,205,189,170,164,160,157,155,146,144,137,133,123,120,117,112,108,104,95],"timestamp_mouse":[9,20,41,61,81,100,122,141,161,182,201,221,242,262,282,301,321,341,362,380,400,422,442,461,480,502,520,542,560,580,600,621,640,660,680,701,722,740,761,782,800,821,841,861,882,901,920,941,962,981,1001],"xSR":741.5,"ySR":469.95,"xT1":424.9,"yT1":0,"xT2":1058.1,"yT2":0,"toosoon":0,"cond_shown":"equaldotanddens","ratio_trial":900,"smaller_num":"18","larger_num":"20","correct_side":2,"subjID":"jesusbuitrago13","gender":"0","age":"10","school":"4"},{"start_time":1552309387676,"click_time":1552309389267,"finger_time":1552309388486,"fix_duration":909.374649482479,"trial":61,"RT":810,"MT":781,"sideResp":1,"stimulus":"img/750/equaldotsize/L/8_Ratio_750_L_4_R_3.png","xmouse":[797,797,797,797,797,798,798,798,798,798,798,798,798,798,798,798,798,798,798,798,798,798,798,798,798,798,798,798,798,798,797,796,796,796,795,793,793,792,791,788,783,777,774,771,764,762,760,757,752,734,724,716,708,684,672,656,640,625,614,598,585,576,566,554,533,524,517,515,513,513,513,513,513,513,511,509,508,508,507,503],"ymouse":[515,515,515,515,515,513,512,511,511,511,511,511,511,511,511,511,511,511,511,511,511,511,511,511,511,507,505,502,499,498,497,495,495,492,490,487,486,485,483,476,464,451,444,436,425,421,416,411,403,383,370,360,351,330,318,305,291,277,266,248,234,224,213,198,172,159,149,146,143,143,143,143,142,140,133,130,126,124,119,94],"timestamp_mouse":[14,38,51,72,91,111,131,151,170,191,210,230,251,270,290,311,332,350,371,391,411,431,451,470,491,511,531,550,571,591,611,631,650,672,690,711,731,750,770,790,810,830,851,872,891,910,931,952,970,990,1010,1030,1051,1072,1091,1110,1130,1150,1170,1190,1210,1231,1250,1270,1290,1310,1330,1350,1370,1391,1411,1430,1451,1470,1492,1510,1531,1551,1570,1591],"xSR":741.5,"ySR":469.95,"xT1":424.9,"yT1":0,"xT2":1058.1,"yT2":0,"toosoon":0,"cond_shown":"equaldotsize","ratio_trial":750,"smaller_num":"3","larger_num":"4","correct_side":1,"subjID":"jesusbuitrago13","gender":"0","age":"10","school":"4"},{"start_time":1552309391696,"click_time":1552309393088,"finger_time":1552309392666,"fix_duration":1466.6639936618183,"trial":62,"RT":970,"MT":422,"sideResp":1,"stimulus":"img/250/randomdotsizeEA/L/15_Ratio_250_L_12_R_3.png","xmouse":[794,794,794,794,794,794,794,794,794,794,794,794,794,794,794,794,794,794,794,794,794,794,794,794,794,794,794,794,794,794,794,794,794,796,801,804,804,805,805,805,805,805,805,805,803,800,795,788,776,766,754,741,713,701,685,665,643,618,577,561,557,554,546,540,534,527,519,511,503,501],"ymouse":[513,513,513,513,513,513,513,513,513,513,513,513,513,513,513,513,513,513,513,513,513,513,513,513,513,513,513,513,513,513,513,513,513,510,505,502,501,501,501,501,501,500,495,492,489,484,480,475,464,455,439,428,405,394,383,371,362,350,333,325,321,317,293,274,250,226,199,171,119,87],"timestamp_mouse":[11,42,52,71,90,111,132,150,170,191,212,231,250,271,291,311,331,350,372,391,411,430,450,471,490,512,531,551,571,592,610,630,650,670,690,711,731,751,771,790,811,832,852,871,891,912,930,950,970,991,1010,1030,1052,1070,1092,1111,1130,1150,1170,1190,1210,1230,1252,1271,1291,1310,1330,1351,1370,1392],"xSR":741.5,"ySR":469.95,"xT1":424.9,"yT1":0,"xT2":1058.1,"yT2":0,"toosoon":0,"cond_shown":"randomdotsizeEA","ratio_trial":250,"smaller_num":"3","larger_num":"12","correct_side":1,"subjID":"jesusbuitrago13","gender":"0","age":"10","school":"4"},{"start_time":1552309394576,"click_time":1552309395827,"finger_time":1552309395366,"fix_duration":549.5140380486986,"trial":63,"RT":790,"MT":461,"sideResp":2,"stimulus":"img/250/equaldotsize/R/12_Ratio_250_L_5_R_20.png","xmouse":[799,799,799,799,799,799,799,799,799,799,799,799,799,799,799,799,799,799,799,799,799,799,799,799,799,799,799,800,800,801,801,802,803,808,813,814,820,824,827,841,850,862,870,880,899,909,920,929,937,960,972,982,991,997,1007,1014,1025,1033,1047,1052,1055,1058,1059],"ymouse":[532,532,532,532,532,532,532,532,532,532,532,532,532,532,532,532,532,532,532,532,532,532,532,532,532,532,532,531,529,526,525,523,521,515,508,505,498,490,485,465,450,430,413,394,365,352,333,322,311,289,278,266,252,241,217,205,186,173,140,125,112,103,94],"timestamp_mouse":[13,33,51,71,90,110,131,151,170,191,210,231,250,270,290,310,331,352,371,391,410,430,450,471,491,510,531,550,572,592,611,631,651,672,691,711,730,751,770,790,810,830,850,870,890,911,930,951,971,990,1012,1031,1050,1071,1090,1110,1131,1151,1172,1190,1211,1230,1251],"xSR":741.5,"ySR":469.95,"xT1":424.9,"yT1":0,"xT2":1058.1,"yT2":0,"toosoon":0,"cond_shown":"equaldotsize","ratio_trial":250,"smaller_num":"5","larger_num":"20","correct_side":2,"subjID":"jesusbuitrago13","gender":"0","age":"10","school":"4"},{"start_time":1552309396918,"click_time":1552309398166,"finger_time":1552309397648,"fix_duration":250,"trial":64,"RT":730,"MT":518,"sideResp":2,"stimulus":"img/250/equaldotsize/R/9_Ratio_250_L_3_R_12.png","xmouse":[802,802,802,802,802,802,802,802,802,802,802,802,802,802,802,802,802,802,802,802,802,802,802,802,802,802,802,808,811,813,813,813,813,817,819,828,846,854,862,871,876,881,893,897,903,907,914,918,921,924,928,931,942,949,956,964,971,991,1010,1024,1038,1053,1077],"ymouse":[526,526,526,526,526,526,526,526,526,526,526,526,526,526,526,526,526,526,526,526,526,526,526,526,526,526,527,527,527,527,527,527,527,527,527,525,518,513,506,498,491,481,452,437,420,407,381,367,353,333,320,309,282,269,257,245,232,201,178,163,146,129,97],"timestamp_mouse":[9,30,48,69,89,109,128,149,169,189,209,229,249,269,289,308,328,349,368,390,409,429,449,469,489,509,528,548,569,589,608,629,650,668,689,708,729,748,768,788,808,828,848,869,888,909,930,948,969,989,1009,1029,1048,1069,1088,1108,1129,1148,1169,1189,1209,1228,1248],"xSR":741.5,"ySR":469.95,"xT1":424.9,"yT1":0,"xT2":1058.1,"yT2":0,"toosoon":0,"cond_shown":"equaldotsize","ratio_trial":250,"smaller_num":"3","larger_num":"12","correct_side":2,"subjID":"jesusbuitrago13","gender":"0","age":"10","school":"4"},{"start_time":1552309400446,"click_time":1552309401667,"finger_time":1552309401086,"fix_duration":1098.3264837540155,"trial":65,"RT":640,"MT":581,"sideResp":1,"stimulus":"img/500/equaldotsize/L/13_Ratio_500_L_12_R_6.png","xmouse":[814,814,814,814,814,814,814,814,814,814,814,814,814,814,814,814,814,814,814,814,814,814,814,814,814,814,814,807,797,785,776,758,744,724,712,702,683,672,661,652,640,611,578,536,468,393,383,383,383,383,383,383,383,383,383,383,383,383,383,392,402,435],"ymouse":[516,516,516,516,516,516,516,516,516,516,516,516,516,516,516,516,516,516,5