[{"start_time":1552313590706,"click_time":1552313593511,"finger_time":1552313592210,"fix_duration":250,"trial":0,"RT":1504,"MT":1301,"sideResp":2,"stimulus":"img/750/randomdotsizeEA/L/14_Ratio_750_L_8_R_6.png","xmouse":[790,790,790,790,790,790,790,790,790,790,790,790,790,790,790,790,790,790,790,790,790,790,790,790,790,790,790,790,790,790,790,790,790,790,790,790,790,790,790,790,790,790,790,790,790,790,790,790,790,790,790,790,790,790,790,790,790,790,790,790,790,790,790,790,790,790,790,790,790,790,790,790,790,791,798,891,942,968,978,978,978,978,978,978,978,978,978,978,978,978,978,978,978,978,978,978,978,978,978,979,981,994,1035,1055,1082,1185,1231,1256,1269,1284,1289,1284,1272,1257,1241,1216,1207,1199,1189,1168,1168,1168,1168,1168,1168,1168,1168,1168,1168,1168,1168,1168,1168,1168,1168,1168,1168,1168,1168,1168,1059],"ymouse":[530,530,530,530,530,530,530,530,530,530,530,530,530,530,530,530,530,530,530,530,530,530,530,530,530,530,530,530,530,530,530,530,530,530,530,530,530,530,530,530,530,530,530,530,530,530,530,530,530,530,530,530,530,530,530,530,530,530,530,530,530,530,530,530,530,530,530,530,530,530,530,530,530,529,527,479,449,437,434,434,434,434,434,434,434,434,434,434,434,434,434,434,434,434,434,434,434,434,434,433,422,411,383,368,350,293,265,244,222,195,154,124,108,94,83,64,56,44,30,4,4,4,4,4,4,4,4,4,4,4,4,4,4,4,4,4,4,4,4,4,1],"timestamp_mouse":[9,37,44,64,84,104,124,145,164,185,205,225,245,264,286,304,326,344,364,385,404,424,444,465,485,505,526,544,564,585,604,625,645,664,684,705,725,744,765,784,805,824,844,865,886,904,925,945,965,985,1006,1024,1045,1064,1085,1104,1124,1144,1164,1185,1206,1224,1245,1264,1284,1305,1325,1344,1365,1385,1404,1425,1445,1465,1484,1504,1526,1544,1564,1584,1605,1624,1644,1665,1685,1705,1725,1745,1765,1785,1804,1825,1845,1864,1884,1905,1925,1944,1964,1985,2005,2025,2044,2064,2084,2104,2125,2144,2164,2184,2205,2225,2244,2265,2284,2304,2324,2345,2364,2384,2404,2424,2445,2465,2484,2505,2526,2546,2564,2585,2604,2625,2644,2665,2685,2705,2724,2745,2765,2784,2804],"xSR":741.5,"ySR":469.95,"xT1":424.9,"yT1":0,"xT2":1058.1,"yT2":0,"toosoon":0,"cond_shown":"randomdotsizeEA","ratio_trial":750,"smaller_num":"6","larger_num":"8","correct_side":1,"subjID":"jhonblanco8","gender":"0","age":"9","school":"4","test":{"fix_dur":[250,1500],"timestim":300,"targets_dim":[100,100],"targets_relative_coord":[0.3,0.7],"size_stim":[880,420],"start_dim":[100,100],"size_start":[300,300],"size_fix":60,"samplingrate":20,"img_types":["equaldotsize","equaldotanddens","randomdotsizeEA"],"ratios":[250,500,750,900],"rep_conds":9,"nTrials":120,"trials_to_rest":500,"Trials_order":[104,7,6,73,48,93,115,2,56,12,58,50,1,22,101,89,80,114,57,75,105,100,111,71,79,39,8,74,92,9,117,51,84,61,96,21,63,34,68,77,113,97,98,37,46,69,47,43,59,109,18,45,41,24,28,5,72,62,10,119,65,49,53,76,52,94,86,35,102,108,17,112,110,78,99,4,88,106,23,116,44,103,3,38,31,118,55,11,16,25,30,20,66,36,29,26,0,87,42,33,83,15,70,32,13,54,60,82,19,67,14,107,91,27,95,85,81,64,40,90],"cond_shown":["randomdotsizeEA","equaldotanddens","equaldotsize","equaldotanddens","equaldotsize","equaldotsize","equaldotanddens","randomdotsizeEA","randomdotsizeEA","equaldotsize","equaldotanddens","randomdotsizeEA","equaldotanddens","equaldotanddens","randomdotsizeEA","randomdotsizeEA","randomdotsizeEA","equaldotsize","equaldotsize","equaldotsize","equaldotsize","equaldotanddens","equaldotsize","randomdotsizeEA","equaldotanddens","equaldotsize","randomdotsizeEA","randomdotsizeEA","randomdotsizeEA","equaldotsize","equaldotsize","equaldotsize","equaldotsize","equaldotanddens","equaldotsize","equaldotsize","equaldotsize","equaldotanddens","randomdotsizeEA","randomdotsizeEA","randomdotsizeEA","equaldotanddens","randomdotsizeEA","equaldotanddens","equaldotanddens","equaldotsize","randomdotsizeEA","equaldotanddens","randomdotsizeEA","equaldotanddens","equaldotsize","equaldotsize","randomdotsizeEA","equaldotsize","equaldotanddens","randomdotsizeEA","equaldotsize","randomdotsizeEA","equaldotanddens","randomdotsizeEA","randomdotsizeEA","equaldotanddens","randomdotsizeEA","equaldotanddens","equaldotanddens","equaldotanddens","randomdotsizeEA","randomdotsizeEA","equaldotsize","equaldotsize","randomdotsizeEA","equaldotanddens","randomdotsizeEA","equaldotsize","equaldotsize","equaldotanddens","equaldotanddens","equaldotanddens","randomdotsizeEA","randomdotsizeEA","randomdotsizeEA","equaldotanddens","equaldotsize","randomdotsizeEA","equaldotanddens","equaldotanddens","equaldotanddens","randomdotsizeEA","equaldotanddens","equaldotanddens","equaldotsize","randomdotsizeEA","equaldotsize","equaldotsize","randomdotsizeEA","randomdotsizeEA","equaldotsize","equaldotsize","equaldotsize","equaldotsize","randomdotsizeEA","equaldotsize","equaldotanddens","randomdotsizeEA","equaldotanddens","equaldotsize","equaldotsize","equaldotanddens","equaldotanddens","equaldotanddens","randomdotsizeEA","randomdotsizeEA","equaldotanddens","equaldotsize","randomdotsizeEA","equaldotanddens","equaldotsize","equaldotanddens","equaldotanddens","equaldotsize"],"ratio_trial":[750,750,750,250,250,900,750,250,750,250,900,250,250,900,500,500,750,750,900,500,900,500,500,900,750,500,750,250,750,900,900,500,250,250,250,900,500,900,750,500,500,250,250,250,900,900,900,750,900,250,750,900,500,250,500,500,250,250,900,900,500,250,500,500,500,900,250,900,750,250,500,500,250,750,500,500,500,900,900,750,750,750,500,250,750,900,750,900,500,250,750,750,750,250,500,250,250,500,750,900,900,500,900,750,250,750,250,900,750,750,250,900,750,500,900,250,900,500,500,750],"smaller_num":["6","9","12","2","3","18","6","3","6","3","9","2","3","18","2","1","6","18","18","2","9","2","5","18","9","2","3","3","15","18","18","2","6","6","4","9","9","18","12","5","3","3","4","6","18","18","18","15","18","2","3","18","2","6","9","2","2","3","18","18","5","4","9","5","5","18","3","18","15","3","9","6","4","3","2","6","4","9","18","6","3","6","9","2","15","18","12","9","3","3","12","9","6","2","2","3","2","1","6","9","18","4","18","12","2","12","2","18","3","15","2","9","3","1","9","6","9","2","6","6"],"larger_num":["8","12","16","8","12","20","8","12","8","12","10","8","12","20","4","2","8","24","20","4","10","4","10","20","12","4","4","12","20","20","20","4","24","24","16","10","18","20","16","10","6","12","16","24","20","20","20","20","20","8","4","20","4","24","18","4","8","12","20","20","10","16","18","10","10","20","12","20","20","12","18","12","16","4","4","12","8","10","20","8","4","8","18","8","20","20","16","10","6","12","16","12","8","8","4","12","8","2","8","10","20","8","20","16","8","16","8","20","4","20","8","10","4","2","10","24","10","4","12","8"],"correct_side":[1,2,2,1,1,1,2,2,1,2,2,1,2,1,2,2,1,1,1,1,1,2,2,2,2,1,1,1,2,1,1,1,1,2,1,2,1,1,2,1,2,2,1,2,2,1,1,1,1,1,1,1,1,1,1,1,1,2,2,1,1,1,2,1,1,1,1,2,2,2,2,1,1,1,1,1,1,2,1,2,2,1,1,1,2,2,2,2,2,2,2,2,1,1,1,2,1,2,1,2,1,1,1,2,1,2,1,1,1,1,1,1,1,2,2,1,2,1,1,1],"img_shown":["img/750/randomdotsizeEA/L/14_Ratio_750_L_8_R_6.png","img/750/equaldotanddens/R/15_Ratio_750_L_9_R_12.png","img/750/equaldotsize/R/11_Ratio_750_L_12_R_16.png","img/250/equaldotanddens/L/1_Ratio_250_L_8_R_2.png","img/250/equaldotsize/L/14_Ratio_250_L_12_R_3.png","img/900/equaldotsize/L/2_Ratio_900_L_20_R_18.png","img/750/equaldotanddens/R/2_Ratio_750_L_6_R_8.png","img/250/randomdotsizeEA/R/11_Ratio_250_L_3_R_12.png","img/750/randomdotsizeEA/L/13_Ratio_750_L_8_R_6.png","img/250/equaldotsize/R/9_Ratio_250_L_3_R_12.png","img/900/equaldotanddens/R/6_Ratio_900_L_9_R_10.png","img/250/randomdotsizeEA/L/3_Ratio_250_L_8_R_2.png","img/250/equaldotanddens/R/11_Ratio_250_L_3_R_12.png","img/900/equaldotanddens/L/2_Ratio_900_L_20_R_18.png","img/500/randomdotsizeEA/R/9_Ratio_500_L_2_R_4.png","img/500/randomdotsizeEA/R/12_Ratio_500_L_1_R_2.png","img/750/randomdotsizeEA/L/14_Ratio_750_L_8_R_6.png","img/750/equaldotsize/L/6_Ratio_750_L_24_R_18.png","img/900/equaldotsize/L/10_Ratio_900_L_20_R_18.png","img/500/equaldotsize/L/10_Ratio_500_L_4_R_2.png","img/900/equaldotsize/L/1_Ratio_900_L_10_R_9.png","img/500/equaldotanddens/R/9_Ratio_500_L_2_R_4.png","img/500/equaldotsize/R/14_Ratio_500_L_5_R_10.png","img/900/randomdotsizeEA/R/11_Ratio_900_L_18_R_20.png","img/750/equaldotanddens/R/15_Ratio_750_L_9_R_12.png","img/500/equaldotsize/L/10_Ratio_500_L_4_R_2.png","img/750/randomdotsizeEA/L/9_Ratio_750_L_4_R_3.png","img/250/randomdotsizeEA/L/14_Ratio_250_L_12_R_3.png","img/750/randomdotsizeEA/R/5_Ratio_750_L_15_R_20.png","img/900/equaldotsize/L/10_Ratio_900_L_20_R_18.png","img/900/equaldotsize/L/2_Ratio_900_L_20_R_18.png","img/500/equaldotsize/L/10_Ratio_500_L_4_R_2.png","img/250/equaldotsize/L/5_Ratio_250_L_24_R_6.png","img/250/equaldotanddens/R/6_Ratio_250_L_6_R_24.png","img/250/equaldotsize/L/2_Ratio_250_L_16_R_4.png","img/900/equaldotsize/R/6_Ratio_900_L_9_R_10.png","img/500/equaldotsize/L/4_Ratio_500_L_18_R_9.png","img/900/equaldotanddens/L/4_Ratio_900_L_20_R_18.png","img/750/randomdotsizeEA/R/11_Ratio_750_L_12_R_16.png","img/500/randomdotsizeEA/L/7_Ratio_500_L_10_R_5.png","img/500/randomdotsizeEA/R/2_Ratio_500_L_3_R_6.png","img/250/equaldotanddens/R/4_Ratio_250_L_3_R_12.png","img/250/randomdotsizeEA/L/2_Ratio_250_L_16_R_4.png","img/250/equaldotanddens/R/6_Ratio_250_L_6_R_24.png","img/900/equaldotanddens/R/12_Ratio_900_L_18_R_20.png","img/900/equaldotsize/L/2_Ratio_900_L_20_R_18.png","img/900/randomdotsizeEA/L/8_Ratio_900_L_20_R_18.png","img/750/equaldotanddens/L/1_Ratio_750_L_20_R_15.png","img/900/randomdotsizeEA/L/8_Ratio_900_L_20_R_18.png","img/250/equaldotanddens/L/3_Ratio_250_L_8_R_2.png","img/750/equaldotsize/L/8_Ratio_750_L_4_R_3.png","img/900/equaldotsize/L/2_Ratio_900_L_20_R_18.png","img/500/randomdotsizeEA/L/10_Ratio_500_L_4_R_2.png","img/250/equaldotsize/L/5_Ratio_250_L_24_R_6.png","img/500/equaldotanddens/L/4_Ratio_500_L_18_R_9.png","img/500/randomdotsizeEA/L/10_Ratio_500_L_4_R_2.png","img/250/equaldotsize/L/7_Ratio_250_L_8_R_2.png","img/250/randomdotsizeEA/R/11_Ratio_250_L_3_R_12.png","img/900/equaldotanddens/R/13_Ratio_900_L_18_R_20.png","img/900/randomdotsizeEA/L/10_Ratio_900_L_20_R_18.png","img/500/randomdotsizeEA/L/7_Ratio_500_L_10_R_5.png","img/250/equaldotanddens/L/2_Ratio_250_L_16_R_4.png","img/500/randomdotsizeEA/R/1_Ratio_500_L_9_R_18.png","img/500/equaldotanddens/L/7_Ratio_500_L_10_R_5.png","img/500/equaldotanddens/L/7_Ratio_500_L_10_R_5.png","img/900/equaldotanddens/L/2_Ratio_900_L_20_R_18.png","img/250/randomdotsizeEA/L/15_Ratio_250_L_12_R_3.png","img/900/randomdotsizeEA/R/9_Ratio_900_L_18_R_20.png","img/750/equaldotsize/R/4_Ratio_750_L_15_R_20.png","img/250/equaldotsize/R/9_Ratio_250_L_3_R_12.png","img/500/randomdotsizeEA/R/1_Ratio_500_L_9_R_18.png","img/500/equaldotanddens/L/11_Ratio_500_L_12_R_6.png","img/250/randomdotsizeEA/L/2_Ratio_250_L_16_R_4.png","img/750/equaldotsize/L/9_Ratio_750_L_4_R_3.png","img/500/equaldotsize/L/10_Ratio_500_L_4_R_2.png","img/500/equaldotanddens/L/11_Ratio_500_L_12_R_6.png","img/500/equaldotanddens/L/8_Ratio_500_L_8_R_4.png","img/900/equaldotanddens/R/7_Ratio_900_L_9_R_10.png","img/900/randomdotsizeEA/L/10_Ratio_900_L_20_R_18.png","img/750/randomdotsizeEA/R/2_Ratio_750_L_6_R_8.png","img/750/randomdotsizeEA/R/12_Ratio_750_L_3_R_4.png","img/750/equaldotanddens/L/13_Ratio_750_L_8_R_6.png","img/500/equaldotsize/L/4_Ratio_500_L_18_R_9.png","img/250/randomdotsizeEA/L/3_Ratio_250_L_8_R_2.png","img/750/equaldotanddens/R/5_Ratio_750_L_15_R_20.png","img/900/equaldotanddens/R/12_Ratio_900_L_18_R_20.png","img/750/equaldotanddens/R/11_Ratio_750_L_12_R_16.png","img/900/randomdotsizeEA/R/5_Ratio_900_L_9_R_10.png","img/500/equaldotanddens/R/2_Ratio_500_L_3_R_6.png","img/250/equaldotanddens/R/11_Ratio_250_L_3_R_12.png","img/750/equaldotsize/R/11_Ratio_750_L_12_R_16.png","img/750/randomdotsizeEA/R/15_Ratio_750_L_9_R_12.png","img/750/equaldotsize/L/14_Ratio_750_L_8_R_6.png","img/250/equaldotsize/L/7_Ratio_250_L_8_R_2.png","img/500/randomdotsizeEA/L/10_Ratio_500_L_4_R_2.png","img/250/randomdotsizeEA/R/4_Ratio_250_L_3_R_12.png","img/250/equaldotsize/L/3_Ratio_250_L_8_R_2.png","img/500/equaldotsize/R/15_Ratio_500_L_1_R_2.png","img/750/equaldotsize/L/13_Ratio_750_L_8_R_6.png","img/900/equaldotsize/R/6_Ratio_900_L_9_R_10.png","img/900/randomdotsizeEA/L/4_Ratio_900_L_20_R_18.png","img/500/equaldotsize/L/8_Ratio_500_L_8_R_4.png","img/900/equaldotanddens/L/2_Ratio_900_L_20_R_18.png","img/750/randomdotsizeEA/R/11_Ratio_750_L_12_R_16.png","img/250/equaldotanddens/L/1_Ratio_250_L_8_R_2.png","img/750/equaldotsize/R/11_Ratio_750_L_12_R_16.png","img/250/equaldotsize/L/1_Ratio_250_L_8_R_2.png","img/900/equaldotanddens/L/2_Ratio_900_L_20_R_18.png","img/750/equaldotanddens/L/8_Ratio_750_L_4_R_3.png","img/750/equaldotanddens/L/1_Ratio_750_L_20_R_15.png","img/250/randomdotsizeEA/L/1_Ratio_250_L_8_R_2.png","img/900/randomdotsizeEA/L/1_Ratio_900_L_10_R_9.png","img/750/equaldotanddens/L/8_Ratio_750_L_4_R_3.png","img/500/equaldotsize/R/12_Ratio_500_L_1_R_2.png","img/900/randomdotsizeEA/R/5_Ratio_900_L_9_R_10.png","img/250/equaldotanddens/L/5_Ratio_250_L_24_R_6.png","img/900/equaldotsize/R/5_Ratio_900_L_9_R_10.png","img/500/equaldotanddens/L/10_Ratio_500_L_4_R_2.png","img/500/equaldotanddens/L/13_Ratio_500_L_12_R_6.png","img/750/equaldotsize/L/14_Ratio_750_L_8_R_6.png"],"Rat0":[["12_Ratio_0_L_9_R_0.png","13_Ratio_0_L_6_R_0.png","5_Ratio_0_L_2_R_0.png","6_Ratio_0_L_4_R_0.png","8_Ratio_0_L_6_R_0.png"],["1_Ratio_0_L_0_R_17.png","10_Ratio_0_L_0_R_22.png","11_Ratio_0_L_0_R_1.png","14_Ratio_0_L_0_R_24.png","15_Ratio_0_L_0_R_4.png","2_Ratio_0_L_0_R_5.png","3_Ratio_0_L_0_R_17.png","4_Ratio_0_L_0_R_7.png","7_Ratio_0_L_0_R_19.png","9_Ratio_0_L_0_R_15.png"]],"Rat250":[["1_Ratio_250_L_8_R_2.png","14_Ratio_250_L_12_R_3.png","15_Ratio_250_L_12_R_3.png","2_Ratio_250_L_16_R_4.png","3_Ratio_250_L_8_R_2.png","5_Ratio_250_L_24_R_6.png","7_Ratio_250_L_8_R_2.png"],["10_Ratio_250_L_4_R_16.png","11_Ratio_250_L_3_R_12.png","12_Ratio_250_L_5_R_20.png","13_Ratio_250_L_2_R_8.png","4_Ratio_250_L_3_R_12.png","6_Ratio_250_L_6_R_24.png","8_Ratio_250_L_1_R_4.png","9_Ratio_250_L_3_R_12.png"]],"Rat500":[["10_Ratio_500_L_4_R_2.png","11_Ratio_500_L_12_R_6.png","13_Ratio_500_L_12_R_6.png","4_Ratio_500_L_18_R_9.png","5_Ratio_500_L_4_R_2.png","7_Ratio_500_L_10_R_5.png","8_Ratio_500_L_8_R_4.png"],["1_Ratio_500_L_9_R_18.png","12_Ratio_500_L_1_R_2.png","14_Ratio_500_L_5_R_10.png","15_Ratio_500_L_1_R_2.png","2_Ratio_500_L_3_R_6.png","3_Ratio_500_L_10_R_20.png","6_Ratio_500_L_9_R_18.png","9_Ratio_500_L_2_R_4.png"]],"Rat750":[["1_Ratio_750_L_20_R_15.png","10_Ratio_750_L_4_R_3.png","13_Ratio_750_L_8_R_6.png","14_Ratio_750_L_8_R_6.png","6_Ratio_750_L_24_R_18.png","8_Ratio_750_L_4_R_3.png","9_Ratio_750_L_4_R_3.png"],["11_Ratio_750_L_12_R_16.png","12_Ratio_750_L_3_R_4.png","15_Ratio_750_L_9_R_12.png","2_Ratio_750_L_6_R_8.png","3_Ratio_750_L_15_R_20.png","4_Ratio_750_L_15_R_20.png","5_Ratio_750_L_15_R_20.png","7_Ratio_750_L_3_R_4.png"]],"Rat900":[["1_Ratio_900_L_10_R_9.png","10_Ratio_900_L_20_R_18.png","2_Ratio_900_L_20_R_18.png","4_Ratio_900_L_20_R_18.png","8_Ratio_900_L_20_R_18.png"],["11_Ratio_900_L_18_R_20.png","12_Ratio_900_L_18_R_20.png","13_Ratio_900_L_18_R_20.png","14_Ratio_900_L_18_R_20.png","15_Ratio_900_L_9_R_10.png","3_Ratio_900_L_9_R_10.png","5_Ratio_900_L_9_R_10.png","6_Ratio_900_L_9_R_10.png","7_Ratio_900_L_9_R_10.png","9_Ratio_900_L_18_R_20.png"]],"Rat1000":[["10_Ratio_1000_L_16_R_16.png","11_Ratio_1000_L_6_R_6.png","12_Ratio_1000_L_14_R_14.png","13_Ratio_1000_L_20_R_20.png","15_Ratio_1000_L_15_R_15.png","2_Ratio_1000_L_17_R_17.png","4_Ratio_1000_L_9_R_9.png","5_Ratio_1000_L_6_R_6.png","6_Ratio_1000_L_19_R_19.png","8_Ratio_1000_L_14_R_14.png","9_Ratio_1000_L_25_R_25.png"],["1_Ratio_1000_L_1_R_1.png","14_Ratio_1000_L_17_R_17.png","3_Ratio_1000_L_17_R_17.png","7_Ratio_1000_L_6_R_6.png"]]}},{"start_time":1552313596815,"click_time":1552313598431,"finger_time":1552313597831,"fix_duration":1183.1074970165391,"trial":1,"RT":1016,"MT":600,"sideResp":2,"stimulus":"img/750/equaldotanddens/R/15_Ratio_750_L_9_R_12.png","xmouse":[795,795,795,795,795,795,795,795,795,795,795,795,795,795,795,795,795,795,795,795,795,795,795,795,795,795,795,795,795,795,795,795,795,795,795,795,795,795,795,795,795,794,794,794,798,802,802,803,803,803,805,814,840,898,979,1024,1046,1046,1046,1046,1046,1046,1046,1046,1046,1046,1046,1046,1046,1046,1046,1046,1046,1046,1046,1046,1046,1046,1046,1046,1116],"ymouse":[527,527,527,527,527,527,527,527,527,527,527,527,527,527,527,527,527,527,527,527,527,527,527,527,527,527,527,527,527,527,527,527,527,527,527,527,527,527,527,527,527,526,521,516,508,496,492,490,489,482,464,425,360,242,101,38,10,10,10,10,10,10,10,10,10,10,10,10,10,10,10,10,10,10,10,10,10,10,10,10,16],"timestamp_mouse":[20,45,55,76,97,116,135,156,176,195,215,236,255,275,295,316,335,356,375,395,416,437,456,476,495,515,536,556,575,595,615,636,656,675,695,715,736,756,776,796,815,836,855,875,895,916,935,956,975,996,1016,1036,1056,1075,1096,1115,1136,1155,1175,1196,1216,1235,1255,1275,1296,1317,1335,1356,1375,1395,1416,1436,1455,1476,1496,1515,1536,1555,1576,1595,1615],"xSR":741.5,"ySR":469.95,"xT1":424.9,"yT1":0,"xT2":1058.1,"yT2":0,"toosoon":0,"cond_shown":"equaldotanddens","ratio_trial":750,"smaller_num":"9","larger_num":"12","correct_side":2,"subjID":"jhonblanco8","gender":"0","age":"9","school":"4"},{"start_time":1552313600476,"click_time":1552313602130,"finger_time":1552313601510,"fix_duration":1083.651498212326,"trial":2,"RT":1034,"MT":620,"sideResp":2,"stimulus":"img/750/equaldotsize/R/11_Ratio_750_L_12_R_16.png","xmouse":[800,800,800,800,800,800,800,800,800,800,800,800,800,800,800,800,800,799,799,799,799,799,799,799,799,796,794,782,780,779,779,779,779,779,779,779,779,779,779,779,778,778,778,780,783,788,792,804,813,819,825,831,845,857,872,885,896,917,936,950,963,974,989,994,997,998,1000,1004,1008,1013,1018,1023,1025,1026,1027,1028,1031,1032,1033,1042,1052,1061,1067],"ymouse":[532,532,532,532,532,532,532,532,532,532,532,532,532,532,532,531,531,531,531,531,531,531,531,531,531,531,532,537,538,538,538,538,538,538,538,538,538,538,538,538,539,539,539,539,534,527,522,504,494,487,478,468,444,429,412,394,376,331,302,284,269,258,245,241,235,231,225,221,220,219,218,216,214,213,212,210,205,203,201,192,174,154,79],"timestamp_mouse":[14,34,69,75,94,114,134,155,174,195,215,236,254,275,294,314,334,354,374,395,414,434,455,475,494,515,534,554,575,594,615,634,654,675,694,715,735,754,775,795,815,835,854,874,894,914,936,954,975,994,1014,1034,1054,1074,1095,1114,1134,1154,1174,1194,1216,1234,1254,1275,1295,1314,1335,1354,1374,1394,1415,1434,1454,1475,1495,1515,1534,1554,1575,1594,1614,1634,1654],"xSR":741.5,"ySR":469.95,"xT1":424.9,"yT1":0,"xT2":1058.1,"yT2":0,"toosoon":0,"cond_shown":"equaldotsize","ratio_trial":750,"smaller_num":"12","larger_num":"16","correct_side":2,"subjID":"jhonblanco8","gender":"0","age":"9","school":"4"},{"start_time":1552313604497,"click_time":1552313605931,"finger_time":1552313605411,"fix_duration":1245.5310785706258,"trial":3,"RT":914,"MT":520,"sideResp":1,"stimulus":"img/250/equaldotanddens/L/1_Ratio_250_L_8_R_2.png","xmouse":[809,809,809,809,809,809,809,809,809,809,809,809,809,809,809,809,809,809,809,809,809,809,809,809,809,809,809,809,809,809,809,809,809,809,809,809,809,809,809,809,809,808,799,786,772,749,739,706,683,663,649,643,643,643,643,640,624,599,585,575,564,546,541,538,536,536,536,536,536,536,533,524],"ymouse":[507,507,507,507,507,507,507,507,507,507,507,507,507,507,507,507,507,507,507,507,507,507,507,507,507,507,507,507,507,507,507,507,507,507,507,507,507,507,507,507,507,501,494,484,471,441,416,342,297,267,252,242,242,237,229,214,187,160,152,144,137,122,116,112,111,110,110,110,108,106,101,85],"timestamp_mouse":[13,35,53,73,94,113,133,154,173,193,214,233,254,274,293,314,333,355,373,394,414,433,455,474,493,513,533,553,573,594,613,634,654,674,694,714,734,754,775,794,814,834,853,874,894,914,933,953,973,993,1013,1034,1053,1073,1093,1113,1134,1153,1173,1193,1213,1235,1253,1274,1293,1314,1334,1354,1373,1394,1413,1434],"xSR":741.5,"ySR":469.95,"xT1":424.9,"yT1":0,"xT2":1058.1,"yT2":0,"toosoon":0,"cond_shown":"equaldotanddens","ratio_trial":250,"smaller_num":"2","larger_num":"8","correct_side":1,"subjID":"jhonblanco8","gender":"0","age":"9","school":"4"},{"start_time":1552313607867,"click_time":1552313609170,"finger_time":1552313608751,"fix_duration":954.1618479687486,"trial":4,"RT":884,"MT":419,"sideResp":1,"stimulus":"img/250/equaldotsize/L/14_Ratio_250_L_12_R_3.png","xmouse":[797,797,797,797,797,797,797,797,797,797,797,797,797,797,797,797,797,797,797,797,797,797,797,797,797,797,797,797,797,797,797,797,797,796,795,795,795,795,795,795,792,787,781,772,749,736,713,703,695,677,665,655,647,641,633,633,633,633,633,624,611,597,581,563,529,511],"ymouse":[524,524,524,524,524,524,524,524,524,524,524,524,524,524,524,524,524,524,524,524,524,524,524,524,524,524,524,524,524,524,524,524,523,520,519,518,518,518,518,518,513,501,489,473,434,414,367,321,269,184,159,134,111,96,81,80,80,80,80,79,79,79,78,73,64,59],"timestamp_mouse":[10,40,43,63,84,103,124,143,163,184,204,224,244,264,283,303,323,345,364,384,404,423,444,463,483,504,524,543,564,584,604,625,643,663,684,703,725,746,763,783,803,823,843,864,884,904,923,943,964,983,1003,1024,1043,1063,1083,1104,1124,1143,1163,1183,1203,1223,1243,1263,1283,1303],"xSR":741.5,"ySR":469.95,"xT1":424.9,"yT1":0,"xT2":1058.1,"yT2":0,"toosoon":0,"cond_shown":"equaldotsize","ratio_trial":250,"smaller_num":"3","larger_num":"12","correct_side":1,"subjID":"jhonblanco8","gender":"0","age":"9","school":"4"},{"start_time":1552313610556,"click_time":1552313611870,"finger_time":1552313611450,"fix_duration":503.8182984988736,"trial":5,"RT":894,"MT":420,"sideResp":2,"stimulus":"img/900/equaldotsize/L/2_Ratio_900_L_20_R_18.png","xmouse":[772,772,772,772,772,772,772,772,772,772,772,772,772,772,772,772,772,772,772,772,772,772,772,772,772,772,772,772,772,772,772,772,772,772,772,772,772,772,772,772,772,780,796,810,844,858,874,887,899,919,933,944,955,967,987,997,1004,1006,1007,1009,1009,1012,1025,1050,1079,1100],"ymouse":[539,539,539,539,539,539,539,539,539,539,539,539,539,539,539,539,539,539,539,539,539,539,539,539,539,539,539,539,539,539,539,539,539,539,539,539,539,539,539,539,539,534,520,508,474,452,429,409,391,355,333,319,303,284,251,235,224,222,220,219,219,215,198,162,121,81],"timestamp_mouse":[14,40,54,75,95,115,135,156,175,195,214,234,254,274,295,314,336,355,375,394,414,435,455,474,494,515,535,555,574,594,614,634,654,674,694,716,735,754,774,794,816,834,855,874,894,915,935,954,974,994,1014,1034,1055,1074,1095,1114,1134,1155,1174,1195,1214,1234,1255,1275,1294,1314],"xSR":741.5,"ySR":469.95,"xT1":424.9,"yT1":0,"xT2":1058.1,"yT2":0,"toosoon":0,"cond_shown":"equaldotsize","ratio_trial":900,"smaller_num":"18","larger_num":"20","correct_side":1,"subjID":"jhonblanco8","gender":"0","age":"9","school":"4"},{"start_time":1552313614217,"click_time":1552313615691,"finger_time":1552313615150,"fix_duration":1166.7972542604966,"trial":6,"RT":933,"MT":541,"sideResp":2,"stimulus":"img/750/equaldotanddens/R/2_Ratio_750_L_6_R_8.png","xmouse":[786,786,786,786,786,786,786,786,786,786,786,786,786,786,786,786,786,786,786,786,786,786,786,786,786,786,786,786,786,786,786,786,786,786,786,786,786,786,786,786,786,786,795,808,829,841,854,882,916,960,987,1000,1009,1010,1010,1010,1010,1012,1021,1037,1058,1078,1090,1090,1090,1090,1090,1090,1090,1089,1085,1082,1078,1078],"ymouse":[506,506,506,506,506,506,506,506,506,506,506,506,506,506,506,506,506,506,506,506,506,506,506,506,506,506,506,506,506,506,506,506,506,506,506,506,506,506,506,506,506,506,502,494,482,470,458,408,355,297,258,237,216,213,208,204,202,190,180,170,158,144,136,136,136,136,135,135,135,133,129,124,105,99],"timestamp_mouse":[13,37,54,73,94,114,133,154,173,194,214,235,254,274,295,314,334,354,374,393,415,433,454,474,493,513,534,553,575,594,614,633,654,673,693,713,733,754,773,794,813,835,853,874,893,914,933,953,973,993,1013,1033,1053,1073,1094,1114,1133,1153,1173,1194,1213,1233,1254,1274,1295,1314,1334,1353,1373,1394,1413,1433,1453,1473],"xSR":741.5,"ySR":469.95,"xT1":424.9,"yT1":0,"xT2":1058.1,"yT2":0,"toosoon":0,"cond_shown":"equaldotanddens","ratio_trial":750,"smaller_num":"6","larger_num":"8","correct_side":2,"subjID":"jhonblanco8","gender":"0","age":"9","school":"4"},{"start_time":1552313617705,"click_time":1552313619910,"finger_time":1552313618610,"fix_duration":993.7804755299848,"trial":7,"RT":905,"MT":1300,"sideResp":2,"stimulus":"img/250/randomdotsizeEA/R/11_Ratio_250_L_3_R_12.png","xmouse":[771,771,771,771,771,771,771,771,771,771,771,771,771,771,771,771,771,771,771,771,771,771,771,771,771,771,771,771,771,771,771,771,771,771,771,771,771,771,771,771,771,771,771,766,757,747,737,726,706,697,687,678,669,652,643,632,622,611,585,577,570,567,562,549,547,546,546,546,546,546,546,546,546,546,546,546,546,546,546,546,546,546,546,546,546,546,558,580,616,692,716,739,766,826,862,895,925,955,1000,1006,1009,1012,1013,1016,1018,1020,1021,1023,1032,1053,1070],"ymouse":[527,527,527,527,527,527,527,527,527,527,527,527,527,527,527,527,527,527,527,527,527,527,527,527,527,527,527,527,527,527,527,527,527,527,527,527,527,527,527,527,527,527,523,496,472,449,424,406,373,357,333,315,294,249,228,203,187,173,143,130,108,96,82,66,65,64,64,64,64,64,64,64,64,64,64,64,64,64,64,64,64,64,64,64,64,66,85,103,129,169,175,177,178,178,173,162,154,148,139,136,134,131,129,125,120,117,112,109,97,83,77],"timestamp_mouse":[19,30,45,65,85,106,125,146,165,185,205,226,245,266,286,306,326,345,365,386,405,426,446,465,486,507,525,545,567,586,606,625,646,667,686,705,726,745,767,786,805,827,845,865,885,905,925,946,965,986,1005,1025,1045,1066,1085,1105,1125,1146,1165,1186,1205,1225,1245,1265,1285,1305,1325,1346,1366,1386,1405,1425,1446,1465,1485,1505,1527,1545,1565,1586,1605,1625,1645,1666,1685,1705,1726,1745,1765,1785,1805,1827,1847,1865,1886,1905,1926,1945,1966,1986,2005,2025,2045,2066,2086,2105,2126,2145,2165,2185,2205],"xSR":741.5,"ySR":469.95,"xT1":424.9,"yT1":0,"xT2":1058.1,"yT2":0,"toosoon":0,"cond_shown":"randomdotsizeEA","ratio_trial":250,"smaller_num":"3","larger_num":"12","correct_side":2,"subjID":"jhonblanco8","gender":"0","age":"9","school":"4"},{"start_time":1552313623331,"click_time":1552313625691,"finger_time":1552313623450,"fix_duration":938.5229460577141,"trial":8,"RT":119,"MT":2241,"sideResp":1,"stimulus":"img/750/randomdotsizeEA/L/13_Ratio_750_L_8_R_6.png","xmouse":[793,793,788,778,762,733,717,717,717,727,739,741,741,741,741,741,741,741,741,741,741,741,741,741,741,741,741,741,741,741,745,749,754,754,754,754,754,754,754,754,754,754,754,754,757,762,772,777,780,780,780,780,780,780,780,780,780,780,780,780,780,780,780,780,780,780,780,781,781,781,781,781,781,781,781,781,781,762,746,730,710,677,665,646,641,634,633,633,633,633,633,633,633,633,633,633,633,633,633,633,633,633,633,633,633,633,633,633,633,633,633,633,633,633,633,633,633,454],"ymouse":[527,527,527,527,526,524,524,524,523,520,519,518,518,518,518,518,518,518,518,518,518,518,518,518,518,518,518,518,518,518,515,510,505,505,505,505,505,505,505,505,505,505,505,505,504,504,505,507,508,508,508,508,508,508,508,508,508,508,508,508,508,508,508,508,508,508,508,505,505,505,505,505,505,505,505,503,500,484,471,457,440,398,374,327,311,272,185,111,27,27,27,27,27,27,27,27,27,27,27,27,27,27,27,27,27,27,27,27,27,27,27,27,27,27,27,27,27,8],"timestamp_mouse":[20,40,59,80,99,119,141,159,181,199,219,240,260,279,299,320,340,359,379,400,419,439,459,480,500,520,540,559,579,600,620,640,659,680,700,720,739,760,780,800,820,839,860,880,899,920,941,959,980,1000,1020,1040,1059,1079,1099,1119,1140,1159,1179,1199,1219,1239,1259,1280,1301,1319,1339,1360,1380,1400,1419,1439,1460,1479,1499,1520,1539,1559,1579,1600,1619,1640,1659,1679,1699,1719,1741,1759,1779,1799,1819,1839,1860,1879,1900,1920,1940,1959,1979,2000,2019,2041,2060,2080,2100,2119,2139,2159,2179,2199,2220,2240,2260,2280,2300,2320,2339,2360],"xSR":741.5,"ySR":469.95,"xT1":424.9,"yT1":0,"xT2":1058.1,"yT2":0,"toosoon":0,"cond_shown":"randomdotsizeEA","ratio_trial":750,"smaller_num":"6","larger_num":"8","correct_side":1,"subjID":"jhonblanco8","gender":"0","age":"9","school":"4"},{"start_time":1552313628843,"click_time":1552313630251,"finger_time":1552313629770,"fix_duration":250,"trial":9,"RT":927,"MT":481,"sideResp":2,"stimulus":"img/250/equaldotsize/R/9_Ratio_250_L_3_R_12.png","xmouse":[765,765,765,765,765,765,765,765,765,765,765,765,765,765,765,765,765,765,765,765,765,765,765,765,765,765,765,765,765,765,765,765,765,765,765,765,765,765,765,765,765,765,765,765,771,779,789,806,820,828,833,839,845,854,865,875,890,923,942,951,961,977,1024,1052,1071,1085,1088,1090,1091,1095,1103],"ymouse":[510,510,510,510,510,510,510,510,510,510,510,510,510,510,510,510,510,510,510,510,510,510,510,510,510,510,510,510,510,510,510,510,510,510,510,510,510,510,510,510,510,510,510,510,490,472,449,410,383,370,361,354,347,342,337,332,325,307,295,288,279,265,232,211,196,181,170,148,137,119,96],"timestamp_mouse":[12,34,48,68,88,107,127,147,168,187,207,227,247,268,287,307,329,348,368,387,408,428,447,468,488,509,528,549,568,587,607,627,648,667,687,707,728,747,769,787,808,827,847,868,887,907,927,947,967,987,1007,1028,1048,1069,1089,1107,1127,1148,1167,1187,1207,1227,1247,1267,1287,1309,1328,1347,1367,1387,1408],"xSR":741.5,"ySR":469.95,"xT1":424.9,"yT1":0,"xT2":1058.1,"yT2":0,"toosoon":0,"cond_shown":"equaldotsize","ratio_trial":250,"smaller_num":"3","larger_num":"12","correct_side":2,"subjID":"jhonblanco8","gender":"0","age":"9","school":"4"},{"start_time":1552313632489,"click_time":1552313636871,"finger_time":1552313634710,"fix_duration":395.74040941418986,"trial":10,"RT":2221,"MT":2161,"sideResp":2,"stimulus":"img/900/equaldotanddens/R/6_Ratio_900_L_9_R_10.png","xmouse":[793,793,793,789,789,787,787,787,787,787,787,787,787,787,787,787,787,787,787,787,787,787,787,787,787,787,787,787,787,785,778,775,771,770,769,769,769,769,769,769,769,769,769,769,769,769,769,769,769,769,769,769,769,769,769,769,769,769,769,769,769,769,769,769,769,769,769,769,769,769,769,769,769,769,769,769,769,769,769,769,769,769,769,769,769,769,769,769,769,769,769,769,769,769,769,769,769,769,769,769,772,774,774,775,776,779,781,783,786,790,796,803,810,818,828,839,845,852,858,864,870,888,897,909,919,923,927,928,929,929,934,937,940,949,954,955,955,955,955,955,955,955,955,955,955,955,955,955,955,955,955,955,955,955,955,955,955,955,955,955,955,955,955,955,955,955,955,955,955,955,955,955,955,955,955,955,955,955,955,955,955,955,955,955,955,955,955,955,955,955,955,955,957,959,961,963,967,970,973,977,979,984,985,987,988,992,1004,1014,1029,1047,1063,1087,1088,1088,1088,1088,1094,1099,1106,1117],"ymouse":[558,558,558,556,556,555,555,555,555,555,555,555,555,554,553,552,552,552,552,552,552,552,552,552,552,552,552,552,552,549,542,539,537,537,536,536,536,536,536,536,536,536,536,536,536,536,536,536,536,536,536,536,536,536,536,536,536,536,536,536,536,536,536,536,536,536,536,536,536,536,536,536,536,536,536,536,536,536,536,536,536,536,536,536,536,536,536,536,536,536,536,536,536,536,536,536,536,536,530,527,517,514,512,510,508,502,499,496,490,484,473,465,457,448,436,423,416,408,402,395,389,373,366,357,351,348,345,344,344,343,339,337,334,328,325,324,324,324,324,324,324,324,324,324,324,324,324,324,324,324,324,324,324,324,324,324,324,324,324,324,324,324,324,324,324,324,324,324,324,324,324,324,324,324,324,324,324,324,324,324,324,324,324,324,324,324,324,324,324,324,324,324,323,314,307,301,288,277,267,256,247,231,227,224,221,217,206,196,184,171,159,143,143,143,143,142,132,124,110,86],"timestamp_mouse":[10,40,42,62,83,102,121,141,163,182,202,222,242,261,282,301,321,341,361,382,401,422,442,462,481,501,521,541,561,581,602,622,642,662,682,701,721,741,763,781,801,822,841,861,882,901,923,941,962,981,1001,1022,1042,1061,1082,1103,1121,1142,1161,1182,1202,1223,1242,1261,1282,1301,1322,1342,1361,1382,1401,1421,1442,1461,1481,1501,1522,1541,1561,1581,1603,1621,1641,1661,1681,1703,1721,1741,1761,1781,1802,1821,1841,1861,1882,1902,1921,1942,1962,1981,2002,2022,2042,2061,2082,2102,2121,2142,2161,2181,2203,2221,2241,2261,2282,2303,2321,2341,2362,2381,2401,2421,2441,2461,2481,2501,2521,2541,2561,2583,2604,2621,2642,2661,2681,2702,2721,2741,2762,2782,2803,2821,2842,2861,2882,2902,2921,2942,2962,2981,3003,3021,3041,3062,3082,3102,3122,3142,3162,3182,3202,3222,3241,3262,3282,3303,3321,3341,3362,3382,3402,3422,3441,3462,3481,3501,3521,3542,3562,3582,3603,3621,3642,3662,3681,3702,3721,3741,3761,3782,3803,3822,3842,3861,3882,3901,3922,3942,3962,3981,4001,4022,4042,4061,4082,4103,4121,4142,4162,4182,4202,4221,4241,4262,4281,4302,4321,4342,4361,4382],"xSR":741.5,"ySR":469.95,"xT1":424.9,"yT1":0,"xT2":1058.1,"yT2":0,"toosoon":0,"cond_shown":"equaldotanddens","ratio_trial":900,"smaller_num":"9","larger_num":"10","correct_side":2,"subjID":"jhonblanco8","gender":"0","age":"9","school":"4"},{"start_time":1552313639246,"click_time":1552313640331,"finger_time":1552313640172,"fix_duration":1212.4328006938904,"trial":11,"RT":926,"MT":159,"sideResp":1,"stimulus":"img/250/randomdotsizeEA/L/3_Ratio_250_L_8_R_2.png","xmouse":[781,781,781,781,781,781,781,781,781,781,781,781,781,781,781,781,781,781,781,781,781,781,781,781,781,781,781,781,781,781,781,781,781,781,781,781,781,781,781,781,781,781,781,781,781,777,761,738,714,650,612,572,565,530,512],"ymouse":[523,523,523,523,523,523,523,523,523,523,523,523,523,523,523,523,523,523,523,523,523,519,516,513,513,513,513,513,513,513,513,513,513,513,513,513,513,513,513,513,513,513,513,513,513,498,456,402,359,264,219,172,164,121,89],"timestamp_mouse":[12,35,46,64,85,106,126,145,165,184,204,226,246,265,285,305,326,344,365,385,406,425,445,465,486,505,524,544,564,586,606,626,646,666,685,705,726,745,765,785,805,825,845,864,885,905,926,945,966,985,1005,1025,1045,1065,1085],"xSR":741.5,"ySR":469.95,"xT1":424.9,"yT1":0,"xT2":1058.1,"yT2":0,"toosoon":0,"cond_shown":"randomdotsizeEA","ratio_trial":250,"smaller_num":"2","larger_num":"8","correct_side":1,"subjID":"jhonblanco8","gender":"0","age":"9","school":"4"},{"start_time":1552313642574,"click_time":1552313644672,"finger_time":1552313643471,"fix_duration":702.8787694271477,"trial":12,"RT":897,"MT":1201,"sideResp":2,"stimulus":"img/250/equaldotanddens/R/11_Ratio_250_L_3_R_12.png","xmouse":[775,778,779,779,779,779,779,779,779,779,779,779,779,779,779,779,779,779,779,779,779,779,779,779,779,779,779,779,779,779,779,779,779,779,779,779,779,779,779,779,779,779,783,790,811,831,850,892,907,924,940,955,984,1003,1025,1046,1052,1052,1052,1052,1052,1052,1052,1051,1049,1047,1046,1045,1044,1044,1043,1043,1041,1041,1041,1041,1041,1041,1041,1041,1041,1041,1042,1042,1043,1044,1044,1044,1044,1045,1045,1045,1045,1045,1045,1046,1049,1053,1053,1053,1053,1053,1054,1056,1059],"ymouse":[520,520,520,520,520,520,520,520,518,517,516,516,516,516,516,516,516,516,516,516,516,516,516,516,516,516,516,516,516,516,516,516,516,516,516,516,516,516,516,516,516,515,502,487,467,453,437,407,394,381,370,361,337,319,301,275,255,219,215,213,213,213,211,209,203,199,195,192,191,190,185,177,153,136,127,123,121,118,118,117,115,114,108,106,95,92,91,91,91,90,90,90,90,90,90,90,87,86,86,86,86,86,86,86,85],"timestamp_mouse":[16,38,56,76,96,118,137,158,176,197,217,238,257,277,298,318,338,358,378,398,418,437,457,478,497,518,537,557,578,597,618,636,658,678,698,717,737,757,777,798,817,837,857,876,897,917,937,957,976,998,1017,1038,1057,1077,1098,1117,1137,1157,1178,1197,1217,1236,1257,1277,1297,1318,1338,1357,1377,1396,1417,1438,1457,1477,1497,1518,1537,1557,1578,1597,1618,1637,1657,1676,1696,1718,1738,1757,1778,1798,1818,1837,1857,1878,1898,1918,1938,1957,1977,1998,2018,2037,2058,2078,2098],"xSR":741.5,"ySR":469.95,"xT1":424.9,"yT1":0,"xT2":1058.1,"yT2":0,"toosoon":0,"cond_shown":"equaldotanddens","ratio_trial":250,"smaller_num":"3","larger_num":"12","correct_side":2,"subjID":"jhonblanco8","gender":"0","age":"9","school":"4"},{"start_time":1552313646769,"click_time":1552313648251,"finger_time":1552313647731,"fix_duration":957.3219007486457,"trial":13,"RT":962,"MT":520,"sideResp":1,"stimulus":"img/900/equaldotanddens/L/2_Ratio_900_L_20_R_18.png","xmouse":[794,794,794,794,794,794,794,794,794,794,794,794,794,794,794,794,794,794,794,794,794,794,794,794,794,794,794,794,794,794,794,794,794,794,794,794,794,794,794,794,794,794,794,791,787,782,774,765,741,730,721,709,699,662,641,617,588,572,551,547,543,537,530,525,522,520,520,520,521,521,520,516,512,501,498],"ymouse":[528,528,528,528,528,528,528,528,528,528,528,528,528,528,528,528,528,528,528,528,528,528,528,528,528,528,528,528,528,528,528,528,528,528,528,528,528,528,528,528,528,528,528,519,509,500,486,473,442,430,418,403,388,336,312,289,270,257,237,228,216,202,186,144,136,132,131,130,129,126,122,116,110,102,99],"timestamp_mouse":[10,22,43,62,82,103,123,142,162,183,202,222,242,263,282,302,322,341,363,383,401,422,441,462,483,503,523,543,561,581,603,622,642,663,683,702,722,742,763,783,802,823,843,862,881,902,923,941,962,983,1002,1022,1042,1062,1081,1102,1122,1142,1162,1181,1203,1222,1243,1263,1283,1303,1322,1343,1362,1382,1403,1422,1442,1463,1481],"xSR":741.5,"ySR":469.95,"xT1":424.9,"yT1":0,"xT2":1058.1,"yT2":0,"toosoon":0,"cond_shown":"equaldotanddens","ratio_trial":900,"smaller_num":"18","larger_num":"20","correct_side":1,"subjID":"jhonblanco8","gender":"0","age":"9","school":"4"},{"start_time":1552313649783,"click_time":1552313652151,"finger_time":1552313651751,"fix_duration":250,"trial":14,"RT":1968,"MT":400,"sideResp":2,"stimulus":"img/500/randomdotsizeEA/R/9_Ratio_500_L_2_R_4.png","xmouse":[817,817,817,817,817,817,817,817,817,817,817,817,817,817,817,817,817,817,817,817,817,817,817,817,817,817,817,817,817,817,817,817,817,817,817,817,817,817,817,817,817,817,817,817,817,817,817,817,817,817,817,817,817,817,817,817,817,817,817,817,816,812,808,796,792,790,789,788,788,788,788,788,788,788,788,788,788,788,788,788,788,788,788,788,788,788,788,788,788,788,788,788,788,788,788,791,793,802,829,847,889,916,947,958,964,970,976,983,1021,1038,1053,1057,1058,1059,1060,1060,1061,1061,1065],"ymouse":[544,544,544,544,544,544,544,544,544,544,544,544,544,544,544,544,544,544,544,544,544,544,544,544,544,544,544,544,544,544,544,544,544,544,544,544,544,544,544,544,544,544,544,544,544,544,544,544,544,544,544,544,544,544,544,544,544,544,544,544,544,539,532,520,516,514,513,512,512,512,512,512,512,512,512,512,512,512,512,512,512,512,512,512,512,512,512,512,512,511,506,504,502,502,502,500,496,485,453,431,381,351,311,295,284,271,256,239,172,143,117,110,108,107,105,104,103,102,98],"timestamp_mouse":[11,35,49,68,88,107,128,148,168,187,208,228,248,269,288,308,328,348,368,388,408,428,449,469,488,509,528,547,569,589,608,629,648,669,689,708,728,749,768,789,809,828,848,868,889,907,929,949,969,988,1009,1027,1047,1069,1088,1107,1129,1148,1169,1187,1208,1227,1248,1269,1288,1307,1328,1349,1368,1388,1409,1428,1449,1469,1488,1508,1528,1547,1569,1589,1608,1628,1649,1669,1689,1708,1729,1747,1768,1788,1808,1828,1848,1868,1888,1908,1928,1949,1968,1988,2008,2028,2049,2068,2088,2108,2128,2149,2168,2188,2207,2228,2248,2268,2287,2307,2329,2348,2367],"xSR":741.5,"ySR":469.95,"xT1":424.9,"yT1":0,"xT2":1058.1,"yT2":0,"toosoon":0,"cond_shown":"randomdotsizeEA","ratio_trial":500,"smaller_num":"2","larger_num":"4","correct_side":2,"subjID":"jhonblanco8","gender":"0","age":"9","school":"4"},{"start_time":1552313654230,"click_time":1552313655291,"finger_time":1552313655051,"fix_duration":897.2828211404945,"trial":15,"RT":821,"MT":240,"sideResp":1,"stimulus":"img/500/randomdotsizeEA/R/12_Ratio_500_L_1_R_2.png","xmouse":[801,801,801,801,801,801,801,801,801,801,801,801,801,801,801,801,801,801,801,801,801,801,801,801,801,801,801,801,801,801,801,801,801,801,801,801,801,801,801,799,796,774,751,722,694,676,665,665,665,665,663,618,563,512],"ymouse":[507,507,507,507,507,507,507,507,507,507,507,507,507,507,507,507,507,507,507,507,507,507,507,507,507,507,507,507,507,507,507,507,507,507,507,507,507,507,507,505,494,442,398,349,304,280,270,270,270,270,266,185,102,11],"timestamp_mouse":[14,25,40,62,81,101,121,142,162,182,201,221,242,262,281,301,321,342,362,381,402,420,441,460,481,502,520,541,562,582,602,621,640,662,681,701,721,741,761,781,801,821,841,861,880,901,922,941,961,981,1002,1021,1040,1060],"xSR":741.5,"ySR":469.95,"xT1":424.9,"yT1":0,"xT2":1058.1,"yT2":0,"toosoon":0,"cond_shown":"randomdotsizeEA","ratio_trial":500,"smaller_num":"1","larger_num":"2","correct_side":2,"subjID":"jhonblanco8","gender":"0","age":"9","school":"4"},{"start_time":1552313656712,"click_time":1552313657731,"finger_time":1552313657611,"fix_duration":258.56865053581924,"trial":16,"RT":899,"MT":120,"sideResp":1,"stimulus":"img/750/randomdotsizeEA/L/14_Ratio_750_L_8_R_6.png","xmouse":[774,774,774,774,774,774,774,774,774,774,774,774,774,774,774,774,774,774,774,774,774,774,774,774,774,774,774,774,774,774,774,774,774,774,774,774,774,774,774,774,774,774,773,770,765,757,743,719,651,607,545,507],"ymouse":[521,521,521,521,521,521,521,521,521,521,521,521,521,521,521,521,521,521,521,521,521,521,521,521,521,521,521,521,521,521,521,521,521,521,521,521,521,521,521,521,521,521,518,504,483,459,426,386,283,222,130,85],"timestamp_mouse":[1,19,40,60,78,99,119,139,159,179,198,219,240,258,279,299,320,339,360,380,399,419,439,460,479,500,519,540,559,580,600,618,639,659,679,700,719,740,759,779,799,820,839,859,879,899,919,939,959,979,1000,1019],"xSR":741.5,"ySR":469.95,"xT1":424.9,"yT1":0,"xT2":1058.1,"yT2":0,"toosoon":0,"cond_shown":"randomdotsizeEA","ratio_trial":750,"smaller_num":"6","larger_num":"8","correct_side":1,"subjID":"jhonblanco8","gender":"0","age":"9","school":"4"},{"start_time":1552313660783,"click_time":1552313661791,"finger_time":1552313661591,"fix_duration":250,"trial":17,"RT":808,"MT":200,"sideResp":1,"stimulus":"img/750/equaldotsize/L/6_Ratio_750_L_24_R_18.png","xmouse":[802,802,802,802,802,802,802,802,802,802,802,802,802,802,802,802,802,802,802,802,799,796,789,782,779,779,779,779,779,779,779,779,779,779,779,779,778,775,769,748,733,714,693,665,596,543,521,497,481,460,458],"ymouse":[552,552,552,552,552,552,552,552,552,552,552,552,552,552,552,552,552,552,552,552,551,545,536,529,526,526,526,526,526,526,526,526,526,526,526,526,526,516,505,480,462,440,417,386,308,252,223,194,165,114,99],"timestamp_mouse":[14,31,48,67,89,109,129,147,168,189,207,227,249,269,287,308,329,349,369,389,408,429,448,468,489,508,529,548,569,589,609,628,649,669,689,709,727,748,769,787,808,829,848,868,888,908,928,948,967,988,1008],"xSR":741.5,"ySR":469.95,"xT1":424.9,"yT1":0,"xT2":1058.1,"yT2":0,"toosoon":0,"cond_shown":"equaldotsize","ratio_trial":750,"smaller_num":"18","larger_num":"24","correct_side":1,"subjID":"jhonblanco8","gender":"0","age":"9","school":"4"},{"start_time":1552313665222,"click_time":1552313666652,"finger_time":1552313666052,"fix_duration":1169.2906020891978,"trial":18,"RT":830,"MT":600,"sideResp":1,"stimulus":"img/900/equaldotsize/L/10_Ratio_900_L_20_R_18.png","xmouse":[778,778,778,778,778,778,778,778,778,778,778,778,778,778,778,778,778,778,778,778,778,778,778,778,778,778,778,778,778,778,778,778,778,778,778,778,778,782,783,783,783,777,719,699,688,685,684,683,682,680,677,669,553,493,493,493,493,493,493,493,493,493,493,493,493,493,493,493,493,493,493,441],"ymouse":[532,532,532,532,532,532,532,532,532,532,532,532,532,532,532,532,532,532,532,532,532,532,532,532,532,532,532,532,532,532,532,532,532,532,532,532,532,519,506,497,479,452,320,288,270,264,261,259,256,251,240,225,70,0,0,0,0,0,0,0,0,0,0,0,0,0,0,0,0,0,0,7],"timestamp_mouse":[12,37,49,70,90,110,130,149,169,188,210,229,249,269,288,310,329,350,369,389,410,430,449,470,490,509,530,549,570,589,610,629,649,670,689,709,728,749,769,789,808,830,850,869,889,910,929,950,969,990,1009,1030,1049,1068,1088,1109,1128,1150,1168,1188,1209,1230,1249,1269,1289,1310,1330,1349,1368,1389,1408,1430],"xSR":741.5,"ySR":469.95,"xT1":424.9,"yT1":0,"xT2":1058.1,"yT2":0,"toosoon":0,"cond_shown":"equaldotsize","ratio_trial":900,"smaller_num":"18","larger_num":"20","correct_side":1,"subjID":"jhonblanco8","gender":"0","age":"9","school":"4"},{"start_time":1552313668344,"click_time":1552313669991,"finger_time":1552313669372,"fix_duration":250,"trial":19,"RT":1028,"MT":619,"sideResp":1,"stimulus":"img/500/equaldotsize/L/10_Ratio_500_L_4_R_2.png","xmouse":[752,752,752,752,752,752,752,752,752,752,752,752,752,752,752,752,752,752,752,752,752,752,752,752,752,752,752,752,752,752,752,752,752,752,752,752,752,752,752,752,752,752,752,752,752,752,752,753,753,753,753,751,746,741,712,673,618,618,618,618,618,618,618,618,618,618,618,618,618,618,530,525,525,525,525,525,525,525,525,525,525,525,524],"ymouse":[511,511,511,511,511,511,511,511,511,511,511,509,508,507,506,506,506,506,506,506,506,506,506,506,506,506,506,506,506,506,506,506,506,506,506,506,506,506,506,506,506,506,506,506,506,505,499,493,489,482,475,443,403,328,184,80,1,1,1,1,1,1,1,1,1,1,1,1,1,1,42,78,96,96,96,96,96,96,96,96,96,96,96],"timestamp_mouse":[18,27,46,68,87,107,128,147,168,188,208,228,247,267,288,307,328,348,367,386,408,426,448,467,488,507,527,547,568,587,606,628,648,667,688,707,728,748,768,788,808,827,848,867,888,906,927,947,968,986,1007,1028,1047,1067,1086,1107,1127,1147,1168,1187,1207,1226,1247,1266,1286,1306,1328,1347,1367,1387,1408,1427,1447,1467,1488,1508,1527,1547,1568,1588,1608,1628,1647],"xSR":741.5,"ySR":469.95,"xT1":424.9,"yT1":0,"xT2":1058.1,"yT2":0,"toosoon":0,"cond_shown":"equaldotsize","ratio_trial":500,"smaller_num":"2","larger_num":"4","correct_side":1,"subjID":"jhonblanco8","gender":"0","age":"9","school":"4"},{"start_time":1552313673022,"click_time":1552313674332,"finger_time":1552313673851,"fix_duration":250,"trial":20,"RT":829,"MT":481,"sideResp":1,"stimulus":"img/900/equaldotsize/L/1_Ratio_900_L_10_R_9.png","xmouse":[779,779,779,779,779,779,779,779,779,779,779,779,779,779,779,779,779,779,779,779,779,779,779,779,779,779,779,779,779,779,779,779,779,779,779,779,779,779,779,779,777,772,759,700,676,653,641,633,620,615,607,600,594,587,578,572,568,561,549,546,544,540,532,524,515,506],"ymouse":[504,504,504,504,504,504,504,504,504,504,504,504,504,504,504,504,504,504,504,504,504,504,504,504,504,504,504,504,504,504,504,504,504,504,504,504,504,503,498,493,483,463,430,341,311,284,267,253,227,218,207,196,185,173,153,141,132,121,113,112,111,111,111,111,107,99],"timestamp_mouse":[13,38,49,69,90,110,128,150,170,189,209,230,249,269,290,308,329,349,368,389,410,429,450,468,488,510,530,550,570,588,608,630,650,669,690,709,729,748,769,790,810,829,850,868,889,909,929,949,970,991,1008,1028,1049,1069,1088,1109,1130,1150,1169,1188,1210,1230,1250,1269,1290,1310],"xSR":741.5,"ySR":469.95,"xT1":424.9,"yT1":0,"xT2":1058.1,"yT2":0,"toosoon":0,"cond_shown":"equaldotsize","ratio_trial":900,"smaller_num":"9","larger_num":"10","correct_side":1,"subjID":"jhonblanco8","gender":"0","age":"9","school":"4"},{"start_time":1552313676785,"click_time":1552313678251,"finger_time":1552313677492,"fix_duration":271.9391510832391,"trial":21,"RT":707,"MT":759,"sideResp":2,"stimulus":"img/500/equaldotanddens/R/9_Ratio_500_L_2_R_4.png","xmouse":[774,774,774,774,774,774,774,774,774,774,774,774,774,774,774,774,774,774,774,774,774,774,774,774,774,774,774,774,774,774,774,774,777,781,792,817,833,849,863,876,878,886,899,917,935,953,974,979,985,990,1000,1027,1049,1073,1082,1086,1089,1090,1090,1090,1090,1090,1090,1091,1091,1091,1091,1091,1091,1092,1093,1094,1094,1094],"ymouse":[493,493,493,493,493,493,493,493,493,493,493,493,493,493,493,493,493,493,493,493,493,493,493,493,493,493,493,493,493,493,493,493,493,490,478,446,428,416,407,397,394,374,350,320,295,276,249,239,226,216,204,174,156,137,129,125,119,118,118,118,118,117,116,113,113,113,113,112,112,111,105,102,101,98],"timestamp_mouse":[12,37,46,66,86,106,127,145,165,185,206,227,246,267,287,308,326,347,367,387,407,426,445,466,486,506,526,546,567,586,606,626,645,667,686,707,725,746,766,787,806,826,846,866,886,906,925,945,966,986,1005,1025,1047,1066,1087,1106,1126,1145,1165,1187,1207,1227,1246,1266,1286,1306,1326,1346,1367,1386,1408,1426,1447,1466],"xSR":741.5,"ySR":469.95,"xT1":424.9,"yT1":0,"xT2":1058.1,"yT2":0,"toosoon":0,"cond_shown":"equaldotanddens","ratio_trial":500,"smaller_num":"2","larger_num":"4","correct_side":2,"subjID":"jhonblanco8","gender":"0","age":"9","school":"4"},{"start_time":1552313679530,"click_time":1552313681131,"finger_time":1552313680230,"fix_duration":498.895415715868,"trial":22,"RT":700,"MT":901,"sideResp":2,"stimulus":"img/500/equaldotsize/R/14_Ratio_500_L_5_R_10.png","xmouse":[789,789,789,789,789,789,789,789,789,789,789,789,789,789,789,789,789,789,789,789,789,789,789,789,789,789,789,789,789,789,789,789,789,789,802,814,826,833,836,850,879,914,953,983,1011,1014,1015,1015,1015,1020,1031,1045,1060,1074,1077,1077,1077,1077,1077,1077,1077,1077,1077,1077,1080,1086,1096,1106,1117,1136,1137,1137,1137,1137,1137,1137,1137,1137,1137,1130,1125],"ymouse":[497,497,497,497,497,497,497,497,497,497,497,497,497,497,497,497,497,497,497,497,497,497,497,497,497,497,497,497,497,497,497,497,497,494,480,469,461,457,455,449,429,390,345,308,256,250,247,247,247,242,229,214,197,182,177,177,177,177,177,177,177,177,177,176,173,167,158,150,140,123,123,123,123,123,123,123,122,121,120,105,98],"timestamp_mouse":[9,21,41,62,82,102,121,142,161,182,202,222,241,262,280,302,321,341,362,381,401,421,440,462,482,501,522,542,561,581,602,622,642,661,681,700,722,742,761,781,802,821,840,860,881,900,920,941,962,981,1001,1021,1042,1062,1081,1100,1121,1140,1162,1181,1202,1221,1242,1261,1281,1301,1322,1342,1362,1381,1401,1421,1441,1461,1481,1502,1522,1542,1561,1581,1600],"xSR":741.5,"ySR":469.95,"xT1":424.9,"yT1":0,"xT2":1058.1,"yT2":0,"toosoon":0,"cond_shown":"equaldotsize","ratio_trial":500,"smaller_num":"5","larger_num":"10","correct_side":2,"subjID":"jhonblanco8","gender":"0","age":"9","school":"4"},{"start_time":1552313682395,"click_time":1552313684471,"finger_time":1552313683231,"fix_duration":262.9963772006951,"trial":23,"RT":836,"MT":1240,"sideResp":2,"stimulus":"img/900/randomdotsizeEA/R/11_Ratio_900_L_18_R_20.png","xmouse":[803,803,803,803,802,802,802,802,802,802,802,802,802,802,802,802,802,802,802,802,802,802,802,802,802,802,802,802,802,802,802,802,802,802,802,799,796,792,790,788,787,785,782,777,774,777,785,797,817,840,885,904,917,932,943,963,966,969,974,984,1011,1027,1039,1045,1046,1048,1051,1053,1056,1059,1061,1064,1065,1065,1065,1065,1068,1070,1071,1072,1073,1073,1073,1074,1075,1075,1075,1077,1077,1079,1079,1079,1079,1079,1079,1079,1079,1079,1079,1079,1079,1080,1081,1081],"ymouse":[506,506,506,506,508,509,509,509,509,509,509,509,509,509,509,509,509,509,509,509,509,509,509,509,509,509,509,509,509,509,509,509,509,509,509,500,491,484,478,475,472,468,461,449,433,413,404,391,382,375,365,355,344,330,314,287,282,277,267,250,207,188,173,166,165,162,158,156,154,150,148,142,142,142,142,141,138,135,133,132,130,130,129,128,126,126,125,121,118,114,113,113,113,113,113,113,110,110,109,109,107,101,100,97],"timestamp_mouse":[16,35,56,77,96,117,136,156,177,196,217,236,256,276,296,316,336,357,377,397,417,437,455,475,496,516,537,557,576,595,616,637,656,677,696,716,737,755,777,795,816,836,857,877,897,917,936,956,977,995,1016,1036,1056,1077,1097,1117,1135,1156,1175,1196,1217,1236,1256,1277,1295,1316,1337,1356,1377,1395,1415,1435,1456,1476,1497,1517,1536,1556,1577,1597,1617,1637,1655,1677,1696,1717,1737,1755,1777,1809,1816,1836,1857,1881,1895,1915,1936,1956,1977,1995,2015,2037,2056,2075],"xSR":741.5,"ySR":469.95,"xT1":424.9,"yT1":0,"xT2":1058.1,"yT2":0,"toosoon":0,"cond_shown":"randomdotsizeEA","ratio_trial":900,"smaller_num":"18","larger_num":"20","correct_side":2,"subjID":"jhonblanco8","gender":"0","age":"9","school":"4"},{"start_time":1552313688170,"click_time":1552313690831,"finger_time":1552313689131,"fix_duration":1296.2754852712185,"trial":24,"RT":961,"MT":1700,"sideResp":2,"stimulus":"img/750/equaldotanddens/R/15_Ratio_750_L_9_R_12.png","xmouse":[778,778,778,778,778,778,778,778,778,778,778,778,778,778,778,778,778,778,778,778,778,778,778,778,778,778,778,778,778,778,778,778,778,778,778,778,778,778,778,778,778,775,773,770,768,768,768,768,783,791,797,800,801,813,828,856,886,919,960,962,964,965,965,962,957,957,957,957,957,957,957,957,957,957,957,957,957,957,959,1009,1036,1047,1047,1047,1047,1047,1047,1047,1047,1047,1047,1044,1038,1000,983,972,964,956,945,945,945,945,945,945,945,946,946,948,951,952,953,955,956,959,961,966,970,975,979,982,986,991,1000,1025,1033,1037,1039,1040,1041,1042,1045,1048,1053,1059],"ymouse":[519,518,518,518,518,518,518,518,518,518,518,518,518,518,518,518,518,518,518,518,518,518,518,518,518,518,518,518,518,518,518,518,518,518,518,518,518,518,518,518,518,515,511,506,501,497,488,472,407,386,372,365,363,352,344,329,310,290,277,276,275,274,274,277,279,279,279,279,279,279,279,279,279,279,279,279,279,279,278,248,242,241,241,241,241,241,241,241,241,234,226,216,201,140,113,95,75,55,24,18,15,14,14,14,14,14,14,15,18,19,20,22,24,27,29,32,35,38,41,43,46,48,53,63,67,68,68,68,68,68,68,68,68,68],"timestamp_mouse":[1,35,41,61,81,101,122,142,162,181,202,221,242,261,282,301,322,340,362,381,401,422,442,462,482,501,522,542,560,582,601,622,641,661,682,702,722,742,761,781,802,822,841,860,882,901,921,941,961,981,1001,1021,1041,1061,1080,1100,1122,1141,1161,1182,1201,1221,1242,1261,1281,1301,1322,1341,1362,1381,1401,1422,1442,1461,1482,1502,1522,1541,1561,1580,1602,1622,1642,1661,1681,1702,1722,1741,1762,1782,1802,1822,1842,1861,1882,1900,1922,1942,1961,1982,2000,2020,2042,2061,2082,2102,2122,2142,2161,2182,2201,2221,2242,2261,2282,2301,2321,2341,2361,2380,2401,2422,2441,2462,2481,2501,2521,2542,2561,2582,2600,2622,2642,2661],"xSR":741.5,"ySR":469.95,"xT1":424.9,"yT1":0,"xT2":1058.1,"yT2":0,"toosoon":0,"cond_shown":"equaldotanddens","ratio_trial":750,"smaller_num":"9","larger_num":"12","correct_side":2,"subjID":"jhonblanco8","gender":"0","age":"9","school":"4"},{"start_time":1552313692565,"click_time":1552313694051,"finger_time":1552313693471,"fix_duration":250,"trial":25,"RT":906,"MT":580,"sideResp":1,"stimulus":"img/500/equaldotsize/L/10_Ratio_500_L_4_R_2.png","xmouse":[780,780,780,780,780,780,780,780,780,780,780,780,780,780,780,780,780,780,780,780,780,780,780,780,780,780,780,780,780,780,780,780,780,780,780,780,780,780,780,779,777,774,768,763,752,744,733,717,662,627,595,547,535,510,509,509,509,509,509,509,507,507,507,506,504,503,502,501,501,498,497,497,497,497,496],"ymouse":[542,542,542,542,542,542,542,542,542,542,542,542,542,542,542,542,542,542,542,542,542,542,542,542,542,542,542,542,542,542,542,542,542,542,542,542,542,542,542,536,530,518,503,493,471,457,437,414,334,283,236,181,171,155,155,154,154,154,154,154,153,153,152,150,146,144,141,138,134,126,124,122,121,110,98],"timestamp_mouse":[12,35,47,66,86,106,125,146,166,186,207,227,247,266,287,306,327,345,366,387,407,426,446,466,486,507,526,547,567,586,606,627,647,665,686,707,727,745,766,786,807,827,845,865,887,906,927,947,968,986,1007,1025,1047,1068,1085,1106,1127,1146,1167,1187,1206,1227,1246,1265,1285,1305,1327,1346,1365,1385,1406,1426,1447,1468,1486],"xSR":741.5,"ySR":469.95,"xT1":424.9,"yT1":0,"xT2":1058.1,"yT2":0,"toosoon":0,"cond_shown":"equaldotsize","ratio_trial":500,"smaller_num":"2","larger_num":"4","correct_side":1,"subjID":"jhonblanco8","gender":"0","age":"9","school":"4"},{"start_time":1552313695720,"click_time":1552313698071,"finger_time":1552313696672,"fix_duration":486.67852153100466,"trial":26,"RT":952,"MT":1399,"sideResp":2,"stimulus":"img/750/randomdotsizeEA/L/9_Ratio_750_L_4_R_3.png","xmouse":[788,788,788,788,784,777,775,775,775,775,775,775,775,775,775,775,775,775,775,775,775,775,775,775,775,775,775,775,775,775,775,775,775,775,775,775,775,775,775,775,775,775,775,775,775,775,799,851,909,932,933,933,933,933,934,936,943,949,960,974,987,1003,1006,1008,1009,1012,1014,1015,1018,1022,1026,1045,1061,1068,1072,1073,1067,1060,1051,1043,1037,1018,1012,1007,1003,1001,996,996,995,995,995,1001,1003,1006,1007,1012,1017,1017,1018,1018,1018,1020,1023,1026,1031,1034,1041,1043,1047,1049,1050,1054,1056,1056,1056,1056,1056,1060],"ymouse":[526,526,526,526,526,527,527,527,527,527,527,527,527,527,527,527,527,527,527,527,527,527,527,527,527,527,527,527,527,527,527,527,527,527,527,527,527,527,527,527,527,527,527,527,527,525,504,477,445,429,427,425,422,417,411,404,388,379,360,343,326,305,302,301,301,301,301,302,306,308,309,310,310,307,305,295,281,270,258,248,238,212,201,190,179,173,169,168,167,167,167,160,154,146,138,128,115,113,113,113,113,112,109,106,103,101,98,98,98,98,98,95,94,94,94,94,93,90],"timestamp_mouse":[11,37,52,72,91,111,132,152,171,191,211,232,252,270,292,311,331,351,372,392,410,431,451,470,492,512,532,550,572,592,611,632,650,670,692,711,732,752,772,791,812,832,852,871,892,910,931,952,970,991,1010,1031,1052,1071,1091,1112,1131,1150,1171,1190,1212,1231,1252,1271,1292,1312,1331,1352,1372,1391,1411,1430,1452,1471,1491,1512,1531,1551,1571,1591,1612,1631,1652,1671,1691,1711,1731,1751,1771,1791,1811,1830,1851,1872,1892,1911,1931,1951,1971,1992,2011,2031,2052,2071,2092,2111,2130,2151,2171,2191,2211,2231,2251,2271,2290,2311,2331,2351],"xSR":741.5,"ySR":469.95,"xT1":424.9,"yT1":0,"xT2":1058.1,"yT2":0,"toosoon":0,"cond_shown":"randomdotsizeEA","ratio_trial":750,"smaller_num":"3","larger_num":"4","correct_side":1,"subjID":"jhonblanco8","gender":"0","age":"9","school":"4"},{"start_time":1552313701015,"click_time":1552313702411,"finger_time":1552313702071,"fix_duration":482.5733902421113,"trial":27,"RT":1056,"MT":340,"sideResp":1,"stimulus":"img/250/randomdotsizeEA/L/14_Ratio_250_L_12_R_3.png","xmouse":[788,788,788,788,788,787,787,787,787,787,787,787,787,787,787,787,787,787,787,787,787,787,787,787,787,787,787,787,787,787,787,787,787,787,787,787,787,787,787,789,792,793,793,793,793,793,793,793,793,793,793,791,760,722,674,599,504,471,456,446,442,435,431,430,429,430,433,440,448,455],"ymouse":[504,504,508,509,511,516,517,519,519,519,519,519,519,519,520,521,522,524,524,524,524,524,524,524,524,524,524,524,524,524,524,524,524,524,524,524,524,524,524,526,530,531,531,531,531,531,531,531,531,531,531,526,457,398,350,303,254,231,214,196,181,146,135,127,124,118,114,106,103,99],"timestamp_mouse":[17,35,56,76,97,115,136,156,176,197,216,236,256,276,297,316,336,356,376,397,416,436,456,477,497,517,536,555,577,597,615,637,656,676,697,717,735,756,777,796,816,836,856,877,897,916,936,957,976,996,1016,1037,1056,1075,1097,1117,1137,1156,1177,1197,1217,1237,1256,1276,1296,1316,1336,1356,1377,1396],"xSR":741.5,"ySR":469.95,"xT1":424.9,"yT1":0,"xT2":1058.1,"yT2":0,"toosoon":0,"cond_shown":"randomdotsizeEA","ratio_trial":250,"smaller_num":"3","larger_num":"12","correct_side":1,"subjID":"jhonblanco8","gender":"0","age":"9","school":"4"},{"start_time":1552313705090,"click_time":1552313706671,"finger_time":1552313706090,"fix_duration":1458.7438658102874,"trial":28,"RT":1000,"MT":581,"sideResp":1,"stimulus":"img/750/randomdotsizeEA/R/5_Ratio_750_L_15_R_20.png","xmouse":[771,771,771,771,771,771,771,771,771,771,771,771,771,771,771,771,771,771,771,771,771,771,771,771,771,771,771,771,771,771,771,771,771,771,771,771,771,771,771,771,771,771,771,771,771,771,771,771,771,769,762,752,735,707,640,621,613,611,610,609,607,607,604,598,577,562,545,529,518,515,512,507,502,498,497,497,497,497,497,497],"ymouse":[482,482,482,482,482,482,482,482,482,482,482,482,482,482,482,482,482,482,482,482,482,482,482,482,482,482,482,482,482,482,482,482,482,482,482,482,482,482,482,482,482,482,482,482,482,482,482,482,482,482,461,432,397,353,269,247,236,233,230,224,220,216,208,198,174,163,151,142,134,126,120,114,110,106,105,105,105,104,101,93],"timestamp_mouse":[9,21,41,61,81,102,122,142,160,181,202,220,242,262,281,302,321,342,362,382,401,422,442,461,482,502,521,541,562,580,602,622,641,662,682,702,722,742,762,781,802,822,842,862,881,902,922,941,961,981,1000,1021,1040,1060,1081,1101,1121,1141,1161,1180,1202,1222,1241,1261,1281,1301,1322,1342,1361,1381,1401,1420,1441,1462,1481,1502,1521,1540,1562,1580],"xSR":741.5,"ySR":469.95,"xT1":424.9,"yT1":0,"xT2":1058.1,"yT2":0,"toosoon":0,"cond_shown":"randomdotsizeEA","ratio_trial":750,"smaller_num":"15","larger_num":"20","correct_side":2,"subjID":"jhonblanco8","gender":"0","age":"9","school":"4"},{"start_time":1552313708418,"click_time":1552313710011,"finger_time":1552313709551,"fix_duration":765.3288526000365,"trial":29,"RT":1133,"MT":460,"sideResp":1,"stimulus":"img/900/equaldotsize/L/10_Ratio_900_L_20_R_18.png","xmouse":[770,770,770,770,770,770,770,770,770,770,770,770,770,770,770,770,770,770,770,770,770,770,770,770,770,770,770,770,770,770,770,770,770,770,770,770,770,770,770,770,770,770,770,770,770,770,770,770,770,770,770,770,770,770,770,771,777,783,787,787,787,787,791,796,810,829,850,875,880,884,886,886,886,886,885,880,851,695,589,500],"ymouse":[510,510,510,510,510,510,510,510,510,510,510,510,510,510,510,510,510,510,510,510,510,510,510,510,510,510,510,510,510,510,510,510,510,510,510,510,510,510,510,510,510,510,510,510,510,510,510,510,510,510,510,510,510,508,495,477,455,429,378,359,345,332,321,310,285,254,230,212,210,208,207,207,207,207,205,202,190,127,93,68],"timestamp_mouse":[13,34,53,74,94,112,132,153,172,193,213,234,254,273,295,314,334,353,374,393,414,434,453,474,493,514,533,553,574,594,613,634,653,673,694,712,734,754,773,794,813,833,854,873,893,913,934,953,974,993,1013,1034,1053,1074,1094,1114,1132,1154,1173,1193,1213,1233,1254,1274,1293,1312,1332,1354,1373,1393,1414,1433,1453,1473,1493,1513,1534,1553,1573,1593],"xSR":741.5,"ySR":469.95,"xT1":424.9,"yT1":0,"xT2":1058.1,"yT2":0,"toosoon":0,"cond_shown":"equaldotsize","ratio_trial":900,"smaller_num":"18","larger_num":"20","correct_side":1,"subjID":"jhonblanco8","gender":"0","age":"9","school":"4"},{"start_time":1552313711819,"click_time":1552313713891,"finger_time":1552313712751,"fix_duration":326.43705085154716,"trial":30,"RT":932,"MT":1140,"sideResp":1,"stimulus":"img/900/equaldotsize/L/2_Ratio_900_L_20_R_18.png","xmouse":[800,800,800,800,800,800,800,800,800,800,800,800,800,800,800,800,800,800,800,800,800,800,800,800,800,800,800,800,800,800,800,800,800,800,800,800,800,800,800,800,800,800,801,807,813,819,824,830,831,836,837,839,842,851,862,866,868,868,868,868,868,868,868,868,868,868,868,868,868,868,868,869,868,821,786,765,743,716,578,511,451,399,368,345,343,343,343,343,350,351,352,352,353,355,358,362,367,374,391,395,401,407,416,440],"ymouse":[524,524,524,524,524,524,524,524,524,524,524,524,524,524,524,524,524,524,524,524,524,524,524,524,524,524,524,524,524,524,524,524,524,524,524,524,524,524,524,524,524,522,510,490,480,470,462,455,453,446,442,440,435,426,422,420,418,418,418,418,418,418,418,418,418,418,418,418,418,418,418,418,415,375,354,340,332,320,252,214,171,134,112,91,85,80,77,74,64,63,61,61,60,60,60,60,60,60,60,60,60,59,59,52],"timestamp_mouse":[13,38,52,73,92,113,132,153,172,193,213,233,253,273,292,311,333,353,373,393,413,433,453,473,492,512,533,552,572,592,612,633,653,673,693,713,732,753,772,793,813,832,851,873,893,912,932,954,972,992,1012,1032,1052,1072,1092,1112,1132,1152,1172,1193,1211,1232,1253,1272,1291,1312,1332,1351,1372,1392,1412,1432,1453,1472,1492,1513,1532,1552,1571,1592,1612,1631,1651,1672,1692,1712,1731,1753,1771,1792,1813,1833,1852,1872,1892,1912,1933,1952,1972,1992,2012,2032,2053,2072],"xSR":741.5,"ySR":469.95,"xT1":424.9,"yT1":0,"xT2":1058.1,"yT2":0,"toosoon":0,"cond_shown":"equaldotsize","ratio_trial":900,"smaller_num":"18","larger_num":"20","correct_side":1,"subjID":"jhonblanco8","gender":"0","age":"9","school":"4"},{"start_time":1552313716100,"click_time":1552313717252,"finger_time":1552313716712,"fix_duration":907.8226423137043,"trial":31,"RT":612,"MT":540,"sideResp":1,"stimulus":"img/500/equaldotsize/L/10_Ratio_500_L_4_R_2.png","xmouse":[763,763,763,763,763,763,763,763,763,763,763,763,763,763,763,763,763,763,763,763,763,761,760,755,751,749,747,747,746,742,740,734,727,721,688,672,645,614,567,474,445,423,390,383,370,370,373,376,377,384,387,389,392,397,408,412,418,427],"ymouse":[549,549,549,549,549,549,549,549,549,549,549,549,549,549,549,549,549,549,549,549,549,549,548,546,544,542,542,541,541,539,537,532,525,517,474,451,420,380,324,209,177,152,112,102,71,62,49,39,32,20,18,17,17,17,21,22,26,29],"timestamp_mouse":[13,38,52,70,92,112,131,152,171,191,212,231,252,271,292,312,331,352,372,391,412,431,450,471,490,512,530,551,571,591,612,630,652,671,691,711,731,752,772,791,811,831,852,871,891,911,932,951,970,991,1011,1031,1052,1071,1091,1110,1130,1152],"xSR":741.5,"ySR":469.95,"xT1":424.9,"yT1":0,"xT2":1058.1,"yT2":0,"toosoon":0,"cond_shown":"equaldotsize","ratio_trial":500,"smaller_num":"2","larger_num":"4","correct_side":1,"subjID":"jhonblanco8","gender":"0","age":"9","school":"4"},{"start_time":1552313719076,"click_time":1552313720470,"finger_time":1552313719612,"fix_duration":522.5018182237053,"trial":32,"RT":536,"MT":858,"sideResp":1,"stimulus":"img/250/equaldotsize/L/5_Ratio_250_L_24_R_6.png","xmouse":[778,778,778,778,778,778,778,778,778,778,778,778,778,778,778,778,778,778,778,778,778,778,778,778,774,767,747,729,712,688,630,602,562,550,531,524,518,516,515,514,514,514,514,513,511,508,488,476,463,454,446,446,446,446,451,455,456,457,457,458,459,461,461,461,462,462,463,463,463,463],"ymouse":[539,539,539,539,539,539,539,539,539,539,539,539,539,539,539,539,539,539,539,539,539,538,536,526,504,486,448,425,400,367,291,255,205,191,168,161,154,152,151,151,151,151,151,150,149,147,135,128,121,115,111,111,111,109,105,103,103,103,103,103,103,103,103,103,103,102,102,102,102,99],"timestamp_mouse":[20,50,55,76,95,115,135,155,175,196,215,235,255,275,295,315,336,354,375,396,415,435,455,476,496,515,536,555,576,596,616,635,655,675,695,716,735,755,775,795,815,836,855,875,895,916,935,956,976,996,1016,1036,1056,1075,1095,1116,1135,1155,1176,1196,1215,1236,1255,1276,1296,1315,1335,1356,1376,1394],"xSR":741.5,"ySR":469.95,"xT1":424.9,"yT1":0,"xT2":1058.1,"yT2":0,"toosoon":0,"cond_shown":"equaldotsize","ratio_trial":250,"smaller_num":"6","larger_num":"24","correct_side":1,"subjID":"jhonblanco8","gender":"0","age":"9","school":"4"},{"start_time":1552313727715,"click_time":1552313729713,"finger_time":1552313728591,"fix_duration":1062.10460223559,"trial":33,"RT":876,"MT":1122,"sideResp":2,"stimulus":"img/250/equaldotanddens/R/6_Ratio_250_L_6_R_24.png","xmouse":[792,792,792,792,792,792,792,792,792,792,792,792,792,792,792,792,792,792,792,792,792,792,792,792,792,792,792,792,792,792,792,792,792,792,792,793,793,793,793,796,807,815,825,834,836,835,835,834,834,834,855,884,911,926,932,949,976,1062,1135,1254,1271,1280,1283,1285,1286,1287,1289,1293,1294,1294,1293,1290,1284,1279,1267,1259,1255,1250,1244,1238,1229,1225,1222,1221,1215,1211,1204,1200,1199,1198,1198,1197,1195,1192,1185,1180,1177,1173,1167,1146],"ymouse":[527,527,527,527,527,527,527,527,527,527,527,527,527,527,527,527,527,527,527,527,527,527,527,527,527,527,527,527,527,527,527,527,527,526,524,523,523,522,521,516,497,485,472,461,446,446,445,445,445,445,445,439,432,427,426,423,420,409,398,378,368,360,355,351,347,344,341,333,324,315,290,277,259,244,217,200,192,184,174,167,158,156,154,153,149,146,140,137,136,135,135,133,131,128,122,114,110,100,85,34],"timestamp_mouse":[35,36,57,77,96,116,135,157,177,196,217,236,257,275,295,316,336,356,376,396,417,435,457,477,496,515,536,557,576,597,617,635,656,676,696,715,737,757,776,796,817,837,857,876,898,916,936,956,977,996,1015,1036,1057,1076,1097,1116,1136,1157,1176,1197,1216,1236,1257,1277,1298,1316,1336,1357,1376,1397,1417,1436,1456,1476,1497,1516,1536,1557,1576,1596,1615,1636,1656,1676,1698,1716,1736,1755,1775,1797,1816,1837,1857,1877,1898,1916,1935,1955,1977,1997],"xSR":741.5,"ySR":469.95,"xT1":424.9,"yT1":0,"xT2":1058.1,"yT2":0,"toosoon":0,"cond_shown":"equaldotanddens","ratio_trial":250,"smaller_num":"6","larger_num":"24","correct_side":2,"subjID":"jhonblanco8","gender":"0","age":"9","school":"4"},{"start_time":1552313732343,"click_time":1552313733193,"finger_time":1552313733071,"fix_duration":250,"trial":34,"RT":728,"MT":122,"sideResp":1,"stimulus":"img/250/equaldotsize/L/2_Ratio_250_L_16_R_4.png","xmouse":[752,748,748,747,747,747,747,747,747,747,747,747,747,747,747,747,755,776,788,792,792,792,792,792,792,792,792,792,792,792,791,787,784,781,759,745,729,712,695,627,578,514,455],"ymouse":[525,527,527,527,527,527,527,527,527,527,527,527,527,527,527,527,527,526,524,522,522,522,522,522,522,522,522,522,522,522,520,518,516,514,499,490,476,460,441,284,196,130,91],"timestamp_mouse":[15,38,48,67,88,108,129,148,169,188,209,229,248,269,289,309,328,348,367,388,409,429,448,468,489,509,528,549,569,589,608,628,649,668,688,708,728,748,768,788,807,827,849],"xSR":741.5,"ySR":469.95,"xT1":424.9,"yT1":0,"xT2":1058.1,"yT2":0,"toosoon":0,"cond_shown":"equaldotsize","ratio_trial":250,"smaller_num":"4","larger_num":"16","correct_side":1,"subjID":"jhonblanco8","gender":"0","age":"9","school":"4"},{"start_time":1552313734936,"click_time":1552313736331,"finger_time":1552313735611,"fix_duration":303.6242154518646,"trial":35,"RT":675,"MT":720,"sideResp":1,"stimulus":"img/900/equaldotsize/R/6_Ratio_900_L_9_R_10.png","xmouse":[756,756,756,756,756,756,756,756,756,756,756,756,756,756,756,756,756,756,757,759,760,760,760,760,760,761,761,761,761,761,761,761,762,762,762,762,762,762,762,762,762,762,762,762,754,733,710,673,631,566,561,561,561,567,571,571,571,571,572,572,572,570,566,560,553,551,549,545,540,516],"ymouse":[494,494,494,494,494,494,494,494,494,494,494,494,494,494,494,494,494,494,494,493,491,491,491,491,491,489,488,486,484,479,475,473,471,468,462,458,455,453,452,450,447,443,431,425,404,361,325,273,223,144,132,126,126,121,120,120,120,120,119,108,104,100,96,92,89,89,89,89,89,85],"timestamp_mouse":[18,44,56,76,95,115,136,154,175,195,215,236,256,276,296,316,336,355,375,395,415,435,456,475,496,515,535,555,575,595,616,635,655,675,696,715,734,755,776,796,814,835,855,875,895,916,935,955,975,995,1014,1035,1055,1075,1095,1115,1135,1156,1175,1196,1215,1235,1255,1276,1296,1315,1335,1355,1375,1395],"xSR":741.5,"ySR":469.95,"xT1":424.9,"yT1":0,"xT2":1058.1,"yT2":0,"toosoon":0,"cond_shown":"equaldotsize","ratio_trial":900,"smaller_num":"9","larger_num":"10","correct_side":2,"subjID":"jhonblanco8","gender":"0","age":"9","school":"4"},{"start_time":1552313737563,"click_time":1552313739531,"finger_time":1552313738932,"fix_duration":250,"trial":36,"RT":1369,"MT":599,"sideResp":2,"stimulus":"img/500/equaldotsize/L/4_Ratio_500_L_18_R_9.png","xmouse":[793,793,793,793,793,792,790,787,786,778,774,773,770,768,766,765,765,765,765,765,765,765,765,765,765,765,765,765,765,765,765,765,765,765,765,765,770,774,785,788,790,790,790,790,790,790,790,790,790,790,790,789,786,785,785,784,783,782,781,779,779,779,779,779,779,780,781,787,798,822,831,845,855,868,912,944,973,992,1005,1016,1024,1037,1054,1073,1106,1112,1114,1114,1114,1114,1114,1114,1114,1115,1108,1103,1096,1086,1075],"ymouse":[541,541,541,541,541,541,541,541,541,539,539,539,542,545,548,549,549,549,549,549,549,549,549,549,549,549,549,549,549,549,549,549,549,549,549,549,541,536,522,518,515,513,513,513,513,513,513,513,513,513,513,513,515,516,516,517,518,518,520,523,524,524,524,524,524,514,506,482,446,359,327,289,272,250,179,168,157,146,137,128,124,123,123,125,129,129,130,130,130,130,130,130,130,130,126,123,117,108,99],"timestamp_mouse":[14,38,47,69,89,108,128,148,169,189,209,228,249,268,289,309,329,347,369,387,408,428,448,468,487,509,529,547,569,588,609,629,649,668,688,708,729,748,769,788,809,828,848,868,888,909,929,947,969,988,1009,1029,1047,1068,1089,1108,1128,1149,1168,1188,1208,1228,1249,1268,1289,1308,1328,1348,1369,1388,1408,1428,1449,1468,1489,1508,1528,1548,1569,1588,1609,1629,1648,1668,1688,1709,1729,1749,1769,1788,1809,1827,1848,1869,1888,1908,1929,1948,1968],"xSR":741.5,"ySR":469.95,"xT1":424.9,"yT1":0,"xT2":1058.1,"yT2":0,"toosoon":0,"cond_shown":"equaldotsize","ratio_trial":500,"smaller_num":"9","larger_num":"18","correct_side":1,"subjID":"jhonblanco8","gender":"0","age":"9","school":"4"},{"start_time":1552313741811,"click_time":1552313742652,"finger_time":1552313742550,"fix_duration":1077.383909711465,"trial":37,"RT":739,"MT":102,"sideResp":1,"stimulus":"img/900/equaldotanddens/L/4_Ratio_900_L_20_R_18.png","xmouse":[794,793,793,793,793,793,793,793,793,793,793,793,793,793,793,793,793,793,793,793,793,793,792,792,792,792,792,792,792,791,791,791,790,789,788,785,776,728,696,660,626,589,498],"ymouse":[516,515,515,515,515,515,515,515,515,515,515,515,515,515,515,515,515,515,515,515,515,515,514,514,514,514,514,514,514,512,512,512,511,508,505,496,475,389,345,298,249,199,87],"timestamp_mouse":[0,21,40,60,81,100,120,140,161,181,200,221,241,261,280,301,321,340,361,381,400,421,441,461,481,500,520,540,560,580,600,621,640,660,681,701,720,739,759,779,800,820,841],"xSR":741.5,"ySR":469.95,"xT1":424.9,"yT1":0,"xT2":1058.1,"yT2":0,"toosoon":0,"cond_shown":"equaldotanddens","ratio_trial":900,"smaller_num":"18","larger_num":"20","correct_side":1,"subjID":"jhonblanco8","gender":"0","age":"9","school":"4"},{"start_time":1552313745752,"click_time":1552313747712,"finger_time":1552313746611,"fix_duration":939.0403187780644,"trial":38,"RT":859,"MT":1101,"sideResp":2,"stimulus":"img/750/randomdotsizeEA/R/11_Ratio_750_L_12_R_16.png","xmouse":[789,789,789,789,789,789,789,789,789,789,789,789,789,789,789,789,789,789,789,789,789,789,789,789,789,789,789,789,789,789,789,789,789,789,789,789,789,789,789,789,790,790,782,773,740,725,714,708,708,708,708,708,708,708,722,754,835,893,964,1034,1170,1222,1247,1266,1286,1288,1288,1288,1289,1290,1290,1290,1290,1289,1277,1266,1257,1248,1245,1244,1244,1244,1243,1242,1238,1233,1226,1216,1205,1192,1189,1186,1183,1182,1179,1167,1161,1157],"ymouse":[524,524,524,524,524,524,524,524,524,524,524,524,524,524,524,524,524,524,524,524,524,524,524,524,524,524,524,524,524,524,524,524,524,524,524,524,524,524,524,524,514,494,458,403,266,219,194,185,185,185,185,185,185,185,180,165,135,122,113,113,113,113,114,117,120,120,120,120,120,120,119,118,116,114,106,102,98,94,92,91,91,91,91,90,89,87,84,80,75,71,70,69,68,67,65,62,60,60],"timestamp_mouse":[19,46,59,79,99,119,140,159,179,200,218,240,260,278,300,319,339,359,378,400,420,440,460,479,499,520,539,560,579,599,620,639,659,679,700,719,740,759,780,799,820,840,859,879,901,919,939,959,979,1000,1019,1040,1060,1079,1101,1118,1140,1158,1180,1199,1218,1239,1259,1280,1300,1320,1339,1359,1379,1400,1419,1439,1459,1480,1501,1519,1539,1559,1580,1599,1620,1639,1660,1680,1699,1720,1739,1759,1779,1800,1819,1840,1859,1879,1899,1919,1939,1960],"xSR":741.5,"ySR":469.95,"xT1":424.9,"yT1":0,"xT2":1058.1,"yT2":0,"toosoon":0,"cond_shown":"randomdotsizeEA","ratio_trial":750,"smaller_num":"12","larger_num":"16","correct_side":2,"subjID":"jhonblanco8","gender":"0","age":"9","school":"4"},{"start_time":1552313750858,"click_time":1552313751872,"finger_time":1552313751711,"fix_duration":385.73738753630505,"trial":39,"RT":853,"MT":161,"sideResp":1,"stimulus":"img/500/randomdotsizeEA/L/7_Ratio_500_L_10_R_5.png","xmouse":[772,772,772,772,772,772,772,772,775,775,775,775,775,775,775,775,775,775,775,775,775,775,775,775,775,775,775,775,775,775,775,775,775,775,775,775,775,775,775,775,769,762,753,739,720,658,627,588,549,515,476],"ymouse":[524,524,524,524,524,524,524,524,525,525,525,525,525,525,525,525,525,525,525,525,525,525,525,525,525,525,525,525,525,525,525,525,525,525,525,525,525,525,525,523,507,490,469,440,399,299,248,193,141,101,63],"timestamp_mouse":[13,32,53,73,93,113,133,153,173,194,213,234,254,274,294,313,333,352,374,394,413,432,453,473,493,512,534,554,573,593,613,634,653,673,693,714,734,753,773,794,813,832,853,874,894,913,933,953,973,993,1014],"xSR":741.5,"ySR":469.95,"xT1":424.9,"yT1":0,"xT2":1058.1,"yT2":0,"toosoon":0,"cond_shown":"randomdotsizeEA","ratio_trial":500,"smaller_num":"5","larger_num":"10","correct_side":1,"subjID":"jhonblanco8","gender":"0","age":"9","school":"4"},{"start_time":1552313753467,"click_time":1552313754872,"finger_time":1552313753991,"fix_duration":533.6705736610153,"trial":40,"RT":524,"MT":881,"sideResp":2,"stimulus":"img/500/randomdotsizeEA/R/2_Ratio_500_L_3_R_6.png","xmouse":[772,772,772,772,772,772,772,772,772,772,772,772,772,772,773,773,774,775,776,777,780,781,785,790,795,797,809,819,823,834,841,857,869,883,897,943,976,1004,1037,1045,1052,1059,1068,1080,1087,1091,1091,1092,1092,1092,1092,1093,1093,1093,1093,1091,1087,1084,1081,1079,1078,1078,1078,1078,1078,1078,1078,1078,1080,1083,1089],"ymouse":[495,495,495,495,495,495,495,495,495,495,495,495,495,495,495,496,496,496,496,496,496,495,491,486,481,477,461,449,444,432,425,410,394,375,355,300,262,230,197,190,186,182,177,172,170,168,168,167,167,167,167,159,155,150,142,129,122,119,117,116,115,115,115,115,115,115,114,112,105,100,82],"timestamp_mouse":[10,34,44,64,84,104,124,145,164,183,204,225,244,264,285,305,324,344,364,385,404,424,445,465,485,503,524,545,564,584,605,625,644,664,684,705,724,745,764,785,804,823,844,865,885,904,924,945,964,984,1004,1024,1045,1065,1085,1104,1124,1144,1165,1185,1205,1223,1245,1265,1284,1305,1324,1344,1365,1385,1405],"xSR":741.5,"ySR":469.95,"xT1":424.9,"yT1":0,"xT2":1058.1,"yT2":0,"toosoon":0,"cond_shown":"randomdotsizeEA","ratio_trial":500,"smaller_num":"3","larger_num":"6","correct_side":2,"subjID":"jhonblanco8","gender":"0","age":"9","school":"4"},{"start_time":1552313757256,"click_time":1552313758151,"finger_time":1552313757790,"fix_duration":1224.9358527894542,"trial":41,"RT":534,"MT":361,"sideResp":2,"stimulus":"img/250/equaldotanddens/R/4_Ratio_250_L_3_R_12.png","xmouse":[790,790,790,790,790,790,790,790,790,790,790,790,790,790,790,790,790,790,790,790,789,788,787,786,786,785,785,785,788,796,810,864,892,923,963,995,1053,1066,1076,1088,1101,1117,1120,1122,1123],"ymouse":[518,518,518,518,518,518,518,518,518,518,518,518,518,518,518,518,518,518,511,496,488,479,477,475,472,470,466,457,446,429,403,324,283,239,191,164,149,147,143,138,127,112,106,100,98],"timestamp_mouse":[14,35,55,75,95,116,135,156,175,195,215,235,255,274,295,315,336,355,376,395,416,436,454,476,495,515,534,556,575,596,615,635,655,675,696,715,735,756,775,795,816,835,855,876,894],"xSR":741.5,"ySR":469.95,"xT1":424.9,"yT1":0,"xT2":1058.1,"yT2":0,"toosoon":0,"cond_shown":"equaldotanddens","ratio_trial":250,"smaller_num":"3","larger_num":"12","correct_side":2,"subjID":"jhonblanco8","gender":"0","age":"9","school":"4"},{"start_time":1552313759919,"click_time":1552313761112,"finger_time":1552313760352,"fix_duration":805.9256697770782,"trial":42,"RT":433,"MT":760,"sideResp":1,"stimulus":"img/250/randomdotsizeEA/L/2_Ratio_250_L_16_R_4.png","xmouse":[780,780,780,780,780,780,780,780,780,780,781,783,784,788,791,792,795,796,805,812,820,833,850,867,869,869,865,857,808,764,701,626,553,386,334,282,239,217,215,218,228,256,281,305,312,317,318,319,327,336,346,353,358,370,373,375,379,390,421,431],"ymouse":[512,512,512,512,512,512,512,512,512,513,513,513,513,513,512,512,511,510,502,493,484,469,444,408,390,374,364,356,344,338,327,307,287,213,176,139,103,90,88,92,97,105,110,109,105,103,102,102,102,100,99,97,96,92,92,91,90,87,77,74],"timestamp_mouse":[21,39,53,71,93,113,132,151,172,192,212,232,253,272,293,312,333,352,373,393,412,433,452,472,491,512,533,552,572,592,612,633,652,672,693,712,731,752,773,792,813,833,852,872,892,912,932,952,972,992,1012,1032,1052,1072,1092,1112,1132,1153,1173,1193],"xSR":741.5,"ySR":469.95,"xT1":424.9,"yT1":0,"xT2":1058.1,"yT2":0,"toosoon":0,"cond_shown":"randomdotsizeEA","ratio_trial":250,"smaller_num":"4","larger_num":"16","correct_side":1,"subjID":"jhonblanco8","gender":"0","age":"9","school":"4"},{"start_time":1552313763446,"click_time":1552313765452,"finger_time":1552313763672,"fix_duration":1111.8201426720327,"trial":43,"RT":226,"MT":1780,"sideResp":2,"stimulus":"img/250/equaldotanddens/R/6_Ratio_250_L_6_R_24.png","xmouse":[795,795,795,795,795,795,795,795,795,790,781,770,726,711,701,692,688,685,682,680,676,674,672,670,667,664,662,649,634,611,588,567,564,564,564,564,563,565,577,583,592,607,644,669,699,762,788,809,814,816,817,819,839,861,879,908,926,940,946,955,968,982,1017,1032,1040,1044,1045,1045,1045,1045,1045,1044,1043,1038,1036,1033,1031,1030,1029,1029,1028,1028,1028,1034,1050,1059,1064,1071,1073,1074,1075,1077,1078,1080,1082,1083,1083,1084,1084,1085,1085],"ymouse":[521,521,521,521,521,521,521,521,521,503,485,460,394,373,360,347,341,333,325,319,311,304,295,285,278,272,266,253,244,230,220,215,215,215,215,215,215,218,221,222,223,225,226,226,226,228,232,239,240,240,241,242,242,241,235,222,214,208,203,195,186,180,169,162,158,153,152,152,152,152,152,151,150,146,145,142,140,139,138,138,137,137,137,131,125,124,122,118,116,116,115,113,111,109,106,105,105,105,102,100,99],"timestamp_mouse":[12,34,46,66,86,106,125,146,164,185,205,226,247,265,285,305,325,347,365,386,405,426,446,465,485,505,526,546,565,585,605,626,646,665,685,705,726,746,765,785,805,826,847,865,885,906,925,946,965,986,1006,1024,1047,1065,1085,1106,1126,1147,1165,1185,1205,1225,1247,1265,1285,1305,1325,1346,1365,1385,1406,1426,1445,1465,1485,1506,1525,1545,1566,1585,1606,1625,1645,1664,1685,1706,1726,1747,1765,1785,1805,1825,1846,1866,1886,1906,1925,1945,1965,1985,2006],"xSR":741.5,"ySR":469.95,"xT1":424.9,"yT1":0,"xT2":1058.1,"yT2":0,"toosoon":0,"cond_shown":"equaldotanddens","ratio_trial":250,"smaller_num":"6","larger_num":"24","correct_side":2,"subjID":"jhonblanco8","gender":"0","age":"9","school":"4"},{"start_time":1552313768069,"click_time":1552313769811,"finger_time":1552313768851,"fix_duration":1157.6791306813745,"trial":44,"RT":782,"MT":960,"sideResp":2,"stimulus":"img/900/equaldotanddens/R/12_Ratio_900_L_18_R_20.png","xmouse":[787,787,787,787,787,787,787,787,787,787,787,787,787,787,787,787,787,787,787,787,787,787,787,787,787,787,787,787,787,787,787,787,787,787,787,787,785,773,763,747,734,727,724,730,740,754,769,797,803,804,804,804,812,836,887,955,1029,1124,1138,1139,1139,1145,1181,1217,1258,1275,1278,1277,1261,1242,1223,1205,1177,1173,1171,1171,1171,1171,1170,1170,1170,1172,1185,1185,1185,1177,1169,1155],"ymouse":[524,524,524,524,524,524,524,524,524,524,524,524,524,524,524,524,524,524,524,524,524,524,524,524,524,524,524,524,524,524,524,524,524,524,524,524,523,502,480,456,432,411,375,364,349,332,313,284,279,278,278,278,278,274,268,259,249,247,251,252,252,252,247,243,237,235,234,231,226,220,215,210,199,197,195,193,189,183,180,180,179,169,124,107,94,81,74,67],"timestamp_mouse":[9,23,42,63,83,101,121,142,161,182,201,222,242,262,283,302,323,342,362,382,403,422,442,462,482,503,522,542,562,583,608,621,642,662,683,701,723,741,763,782,802,823,842,863,882,903,923,942,962,982,1002,1023,1042,1062,1082,1102,1122,1143,1162,1183,1202,1223,1242,1262,1282,1303,1323,1342,1362,1382,1402,1423,1442,1462,1483,1502,1523,1543,1562,1583,1603,1623,1642,1661,1682,1703,1722,1741],"xSR":741.5,"ySR":469.95,"xT1":424.9,"yT1":0,"xT2":1058.1,"yT2":0,"toosoon":0,"cond_shown":"equaldotanddens","ratio_trial":900,"smaller_num":"18","larger_num":"20","correct_side":2,"subjID":"jhonblanco8","gender":"0","age":"9","school":"4"},{"start_time":1552313771562,"click_time":1552313772712,"finger_time":1552313772351,"fix_duration":250,"trial":45,"RT":789,"MT":361,"sideResp":1,"stimulus":"img/900/equaldotsize/L/2_Ratio_900_L_20_R_18.png","xmouse":[761,761,761,761,761,761,761,761,761,761,761,761,761,761,761,761,761,761,761,761,761,761,761,761,761,761,761,761,761,761,761,761,761,761,761,761,761,761,754,741,720,693,658,557,510,458,441,432,430,430,433,438,444,456,459,461,462,465],"ymouse":[535,535,535,535,535,535,535,535,535,535,535,535,535,535,535,535,535,535,535,535,535,535,535,535,535,535,535,535,535,535,535,535,535,535,535,535,535,534,501,471,434,395,348,248,214,179,165,156,148,143,137,129,123,111,107,103,101,97],"timestamp_mouse":[13,31,50,70,90,109,130,149,170,189,209,230,248,270,290,308,329,350,368,390,408,430,449,470,490,509,530,549,569,590,609,629,650,669,689,710,729,749,770,789,810,830,850,868,889,909,929,950,969,990,1009,1030,1049,1070,1089,1110,1129,1150],"xSR":741.5,"ySR":469.95,"xT1":424.9,"yT1":0,"xT2":1058.1,"yT2":0,"toosoon":0,"cond_shown":"equaldotsize","ratio_trial":900,"smaller_num":"18","larger_num":"20","correct_side":1,"subjID":"jhonblanco8","gender":"0","age":"9","school":"4"},{"start_time":1552313775283,"click_time":1552313777291,"finger_time":1552313776031,"fix_duration":250,"trial":46,"RT":748,"MT":1260,"sideResp":2,"stimulus":"img/900/randomdotsizeEA/L/8_Ratio_900_L_20_R_18.png","xmouse":[816,816,816,816,816,816,816,816,816,816,816,816,816,816,816,816,816,816,816,816,816,816,816,816,816,816,816,815,815,814,814,814,814,814,813,811,807,804,804,807,816,834,893,931,952,963,968,982,1000,1021,1042,1062,1107,1119,1124,1124,1124,1102,1092,1082,1073,1067,1064,1063,1063,1063,1063,1064,1065,1068,1071,1076,1085,1086,1086,1086,1086,1086,1086,1087,1088,1088,1088,1088,1088,1088,1089,1089,1089,1089,1089,1089,1089,1089,1089,1089,1089,1089,1089,1088,1088],"ymouse":[545,545,545,545,544,544,544,544,544,544,544,544,544,544,544,544,544,544,544,544,544,544,544,544,544,544,544,544,544,544,544,544,544,539,532,516,500,453,434,415,397,372,302,261,235,223,217,207,202,199,196,193,180,174,171,171,171,162,157,152,149,146,142,140,140,140,140,139,138,134,131,127,120,118,118,118,118,118,118,118,117,115,112,110,109,108,106,104,103,102,102,102,102,102,102,101,101,101,101,100,98],"timestamp_mouse":[20,28,49,68,89,108,128,148,168,187,208,229,249,268,288,308,329,348,369,389,407,429,449,469,488,508,528,548,569,587,609,628,649,668,687,709,729,748,769,788,808,829,848,869,887,909,928,948,968,989,1008,1028,1047,1069,1089,1108,1129,1148,1169,1188,1208,1228,1248,1268,1289,1308,1329,1348,1369,1388,1408,1428,1447,1468,1488,1509,1529,1548,1567,1587,1609,1628,1648,1667,1689,1708,1729,1748,1769,1788,1808,1829,1848,1869,1889,1908,1929,1948,1969,1989,2008],"xSR":741.5,"ySR":469.95,"xT1":424.9,"yT1":0,"xT2":1058.1,"yT2":0,"toosoon":0,"cond_shown":"randomdotsizeEA","ratio_trial":900,"smaller_num":"18","larger_num":"20","correct_side":1,"subjID":"jhonblanco8","gender":"0","age":"9","school":"4"},{"start_time":1552313779198,"click_time":1552313780111,"finger_time":1552313779972,"fix_duration":703.6234551156355,"trial":47,"RT":774,"MT":139,"sideResp":1,"stimulus":"img/750/equaldotanddens/L/1_Ratio_750_L_20_R_15.png","xmouse":[789,789,789,789,789,789,789,789,789,789,789,789,789,789,789,789,789,789,789,789,789,789,789,789,789,789,789,789,789,789,789,789,789,789,789,789,788,773,748,736,701,637,604,564,526,490],"ymouse":[498,499,499,499,499,499,499,499,499,499,499,499,499,499,499,499,499,499,499,499,499,499,499,499,499,499,499,499,499,499,499,499,499,499,499,499,500,477,436,417,354,245,191,136,86,43],"timestamp_mouse":[14,33,54,74,94,113,134,153,174,193,213,234,253,274,294,313,333,353,374,393,414,433,454,473,493,514,534,553,573,594,614,632,654,674,693,712,733,754,774,794,814,834,853,873,893,913],"xSR":741.5,"ySR":469.95,"xT1":424.9,"yT1":0,"xT2":1058.1,"yT2":0,"toosoon":0,"cond_shown":"equaldotanddens","ratio_trial":750,"smaller_num":"15","larger_num":"20","correct_side":1,"subjID":"jhonblanco8","gender":"0","age":"9","school":"4"},{"start_time":1552313781516,"click_time":1552313782811,"finger_time":1552313782292,"fix_duration":501.39910568209734,"trial":48,"RT":776,"MT":519,"sideResp":2,"stimulus":"img/900/randomdotsizeEA/L/8_Ratio_900_L_20_R_18.png","xmouse":[793,793,793,793,793,793,793,793,793,793,793,793,793,793,793,793,793,793,793,793,793,793,793,793,793,793,793,793,793,793,793,793,793,793,795,813,826,841,858,879,918,1060,1135,1189,1202,1202,1203,1206,1211,1217,1221,1214,1202,1191,1186,1184,1181,1181,1179,1177,1173,1167,1164,1151,1138],"ymouse":[519,519,519,519,519,519,519,519,519,519,519,519,519,519,519,519,519,519,519,519,519,519,519,519,518,516,515,515,515,515,515,515,515,513,509,499,493,486,480,470,445,346,299,270,257,248,238,224,208,188,149,133,119,112,110,109,107,107,105,103,102,102,102,102,99],"timestamp_mouse":[16,35,56,75,96,115,136,156,176,195,216,236,256,276,295,315,335,355,376,395,416,436,455,476,496,516,535,555,576,596,615,635,656,676,696,716,736,755,776,795,817,835,854,874,895,917,935,956,975,996,1017,1034,1055,1075,1095,1115,1135,1156,1175,1195,1217,1235,1255,1275,1295],"xSR":741.5,"ySR":469.95,"xT1":424.9,"yT1":0,"xT2":1058.1,"yT2":0,"toosoon":0,"cond_shown":"randomdotsizeEA","ratio_trial":900,"smaller_num":"18","larger_num":"20","correct_side":1,"subjID":"jhonblanco8","gender":"0","age":"9","school":"4"},{"start_time":1552313784002,"click_time":1552313785012,"finger_time":1552313784612,"fix_duration":250,"trial":49,"RT":610,"MT":400,"sideResp":1,"stimulus":"img/250/equaldotanddens/L/3_Ratio_250_L_8_R_2.png","xmouse":[786,786,786,786,786,786,786,786,786,786,786,786,786,786,786,786,786,786,786,786,786,786,786,787,787,787,787,785,777,769,748,714,651,616,586,559,531,495,492,489,486,483,483,483,483,483,483,489,491,492,492],"ymouse":[544,544,544,544,544,544,544,544,544,544,544,544,544,544,544,544,544,544,544,544,544,544,544,544,544,544,542,535,518,498,464,415,329,284,249,217,185,150,148,145,142,138,138,138,138,135,135,117,108,102,96],"timestamp_mouse":[9,30,51,69,89,108,129,149,170,188,210,230,249,270,290,310,330,350,370,390,409,429,449,468,489,510,529,549,568,590,610,629,649,670,689,710,729,749,769,788,810,829,850,869,890,909,929,949,969,989,1010],"xSR":741.5,"ySR":469.95,"xT1":424.9,"yT1":0,"xT2":1058.1,"yT2":0,"toosoon":0,"cond_shown":"equaldotanddens","ratio_trial":250,"smaller_num":"2","larger_num":"8","correct_side":1,"subjID":"jhonblanco8","gender":"0","age":"9","school":"4"},{"start_time":1552313786534,"click_time":1552313787672,"finger_time":1552313787251,"fix_duration":881.3125098214249,"trial":50,"RT":717,"MT":421,"sideResp":1,"stimulus":"img/750/equaldotsize/L/8_Ratio_750_L_4_R_3.png","xmouse":[799,799,799,799,799,799,799,799,799,799,799,799,799,799,799,799,799,799,799,799,799,799,799,799,799,799,799,799,799,799,799,799,795,789,777,739,715,682,647,590,545,532,525,522,521,520,520,519,519,519,519,518,514,507,498,477,467],"ymouse":[521,521,521,521,521,521,521,521,521,521,521,521,521,521,521,521,521,521,521,521,521,521,521,521,521,521,521,521,521,521,521,521,518,507,492,451,426,396,365,319,282,270,263,257,253,250,245,239,228,209,183,172,161,146,128,100,90],"timestamp_mouse":[18,45,57,78,97,118,138,157,177,196,218,237,258,277,298,317,337,358,378,397,418,437,456,477,498,517,537,557,578,598,617,638,656,677,698,717,737,757,777,798,817,837,857,878,898,917,938,958,978,998,1018,1038,1058,1077,1098,1118,1138],"xSR":741.5,"ySR":469.95,"xT1":424.9,"yT1":0,"xT2":1058.1,"yT2":0,"toosoon":0,"cond_shown":"equaldotsize","ratio_trial":750,"smaller_num":"3","larger_num":"4","correct_side":1,"subjID":"jhonblanco8","gender":"0","age":"9","school":"4"},{"start_time":1552313788843,"click_time":1552313790392,"finger_time":1552313789512,"fix_duration":430.49470009335533,"trial":51,"RT":669,"MT":880,"sideResp":2,"stimulus":"img/900/equaldotsize/L/2_Ratio_900_L_20_R_18.png","xmouse":[808,808,808,808,808,808,808,808,808,808,808,808,808,808,808,808,808,808,808,808,808,808,808,808,808,808,808,808,808,808,808,814,826,850,865,885,942,974,994,1009,1020,1033,1034,1035,1036,1037,1037,1037,1037,1037,1038,1046,1048,1051,1052,1055,1056,1060,1064,1069,1073,1078,1078,1078,1078,1078,1078,1078,1078,1078,1077,1076,1076,1076,1076,1076,1076,1075],"ymouse":[521,521,521,521,521,521,521,521,521,521,521,521,521,521,521,521,521,521,521,521,521,521,521,521,521,521,521,521,521,521,519,512,502,481,463,437,357,319,297,280,256,219,212,206,203,201,201,201,200,197,193,175,170,159,155,149,144,137,130,122,115,107,105,104,103,102,102,101,101,100,100,100,100,100,100,100,100,99],"timestamp_mouse":[19,37,48,68,89,108,128,148,168,189,208,229,249,267,288,309,329,348,367,388,408,429,448,468,488,508,529,548,569,589,608,629,648,669,689,709,729,748,768,788,808,828,848,869,888,909,928,948,969,988,1009,1029,1048,1069,1089,1110,1128,1148,1169,1188,1208,1229,1247,1269,1288,1309,1327,1348,1369,1389,1409,1428,1448,1469,1489,1509,1528,1549],"xSR":741.5,"ySR":469.95,"xT1":424.9,"yT1":0,"xT2":1058.1,"yT2":0,"toosoon":0,"cond_shown":"equaldotsize","ratio_trial":900,"smaller_num":"18","larger_num":"20","correct_side":1,"subjID":"jhonblanco8","gender":"0","age":"9","school":"4"},{"start_time":1552313792795,"click_time":1552313793951,"finger_time":1552313793431,"fix_duration":1162.5854550983402,"trial":52,"RT":636,"MT":520,"sideResp":1,"stimulus":"img/500/randomdotsizeEA/L/10_Ratio_500_L_4_R_2.png","xmouse":[774,774,774,771,764,759,756,754,754,754,754,754,754,754,754,754,754,754,754,754,754,754,754,754,754,754,754,754,752,749,743,734,718,650,614,576,556,542,531,530,530,530,530,530,530,530,531,532,536,536,534,531,529,526,520,511,495,476],"ymouse":[545,545,545,545,545,544,543,542,542,542,542,542,542,542,542,542,542,542,542,542,542,542,542,542,542,542,542,542,541,531,509,486,457,388,362,328,310,293,205,193,193,193,193,193,193,192,186,179,151,147,141,137,134,130,125,118,106,91],"timestamp_mouse":[16,37,56,77,97,116,136,157,177,196,215,236,257,277,296,317,336,357,376,397,417,437,457,476,496,517,536,556,576,596,617,636,656,676,697,717,736,757,776,797,815,836,856,876,897,916,936,957,975,997,1017,1037,1056,1076,1096,1116,1135,1156],"xSR":741.5,"ySR":469.95,"xT1":424.9,"yT1":0,"xT2":1058.1,"yT2":0,"toosoon":0,"cond_shown":"randomdotsizeEA","ratio_trial":500,"smaller_num":"2","larger_num":"4","correct_side":1,"subjID":"jhonblanco8","gender":"0","age":"9","school":"4"},{"start_time":1552313794934,"click_time":1552313795951,"finger_time":1552313795431,"fix_duration":381.03153795275404,"trial":53,"RT":497,"MT":520,"sideResp":1,"stimulus":"img/250/equaldotsize/L/5_Ratio_250_L_24_R_6.png","xmouse":[761,759,759,759,759,759,759,759,759,759,760,760,760,760,760,760,760,760,760,760,760,760,756,748,732,720,689,666,645,629,619,614,613,613,612,612,604,598,591,585,582,575,570,564,559,552,538,532,526,525,524],"ymouse":[517,517,517,517,517,517,517,517,517,517,517,517,516,516,516,516,516,516,516,516,515,510,502,492,474,458,387,331,283,238,195,163,161,161,161,161,155,151,147,143,141,138,135,131,126,115,90,83,77,76,75],"timestamp_mouse":[18,38,57,78,98,116,137,158,176,198,217,237,258,277,298,317,338,358,376,398,417,436,457,477,497,517,537,558,577,598,618,638,657,677,697,716,737,758,777,797,817,838,857,877,897,917,937,957,977,998,1017],"xSR":741.5,"ySR":469.95,"xT1":424.9,"yT1":0,"xT2":1058.1,"yT2":0,"toosoon":0,"cond_shown":"equaldotsize","ratio_trial":250,"smaller_num":"6","larger_num":"24","correct_side":1,"subjID":"jhonblanco8","gender":"0","age":"9","school":"4"},{"start_time":1552313798091,"click_time":1552313799131,"finger_time":1552313798772,"fix_duration":1217.4076945468491,"trial":54,"RT":681,"MT":359,"sideResp":1,"stimulus":"img/500/equaldotanddens/L/4_Ratio_500_L_18_R_9.png","xmouse":[790,790,790,789,789,789,789,789,789,789,789,789,789,789,789,789,789,789,789,789,789,789,789,789,789,789,789,789,789,789,789,789,786,782,745,674,643,540,483,419,408,404,403,403,403,403,403,407,409,414,420,422,425],"ymouse":[510,510,510,510,510,510,510,510,510,510,512,515,518,519,520,520,520,520,520,520,520,520,520,520,520,520,520,520,520,520,520,520,510,504,446,366,339,257,219,167,148,131,114,101,95,91,90,86,85,85,84,84,84],"timestamp_mouse":[1,20,40,61,80,101,121,141,159,180,200,221,241,261,281,301,320,339,360,381,400,420,441,460,481,500,520,541,559,580,601,620,641,660,681,700,721,740,761,781,799,820,840,860,880,900,920,941,961,980,1000,1020,1040],"xSR":741.5,"ySR":469.95,"xT1":424.9,"yT1":0,"xT2":1058.1,"yT2":0,"toosoon":0,"cond_shown":"equaldotanddens","ratio_trial":500,"smaller_num":"9","larger_num":"18","correct_side":1,"subjID":"jhonblanco8","gender":"0","age":"9","school":"4"},{"start_time":1552313800766,"click_time":1552313801912,"finger_time":1552313801271,"fix_duration":634.200433497152,"trial":55,"RT":505,"MT":641,"sideResp":1,"stimulus":"img/500/randomdotsizeEA/L/10_Ratio_500_L_4_R_2.png","xmouse":[797,797,797,797,796,795,795,795,795,795,795,795,795,795,795,794,794,794,794,794,794,793,788,779,768,756,719,693,671,654,638,607,599,594,591,590,590,590,590,590,591,591,591,591,591,591,588,586,586,584,580,567,553,544,536,531,525,520],"ymouse":[539,539,539,539,538,538,536,536,536,536,536,536,535,534,532,531,531,531,531,531,530,526,515,501,485,469,426,394,370,348,325,264,240,220,208,203,199,197,193,188,184,180,177,174,173,173,167,165,164,161,154,132,114,105,100,97,95,94],"timestamp_mouse":[4,39,45,64,86,106,126,144,165,185,206,226,246,266,286,305,325,346,365,385,406,425,446,464,485,505,525,545,565,585,606,625,645,665,685,706,724,745,765,785,805,825,845,865,884,904,925,946,965,986,1005,1025,1045,1065,1085,1105,1125,1146],"xSR":741.5,"ySR":469.95,"xT1":424.9,"yT1":0,"xT2":1058.1,"yT2":0,"toosoon":0,"cond_shown":"randomdotsizeEA","ratio_trial":500,"smaller_num":"2","larger_num":"4","correct_side":1,"subjID":"jhonblanco8","gender":"0","age":"9","school":"4"},{"start_time":1552313802964,"click_time":1552313803971,"finger_time":1552313803591,"fix_duration":250,"trial":56,"RT":627,"MT":380,"sideResp":1,"stimulus":"img/250/equaldotsize/L/7_Ratio_250_L_8_R_2.png","xmouse":[784,784,784,784,784,784,784,782,781,780,780,780,780,780,780,780,780,780,780,780,780,780,780,780,780,780,780,780,780,771,763,695,658,613,563,519,456,443,438,436,436,436,436,436,436,437,438,439,440,442,444],"ymouse":[495,495,495,495,495,495,495,495,495,495,495,495,495,495,495,495,495,495,495,495,495,495,495,495,495,495,495,495,495,489,483,434,405,369,327,289,220,197,179,162,150,134,128,125,120,118,112,110,106,102,99],"timestamp_mouse":[13,27,47,68,87,107,127,147,168,187,207,228,247,268,287,307,327,347,367,388,407,427,448,467,488,507,528,547,566,588,608,627,647,668,688,707,728,747,767,787,807,827,847,867,888,908,926,946,967,988,1007],"xSR":741.5,"ySR":469.95,"xT1":424.9,"yT1":0,"xT2":1058.1,"yT2":0,"toosoon":0,"cond_shown":"equaldotsize","ratio_trial":250,"smaller_num":"2","larger_num":"8","correct_side":1,"subjID":"jhonblanco8","gender":"0","age":"9","school":"4"},{"start_time":1552313806283,"click_time":1552313807811,"finger_time":1552313806912,"fix_duration":950.9950702528687,"trial":57,"RT":629,"MT":899,"sideResp":2,"stimulus":"img/250/randomdotsizeEA/R/11_Ratio_250_L_3_R_12.png","xmouse":[797,797,797,796,796,796,794,792,790,790,790,790,790,790,790,790,790,790,790,790,790,790,790,790,790,790,790,788,786,779,749,723,678,600,559,543,543,543,543,543,543,546,552,584,606,628,668,682,693,702,722,746,759,789,822,846,862,868,870,872,895,919,960,987,1013,1037,1084,1100,1114,1121,1125,1127,1127,1125,1120,1108,1102],"ymouse":[545,544,544,544,544,544,542,541,540,540,540,540,540,540,540,540,540,540,540,540,540,540,540,540,540,540,540,537,534,522,484,458,415,334,296,281,281,281,281,281,281,283,290,304,316,324,336,337,336,333,319,307,301,290,282,277,275,275,275,275,275,275,267,259,247,236,217,211,209,208,205,196,186,174,156,107,70],"timestamp_mouse":[12,43,48,69,89,108,128,147,168,188,208,227,248,269,287,309,327,349,368,389,408,428,447,468,489,509,527,548,569,589,608,629,648,668,689,708,728,749,769,789,808,828,848,868,888,909,929,948,968,989,1008,1028,1048,1068,1089,1110,1128,1148,1169,1189,1209,1227,1248,1269,1288,1309,1328,1348,1369,1388,1408,1428,1448,1469,1488,1510,1527],"xSR":741.5,"ySR":469.95,"xT1":424.9,"yT1":0,"xT2":1058.1,"yT2":0,"toosoon":0,"cond_shown":"randomdotsizeEA","ratio_trial":250,"smaller_num":"3","larger_num":"12","correct_side":2,"subjID":"jhonblanco8","gender":"0","age":"9","school":"4"},{"start_time":1552313809672,"click_time":1552313811291,"finger_time":1552313810410,"fix_duration":280.3020436291297,"trial":58,"RT":738,"MT":881,"sideResp":2,"stimulus":"img/900/equaldotanddens/R/13_Ratio_900_L_18_R_20.png","xmouse":[789,789,789,789,789,789,789,789,789,789,789,789,789,789,789,789,789,791,792,793,793,793,793,793,793,793,793,793,793,793,793,793,793,793,805,818,848,868,895,931,971,1082,1213,1301,1358,1400,1482,1514,1531,1534,1533,1502,1485,1468,1448,1430,1397,1389,1386,1385,1382,1365,1351,1330,1306,1281,1236,1221,1209,1206,1205,1205,1205,1205,1205,1205,1203,1196,1182,1160,1139],"ymouse":[541,541,541,541,541,541,541,541,541,541,541,541,541,541,541,541,541,541,541,541,541,541,541,541,541,541,541,541,541,541,541,541,541,539,525,513,487,470,438,395,356,284,202,171,171,162,114,90,80,78,75,68,65,62,58,56,50,47,46,45,44,42,41,41,41,41,39,38,35,34,33,33,33,33,33,33,33,33,31,29,26],"timestamp_mouse":[19,39,60,79,100,120,138,160,178,200,219,240,258,279,299,320,340,359,379,399,419,439,459,479,500,519,540,559,579,599,619,640,660,679,700,719,738,760,779,800,820,838,859,879,900,919,940,959,980,999,1019,1038,1059,1079,1099,1120,1139,1159,1180,1199,1219,1239,1259,1279,1299,1320,1339,1359,1379,1399,