[{"start_time":1552312986645,"click_time":1552313001125,"finger_time":1552312986657,"fix_duration":818.7547666173112,"trial":0,"RT":12,"MT":14468,"sideResp":1,"stimulus":[],"xmouse":[801,801,801,801,801,801,801,801,801,801,801,801,801,801,801,801,801,801,801,801,801,801,801,801,801,801,801,801,801,801,801,801,801,796,793,785,783,783,783,783,783,783,783,783,783,783,783,783,783,783,783,783,783,783,783,783,782,781,780,780,780,780,780,780,780,780,780,780,780,780,780,780,780,780,780,780,780,780,780,780,780,780,780,780,780,780,780,780,780,780,780,780,780,780,780,780,780,780,780,780,780,780,780,780,780,780,780,780,780,780,780,780,780,780,780,780,780,780,780,780,780,780,781,781,781,781,781,783,783,784,787,788,790,791,793,806,812,816,817,817,817,817,816,814,813,787,772,761,753,752,752,752,752,752,752,755,760,766,772,779,783,783,783,783,782,781,781,780,779,778,778,778,778,777,777,774,772,772,771,770,770,770,770,771,772,773,773,773,773,773,774,775,777,778,780,787,788,788,789,790,790,790,790,789,788,785,785,785,785,785,785,785,785,785,785,785,784,784,784,784,784,784,784,784,784,784,784,784,785,785,785,786,787,790,790,790,790,790,790,790,790,790,790,790,790,790,790,790,790,790,790,790,790,790,790,790,790,790,790,790,790,790,790,790,790,790,790,790,790,790,790,790,790,790,790,790,790,790,790,790,790,791,794,802,808,812,816,817,817,817,815,806,805,805,805,800,784,777,768,763,758,756,756,758,760,764,779,790,797,799,799,799,799,798,792,770,721,697,684,683,683,683,704,775,893,957,957,957,957,957,957,949,933,905,888,876,870,870,870,870,870,870,870,873,878,883,895,900,904,908,910,911,912,914,915,916,917,918,918,918,918,918,918,914,910,897,889,877,864,853,846,846,846,846,846,844,842,837,828,823,817,815,815,815,815,815,815,815,814,813,813,813,813,813,813,813,813,813,813,813,813,813,813,813,813,813,813,813,813,813,813,813,812,812,812,812,812,812,812,812,812,812,812,812,812,812,812,812,812,812,812,812,812,812,812,812,812,812,812,812,812,812,812,812,812,812,812,812,812,812,812,812,812,812,812,812,812,812,812,812,812,812,812,812,812,812,812,812,812,812,812,812,812,812,812,812,812,812,812,812,812,812,812,812,812,812,812,812,812,812,812,812,812,812,812,812,812,812,812,812,812,812,812,812,812,812,812,812,812,812,812,812,812,812,812,812,812,812,812,812,812,812,812,812,812,812,812,812,812,812,812,812,812,812,812,812,812,812,812,812,812,812,812,812,812,812,812,812,812,812,812,812,812,812,812,812,812,812,812,812,812,812,812,812,812,812,812,812,812,812,812,812,812,812,812,812,812,812,812,812,812,812,812,812,812,812,812,812,812,812,812,812,812,812,812,812,812,812,812,812,812,812,812,812,812,812,812,812,812,812,812,812,812,812,812,812,812,812,812,812,812,812,812,812,812,812,812,812,812,812,812,812,812,812,812,812,812,812,812,812,812,812,812,812,812,812,812,812,812,812,812,812,812,812,812,812,812,812,812,812,812,812,812,812,812,812,812,812,812,812,808,763,740,736,736,736,736,736,738,740,752,763,765,767,768,770,771,771,773,776,795,805,861,876,880,880,880,880,876,868,843,779,758,746,743,743,756,786,831,878,923,1004,1070,1078,1079,1079,1038,970,870,674,606,455,412,415,436],"ymouse":[512,512,512,512,512,512,512,512,512,512,512,512,512,512,512,512,512,512,512,512,512,512,512,512,512,512,512,512,512,512,512,512,513,519,522,536,541,545,547,549,553,555,560,564,567,572,574,574,574,574,574,574,574,575,578,581,588,592,597,600,603,603,603,603,603,603,603,603,603,603,603,603,603,603,603,603,603,603,603,603,603,603,603,603,603,603,603,603,603,603,603,603,603,603,603,603,603,603,603,603,603,603,603,603,603,603,603,603,603,603,603,603,606,607,609,609,609,609,609,610,612,614,615,615,615,615,615,617,618,621,629,631,632,632,632,623,620,616,616,616,616,615,614,614,614,613,615,617,620,620,620,620,620,620,620,620,621,622,625,627,629,629,629,629,630,630,630,631,631,631,631,631,631,632,632,633,633,634,634,635,635,639,643,646,650,651,651,651,651,651,652,651,650,649,646,624,615,612,612,611,608,608,608,608,608,608,608,608,608,608,608,608,608,608,608,608,609,612,614,615,617,619,619,619,619,619,619,619,619,619,619,619,619,615,615,615,615,615,615,615,615,615,615,615,615,615,615,615,615,615,615,615,615,615,615,615,615,615,615,615,615,615,615,615,615,615,615,615,615,615,615,615,615,615,615,608,602,601,601,601,601,600,600,598,598,598,600,604,611,620,631,644,646,646,646,646,632,626,615,607,590,584,581,577,577,577,583,592,599,602,602,602,602,603,603,599,585,577,574,573,573,574,590,613,651,669,669,669,669,669,669,668,664,660,658,658,658,658,658,658,657,654,654,651,649,646,642,640,639,638,638,638,638,640,644,647,651,652,652,652,652,652,650,644,643,643,643,646,650,652,653,653,653,653,653,653,652,647,638,633,629,629,629,629,629,629,629,629,628,624,622,613,606,602,602,602,602,602,602,602,602,602,602,602,602,602,602,602,602,603,604,604,605,605,605,605,605,605,605,605,605,605,605,605,605,605,605,605,605,605,605,605,605,605,605,605,605,605,605,605,605,605,605,605,605,605,605,605,605,605,605,605,605,605,605,605,605,605,605,605,605,605,605,605,605,605,605,605,605,605,605,605,605,605,605,605,605,605,605,605,605,605,605,605,605,605,605,605,605,605,605,605,605,605,605,605,605,605,605,605,605,605,605,605,605,605,605,605,605,605,605,605,605,605,605,605,605,605,605,605,605,605,605,605,605,605,605,605,605,605,605,605,605,605,605,605,605,605,605,605,605,605,605,605,605,605,605,605,605,605,605,605,605,605,605,605,605,605,605,605,605,605,605,605,605,605,605,605,605,605,605,605,605,605,605,605,605,605,605,605,605,605,605,605,605,605,605,605,605,605,605,605,605,605,605,605,605,605,605,605,605,605,605,605,605,605,605,605,605,605,605,605,605,605,605,605,605,605,605,605,605,605,605,605,605,605,605,605,605,605,605,605,605,605,605,605,605,605,605,605,605,605,605,605,605,605,605,605,605,605,605,605,605,605,605,605,605,605,605,605,605,605,605,605,605,605,605,605,605,605,606,627,642,646,646,646,646,646,646,646,646,647,648,650,652,656,657,658,659,659,659,659,659,659,659,659,659,659,660,660,660,660,658,655,653,651,637,617,590,567,550,528,500,494,493,492,471,452,424,357,329,253,185,139,76],"timestamp_mouse":[12,24,38,59,78,98,118,139,158,179,198,219,238,259,278,299,319,339,358,378,399,418,439,459,479,498,518,538,558,579,599,619,639,658,679,697,719,737,759,778,798,818,839,857,879,898,919,939,958,979,998,1019,1037,1057,1077,1098,1119,1138,1159,1177,1198,1218,1238,1258,1279,1299,1317,1339,1358,1379,1399,1418,1439,1459,1478,1499,1518,1539,1558,1577,1599,1619,1638,1659,1678,1698,1717,1739,1759,1777,1798,1819,1839,1858,1878,1897,1918,1939,1959,1978,1997,2018,2039,2059,2078,2099,2119,2138,2158,2178,2198,2219,2238,2259,2277,2299,2318,2337,2358,2378,2398,2418,2438,2458,2477,2499,2519,2538,2558,2577,2597,2617,2638,2658,2677,2698,2719,2737,2759,2778,2798,2818,2839,2858,2878,2897,2918,2937,2958,2978,2999,3017,3039,3058,3079,3098,3118,3137,3157,3178,3198,3219,3237,3257,3278,3297,3318,3339,3358,3378,3399,3418,3439,3459,3479,3498,3518,3538,3559,3578,3598,3619,3638,3658,3679,3699,3719,3739,3759,3778,3798,3818,3839,3857,3879,3898,3919,3937,3958,3979,3998,4018,4039,4058,4079,4098,4119,4139,4158,4177,4199,4219,4238,4259,4279,4299,4319,4337,4358,4378,4399,4419,4438,4459,4478,4498,4519,4538,4557,4578,4598,4618,4637,4658,4679,4698,4719,4738,4759,4777,4799,4818,4837,4858,4878,4897,4919,4938,4957,4978,4998,5018,5039,5058,5078,5098,5117,5137,5158,5178,5199,5219,5238,5258,5279,5298,5319,5339,5358,5378,5398,5419,5438,5458,5478,5498,5517,5539,5559,5579,5597,5618,5639,5658,5678,5698,5719,5737,5758,5778,5798,5818,5837,5858,5879,5898,5919,5937,5957,5978,5999,6018,6038,6058,6079,6098,6118,6137,6159,6179,6199,6217,6239,6258,6278,6298,6318,6338,6358,6378,6398,6417,6438,6458,6479,6499,6517,6538,6559,6578,6599,6619,6638,6658,6678,6697,6718,6738,6759,6779,6798,6817,6838,6859,6879,6898,6919,6938,6958,6979,6999,7018,7038,7057,7078,7099,7119,7138,7158,7178,7198,7218,7238,7258,7278,7299,7318,7338,7359,7379,7399,7418,7439,7458,7479,7499,7518,7539,7558,7577,7598,7618,7637,7658,7679,7698,7718,7738,7759,7779,7798,7819,7838,7859,7879,7899,7917,7939,7959,7978,7999,8018,8039,8057,8079,8099,8117,8137,8158,8178,8198,8218,8238,8258,8279,8297,8318,8338,8357,8378,8399,8418,8439,8458,8479,8498,8517,8539,8557,8578,8599,8617,8638,8658,8679,8699,8719,8739,8757,8779,8798,8819,8839,8857,8879,8898,8919,8938,8959,8978,8998,9018,9038,9057,9077,9098,9118,9139,9159,9177,9198,9219,9239,9259,9278,9299,9319,9337,9359,9379,9398,9418,9439,9457,9478,9499,9519,9539,9559,9579,9599,9618,9639,9658,9679,9698,9718,9738,9759,9778,9799,9819,9839,9858,9879,9898,9918,9939,9959,9979,9999,10019,10039,10058,10078,10099,10118,10138,10157,10179,10198,10218,10238,10259,10278,10299,10319,10338,10358,10379,10399,10417,10438,10459,10479,10499,10518,10539,10559,10578,10598,10618,10638,10659,10677,10699,10719,10738,10758,10779,10799,10817,10839,10859,10879,10898,10918,10938,10957,10979,10999,11018,11039,11057,11079,11098,11118,11138,11159,11177,11198,11219,11238,11259,11278,11299,11318,11337,11359,11379,11398,11419,11438,11459,11478,11499,11518,11537,11559,11578,11599,11618,11639,11659,11679,11699,11718,11738,11759,11778,11799,11819,11839,11857,11879,11899,11918,11939,11959,11979,11998,12017,12037,12059,12079,12099,12118,12138,12159,12179,12198,12219,12238,12259,12279,12299,12319,12339,12358,12378,12398,12418,12439,12459,12479,12498,12518,12539,12559,12577,12599,12619,12638,12659,12678,12699,12718,12739,12758,12779,12799,12818,12839,12857,12877,12898,12917,12939,12958,12979,12999,13018,13039,13059,13079,13098,13117,13138,13159,13178,13199,13219,13237,13259,13279,13299,13319,13339,13359,13379,13398,13418,13439,13458,13479,13497,13518,13539,13558,13578,13599,13618,13638,13659,13679,13698,13719,13737,13759,13778,13799,13817,13837,13858,13877,13899,13919,13938,13959,13977,13998,14018,14038,14057,14078,14098,14117,14138,14158,14179,14198,14217,14237,14258,14277,14298,14318,14338,14358,14379,14397,14417,14437,14458,14479],"xSR":741.5,"ySR":469.95,"xT1":424.9,"yT1":0,"xT2":1058.1,"yT2":0,"toosoon":0,"cond_shown":"Congruent","ratio_trial":300,"L_num":1,"L_den":30,"R_num":8,"R_den":24,"correct_side":2,"subjID":"jhon jairo blanco poveda 8","gender":"0","age":"9","school":"4","test":{"fix_dur":[250,1500],"timestim":1000,"targets_dim":[100,100],"targets_relative_coord":[0.3,0.7],"size_stim":[880,420],"start_dim":[100,100],"size_start":[300,300],"size_fix":60,"samplingrate":20,"img_types":["Congruent","Incongruent"],"ratios":[100,200,300],"rep_conds":19,"nTrials":120,"trials_to_rest":500,"Trials_order":[106,17,7,13,42,84,96,118,115,2,113,32,63,77,18,4,109,23,12,53,6,87,103,81,79,75,95,24,111,45,64,119,68,74,5,86,16,66,22,60,0,37,89,101,99,43,67,116,104,110,29,56,62,69,50,80,100,51,52,108,20,83,44,40,35,55,114,48,46,31,34,28,70,97,38,26,11,8,112,19,78,102,91,85,107,54,9,27,73,65,25,71,58,41,61,14,57,72,47,49,105,82,98,92,59,88,21,33,1,76,94,36,3,117,90,39,93,10,15,30],"cond_shown":["Congruent","Incongruent","Incongruent","Incongruent","Congruent","Congruent","Congruent","Congruent","Incongruent","Congruent","Incongruent","Congruent","Incongruent","Incongruent","Congruent","Congruent","Incongruent","Incongruent","Congruent","Incongruent","Congruent","Incongruent","Incongruent","Incongruent","Incongruent","Incongruent","Incongruent","Congruent","Incongruent","Incongruent","Congruent","Incongruent","Congruent","Congruent","Incongruent","Congruent","Congruent","Congruent","Congruent","Congruent","Congruent","Incongruent","Incongruent","Incongruent","Incongruent","Incongruent","Incongruent","Congruent","Congruent","Congruent","Incongruent","Congruent","Congruent","Incongruent","Congruent","Congruent","Congruent","Incongruent","Congruent","Congruent","Congruent","Incongruent","Congruent","Congruent","Incongruent","Incongruent","Congruent","Congruent","Congruent","Incongruent","Congruent","Congruent","Congruent","Incongruent","Congruent","Congruent","Incongruent","Congruent","Congruent","Incongruent","Congruent","Congruent","Incongruent","Incongruent","Incongruent","Congruent","Incongruent","Incongruent","Incongruent","Incongruent","Incongruent","Incongruent","Congruent","Incongruent","Incongruent","Congruent","Incongruent","Congruent","Incongruent","Incongruent","Incongruent","Congruent","Congruent","Congruent","Incongruent","Congruent","Incongruent","Incongruent","Incongruent","Congruent","Congruent","Congruent","Incongruent","Incongruent","Congruent","Incongruent","Incongruent","Congruent","Incongruent","Congruent"],"ratio_trial":[300,300,100,100,100,100,100,300,100,200,300,200,200,300,100,300,100,300,100,300,100,200,100,200,100,200,300,100,200,200,300,300,200,200,300,200,300,100,300,100,100,100,300,300,200,100,100,200,200,200,300,200,200,200,200,200,300,200,300,100,200,300,200,300,300,100,100,100,300,100,300,300,300,100,200,200,300,200,300,100,100,100,100,100,300,100,200,200,100,300,100,300,300,300,100,200,200,100,300,100,200,300,200,200,300,300,200,200,100,300,300,100,200,200,100,200,200,300,200,100],"left_num":[1,13,13,6,3,2,1,7,13,3,2,16,1,4,11,1,6,8,2,8,3,6,9,7,13,4,13,4,3,7,9,13,6,9,13,9,1,2,3,9,8,9,8,3,14,9,3,6,3,8,13,21,16,7,3,9,1,9,1,8,3,13,3,1,1,17,7,10,11,6,5,5,1,2,12,3,2,7,7,9,7,3,6,6,13,6,7,3,6,13,9,4,24,4,6,1,3,9,4,8,3,5,9,7,4,1,1,4,9,2,20,1,7,14,1,14,11,9,4,2],"right_num":[8,12,6,13,4,11,3,20,12,7,6,12,2,2,4,6,11,14,6,9,2,3,14,8,12,14,12,15,11,12,3,12,7,13,12,13,7,6,11,8,2,14,9,4,6,13,8,7,11,2,12,2,9,14,14,4,3,8,6,2,14,12,9,7,3,10,15,3,2,3,7,7,7,6,6,11,6,18,20,20,9,4,13,11,12,5,4,1,3,12,6,2,2,2,3,21,11,8,6,6,1,7,13,18,6,8,3,6,20,10,5,3,14,12,3,6,3,3,14,6],"left_den":[30,26,26,10,20,5,2,14,26,10,4,20,3,20,22,5,10,10,5,10,6,20,15,10,26,6,26,10,4,10,10,26,12,30,26,30,20,5,12,15,16,15,10,6,30,15,5,12,10,15,26,30,30,10,10,20,5,15,5,16,6,26,12,20,2,30,14,25,22,12,25,25,20,4,20,10,4,15,14,10,14,20,10,10,26,20,15,10,12,26,18,20,30,20,12,2,4,15,5,16,10,25,30,15,5,30,2,5,10,20,25,2,10,30,2,30,20,10,6,5],"right_den":[24,15,10,26,16,22,5,25,20,14,30,20,15,4,10,12,22,28,12,18,5,6,28,16,20,30,15,30,20,24,5,15,10,26,15,26,20,12,20,16,5,28,18,20,9,26,16,10,22,6,15,4,27,28,28,16,6,10,12,5,20,15,20,20,15,15,25,10,10,5,14,14,20,15,15,22,30,27,25,25,15,16,26,22,15,25,6,2,5,15,10,4,4,4,5,30,20,16,12,10,2,14,26,27,12,24,10,10,25,25,10,5,28,18,5,9,4,5,30,12],"correct_side":[2,2,2,1,2,2,2,2,2,2,1,1,1,2,1,2,1,1,2,1,1,2,1,1,2,1,2,2,1,1,1,2,2,2,2,2,2,2,2,1,1,1,1,1,2,1,1,2,2,1,2,1,1,1,2,1,2,2,2,1,2,2,2,2,1,2,2,1,1,2,2,2,2,1,1,2,1,2,2,1,2,2,1,1,2,1,2,2,2,2,2,2,1,2,2,2,1,1,1,2,2,2,2,2,1,2,1,1,1,2,1,2,1,2,2,2,2,1,1,2],"img_shown":["img2/300/Congruent/R/C_Dist_300_LN_1_LD_30_RN_8_RD_24_1.png","img2/300/Incongruent/R/I_Dist_300_LN_13_LD_26_RN_12_RD_15_1.png","img2/100/Incongruent/R/I_Dist_100_LN_13_LD_26_RN_6_RD_10_1.png","img2/100/Incongruent/L/I_Dist_100_LN_6_LD_10_RN_13_RD_26_0.png","img2/100/Congruent/R/C_Dist_100_LN_3_LD_20_RN_4_RD_16_1.png","img2/100/Congruent/R/C_Dist_100_LN_2_LD_5_RN_11_RD_22_1.png","img2/100/Congruent/R/C_Dist_100_LN_1_LD_2_RN_3_RD_5_1.png","img2/300/Congruent/R/C_Dist_300_LN_7_LD_14_RN_20_RD_25_1.png","img2/100/Incongruent/R/I_Dist_100_LN_13_LD_26_RN_12_RD_20_1.png","img2/200/Congruent/R/C_Dist_200_LN_3_LD_10_RN_7_RD_14_1.png","img2/300/Incongruent/L/I_Dist_300_LN_2_LD_4_RN_6_RD_30_0.png","img2/200/Congruent/L/C_Dist_200_LN_16_LD_20_RN_12_RD_20_0.png","img2/200/Incongruent/L/I_Dist_200_LN_1_LD_3_RN_2_RD_15_0.png","img2/300/Incongruent/R/I_Dist_300_LN_4_LD_20_RN_2_RD_4_1.png","img2/100/Congruent/L/C_Dist_100_LN_11_LD_22_RN_4_RD_10_0.png","img2/300/Congruent/R/C_Dist_300_LN_1_LD_5_RN_6_RD_12_1.png","img2/100/Incongruent/L/I_Dist_100_LN_6_LD_10_RN_11_RD_22_0.png","img2/300/Incongruent/L/I_Dist_300_LN_8_LD_10_RN_14_RD_28_0.png","img2/100/Congruent/R/C_Dist_100_LN_2_LD_5_RN_6_RD_12_1.png","img2/300/Incongruent/L/I_Dist_300_LN_8_LD_10_RN_9_RD_18_0.png","img2/100/Congruent/L/C_Dist_100_LN_3_LD_6_RN_2_RD_5_0.png","img2/200/Incongruent/R/I_Dist_200_LN_6_LD_20_RN_3_RD_6_1.png","img2/100/Incongruent/L/I_Dist_100_LN_9_LD_15_RN_14_RD_28_0.png","img2/200/Incongruent/L/I_Dist_200_LN_7_LD_10_RN_8_RD_16_0.png","img2/100/Incongruent/R/I_Dist_100_LN_13_LD_26_RN_12_RD_20_1.png","img2/200/Incongruent/L/I_Dist_200_LN_4_LD_6_RN_14_RD_30_0.png","img2/300/Incongruent/R/I_Dist_300_LN_13_LD_26_RN_12_RD_15_1.png","img2/100/Congruent/R/C_Dist_100_LN_4_LD_10_RN_15_RD_30_1.png","img2/200/Incongruent/L/I_Dist_200_LN_3_LD_4_RN_11_RD_20_0.png","img2/200/Incongruent/L/I_Dist_200_LN_7_LD_10_RN_12_RD_24_0.png","img2/300/Congruent/L/C_Dist_300_LN_9_LD_10_RN_3_RD_5_0.png","img2/300/Incongruent/R/I_Dist_300_LN_13_LD_26_RN_12_RD_15_1.png","img2/200/Congruent/R/C_Dist_200_LN_6_LD_12_RN_7_RD_10_1.png","img2/200/Congruent/R/C_Dist_200_LN_9_LD_30_RN_13_RD_26_1.png","img2/300/Incongruent/R/I_Dist_300_LN_13_LD_26_RN_12_RD_15_1.png","img2/200/Congruent/R/C_Dist_200_LN_9_LD_30_RN_13_RD_26_1.png","img2/300/Congruent/R/C_Dist_300_LN_1_LD_20_RN_7_RD_20_1.png","img2/100/Congruent/R/C_Dist_100_LN_2_LD_5_RN_6_RD_12_1.png","img2/300/Congruent/R/C_Dist_300_LN_3_LD_12_RN_11_RD_20_1.png","img2/100/Congruent/L/C_Dist_100_LN_9_LD_15_RN_8_RD_16_0.png","img2/100/Congruent/L/C_Dist_100_LN_8_LD_16_RN_2_RD_5_0.png","img2/100/Incongruent/L/I_Dist_100_LN_9_LD_15_RN_14_RD_28_0.png","img2/300/Incongruent/L/I_Dist_300_LN_8_LD_10_RN_9_RD_18_0.png","img2/300/Incongruent/L/I_Dist_300_LN_3_LD_6_RN_4_RD_20_0.png","img2/200/Incongruent/R/I_Dist_200_LN_14_LD_30_RN_6_RD_9_1.png","img2/100/Incongruent/L/I_Dist_100_LN_9_LD_15_RN_13_RD_26_0.png","img2/100/Incongruent/L/I_Dist_100_LN_3_LD_5_RN_8_RD_16_0.png","img2/200/Congruent/R/C_Dist_200_LN_6_LD_12_RN_7_RD_10_1.png","img2/200/Congruent/R/C_Dist_200_LN_3_LD_10_RN_11_RD_22_1.png","img2/200/Congruent/L/C_Dist_200_LN_8_LD_15_RN_2_RD_6_0.png","img2/300/Incongruent/R/I_Dist_300_LN_13_LD_26_RN_12_RD_15_1.png","img2/200/Congruent/L/C_Dist_200_LN_21_LD_30_RN_2_RD_4_0.png","img2/200/Congruent/L/C_Dist_200_LN_16_LD_30_RN_9_RD_27_0.png","img2/200/Incongruent/L/I_Dist_200_LN_7_LD_10_RN_14_RD_28_0.png","img2/200/Congruent/R/C_Dist_200_LN_3_LD_10_RN_14_RD_28_1.png","img2/200/Congruent/L/C_Dist_200_LN_9_LD_20_RN_4_RD_16_0.png","img2/300/Congruent/R/C_Dist_300_LN_1_LD_5_RN_3_RD_6_1.png","img2/200/Incongruent/R/I_Dist_200_LN_9_LD_15_RN_8_RD_10_1.png","img2/300/Congruent/R/C_Dist_300_LN_1_LD_5_RN_6_RD_12_1.png","img2/100/Congruent/L/C_Dist_100_LN_8_LD_16_RN_2_RD_5_0.png","img2/200/Congruent/R/C_Dist_200_LN_3_LD_6_RN_14_RD_20_1.png","img2/300/Incongruent/R/I_Dist_300_LN_13_LD_26_RN_12_RD_15_1.png","img2/200/Congruent/R/C_Dist_200_LN_3_LD_12_RN_9_RD_20_1.png","img2/300/Congruent/R/C_Dist_300_LN_1_LD_20_RN_7_RD_20_1.png","img2/300/Incongruent/L/I_Dist_300_LN_1_LD_2_RN_3_RD_15_0.png","img2/100/Incongruent/R/I_Dist_100_LN_17_LD_30_RN_10_RD_15_1.png","img2/100/Congruent/R/C_Dist_100_LN_7_LD_14_RN_15_RD_25_1.png","img2/100/Congruent/L/C_Dist_100_LN_10_LD_25_RN_3_RD_10_0.png","img2/300/Congruent/L/C_Dist_300_LN_11_LD_22_RN_2_RD_10_0.png","img2/100/Incongruent/R/I_Dist_100_LN_6_LD_12_RN_3_RD_5_1.png","img2/300/Congruent/R/C_Dist_300_LN_5_LD_25_RN_7_RD_14_1.png","img2/300/Congruent/R/C_Dist_300_LN_5_LD_25_RN_7_RD_14_1.png","img2/300/Congruent/R/C_Dist_300_LN_1_LD_20_RN_7_RD_20_1.png","img2/100/Incongruent/L/I_Dist_100_LN_2_LD_4_RN_6_RD_15_0.png","img2/200/Congruent/L/C_Dist_200_LN_12_LD_20_RN_6_RD_15_0.png","img2/200/Congruent/R/C_Dist_200_LN_3_LD_10_RN_11_RD_22_1.png","img2/300/Incongruent/L/I_Dist_300_LN_2_LD_4_RN_6_RD_30_0.png","img2/200/Congruent/R/C_Dist_200_LN_7_LD_15_RN_18_RD_27_1.png","img2/300/Congruent/R/C_Dist_300_LN_7_LD_14_RN_20_RD_25_1.png","img2/100/Incongruent/L/I_Dist_100_LN_9_LD_10_RN_20_RD_25_0.png","img2/100/Congruent/R/C_Dist_100_LN_7_LD_14_RN_9_RD_15_1.png","img2/100/Congruent/R/C_Dist_100_LN_3_LD_20_RN_4_RD_16_1.png","img2/100/Incongruent/L/I_Dist_100_LN_6_LD_10_RN_13_RD_26_0.png","img2/100/Incongruent/L/I_Dist_100_LN_6_LD_10_RN_11_RD_22_0.png","img2/300/Incongruent/R/I_Dist_300_LN_13_LD_26_RN_12_RD_15_1.png","img2/100/Congruent/L/C_Dist_100_LN_6_LD_20_RN_5_RD_25_0.png","img2/200/Incongruent/R/I_Dist_200_LN_7_LD_15_RN_4_RD_6_1.png","img2/200/Incongruent/R/I_Dist_200_LN_3_LD_10_RN_1_RD_2_1.png","img2/100/Incongruent/R/I_Dist_100_LN_6_LD_12_RN_3_RD_5_1.png","img2/300/Incongruent/R/I_Dist_300_LN_13_LD_26_RN_12_RD_15_1.png","img2/100/Incongruent/R/I_Dist_100_LN_9_LD_18_RN_6_RD_10_1.png","img2/300/Incongruent/R/I_Dist_300_LN_4_LD_20_RN_2_RD_4_1.png","img2/300/Congruent/L/C_Dist_300_LN_24_LD_30_RN_2_RD_4_0.png","img2/300/Incongruent/R/I_Dist_300_LN_4_LD_20_RN_2_RD_4_1.png","img2/100/Incongruent/R/I_Dist_100_LN_6_LD_12_RN_3_RD_5_1.png","img2/200/Congruent/R/C_Dist_200_LN_1_LD_2_RN_21_RD_30_1.png","img2/200/Incongruent/L/I_Dist_200_LN_3_LD_4_RN_11_RD_20_0.png","img2/100/Congruent/L/C_Dist_100_LN_9_LD_15_RN_8_RD_16_0.png","img2/300/Incongruent/L/I_Dist_300_LN_4_LD_5_RN_6_RD_12_0.png","img2/100/Incongruent/R/I_Dist_100_LN_8_LD_16_RN_6_RD_10_1.png","img2/200/Incongruent/R/I_Dist_200_LN_3_LD_10_RN_1_RD_2_1.png","img2/300/Congruent/R/C_Dist_300_LN_5_LD_25_RN_7_RD_14_1.png","img2/200/Congruent/R/C_Dist_200_LN_9_LD_30_RN_13_RD_26_1.png","img2/200/Congruent/R/C_Dist_200_LN_7_LD_15_RN_18_RD_27_1.png","img2/300/Incongruent/L/I_Dist_300_LN_4_LD_5_RN_6_RD_12_0.png","img2/300/Congruent/R/C_Dist_300_LN_1_LD_30_RN_8_RD_24_1.png","img2/200/Incongruent/L/I_Dist_200_LN_1_LD_2_RN_3_RD_10_0.png","img2/200/Incongruent/L/I_Dist_200_LN_4_LD_5_RN_6_RD_10_0.png","img2/100/Incongruent/L/I_Dist_100_LN_9_LD_10_RN_20_RD_25_0.png","img2/300/Congruent/R/C_Dist_300_LN_2_LD_20_RN_10_RD_25_1.png","img2/300/Congruent/L/C_Dist_300_LN_20_LD_25_RN_5_RD_10_0.png","img2/100/Congruent/R/C_Dist_100_LN_1_LD_2_RN_3_RD_5_1.png","img2/200/Incongruent/L/I_Dist_200_LN_7_LD_10_RN_14_RD_28_0.png","img2/200/Incongruent/R/I_Dist_200_LN_14_LD_30_RN_12_RD_18_1.png","img2/100/Congruent/R/C_Dist_100_LN_1_LD_2_RN_3_RD_5_1.png","img2/200/Incongruent/R/I_Dist_200_LN_14_LD_30_RN_6_RD_9_1.png","img2/200/Incongruent/R/I_Dist_200_LN_11_LD_20_RN_3_RD_4_1.png","img2/300/Congruent/L/C_Dist_300_LN_9_LD_10_RN_3_RD_5_0.png","img2/200/Incongruent/L/I_Dist_200_LN_4_LD_6_RN_14_RD_30_0.png","img2/100/Congruent/R/C_Dist_100_LN_2_LD_5_RN_6_RD_12_1.png"],"dist100_C":[["C_Dist_100_LN_10_LD_25_RN_3_RD_10_0.png","C_Dist_100_LN_11_LD_22_RN_4_RD_10_0.png","C_Dist_100_LN_11_LD_22_RN_6_RD_15_0.png","C_Dist_100_LN_15_LD_25_RN_13_RD_26_0.png","C_Dist_100_LN_3_LD_6_RN_2_RD_5_0.png","C_Dist_100_LN_6_LD_20_RN_5_RD_25_0.png","C_Dist_100_LN_8_LD_16_RN_2_RD_5_0.png","C_Dist_100_LN_9_LD_15_RN_8_RD_16_0.png"],["C_Dist_100_LN_1_LD_2_RN_18_RD_30_1.png","C_Dist_100_LN_1_LD_2_RN_3_RD_5_1.png","C_Dist_100_LN_12_LD_30_RN_13_RD_26_1.png","C_Dist_100_LN_2_LD_5_RN_11_RD_22_1.png","C_Dist_100_LN_2_LD_5_RN_6_RD_12_1.png","C_Dist_100_LN_3_LD_20_RN_4_RD_16_1.png","C_Dist_100_LN_4_LD_10_RN_15_RD_30_1.png","C_Dist_100_LN_4_LD_8_RN_6_RD_10_1.png","C_Dist_100_LN_6_LD_12_RN_15_RD_25_1.png","C_Dist_100_LN_7_LD_14_RN_15_RD_25_1.png","C_Dist_100_LN_7_LD_14_RN_9_RD_15_1.png"]],"dist100_I":[["I_Dist_100_LN_1_LD_2_RN_8_RD_20_0.png","I_Dist_100_LN_2_LD_4_RN_6_RD_15_0.png","I_Dist_100_LN_2_LD_4_RN_8_RD_20_0.png","I_Dist_100_LN_3_LD_5_RN_11_RD_22_0.png","I_Dist_100_LN_3_LD_5_RN_8_RD_16_0.png","I_Dist_100_LN_3_LD_6_RN_4_RD_10_0.png","I_Dist_100_LN_3_LD_9_RN_7_RD_30_0.png","I_Dist_100_LN_4_LD_8_RN_8_RD_20_0.png","I_Dist_100_LN_6_LD_10_RN_11_RD_22_0.png","I_Dist_100_LN_6_LD_10_RN_13_RD_26_0.png","I_Dist_100_LN_6_LD_10_RN_7_RD_14_0.png","I_Dist_100_LN_9_LD_10_RN_20_RD_25_0.png","I_Dist_100_LN_9_LD_15_RN_13_RD_26_0.png","I_Dist_100_LN_9_LD_15_RN_14_RD_28_0.png"],["I_Dist_100_LN_10_LD_25_RN_8_RD_16_1.png","I_Dist_100_LN_10_LD_25_RN_9_RD_18_1.png","I_Dist_100_LN_11_LD_22_RN_9_RD_15_1.png","I_Dist_100_LN_12_LD_24_RN_9_RD_15_1.png","I_Dist_100_LN_12_LD_30_RN_2_RD_4_1.png","I_Dist_100_LN_13_LD_26_RN_12_RD_20_1.png","I_Dist_100_LN_13_LD_26_RN_6_RD_10_1.png","I_Dist_100_LN_17_LD_30_RN_10_RD_15_1.png","I_Dist_100_LN_6_LD_12_RN_3_RD_5_1.png","I_Dist_100_LN_8_LD_16_RN_6_RD_10_1.png","I_Dist_100_LN_8_LD_20_RN_1_RD_2_1.png","I_Dist_100_LN_9_LD_18_RN_6_RD_10_1.png"]],"dist100_S":[["E_Dist_100_LN_2_LD_12_RN_2_RD_30_0.png","E_Dist_100_LN_6_LD_10_RN_6_RD_12_0.png"],["E_Dist_100_LN_6_LD_12_RN_6_RD_10_1.png"]],"dist200_C":[["C_Dist_200_LN_11_LD_22_RN_3_RD_10_0.png","C_Dist_200_LN_12_LD_15_RN_6_RD_10_0.png","C_Dist_200_LN_12_LD_20_RN_6_RD_15_0.png","C_Dist_200_LN_14_LD_28_RN_6_RD_20_0.png","C_Dist_200_LN_15_LD_25_RN_4_RD_10_0.png","C_Dist_200_LN_16_LD_20_RN_12_RD_20_0.png","C_Dist_200_LN_16_LD_30_RN_9_RD_27_0.png","C_Dist_200_LN_20_LD_25_RN_9_RD_15_0.png","C_Dist_200_LN_21_LD_30_RN_2_RD_4_0.png","C_Dist_200_LN_4_LD_10_RN_3_RD_15_0.png","C_Dist_200_LN_4_LD_8_RN_3_RD_10_0.png","C_Dist_200_LN_6_LD_15_RN_3_RD_15_0.png","C_Dist_200_LN_7_LD_21_RN_2_RD_15_0.png","C_Dist_200_LN_8_LD_15_RN_2_RD_6_0.png","C_Dist_200_LN_8_LD_15_RN_3_RD_9_0.png","C_Dist_200_LN_8_LD_15_RN_7_RD_21_0.png","C_Dist_200_LN_9_LD_20_RN_4_RD_16_0.png"],["C_Dist_200_LN_1_LD_2_RN_21_RD_30_1.png","C_Dist_200_LN_13_LD_26_RN_14_RD_20_1.png","C_Dist_200_LN_3_LD_10_RN_11_RD_22_1.png","C_Dist_200_LN_3_LD_10_RN_14_RD_28_1.png","C_Dist_200_LN_3_LD_10_RN_7_RD_14_1.png","C_Dist_200_LN_3_LD_12_RN_9_RD_20_1.png","C_Dist_200_LN_3_LD_6_RN_14_RD_20_1.png","C_Dist_200_LN_5_LD_10_RN_14_RD_20_1.png","C_Dist_200_LN_6_LD_12_RN_7_RD_10_1.png","C_Dist_200_LN_6_LD_20_RN_11_RD_22_1.png","C_Dist_200_LN_7_LD_15_RN_18_RD_27_1.png","C_Dist_200_LN_9_LD_30_RN_13_RD_26_1.png"]],"dist200_I":[["I_Dist_200_LN_1_LD_2_RN_3_RD_10_0.png","I_Dist_200_LN_1_LD_3_RN_2_RD_15_0.png","I_Dist_200_LN_3_LD_4_RN_11_RD_20_0.png","I_Dist_200_LN_4_LD_5_RN_6_RD_10_0.png","I_Dist_200_LN_4_LD_6_RN_14_RD_30_0.png","I_Dist_200_LN_7_LD_10_RN_12_RD_24_0.png","I_Dist_200_LN_7_LD_10_RN_14_RD_28_0.png","I_Dist_200_LN_7_LD_10_RN_8_RD_16_0.png"],["I_Dist_200_LN_11_LD_20_RN_3_RD_4_1.png","I_Dist_200_LN_14_LD_30_RN_12_RD_18_1.png","I_Dist_200_LN_14_LD_30_RN_6_RD_9_1.png","I_Dist_200_LN_3_LD_10_RN_1_RD_2_1.png","I_Dist_200_LN_4_LD_30_RN_1_RD_3_1.png","I_Dist_200_LN_6_LD_20_RN_3_RD_6_1.png","I_Dist_200_LN_7_LD_15_RN_4_RD_6_1.png","I_Dist_200_LN_7_LD_15_RN_6_RD_9_1.png","I_Dist_200_LN_9_LD_15_RN_8_RD_10_1.png"]],"dist200_S":[["E_Dist_200_LN_3_LD_6_RN_3_RD_10_0.png"],["E_Dist_200_LN_3_LD_10_RN_3_RD_6_1.png"]],"dist300_C":[["C_Dist_300_LN_11_LD_22_RN_1_RD_5_0.png","C_Dist_300_LN_11_LD_22_RN_2_RD_10_0.png","C_Dist_300_LN_11_LD_22_RN_4_RD_20_0.png","C_Dist_300_LN_12_LD_24_RN_2_RD_10_0.png","C_Dist_300_LN_18_LD_20_RN_9_RD_15_0.png","C_Dist_300_LN_20_LD_25_RN_13_RD_26_0.png","C_Dist_300_LN_20_LD_25_RN_14_RD_28_0.png","C_Dist_300_LN_20_LD_25_RN_5_RD_10_0.png","C_Dist_300_LN_20_LD_25_RN_8_RD_16_0.png","C_Dist_300_LN_20_LD_25_RN_9_RD_18_0.png","C_Dist_300_LN_24_LD_30_RN_2_RD_4_0.png","C_Dist_300_LN_24_LD_30_RN_8_RD_16_0.png","C_Dist_300_LN_3_LD_6_RN_2_RD_10_0.png","C_Dist_300_LN_4_LD_10_RN_1_RD_10_0.png","C_Dist_300_LN_4_LD_5_RN_2_RD_4_0.png","C_Dist_300_LN_8_LD_16_RN_1_RD_5_0.png","C_Dist_300_LN_9_LD_10_RN_3_RD_5_0.png"],["C_Dist_300_LN_1_LD_20_RN_7_RD_20_1.png","C_Dist_300_LN_1_LD_3_RN_19_RD_30_1.png","C_Dist_300_LN_1_LD_30_RN_8_RD_24_1.png","C_Dist_300_LN_1_LD_5_RN_11_RD_22_1.png","C_Dist_300_LN_1_LD_5_RN_3_RD_6_1.png","C_Dist_300_LN_1_LD_5_RN_6_RD_12_1.png","C_Dist_300_LN_2_LD_10_RN_12_RD_24_1.png","C_Dist_300_LN_2_LD_20_RN_10_RD_25_1.png","C_Dist_300_LN_3_LD_12_RN_11_RD_20_1.png","C_Dist_300_LN_3_LD_6_RN_4_RD_5_1.png","C_Dist_300_LN_4_LD_20_RN_13_RD_26_1.png","C_Dist_300_LN_5_LD_25_RN_6_RD_12_1.png","C_Dist_300_LN_5_LD_25_RN_7_RD_14_1.png","C_Dist_300_LN_7_LD_14_RN_20_RD_25_1.png","C_Dist_300_LN_8_LD_15_RN_10_RD_12_1.png"]],"dist300_I":[["I_Dist_300_LN_1_LD_2_RN_2_RD_10_0.png","I_Dist_300_LN_1_LD_2_RN_3_RD_15_0.png","I_Dist_300_LN_2_LD_4_RN_6_RD_30_0.png","I_Dist_300_LN_3_LD_6_RN_4_RD_20_0.png","I_Dist_300_LN_4_LD_5_RN_6_RD_12_0.png","I_Dist_300_LN_4_LD_5_RN_8_RD_16_0.png","I_Dist_300_LN_7_LD_10_RN_8_RD_20_0.png","I_Dist_300_LN_8_LD_10_RN_14_RD_28_0.png","I_Dist_300_LN_8_LD_10_RN_9_RD_18_0.png"],["I_Dist_300_LN_13_LD_26_RN_12_RD_15_1.png","I_Dist_300_LN_4_LD_20_RN_2_RD_4_1.png"]],"dist300_S":[["E_Dist_300_LN_9_LD_12_RN_9_RD_20_0.png"],["E_Dist_300_LN_18_LD_30_RN_18_RD_20_1.png","E_Dist_300_LN_3_LD_10_RN_3_RD_5_1.png","E_Dist_300_LN_9_LD_20_RN_9_RD_12_1.png"]],"dist500_C":[["C_Dist_500_LN_10_LD_13_RN_7_RD_26_0.png","C_Dist_500_LN_10_LD_15_RN_4_RD_24_0.png","C_Dist_500_LN_12_LD_16_RN_3_RD_12_0.png","C_Dist_500_LN_12_LD_18_RN_4_RD_24_0.png","C_Dist_500_LN_15_LD_18_RN_5_RD_15_0.png","C_Dist_500_LN_15_LD_20_RN_1_RD_4_0.png","C_Dist_500_LN_18_LD_27_RN_1_RD_6_0.png","C_Dist_500_LN_20_LD_24_RN_1_RD_3_0.png","C_Dist_500_LN_20_LD_24_RN_3_RD_9_0.png","C_Dist_500_LN_20_LD_24_RN_7_RD_21_0.png","C_Dist_500_LN_20_LD_28_RN_3_RD_14_0.png","C_Dist_500_LN_21_LD_28_RN_6_RD_24_0.png","C_Dist_500_LN_22_LD_28_RN_2_RD_7_0.png","C_Dist_500_LN_25_LD_30_RN_9_RD_27_0.png","C_Dist_500_LN_4_LD_6_RN_1_RD_6_0.png","C_Dist_500_LN_5_LD_6_RN_2_RD_6_0.png","C_Dist_500_LN_6_LD_9_RN_1_RD_6_0.png","C_Dist_500_LN_7_LD_10_RN_1_RD_5_0.png","C_Dist_500_LN_8_LD_12_RN_1_RD_6_0.png","C_Dist_500_LN_8_LD_12_RN_4_RD_24_0.png"],["C_Dist_500_LN_1_LD_4_RN_12_RD_16_1.png","C_Dist_500_LN_1_LD_4_RN_9_RD_12_1.png","C_Dist_500_LN_1_LD_9_RN_11_RD_18_1.png","C_Dist_500_LN_10_LD_24_RN_22_RD_24_1.png","C_Dist_500_LN_2_LD_12_RN_10_RD_15_1.png","C_Dist_500_LN_2_LD_12_RN_12_RD_18_1.png","C_Dist_500_LN_2_LD_12_RN_4_RD_6_1.png","C_Dist_500_LN_2_LD_24_RN_7_RD_12_1.png","C_Dist_500_LN_2_LD_5_RN_18_RD_20_1.png","C_Dist_500_LN_2_LD_5_RN_9_RD_10_1.png","C_Dist_500_LN_2_LD_8_RN_12_RD_16_1.png","C_Dist_500_LN_2_LD_8_RN_21_RD_28_1.png","C_Dist_500_LN_3_LD_10_RN_4_RD_5_1.png","C_Dist_500_LN_3_LD_12_RN_15_RD_20_1.png","C_Dist_500_LN_3_LD_30_RN_6_RD_10_1.png","C_Dist_500_LN_3_LD_8_RN_14_RD_16_1.png","C_Dist_500_LN_4_LD_16_RN_15_RD_20_1.png","C_Dist_500_LN_4_LD_24_RN_12_RD_18_1.png","C_Dist_500_LN_5_LD_14_RN_6_RD_7_1.png","C_Dist_500_LN_7_LD_21_RN_20_RD_24_1.png","C_Dist_500_LN_7_LD_28_RN_12_RD_16_1.png","C_Dist_500_LN_7_LD_28_RN_9_RD_12_1.png","C_Dist_500_LN_9_LD_27_RN_20_RD_24_1.png"]],"dist500_I":[["I_Dist_500_LN_2_LD_3_RN_4_RD_24_0.png","I_Dist_500_LN_5_LD_6_RN_6_RD_18_0.png","I_Dist_500_LN_7_LD_8_RN_9_RD_24_0.png"],["I_Dist_500_LN_7_LD_21_RN_5_RD_6_1.png"]],"dist500_S":[["E_Dist_500_LN_6_LD_8_RN_6_RD_24_0.png"],["E_Dist_500_LN_2_LD_12_RN_2_RD_3_1.png","E_Dist_500_LN_6_LD_24_RN_6_RD_8_1.png"]]}},{"start_time":1552313003104,"click_time":1552313005124,"finger_time":1552313003543,"fix_duration":379.9529018356715,"trial":1,"RT":439,"MT":1581,"sideResp":2,"stimulus":[],"xmouse":[783,783,783,783,783,783,783,783,783,783,783,783,783,783,783,783,783,783,783,783,791,800,807,812,815,815,814,813,811,803,797,787,778,773,771,771,771,771,775,777,778,778,778,778,784,789,792,795,797,799,799,799,799,799,796,794,791,788,784,783,783,783,783,783,783,783,783,783,783,783,783,783,786,789,797,799,800,800,800,801,801,803,807,813,839,851,861,871,879,894,901,912,927,946,1007,1055,1079,1097,1111,1130,1137,1145],"ymouse":[646,646,646,646,646,646,646,646,646,646,646,646,646,646,646,646,646,646,646,649,659,669,675,678,683,683,688,689,691,693,695,697,698,698,698,698,697,689,682,672,671,671,671,671,670,669,666,663,660,653,651,650,649,648,643,641,639,637,635,635,635,635,635,635,635,635,635,635,635,635,635,635,634,633,629,628,627,626,626,626,625,623,619,614,587,574,558,542,528,497,482,465,440,413,328,259,219,190,163,121,104,86],"timestamp_mouse":[2,20,45,59,78,100,120,139,159,180,199,218,240,259,280,300,319,339,359,378,398,418,439,460,479,499,519,539,558,578,599,619,640,659,678,699,719,739,759,778,800,818,840,860,879,899,919,940,959,979,999,1019,1039,1059,1079,1099,1119,1139,1160,1179,1199,1218,1239,1259,1279,1300,1320,1339,1360,1379,1399,1419,1439,1460,1478,1499,1520,1539,1560,1578,1598,1620,1639,1659,1679,1700,1719,1740,1759,1779,1798,1819,1839,1860,1879,1898,1918,1939,1958,1979,1999,2020],"xSR":741.5,"ySR":573.95,"xT1":424.9,"yT1":0,"xT2":1058.1,"yT2":0,"toosoon":0,"cond_shown":"Incongruent","ratio_trial":300,"L_num":13,"L_den":26,"R_num":12,"R_den":15,"correct_side":2,"subjID":"jhon jairo blanco poveda 8","gender":"0","school":"4","age":"9"},{"start_time":1552313012298,"click_time":1552313014083,"finger_time":1552313013723,"fix_duration":553.5511113634203,"trial":2,"RT":1425,"MT":360,"sideResp":1,"stimulus":[],"xmouse":[786,786,786,786,786,786,786,786,786,786,786,786,786,786,786,786,786,786,786,786,786,786,786,786,786,786,786,786,786,786,786,786,786,786,786,786,786,786,786,786,786,786,786,786,786,786,786,786,786,786,786,786,786,786,786,786,786,786,786,786,786,786,786,786,786,786,786,786,782,779,761,744,728,709,691,650,629,599,565,546,534,533,533,533,532,520,509,498,493,492],"ymouse":[626,626,626,626,626,626,626,626,626,626,626,626,626,626,626,626,626,626,626,626,626,626,626,626,626,626,626,626,626,626,626,626,626,626,626,626,626,626,626,626,626,626,626,626,626,626,626,626,626,626,626,626,626,626,626,626,626,626,626,626,626,626,626,626,626,626,626,626,622,615,582,542,513,481,450,378,341,298,252,231,221,220,220,220,219,197,175,146,118,91],"timestamp_mouse":[13,36,45,66,85,104,124,145,166,186,204,226,246,265,286,305,325,345,366,385,406,425,445,466,485,506,524,546,565,585,606,625,644,665,686,705,725,744,764,785,806,825,846,864,885,906,924,952,966,986,1005,1025,1045,1066,1085,1106,1126,1145,1165,1185,1205,1225,1245,1265,1286,1306,1325,1346,1366,1385,1405,1425,1444,1465,1486,1506,1526,1546,1572,1586,1606,1626,1645,1664,1684,1705,1726,1744,1764,1785],"xSR":741.5,"ySR":573.95,"xT1":424.9,"yT1":0,"xT2":1058.1,"yT2":0,"toosoon":0,"cond_shown":"Incongruent","ratio_trial":100,"L_num":13,"L_den":26,"R_num":6,"R_den":10,"correct_side":2,"subjID":"jhon jairo blanco poveda 8","gender":"0","school":"4","age":"9"},{"start_time":1552313015587,"click_time":1552313016764,"finger_time":1552313016423,"fix_duration":382.3299106720407,"trial":3,"RT":836,"MT":341,"sideResp":2,"stimulus":[],"xmouse":[780,780,780,780,780,780,780,780,780,780,780,780,780,780,780,780,780,780,780,780,780,780,780,780,780,780,780,780,780,780,780,780,781,781,782,784,787,789,791,793,798,803,811,820,827,870,898,931,964,990,1024,1034,1046,1060,1074,1112,1119,1126,1131],"ymouse":[623,623,623,623,623,623,623,623,623,623,623,623,623,623,623,623,623,623,623,623,623,623,623,623,623,623,623,623,623,623,623,623,622,622,621,618,615,610,606,600,582,569,553,536,517,449,412,374,339,307,245,220,196,176,158,119,110,102,94],"timestamp_mouse":[23,52,56,75,96,116,136,157,175,197,216,237,256,276,297,317,336,355,377,397,415,435,457,477,496,517,536,557,575,597,616,636,656,676,697,716,736,757,777,795,816,836,856,877,896,916,935,955,977,996,1016,1037,1056,1077,1097,1116,1135,1156,1177],"xSR":741.5,"ySR":573.95,"xT1":424.9,"yT1":0,"xT2":1058.1,"yT2":0,"toosoon":0,"cond_shown":"Incongruent","ratio_trial":100,"L_num":6,"L_den":10,"R_num":13,"R_den":26,"correct_side":1,"subjID":"jhon jairo blanco poveda 8","gender":"0","school":"4","age":"9"},{"start_time":1552313018435,"click_time":1552313022364,"finger_time":1552313018564,"fix_duration":331.06401357152237,"trial":4,"RT":129,"MT":3800,"sideResp":1,"stimulus":[],"xmouse":[780,780,780,779,774,773,772,772,772,774,774,774,774,774,774,774,774,774,774,774,774,774,774,774,774,774,774,774,774,774,774,774,774,774,775,776,777,778,778,778,778,778,778,778,778,778,778,778,778,778,778,778,778,778,778,778,778,778,778,778,778,778,778,778,778,780,784,785,786,786,786,786,786,786,786,786,786,786,786,786,786,786,786,786,786,789,791,792,794,795,795,795,795,795,795,795,795,795,795,799,805,809,813,817,819,819,819,819,819,820,820,820,819,819,819,819,818,816,813,809,808,807,807,807,807,807,807,810,825,834,839,846,851,855,859,861,866,872,880,899,907,920,927,939,947,956,965,975,983,999,1005,1012,1016,1025,1033,1038,1042,1043,1043,1043,1043,1043,1043,1043,1043,1038,1030,1018,997,848,769,721,710,707,707,707,707,706,700,686,677,665,657,635,627,617,609,603,603,602,602,595,581,551,538,526,518],"ymouse":[635,635,635,645,663,671,675,675,675,674,674,674,674,674,674,674,674,674,674,674,674,674,674,674,665,663,660,657,653,652,652,652,652,652,648,643,640,636,635,635,635,635,635,635,635,635,635,635,635,635,635,635,635,635,635,635,635,635,635,635,635,635,635,635,635,633,627,626,625,625,625,625,625,625,625,625,625,625,625,625,625,625,625,625,625,620,618,616,614,614,613,613,613,613,613,613,613,613,613,612,611,610,610,609,609,609,609,609,609,609,609,609,609,609,609,609,611,612,615,617,618,618,618,618,618,618,617,613,590,575,558,536,523,509,479,463,446,430,414,381,365,344,331,313,302,289,274,256,236,199,184,168,160,146,139,133,130,129,129,129,129,129,129,129,129,128,127,127,126,126,126,126,125,125,125,125,125,123,120,111,107,101,99,95,93,92,88,87,86,86,85,81,77,65,59,54,51],"timestamp_mouse":[15,28,47,68,88,108,129,149,168,188,208,229,249,269,288,308,329,349,369,389,408,429,448,467,489,507,527,548,568,588,608,628,648,668,689,708,728,748,769,787,809,829,848,869,888,909,929,949,968,987,1008,1028,1048,1067,1088,1109,1129,1149,1168,1187,1208,1229,1249,1267,1287,1307,1327,1349,1368,1389,1408,1429,1449,1468,1489,1508,1528,1548,1568,1589,1609,1628,1647,1669,1688,1708,1728,1749,1768,1787,1808,1829,1848,1869,1887,1909,1928,1948,1968,1988,2008,2027,2048,2067,2088,2107,2129,2147,2168,2188,2208,2228,2248,2268,2288,2309,2328,2348,2368,2388,2408,2429,2447,2469,2488,2508,2528,2547,2568,2588,2608,2628,2648,2667,2688,2707,2728,2748,2768,2788,2808,2828,2848,2869,2888,2908,2929,2948,2968,2988,3008,3028,3049,3069,3087,3109,3127,3148,3167,3189,3209,3229,3248,3268,3288,3308,3328,3348,3368,3388,3408,3428,3448,3469,3488,3508,3529,3549,3569,3587,3608,3628,3648,3669,3687,3708,3727,3747,3768,3789,3808,3828,3848,3869,3888,3908,3929],"xSR":741.5,"ySR":573.95,"xT1":424.9,"yT1":0,"xT2":1058.1,"yT2":0,"toosoon":0,"cond_shown":"Congruent","ratio_trial":100,"L_num":3,"L_den":20,"R_num":4,"R_den":16,"correct_side":2,"subjID":"jhon jairo blanco poveda 8","gender":"0","school":"4","age":"9"},{"start_time":1552313024971,"click_time":1552313027564,"finger_time":1552313026543,"fix_duration":1306.629655358658,"trial":5,"RT":1572,"MT":1021,"sideResp":2,"stimulus":[],"xmouse":[782,782,782,782,782,782,782,782,782,782,782,782,782,782,782,782,782,782,782,782,782,782,782,782,782,782,782,782,782,782,782,782,782,782,782,782,782,782,782,782,782,782,782,782,782,782,782,782,782,782,782,782,782,782,782,782,782,782,782,782,782,782,782,782,782,781,780,777,776,774,774,772,771,771,771,771,771,772,773,774,775,775,777,778,780,782,783,783,783,783,783,783,783,783,783,783,783,783,783,783,783,783,783,783,783,783,783,783,783,785,817,817,849,859,866,873,879,891,898,904,912,929,954,967,981,996,1011,1048,1066,1084],"ymouse":[633,633,633,633,633,633,633,633,633,633,633,633,633,633,633,633,633,633,633,633,633,633,633,633,633,633,633,633,633,633,633,633,633,633,633,633,633,633,633,633,633,633,633,633,633,633,633,633,633,633,633,633,633,633,633,633,633,633,633,633,633,633,633,633,633,631,628,621,616,611,606,603,596,594,591,588,584,574,570,566,560,558,545,532,521,512,506,503,503,503,503,503,503,503,503,503,503,503,503,503,503,503,503,503,503,503,503,503,503,499,456,456,416,401,389,379,368,347,336,324,311,287,251,233,215,199,178,138,118,99],"timestamp_mouse":[13,36,53,73,92,113,131,153,173,193,211,232,253,272,292,313,333,353,372,393,412,432,452,471,492,513,532,552,572,592,613,632,652,671,693,713,732,751,773,793,812,833,853,872,893,913,933,952,971,993,1011,1033,1052,1073,1093,1112,1133,1153,1173,1193,1211,1233,1252,1271,1292,1313,1331,1352,1372,1391,1412,1432,1452,1471,1493,1512,1532,1552,1572,1592,1612,1632,1652,1672,1692,1713,1732,1752,1773,1792,1811,1832,1853,1873,1892,1912,1933,1952,1973,1993,2012,2033,2052,2073,2092,2112,2133,2152,2172,2191,2221,2232,2252,2273,2292,2312,2333,2351,2372,2393,2413,2432,2452,2474,2492,2512,2532,2551,2572,2593],"xSR":741.5,"ySR":573.95,"xT1":424.9,"yT1":0,"xT2":1058.1,"yT2":0,"toosoon":0,"cond_shown":"Congruent","ratio_trial":100,"L_num":2,"L_den":5,"R_num":11,"R_den":22,"correct_side":2,"subjID":"jhon jairo blanco poveda 8","gender":"0","school":"4","age":"9"},{"start_time":1552313029683,"click_time":1552313031443,"finger_time":1552313031043,"fix_duration":938.870300259401,"trial":6,"RT":1360,"MT":400,"sideResp":2,"stimulus":[],"xmouse":[784,784,784,784,784,784,784,784,784,784,784,784,784,784,784,784,784,784,784,784,784,784,784,784,784,784,784,784,784,784,784,784,784,784,784,784,784,784,784,784,784,784,784,784,784,784,784,784,784,784,784,784,784,784,784,784,784,784,784,784,784,784,784,784,795,809,823,835,861,874,888,905,920,970,989,1002,1012,1020,1028,1031,1035,1041,1048,1067,1070,1073,1076,1079,1084],"ymouse":[636,636,636,636,636,636,636,636,636,636,636,636,636,636,636,636,636,636,636,636,636,636,636,636,636,636,636,636,636,636,636,636,636,636,636,636,636,636,636,636,636,636,636,636,636,636,636,636,636,636,636,636,636,636,636,636,636,636,636,636,636,636,636,636,631,623,614,603,578,562,540,518,496,411,379,352,328,309,270,248,226,206,190,153,142,130,120,111,92],"timestamp_mouse":[10,20,40,59,80,100,121,140,160,180,201,220,240,260,280,300,321,341,361,381,400,421,441,460,480,501,521,540,559,581,601,621,640,659,679,701,721,741,761,779,800,821,840,860,881,900,920,939,959,981,1001,1020,1040,1061,1080,1099,1121,1141,1160,1181,1199,1221,1241,1259,1281,1300,1320,1341,1360,1379,1400,1420,1441,1460,1481,1500,1520,1540,1559,1579,1600,1619,1641,1660,1680,1700,1719,1741,1760],"xSR":741.5,"ySR":573.95,"xT1":424.9,"yT1":0,"xT2":1058.1,"yT2":0,"toosoon":0,"cond_shown":"Congruent","ratio_trial":100,"L_num":1,"L_den":2,"R_num":3,"R_den":5,"correct_side":2,"subjID":"jhon jairo blanco poveda 8","gender":"0","school":"4","age":"9"},{"start_time":1552313033565,"click_time":1552313035043,"finger_time":1552313034324,"fix_duration":1000.4270964815496,"trial":7,"RT":759,"MT":719,"sideResp":2,"stimulus":[],"xmouse":[789,789,789,789,789,789,789,789,789,789,789,789,789,789,789,789,789,789,789,789,789,789,789,789,789,789,789,789,789,789,789,789,789,789,791,797,807,819,823,834,841,852,863,889,900,912,922,938,949,973,985,994,1000,1009,1010,1012,1014,1015,1015,1015,1015,1016,1016,1021,1027,1032,1036,1041,1046,1059,1062,1064,1066,1068],"ymouse":[613,613,613,613,613,613,613,613,613,613,613,613,613,613,613,613,613,613,613,613,613,613,613,613,613,613,613,613,613,613,613,613,613,613,611,604,589,570,558,521,501,476,452,406,385,365,347,326,311,284,272,261,250,228,222,216,206,202,196,194,192,190,186,179,171,163,155,143,135,117,111,106,104,94],"timestamp_mouse":[25,48,58,78,98,119,139,158,179,199,218,239,259,279,299,319,338,358,379,398,418,439,457,478,498,518,539,558,578,599,618,637,659,678,698,718,739,759,778,799,819,839,859,878,897,919,937,958,978,999,1018,1039,1059,1078,1098,1118,1139,1158,1178,1198,1218,1237,1258,1278,1298,1318,1337,1358,1377,1398,1418,1438,1459,1478],"xSR":741.5,"ySR":573.95,"xT1":424.9,"yT1":0,"xT2":1058.1,"yT2":0,"toosoon":0,"cond_shown":"Congruent","ratio_trial":300,"L_num":7,"L_den":14,"R_num":20,"R_den":25,"correct_side":2,"subjID":"jhon jairo blanco poveda 8","gender":"0","school":"4","age":"9"},{"start_time":1552313036777,"click_time":1552313038503,"finger_time":1552313038163,"fix_duration":691.8760812169895,"trial":8,"RT":1386,"MT":340,"sideResp":2,"stimulus":[],"xmouse":[797,797,797,797,797,797,797,797,797,797,797,797,797,797,797,797,797,797,797,797,797,797,797,797,797,797,797,797,797,797,797,797,797,797,797,797,797,797,797,797,797,797,797,797,797,797,797,797,797,797,797,797,797,797,797,797,797,797,797,797,797,797,797,797,797,796,806,822,836,866,877,886,893,897,915,938,962,990,1019,1040,1040,1040,1040,1040,1045,1054,1063],"ymouse":[643,643,643,643,643,643,643,643,643,643,643,643,643,643,643,643,643,643,643,643,643,643,643,643,643,643,643,643,643,643,643,643,643,643,643,643,643,643,643,643,643,643,643,643,643,643,643,643,643,643,643,643,643,643,643,643,643,643,643,643,643,643,643,643,643,638,621,604,586,535,513,492,473,458,417,375,333,289,248,213,208,204,197,184,138,113,87],"timestamp_mouse":[13,36,46,66,86,106,127,147,167,185,206,227,247,266,286,306,327,347,367,386,407,427,446,467,485,506,527,546,567,587,606,627,647,665,686,707,726,747,767,787,807,826,846,867,886,907,926,947,967,986,1007,1026,1047,1067,1086,1107,1127,1146,1165,1187,1207,1226,1247,1267,1286,1306,1325,1345,1366,1386,1406,1425,1446,1467,1486,1506,1526,1545,1566,1587,1607,1626,1647,1666,1686,1706,1726],"xSR":741.5,"ySR":573.95,"xT1":424.9,"yT1":0,"xT2":1058.1,"yT2":0,"toosoon":0,"cond_shown":"Incongruent","ratio_trial":100,"L_num":13,"L_den":26,"R_num":12,"R_den":20,"correct_side":2,"subjID":"jhon jairo blanco poveda 8","gender":"0","school":"4","age":"9"},{"start_time":1552313041187,"click_time":1552313043464,"finger_time":1552313042063,"fix_duration":1341.094890808386,"trial":9,"RT":876,"MT":1401,"sideResp":2,"stimulus":[],"xmouse":[775,775,775,775,775,775,775,775,775,775,775,775,775,775,775,775,775,775,775,775,775,775,775,775,775,775,775,775,775,775,775,775,775,775,775,774,773,773,772,772,772,772,771,765,760,749,739,732,717,714,713,713,713,713,713,713,713,713,712,711,708,706,704,704,704,704,704,704,741,784,854,948,1111,1295,1355,1388,1401,1404,1401,1387,1382,1379,1379,1376,1369,1358,1341,1314,1286,1253,1248,1248,1248,1248,1248,1247,1247,1247,1247,1234,1213,1201,1195,1180,1172,1167,1167,1167,1167,1167,1167,1167,1165,1157],"ymouse":[617,617,617,617,617,617,617,617,617,617,617,617,617,617,617,617,617,617,617,617,617,617,617,617,617,617,617,617,617,617,617,617,617,617,611,607,604,602,601,601,601,596,592,551,527,503,479,460,427,420,419,419,419,419,419,419,419,417,410,394,380,353,332,306,304,304,304,304,305,305,298,276,224,117,65,14,0,0,0,0,0,0,0,0,0,3,12,22,33,42,43,43,43,43,43,43,43,43,43,43,43,43,43,45,46,47,47,47,47,47,47,47,47,47],"timestamp_mouse":[22,48,56,77,96,115,137,157,175,197,217,237,255,277,297,315,336,356,377,397,417,435,457,475,496,517,536,557,576,596,617,637,656,675,695,717,737,755,777,796,816,836,856,876,896,916,936,957,976,996,1016,1037,1056,1076,1096,1117,1136,1157,1176,1196,1216,1236,1257,1276,1296,1316,1336,1357,1376,1396,1417,1437,1456,1476,1496,1516,1536,1556,1576,1597,1616,1636,1656,1677,1696,1716,1736,1756,1777,1796,1817,1837,1857,1876,1896,1916,1937,1956,1976,1996,2016,2036,2056,2079,2097,2116,2137,2156,2176,2196,2215,2235,2256,2277],"xSR":741.5,"ySR":573.95,"xT1":424.9,"yT1":0,"xT2":1058.1,"yT2":0,"toosoon":0,"cond_shown":"Congruent","ratio_trial":200,"L_num":3,"L_den":10,"R_num":7,"R_den":14,"correct_side":2,"subjID":"jhon jairo blanco poveda 8","gender":"0","school":"4","age":"9"},{"start_time":1552313047007,"click_time":1552313048684,"finger_time":1552313048103,"fix_duration":601.0142115095922,"trial":10,"RT":1096,"MT":581,"sideResp":1,"stimulus":[],"xmouse":[779,779,779,779,779,779,779,779,779,779,779,779,779,779,779,779,779,779,779,779,780,780,780,780,780,780,780,780,780,780,780,781,783,785,785,785,785,785,785,785,785,785,785,785,785,785,785,785,785,785,786,786,785,781,775,770,763,758,750,750,750,750,750,744,738,730,717,702,642,620,608,602,600,598,593,584,571,558,540,538,537,535,531,513],"ymouse":[624,624,624,624,624,624,624,624,624,624,624,624,624,624,624,624,624,624,624,624,624,624,624,624,624,624,624,624,624,624,624,624,621,620,620,620,620,620,620,620,620,620,620,620,620,620,620,620,620,620,619,618,614,591,573,549,525,505,483,482,482,482,478,461,446,427,405,377,278,247,229,218,216,212,202,189,172,158,133,129,126,123,117,95],"timestamp_mouse":[17,45,58,77,98,118,137,158,177,196,218,237,258,276,297,317,337,358,377,398,417,437,458,476,498,518,538,558,578,597,616,637,658,677,697,718,738,756,776,797,817,838,856,878,898,917,938,957,977,997,1018,1037,1058,1076,1096,1118,1138,1158,1177,1197,1217,1236,1257,1277,1296,1317,1338,1358,1377,1397,1417,1437,1456,1476,1497,1517,1537,1558,1577,1598,1616,1638,1658,1677],"xSR":741.5,"ySR":573.95,"xT1":424.9,"yT1":0,"xT2":1058.1,"yT2":0,"toosoon":0,"cond_shown":"Incongruent","ratio_trial":300,"L_num":2,"L_den":4,"R_num":6,"R_den":30,"correct_side":1,"subjID":"jhon jairo blanco poveda 8","gender":"0","school":"4","age":"9"},{"start_time":1552313051676,"click_time":1552313053184,"finger_time":1552313052964,"fix_duration":250,"trial":11,"RT":1288,"MT":220,"sideResp":1,"stimulus":[],"xmouse":[799,799,799,799,799,799,799,799,799,799,799,799,799,799,799,799,799,799,799,799,799,799,799,799,799,799,799,799,799,799,799,799,799,799,799,799,799,799,799,799,799,799,799,799,799,799,799,799,799,799,799,799,799,799,799,799,799,799,799,799,799,796,793,788,776,760,708,677,641,606,570,535,527,526,521,513],"ymouse":[630,630,630,630,630,630,630,630,630,630,630,630,630,630,630,630,630,630,630,630,630,630,630,630,630,630,630,630,630,630,630,630,630,630,630,630,630,630,630,630,630,630,630,630,630,630,630,630,630,630,630,630,630,630,630,630,630,630,630,630,628,615,601,583,549,515,425,371,324,281,238,193,175,155,121,98],"timestamp_mouse":[7,28,48,68,89,108,129,149,168,188,207,228,249,267,289,309,327,348,369,389,408,428,448,468,489,507,529,549,568,589,609,629,648,669,689,709,729,749,768,789,809,827,849,868,889,909,929,948,967,989,1009,1029,1048,1069,1089,1109,1128,1148,1168,1189,1208,1227,1249,1269,1288,1309,1328,1349,1367,1388,1409,1428,1448,1468,1489,1508],"xSR":741.5,"ySR":573.95,"xT1":424.9,"yT1":0,"xT2":1058.1,"yT2":0,"toosoon":0,"cond_shown":"Congruent","ratio_trial":200,"L_num":16,"L_den":20,"R_num":12,"R_den":20,"correct_side":1,"subjID":"jhon jairo blanco poveda 8","gender":"0","school":"4","age":"9"},{"start_time":1552313056126,"click_time":1552313058726,"finger_time":1552313057685,"fix_duration":1359.892915450491,"trial":12,"RT":1559,"MT":1041,"sideResp":1,"stimulus":[],"xmouse":[797,797,797,797,797,797,797,797,797,797,797,797,797,797,797,797,796,795,794,794,794,794,794,794,794,794,794,794,794,794,794,794,794,794,794,794,794,794,794,794,794,794,794,794,794,794,794,794,794,794,794,794,794,794,794,794,794,794,794,794,794,794,794,794,793,793,793,793,793,793,792,791,790,787,784,780,777,775,771,770,770,770,770,770,770,770,770,770,770,770,770,770,770,770,770,770,770,770,770,770,771,771,772,772,772,772,772,772,772,772,772,772,772,772,772,772,772,770,747,712,687,663,646,614,595,571,546,512,456,432],"ymouse":[653,653,653,653,653,653,653,653,653,653,653,653,653,653,653,652,650,648,647,647,647,647,647,647,647,647,647,647,647,647,647,647,647,647,647,647,647,647,647,647,647,647,647,647,647,647,647,647,647,647,647,647,647,647,647,647,647,647,647,647,647,647,647,647,644,643,642,641,639,638,635,630,624,609,599,586,576,567,553,551,550,550,549,549,549,549,549,549,549,549,549,549,549,549,549,549,549,549,556,568,572,575,577,579,580,580,580,581,582,582,582,582,582,582,582,582,582,574,544,502,475,451,430,378,343,303,256,209,129,95],"timestamp_mouse":[26,45,58,78,99,117,138,159,178,199,217,239,259,278,299,318,337,359,379,399,417,438,458,478,498,518,538,559,578,598,618,639,658,678,699,719,737,758,779,799,818,838,858,877,899,919,938,959,978,998,1018,1038,1058,1077,1099,1119,1138,1157,1177,1199,1219,1238,1259,1278,1299,1319,1338,1359,1378,1399,1418,1438,1459,1479,1499,1518,1538,1559,1577,1598,1618,1638,1658,1678,1697,1719,1738,1759,1779,1798,1817,1839,1858,1878,1898,1919,1938,1958,1978,1997,2018,2039,2058,2078,2098,2117,2137,2159,2178,2199,2217,2239,2257,2278,2298,2318,2338,2359,2377,2399,2418,2438,2458,2477,2498,2518,2539,2558,2578,2599],"xSR":741.5,"ySR":573.95,"xT1":424.9,"yT1":0,"xT2":1058.1,"yT2":0,"toosoon":0,"cond_shown":"Incongruent","ratio_trial":200,"L_num":1,"L_den":3,"R_num":2,"R_den":15,"correct_side":1,"subjID":"jhon jairo blanco poveda 8","gender":"0","school":"4","age":"9"},{"start_time":1552313061162,"click_time":1552313063084,"finger_time":1552313062765,"fix_duration":1195.495450485997,"trial":13,"RT":1603,"MT":319,"sideResp":2,"stimulus":[],"xmouse":[791,791,791,791,791,791,791,791,791,791,791,791,791,791,791,791,791,791,791,791,791,791,791,791,791,791,791,791,791,791,791,791,791,791,791,791,791,791,791,791,791,791,791,791,791,791,791,791,791,791,791,791,791,791,791,791,791,791,791,791,791,791,791,791,791,791,791,791,791,791,791,791,791,791,791,791,791,791,797,804,819,840,863,898,918,938,968,990,995,1001,1004,1010,1016,1029,1039,1051,1079],"ymouse":[641,641,641,641,641,641,641,641,641,641,641,641,641,641,641,641,641,641,641,641,641,641,641,641,641,641,641,641,641,641,641,641,641,641,641,641,641,641,641,641,641,641,641,641,641,641,641,641,641,641,641,641,641,641,641,641,641,641,641,641,641,641,641,641,641,641,641,641,641,641,641,641,641,641,641,641,641,641,626,606,572,518,459,381,342,310,266,220,202,185,173,160,150,132,123,110,88],"timestamp_mouse":[12,22,41,63,81,102,121,142,163,182,201,222,243,263,283,302,322,343,363,382,403,422,443,462,483,502,522,543,563,582,603,623,643,663,683,702,723,743,763,783,802,822,843,862,882,903,922,942,963,983,1002,1022,1042,1061,1082,1103,1122,1143,1161,1182,1203,1222,1242,1261,1281,1303,1323,1342,1361,1383,1403,1422,1442,1461,1483,1503,1523,1541,1561,1583,1603,1622,1641,1661,1682,1703,1722,1742,1762,1782,1801,1823,1841,1861,1882,1903,1922],"xSR":741.5,"ySR":573.95,"xT1":424.9,"yT1":0,"xT2":1058.1,"yT2":0,"toosoon":0,"cond_shown":"Incongruent","ratio_trial":300,"L_num":4,"L_den":20,"R_num":2,"R_den":4,"correct_side":2,"subjID":"jhon jairo blanco poveda 8","gender":"0","school":"4","age":"9"},{"start_time":1552313065329,"click_time":1552313067364,"finger_time":1552313066844,"fix_duration":1024.97641019546,"trial":14,"RT":1515,"MT":520,"sideResp":2,"stimulus":[],"xmouse":[806,806,806,806,806,806,806,806,806,806,802,796,794,792,792,792,792,792,792,792,792,792,792,792,792,792,792,792,792,792,792,792,792,792,792,792,792,792,792,792,792,792,792,792,792,792,792,792,792,792,792,792,792,792,792,792,792,792,792,792,792,792,792,792,792,792,792,792,792,792,792,792,791,792,803,815,826,834,850,857,863,870,876,885,895,902,905,910,920,950,969,994,1021,1045,1047,1048,1049,1049,1050,1056,1062,1067],"ymouse":[621,621,621,621,621,621,621,621,621,621,621,623,624,624,624,624,624,624,624,624,624,624,624,624,624,624,624,624,624,624,624,624,624,624,624,624,624,624,624,624,624,624,624,624,624,624,624,624,624,624,624,624,624,624,624,624,624,624,624,624,624,624,624,624,624,624,624,624,624,624,624,624,624,619,593,560,531,501,452,429,408,386,367,345,314,299,291,285,271,240,217,191,167,142,135,132,128,128,127,118,108,99],"timestamp_mouse":[16,41,55,74,95,115,135,155,175,195,215,236,256,275,295,314,334,356,375,396,415,435,456,476,496,516,536,556,576,595,614,636,656,676,696,715,734,756,774,796,815,834,854,876,896,915,935,954,976,996,1016,1034,1056,1076,1095,1115,1134,1154,1175,1195,1215,1235,1255,1275,1294,1314,1335,1356,1376,1394,1415,1436,1454,1475,1495,1515,1535,1555,1576,1595,1616,1635,1654,1676,1695,1716,1734,1755,1776,1795,1815,1836,1856,1876,1895,1915,1935,1956,1976,1995,2016,2035],"xSR":741.5,"ySR":573.95,"xT1":424.9,"yT1":0,"xT2":1058.1,"yT2":0,"toosoon":0,"cond_shown":"Congruent","ratio_trial":100,"L_num":11,"L_den":22,"R_num":4,"R_den":10,"correct_side":1,"subjID":"jhon jairo blanco poveda 8","gender":"0","school":"4","age":"9"},{"start_time":1552313068735,"click_time":1552313070246,"finger_time":1552313070123,"fix_duration":250,"trial":15,"RT":1388,"MT":123,"sideResp":2,"stimulus":[],"xmouse":[777,776,776,776,776,776,776,776,776,776,776,776,776,776,776,776,776,776,776,776,776,776,776,776,776,776,776,776,776,776,776,776,776,776,776,776,776,776,776,776,776,776,776,776,776,776,776,776,776,776,776,776,776,776,776,776,776,776,776,776,776,776,776,776,776,779,783,788,794,817,842,873,906,946,1041,1064],"ymouse":[652,651,650,650,649,649,649,649,649,649,649,649,649,649,649,649,649,649,649,649,649,649,649,649,649,649,649,649,649,649,649,649,649,649,649,649,649,649,649,649,649,649,649,649,649,649,649,649,649,649,649,649,649,649,649,645,643,642,639,638,638,638,638,638,632,624,615,599,577,501,442,372,294,217,64,30],"timestamp_mouse":[11,28,55,70,89,109,130,150,169,190,210,230,248,269,290,309,330,349,370,390,410,429,449,470,488,508,530,550,569,589,608,628,650,669,689,709,729,750,769,788,809,828,849,869,890,908,928,949,968,989,1009,1029,1050,1070,1089,1110,1130,1149,1170,1189,1210,1229,1250,1270,1288,1309,1329,1349,1370,1388,1409,1430,1449,1469,1488,1510],"xSR":741.5,"ySR":573.95,"xT1":424.9,"yT1":0,"xT2":1058.1,"yT2":0,"toosoon":0,"cond_shown":"Congruent","ratio_trial":300,"L_num":1,"L_den":5,"R_num":6,"R_den":12,"correct_side":2,"subjID":"jhon jairo blanco poveda 8","gender":"0","school":"4","age":"9"},{"start_time":1552313071873,"click_time":1552313073704,"finger_time":1552313073125,"fix_duration":407.79428854229394,"trial":16,"RT":1252,"MT":579,"sideResp":2,"stimulus":[],"xmouse":[787,787,787,787,787,787,787,787,787,787,787,787,787,787,787,787,787,787,787,787,787,787,787,787,787,787,787,787,787,787,787,787,787,787,787,787,787,787,787,787,787,787,787,787,787,787,787,787,787,787,787,786,786,789,789,790,791,792,797,799,803,808,816,828,846,869,889,908,943,953,963,974,993,1013,1019,1022,1023,1023,1025,1028,1029,1031,1032,1035,1035,1036,1040,1046,1057,1058,1058,1059],"ymouse":[619,619,619,619,619,619,619,619,619,619,619,619,619,619,619,619,619,619,619,619,619,619,619,619,619,619,619,619,619,619,619,619,619,619,619,619,619,619,619,619,619,619,619,619,619,619,619,619,619,619,619,619,618,617,617,616,615,614,607,604,596,585,572,533,506,479,453,424,359,326,293,252,211,145,113,100,95,91,86,81,77,74,73,72,72,72,72,72,72,72,72,72],"timestamp_mouse":[15,32,51,71,90,112,131,152,170,192,212,230,250,271,291,310,332,352,370,392,411,432,452,471,492,512,532,550,571,592,611,632,652,671,691,711,731,751,772,792,810,832,851,870,892,912,931,952,971,992,1011,1031,1051,1071,1092,1112,1131,1152,1170,1192,1211,1231,1252,1271,1291,1311,1331,1351,1371,1391,1412,1431,1452,1472,1490,1511,1532,1551,1571,1591,1611,1631,1652,1670,1691,1710,1732,1751,1772,1791,1810,1830],"xSR":741.5,"ySR":573.95,"xT1":424.9,"yT1":0,"xT2":1058.1,"yT2":0,"toosoon":0,"cond_shown":"Incongruent","ratio_trial":100,"L_num":6,"L_den":10,"R_num":11,"R_den":22,"correct_side":1,"subjID":"jhon jairo blanco poveda 8","gender":"0","school":"4","age":"9"},{"start_time":1552313077408,"click_time":1552313079284,"finger_time":1552313078844,"fix_duration":1042.2252189458482,"trial":17,"RT":1436,"MT":440,"sideResp":1,"stimulus":[],"xmouse":[798,798,798,798,798,798,798,798,798,798,798,798,798,798,798,798,798,798,798,798,798,798,798,798,798,798,798,798,798,798,798,798,798,798,798,798,798,798,798,798,798,798,798,798,798,798,798,798,798,798,798,798,798,798,798,798,797,796,795,795,794,793,790,789,789,789,789,789,788,788,787,777,766,745,682,650,545,414,377,351,341,333,331,331,331,331,332,343,354,367,383,400,419,425],"ymouse":[610,610,610,610,610,610,610,610,610,610,610,610,610,610,610,610,610,610,610,610,610,610,610,610,610,610,610,610,610,610,610,610,610,610,610,610,610,610,610,610,610,610,610,610,610,610,610,610,610,610,610,610,610,610,610,610,610,608,606,603,601,597,591,589,588,588,588,588,586,583,578,553,532,498,413,379,266,89,0,0,0,0,0,0,0,0,0,3,12,23,34,47,65,74],"timestamp_mouse":[16,42,56,75,95,117,136,156,176,196,217,237,257,277,297,316,337,356,376,396,417,437,455,476,495,516,536,557,575,596,617,637,656,676,696,716,736,757,776,797,815,837,857,877,895,915,937,957,977,997,1016,1036,1056,1076,1097,1117,1135,1155,1177,1196,1217,1235,1256,1277,1296,1315,1335,1355,1375,1396,1417,1436,1456,1476,1495,1516,1535,1556,1576,1596,1617,1636,1657,1676,1696,1717,1735,1756,1775,1796,1816,1835,1855,1876],"xSR":741.5,"ySR":573.95,"xT1":424.9,"yT1":0,"xT2":1058.1,"yT2":0,"toosoon":0,"cond_shown":"Incongruent","ratio_trial":300,"L_num":8,"L_den":10,"R_num":14,"R_den":28,"correct_side":1,"subjID":"jhon jairo blanco poveda 8","gender":"0","school":"4","age":"9"},{"start_time":1552313081790,"click_time":1552313083124,"finger_time":1552313082744,"fix_duration":964.6735315729728,"trial":18,"RT":954,"MT":380,"sideResp":2,"stimulus":[],"xmouse":[789,789,789,786,786,786,786,786,786,786,786,786,786,786,786,786,786,786,786,786,786,786,786,786,786,786,786,786,786,786,786,786,786,786,786,786,786,786,786,786,786,786,785,791,795,799,806,817,876,936,996,1038,1059,1071,1071,1070,1069,1067,1065,1065,1065,1065,1064,1060,1060,1060,1060],"ymouse":[623,623,623,623,623,623,623,623,623,623,623,623,623,623,623,623,623,623,623,623,623,623,623,623,623,623,623,623,623,623,623,623,623,623,623,623,623,623,623,623,623,623,622,613,607,598,585,564,488,429,375,331,302,269,266,262,258,251,228,211,191,171,152,124,115,105,93],"timestamp_mouse":[14,41,54,74,94,115,133,154,175,194,215,235,255,273,294,315,333,355,375,395,413,435,455,473,495,514,533,555,573,594,615,634,655,673,694,715,733,754,775,793,815,834,854,874,894,913,933,954,974,995,1014,1033,1054,1074,1094,1113,1134,1155,1173,1195,1214,1234,1254,1274,1295,1315,1334],"xSR":741.5,"ySR":573.95,"xT1":424.9,"yT1":0,"xT2":1058.1,"yT2":0,"toosoon":0,"cond_shown":"Congruent","ratio_trial":100,"L_num":2,"L_den":5,"R_num":6,"R_den":12,"correct_side":2,"subjID":"jhon jairo blanco poveda 8","gender":"0","school":"4","age":"9"},{"start_time":1552313087124,"click_time":1552313088645,"finger_time":1552313088025,"fix_duration":1298.1488596324,"trial":19,"RT":901,"MT":620,"sideResp":1,"stimulus":[],"xmouse":[787,788,788,788,788,788,788,789,789,789,789,789,789,789,789,789,789,789,789,789,789,789,789,789,789,789,789,789,789,789,789,789,789,789,789,789,789,789,789,789,789,790,784,779,773,764,748,730,721,706,689,675,651,640,631,621,605,598,588,581,574,568,563,554,550,547,543,536,534,531,528,525,515,499,493,472,462],"ymouse":[624,624,624,624,624,624,624,624,624,624,624,624,624,624,624,624,624,624,624,624,624,624,624,624,624,624,624,624,624,624,624,624,624,624,624,624,624,624,624,624,624,617,602,591,575,558,530,504,495,484,473,465,449,441,433,424,408,401,384,370,356,340,323,291,273,262,251,236,232,227,220,211,184,155,145,108,88],"timestamp_mouse":[2,19,43,61,80,100,121,140,161,180,201,221,240,260,280,301,320,340,359,380,399,421,441,460,480,501,520,539,561,580,601,620,641,660,681,701,721,741,761,779,800,821,840,861,880,901,920,940,960,980,1000,1020,1040,1060,1080,1099,1121,1139,1160,1180,1201,1220,1241,1261,1280,1300,1321,1341,1360,1380,1400,1419,1440,1459,1480,1500,1521],"xSR":741.5,"ySR":573.95,"xT1":424.9,"yT1":0,"xT2":1058.1,"yT2":0,"toosoon":0,"cond_shown":"Incongruent","ratio_trial":300,"L_num":8,"L_den":10,"R_num":9,"R_den":18,"correct_side":1,"subjID":"jhon jairo blanco poveda 8","gender":"0","school":"4","age":"9"},{"start_time":1552313091946,"click_time":1552313094344,"finger_time":1552313093983,"fix_duration":780.8171779358993,"trial":20,"RT":2037,"MT":361,"sideResp":2,"stimulus":[],"xmouse":[786,786,786,786,786,786,786,786,786,786,786,786,786,786,786,786,786,786,786,786,786,786,786,786,786,786,786,786,786,786,786,786,786,786,786,786,786,786,786,786,786,786,786,786,786,786,786,786,786,786,786,786,787,787,788,788,788,788,788,788,788,788,788,788,788,788,788,788,788,788,788,788,788,788,788,788,788,788,788,788,788,788,788,788,788,788,788,788,788,788,788,788,788,788,788,788,788,788,789,791,794,808,817,829,843,857,869,895,913,930,946,990,1008,1025,1042,1058,1082,1091,1097,1103],"ymouse":[627,627,627,627,627,627,627,627,627,627,627,627,627,627,627,627,627,627,627,627,627,627,627,627,627,627,627,627,627,627,627,627,627,627,627,627,627,627,627,627,627,627,627,627,627,627,627,627,627,627,627,622,616,614,612,612,612,612,612,612,612,612,612,612,612,612,612,612,612,612,612,612,612,612,612,612,611,604,600,598,598,597,597,597,597,597,597,597,597,597,597,597,597,597,597,597,597,597,593,591,588,568,556,538,516,494,473,416,385,356,327,261,236,214,191,169,131,115,103,92],"timestamp_mouse":[21,45,58,79,97,117,138,158,178,198,218,237,258,278,299,318,338,357,378,398,419,439,458,477,497,517,539,558,577,598,617,637,659,678,698,719,738,758,778,798,819,838,859,878,898,918,938,958,978,998,1018,1038,1058,1078,1098,1117,1138,1158,1179,1199,1218,1238,1259,1277,1298,1318,1337,1357,1378,1398,1419,1438,1457,1477,1499,1519,1537,1558,1578,1597,1619,1638,1659,1678,1698,1717,1737,1759,1778,1797,1818,1839,1858,1878,1898,1919,1938,1957,1979,1999,2018,2037,2058,2077,2099,2119,2137,2157,2179,2198,2218,2238,2258,2277,2298,2319,2338,2358,2377,2398],"xSR":741.5,"ySR":573.95,"xT1":424.9,"yT1":0,"xT2":1058.1,"yT2":0,"toosoon":0,"cond_shown":"Congruent","ratio_trial":100,"L_num":3,"L_den":6,"R_num":2,"R_den":5,"correct_side":1,"subjID":"jhon jairo blanco poveda 8","gender":"0","school":"4","age":"9"},{"start_time":1552313097113,"click_time":1552313100365,"finger_time":1552313097743,"fix_duration":486.17181120527397,"trial":21,"RT":630,"MT":2622,"sideResp":2,"stimulus":[],"xmouse":[765,765,765,765,765,765,765,765,765,765,765,765,765,765,765,765,765,765,765,765,765,765,765,765,765,766,767,767,770,770,772,773,776,778,779,779,779,779,779,779,779,779,779,779,779,779,779,779,779,779,779,779,779,779,779,779,779,779,779,779,779,779,779,779,779,779,779,779,779,779,779,779,779,779,779,779,779,779,779,779,779,779,779,779,779,779,779,779,779,779,779,779,779,779,779,779,779,779,779,779,779,779,781,785,789,793,793,795,795,795,795,795,795,795,795,795,795,795,795,795,795,795,795,792,785,784,783,783,783,783,783,782,782,782,782,782,780,778,774,771,768,768,767,767,765,758,749,744,743,743,743,763,789,817,874,895,908,912,913,930,965,1009,1063],"ymouse":[630,630,630,630,631,631,631,631,631,631,631,631,631,631,631,631,631,631,631,631,631,631,631,631,635,640,646,651,662,666,672,682,698,708,710,711,711,711,711,711,711,708,703,700,700,699,699,698,696,692,688,675,662,646,620,614,611,611,611,611,611,611,611,611,611,611,611,611,611,611,611,611,611,611,611,611,611,611,611,611,611,611,611,611,611,611,611,611,611,611,611,611,611,611,611,611,611,611,611,610,604,586,572,554,520,504,488,478,465,465,465,465,465,465,465,465,465,465,465,465,465,465,465,469,489,492,496,500,504,511,514,520,523,526,527,532,536,544,559,570,581,583,584,585,585,577,566,559,558,558,557,542,526,501,429,381,335,305,290,251,209,160,98],"timestamp_mouse":[15,42,52,71,90,112,131,152,170,190,211,231,251,272,290,312,330,351,372,391,411,431,451,470,492,512,530,552,571,592,611,630,650,671,690,711,731,750,771,792,811,832,851,871,890,911,932,951,971,991,1010,1031,1052,1070,1091,1111,1130,1150,1172,1192,1211,1231,1251,1271,1290,1311,1332,1350,1370,1391,1410,1432,1451,1471,1492,1512,1530,1552,1571,1590,1612,1631,1652,1672,1691,1710,1732,1750,1771,1791,1812,1831,1850,1872,1891,1911,1931,1952,1972,1990,2012,2032,2051,2071,2090,2111,2131,2151,2171,2190,2210,2231,2250,2271,2290,2310,2332,2351,2372,2390,2411,2432,2452,2471,2490,2511,2531,2551,2570,2591,2611,2632,2651,2672,2691,2711,2731,2751,2772,2791,2812,2832,2851,2871,2890,2912,2931,2952,2977,2992,3010,3030,3051,3072,3092,3111,3132,3150,3172,3190,3210,3231,3252],"xSR":741.5,"ySR":573.95,"xT1":424.9,"yT1":0,"xT2":1058.1,"yT2":0,"toosoon":0,"cond_shown":"Incongruent","ratio_trial":200,"L_num":6,"L_den":20,"R_num":3,"R_den":6,"correct_side":2,"subjID":"jhon jairo blanco poveda 8","gender":"0","school":"4","age":"9"},{"start_time":1552313102619,"click_time":1552313103864,"finger_time":1552313103423,"fix_duration":1092.4368952011926,"trial":22,"RT":804,"MT":441,"sideResp":2,"stimulus":[],"xmouse":[787,787,787,787,787,787,787,787,787,787,787,787,787,787,787,787,787,787,787,787,787,787,787,787,787,787,787,787,787,787,787,787,787,787,787,787,793,798,810,826,860,871,879,887,890,890,891,893,895,899,910,915,919,931,948,958,967,977,988,1015,1029,1053,1060],"ymouse":[622,622,622,622,622,622,622,622,622,622,622,622,622,622,622,622,622,622,622,622,622,622,622,622,622,622,622,622,622,622,622,622,622,622,622,622,614,609,595,581,550,535,523,510,504,503,502,498,495,489,469,456,446,423,387,366,342,317,286,208,171,111,91],"timestamp_mouse":[11,24,45,66,84,106,125,145,164,185,206,226,245,266,284,306,326,346,364,384,405,425,445,465,485,506,526,545,566,586,605,626,646,666,684,706,725,746,766,784,804,825,844,865,885,904,925,946,966,985,1005,1025,1045,1065,1085,1104,1125,1144,1166,1185,1204,1225,1245],"xSR":741.5,"ySR":573.95,"xT1":424.9,"yT1":0,"xT2":1058.1,"yT2":0,"toosoon":0,"cond_shown":"Incongruent","ratio_trial":100,"L_num":9,"L_den":15,"R_num":14,"R_den":28,"correct_side":1,"subjID":"jhon jairo blanco poveda 8","gender":"0","school":"4","age":"9"},{"start_time":1552313107007,"click_time":1552313108864,"finger_time":1552313108524,"fix_duration":1361.5025287714395,"trial":23,"RT":1517,"MT":340,"sideResp":1,"stimulus":[],"xmouse":[789,789,789,789,789,789,789,789,789,789,789,789,789,789,789,789,789,789,789,789,789,789,789,789,789,789,789,789,789,789,789,789,789,789,789,789,789,789,789,789,789,789,789,789,789,789,789,789,789,789,789,789,789,789,789,789,789,789,789,789,789,789,789,789,789,789,789,789,789,789,789,789,789,787,784,774,770,766,760,753,732,722,713,703,687,654,635,623,609,597,554,530,514],"ymouse":[613,613,613,613,613,613,613,613,613,613,613,613,613,613,613,613,613,613,613,613,613,613,613,613,613,613,613,613,613,613,613,613,613,613,613,613,613,613,613,613,613,613,613,613,613,613,613,613,613,613,613,613,613,613,613,613,613,613,613,613,613,613,613,613,613,613,613,613,613,613,613,612,603,594,584,562,551,538,525,512,478,466,452,438,415,371,344,319,294,265,164,105,60],"timestamp_mouse":[18,37,57,78,98,118,138,159,178,198,219,237,259,278,297,317,338,359,377,398,417,438,457,478,497,517,538,559,579,598,618,637,658,678,698,718,739,759,779,797,818,838,858,877,897,917,937,958,978,998,1018,1038,1057,1079,1097,1117,1137,1158,1178,1197,1217,1238,1257,1278,1298,1318,1337,1358,1379,1399,1418,1437,1458,1477,1499,1517,1538,1557,1578,1598,1617,1637,1657,1677,1697,1717,1737,1758,1777,1798,1818,1838,1857],"xSR":741.5,"ySR":573.95,"xT1":424.9,"yT1":0,"xT2":1058.1,"yT2":0,"toosoon":0,"cond_shown":"Incongruent","ratio_trial":200,"L_num":7,"L_den":10,"R_num":8,"R_den":16,"correct_side":1,"subjID":"jhon jairo blanco poveda 8","gender":"0","school":"4","age":"9"},{"start_time":1552313112076,"click_time":1552313114045,"finger_time":1552313113405,"fix_duration":250,"trial":24,"RT":1329,"MT":640,"sideResp":1,"stimulus":[],"xmouse":[815,815,815,815,814,813,812,812,812,812,812,812,812,812,812,812,812,812,812,812,812,812,812,812,812,812,812,812,812,812,812,812,812,812,812,812,812,812,812,812,812,812,812,812,812,812,812,812,812,812,812,812,812,812,812,812,812,812,812,812,812,812,809,801,781,759,726,702,700,699,699,698,691,683,667,658,648,623,609,594,580,567,556,530,512,508,502,500,500,500,500,500,500,499,499,495,491,487,482],"ymouse":[610,611,611,611,613,614,615,615,615,615,615,615,615,615,615,615,615,615,615,615,615,615,615,615,615,615,615,615,615,615,615,615,615,615,615,615,615,615,615,615,615,615,615,615,615,615,615,615,615,615,615,615,615,615,615,615,615,615,615,615,615,615,614,609,601,591,576,562,560,556,551,544,520,500,467,445,424,373,347,322,297,274,252,204,179,173,163,160,160,160,160,160,159,154,146,133,122,106,82],"timestamp_mouse":[13,37,48,68,89,110,130,149,169,188,210,229,248,268,288,310,330,349,369,390,408,429,449,469,488,509,529,550,570,588,610,628,649,668,689,708,729,749,768,789,810,829,848,869,889,910,928,948,968,990,1009,1029,1049,1069,1089,1110,1128,1148,1169,1190,1209,1229,1249,1270,1289,1309,1329,1349,1368,1389,1408,1430,1449,1468,1488,1508,1529,1549,1569,1588,1608,1629,1649,1669,1689,1708,1728,1749,1768,1788,1810,1829,1849,1869,1888,1909,1928,1948,1968],"xSR":741.5,"ySR":573.95,"xT1":424.9,"yT1":0,"xT2":1058.1,"yT2":0,"toosoon":0,"cond_shown":"Incongruent","ratio_trial":100,"L_num":13,"L_den":26,"R_num":12,"R_den":20,"correct_side":2,"subjID":"jhon jairo blanco poveda 8","gender":"0","school":"4","age":"9"},{"start_time":1552313115856,"click_time":1552313116865,"finger_time":1552313116604,"fix_duration":428.5020146272085,"trial":25,"RT":748,"MT":261,"sideResp":2,"stimulus":[],"xmouse":[773,773,773,773,773,773,773,773,773,773,773,773,773,773,773,773,773,773,773,773,773,773,773,773,773,773,773,773,773,775,779,783,786,792,796,809,827,857,899,963,984,1003,1015,1024,1039,1049,1059,1072,1095,1128,1134],"ymouse":[630,630,630,630,630,630,630,630,630,630,630,630,630,630,630,630,630,630,630,630,630,630,630,630,630,630,630,630,630,628,627,625,622,615,611,601,595,578,547,477,439,405,378,355,320,292,269,237,195,121,98],"timestamp_mouse":[20,46,48,69,88,108,128,149,168,189,208,230,248,269,288,309,330,348,369,389,410,429,449,469,489,509,530,550,568,588,608,629,649,669,688,708,730,748,769,788,809,829,849,869,888,908,928,948,969,990,1009],"xSR":741.5,"ySR":573.95,"xT1":424.9,"yT1":0,"xT2":1058.1,"yT2":0,"toosoon":0,"cond_shown":"Incongruent","ratio_trial":200,"L_num":4,"L_den":6,"R_num":14,"R_den":30,"correct_side":1,"subjID":"jhon jairo blanco poveda 8","gender":"0","school":"4","age":"9"},{"start_time":1552313118256,"click_time":1552313120444,"finger_time":1552313119685,"fix_duration":250,"trial":26,"RT":1429,"MT":759,"sideResp":2,"stimulus":[],"xmouse":[768,768,768,767,767,767,767,767,767,767,767,767,767,767,767,767,767,767,767,767,767,767,767,767,767,767,767,767,767,767,767,767,767,767,767,767,767,767,767,767,767,767,767,767,767,767,767,767,767,767,767,767,767,767,767,767,767,767,767,767,767,767,767,767,767,767,767,768,773,797,814,830,846,861,888,891,894,895,895,896,901,907,914,926,963,984,1007,1027,1042,1067,1086,1113,1141,1160,1207,1220,1221,1221,1216,1205,1204,1204,1204,1200,1193,1186,1179,1172,1165,1144],"ymouse":[636,639,641,642,642,642,642,642,642,642,642,642,642,642,642,642,642,642,642,642,642,642,642,642,642,642,642,642,642,642,642,642,642,642,642,642,642,642,642,642,642,642,642,642,642,642,642,642,642,642,642,642,642,642,642,642,642,642,642,642,642,642,642,642,642,642,642,639,632,605,588,569,550,529,477,458,436,414,391,349,329,311,295,277,235,220,207,196,185,167,155,139,127,118,74,57,52,52,52,52,51,51,51,51,51,51,51,51,51,48],"timestamp_mouse":[17,33,49,69,89,108,130,149,168,189,210,229,249,269,289,308,329,349,368,389,409,430,449,469,488,508,530,549,568,588,609,630,648,668,688,709,730,748,769,788,808,829,850,869,889,908,929,949,969,989,1008,1028,1048,1068,1089,1109,1129,1148,1168,1188,1208,1229,1249,1270,1289,1309,1329,1349,1368,1388,1408,1429,1449,1469,1489,1509,1529,1549,1569,1588,1610,1630,1649,1669,1689,1710,1728,1748,1769,1789,1808,1828,1849,1868,1888,1910,1929,1949,1968,1988,2010,2029,2050,2069,2088,2110,2128,2149,2169,2188],"xSR":741.5,"ySR":573.95,"xT1":424.9,"yT1":0,"xT2":1058.1,"yT2":0,"toosoon":0,"cond_shown":"Incongruent","ratio_trial":300,"L_num":13,"L_den":26,"R_num":12,"R_den":15,"correct_side":2,"subjID":"jhon jairo blanco poveda 8","gender":"0","school":"4","age":"9"},{"start_time":1552313122759,"click_time":1552313124585,"finger_time":1552313124145,"fix_duration":1392.0488927800582,"trial":27,"RT":1386,"MT":440,"sideResp":2,"stimulus":[],"xmouse":[773,773,773,773,773,773,773,773,773,773,773,773,773,773,773,773,773,773,773,773,773,773,773,773,773,773,773,773,773,773,773,773,773,773,773,773,773,773,773,773,773,773,773,773,773,773,773,773,773,773,773,773,773,773,773,773,773,773,773,773,773,773,773,773,773,778,789,808,820,846,861,884,914,952,1004,1023,1032,1033,1035,1039,1065,1084,1109,1129,1150,1150,1150,1150,1150,1149,1148,1148],"ymouse":[625,625,625,625,625,625,625,625,625,625,625,625,625,625,625,625,625,625,625,625,625,625,625,625,625,625,625,625,625,625,625,625,625,625,625,625,625,625,625,625,625,625,625,625,625,625,625,625,625,625,625,625,625,625,625,625,625,625,625,625,625,625,625,625,625,622,613,596,584,548,524,484,431,371,305,290,285,284,283,280,256,237,208,178,133,122,115,111,105,101,100,97],"timestamp_mouse":[22,41,48,66,85,105,127,145,166,186,206,225,245,265,286,307,326,345,365,385,405,427,447,465,486,505,527,546,566,587,606,626,645,665,686,705,727,746,766,787,805,825,846,867,886,906,927,945,965,985,1006,1025,1046,1065,1085,1106,1125,1147,1166,1186,1207,1226,1246,1265,1285,1305,1326,1345,1366,1386,1405,1426,1447,1466,1485,1505,1527,1545,1565,1585,1606,1626,1645,1665,1687,1705,1725,1745,1766,1786,1805,1825],"xSR":741.5,"ySR":573.95,"xT1":424.9,"yT1":0,"xT2":1058.1,"yT2":0,"toosoon":0,"cond_shown":"Congruent","ratio_trial":100,"L_num":4,"L_den":10,"R_num":15,"R_den":30,"correct_side":2,"subjID":"jhon jairo blanco poveda 8","gender":"0","school":"4","age":"9"},{"start_time":1552313126652,"click_time":1552313127964,"finger_time":1552313127484,"fix_duration":845.7220491651045,"trial":28,"RT":832,"MT":480,"sideResp":2,"stimulus":[],"xmouse":[778,778,778,778,778,778,778,778,778,778,778,778,778,778,778,778,778,778,778,778,778,778,778,778,778,778,778,778,778,778,778,778,778,778,778,778,778,778,780,784,810,838,855,876,896,945,977,1003,1024,1034,1038,1038,1038,1038,1038,1038,1038,1038,1038,1038,1044,1058,1071,1087,1102,1126],"ymouse":[614,614,614,614,614,614,614,614,614,614,614,614,614,614,614,614,614,614,614,614,614,614,614,614,614,614,614,614,614,614,614,614,614,614,614,614,614,614,611,605,575,548,532,510,484,421,388,365,347,335,316,305,298,293,288,281,274,266,254,240,211,189,171,151,133,97],"timestamp_mouse":[13,41,53,73,93,112,134,152,172,192,212,232,254,273,294,313,332,353,374,393,414,433,453,474,493,513,533,553,573,593,614,634,653,672,693,713,734,753,772,792,814,832,852,872,892,912,933,953,973,993,1013,1034,1053,1072,1092,1112,1133,1152,1173,1193,1212,1232,1252,1272,1293,1312],"xSR":741.5,"ySR":573.95,"xT1":424.9,"yT1":0,"xT2":1058.1,"yT2":0,"toosoon":0,"cond_shown":"Incongruent","ratio_trial":200,"L_num":3,"L_den":4,"R_num":11,"R_den":20,"correct_side":1,"subjID":"jhon jairo blanco poveda 8","gender":"0","school":"4","age":"9"},{"start_time":1552313131337,"click_time":1552313132905,"finger_time":1552313132406,"fix_duration":250,"trial":29,"RT":1069,"MT":499,"sideResp":1,"stimulus":[],"xmouse":[797,797,797,797,797,797,797,797,797,797,797,797,797,797,797,797,797,797,797,797,797,797,797,797,797,797,797,797,797,797,797,797,797,797,797,797,797,797,797,797,797,797,797,797,797,797,797,797,797,797,797,793,786,774,748,737,696,688,685,681,680,675,669,658,647,627,605,593,581,568,556,531,523,518,517,517,517,515,514],"ymouse":[632,632,632,632,632,632,632,632,632,632,632,632,632,632,632,632,632,632,632,632,632,632,632,632,632,632,632,632,632,632,632,632,632,632,632,632,632,632,632,632,632,632,632,632,632,632,632,632,632,632,632,615,592,561,511,495,434,419,413,409,407,405,401,392,381,355,316,294,271,250,227,187,168,149,138,129,117,108,99],"timestamp_mouse":[13,44,47,67,89,108,128,149,167,187,209,228,248,269,287,308,328,348,369,388,408,428,447,467,489,508,527,547,567,587,607,628,649,668,688,708,727,749,767,788,807,828,849,867,887,908,928,947,968,988,1008,1028,1048,1069,1088,1108,1127,1147,1168,1187,1208,1227,1248,1267,1287,1308,1328,1348,1367,1387,1408,1427,1447,1467,1487,1508,1527,1547,1567],"xSR":741.5,"ySR":573.95,"xT1":424.9,"yT1":0,"xT2":1058.1,"yT2":0,"toosoon":0,"cond_shown":"Incongruent","ratio_trial":200,"L_num":7,"L_den":10,"R_num":12,"R_den":24,"correct_side":1,"subjID":"jhon jairo blanco poveda 8","gender":"0","school":"4","age":"9"},{"start_time":1552313135486,"click_time":1552313137284,"finger_time":1552313136665,"fix_duration":1198.866548281659,"trial":30,"RT":1179,"MT":619,"sideResp":1,"stimulus":[],"xmouse":[791,791,791,791,791,791,791,791,791,791,791,791,791,791,791,791,791,791,791,791,791,791,791,791,791,791,791,791,791,791,791,791,791,791,791,791,791,791,791,791,791,791,791,791,791,791,791,791,791,791,791,791,791,791,791,791,790,790,787,784,780,777,776,774,772,770,768,766,764,760,744,736,728,724,722,719,713,708,704,690,681,673,667,663,659,643,633,610,581,542,481],"ymouse":[609,609,609,609,609,609,609,609,609,609,609,609,609,609,609,609,609,609,609,609,609,609,609,609,609,609,609,609,609,609,609,609,609,609,609,609,609,609,609,609,609,609,609,609,609,609,609,609,609,609,609,609,609,609,608,601,596,588,579,571,561,555,551,546,544,540,535,530,524,517,492,480,469,463,460,455,445,436,429,409,397,388,380,376,371,340,314,273,210,141,32],"timestamp_mouse":[1,18,41,58,78,98,118,140,159,178,198,220,238,259,280,298,319,338,358,379,399,419,439,458,478,498,519,538,559,579,600,620,638,659,678,698,719,739,758,778,798,818,839,859,880,899,919,939,958,979,998,1018,1038,1058,1079,1098,1118,1139,1158,1179,1199,1219,1238,1258,1278,1298,1318,1338,1359,1378,1398,1419,1439,1460,1479,1498,1518,1538,1558,1580,1599,1619,1638,1659,1679,1698,1718,1739,1758,1779,1798],"xSR":741.5,"ySR":573.95,"xT1":424.9,"yT1":0,"xT2":1058.1,"yT2":0,"toosoon":0,"cond_shown":"Congruent","ratio_trial":300,"L_num":9,"L_den":10,"R_num":3,"R_den":5,"correct_side":1,"subjID":"jhon jairo blanco poveda 8","gender":"0","school":"4","age":"9"},{"start_time":1552313138979,"click_time":1552313140684,"finger_time":1552313140125,"fix_duration":432.12776067461647,"trial":31,"RT":1146,"MT":559,"sideResp":2,"stimulus":[],"xmouse":[801,801,801,801,801,801,801,801,801,801,801,801,801,801,801,801,801,801,801,801,801,801,801,801,801,801,801,801,801,801,801,801,801,801,801,801,801,801,801,801,801,800,800,800,800,800,800,800,800,800,800,800,800,800,802,807,811,816,821,827,833,852,864,880,895,914,954,974,979,993,1009,1015,1023,1030,1035,1037,1037,1037,1037,1038,1040,1042,1049,1059,1071,1085],"ymouse":[619,619,619,619,619,619,619,619,619,619,619,619,619,619,619,619,619,619,619,619,619,619,619,619,619,619,619,619,619,619,619,619,619,619,619,619,619,619,619,619,619,619,619,619,619,619,619,619,619,619,619,619,617,614,606,587,580,570,559,550,539,511,494,472,447,415,340,292,281,249,213,200,187,178,171,169,169,169,169,167,163,160,146,124,102,78],"timestamp_mouse":[6,41,46,65,85,106,127,146,165,186,205,225,247,265,286,306,327,347,366,386,407,427,447,466,486,506,526,547,565,586,606,625,646,665,686,705,727,746,765,786,806,827,845,865,886,906,925,947,965,986,1006,1025,1045,1066,1086,1106,1126,1146,1165,1186,1205,1226,1246,1265,1287,1306,1325,1346,1365,1386,1406,1425,1446,1465,1485,1507,1526,1547,1565,1585,1606,1626,1646,1665,1686,1705],"xSR":741.5,"ySR":573.95,"xT1":424.9,"yT1":0,"xT2":1058.1,"yT2":0,"toosoon":0,"cond_shown":"Incongruent","ratio_trial":300,"L_num":13,"L_den":26,"R_num":12,"R_den":15,"correct_side":2,"subjID":"jhon jairo blanco poveda 8","gender":"0","school":"4","age":"9"},{"start_time":1552313141917,"click_time":1552313144125,"finger_time":1552313143665,"fix_duration":250,"trial":32,"RT":1748,"MT":460,"sideResp":1,"stimulus":[],"xmouse":[803,803,803,803,803,803,803,803,803,803,803,803,803,803,803,803,803,803,803,803,803,803,803,803,804,807,808,809,810,810,810,810,810,810,810,810,810,810,810,810,810,810,810,810,809,809,809,809,809,809,809,809,809,807,807,806,806,806,806,806,806,806,806,806,806,806,806,806,806,806,806,806,806,806,806,806,806,806,806,806,806,806,806,806,806,796,781,763,737,662,631,608,587,574,557,550,541,536,531,519,511,507,505,505,505,505,505,503,500,486,476],"ymouse":[626,626,626,626,626,626,626,626,626,626,626,626,626,626,626,626,626,626,626,626,626,626,625,623,615,610,606,602,599,598,598,598,598,598,598,598,598,598,598,598,598,598,598,599,601,601,601,601,601,601,601,601,602,606,608,608,608,608,609,609,609,609,609,609,609,609,609,609,609,609,609,609,609,609,609,609,609,609,609,609,609,609,609,609,609,594,574,547,511,413,378,351,326,309,277,259,240,219,201,158,130,117,110,109,109,109,109,107,105,101,96],"timestamp_mouse":[10,41,48,69,88,108,128,147,168,188,207,229,249,268,288,308,328,347,368,388,409,427,447,468,488,509,528,548,567,587,609,627,647,668,687,708,729,747,767,787,808,829,847,867,887,908,929,947,968,987,1007,1028,1047,1067,1088,1108,1129,1148,1167,1188,1208,1228,1248,1269,1288,1309,1328,1347,1367,1388,1407,1427,1449,1468,1488,1508,1527,1548,1569,1588,1608,1628,1647,1668,1688,1709,1727,1748,1768,1788,1808,1828,1847,1867,1887,1907,1928,1949,1968,1987,2008,2028,2048,2067,2087,2109,2128,2148,2168,2187,2207],"xSR":741.5,"ySR":573.95,"xT1":424.9,"yT1":0,"xT2":1058.1,"yT2":0,"toosoon":0,"cond_shown":"Congruent","ratio_trial":200,"L_num":6,"L_den":12,"R_num":7,"R_den":10,"correct_side":2,"subjID":"jhon jairo blanco poveda 8","gender":"0","school":"4","age":"9"},{"start_time":1552313145636,"click_time":1552313147005,"finger_time":1552313146745,"fix_duration":250,"trial":33,"RT":1109,"MT":260,"sideResp":1,"stimulus":[],"xmouse":[785,785,785,785,785,785,785,785,785,785,785,785,785,785,785,785,785,785,785,785,785,785,785,785,785,785,785,785,785,785,785,785,785,785,785,785,785,785,785,785,785,785,785,785,785,785,785,785,785,785,785,781,776,761,753,743,731,715,677,659,643,630,616,601,593,577,560,541,521],"ymouse":[619,619,619,619,619,619,619,619,619,619,619,619,619,619,619,619,619,619,619,619,619,619,619,619,619,619,619,619,619,619,619,619,619,619,619,619,619,619,619,619,619,619,619,619,619,619,619,619,619,619,619,619,612,590,575,558,534,508,442,410,389,369,343,303,277,222,155,92,41],"timestamp_mouse":[11,35,49,68,89,110,129,148,168,188,209,229,250,268,288,310,328,348,369,390,410,429,448,469,490,509,529,549,568,589,609,629,648,668,688,709,728,750,769,789,810,829,848,869,889,910,930,949,969,989,1010,1029,1048,1068,1089,1109,1129,1148,1168,1188,1209,1230,1248,1268,1288,1308,1328,1349,1368],"xSR":741.5,"ySR":573.95,"xT1":424.9,"yT1":0,"xT2":1058.1,"yT2":0,"toosoon":0,"cond_shown":"Congruent","ratio_trial":200,"L_num":9,"L_den":30,"R_num":13,"R_den":26,"correct_side":2,"subjID":"jhon jairo blanco poveda 8","gender":"0","school":"4","age":"9"},{"start_time":1552313148926,"click_time":1552313150225,"finger_time":1552313149906,"fix_duration":659.0141794441203,"trial":34,"RT":980,"MT":319,"sideResp":2,"stimulus":[],"xmouse":[787,787,787,787,787,787,787,787,787,787,787,787,787,787,787,787,787,787,787,787,787,787,787,787,787,787,787,787,787,787,787,787,787,787,787,787,787,787,787,787,787,787,787,787,787,787,791,799,843,875,908,957,999,1021,1030,1032,1034,1043,1075,1094,1107,1116,1120,1117,1101],"ymouse":[638,638,638,638,638,638,638,638,638,638,638,638,638,638,638,638,638,638,638,638,638,638,638,638,638,638,638,638,638,638,638,638,638,638,638,638,638,638,638,638,638,638,638,638,638,634,623,611,573,549,511,454,415,393,379,369,354,334,290,264,236,207,164,138,98],"timestamp_mouse":[18,39,58,79,100,119,140,159,179,199,219,238,259,280,298,319,338,358,378,398,419,439,459,480,499,518,539,558,580,598,619,640,659,678,698,719,739,759,779,798,819,838,858,880,899,919,939,958,980,999,1018,1039,1060,1078,1098,1119,1138,1159,1180,1198,1219,1238,1259,1278,1299],"xSR":741.5,"ySR":573.95,"xT1":424.9,"yT1":0,"xT2":1058.1,"yT2":0,"toosoon":0,"cond_shown":"Incongruent","ratio_trial":300,"L_num":13,"L_den":26,"R_num":12,"R_den":15,"correct_side":2,"subjID":"jhon jairo blanco poveda 8","gender":"0","school":"4","age":"9"},{"start_time":1552313153907,"click_time":1552313155625,"finger_time":1552313155365,"fix_duration":1480.2108268885875,"trial":35,"RT":1458,"MT":260,"sideResp":2,"stimulus":[],"xmouse":[794,794,794,794,794,794,794,794,794,794,794,794,794,794,794,794,794,794,794,794,794,794,794,794,794,794,794,794,794,794,794,794,794,794,794,794,794,794,794,794,794,794,794,794,794,794,794,794,794,794,794,794,794,794,794,794,794,794,794,794,794,794,794,794,794,794,794,795,797,807,815,823,832,850,895,926,959,991,1012,1027,1049,1057,1062,1067,1074],"ymouse":[615,615,615,615,615,615,615,615,615,615,615,615,615,615,615,615,615,615,615,615,615,615,615,615,615,615,615,615,615,615,615,615,615,615,615,615,615,615,615,615,615,615,615,615,615,615,615,615,615,615,615,615,615,615,615,615,615,615,615,615,615,615,615,615,615,615,615,611,606,585,574,566,556,535,482,445,407,367,339,315,262,228,184,144,90],"timestamp_mouse":[41,59,77,97,118,138,159,177,198,219,237,258,278,298,318,338,359,378,397,418,437,459,477,498,517,537,557,579,598,618,638,657,678,698,719,737,758,778,797,817,838,859,877,898,919,938,957,979,997,1018,1038,1059,1077,1098,1117,1137,1158,1177,1198,1219,1237,1258,1278,1298,1318,1339,1358,1378,1397,1418,1437,1458,1478,1499,1517,1537,1557,1577,1598,1617,1638,1657,1678,1698,1718],"xSR":741.5,"ySR":573.95,"xT1":424.9,"yT1":0,"xT2":1058.1,"yT2":0,"toosoon":0,"cond_shown":"Congruent","ratio_trial":200,"L_num":9,"L_den":30,"R_num":13,"R_den":26,"correct_side":2,"subjID":"jhon jairo blanco poveda 8","gender":"0","school":"4","age":"9"},{"start_time":1552313158336,"click_time":1552313160005,"finger_time":1552313159565,"fix_duration":250,"trial":36,"RT":1229,"MT":440,"sideResp":2,"stimulus":[],"xmouse":[799,799,799,799,799,799,799,799,799,799,799,799,798,797,796,796,796,796,796,796,796,796,796,796,796,796,796,796,796,796,796,796,796,796,796,796,796,796,796,796,796,796,796,796,796,796,796,796,796,796,796,796,796,796,796,796,796,796,799,823,839,851,859,868,887,928,952,974,992,1024,1036,1051,1074,1088,1100,1111,1115,1116,1118,1120,1120,1120,1119,1116],"ymouse":[623,623,623,623,623,623,623,623,623,623,623,623,626,627,628,628,628,628,628,628,628,628,628,628,628,628,628,628,628,628,628,628,628,628,628,628,628,628,628,628,628,628,628,628,628,628,628,628,628,628,628,628,628,628,628,628,628,628,626,615,605,591,563,535,494,414,378,348,322,278,257,231,195,173,159,136,130,126,123,118,113,109,104,97],"timestamp_mouse":[9,41,50,69,89,109,128,148,169,190,208,229,248,269,290,308,329,350,369,389,409,430,448,469,489,508,528,549,570,590,609,629,648,670,690,709,729,748,769,790,809,830,849,869,888,908,928,950,970,989,1008,1028,1049,1070,1089,1110,1129,1148,1169,1189,1209,1229,1249,1268,1288,1308,1329,1349,1369,1390,1408,1428,1449,1469,1489,1508,1529,1548,1568,1589,1608,1628,1648,1669],"xSR":741.5,"ySR":573.95,"xT1":424.9,"yT1":0,"xT2":1058.1,"yT2":0,"toosoon":0,"cond_shown":"Congruent","ratio_trial":300,"L_num":1,"L_den":20,"R_num":7,"R_den":20,"correct_side":2,"subjID":"jhon jairo blanco poveda 8","gender":"0","school":"4","age":"9"},{"start_time":1552313163870,"click_time":1552313165645,"finger_time":1552313165325,"fix_duration":1402.9922100744784,"trial":37,"RT":1455,"MT":320,"sideResp":2,"stimulus":[],"xmouse":[787,787,787,787,788,789,790,790,790,790,790,790,790,790,790,790,790,790,790,790,790,790,790,790,790,790,790,790,790,790,790,791,791,791,791,791,791,791,791,791,791,791,791,791,791,791,791,791,791,791,792,794,794,795,795,795,795,795,795,795,795,795,795,795,795,795,795,797,805,814,826,841,863,880,921,946,970,988,1005,1010,1021,1036,1046,1073,1087,1091,1091,1091,1093],"ymouse":[632,632,632,634,635,637,638,638,638,638,638,638,638,638,638,638,638,638,638,638,638,638,638,638,638,638,638,638,638,638,638,639,639,639,639,639,639,639,639,639,639,639,639,639,639,639,639,639,639,639,639,637,636,636,636,636,636,636,636,636,636,636,636,636,636,636,635,633,623,615,605,591,560,530,447,400,360,334,307,297,284,262,245,190,156,129,111,100,89],"timestamp_mouse":[20,42,54,75,94,115,134,156,174,195,216,235,255,275,295,314,334,354,376,395,415,436,456,475,496,514,534,554,574,595,615,634,654,675,695,715,735,754,775,795,814,834,854,874,895,915,935,954,975,995,1016,1034,1054,1074,1094,1115,1135,1155,1175,1195,1215,1235,1255,1276,1295,1314,1335,1355,1375,1394,1415,1435,1455,1474,1494,1515,1535,1554,1575,1594,1614,1634,1654,1674,1694,1714,1734,1755,1775],"xSR":741.5,"ySR":573.95,"xT1":424.9,"yT1":0,"xT2":1058.1,"yT2":0,"toosoon":0,"cond_shown":"Congruent","ratio_trial":100,"L_num":2,"L_den":5,"R_num":6,"R_den":12,"correct_side":2,"subjID":"jhon jairo blanco poveda 8","gender":"0","school":"4","age":"9"},{"start_time":1552313166814,"click_time":1552313168406,"finger_time":1552313168005,"fix_duration":507.938379930186,"trial":38,"RT":1191,"MT":401,"sideResp":2,"stimulus":[],"xmouse":[785,788,788,788,788,788,788,788,788,788,788,788,788,788,788,788,788,788,788,788,788,788,788,788,788,788,788,788,788,788,788,788,788,788,788,788,788,788,788,788,788,788,788,788,790,791,792,792,792,792,792,792,792,792,794,798,810,819,824,830,834,837,844,859,875,893,913,954,970,981,989,997,1010,1013,1015,1020,1025,1043,1051,1059],"ymouse":[647,640,639,638,638,638,638,638,638,638,638,638,638,638,638,638,638,638,638,638,638,638,638,638,638,638,638,638,638,638,638,638,638,638,638,638,638,638,638,638,638,638,638,638,635,634,633,633,633,633,633,633,633,633,631,622,599,586,574,564,555,542,500,468,447,419,390,317,279,249,220,194,161,153,147,137,126,93,77,63],"timestamp_mouse":[11,40,50,70,91,112,130,151,171,190,212,231,251,270,292,311,331,352,370,392,412,432,451,471,492,511,530,551,572,591,611,632,652,672,692,710,732,751,772,791,812,831,851,872,891,911,930,951,972,992,1012,1031,1051,1071,1091,1111,1132,1151,1172,1191,1211,1231,1251,1271,1291,1312,1332,1352,1370,1391,1411,1431,1452,1471,1491,1512,1530,1551,1572,1592],"xSR":741.5,"ySR":573.95,"xT1":424.9,"yT1":0,"xT2":1058.1,"yT2":0,"toosoon":0,"cond_shown":"Congruent","ratio_trial":300,"L_num":3,"L_den":12,"R_num":11,"R_den":20,"correct_side":2,"subjID":"jhon jairo blanco poveda 8","gender":"0","school":"4","age":"9"},{"start_time":1552313171257,"click_time":1552313173066,"finger_time":1552313172405,"fix_duration":250,"trial":39,"RT":1148,"MT":661,"sideResp":1,"stimulus":[],"xmouse":[810,808,808,805,803,802,802,802,802,801,799,799,799,799,799,799,799,799,799,799,799,799,799,799,799,799,799,799,799,799,799,799,799,799,799,799,799,799,799,799,799,799,799,799,799,799,799,799,799,799,799,799,799,799,798,792,786,775,766,750,739,735,731,726,714,676,646,615,582,534,479,462,450,442,431,417,414,414,410,405,398,395,395,397,399,402,402,404,406,418,449],"ymouse":[648,647,647,644,642,642,642,642,641,640,638,638,638,638,638,638,638,638,638,638,638,638,638,638,638,638,638,638,638,638,638,638,638,638,638,638,638,638,638,638,638,638,638,638,638,638,638,638,638,638,638,638,638,638,631,607,588,563,538,505,472,456,440,415,376,268,198,125,47,0,0,0,0,0,0,0,0,0,3,16,45,56,61,65,66,67,67,68,68,68,68],"timestamp_mouse":[16,47,49,68,89,108,128,149,168,188,208,227,249,269,288,307,328,349,367,389,408,428,448,468,487,509,528,549,569,587,609,628,648,668,688,708,728,748,768,789,808,828,847,868,887,909,928,948,969,988,1008,1027,1049,1068,1088,1107,1128,1148,1169,1189,1208,1228,1247,1268,1289,1308,1328,1348,1369,1389,1409,1427,1448,1468,1487,1510,1528,1548,1568,1588,1610,1628,1647,1667,1689,1709,1728,1748,1768,1788,1808],"xSR":741.5,"ySR":573.95,"xT1":424.9,"yT1":0,"xT2":1058.1,"yT2":0,"toosoon":0,"cond_shown":"Congruent","ratio_trial":100,"L_num":9,"L_den":15,"R_num":8,"R_den":16,"correct_side":1,"subjID":"jhon jairo blanco poveda 8","gender":"0","school":"4","age":"9"},{"start_time":1552313174679,"click_time":1552313177225,"finger_time":1552313176206,"fix_duration":250,"trial":40,"RT":1527,"MT":1019,"sideResp":1,"stimulus":[],"xmouse":[768,768,768,768,768,768,768,768,768,768,768,768,768,768,768,768,769,770,770,771,771,771,771,771,771,771,771,771,771,771,771,771,771,771,771,771,771,771,771,771,771,771,771,771,771,771,771,771,771,771,771,771,771,771,771,771,771,771,771,770,770,770,770,770,770,770,770,770,770,770,770,770,770,771,774,781,787,791,796,815,835,865,903,943,980,1022,1032,1034,1034,1035,1035,1036,1036,1036,1036,1036,1037,1037,1037,1037,1037,1037,1037,1037,1028,1001,982,974,972,972,972,962,941,910,877,828,826,823,818,810,775,747,703,662,624,552,534,521],"ymouse":[597,597,597,597,597,597,597,597,597,597,597,597,597,597,597,597,597,597,597,599,599,599,599,599,599,599,599,599,599,599,599,599,599,599,599,599,599,599,599,599,599,599,599,599,599,599,599,599,599,599,599,599,599,599,599,598,597,597,597,596,596,596,596,596,596,596,596,596,596,596,596,594,592,590,585,574,565,560,554,522,490,451,403,346,294,227,202,191,179,171,157,150,142,136,130,123,122,120,119,119,119,119,119,119,126,142,150,153,153,153,153,150,144,135,126,110,108,105,102,98,82,70,57,43,33,19,18,18],"timestamp_mouse":[12,32,46,66,86,107,127,145,166,187,205,226,247,267,286,305,327,346,366,386,406,427,445,465,485,507,527,546,566,587,605,626,646,666,685,706,726,746,767,785,807,827,846,866,885,907,926,947,967,987,1006,1026,1046,1065,1086,1106,1126,1145,1166,1187,1206,1226,1247,1266,1286,1306,1327,1346,1366,1386,1406,1426,1446,1467,1486,1507,1527,1546,1566,1587,1606,1626,1646,1665,1687,1706,1726,1747,1766,1786,1806,1826,1846,1865,1886,1907,1926,1946,1966,1987,2006,2027,2047,2067,2087,2106,2126,2146,2166,2186,2206,2225,2246,2266,2286,2306,2326,2345,2366,2385,2406,2427,2447,2467,2486,2506,2526,2545],"xSR":741.5,"ySR":573.95,"xT1":424.9,"yT1":0,"xT2":1058.1,"yT2":0,"toosoon":0,"cond_shown":"Congruent","ratio_trial":100,"L_num":8,"L_den":16,"R_num":2,"R_den":5,"correct_side":1,"subjID":"jhon jairo blanco poveda 8","gender":"0","school":"4","age":"9"},{"start_time":1552313181129,"click_time":1552313183327,"finger_time":1552313182106,"fix_duration":1102.0334824288154,"trial":41,"RT":977,"MT":1221,"sideResp":1,"stimulus":[],"xmouse":[786,786,788,788,789,789,789,789,789,789,789,789,789,789,789,789,789,789,789,789,789,789,789,789,789,789,789,789,789,789,789,789,789,787,785,782,780,780,780,780,780,780,780,780,780,780,780,780,785,786,791,794,807,811,815,818,827,849,868,890,910,934,965,974,982,988,995,1007,1009,1011,1011,1011,1011,1011,1011,1011,1011,1014,1015,1015,1015,1015,1014,1012,1009,1005,996,949,908,862,813,755,707,691,675,659,637,595,581,576,576,576,572,566,560,555,551,539,531,522],"ymouse":[628,617,602,602,601,601,601,601,601,601,601,601,601,601,601,601,601,601,601,601,601,601,601,601,601,601,601,601,601,601,601,601,601,602,606,609,613,614,614,614,614,614,614,614,613,610,603,593,569,557,539,533,503,491,478,466,446,393,361,319,282,234,175,153,131,109,85,41,25,12,11,11,11,11,11,11,10,13,16,17,18,21,24,26,29,33,36,44,44,44,44,44,44,44,44,44,44,44,44,45,45,45,47,48,49,49,49,49,49,49],"timestamp_mouse":[16,36,56,77,97,117,136,156,176,195,217,237,256,276,296,316,337,356,376,397,417,437,455,477,497,515,537,557,577,597,616,637,656,677,697,717,736,756,776,797,815,836,856,876,896,916,937,955,976,997,1015,1035,1055,1075,1096,1117,1136,1156,1176,1197,1215,1236,1256,1277,1297,1317,1336,1356,1375,1396,1417,1436,1456,1477,1496,1515,1536,1555,1576,1596,1616,1636,1655,1677,1696,1715,1736,1756,1776,1795,1816,1837,1856,1875,1896,1917,1936,1956,1976,1996,2016,2035,2056,2075,2096,2117,2136,2156,2176,2197],"xSR":741.5,"ySR":573.95,"xT1":424.9,"yT1":0,"xT2":1058.1,"yT2":0,"toosoon":0,"cond_shown":"Incongruent","ratio_trial":100,"L_num":9,"L_den":15,"R_num":14,"R_den":28,"correct_side":1,"subjID":"jhon jairo blanco poveda 8","gender":"0","school":"4","age":"9"},{"start_time":1552313186941,"click_time":1552313189126,"finger_time":1552313188386,"fix_duration":813.0553610856874,"trial":42,"RT":1445,"MT":740,"sideResp":1,"stimulus":[],"xmouse":[816,816,816,816,816,816,816,816,816,816,816,816,816,816,816,816,816,816,816,816,816,816,816,816,816,816,816,816,816,816,816,816,816,816,816,816,816,816,816,816,813,805,800,797,797,797,797,797,797,797,797,797,797,797,797,797,797,797,797,797,797,797,797,797,797,797,797,796,796,796,799,804,808,817,821,821,821,821,820,820,820,820,817,803,777,744,706,679,655,655,655,657,657,658,660,666,675,681,685,689,696,705,712,718,704,674,636,606,540,508],"ymouse":[640,640,640,640,640,640,640,640,640,640,640,640,640,640,640,640,640,640,640,640,640,640,640,640,640,640,640,640,640,640,640,640,640,640,640,640,640,640,640,640,640,640,640,640,640,640,640,640,640,640,640,640,640,640,640,640,640,640,640,640,640,640,640,640,640,640,640,639,632,624,613,594,570,516,493,474,463,457,456,456,456,456,456,456,458,463,474,483,502,507,514,523,529,547,562,579,596,604,607,604,588,566,539,466,409,339,270,217,119,70],"timestamp_mouse":[13,24,44,64,83,105,124,144,164,184,205,225,245,265,284,305,325,344,363,385,405,425,445,464,485,504,525,544,564,584,605,625,643,665,684,705,724,744,765,784,805,824,844,865,883,905,925,945,965,984,1004,1024,1045,1065,1084,1104,1125,1143,1164,1183,1205,1224,1245,1264,1285,1305,1323,1345,1364,1384,1404,1424,1445,1464,1485,1504,1525,1543,1564,1585,1604,1624,1643,1663,1685,1704,1724,1745,1764,1785,1804,1824,1843,1864,1885,1904,1924,1944,1964,1984,2004,2025,2044,2063,2083,2104,2125,2144,2163,2184],"xSR":741.5,"ySR":573.95,"xT1":424.9,"yT1":0,"xT2":1058.1,"yT2":0,"toosoon":0,"cond_shown":"Incongruent","ratio_trial":300,"L_num":8,"L_den":10,"R_num":9,"R_den":18,"correct_side":1,"subjID":"jhon jairo blanco poveda 8","gender":"0","school":"4","age":"9"},{"start_time":1552313193305,"click_time":1552313195585,"finger_time":1552313194624,"fix_duration":1417.555545603836,"trial":43,"RT":1319,"MT":961,"sideResp":1,"stimulus":[],"xmouse":[786,786,786,786,786,786,786,786,786,786,786,786,786,786,786,786,786,786,786,786,786,786,786,786,786,786,786,786,786,786,786,786,786,786,786,786,786,786,786,786,786,786,786,786,786,786,786,786,786,786,786,786,786,786,786,786,786,786,786,786,786,786,786,784,783,778,749,729,708,693,685,676,675,675,675,672,662,652,647,646,643,631,619,600,574,545,455,413,379,357,349,341,336,333,331,331,331,335,344,357,371,396,397,397,397,397,397,397,397,397,397,397,401,416,430],"ymouse":[618,618,618,618,618,618,618,618,618,618,618,618,618,618,618,618,618,618,618,618,618,618,618,618,618,618,618,618,618,618,618,618,618,61