[{"start_time":1552313678731,"click_time":1552313680997,"finger_time":1552313678742,"fix_duration":250,"trial":0,"RT":11,"MT":2255,"sideResp":1,"stimulus":"img/750/equaldotsize/L/10_Ratio_750_L_4_R_3.png","xmouse":[786,786,785,785,786,786,786,786,787,787,787,787,787,787,787,787,787,787,787,787,787,787,787,787,787,787,787,787,787,787,787,787,786,786,786,786,786,786,786,786,785,784,783,783,783,783,783,783,783,783,784,784,785,785,785,786,786,788,789,789,789,791,792,792,792,792,792,792,794,795,795,795,800,801,801,801,800,800,799,799,797,797,795,786,778,767,752,732,690,670,653,635,626,614,609,606,601,588,576,562,550,544,542,542,542,542,542,541,537,535,533,530,527,522],"ymouse":[495,495,498,501,502,502,502,502,502,502,502,502,502,502,502,502,502,502,502,502,502,502,502,502,502,502,502,502,502,502,503,503,503,503,503,503,503,503,503,503,504,505,510,513,517,521,526,531,543,548,551,555,558,558,559,562,565,572,577,579,582,586,590,592,592,592,592,592,589,557,500,487,437,414,398,381,368,357,352,346,341,335,320,290,268,247,219,191,137,113,94,75,63,46,40,37,31,14,3,0,0,0,0,0,0,0,0,0,0,0,0,1,2,4],"timestamp_mouse":[11,26,46,66,86,106,127,146,167,187,207,227,247,267,286,307,326,346,368,387,406,427,446,466,486,506,527,546,566,586,606,627,647,667,686,707,727,746,767,787,807,826,847,866,887,906,926,946,966,986,1006,1028,1047,1066,1087,1107,1126,1147,1166,1187,1206,1228,1246,1267,1287,1307,1328,1347,1366,1386,1406,1427,1446,1466,1487,1506,1526,1546,1566,1587,1607,1627,1647,1667,1686,1707,1727,1747,1766,1786,1806,1827,1847,1866,1886,1907,1926,1947,1966,1986,2006,2027,2047,2066,2086,2106,2127,2146,2166,2187,2207,2227,2247,2266],"xSR":741.5,"ySR":469.95,"xT1":424.9,"yT1":0,"xT2":1058.1,"yT2":0,"toosoon":0,"cond_shown":"equaldotsize","ratio_trial":750,"smaller_num":"3","larger_num":"4","correct_side":1,"subjID":"jorge Alejandro Parra Gomez","gender":"0","age":"10","school":"4","test":{"fix_dur":[250,1500],"timestim":300,"targets_dim":[100,100],"targets_relative_coord":[0.3,0.7],"size_stim":[880,420],"start_dim":[100,100],"size_start":[300,300],"size_fix":60,"samplingrate":20,"img_types":["equaldotsize","equaldotanddens","randomdotsizeEA"],"ratios":[250,500,750,900],"rep_conds":9,"nTrials":120,"trials_to_rest":500,"Trials_order":[78,72,47,98,33,110,114,100,104,60,27,38,54,117,16,99,107,119,6,24,85,48,30,70,84,17,80,118,19,51,7,90,66,86,3,91,94,57,46,14,36,102,112,106,81,111,41,93,71,63,0,10,32,2,18,5,113,74,55,115,56,25,75,13,8,1,105,58,37,82,11,103,35,88,67,15,31,21,73,62,95,42,28,34,61,101,108,44,9,29,89,65,96,68,20,4,76,97,49,12,64,87,59,116,43,52,23,39,26,53,83,69,109,22,45,77,79,50,40,92],"cond_shown":["equaldotsize","equaldotsize","randomdotsizeEA","randomdotsizeEA","equaldotsize","randomdotsizeEA","equaldotsize","equaldotanddens","randomdotsizeEA","equaldotsize","equaldotsize","randomdotsizeEA","equaldotsize","equaldotsize","equaldotanddens","equaldotsize","randomdotsizeEA","randomdotsizeEA","equaldotsize","equaldotsize","equaldotanddens","equaldotsize","equaldotsize","equaldotanddens","equaldotsize","randomdotsizeEA","randomdotsizeEA","equaldotanddens","equaldotanddens","equaldotsize","equaldotanddens","equaldotsize","equaldotsize","randomdotsizeEA","equaldotsize","equaldotanddens","equaldotanddens","equaldotsize","equaldotanddens","randomdotsizeEA","equaldotsize","equaldotsize","equaldotanddens","equaldotanddens","equaldotsize","equaldotsize","randomdotsizeEA","equaldotsize","randomdotsizeEA","equaldotsize","equaldotsize","equaldotanddens","randomdotsizeEA","randomdotsizeEA","equaldotsize","randomdotsizeEA","randomdotsizeEA","randomdotsizeEA","equaldotanddens","equaldotanddens","randomdotsizeEA","equaldotanddens","equaldotsize","equaldotanddens","randomdotsizeEA","equaldotanddens","equaldotsize","equaldotanddens","equaldotanddens","equaldotanddens","randomdotsizeEA","equaldotanddens","randomdotsizeEA","equaldotanddens","equaldotanddens","equaldotsize","equaldotanddens","equaldotsize","equaldotanddens","randomdotsizeEA","randomdotsizeEA","equaldotsize","equaldotanddens","equaldotanddens","equaldotanddens","randomdotsizeEA","equaldotsize","randomdotsizeEA","equaldotsize","randomdotsizeEA","randomdotsizeEA","randomdotsizeEA","equaldotsize","randomdotsizeEA","randomdotsizeEA","equaldotanddens","equaldotanddens","equaldotanddens","equaldotanddens","equaldotsize","equaldotanddens","equaldotsize","randomdotsizeEA","randomdotsizeEA","equaldotanddens","equaldotanddens","randomdotsizeEA","equaldotsize","randomdotsizeEA","randomdotsizeEA","randomdotsizeEA","equaldotsize","equaldotanddens","equaldotanddens","equaldotsize","randomdotsizeEA","equaldotanddens","randomdotsizeEA","equaldotanddens","randomdotsizeEA"],"ratio_trial":[750,250,900,250,900,250,750,500,750,250,500,250,750,900,500,500,900,900,750,250,250,250,750,900,250,500,750,900,750,500,750,750,750,250,500,750,900,900,900,250,250,750,500,900,900,500,500,900,900,500,250,900,750,250,750,500,500,250,750,750,750,250,500,250,750,250,900,900,250,900,900,750,900,500,750,500,750,900,250,250,900,750,500,900,250,500,250,750,900,500,500,500,250,750,750,500,500,250,250,250,500,500,900,750,750,500,900,500,250,500,900,900,250,900,900,500,750,250,500,750],"smaller_num":["3","6","9","2","9","2","6","4","15","6","1","2","6","9","2","1","9","18","6","1","5","2","6","18","5","9","3","9","15","1","3","3","15","2","9","3","18","9","18","3","2","3","5","9","9","5","6","9","18","6","2","18","6","3","15","1","2","3","12","18","6","6","2","3","3","3","9","18","2","9","9","18","18","2","15","2","3","18","3","4","9","15","9","18","3","5","4","9","9","2","2","10","2","15","15","2","6","2","2","2","2","5","18","15","3","2","18","9","3","1","9","18","1","18","18","1","15","3","2","9"],"larger_num":["4","24","10","8","10","8","8","8","20","24","2","8","8","10","4","2","10","20","8","4","20","8","8","20","20","18","4","10","20","2","4","4","20","8","18","4","20","10","20","12","8","4","10","10","10","10","12","10","20","12","8","20","8","12","20","2","4","12","16","24","8","24","4","12","4","12","10","20","8","10","10","24","20","4","20","4","4","20","12","16","10","20","18","20","12","10","16","12","10","4","4","20","8","20","20","4","12","8","8","8","4","10","20","20","4","4","20","18","12","2","10","20","4","20","20","2","20","12","4","12"],"correct_side":[1,2,2,1,2,1,1,1,2,2,2,2,1,2,1,2,2,1,1,2,2,2,1,1,2,2,2,1,1,2,1,1,1,1,1,1,1,1,2,2,1,2,1,2,1,2,1,1,1,1,2,2,1,2,1,2,2,2,2,1,1,1,2,1,1,1,1,2,1,2,2,1,2,2,2,1,2,1,1,2,2,2,2,1,2,2,2,2,2,1,1,2,1,2,1,2,1,2,1,1,1,2,2,2,2,2,2,2,2,2,1,1,2,1,2,2,2,2,2,2],"img_shown":["img/750/equaldotsize/L/10_Ratio_750_L_4_R_3.png","img/250/equaldotsize/R/6_Ratio_250_L_6_R_24.png","img/900/randomdotsizeEA/R/6_Ratio_900_L_9_R_10.png","img/250/randomdotsizeEA/L/7_Ratio_250_L_8_R_2.png","img/900/equaldotsize/R/5_Ratio_900_L_9_R_10.png","img/250/randomdotsizeEA/L/3_Ratio_250_L_8_R_2.png","img/750/equaldotsize/L/14_Ratio_750_L_8_R_6.png","img/500/equaldotanddens/L/8_Ratio_500_L_8_R_4.png","img/750/randomdotsizeEA/R/5_Ratio_750_L_15_R_20.png","img/250/equaldotsize/R/6_Ratio_250_L_6_R_24.png","img/500/equaldotsize/R/15_Ratio_500_L_1_R_2.png","img/250/randomdotsizeEA/R/13_Ratio_250_L_2_R_8.png","img/750/equaldotsize/L/13_Ratio_750_L_8_R_6.png","img/900/equaldotsize/R/7_Ratio_900_L_9_R_10.png","img/500/equaldotanddens/L/10_Ratio_500_L_4_R_2.png","img/500/equaldotsize/R/12_Ratio_500_L_1_R_2.png","img/900/randomdotsizeEA/R/3_Ratio_900_L_9_R_10.png","img/900/randomdotsizeEA/L/10_Ratio_900_L_20_R_18.png","img/750/equaldotsize/L/13_Ratio_750_L_8_R_6.png","img/250/equaldotsize/R/8_Ratio_250_L_1_R_4.png","img/250/equaldotanddens/R/12_Ratio_250_L_5_R_20.png","img/250/equaldotsize/R/13_Ratio_250_L_2_R_8.png","img/750/equaldotsize/L/13_Ratio_750_L_8_R_6.png","img/900/equaldotanddens/L/10_Ratio_900_L_20_R_18.png","img/250/equaldotsize/R/12_Ratio_250_L_5_R_20.png","img/500/randomdotsizeEA/R/1_Ratio_500_L_9_R_18.png","img/750/randomdotsizeEA/R/7_Ratio_750_L_3_R_4.png","img/900/equaldotanddens/L/1_Ratio_900_L_10_R_9.png","img/750/equaldotanddens/L/1_Ratio_750_L_20_R_15.png","img/500/equaldotsize/R/15_Ratio_500_L_1_R_2.png","img/750/equaldotanddens/L/8_Ratio_750_L_4_R_3.png","img/750/equaldotsize/L/10_Ratio_750_L_4_R_3.png","img/750/equaldotsize/L/1_Ratio_750_L_20_R_15.png","img/250/randomdotsizeEA/L/1_Ratio_250_L_8_R_2.png","img/500/equaldotsize/L/4_Ratio_500_L_18_R_9.png","img/750/equaldotanddens/L/8_Ratio_750_L_4_R_3.png","img/900/equaldotanddens/L/2_Ratio_900_L_20_R_18.png","img/900/equaldotsize/L/1_Ratio_900_L_10_R_9.png","img/900/equaldotanddens/R/11_Ratio_900_L_18_R_20.png","img/250/randomdotsizeEA/R/4_Ratio_250_L_3_R_12.png","img/250/equaldotsize/L/3_Ratio_250_L_8_R_2.png","img/750/equaldotsize/R/12_Ratio_750_L_3_R_4.png","img/500/equaldotanddens/L/7_Ratio_500_L_10_R_5.png","img/900/equaldotanddens/R/6_Ratio_900_L_9_R_10.png","img/900/equaldotsize/L/1_Ratio_900_L_10_R_9.png","img/500/equaldotsize/R/14_Ratio_500_L_5_R_10.png","img/500/randomdotsizeEA/L/13_Ratio_500_L_12_R_6.png","img/900/equaldotsize/L/1_Ratio_900_L_10_R_9.png","img/900/randomdotsizeEA/L/4_Ratio_900_L_20_R_18.png","img/500/equaldotsize/L/11_Ratio_500_L_12_R_6.png","img/250/equaldotsize/R/13_Ratio_250_L_2_R_8.png","img/900/equaldotanddens/R/13_Ratio_900_L_18_R_20.png","img/750/randomdotsizeEA/L/13_Ratio_750_L_8_R_6.png","img/250/randomdotsizeEA/R/4_Ratio_250_L_3_R_12.png","img/750/equaldotsize/L/1_Ratio_750_L_20_R_15.png","img/500/randomdotsizeEA/R/15_Ratio_500_L_1_R_2.png","img/500/randomdotsizeEA/R/9_Ratio_500_L_2_R_4.png","img/250/randomdotsizeEA/R/9_Ratio_250_L_3_R_12.png","img/750/equaldotanddens/R/11_Ratio_750_L_12_R_16.png","img/750/equaldotanddens/L/6_Ratio_750_L_24_R_18.png","img/750/randomdotsizeEA/L/13_Ratio_750_L_8_R_6.png","img/250/equaldotanddens/L/5_Ratio_250_L_24_R_6.png","img/500/equaldotsize/R/9_Ratio_500_L_2_R_4.png","img/250/equaldotanddens/L/14_Ratio_250_L_12_R_3.png","img/750/randomdotsizeEA/L/8_Ratio_750_L_4_R_3.png","img/250/equaldotanddens/L/14_Ratio_250_L_12_R_3.png","img/900/equaldotsize/L/1_Ratio_900_L_10_R_9.png","img/900/equaldotanddens/R/13_Ratio_900_L_18_R_20.png","img/250/equaldotanddens/L/1_Ratio_250_L_8_R_2.png","img/900/equaldotanddens/R/5_Ratio_900_L_9_R_10.png","img/900/randomdotsizeEA/R/15_Ratio_900_L_9_R_10.png","img/750/equaldotanddens/L/6_Ratio_750_L_24_R_18.png","img/900/randomdotsizeEA/R/11_Ratio_900_L_18_R_20.png","img/500/equaldotanddens/R/9_Ratio_500_L_2_R_4.png","img/750/equaldotanddens/R/3_Ratio_750_L_15_R_20.png","img/500/equaldotsize/L/5_Ratio_500_L_4_R_2.png","img/750/equaldotanddens/R/12_Ratio_750_L_3_R_4.png","img/900/equaldotsize/L/4_Ratio_900_L_20_R_18.png","img/250/equaldotanddens/L/14_Ratio_250_L_12_R_3.png","img/250/randomdotsizeEA/R/10_Ratio_250_L_4_R_16.png","img/900/randomdotsizeEA/R/7_Ratio_900_L_9_R_10.png","img/750/equaldotsize/R/4_Ratio_750_L_15_R_20.png","img/500/equaldotanddens/R/1_Ratio_500_L_9_R_18.png","img/900/equaldotanddens/L/8_Ratio_900_L_20_R_18.png","img/250/equaldotanddens/R/4_Ratio_250_L_3_R_12.png","img/500/randomdotsizeEA/R/14_Ratio_500_L_5_R_10.png","img/250/equaldotsize/R/10_Ratio_250_L_4_R_16.png","img/750/randomdotsizeEA/R/15_Ratio_750_L_9_R_12.png","img/900/equaldotsize/R/7_Ratio_900_L_9_R_10.png","img/500/randomdotsizeEA/L/5_Ratio_500_L_4_R_2.png","img/500/randomdotsizeEA/L/10_Ratio_500_L_4_R_2.png","img/500/randomdotsizeEA/R/3_Ratio_500_L_10_R_20.png","img/250/equaldotsize/L/7_Ratio_250_L_8_R_2.png","img/750/randomdotsizeEA/R/5_Ratio_750_L_15_R_20.png","img/750/randomdotsizeEA/L/1_Ratio_750_L_20_R_15.png","img/500/equaldotanddens/R/9_Ratio_500_L_2_R_4.png","img/500/equaldotanddens/L/13_Ratio_500_L_12_R_6.png","img/250/equaldotanddens/R/13_Ratio_250_L_2_R_8.png","img/250/equaldotanddens/L/7_Ratio_250_L_8_R_2.png","img/250/equaldotsize/L/7_Ratio_250_L_8_R_2.png","img/500/equaldotanddens/L/5_Ratio_500_L_4_R_2.png","img/500/equaldotsize/R/14_Ratio_500_L_5_R_10.png","img/900/randomdotsizeEA/R/14_Ratio_900_L_18_R_20.png","img/750/randomdotsizeEA/R/5_Ratio_750_L_15_R_20.png","img/750/equaldotanddens/R/7_Ratio_750_L_3_R_4.png","img/500/equaldotanddens/R/9_Ratio_500_L_2_R_4.png","img/900/randomdotsizeEA/R/14_Ratio_900_L_18_R_20.png","img/500/equaldotsize/R/6_Ratio_500_L_9_R_18.png","img/250/randomdotsizeEA/R/11_Ratio_250_L_3_R_12.png","img/500/randomdotsizeEA/R/15_Ratio_500_L_1_R_2.png","img/900/randomdotsizeEA/L/1_Ratio_900_L_10_R_9.png","img/900/equaldotsize/L/2_Ratio_900_L_20_R_18.png","img/250/equaldotanddens/R/8_Ratio_250_L_1_R_4.png","img/900/equaldotanddens/L/4_Ratio_900_L_20_R_18.png","img/900/equaldotsize/R/9_Ratio_900_L_18_R_20.png","img/500/randomdotsizeEA/R/12_Ratio_500_L_1_R_2.png","img/750/equaldotanddens/R/4_Ratio_750_L_15_R_20.png","img/250/randomdotsizeEA/R/9_Ratio_250_L_3_R_12.png","img/500/equaldotanddens/R/9_Ratio_500_L_2_R_4.png","img/750/randomdotsizeEA/R/15_Ratio_750_L_9_R_12.png"],"Rat0":[["12_Ratio_0_L_9_R_0.png","13_Ratio_0_L_6_R_0.png","5_Ratio_0_L_2_R_0.png","6_Ratio_0_L_4_R_0.png","8_Ratio_0_L_6_R_0.png"],["1_Ratio_0_L_0_R_17.png","10_Ratio_0_L_0_R_22.png","11_Ratio_0_L_0_R_1.png","14_Ratio_0_L_0_R_24.png","15_Ratio_0_L_0_R_4.png","2_Ratio_0_L_0_R_5.png","3_Ratio_0_L_0_R_17.png","4_Ratio_0_L_0_R_7.png","7_Ratio_0_L_0_R_19.png","9_Ratio_0_L_0_R_15.png"]],"Rat250":[["1_Ratio_250_L_8_R_2.png","14_Ratio_250_L_12_R_3.png","15_Ratio_250_L_12_R_3.png","2_Ratio_250_L_16_R_4.png","3_Ratio_250_L_8_R_2.png","5_Ratio_250_L_24_R_6.png","7_Ratio_250_L_8_R_2.png"],["10_Ratio_250_L_4_R_16.png","11_Ratio_250_L_3_R_12.png","12_Ratio_250_L_5_R_20.png","13_Ratio_250_L_2_R_8.png","4_Ratio_250_L_3_R_12.png","6_Ratio_250_L_6_R_24.png","8_Ratio_250_L_1_R_4.png","9_Ratio_250_L_3_R_12.png"]],"Rat500":[["10_Ratio_500_L_4_R_2.png","11_Ratio_500_L_12_R_6.png","13_Ratio_500_L_12_R_6.png","4_Ratio_500_L_18_R_9.png","5_Ratio_500_L_4_R_2.png","7_Ratio_500_L_10_R_5.png","8_Ratio_500_L_8_R_4.png"],["1_Ratio_500_L_9_R_18.png","12_Ratio_500_L_1_R_2.png","14_Ratio_500_L_5_R_10.png","15_Ratio_500_L_1_R_2.png","2_Ratio_500_L_3_R_6.png","3_Ratio_500_L_10_R_20.png","6_Ratio_500_L_9_R_18.png","9_Ratio_500_L_2_R_4.png"]],"Rat750":[["1_Ratio_750_L_20_R_15.png","10_Ratio_750_L_4_R_3.png","13_Ratio_750_L_8_R_6.png","14_Ratio_750_L_8_R_6.png","6_Ratio_750_L_24_R_18.png","8_Ratio_750_L_4_R_3.png","9_Ratio_750_L_4_R_3.png"],["11_Ratio_750_L_12_R_16.png","12_Ratio_750_L_3_R_4.png","15_Ratio_750_L_9_R_12.png","2_Ratio_750_L_6_R_8.png","3_Ratio_750_L_15_R_20.png","4_Ratio_750_L_15_R_20.png","5_Ratio_750_L_15_R_20.png","7_Ratio_750_L_3_R_4.png"]],"Rat900":[["1_Ratio_900_L_10_R_9.png","10_Ratio_900_L_20_R_18.png","2_Ratio_900_L_20_R_18.png","4_Ratio_900_L_20_R_18.png","8_Ratio_900_L_20_R_18.png"],["11_Ratio_900_L_18_R_20.png","12_Ratio_900_L_18_R_20.png","13_Ratio_900_L_18_R_20.png","14_Ratio_900_L_18_R_20.png","15_Ratio_900_L_9_R_10.png","3_Ratio_900_L_9_R_10.png","5_Ratio_900_L_9_R_10.png","6_Ratio_900_L_9_R_10.png","7_Ratio_900_L_9_R_10.png","9_Ratio_900_L_18_R_20.png"]],"Rat1000":[["10_Ratio_1000_L_16_R_16.png","11_Ratio_1000_L_6_R_6.png","12_Ratio_1000_L_14_R_14.png","13_Ratio_1000_L_20_R_20.png","15_Ratio_1000_L_15_R_15.png","2_Ratio_1000_L_17_R_17.png","4_Ratio_1000_L_9_R_9.png","5_Ratio_1000_L_6_R_6.png","6_Ratio_1000_L_19_R_19.png","8_Ratio_1000_L_14_R_14.png","9_Ratio_1000_L_25_R_25.png"],["1_Ratio_1000_L_1_R_1.png","14_Ratio_1000_L_17_R_17.png","3_Ratio_1000_L_17_R_17.png","7_Ratio_1000_L_6_R_6.png"]]}},{"start_time":1552313683114,"click_time":1552313684558,"finger_time":1552313683958,"fix_duration":332.6748124581794,"trial":1,"RT":844,"MT":600,"sideResp":2,"stimulus":"img/250/equaldotsize/R/6_Ratio_250_L_6_R_24.png","xmouse":[753,753,753,753,753,753,753,753,753,753,753,753,753,753,753,753,753,753,753,753,753,753,753,753,753,753,753,753,753,753,753,753,753,753,757,762,770,779,790,808,817,830,855,871,904,922,942,966,987,1034,1061,1069,1091,1103,1130,1137,1146,1156,1164,1190,1192,1194,1194,1194,1194,1194,1192,1190,1187,1177,1168,1162,1155],"ymouse":[630,630,630,630,630,630,630,630,630,630,630,630,630,630,630,630,630,630,630,630,630,630,630,630,630,630,630,630,630,630,630,630,630,630,630,627,623,618,611,601,595,586,570,558,529,514,496,472,450,388,353,344,313,291,251,235,216,191,161,98,90,74,66,66,65,65,64,64,63,63,63,63,63],"timestamp_mouse":[13,32,44,64,84,104,124,144,164,184,204,224,244,263,283,304,324,343,363,384,403,423,444,464,484,503,523,543,563,583,603,623,644,664,684,703,723,743,763,783,804,824,844,863,883,904,923,943,963,983,1003,1023,1044,1063,1084,1103,1123,1143,1163,1183,1203,1223,1244,1264,1284,1303,1324,1343,1363,1383,1403,1423,1444],"xSR":741.5,"ySR":573.95,"xT1":424.9,"yT1":0,"xT2":1058.1,"yT2":0,"toosoon":0,"cond_shown":"equaldotsize","ratio_trial":250,"smaller_num":"6","larger_num":"24","correct_side":2,"subjID":"jorge Alejandro Parra Gomez","gender":"0","age":"10","school":"4"},{"start_time":1552313704491,"click_time":1552313707078,"finger_time":1552313705277,"fix_duration":1231.8245131173971,"trial":2,"RT":786,"MT":1801,"sideResp":1,"stimulus":"img/900/randomdotsizeEA/R/6_Ratio_900_L_9_R_10.png","xmouse":[808,808,808,808,808,808,808,808,808,808,808,808,808,808,808,808,808,808,808,808,808,808,808,808,808,808,808,808,808,808,808,808,808,808,808,808,805,802,799,797,796,795,795,795,795,795,795,795,795,795,795,795,795,795,795,795,795,795,795,793,789,787,787,788,791,795,799,806,813,819,822,822,822,822,823,824,826,835,838,843,851,884,934,949,965,974,977,979,979,979,979,979,979,973,961,944,921,872,848,817,790,765,744,718,715,711,708,702,699,698,697,692,670,662,654,646,634,611,599,592,589,587,581,577,572,567,560,550,526,510],"ymouse":[618,618,618,618,618,618,618,618,618,618,618,618,618,618,618,618,618,618,618,618,618,618,618,618,618,618,618,618,618,618,618,618,618,618,618,618,605,590,576,562,552,546,544,544,544,544,544,544,544,544,543,543,529,516,507,500,492,480,465,445,425,410,394,389,380,373,365,349,336,326,322,322,322,322,320,320,319,311,309,305,296,264,227,213,198,184,175,169,168,168,168,168,168,164,158,146,132,109,99,89,82,74,72,70,70,72,73,75,75,75,75,75,66,63,60,58,54,47,42,37,36,35,33,31,29,27,25,22,17,17],"timestamp_mouse":[15,26,46,67,86,106,127,146,168,186,206,226,247,266,286,307,327,346,366,386,407,427,446,467,487,507,527,546,567,587,607,628,646,666,687,706,726,746,766,786,806,826,846,868,887,906,927,947,967,986,1006,1027,1046,1066,1087,1106,1126,1146,1166,1187,1206,1226,1246,1266,1286,1306,1327,1347,1366,1386,1406,1427,1446,1466,1486,1507,1526,1546,1566,1586,1606,1626,1646,1666,1687,1706,1726,1747,1766,1787,1807,1828,1846,1866,1886,1906,1926,1947,1966,1986,2007,2026,2046,2066,2087,2106,2126,2146,2166,2186,2206,2228,2247,2266,2286,2307,2326,2348,2366,2386,2406,2427,2447,2466,2486,2506,2526,2546,2567,2587],"xSR":741.5,"ySR":573.95,"xT1":424.9,"yT1":0,"xT2":1058.1,"yT2":0,"toosoon":0,"cond_shown":"randomdotsizeEA","ratio_trial":900,"smaller_num":"9","larger_num":"10","correct_side":2,"subjID":"jorge Alejandro Parra Gomez","gender":"0","age":"10","school":"4"},{"start_time":1552313752445,"click_time":1552313753458,"finger_time":1552313753257,"fix_duration":746.584579528431,"trial":3,"RT":812,"MT":201,"sideResp":1,"stimulus":"img/250/randomdotsizeEA/L/7_Ratio_250_L_8_R_2.png","xmouse":[782,782,782,782,782,782,782,782,782,782,782,782,782,782,782,782,782,782,782,782,782,782,782,782,782,782,782,782,782,780,777,775,773,770,769,769,769,769,769,769,771,772,772,765,751,707,684,664,631,595,520],"ymouse":[611,611,611,611,611,611,611,611,611,611,611,611,611,611,611,611,611,611,611,611,611,611,611,611,611,611,611,611,611,609,601,596,591,588,586,586,586,586,585,583,564,559,522,487,448,360,318,276,221,164,59],"timestamp_mouse":[13,33,53,73,92,113,134,152,172,193,212,232,252,273,293,312,333,353,373,393,413,432,452,473,492,512,533,553,572,593,613,633,652,673,692,714,733,752,772,793,812,832,852,872,892,912,932,952,973,993,1013],"xSR":741.5,"ySR":573.95,"xT1":424.9,"yT1":0,"xT2":1058.1,"yT2":0,"toosoon":0,"cond_shown":"randomdotsizeEA","ratio_trial":250,"smaller_num":"2","larger_num":"8","correct_side":1,"subjID":"jorge Alejandro Parra Gomez","gender":"0","age":"10","school":"4"},{"start_time":1552313755508,"click_time":1552313757597,"finger_time":1552313756377,"fix_duration":250,"trial":4,"RT":869,"MT":1220,"sideResp":1,"stimulus":"img/900/equaldotsize/R/5_Ratio_900_L_9_R_10.png","xmouse":[771,771,771,771,771,771,771,771,771,771,771,771,771,771,771,771,771,771,771,771,771,771,771,771,771,771,771,771,771,771,771,771,771,771,771,771,771,771,773,774,775,776,778,784,790,796,803,819,822,826,829,832,842,847,854,862,872,892,904,910,915,920,926,929,931,932,932,932,932,932,931,929,911,900,889,878,853,805,784,766,756,751,747,744,740,733,728,707,695,680,659,639,599,585,572,561,555,555,555,553,549,542,536,527,524],"ymouse":[600,600,600,600,600,600,600,600,600,600,600,600,600,600,600,600,600,600,600,600,600,600,600,600,600,600,600,600,600,600,600,600,600,600,600,600,600,599,596,590,586,582,576,564,553,540,527,498,492,485,480,475,461,453,443,430,416,383,360,348,338,326,302,289,277,268,262,259,259,259,259,261,270,271,271,270,262,247,243,236,233,229,227,224,220,215,210,196,187,176,163,151,132,126,122,120,119,119,119,116,112,106,101,91,88],"timestamp_mouse":[10,36,51,70,89,110,129,149,169,189,209,230,249,270,289,309,330,349,370,389,410,430,449,470,489,510,530,549,569,590,609,630,649,669,691,710,729,749,769,789,810,829,849,869,889,909,929,949,969,989,1010,1030,1049,1069,1089,1109,1129,1149,1169,1190,1209,1229,1249,1269,1289,1309,1329,1349,1370,1389,1409,1429,1449,1469,1489,1509,1529,1550,1569,1589,1609,1629,1649,1669,1689,1709,1730,1749,1769,1790,1810,1829,1849,1869,1889,1909,1930,1949,1970,1989,2009,2029,2049,2069,2089],"xSR":741.5,"ySR":573.95,"xT1":424.9,"yT1":0,"xT2":1058.1,"yT2":0,"toosoon":0,"cond_shown":"equaldotsize","ratio_trial":900,"smaller_num":"9","larger_num":"10","correct_side":2,"subjID":"jorge Alejandro Parra Gomez","gender":"0","age":"10","school":"4"},{"start_time":1552313760808,"click_time":1552313762438,"finger_time":1552313761697,"fix_duration":1488.114357788636,"trial":5,"RT":889,"MT":741,"sideResp":1,"stimulus":"img/250/randomdotsizeEA/L/3_Ratio_250_L_8_R_2.png","xmouse":[755,755,755,755,755,755,755,755,755,755,755,755,755,755,755,755,755,755,755,755,755,755,755,755,755,755,755,755,755,755,755,755,755,755,755,755,755,755,755,755,755,755,755,755,756,753,747,744,736,730,724,715,708,697,691,687,682,676,667,662,658,652,646,627,618,612,604,596,573,571,563,557,554,549,545,538,533,531,528,527,525,521],"ymouse":[604,604,604,604,604,604,604,604,604,604,604,604,604,604,604,604,604,604,604,604,604,604,604,604,604,604,604,604,604,604,604,604,604,604,604,604,604,604,604,604,604,604,604,604,567,545,524,505,472,454,432,404,389,363,349,336,322,304,286,275,265,252,240,213,202,195,187,176,151,149,141,134,130,124,119,112,106,102,95,92,83,77],"timestamp_mouse":[10,37,50,70,89,109,130,150,169,189,209,229,250,269,289,310,330,349,369,389,409,430,450,470,489,510,530,549,569,590,610,630,649,670,690,710,729,750,770,790,811,830,850,869,889,910,929,950,970,990,1009,1029,1049,1069,1089,1109,1129,1149,1169,1189,1209,1230,1249,1269,1289,1309,1329,1349,1369,1390,1409,1429,1450,1469,1489,1509,1529,1550,1569,1589,1610,1629],"xSR":741.5,"ySR":573.95,"xT1":424.9,"yT1":0,"xT2":1058.1,"yT2":0,"toosoon":0,"cond_shown":"randomdotsizeEA","ratio_trial":250,"smaller_num":"2","larger_num":"8","correct_side":1,"subjID":"jorge Alejandro Parra Gomez","gender":"0","age":"10","school":"4"},{"start_time":1552313767160,"click_time":1552313768276,"finger_time":1552313767958,"fix_duration":701.6604491995946,"trial":6,"RT":798,"MT":318,"sideResp":1,"stimulus":"img/750/equaldotsize/L/14_Ratio_750_L_8_R_6.png","xmouse":[797,797,797,797,797,797,797,797,797,797,797,797,797,797,797,797,797,797,797,797,797,797,797,797,797,797,797,797,797,797,797,797,797,797,797,797,801,806,814,823,845,848,851,851,851,840,834,824,797,784,668,619,579,549,532,524],"ymouse":[632,632,632,632,632,632,632,632,632,632,632,632,632,632,632,632,632,632,632,632,632,632,632,632,632,632,632,632,632,632,632,632,632,632,632,631,629,624,578,515,409,382,355,328,302,265,248,230,193,180,97,77,60,47,40,36],"timestamp_mouse":[17,36,56,78,97,117,137,157,176,198,217,237,256,278,297,317,337,356,377,397,416,436,457,476,496,517,537,557,578,598,617,636,656,677,698,717,736,757,777,798,817,837,856,876,896,917,936,958,976,997,1017,1036,1056,1076,1096,1116],"xSR":741.5,"ySR":573.95,"xT1":424.9,"yT1":0,"xT2":1058.1,"yT2":0,"toosoon":0,"cond_shown":"equaldotsize","ratio_trial":750,"smaller_num":"6","larger_num":"8","correct_side":1,"subjID":"jorge Alejandro Parra Gomez","gender":"0","age":"10","school":"4"},{"start_time":1552313795906,"click_time":1552313797478,"finger_time":1552313796696,"fix_duration":968.3177206748178,"trial":7,"RT":790,"MT":782,"sideResp":1,"stimulus":"img/500/equaldotanddens/L/8_Ratio_500_L_8_R_4.png","xmouse":[794,794,794,794,794,794,794,794,794,794,794,794,794,794,794,794,794,794,794,794,794,794,794,794,794,794,794,794,794,794,794,794,794,794,794,794,794,794,795,790,767,741,696,685,677,672,665,650,644,631,617,604,577,565,558,552,546,534,530,530,530,530,530,530,528,527,526,524,523,520,520,519,519,519,519,519,519,515,513],"ymouse":[619,619,619,619,619,619,619,619,619,619,619,619,619,619,619,619,619,619,619,619,619,619,619,619,619,619,619,619,619,619,619,619,619,619,619,619,619,619,619,567,510,467,404,389,377,368,355,323,309,286,261,237,190,179,173,168,165,158,155,155,155,155,153,149,145,141,139,133,128,125,122,120,119,119,118,116,111,100,98],"timestamp_mouse":[14,34,50,70,91,110,130,151,170,190,211,230,251,271,291,312,330,350,370,391,412,432,451,471,490,510,531,550,570,591,610,631,651,672,691,711,730,750,771,790,810,831,850,870,890,910,931,950,970,990,1011,1030,1050,1072,1090,1110,1130,1150,1171,1191,1211,1230,1250,1270,1291,1310,1330,1350,1370,1390,1411,1432,1450,1470,1491,1510,1531,1550,1571],"xSR":741.5,"ySR":573.95,"xT1":424.9,"yT1":0,"xT2":1058.1,"yT2":0,"toosoon":0,"cond_shown":"equaldotanddens","ratio_trial":500,"smaller_num":"4","larger_num":"8","correct_side":1,"subjID":"jorge Alejandro Parra Gomez","gender":"0","age":"10","school":"4"},{"start_time":1552313803360,"click_time":1552313804697,"finger_time":1552313804116,"fix_duration":1303.107449485819,"trial":8,"RT":756,"MT":581,"sideResp":2,"stimulus":"img/750/randomdotsizeEA/R/5_Ratio_750_L_15_R_20.png","xmouse":[764,764,764,764,764,764,764,764,764,764,764,764,764,764,764,764,764,764,764,764,764,764,764,764,764,764,764,764,764,764,764,764,764,764,770,776,782,791,800,808,825,832,846,857,866,880,884,889,892,893,900,921,933,976,996,1011,1014,1025,1040,1058,1082,1083,1083,1083,1084,1083,1079],"ymouse":[631,631,631,631,631,631,631,631,631,631,631,631,631,631,631,631,631,631,631,631,631,631,631,631,631,631,631,631,631,631,631,631,631,631,616,601,587,570,552,535,494,464,417,326,261,162,133,108,91,79,70,66,66,78,82,91,93,96,100,103,109,109,109,109,109,100,93],"timestamp_mouse":[17,37,58,76,96,116,136,158,176,198,218,237,257,278,297,318,336,357,376,398,418,436,457,477,497,516,537,556,578,596,617,636,657,676,697,717,737,756,777,798,816,837,856,877,896,917,936,956,976,997,1016,1038,1057,1076,1096,1116,1136,1156,1176,1197,1216,1236,1256,1276,1297,1318,1337],"xSR":741.5,"ySR":573.95,"xT1":424.9,"yT1":0,"xT2":1058.1,"yT2":0,"toosoon":0,"cond_shown":"randomdotsizeEA","ratio_trial":750,"smaller_num":"15","larger_num":"20","correct_side":2,"subjID":"jorge Alejandro Parra Gomez","gender":"0","age":"10","school":"4"},{"start_time":1552313807751,"click_time":1552313808897,"finger_time":1552313808376,"fix_duration":791.5926652939079,"trial":9,"RT":625,"MT":521,"sideResp":2,"stimulus":"img/250/equaldotsize/R/6_Ratio_250_L_6_R_24.png","xmouse":[804,804,804,804,804,804,804,804,804,804,804,804,804,804,804,804,804,804,804,804,804,804,804,804,804,804,804,804,804,804,804,848,874,901,927,943,956,972,975,976,976,976,978,983,986,988,993,999,1000,1004,1007,1021,1027,1033,1035,1041,1048,1064],"ymouse":[622,622,622,622,622,622,622,622,622,622,622,622,622,622,622,622,622,622,622,622,622,622,622,622,622,622,622,622,618,609,579,389,302,218,151,99,67,33,29,28,28,28,25,18,14,12,8,6,4,4,4,4,6,8,10,13,17,29],"timestamp_mouse":[12,35,46,66,85,105,125,145,165,186,205,225,245,266,287,306,327,346,366,386,407,427,446,466,487,507,525,545,566,585,607,625,645,665,685,705,725,745,766,785,806,826,846,865,886,905,925,945,965,985,1007,1025,1046,1066,1085,1105,1125,1145],"xSR":741.5,"ySR":573.95,"xT1":424.9,"yT1":0,"xT2":1058.1,"yT2":0,"toosoon":0,"cond_shown":"equaldotsize","ratio_trial":250,"smaller_num":"6","larger_num":"24","correct_side":2,"subjID":"jorge Alejandro Parra Gomez","gender":"0","age":"10","school":"4"},{"start_time":1552313810822,"click_time":1552313811978,"finger_time":1552313811477,"fix_duration":1265.5084151024757,"trial":10,"RT":655,"MT":501,"sideResp":2,"stimulus":"img/500/equaldotsize/R/15_Ratio_500_L_1_R_2.png","xmouse":[771,771,771,771,771,771,771,771,771,771,771,771,771,771,771,771,771,771,771,771,771,771,771,771,771,771,771,771,771,768,767,767,767,767,769,772,782,794,831,865,894,925,949,987,1008,1028,1047,1057,1059,1062,1063,1065,1065,1067,1069,1069,1071,1072],"ymouse":[628,628,628,628,628,628,628,628,628,628,628,628,628,628,628,628,628,628,628,628,628,628,628,628,628,628,628,628,628,605,592,580,562,557,551,545,524,506,457,417,378,336,294,225,198,178,159,140,132,127,122,120,120,115,110,109,104,93],"timestamp_mouse":[20,35,55,74,96,116,134,155,176,195,215,234,255,275,295,314,335,355,374,394,414,435,454,474,494,515,535,554,575,594,614,634,655,674,695,714,734,755,774,794,815,834,854,874,894,914,935,956,974,994,1014,1035,1054,1074,1094,1114,1135,1156],"xSR":741.5,"ySR":573.95,"xT1":424.9,"yT1":0,"xT2":1058.1,"yT2":0,"toosoon":0,"cond_shown":"equaldotsize","ratio_trial":500,"smaller_num":"1","larger_num":"2","correct_side":2,"subjID":"jorge Alejandro Parra Gomez","gender":"0","age":"10","school":"4"},{"start_time":1552313813492,"click_time":1552313814296,"finger_time":1552313814136,"fix_duration":513.704543452871,"trial":11,"RT":644,"MT":160,"sideResp":2,"stimulus":"img/250/randomdotsizeEA/R/13_Ratio_250_L_2_R_8.png","xmouse":[798,798,798,798,798,798,798,798,798,798,798,798,798,798,798,798,798,798,798,798,798,798,798,798,798,798,798,798,798,798,798,800,831,882,937,1016,1035,1047,1054,1059,1065],"ymouse":[616,616,616,616,616,616,616,616,616,616,616,616,616,616,616,616,616,616,616,616,616,616,616,616,616,616,616,616,616,616,616,597,544,480,411,280,227,181,145,101,43],"timestamp_mouse":[12,31,45,64,85,105,124,144,164,185,204,225,245,264,285,304,324,344,365,385,404,424,444,464,485,504,524,544,565,585,604,624,644,665,684,704,724,744,764,784,804],"xSR":741.5,"ySR":573.95,"xT1":424.9,"yT1":0,"xT2":1058.1,"yT2":0,"toosoon":0,"cond_shown":"randomdotsizeEA","ratio_trial":250,"smaller_num":"2","larger_num":"8","correct_side":2,"subjID":"jorge Alejandro Parra Gomez","gender":"0","age":"10","school":"4"},{"start_time":1552313817475,"click_time":1552313818877,"finger_time":1552313818216,"fix_duration":716.0060073946285,"trial":12,"RT":741,"MT":661,"sideResp":1,"stimulus":"img/750/equaldotsize/L/13_Ratio_750_L_8_R_6.png","xmouse":[802,802,802,802,802,802,802,802,802,802,802,802,802,801,801,801,801,801,801,801,801,801,801,801,801,801,801,801,801,801,801,801,801,801,801,801,801,801,801,801,801,798,795,784,770,752,657,577,504,490,488,483,483,483,484,484,484,482,480,479,479,479,478,478,477,475,471,470,468,468,468],"ymouse":[613,613,613,613,613,613,613,613,613,613,613,613,613,614,614,614,614,614,614,614,614,614,614,614,614,614,614,614,614,614,614,614,614,614,614,603,583,571,557,548,541,534,534,530,525,516,461,416,371,342,333,296,282,271,259,246,223,212,201,190,183,175,173,168,160,148,123,113,104,100,98],"timestamp_mouse":[10,21,42,62,83,102,122,142,161,182,202,221,241,262,282,301,321,343,362,381,401,421,443,462,481,501,521,541,562,583,603,621,642,661,683,701,721,741,761,781,801,821,843,861,882,901,921,941,963,981,1001,1021,1041,1061,1081,1101,1121,1141,1161,1181,1202,1222,1241,1261,1282,1301,1322,1341,1362,1381,1402],"xSR":741.5,"ySR":573.95,"xT1":424.9,"yT1":0,"xT2":1058.1,"yT2":0,"toosoon":0,"cond_shown":"equaldotsize","ratio_trial":750,"smaller_num":"6","larger_num":"8","correct_side":1,"subjID":"jorge Alejandro Parra Gomez","gender":"0","age":"10","school":"4"},{"start_time":1552313820554,"click_time":1552313821637,"finger_time":1552313821098,"fix_duration":695.9656372767847,"trial":13,"RT":544,"MT":539,"sideResp":2,"stimulus":"img/900/equaldotsize/R/7_Ratio_900_L_9_R_10.png","xmouse":[794,794,794,794,794,794,794,794,794,794,794,794,794,794,794,794,794,794,794,794,794,794,794,794,794,794,795,807,819,836,857,876,914,933,957,988,1001,1038,1068,1077,1083,1089,1092,1094,1094,1094,1095,1095,1095,1095,1095,1095,1095,1095,1095],"ymouse":[592,592,592,592,592,592,592,592,592,592,592,592,592,592,592,592,592,592,592,592,592,592,592,592,592,592,592,567,544,518,489,459,398,363,324,275,255,209,172,157,145,136,131,128,127,127,125,125,124,123,120,118,115,104,98],"timestamp_mouse":[12,23,42,62,83,103,123,144,164,183,203,223,244,262,283,302,323,343,363,382,404,422,443,462,483,502,523,544,563,582,603,622,643,662,683,702,722,742,762,783,802,822,842,862,884,902,922,943,962,982,1002,1022,1042,1063,1083],"xSR":741.5,"ySR":573.95,"xT1":424.9,"yT1":0,"xT2":1058.1,"yT2":0,"toosoon":0,"cond_shown":"equaldotsize","ratio_trial":900,"smaller_num":"9","larger_num":"10","correct_side":2,"subjID":"jorge Alejandro Parra Gomez","gender":"0","age":"10","school":"4"},{"start_time":1552313822988,"click_time":1552313823797,"finger_time":1552313823336,"fix_duration":250,"trial":14,"RT":348,"MT":461,"sideResp":1,"stimulus":"img/500/equaldotanddens/L/10_Ratio_500_L_4_R_2.png","xmouse":[820,820,820,820,820,820,820,820,820,819,818,812,809,802,799,794,780,773,768,766,763,758,756,755,754,752,745,740,734,727,719,695,680,656,639,624,590,569,548,529,515],"ymouse":[648,648,648,648,648,648,648,648,648,646,644,633,628,617,611,602,578,569,561,555,551,544,541,538,534,530,517,507,493,478,461,419,396,356,323,290,229,194,157,118,86],"timestamp_mouse":[12,36,50,69,90,108,128,149,170,189,209,228,248,268,290,308,328,348,368,388,409,428,449,468,488,509,530,548,570,588,608,628,649,668,688,708,728,749,768,788,809],"xSR":741.5,"ySR":573.95,"xT1":424.9,"yT1":0,"xT2":1058.1,"yT2":0,"toosoon":0,"cond_shown":"equaldotanddens","ratio_trial":500,"smaller_num":"2","larger_num":"4","correct_side":1,"subjID":"jorge Alejandro Parra Gomez","gender":"0","age":"10","school":"4"},{"start_time":1552313828662,"click_time":1552313829936,"finger_time":1552313829316,"fix_duration":943.2755604784571,"trial":15,"RT":654,"MT":620,"sideResp":2,"stimulus":"img/500/equaldotsize/R/12_Ratio_500_L_1_R_2.png","xmouse":[816,816,816,816,816,816,816,816,816,816,816,816,816,816,816,816,816,816,816,816,816,816,816,816,816,816,816,816,816,816,817,822,828,847,859,870,882,905,932,942,951,957,961,962,962,962,962,963,963,964,966,967,969,972,976,985,1012,1055,1065,1068,1071,1074,1078,1085],"ymouse":[604,604,604,604,604,604,604,604,604,604,604,604,604,604,604,604,604,604,604,604,604,604,604,604,604,604,604,604,604,599,595,585,568,531,510,491,470,435,389,367,348,332,302,284,270,260,249,233,211,205,199,196,188,182,177,166,141,118,112,110,108,105,102,94],"timestamp_mouse":[14,41,54,75,95,115,134,155,175,195,213,235,255,274,294,315,335,354,375,394,415,433,455,475,493,514,535,554,574,593,615,633,654,674,694,714,733,754,775,794,814,834,855,873,894,914,933,954,973,994,1014,1033,1055,1074,1095,1114,1134,1155,1173,1193,1214,1233,1253,1273],"xSR":741.5,"ySR":573.95,"xT1":424.9,"yT1":0,"xT2":1058.1,"yT2":0,"toosoon":0,"cond_shown":"equaldotsize","ratio_trial":500,"smaller_num":"1","larger_num":"2","correct_side":2,"subjID":"jorge Alejandro Parra Gomez","gender":"0","age":"10","school":"4"},{"start_time":1552313832565,"click_time":1552313833758,"finger_time":1552313833176,"fix_duration":1326.5330876259331,"trial":16,"RT":611,"MT":582,"sideResp":2,"stimulus":"img/900/randomdotsizeEA/R/3_Ratio_900_L_9_R_10.png","xmouse":[814,814,814,814,814,813,813,813,813,813,813,813,813,813,813,813,813,813,813,813,813,813,813,813,813,813,813,813,812,815,820,823,828,844,853,870,888,906,922,929,933,939,945,953,957,960,963,966,970,984,991,1002,1011,1022,1027,1031,1036,1043,1059,1062],"ymouse":[606,606,606,606,606,606,606,606,606,606,606,606,606,606,606,606,606,606,606,606,606,606,606,606,606,606,606,606,605,584,565,545,522,483,463,442,421,405,376,354,341,328,315,302,296,290,285,279,270,239,222,203,192,172,162,149,136,123,102,88],"timestamp_mouse":[13,31,52,72,91,111,131,150,171,192,212,230,252,271,291,311,332,352,370,390,412,431,450,471,492,511,532,551,570,591,611,631,651,671,690,711,730,751,771,791,811,831,850,870,891,911,931,951,970,990,1012,1031,1051,1071,1091,1111,1131,1151,1171,1192],"xSR":741.5,"ySR":573.95,"xT1":424.9,"yT1":0,"xT2":1058.1,"yT2":0,"toosoon":0,"cond_shown":"randomdotsizeEA","ratio_trial":900,"smaller_num":"9","larger_num":"10","correct_side":2,"subjID":"jorge Alejandro Parra Gomez","gender":"0","age":"10","school":"4"},{"start_time":1552313835396,"click_time":1552313836656,"finger_time":1552313836057,"fix_duration":558.4266394199914,"trial":17,"RT":661,"MT":599,"sideResp":1,"stimulus":"img/900/randomdotsizeEA/L/10_Ratio_900_L_20_R_18.png","xmouse":[819,817,810,806,802,800,799,795,792,791,790,790,790,790,790,790,790,790,790,790,790,790,790,790,790,790,790,790,790,788,787,784,782,776,776,772,769,760,757,756,751,745,731,693,671,653,642,635,620,612,602,593,564,545,530,524,520,516,510,503,495,486,477,466],"ymouse":[622,622,622,622,622,622,622,622,622,622,622,622,622,622,622,622,622,622,622,622,622,622,622,622,622,622,622,622,622,617,612,602,590,548,524,489,450,404,396,390,381,367,347,299,276,258,250,246,232,222,213,205,188,183,177,174,172,170,164,154,142,127,114,88],"timestamp_mouse":[4,24,45,59,80,100,121,140,160,180,200,221,240,260,279,300,321,340,360,380,400,421,439,461,480,501,520,540,561,579,601,620,639,661,680,700,720,740,760,780,799,819,841,860,880,899,920,940,961,979,1001,1019,1040,1060,1080,1100,1121,1139,1159,1180,1200,1221,1241,1260],"xSR":741.5,"ySR":573.95,"xT1":424.9,"yT1":0,"xT2":1058.1,"yT2":0,"toosoon":0,"cond_shown":"randomdotsizeEA","ratio_trial":900,"smaller_num":"18","larger_num":"20","correct_side":1,"subjID":"jorge Alejandro Parra Gomez","gender":"0","age":"10","school":"4"},{"start_time":1552313838260,"click_time":1552313839856,"finger_time":1552313838936,"fix_duration":500.61105030353303,"trial":18,"RT":676,"MT":920,"sideResp":1,"stimulus":"img/750/equaldotsize/L/13_Ratio_750_L_8_R_6.png","xmouse":[803,803,803,803,803,803,803,803,803,803,803,803,803,803,803,803,803,803,803,803,803,803,803,803,803,803,803,803,803,803,803,803,806,806,796,788,782,768,747,637,585,541,508,489,466,461,459,459,459,464,467,470,471,472,472,472,472,470,468,463,458,453,449,446,444,444,444,444,444,444,445,446,448,449,455,459,460,462,463,465],"ymouse":[605,605,605,605,605,605,605,605,605,605,605,605,605,605,605,605,605,605,605,605,605,605,605,605,605,605,605,605,605,605,605,604,587,571,536,522,514,505,495,447,425,402,378,361,326,317,313,313,313,309,305,297,292,281,265,259,253,250,244,221,201,179,165,156,148,146,145,145,145,143,143,141,140,137,129,124,121,117,114,96],"timestamp_mouse":[16,37,56,77,96,116,137,156,176,195,216,236,256,275,296,316,336,356,377,397,417,436,455,475,497,517,536,557,576,596,617,636,656,676,695,715,737,756,775,795,815,835,856,876,896,916,936,957,977,996,1016,1036,1056,1076,1096,1117,1137,1156,1176,1196,1216,1235,1256,1277,1297,1315,1335,1356,1376,1396,1415,1436,1457,1476,1496,1517,1536,1555,1576,1595],"xSR":741.5,"ySR":573.95,"xT1":424.9,"yT1":0,"xT2":1058.1,"yT2":0,"toosoon":0,"cond_shown":"equaldotsize","ratio_trial":750,"smaller_num":"6","larger_num":"8","correct_side":1,"subjID":"jorge Alejandro Parra Gomez","gender":"0","age":"10","school":"4"},{"start_time":1552313843453,"click_time":1552313845696,"finger_time":1552313844056,"fix_duration":895.6845121547899,"trial":19,"RT":603,"MT":1640,"sideResp":2,"stimulus":"img/250/equaldotsize/R/8_Ratio_250_L_1_R_4.png","xmouse":[811,811,811,811,811,811,811,811,811,811,811,811,811,811,811,811,811,811,811,811,811,811,811,811,811,811,809,809,809,809,823,831,839,846,854,872,883,895,907,924,965,979,991,1001,1006,1020,1033,1047,1058,1066,1070,1070,1070,1070,1070,1070,1066,1054,1040,1029,1015,998,988,979,969,963,954,951,949,948,946,934,921,901,883,873,865,865,865,865,865,866,882,923,981,1087,1124,1148,1169,1193,1215,1219,1221,1221,1221,1221,1221,1221,1221,1221,1221,1220,1216,1208,1200,1187,1183,1182,1182,1179,1168,1161,1154],"ymouse":[618,618,618,618,618,618,618,618,618,618,618,618,618,618,618,618,618,618,618,618,618,618,618,618,618,618,617,613,602,590,543,525,511,501,489,464,449,434,419,401,354,338,327,316,308,281,257,236,221,211,202,202,202,202,202,202,204,218,234,248,263,284,296,307,316,321,326,327,328,328,328,328,328,328,326,325,325,325,325,325,325,325,312,278,234,161,133,111,95,74,57,54,52,52,52,52,52,52,52,52,52,52,54,59,61,65,65,66,66,66,66,65,64],"timestamp_mouse":[11,22,43,62,83,103,124,143,163,182,203,223,244,263,283,302,323,344,364,383,403,424,443,463,483,503,523,544,563,584,603,622,643,662,683,703,723,744,763,783,803,825,843,863,884,903,923,942,962,984,1003,1023,1044,1063,1084,1103,1122,1143,1163,1184,1203,1224,1243,1263,1283,1302,1323,1343,1364,1383,1403,1422,1443,1464,1482,1504,1523,1543,1563,1583,1603,1624,1643,1662,1683,1703,1722,1743,1762,1783,1803,1823,1843,1863,1883,1903,1923,1944,1964,1984,2004,2024,2044,2064,2083,2104,2123,2143,2163,2184,2203,2223,2243],"xSR":741.5,"ySR":573.95,"xT1":424.9,"yT1":0,"xT2":1058.1,"yT2":0,"toosoon":0,"cond_shown":"equaldotsize","ratio_trial":250,"smaller_num":"1","larger_num":"4","correct_side":2,"subjID":"jorge Alejandro Parra Gomez","gender":"0","age":"10","school":"4"},{"start_time":1552313848183,"click_time":1552313849357,"finger_time":1552313848856,"fix_duration":1405.2006176995253,"trial":20,"RT":673,"MT":501,"sideResp":2,"stimulus":"img/250/equaldotanddens/R/12_Ratio_250_L_5_R_20.png","xmouse":[789,789,789,789,789,789,789,789,789,789,789,789,789,789,789,789,789,789,789,789,789,789,789,789,789,789,789,789,789,789,789,795,803,821,880,918,955,980,997,1012,1022,1026,1030,1034,1038,1041,1042,1045,1049,1057,1066,1073,1080,1089,1113,1126,1137,1146,1151],"ymouse":[641,641,641,641,641,641,641,641,641,641,641,641,641,641,641,641,641,641,641,641,641,641,641,641,641,641,641,641,641,641,626,608,583,549,475,440,409,388,373,354,334,323,314,306,295,290,284,276,264,245,227,215,203,189,154,137,121,106,96],"timestamp_mouse":[13,35,52,74,93,114,132,153,172,193,213,234,252,274,293,313,334,353,374,393,414,433,454,473,493,514,532,553,574,593,614,632,654,673,693,712,733,753,773,796,813,832,853,874,892,914,933,953,974,993,1013,1032,1053,1073,1092,1112,1132,1153,1174],"xSR":741.5,"ySR":573.95,"xT1":424.9,"yT1":0,"xT2":1058.1,"yT2":0,"toosoon":0,"cond_shown":"equaldotanddens","ratio_trial":250,"smaller_num":"5","larger_num":"20","correct_side":2,"subjID":"jorge Alejandro Parra Gomez","gender":"0","age":"10","school":"4"},{"start_time":1552313916989,"click_time":1552313917679,"finger_time":1552313917419,"fix_duration":908.9455466150766,"trial":21,"RT":430,"MT":260,"sideResp":2,"stimulus":"img/250/equaldotsize/R/13_Ratio_250_L_2_R_8.png","xmouse":[817,817,817,817,817,817,817,817,817,817,817,817,817,817,817,817,817,817,817,817,817,821,838,850,866,892,979,1025,1053,1069,1073,1084,1088,1091,1092],"ymouse":[613,613,613,613,613,613,613,613,613,613,613,613,613,613,613,613,613,613,613,607,592,567,531,515,500,478,397,348,302,223,172,125,111,100,89],"timestamp_mouse":[11,30,58,70,91,110,130,150,171,190,211,231,250,270,290,310,329,351,370,390,410,430,450,470,490,511,531,550,571,590,611,632,650,670,690],"xSR":741.5,"ySR":573.95,"xT1":424.9,"yT1":0,"xT2":1058.1,"yT2":0,"toosoon":0,"cond_shown":"equaldotsize","ratio_trial":250,"smaller_num":"2","larger_num":"8","correct_side":2,"subjID":"jorge Alejandro Parra Gomez","gender":"0","age":"10","school":"4"},{"start_time":1552313928412,"click_time":1552313929979,"finger_time":1552313928940,"fix_duration":250,"trial":22,"RT":528,"MT":1039,"sideResp":1,"stimulus":"img/750/equaldotsize/L/13_Ratio_750_L_8_R_6.png","xmouse":[801,801,801,801,801,801,801,801,801,801,801,801,801,801,801,801,801,801,801,801,801,801,801,801,801,802,804,807,807,803,797,789,763,748,732,709,673,570,508,442,399,379,366,353,351,351,351,351,351,351,351,351,354,359,364,370,374,379,385,388,391,392,392,392,392,393,393,398,400,403,404,407,416,419,420,420,421,423,430],"ymouse":[639,639,639,639,639,639,639,639,639,639,639,639,639,639,639,639,639,639,639,639,639,639,636,617,602,587,571,539,525,516,505,493,466,453,439,423,401,337,296,259,232,217,203,179,175,175,175,175,175,175,174,174,164,153,142,128,120,102,91,83,77,74,72,72,72,71,71,70,70,70,70,70,68,68,67,67,67,63,58],"timestamp_mouse":[13,27,46,67,88,107,128,147,167,188,207,228,247,268,287,308,327,348,367,387,407,428,447,468,487,507,528,547,567,587,608,627,647,667,687,707,726,747,767,788,806,827,847,867,888,907,928,947,967,986,1007,1028,1047,1069,1087,1107,1126,1147,1166,1187,1207,1228,1248,1268,1287,1307,1328,1347,1367,1388,1408,1428,1446,1467,1487,1507,1528,1546,1567],"xSR":741.5,"ySR":573.95,"xT1":424.9,"yT1":0,"xT2":1058.1,"yT2":0,"toosoon":0,"cond_shown":"equaldotsize","ratio_trial":750,"smaller_num":"6","larger_num":"8","correct_side":1,"subjID":"jorge Alejandro Parra Gomez","gender":"0","age":"10","school":"4"},{"start_time":1552313932469,"click_time":1552313933519,"finger_time":1552313932778,"fix_duration":1269.4683046050359,"trial":23,"RT":309,"MT":741,"sideResp":1,"stimulus":"img/900/equaldotanddens/L/10_Ratio_900_L_20_R_18.png","xmouse":[781,781,781,781,781,781,781,781,781,781,781,781,781,781,780,779,778,778,777,777,777,775,773,772,767,763,752,748,733,723,709,706,696,682,668,653,650,648,645,644,637,632,624,614,607,604,597,584,569,548,538,525,509],"ymouse":[588,588,588,588,588,588,588,588,588,586,584,583,580,578,576,573,572,571,569,568,565,561,555,548,532,519,489,477,439,416,368,343,310,273,240,203,193,184,170,161,143,129,115,100,90,85,78,64,53,42,37,33,28],"timestamp_mouse":[13,34,50,70,90,111,130,151,171,190,211,231,251,269,291,309,330,351,371,391,410,430,449,470,491,510,531,550,571,590,610,630,650,670,690,710,730,750,770,790,811,830,850,871,892,910,931,949,970,991,1009,1030,1050],"xSR":741.5,"ySR":573.95,"xT1":424.9,"yT1":0,"xT2":1058.1,"yT2":0,"toosoon":0,"cond_shown":"equaldotanddens","ratio_trial":900,"smaller_num":"18","larger_num":"20","correct_side":1,"subjID":"jorge Alejandro Parra Gomez","gender":"0","age":"10","school":"4"},{"start_time":1552313935022,"click_time":1552313936200,"finger_time":1552313935479,"fix_duration":761.0162431022447,"trial":24,"RT":457,"MT":721,"sideResp":2,"stimulus":"img/250/equaldotsize/R/12_Ratio_250_L_5_R_20.png","xmouse":[771,771,771,772,772,772,772,772,772,772,772,772,772,772,772,772,772,769,769,769,769,770,777,782,788,795,804,826,854,871,891,910,934,944,954,965,977,985,988,990,992,994,997,999,1001,1004,1006,1007,1007,1010,1014,1018,1029,1035,1042,1051,1064,1087,1101],"ymouse":[644,642,639,635,634,634,634,634,634,634,634,634,634,634,634,630,626,607,604,593,586,576,555,542,528,512,492,450,409,384,362,339,300,283,267,255,244,234,229,226,223,219,213,211,210,209,208,208,208,206,203,199,187,181,173,160,144,114,94],"timestamp_mouse":[18,36,57,77,97,118,138,157,178,197,218,238,258,278,297,318,337,357,378,398,417,436,457,477,498,517,537,557,576,597,618,637,657,678,697,718,738,757,778,797,817,838,858,878,897,917,938,958,977,997,1018,1038,1057,1078,1097,1117,1136,1157,1178],"xSR":741.5,"ySR":573.95,"xT1":424.9,"yT1":0,"xT2":1058.1,"yT2":0,"toosoon":0,"cond_shown":"equaldotsize","ratio_trial":250,"smaller_num":"5","larger_num":"20","correct_side":2,"subjID":"jorge Alejandro Parra Gomez","gender":"0","age":"10","school":"4"},{"start_time":1552313937464,"click_time":1552313938581,"finger_time":1552313937999,"fix_duration":584.8800353176608,"trial":25,"RT":535,"MT":582,"sideResp":1,"stimulus":"img/500/randomdotsizeEA/R/1_Ratio_500_L_9_R_18.png","xmouse":[785,785,782,779,774,771,771,771,771,771,771,771,771,771,771,771,771,771,771,771,771,770,770,771,774,782,794,803,814,824,837,837,832,818,798,748,733,717,703,694,687,680,677,671,665,647,641,636,636,634,612,594,574,553,530,507],"ymouse":[632,632,632,632,634,635,635,635,635,635,635,635,635,635,635,635,635,635,635,635,635,635,634,628,618,591,550,513,474,441,389,369,348,323,290,210,183,150,118,100,75,33,18,2,0,0,0,0,0,0,14,20,26,31,36,42],"timestamp_mouse":[15,37,55,76,96,115,135,154,176,196,214,236,256,276,296,314,336,355,376,395,416,435,455,475,496,515,535,555,575,594,615,634,656,676,695,715,737,755,775,794,815,835,856,876,895,915,935,956,975,996,1015,1034,1055,1075,1096,1116],"xSR":741.5,"ySR":573.95,"xT1":424.9,"yT1":0,"xT2":1058.1,"yT2":0,"toosoon":0,"cond_shown":"randomdotsizeEA","ratio_trial":500,"smaller_num":"9","larger_num":"18","correct_side":2,"subjID":"jorge Alejandro Parra Gomez","gender":"0","age":"10","school":"4"},{"start_time":1552313942199,"click_time":1552313943739,"finger_time":1552313942699,"fix_duration":1118.576066885342,"trial":26,"RT":500,"MT":1040,"sideResp":1,"stimulus":"img/750/randomdotsizeEA/R/7_Ratio_750_L_3_R_4.png","xmouse":[787,787,787,787,787,787,787,787,787,787,787,787,787,787,787,787,787,787,787,787,787,787,786,787,792,805,812,823,828,833,836,836,836,830,818,813,811,807,804,799,795,791,781,774,765,739,722,703,682,677,677,677,677,677,677,677,677,676,673,671,664,659,652,644,633,601,598,589,585,570,562,554,545,535,528,526,525,517],"ymouse":[608,608,608,608,608,608,608,608,608,608,608,608,608,608,608,608,608,608,608,608,608,608,603,600,589,563,546,521,504,485,450,434,421,410,390,382,379,374,372,363,359,355,349,343,338,326,318,311,301,295,292,285,277,268,261,243,240,233,225,217,200,191,179,168,156,129,125,117,113,103,99,95,92,90,87,87,87,87],"timestamp_mouse":[16,28,40,60,80,100,121,140,161,180,200,220,240,260,279,301,321,341,361,381,401,420,441,461,481,500,520,540,559,580,600,620,640,660,681,700,720,740,761,781,800,820,840,861,881,899,920,940,961,981,1000,1019,1041,1060,1080,1100,1121,1141,1160,1180,1200,1220,1239,1260,1281,1299,1320,1339,1360,1381,1400,1420,1441,1460,1480,1500,1520,1540],"xSR":741.5,"ySR":573.95,"xT1":424.9,"yT1":0,"xT2":1058.1,"yT2":0,"toosoon":0,"cond_shown":"randomdotsizeEA","ratio_trial":750,"smaller_num":"3","larger_num":"4","correct_side":2,"subjID":"jorge Alejandro Parra Gomez","gender":"0","age":"10","school":"4"},{"start_time":1552313945168,"click_time":1552313946499,"finger_time":1552313945719,"fix_duration":507.0444277547336,"trial":27,"RT":551,"MT":780,"sideResp":1,"stimulus":"img/900/equaldotanddens/L/1_Ratio_900_L_10_R_9.png","xmouse":[798,798,798,798,798,798,798,798,798,798,798,798,798,798,798,798,798,798,798,798,798,798,798,798,798,798,799,808,822,838,867,935,959,981,1001,1016,1022,1018,1009,1003,998,994,994,987,973,955,859,831,728,671,634,613,613,613,613,613,609,607,604,603,603,603,601,593,575,555,519],"ymouse":[587,587,587,587,587,587,587,587,587,587,587,587,587,587,587,587,587,587,587,587,587,587,587,587,587,587,586,570,547,521,476,351,292,229,166,107,22,0,0,0,0,0,0,4,10,18,37,41,41,41,41,38,38,38,38,38,33,30,27,26,26,26,26,25,22,19,15],"timestamp_mouse":[13,30,51,72,92,112,132,152,172,191,212,231,252,271,290,312,332,350,371,392,411,431,451,472,491,511,531,551,571,592,612,631,651,671,692,712,730,751,770,790,811,831,851,872,891,912,931,951,972,992,1012,1031,1053,1071,1091,1111,1131,1152,1171,1191,1211,1231,1251,1272,1291,1311,1331],"xSR":741.5,"ySR":573.95,"xT1":424.9,"yT1":0,"xT2":1058.1,"yT2":0,"toosoon":0,"cond_shown":"equaldotanddens","ratio_trial":900,"smaller_num":"9","larger_num":"10","correct_side":1,"subjID":"jorge Alejandro Parra Gomez","gender":"0","age":"10","school":"4"},{"start_time":1552313949048,"click_time":1552313950119,"finger_time":1552313949620,"fix_duration":1348.1814366335561,"trial":28,"RT":572,"MT":499,"sideResp":1,"stimulus":"img/750/equaldotanddens/L/1_Ratio_750_L_20_R_15.png","xmouse":[762,762,762,762,762,762,762,762,762,762,762,762,762,762,762,762,762,762,762,762,762,762,762,762,763,764,767,775,782,790,798,807,805,794,779,758,739,704,689,675,664,653,639,637,633,629,626,610,596,584,567,561,541,520],"ymouse":[593,593,593,593,593,593,593,593,593,593,593,593,593,593,593,593,593,593,593,593,593,593,593,593,594,594,593,582,573,562,549,516,463,430,392,355,323,276,257,240,224,208,189,184,180,175,170,152,141,129,112,105,81,60],"timestamp_mouse":[21,33,52,71,91,111,131,152,171,191,212,232,252,271,292,310,331,350,372,392,411,430,452,471,491,511,531,552,572,591,611,631,651,671,691,711,731,752,770,791,811,831,852,871,891,911,932,952,970,992,1011,1031,1051,1071],"xSR":741.5,"ySR":573.95,"xT1":424.9,"yT1":0,"xT2":1058.1,"yT2":0,"toosoon":0,"cond_shown":"equaldotanddens","ratio_trial":750,"smaller_num":"15","larger_num":"20","correct_side":1,"subjID":"jorge Alejandro Parra Gomez","gender":"0","age":"10","school":"4"},{"start_time":1552313951659,"click_time":1552313952699,"finger_time":1552313952239,"fix_duration":477.37220807634895,"trial":29,"RT":580,"MT":460,"sideResp":2,"stimulus":"img/500/equaldotsize/R/15_Ratio_500_L_1_R_2.png","xmouse":[787,787,787,787,787,787,787,787,787,787,787,787,787,787,787,787,787,787,787,787,787,787,787,787,787,787,795,801,823,846,869,894,920,964,980,992,1003,1015,1035,1046,1058,1072,1080,1090,1093,1095,1098,1101,1107,1113,1115,1115,1115],"ymouse":[642,642,642,642,642,642,642,642,642,642,642,642,642,642,642,642,642,642,642,642,642,642,642,642,642,642,632,626,605,573,538,504,472,427,412,398,385,371,343,327,311,288,277,257,248,241,233,223,199,173,149,122,97],"timestamp_mouse":[10,21,40,60,81,100,121,141,160,180,199,221,240,260,281,299,320,341,360,380,400,420,440,461,481,500,521,541,560,580,600,620,641,660,680,701,720,740,760,780,800,821,840,860,881,900,921,940,961,980,1000,1021,1039],"xSR":741.5,"ySR":573.95,"xT1":424.9,"yT1":0,"xT2":1058.1,"yT2":0,"toosoon":0,"cond_shown":"equaldotsize","ratio_trial":500,"smaller_num":"1","larger_num":"2","correct_side":2,"subjID":"jorge Alejandro Parra Gomez","gender":"0","age":"10","school":"4"},{"start_time":1552313954090,"click_time":1552313955099,"finger_time":1552313954581,"fix_duration":469.40462066374187,"trial":30,"RT":491,"MT":518,"sideResp":1,"stimulus":"img/750/equaldotanddens/L/8_Ratio_750_L_4_R_3.png","xmouse":[793,793,793,793,793,793,793,793,793,793,793,793,791,791,791,791,791,790,790,789,788,785,783,782,780,776,761,745,731,713,695,654,635,618,606,596,584,580,576,572,570,567,565,561,558,557,550,542,536,527,518],"ymouse":[602,602,602,602,602,602,602,602,602,602,602,602,599,598,597,596,594,593,592,588,587,581,579,575,569,561,526,497,475,454,433,386,363,344,328,310,275,258,244,230,216,195,184,171,161,151,128,111,95,77,61],"timestamp_mouse":[10,29,50,70,90,109,130,150,169,190,210,228,249,270,290,309,329,349,369,389,410,429,449,469,491,509,529,549,570,590,609,629,649,669,689,709,729,749,768,789,810,830,849,869,889,909,929,949,969,989,1009],"xSR":741.5,"ySR":573.95,"xT1":424.9,"yT1":0,"xT2":1058.1,"yT2":0,"toosoon":0,"cond_shown":"equaldotanddens","ratio_trial":750,"smaller_num":"3","larger_num":"4","correct_side":1,"subjID":"jorge Alejandro Parra Gomez","gender":"0","age":"10","school":"4"},{"start_time":1552313956697,"click_time":1552313958039,"finger_time":1552313957279,"fix_duration":497.5680710464587,"trial":31,"RT":582,"MT":760,"sideResp":1,"stimulus":"img/750/equaldotsize/L/10_Ratio_750_L_4_R_3.png","xmouse":[771,771,771,771,771,771,771,771,771,771,771,771,771,771,771,771,771,771,771,771,771,771,771,771,771,773,776,789,796,806,814,816,814,804,787,769,723,714,709,707,706,706,703,700,692,685,678,666,659,654,650,636,628,619,608,596,570,566,562,559,555,549,547,546,544,542,527,513],"ymouse":[650,650,650,650,650,650,650,650,650,650,650,650,649,648,647,647,647,647,647,647,647,647,647,647,645,639,628,600,582,558,536,492,471,447,421,396,332,307,282,257,236,207,197,185,175,167,159,147,142,138,135,128,124,118,111,104,86,82,77,74,69,62,56,51,44,40,23,16],"timestamp_mouse":[10,22,42,63,83,103,121,143,162,183,203,221,242,263,283,302,322,342,361,383,402,422,443,463,482,502,522,541,562,582,603,622,642,663,682,703,722,743,762,782,803,822,842,862,882,901,922,942,963,982,1003,1022,1041,1062,1082,1102,1122,1142,1162,1182,1203,1223,1241,1262,1282,1302,1323,1342],"xSR":741.5,"ySR":573.95,"xT1":424.9,"yT1":0,"xT2":1058.1,"yT2":0,"toosoon":0,"cond_shown":"equaldotsize","ratio_trial":750,"smaller_num":"3","larger_num":"4","correct_side":1,"subjID":"jorge Alejandro Parra Gomez","gender":"0","age":"10","school":"4"},{"start_time":1552313959910,"click_time":1552313961521,"finger_time":1552313960420,"fix_duration":669.9216598432032,"trial":32,"RT":510,"MT":1101,"sideResp":1,"stimulus":"img/750/equaldotsize/L/1_Ratio_750_L_20_R_15.png","xmouse":[769,769,769,770,770,770,770,770,770,770,770,770,770,770,770,770,770,770,770,770,770,770,770,770,766,752,744,733,720,704,690,667,658,652,642,631,624,619,612,608,607,603,599,591,586,581,572,567,561,555,550,540,534,534,532,531,531,531,531,531,531,531,530,530,530,529,529,527,527,527,527,527,527,527,527,527,527,527,527,527,521],"ymouse":[608,608,607,602,601,600,600,600,600,600,600,600,600,600,600,600,600,600,600,600,600,600,598,595,581,549,531,511,489,465,443,405,388,371,349,315,298,284,269,256,245,222,211,189,175,161,128,111,93,80,67,44,29,25,17,14,14,14,14,14,14,14,14,14,14,15,15,17,17,18,18,18,18,18,18,18,18,18,18,18,18],"timestamp_mouse":[23,30,49,70,89,109,130,150,169,189,210,230,249,270,290,309,328,349,370,389,409,430,450,470,489,510,529,550,569,589,609,629,650,669,689,710,730,748,770,788,810,829,849,869,888,909,928,949,969,989,1009,1029,1049,1069,1090,1110,1130,1149,1169,1189,1209,1230,1250,1270,1290,1309,1329,1349,1368,1389,1410,1430,1450,1470,1490,1510,1529,1549,1569,1590,1611],"xSR":741.5,"ySR":573.95,"xT1":424.9,"yT1":0,"xT2":1058.1,"yT2":0,"toosoon":0,"cond_shown":"equaldotsize","ratio_trial":750,"smaller_num":"15","larger_num":"20","correct_side":1,"subjID":"jorge Alejandro Parra Gomez","gender":"0","age":"10","school":"4"},{"start_time":1552313963918,"click_time":1552313965739,"finger_time":1552313964439,"fix_duration":1155.2206079378927,"trial":33,"RT":521,"MT":1300,"sideResp":1,"stimulus":"img/250/randomdotsizeEA/L/1_Ratio_250_L_8_R_2.png","xmouse":[780,780,780,780,780,780,780,780,780,780,780,780,780,780,780,780,780,780,780,780,780,782,783,784,785,785,785,782,775,769,758,720,707,696,687,679,653,636,623,613,601,579,575,573,571,571,570,570,570,570,570,570,570,570,570,570,570,570,570,570,570,570,570,570,570,570,570,570,570,570,570,570,570,569,568,568,567,566,565,564,563,552,549,543,540,538,535,532,531,529,526,521],"ymouse":[645,645,645,645,645,645,645,645,645,645,645,645,645,645,645,645,645,645,645,644,642,631,624,616,605,590,560,543,523,503,479,413,391,366,343,318,270,239,215,191,166,111,92,78,67,57,52,52,52,52,52,52,52,52,52,52,52,52,51,51,51,51,51,51,51,51,51,51,51,51,51,51,51,51,51,51,51,52,53,53,54,54,54,52,50,49,48,47,47,47,47,47],"timestamp_mouse":[10,21,41,62,82,102,121,141,161,181,201,221,241,261,281,301,321,342,361,380,401,420,441,461,481,502,521,542,561,582,601,621,642,661,681,701,722,741,762,781,801,820,841,861,881,901,921,941,961,980,1001,1021,1041,1062,1082,1101,1121,1140,1161,1182,1202,1221,1242,1260,1282,1301,1322,1341,1361,1381,1401,1421,1442,1461,1482,1502,1520,1541,1562,1581,1601,1621,1641,1661,1682,1701,1721,1741,1761,1781,1802,1821],"xSR":741.5,"ySR":573.95,"xT1":424.9,"yT1":0,"xT2":1058.1,"yT2":0,"toosoon":0,"cond_shown":"randomdotsizeEA","ratio_trial":250,"smaller_num":"2","larger_num":"8","correct_side":1,"subjID":"jorge Alejandro Parra Gomez","gender":"0","age":"10","school":"4"},{"start_time":1552313974821,"click_time":1552313975779,"finger_time":1552313975280,"fix_duration":719.6820622871899,"trial":34,"RT":459,"MT":499,"sideResp":1,"stimulus":"img/500/equaldotsize/L/4_Ratio_500_L_18_R_9.png","xmouse":[780,780,780,780,780,780,780,780,780,780,780,780,780,780,780,780,780,780,780,780,781,781,781,771,760,744,725,667,643,624,607,597,586,584,582,580,577,566,561,555,550,543,534,531,529,526,526,525,524],"ymouse":[617,617,617,617,617,617,617,617,617,617,617,617,617,617,617,617,617,617,617,617,614,603,583,531,493,453,412,311,271,239,208,193,168,158,148,139,128,101,86,72,59,44,28,24,20,17,17,16,16],"timestamp_mouse":[1,17,39,58,79,98,119,138,157,179,197,219,238,259,279,299,318,338,359,379,398,418,438,459,478,499,519,538,557,578,598,618,639,657,678,698,718,739,758,779,797,818,839,858,879,898,918,939,958],"xSR":741.5,"ySR":573.95,"xT1":424.9,"yT1":0,"xT2":1058.1,"yT2":0,"toosoon":0,"cond_shown":"equaldotsize","ratio_trial":500,"smaller_num":"9","larger_num":"18","correct_side":1,"subjID":"jorge Alejandro Parra Gomez","gender":"0","age":"10","school":"4"},{"start_time":1552313977492,"click_time":1552313978462,"finger_time":1552313977841,"fix_duration":428.2232459615505,"trial":35,"RT":349,"MT":621,"sideResp":1,"stimulus":"img/750/equaldotanddens/L/8_Ratio_750_L_4_R_3.png","xmouse":[796,796,796,796,796,796,796,796,796,796,796,796,796,796,796,796,796,796,796,796,793,790,784,773,737,720,647,602,544,520,503,491,483,476,474,474,474,477,478,483,487,491,495,499,506,511,512,513,514],"ymouse":[580,580,580,580,580,580,580,580,580,580,580,580,580,580,580,580,580,572,544,531,518,505,497,479,445,433,385,371,346,334,320,308,296,286,271,266,260,252,248,232,221,210,193,178,156,140,129,117,92],"timestamp_mouse":[12,31,49,68,89,109,129,150,169,188,208,230,249,270,288,308,328,349,370,388,409,428,450,470,489,508,528,550,570,589,610,628,648,668,689,709,728,749,769,789,810,829,848,868,888,909,929,950,970],"xSR":741.5,"ySR":573.95,"xT1":424.9,"yT1":0,"xT2":1058.1,"yT2":0,"toosoon":0,"cond_shown":"equaldotanddens","ratio_trial":750,"smaller_num":"3","larger_num":"4","correct_side":1,"subjID":"jorge Alejandro Parra Gomez","gender":"0","age":"10","school":"4"},{"start_time":1552313980674,"click_time":1552313981880,"finger_time":1552313981080,"fix_duration":250,"trial":36,"RT":406,"MT":800,"sideResp":1,"stimulus":"img/900/equaldotanddens/L/2_Ratio_900_L_20_R_18.png","xmouse":[800,799,799,797,796,795,795,795,795,795,795,795,795,795,794,788,784,779,771,762,751,732,724,717,709,692,675,667,664,658,620,606,602,601,601,599,597,597,597,597,594,592,590,587,585,581,574,568,564,563,563,555,548,540,533,531,530,529,528,525,524],"ymouse":[610,610,610,611,612,612,612,612,612,612,612,612,612,612,612,610,605,601,591,577,561,530,516,498,479,425,372,348,329,306,234,214,202,196,190,179,175,175,175,175,169,165,160,153,146,137,130,122,117,116,115,104,97,86,79,75,74,72,71,70,68],"timestamp_mouse":[13,34,47,66,87,108,126,146,167,188,207,227,248,267,287,308,327,348,367,386,406,427,446,466,486,506,526,547,566,586,606,627,647,667,687,707,727,747,768,786,806,826,846,867,888,906,927,946,967,987,1006,1026,1046,1067,1087,1107,1127,1146,1166,1188,1206],"xSR":741.5,"ySR":573.95,"xT1":424.9,"yT1":0,"xT2":1058.1,"yT2":0,"toosoon":0,"cond_shown":"equaldotanddens","ratio_trial":900,"smaller_num":"18","larger_num":"20","correct_side":1,"subjID":"jorge Alejandro Parra Gomez","gender":"0","age":"10","school":"4"},{"start_time":1552313984592,"click_time":1552313985382,"finger_time":1552313985081,"fix_duration":430.48915134185904,"trial":37,"RT":489,"MT":301,"sideResp":1,"stimulus":"img/900/equaldotsize/L/1_Ratio_900_L_10_R_9.png","xmouse":[806,806,806,806,806,806,806,806,806,806,806,806,806,806,806,806,806,806,806,806,805,804,804,800,786,774,759,738,704,680,633,607,580,561,546,526,520,518,518,518],"ymouse":[613,613,613,613,613,613,613,613,613,613,613,613,613,613,613,613,613,613,613,613,613,610,604,595,570,553,538,516,471,438,365,328,290,265,241,193,168,131,106,82],"timestamp_mouse":[28,34,49,68,88,109,128,149,169,188,209,228,250,269,289,310,328,349,368,390,410,430,449,470,489,508,529,548,569,588,608,628,648,670,690,709,729,748,770,790],"xSR":741.5,"ySR":573.95,"xT1":424.9,"yT1":0,"xT2":1058.1,"yT2":0,"toosoon":0,"cond_shown":"equaldotsize","ratio_trial":900,"smaller_num":"9","larger_num":"10","correct_side":1,"subjID":"jorge Alejandro Parra Gomez","gender":"0","age":"10","school":"4"},{"start_time":1552313986513,"click_time":1552313987600,"finger_time":1552313986921,"fix_duration":250,"trial":38,"RT":408,"MT":679,"sideResp":1,"stimulus":"img/900/equaldotanddens/R/11_Ratio_900_L_18_R_20.png","xmouse":[798,797,797,797,797,797,797,797,797,797,797,797,797,797,797,797,797,797,795,782,766,755,747,744,738,734,731,727,725,719,715,710,704,697,689,688,684,678,671,654,649,637,621,603,543,525,515,513,513,513,513,513,513,513,513],"ymouse":[611,610,610,610,610,610,610,610,610,610,610,610,610,610,610,610,610,610,606,582,548,526,504,487,451,437,428,420,416,396,383,369,351,337,319,313,306,291,274,233,211,173,140,104,30,9,0,0,0,0,0,0,0,0,1],"timestamp_mouse":[7,27,48,69,89,108,128,147,168,187,208,229,248,267,288,307,327,348,368,387,408,428,447,467,488,508,528,548,569,588,608,627,648,668,688,708,728,747,767,787,807,827,848,868,887,910,927,948,967,988,1009,1028,1049,1069,1087],"xSR":741.5,"ySR":573.95,"xT1":424.9,"yT1":0,"xT2":1058.1,"yT2":0,"toosoon":0,"cond_shown":"equaldotanddens","ratio_trial":900,"smaller_num":"18","larger_num":"20","correct_side":2,"subjID":"jorge Alejandro Parra Gomez","gender":"0","age":"10","school":"4"},{"start_time":1552313990113,"click_time":1552313991200,"finger_time":1552313990601,"fix_duration":1030.9869535292314,"trial":39,"RT":488,"MT":599,"sideResp":2,"stimulus":"img/250/randomdotsizeEA/R/4_Ratio_250_L_3_R_12.png","xmouse":[790,790,790,790,790,790,790,790,790,790,790,790,789,789,787,787,787,787,787,787,787,787,790,795,807,815,823,832,844,883,899,914,930,948,984,1001,1011,1019,1024,1027,1027,1027,1027,1027,1028,1028,1029,1031,1033,1040,1044,1045,1047,1051,1060],"ymouse":[638,638,638,638,638,638,638,638,638,638,638,638,638,636,629,628,627,626,625,617,611,605,597,587,563,547,530,511,490,421,395,371,346,319,256,223,198,180,165,148,144,138,133,128,122,120,117,113,108,101,100,99,99,98,93],"timestamp_mouse":[22,29,47,67,87,107,127,148,167,187,208,227,248,267,288,308,328,348,367,387,408,429,448,469,488,507,528,548,568,587,608,627,648,667,687,708,728,747,768,788,808,828,848,868,888,908,928,947,968,987,1007,1028,1048,1069,1087],"xSR":741.5,"ySR":573.95,"xT1":424.9,"yT1":0,"xT2":1058.1,"yT2":0,"toosoon":0,"cond_shown":"randomdotsizeEA","ratio_trial":250,"smaller_num":"3","larger_num":"12","correct_side":2,"subjID":"jorge Alejandro Parra Gomez","gender":"0","age":"10","school":"4"},{"start_time":1552313992635,"click_time":1552313994002,"finger_time":1552313993101,"fix_duration":553.5968367578461,"trial":40,"RT":466,"MT":901,"sideResp":1,"stimulus":"img/250/equaldotsize/L/3_Ratio_250_L_8_R_2.png","xmouse":[781,781,781,781,781,781,781,781,782,782,783,784,784,784,784,784,785,785,786,786,786,785,783,766,746,722,695,676,659,649,636,624,616,600,597,594,591,590,588,588,587,586,584,578,575,571,567,559,554,544,540,538,538,538,538,538,538,538,538,538,538,538,538,537,535,533,530,529,523],"ymouse":[644,644,644,643,643,643,643,643,643,643,643,642,642,642,642,642,642,642,641,638,635,622,609,552,508,457,406,366,312,284,257,234,215,178,168,158,149,143,138,138,137,136,132,122,117,111,103,92,85,72,67,63,63,63,63,63,63,61,61,61,61,61,61,61,61,61,61,61,61],"timestamp_mouse":[12,32,46,65,85,105,126,146,166,186,206,227,246,266,285,305,326,347,366,386,407,427,445,466,485,506,527,547,566,585,605,625,647,666,686,706,727,745,766,785,806,825,846,867,885,906,926,946,965,985,1007,1027,1047,1066,1085,1107,1125,1146,1165,1185,1206,1227,1246,1265,1285,1306,1327,1346,1367],"xSR":741.5,"ySR":573.95,"xT1":424.9,"yT1":0,"xT2":1058.1,"yT2":0,"toosoon":0,"cond_shown":"equaldotsize","ratio_trial":250,"smaller_num":"2","larger_num":"8","correct_side":1,"subjID":"jorge Alejandro Parra Gomez","gender":"0","age":"10","school":"4"},{"start_time":1552313996294,"click_time":1552313997520,"finger_time":1552313996620,"fix_duration":1491.401027210595,"trial":41,"RT":326,"MT":900,"sideResp":2,"stimulus":"img/750/equaldotsize/R/12_Ratio_750_L_3_R_4.png","xmouse":[785,785,785,785,785,785,786,786,787,787,788,789,790,793,798,804,816,847,886,929,970,1006,1015,1021,1027,1033,1041,1046,1049,1053,1055,1056,1056,1053,1049,1046,1045,1044,1043,1043,1043,1042,1042,1042,1040,1034,1034,1035,1037,1039,1041,1043,1044,1045,1045,1045,1045,1045,1046,1049,1055,1060],"ymouse":[613,613,613,613,612,611,610,609,608,606,606,602,599,595,590,583,571,555,538,519,502,474,457,443,432,424,409,391,374,355,334,299,283,268,254,245,237,233,229,224,220,211,203,187,160,124,99,91,88,80,75,68,66,65,65,65,65,65,64,62,61,60],"timestamp_mouse":[20,32,46,66,87,108,126,147,166,186,206,227,247,266,288,306,326,347,366,387,407,428,446,466,487,508,527,546,566,587,606,626,646,666,687,708,727,748,767,786,806,826,848,866,887,908,926,946,966,986,1007,1026,1047,1066,1087,1107,1127,1147,1166,1186,1207,1226],"xSR":741.5,"ySR":573.95,"xT1":424.9,"yT1":0,"xT2":1058.1,"yT2":0,"toosoon":0,"cond_shown":"equaldotsize","ratio_trial":750,"smaller_num":"3","larger_num":"4","correct_side":2,"subjID":"jorge Alejandro Parra Gomez","gender":"0","age":"10","school":"4"},{"start_time":1552313999433,"click_time":1552314000481,"finger_time":1552313999942,"fix_duration":971.9985758866186,"trial":42,"RT":509,"MT":539,"sideResp":1,"stimulus":"img/500/equaldotanddens/L/7_Ratio_500_L_10_R_5.png","xmouse":[784,784,784,784,784,784,784,784,784,784,784,784,784,784,784,784,784,784,784,784,784,784,784,785,796,809,830,854,885,905,927,927,926,922,912,900,884,866,850,825,819,814,805,797,767,747,723,666,600,520,512,508,506],"ymouse":[597,597,597,597,597,597,597,597,597,597,597,597,597,597,597,597,597,597,597,597,597,597,597,595,584,572,552,529,487,450,383,359,340,328,308,294,282,270,263,256,253,249,240,233,218,210,197,181,169,136,120,102,87],"timestamp_mouse":[10,37,47,69,89,108,127,148,168,187,207,227,249,268,288,309,327,348,367,387,407,427,448,468,488,509,528,547,567,587,607,627,647,668,687,707,727,748,768,787,809,827,848,867,887,907,928,948,967,988,1008,1028,1048],"xSR":741.5,"ySR":573.95,"xT1":424.9,"yT1":0,"xT2":1058.1,"yT2":0,"toosoon":0,"cond_shown":"equaldotanddens","ratio_trial":500,"smaller_num":"5","larger_num":"10","correct_side":1,"subjID":"jorge Alejandro Parra Gomez","gender":"0","age":"10","school":"4"},{"start_time":1552314003619,"click_time":1552314004660,"finger_time":1552314004000,"fix_duration":916.2751886925231,"trial":43,"RT":381,"MT":660,"sideResp":2,"stimulus":"img/900/equaldotanddens/R/6_Ratio_900_L_9_R_10.png","xmouse":[796,796,796,796,796,796,796,796,796,796,796,796,796,796,796,796,799,801,803,804,810,820,835,851,864,882,892,900,913,918,922,925,929,937,946,954,969,972,986,996,1010,1022,1041,1061,1075,1088,1100,1103,1105,1108,1112,1114,1115],"ymouse":[613,613,613,613,613,613,610,609,609,609,609,609,609,609,605,595,582,579,574,570,563,552,540,526,514,486,469,449,420,403,392,372,362,347,331,317,281,274,246,231,210,197,186,177,168,160,149,143,135,128,112,102,93],"timestamp_mouse":[10,22,41,62,81,103,122,142,162,181,203,221,242,262,283,304,321,342,361,381,402,421,443,463,483,503,521,542,561,581,602,623,642,662,682,701,721,742,762,781,803,821,842,862,881,901,922,941,962,981,1003,1022,1041],"xSR":741.5,"ySR":573.95,"xT1":424.9,"yT1":0,"xT2":1058.1,"yT2":0,"toosoon":0,"cond_shown":"equaldotanddens","ratio_trial":900,"smaller_num":"9","larger_num":"10","correct_side":2,"subjID":"jorge Alejandro Parra Gomez","gender":"0","age":"10","school":"4"},{"start_time":1552314006641,"click_time":1552314007401,"finger_time":1552314006761,"fix_duration":1118.7914653579676,"trial":44,"RT":120,"MT":640,"sideResp":1,"stimulus":"img/900/equaldotsize/L/1_Ratio_900_L_10_R_9.png","xmouse":[787,786,786,784,782,774,770,768,765,763,763,763,763,761,758,752,749,745,740,731,722,716,711,708,705,691,683,675,667,661,640,606,568,544,529,523,522,521,515],"ymouse":[613,610,610,602,595,576,569,562,557,555,554,552,551,544,535,519,507,495,480,463,437,423,412,403,396,361,342,329,314,306,272,232,182,145,120,111,108,104,93],"timestamp_mouse":[1,31,39,60,80,100,120,139,161,180,199,219,239,260,279,299,319,340,359,381,399,421,440,460,479,499,521,539,561,579,599,619,641,661,681,700,720,739,760],"xSR":741.5,"ySR":573.95,"xT1":424.9,"yT1":0,"xT2":1058.1,"yT2":0,"toosoon":0,"cond_shown":"equaldotsize","ratio_trial":900,"smaller_num":"9","larger_num":"10","correct_side":1,"subjID":"jorge Alejandro Parra Gomez","gender":"0","age":"10","school":"4"},{"start_time":1552314009003,"click_time":1552314010021,"finger_time":1552314009441,"fix_duration":660.3447176536926,"trial":45,"RT":438,"MT":580,"sideResp":2,"stimulus":"img/500/equaldotsize/R/14_Ratio_500_L_5_R_10.png","xmouse":[813,813,813,813,813,813,813,813,813,813,813,813,813,813,813,813,813,813,813,813,815,817,836,848,856,871,886,894,907,925,941,962,968,971,975,977,981,983,986,990,996,1017,1030,1037,1038,1040,1043,1056,1066,1077,1086],"ymouse":[581,581,581,581,581,581,581,581,581,581,581,581,581,581,581,581,581,581,581,581,574,567,530,514,500,477,444,424,399,361,330,290,280,271,263,257,252,249,243,237,224,182,163,155,154,150,145,130,119,107,96],"timestamp_mouse":[18,40,58,79,98,118,137,158,177,197,219,237,257,277,297,318,338,358,378,397,419,438,459,479,498,517,538,557,578,598,619,638,658,678,699,719,738,757,777,798,819,838,857,878,898,919,938,958,977,998,1018],"xSR":741.5,"ySR":573.95,"xT1":424.9,"yT1":0,"xT2":1058.1,"yT2":0,"toosoon":0,"cond_shown":"equaldotsize","ratio_trial":500,"smaller_num":"5","larger_num":"10","correct_side":2,"subjID":"jorge Alejandro Parra Gomez","gender":"0","age":"10","school":"4"},{"start_time":1552314011989,"click_time":1552314012602,"finger_time":1552314012260,"fix_duration":666.6281369016039,"trial":46,"RT":271,"MT":342,"sideResp":1,"stimulus":"img/500/randomdotsizeEA/L/13_Ratio_500_L_12_R_6.png","xmouse":[803,803,803,791,786,783,781,778,775,774,771,769,766,761,753,744,730,713,708,703,696,688,661,648,631,611,597,577,503,468,447],"ymouse":[618,618,618,610,605,602,600,597,595,594,591,589,582,573,562,550,531,504,495,483,471,458,426,412,396,373,352,313,181,129,92],"timestamp_mouse":[12,38,52,72,93,111,131,153,172,193,213,233,253,271,292,312,332,352,372,392,413,432,453,473,493,512,532,552,572,591,612],"xSR":741.5,"ySR":573.95,"xT1":424.9,"yT1":0,"xT2":1058.1,"yT2":0,"toosoon":0,"cond_shown":"randomdotsizeEA","ratio_trial":500,"smaller_num":"6","larger_num":"12","correct_side":1,"subjID":"jorge Alejandro Parra Gomez","gender":"0","age":"10","school":"4"},{"start_time":1552314013872,"click_time":1552314014761,"finger_time":1552314014281,"fix_duration":250,"trial":47,"RT":409,"MT":480,"sideResp":2,"stimulus":"img/900/equaldotsize/L/1_Ratio_900_L_10_R_9.png","xmouse":[791,791,791,791,791,791,791,791,791,791,791,791,791,791,791,791,791,792,792,795,798,799,801,805,819,829,838,848,857,881,896,906,919,938,973,989,1003,1011,1016,1029,1036,1039,1042,1047,1066],"ymouse":[604,604,604,604,602,601,600,599,599,599,598,598,598,598,598,598,598,596,593,581,567,555,540,523,477,452,434,412,391,344,307,283,259,232,192,174,158,148,141,127,119,115,112,108,95],"timestamp_mouse":[11,32,49,69,89,109,129,150,170,189,209,229,249,270,289,310,328,350,370,389,409,428,449,470,489,508,529,549,569,589,609,628,649,669,689,709,728,748,770,789,808,828,848,869,889],"xSR":741.5,"ySR":573.95,"xT1":424.9,"yT1":0,"xT2":1058.1,"yT2":0,"toosoon":0,"cond_shown":"equaldotsize","ratio_trial":900,"smaller_num":"9","larger_num":"10","correct_side":1,"subjID":"jorge Alejandro Parra Gomez","gender":"0","age":"10","school":"4"},{"start_time":1552314017195,"click_time":1552314017960,"finger_time":1552314017561,"fix_duration":1233.294819676137,"trial":48,"RT":366,"MT":399,"sideResp":1,"stimulus":"img/900/randomdotsizeEA/L/4_Ratio_900_L_20_R_18.png","xmouse":[788,788,788,788,788,788,788,788,788,785,784,781,779,774,772,768,764,759,751,747,740,733,717,684,669,650,628,598,548,539,536,535,534,528,526,518,505,488,466],"ymouse":[612,612,612,612,612,612,612,612,612,608,607,603,600,594,591,586,580,575,564,558,549,537,511,469,449,421,390,358,302,286,276,269,261,234,216,188,154,113,61],"timestamp_mouse":[12,31,46,65,85,105,125,145,165,185,207,227,246,265,286,306,326,347,366,385,405,426,445,466,485,506,526,546,566,585,605,625,646,666,687,705,725,746,765],"xSR":741.5,"ySR":573.95,"xT1":424.9,"yT1":0,"xT2":1058.1,"yT2":0,"toosoon":0,"cond_shown":"randomdotsizeEA","ratio_trial":900,"smaller_num":"18","larger_num":"20","correct_side":1,"subjID":"jorge Alejandro Parra Gomez","gender":"0","age":"10","school":"4"},{"start_time":1552314020463,"click_time":1552314021781,"finger_time":1552314021041,"fix_duration":1301.6492415221214,"trial":49,"RT":578,"MT":740,"sideResp":1,"stimulus":"img/500/equaldotsize/L/11_Ratio_500_L_12_R_6.png","xmouse":[789,789,789,789,789,789,789,789,789,789,789,789,789,789,789,789,789,789,789,789,789,789,789,788,787,785,784,779,773,766,758,755,749,743,722,712,700,693,680,657,582,567,560,556,553,548,544,545,548,550,551,550,547,543,540,532,530,516,499,470,461,453,449,449,449,449],"ymouse":[646,646,646,646,646,646,646,646,646,646,646,646,646,646,646,646,646,646,646,646,646,646,646,645,640,626,615,589,568,549,527,519,510,502,476,464,448,436,423,398,343,332,325,316,306,263,227,206,187,171,145,135,122,107,92,46,33,0,0,0,0,0,0,0,0,30],"timestamp_mouse":[17,37,57,77,98,119,138,159,177,197,217,239,258,277,299,317,338,357,378,398,418,437,457,477,497,518,538,557,578,599,617,638,658,678,698,718,738,758,778,798,818,837,857,877,898,918,939,958,977,998,1018,1038,1059,1079,1098,1119,1138,1157,1179,1198,1217,1238,1257,1277,1297,1318],"xSR":741.5,"ySR":573.95,"xT1":424.9,"yT1":0,"xT2":1058.1,"yT2":0,"toosoon":0,"cond_shown":"equaldotsize","ratio_trial":500,"smaller_num":"6","larger_num":"12","correct_side":1,"subjID":"jorge Alejandro Parra Gomez","gender":"0","age":"10","school":"4"},{"start_time":1552314026098,"click_time":1552314028201,"finger_time":1552314026520,"fix_duration":1137.0645657377922,"trial":50,"RT":422,"MT":1681,"sideResp":2,"stimulus":"img/250/equaldotsize/R/13_Ratio_250_L_2_R_8.png","xmouse":[797,797,797,797,797,797,797,797,797,797,797,797,797,797,797,797,797,797,798,799,799,799,799,799,799,798,798,803,809,818,848,855,878,912,983,1102,1178,1263,1340,1373,1331,1265,1186,1082,1040,1037,1037,1034,1030,1023,991,977,959,953,948,944,943,942,942,942,943,945,947,947,947,949,962,983,1003,1023,1026,1028,1031,1035,1039,1040,1041,1042,1043,1044,1045,1045,1045,1046,1048,1048,1048,1048,1049,1051,1053,1055,1056,1056,1056,1056,1056,1056,1056,1056,1056,1056,1056,1056,1056,1059],"ymouse":[602,602,602,602,602,602,602,602,602,602,602,602,602,602,602,602,602,602,598,594,580,569,557,546,539,535,533,526,518,507,476,470,450,424,376,287,217,125,24,0,0,0,0,0,0,0,0,2,12,26,62,79,100,107,111,118,121,125,128,131,132,134,134,134,134,134,134,129,122,115,113,110,106,100,94,91,88,86,84,80,79,79,79,77,75,74,74,74,74,73,72,71,71,71,71,71,71,71,71,71,71,71,71,71,71,69],"timestamp_mouse":[13,32,42,62,83,103,122,143,164,182,204,224,242,262,284,302,322,342,363,383,404,422,442,464,483,504,523,544,564,583,603,624,642,662,682,702,723,744,763,783,802,823,842,863,882,903,923,943,963,983,1003,1023,1042,1062,1083,1103,1122,1144,1163,1184,1203,1222,1243,1264,1283,1302,1322,1344,1362,1383,1404,1423,1443,1463,1484,1503,1523,1542,1564,1582,1602,1622,1643,1662,1682,1704,1723,1742,1762,1782,1804,1822,1842,1862,1884,1903,1923,1943,1962,1983,2002,2023,2042,2063,2084,2103],"xSR":741.5,"ySR":573.95,"xT1":424.9,"yT1":0,"xT2":1058.1,"yT2":0,"toosoon":0,"cond_shown":"equaldotsize","ratio_trial":250,"smaller_num":"2","larger_num":"8","correct_side":2,"subjID":"jorge Alejandro Parra Gomez","gender":"0","age":"10","school":"4"},{"start_time":1552314029854,"click_time":1552314031161,"finger_time":1552314030461,"fix_duration":250,"trial":51,"RT":607,"MT":700,"sideResp":1,"stimulus":"img/900/equaldotanddens/R/13_Ratio_900_L_18_R_20.png","xmouse":[799,799,799,799,799,799,799,799,799,799,799,799,799,799,798,798,798,798,798,798,798,798,798,798,798,798,798,798,798,798,797,795,783,759,727,699,645,631,618,602,579,513,463,456,449,448,448,469,485,494,495,495,496,497,497,498,499,500,500,500,500,500,500,500,500,500],"ymouse":[623,623,623,623,623,623,623,623,623,623,623,623,623,623,622,622,621,621,620,619,618,617,615,613,610,606,603,591,584,578,570,562,538,505,467,435,374,358,343,328,310,276,253,250,242,237,231,206,192,183,179,177,172,168,163,159,153,143,139,135,131,129,118,111,104,98],"timestamp_mouse":[10,27,47,67,86,107,126,147,166,187,207,227,248,266,287,307,328,347,366,386,407,427,446,468,486,507,526,547,566,587,607,626,646,668,687,707,728,746,766,786,807,828,847,867,886,906,927,948,968,987,1006,1027,1046,1067,1087,1108,1126,1146,1167,1187,1208,1227,1247,1268,1286,1307],"xSR":741.5,"ySR":573.95,"xT1":424.9,"yT1":0,"xT2":1058.1,"yT2":0,"toosoon":0,"cond_shown":"equaldotanddens","ratio_trial":900,"smaller_num":"18","larger_num":"20","correct_side":2,"subjID":"jorge Alejandro Parra Gomez","gender":"0","age":"10","school":"4"},{"start_time":1552314032867,"click_time":1552314034041,"finger_time":1552314033321,"fix_duration":565.6838717748495,"trial":52,"RT":454,"MT":720,"sideResp":1,"stimulus":"img/750/randomdotsizeEA/L/13_Ratio_750_L_8_R_6.png","xmouse":[775,775,775,775,775,775,775,775,775,775,775,775,775,775,775,775,775,776,778,780,782,786,789,790,792,793,793,792,787,782,766,703,657,611,576,548,512,502,496,492,492,492,492,492,492,492,492,492,492,492,492,491,489,489,488,488,488,488,488],"ymouse":[623,623,623,623,623,622,621,621,621,621,621,621,620,618,617,617,617,614,611,606,597,585,571,556,537,513,457,430,410,391,366,326,304,282,261,241,204,184,169,162,160,158,158,158,158,158,158,157,153,151,148,139,134,131,128,123,112,106,99],"timestamp_mouse":[19,42,53,73,93,113,135,154,174,194,214,233,253,274,294,314,333,354,374,394,413,434,454,474,495,515,534,554,573,593,615,634,654,674,694,713,733,754,773,793,813,833,854,874,895,914,935,954,974,995,1015,1034,1054,1073,1094,1114,1133,1153,1173],"xSR":741.5,"ySR":573.95,"xT1":424.9,"yT1":0,"xT2":1058.1,"yT2":0,"toosoon":0,"cond_shown":"randomdotsizeEA","ratio_trial":750,"smaller_num":"6","larger_num":"8","correct_side":1,"subjID":"jorge Alejandro Parra Gomez","gender":"0","age":"10","school":"4"},{"start_time":1552314036378,"click_time":1552314037461,"finger_time":1552314036701,"fix_duration":1317.108506329505,"trial":53,"RT":323,"MT":760,"sideResp":2,"stimulus":"img/250/randomdotsizeEA/R/4_Ratio_250_L_3_R_12.png","xmouse":[762,762,762,762,762,762,762,762,762,762,762,762,762,762,762,762,762,766,770,779,790,827,851,887,952,970,1029,1094,1113,1125,1133,1139,1141,1143,1144,1145,1145,1145,1145,1144,1141,1137,1136,1134,1133,1131,1131,1130,1130,1128,1128,1125,1122,1120,1117],"ymouse":[600,600,594,593,592,590,589,588,588,588,588,587,583,582,581,577,573,557,543,524,500,447,421,397,364,352,307,250,233,220,211,200,194,187,178,168,158,156,154,151,147,141,139,135,131,128,128,124,122,120,119,114,109,106,99],"timestamp_mouse":[13,23,43,62,83,102,123,143,162,183,204,223,242,262,283,302,323,343,363,383,403,423,442,462,482,504,522,544,562,583,602,623,642,664,682,703,724,742,763,783,803,823,842,862,882,902,922,943,963,983,1004,1023,1042,1064,1082],"xSR":741.5,"ySR":573.95,"xT1":424.9,"yT1":0,"xT2":1058.1,"yT2":0,"toosoon":0,"cond_shown":"randomdotsizeEA","ratio_trial":250,"smaller_num":"3","larger_num":"12","correct_side":2,"subjID":"jorge Alejandro Parra Gomez","gender":"0","age":"10","school":"4"},{"start_time":1552314039054,"click_time":1552314040201,"finger_time":1552314039441,"fix_duration":511.33754967673826,"trial":54,"RT":387,"MT":760,"sideResp":1,"stimulus":"img/750/equaldotsize/L/1_Ratio_750_L_20_R_15.png","xmouse":[789,789,789,789,789,789,789,789,789,789,789,789,789,789,789,789,789,789,792,797,799,800,800,795,784,773,760,734,705,691,650,624,602,546,526,514,509,506,498,492,487,483,479,472,469,467,466,466,466,466,466,466,466,466,466,468,470,471],"ymouse":[588,588,588,588,588,588,588,588,588,588,588,588,588,588,588,588,588,588,575,555,547,538,531,506,491,478,463,436,404,391,356,335,318,278,264,253,247,242,228,216,205,195,186,164,156,152,148,148,147,147,147,145,144,141,135,126,111,92],"timestamp_mouse":[20,29,47,68,89,107,127,147,168,187,208,228,247,268,289,307,328,347,367,387,407,427,448,468,489,508,529,549,568,587,608,628,648,667,689,708,727,749,768,788,807,827,847,868,889,907,929,947,968,989,1009,1028,1047,1067,1089,1108,1127,1147],"xSR":741.5,"ySR":573.95,"xT1":424.9,"yT1":0,"xT2":1058.1,"yT2":0,"toosoon":0,"cond_shown":"equaldotsize","ratio_trial":750,"smaller_num":"15","larger_num":"20","correct_side":1,"subjID":"jorge Alejandro Parra Gomez","gender":"0","age":"10","school":"4"},{"start_time":1552314043115,"click_time":1552314044203,"finger_time":1552314043621,"fix_duration":670.1058651121105,"trial":55,"RT":506,"MT":582,"sideResp":2,"stimulus":"img/500/randomdotsizeEA/R/15_Ratio_500_L_1_R_2.png","xmouse":[783,783,783,783,783,783,783,783,783,783,783,783,783,783,783,783,783,783,783,783,784,787,789,793,800,841,869,901,932,950,978,992,1013,1036,1054,1062,1063,1063,1063,1063,1063,1063,1063,1063,1063,1063,1063,1063,1063,1065,1065,1067,1068,1069,1071],"ymouse":[605,605,605,605,605,605,605,605,605,605,605,605,605,605,605,605,605,605,605,605,605,601,598,593,582,529,501,472,450,431,387,363,323,275,220,178,154,151,150,150,150,150,150,150,150,150,150,150,145,138,130,119,113,105,91],"timestamp_mouse":[13,33,46,67,86,106,127,146,166,187,206,228,246,266,288,307,326,346,368,386,406,426,447,466,487,506,526,546,567,587,606,626,647,667,686,706,727,747,766,787,807,827,847,867,887,907,940,947,968,988,1006,1026,1046,1068,1088],"xSR":741.5,"ySR":573.95,"xT1":424.9,"yT1":0,"xT2":1058.1,"yT2":0,"toosoon":0,"cond_shown":"randomdotsizeEA","ratio_trial":500,"smaller_num":"1","larger_num":"2","correct_side":2,"subjID":"jorge Alejandro Parra Gomez","gender":"0","age":"10","school":"4"},{"start_time":1552314051949,"click_time":1552314052821,"finger_time":1552314052462,"fix_duration":1447.584418619115,"trial":56,"RT":513,"MT":359,"sideResp":2,"stimulus":"img/500/randomdotsizeEA/R/9_Ratio_500_L_2_R_4.png","xmouse":[785,785,785,785,785,785,785,785,785,785,785,785,785,785,785,785,785,785,785,785,785,785,785,785,785,782,771,755,746,738,737,737,737,737,737,737,737,737,737,771,826,906,1003,1086],"ymouse":[588,588,588,588,588,588,588,588,588,588,588,588,588,588,588,588,588,588,588,588,588,588,588,588,587,562,512,460,407,355,353,353,353,353,353,353,353,352,352,321,266,181,95,23],"timestamp_mouse":[15,36,52,74,93,112,133,153,174,192,213,233,252,272,293,313,332,353,372,393,413,433,453,472,493,513,532,552,573,592,614,634,652,673,692,712,732,752,773,792,812,834,852,872],"xSR":741.5,"ySR":573.95,"xT1":424.9,"yT1":0,"xT2":1058.1,"yT2":0,"toosoon":0,"cond_shown":"randomdotsizeEA","ratio_trial":500,"smaller_num":"2","larger_num":"4","correct_side":2,"subjID":"jorge Alejandro Parra Gomez","gender":"0","age":"10","school":"4"},{"start_time":1552314055781,"click_time":1552314057122,"finger_time":1552314056283,"fix_duration":258.5450238025977,"trial":57,"RT":502,"MT":839,"sideResp":2,"stimulus":"img/250/randomdotsizeEA/R/9_Ratio_250_L_3_R_12.png","xmouse":[804,804,804,804,804,804,804,804,804,804,804,804,804,804,804,804,804,804,804,804,804,804,804,807,820,846,867,881,898,964,1003,1033,1050,1058,1062,1062,1062,1062,1061,1042,1039,1037,1036,1035,1033,1033,1031,1031,1031,1031,1031,1031,1032,1032,1034,1035,1036,1037,1039,1047,1049,1052,1052,1052,1052,1054,1057,1062],"ymouse":[608,608,608,607,607,607,607,606,606,606,606,606,606,606,606,606,606,606,606,606,606,606,606,599,576,528,494,465,442,391,369,352,341,332,320,314,299,282,263,211,189,179,172,167,160,154,143,137,132,126,123,120,116,112,105,103,101,99,94,81,77,74,74,74,74,70,66,61],"timestamp_mouse":[9,21,40,61,82,100,122,141,160,180,201,220,240,260,282,300,320,340,361,380,400,422,441,461,480,502,520,541,561,581,601,621,640,660,681,701,720,741,760,780,802,821,840,862,881,900,921,940,961,981,1001,1020,1041,1060,1081,1101,1122,1141,1161,1181,1201,1220,1241,1261,1282,1302,1320,1341],"xSR":741.5,"ySR":573.95,"xT1":424.9,"yT1":0,"xT2":1058.1,"yT2":0,"toosoon":0,"cond_shown":"randomdotsizeEA","ratio_trial":250,"smaller_num":"3","larger_num":"12","correct_side":2,"subjID":"jorge Alejandro Parra Gomez","gender":"0","age":"10","school":"4"},{"start_time":1552314060006,"click_time":1552314061042,"finger_time":1552314060341,"fix_duration":1342.6599230867696,"trial":58,"RT":335,"MT":701,"sideResp":2,"stimulus":"img/750/equaldotanddens/R/11_Ratio_750_L_12_R_16.png","xmouse":[799,799,800,802,803,804,805,806,806,806,807,807,809,811,811,813,814,819,821,824,828,831,835,838,843,850,861,874,881,890,901,911,924,928,934,939,943,950,954,957,962,971,1009,1026,1038,1045,1047,1047,1048,1048,1057,1061],"ymouse":[624,624,624,623,622,621,620,619,617,615,612,609,604,592,584,575,563,535,519,503,486,472,438,421,402,384,364,331,313,293,272,251,210,194,180,165,151,129,122,118,115,111,98,93,92,90,90,90,90,89,85,84],"timestamp_mouse":[29,37,55,75,96,117,135,155,177,195,215,236,255,276,296,316,335,355,376,396,415,437,456,477,497,516,535,556,575,596,615,635,655,675,695,716,735,756,775,795,816,836,855,876,896,915,935,956,975,996,1016,1036],"xSR":741.5,"ySR":573.95,"xT1":424.9,"yT1":0,"xT2":1058.1,"yT2":0,"toosoon":0,"cond_shown":"equaldotanddens","ratio_trial":750,"smaller_num":"12","larger_num":"16","correct_side":2,"subjID":"jorge Alejandro Parra Gomez","gender":"0","age":"10","school":"4"},{"start_time":1552314063359,"click_time":1552314064681,"finger_time":1552314063763,"fix_duration":1115.7865166259644,"trial":59,"RT":404,"MT":918,"sideResp":1,"stimulus":"img/750/equaldotanddens/L/6_Ratio_750_L_24_R_18.png","xmouse":[784,784,784,784,784,784,784,784,784,784,784,784,784,784,784,784,786,787,789,790,791,791,787,777,770,737,706,655,596,546,489,314,291,263,256,248,244,241,241,241,241,241,241,241,241,242,261,290,323,361,417,435,440,442,443,446,454,457,457,457,457,461,466,469,469,469,469],"ymouse":[616,616,616,616,616,616,616,616,616,616,616,616,616,616,616,616,607,599,593,587,565,553,537,517,499,447,415,375,335,298,258,150,132,102,87,67,59,52,49,46,46,46,46,46,46,46,51,64,80,95,116,121,123,123,123,123,124,124,124,124,124,123,120,113,108,102,99],"timestamp_mouse":[13,32,43,63,82,102,123,144,163,183,204,224,243,262,282,303,322,343,362,382,404,422,443,462,483,503,523,544,562,583,604,622,643,663,683,703,723,743,762,783,803,823,843,864,883,902,922,942,962,983,1003,1022,1043,1063,1082,1102,1122,1142,1162,1183,1203,1223,1242,1263,1283,1304,1322],"xSR":741.5,"ySR":573.95,"xT1":424.9,"yT1":0,"xT2":1058.1,"yT2":0,"toosoon":0,"cond_shown":"equaldotanddens","ratio_trial":750,"smaller_num":"18","larger_num":"24","correct_side":1,"subjID":"jorge Alejandro Parra Gomez","gender":"0","age":"10","school":"4"},{"start_time":1552314067127,"click_time":1552314068322,"finger_time":1552314067581,"fix_duration":1264.568486669029,"trial":60,"RT":454,"MT":741,"sideResp":1,"stimulus":"img/750/randomdotsizeEA/L/13_Ratio_750_L_8_R_6.png","xmouse":[777,777,777,777,777,777,777,777,777,777,777,777,777,777,776,776,776,776,775,775,775,775,780,786,794,802,807,813,815,817,819,822,830,834,836,840,845,858,865,870,873,874,874,868,833,765,667,557,550,536,522,504,500,499,499,499,499,499,499,499],"ymouse":[609,609,609,609,609,609,608,608,607,607,606,605,602,602,601,600,599,598,597,595,592,587,573,564,548,533,517,491,477,463,451,433,383,368,354,340,328,311,303,296,291,287,285,282,272,253,224,178,165,146,132,112,106,102,101,101,101,100,100,96],"timestamp_mouse":[22,35,55,74,94,115,134,154,175,196,214,235,255,274,295,314,334,355,374,395,415,436,454,475,495,515,534,554,576,596,615,635,654,676,694,714,735,754,775,794,814,835,855,875,894,915,936,954,974,995,1016,1034,1054,1074,1094,1116,1135,1154,1174,1195],"xSR":741.5,"ySR":573.95,"xT1":424.9,"yT1":0,"xT2":1058.1,"yT2":0,"toosoon":0,"cond_shown":"randomdotsizeEA","ratio_trial":750,"smaller_num":"6","larger_num":"8","correct_side":1,"subjID":"jorge Alejandro Parra Gomez","gender":"0","age":"10","school":"4"},{"start_time":1552314074647,"click_time":1552314076382,"finger_time":1552314075262,"fix_duration":463.35816027235876,"trial":61,"RT":615,"MT":1120,"sideResp":1,"stimulus":"img/250/equaldotanddens/L/5_Ratio_250_L_24_R_6.png","xmouse":[807,807,807,807,807,807,807,807,807,807,807,807,807,807,807,807,807,807,807,807,807,805,803,800,798,792,786,775,762,754,747,741,717,708,700,686,646,496,461,453,452,448,443,441,441,441,441,443,443,444,445,445,447,448,449,450,451,454,455,457,458,460,462,464,464,464,465,465,465,465,465,465,465,464,463,463,463,461,461,461,460,460,459,459,458,457,457],"ymouse":[640,640,640,640,640,640,640,640,640,640,640,640,640,640,640,640,640,640,640,640,640,639,636,632,628,622,615,602,587,579,573,566,540,532,524,509,481,407,380,367,361,348,324,306,300,298,296,291,289,288,284,282,273,266,260,254,248,233,227,222,218,215,209,206,201,196,189,179,174,171,168,162,156,154,150,146,142,132,129,126,122,118,112,110,107,103,99],"timestamp_mouse":[15,37,54,74,95,114,134,154,175,194,215,236,254,274,295,315,335,356,375,395,415,434,454,475,495,515,536,554,575,594,615,636,654,675,694,714,736,754,775,795,814,834,854,876,894,915,935,955,974,994,1015,1034,1054,1075,1094,1114,1135,1155,1175,1195,1215,1234,1254,1274,1295,1314,1334,1354,1375,1395,1415,1434,1454,1475,1494,1514,1535,1555,1574,1594,1615,1634,1654,1674,1694,1715,1734],"xSR":741.5,"ySR":573.95,"xT1":424.9,"yT1":0,"xT2":1058.1,"yT2":0,"toosoon":0,"cond_shown":"equaldotanddens","ratio_trial":250,"smaller_num":"6","larger_num":"24","correct_side":1,"subjID":"jorge Alejandro Parra Gomez","gender":"0","age":"10","school":"4"},{"start_time":1552314079022,"click_time":1552314081342,"finger_time":1552314080662,"fix_duration":837.3909655679935,"trial":62,"RT":1640,"MT":680,"sideResp":1,"stimulus":"img/500/equaldotsize/R/9_Ratio_500_L_2_R_4.png","xmouse":[829,829,829,829,829,829,829,829,829,829,829,829,829,829,829,829,829,829,829,829,829,829,829,829,829,829,829,829,829,829,829,829,829,829,829,829,829,829,829,829,829,829,829,829,829,829,829,829,829,829,829,829,829,829,829,829,829,829,829,829,829,829,829,829,829,829,829,829,829,829,829,829,829,829,829,829,829,829,819,811,773,756,735,719,683,666,649,630,611,566,535,529,521,519,519,487,465,465,458,434,436,441,447,448,450,452,454,454,454,454,458,462,469,468,460,457,455],"ymouse":[600,600,600,600,600,600,600,600,600,600,600,600,600,600,600,600,600,600,600,600,600,600,600,600,600,600,600,600,600,600,600,600,600,600,600,600,600,600,600,600,600,600,600,600,600,600,600,600,600,600,600,600,600,600,600,600,600,600,600,600,600,600,600,600,600,600,600,600,600,600,600,600,600,600,600,600,600,600,600,599,592,588,584,577,558,546,533,520,507,475,453,448,434,430,425,368,355,355,353,339,330,320,308,303,298,292,289,286,284,271,232,203,154,123,109,103,95],"timestamp_mouse":[9,20,41,60,80,100,120,139,159,180,199,219,241,260,280,299,320,340,359,380,399,420,441,460,480,500,521,541,559,579,600,619,640,659,680,700,719,739,761,780,800,820,839,860,880,900,919,939,961,980,999,1021,1040,1061,1079,1099,1119,1140,1159,1180,1200,1221,1240,1260,1280,1301,1320,1339,1359,1380,1400,1420,1440,1459,1480,1500,1521,1541,1561,1580,1600,1621,1640,1660,1680,1700,1719,1739,1760,1780,1799,1820,1839,1859,1880,1900,1920,1940,1961,1981,2000,2020,2039,2060,2080,2100,2119,2140,2160,2181,2199,2220,2239,2259,2280,2299,2320],"xSR":741.5,"ySR":573.95,"xT1":424.9,"yT1":0,"xT2":1058.1,"yT2":0,"toosoon":0,"cond_shown":"equaldotsize","ratio_trial":500,"smaller_num":"2","larger_num":"4","correct_side":2,"subjID":"jorge Alejandro Parra Gomez","gender":"0","age":"10","school":"4"},{"start_time":1552314094802,"click_time":1552314095722,"finger_time":1552314095361,"fix_duration":938.9457789394718,"trial":63,"RT":559,"MT":361,"sideResp":1,"stimulus":"img/250/equaldotanddens/L/14_Ratio_250_L_12_R_3.png","xmouse":[797,797,797,797,797,797,797,797,797,797,797,797,797,797,797,797,797,797,797,797,797,797,797,797,797,797,797,787,744,682,617,570,554,553,551,550,550,550,549,548,548,546,538,534,533,527,519],"ymouse":[638,638,638,638,638,638,638,638,638,638,638,638,638,638,638,638,638,638,638,638,638,638,638,638,638,638,638,626,546,454,339,247,180,159,145,133,124,99,89,81,75,69,46,37,32,22,9],"timestamp_mouse":[10,20,39,61,81,99,120,139,161,181,200,220,240,261,280,299,320,340,360,379,399,420,440,459,479,499,519,539,559,581,600,621,639,659,679,699,721,740,760,779,800,819,839,859,879,900,920],"xSR":741.5,"ySR":573.95,"xT1":424.9,"yT1":0,"xT2":1058.1,"yT2":0,"toosoon":0,"cond_shown":"equaldotanddens","ratio_trial":250,"smaller_num":"3","larger_num":"12","correct_side":1,"subjID":"jorge Alejandro Parra Gomez","gender":"0","age":"10","school":"4"},{"start_time":1552314097217,"click_time":1552314098022,"finger_time":1552314097502,"fix_duration":472.4751402168376,"trial":64,"RT":285,"MT":520,"sideResp":1,"stimulus":"img/750/randomdotsizeEA/L/8_Ratio_750_L_4_R_3.png","xmouse":[767,767,767,767,767,767,767,767,767,767,767,767,767,768,768,767,758,751,744,733,720,705,681,676,669,663,658,640,634,628,623,603,590,576,560,552,540,535,530,526,522],"ymouse":[587,587,587,587,587,587,587,587,587,587,587,587,587,576,554,541,512,496,476,441,394,350,290,275,251,231,208,166,154,144,136,114,101,90,77,70,62,59,58,56,54],"timestamp_mouse":[10,25,44,64,85,105,125,144,164,185,205,225,245,265,285,304,325,345,365,384,405,424,444,465,484,504,525,546,564,584,605,625,644,665,684,704,725,744,764,784,805],"xSR":741.5,"ySR":573.95,"xT1":424.9,"yT1":0,"xT2":1058.1,"yT2":0,"toosoon":0,"cond_shown":"randomdotsizeEA","ratio_trial":750,"smaller_num":"3","larger_num":"4","correct_side":1,"subjID":"jorge Alejandro Parra Gomez","gender":"0","age":"10","school":"4"},{"start_time":1552314100936,"click_time":1552314102102,"finger_time":1552314101443,"fix_duration":250,"trial":65,"RT":507,"MT":659,"sideResp":1,"stimulus":"img/250/equaldotanddens/L/14_Ratio_250_L_12_R_3.png","xmouse":[775,775,775,775,775,775,775,775,775,775,775,775,775,775,775,775,775,775,775,775,775,775,775,775,774,766,739,718,711,704,697,680,663,648,637,628,608,598,596,596,596,596,593,589,577,564,546,542,536,532,530,530,530,530,530,530,529,526,517],"ymouse":[604,604,604,604,604,604,604,604,604,604,604,604,604,604,604,604,604,604,604,604,604,604,604,596,584,551,424,352,327,301,272,226,201,184,170,159,132,119,116,116,116,116,112,109,101,94,85,82,79,76,74,74,74,74,74,74,73,69,60],"timestamp_mouse":[13,34,46,67,86,106,126,146,167,186,206,226,246,266,286,306,327,346,366,386,407,426,446,466,487,507,526,547,567,586,607,626,647,666,686,706,726,747,766,786,806,826,847,866,886,907,926,946,966,986,1006,1026,1047,1066,1086,1107,1127,1146,1166],"xSR":741.5,"ySR":573.95,"xT1":424.9,"yT1":0,"xT2":1058.1,"yT2":0,"toosoon":0,"cond_shown":"equaldotanddens","ratio_trial":250,"smaller_num":"3","larger_num":"12","correct_side":1,"subjID":"jorge Alejandro Parra Gomez","gender":"0","age":"10","school":"4"},{"start_time":1552314104427,"click_time":1552314106104,"finger_time":1552314105163,"fix_duration":1143.4857035249897,"trial":66,"RT":736,"MT":941,"sideResp":1,"stimulus":"img/900/equaldotsize/L/1_Ratio_900_L_10_R_9.png","xmouse":[767,767,767,767,767,767,767,767,767,767,767,767,767,767,767,767,767,767,767,767,767,767,767,767,767,767,767,767,769,769,770,770,770,770,772,782,805,814,822,830,843,887,906,924,943,962,994,1003,1008,1010,1010,1010,1010,1010,1007,999,949,922,892,871,853,802,781,771,762,753,745,745,745,745,742,693,656,604,566,553,552,552,551,551,551,543,530,510],"ymouse":[614,614,614,614,614,614,614,614,614,614,614,614,614,614,614,614,614,614,614,614,614,614,614,614,614,614,614,614,607,606,602,600,600,599,597,592,571,560,548,534,514,465,447,433,419,400,357,342,335,332,332,332,332,332,330,329,321,316,303,288,271,196,162,141,124,111,106,106,106,106,106,102,96,87,78,72,71,71,71,71,69,61,54,43],"timestamp_mouse":[28,40,56,76,95,115,135,156,176,195,216,235,255,276,296,316,335,356,377,395,415,436,456,475,496,516,536,556,576,595,616,636,656,675,695,715,736,755,775,796,815,835,855,875,896,915,935,955,975,995,1015,1036,1055,1076,1096,1116,1135,1155,1176,1196,1216,1235,1255,1275,1295,1315,1335,1355,1376,1395,1415,1436,1455,1476,1496,1515,1536,1555,1576,1595,1615,1635,1655,1676],"xSR":741.5,"ySR":573.95,"xT1":424.9,"yT1":0,"xT2":1058.1,"yT2":0,"toosoon":0,"cond_shown":"equaldotsize","ratio_trial":900,"smaller_num":"9","larger_num":"10","correct_side":1,"subj