[{"start_time":1552312663191,"click_time":1552312665535,"finger_time":1552312664955,"fix_duration":1171.1392180134146,"trial":0,"RT":1764,"MT":580,"sideResp":2,"stimulus":[],"xmouse":[805,805,805,805,805,805,805,805,805,805,805,805,805,805,805,805,805,805,805,805,805,805,805,805,805,805,805,805,805,805,805,805,805,805,805,805,805,805,805,805,805,805,805,805,805,805,805,805,805,805,805,805,805,805,805,805,805,805,805,805,805,805,805,805,805,805,805,805,805,805,805,805,805,805,805,805,806,807,808,810,815,816,816,816,816,817,819,835,903,1111,1223,1240,1244,1244,1245,1245,1242,1235,1218,1212,1205,1203,1201,1200,1200,1203,1210,1219,1227,1227,1226,1225,1224,1221,1204,1186,1161,1141],"ymouse":[512,512,512,512,512,512,512,512,512,512,512,512,512,512,512,512,512,512,512,512,512,512,512,512,512,512,512,512,512,512,512,512,512,512,512,512,512,512,512,512,512,512,512,512,512,512,512,512,512,512,512,512,512,512,512,512,512,512,512,512,512,512,512,512,512,512,512,512,512,512,512,512,512,512,512,512,513,514,516,523,527,529,529,529,529,529,529,512,462,365,349,345,342,340,336,333,327,320,282,261,241,234,229,225,210,192,171,150,115,98,96,94,91,89,82,77,68,60],"timestamp_mouse":[9,37,43,63,84,105,124,143,163,183,203,223,244,263,284,303,324,343,365,384,405,424,443,463,483,503,525,543,563,583,603,623,643,664,684,704,723,743,763,785,803,824,844,864,884,905,924,944,963,983,1003,1023,1044,1063,1084,1103,1125,1144,1163,1184,1203,1224,1245,1263,1283,1305,1323,1344,1363,1385,1403,1424,1444,1463,1485,1503,1524,1544,1564,1584,1604,1623,1644,1664,1684,1703,1723,1745,1764,1784,1803,1823,1843,1864,1884,1903,1924,1944,1965,1983,2004,2023,2044,2064,2083,2104,2124,2144,2165,2183,2204,2223,2243,2264,2283,2304,2324,2344],"xSR":741.5,"ySR":469.95,"xT1":424.9,"yT1":0,"xT2":1058.1,"yT2":0,"toosoon":0,"cond_shown":"Congruent","ratio_trial":100,"L_num":6,"L_den":20,"R_num":5,"R_den":25,"correct_side":1,"subjID":"jorgealejandroparra21","gender":"0","age":"10","school":"4","test":{"fix_dur":[250,1500],"timestim":1000,"targets_dim":[100,100],"targets_relative_coord":[0.3,0.7],"size_stim":[880,420],"start_dim":[100,100],"size_start":[300,300],"size_fix":60,"samplingrate":20,"img_types":["Congruent","Incongruent"],"ratios":[100,200,300],"rep_conds":19,"nTrials":120,"trials_to_rest":500,"Trials_order":[12,93,24,63,109,32,31,22,26,7,54,60,13,33,111,95,92,50,102,9,8,90,59,78,73,119,46,65,87,107,19,41,86,23,66,4,47,28,25,30,105,91,77,116,14,0,83,5,2,75,39,43,104,113,106,108,15,67,51,118,94,17,70,10,29,3,38,99,45,117,101,57,114,58,37,49,89,40,64,88,100,18,34,52,68,20,71,21,44,97,53,35,96,76,11,36,81,72,82,48,55,27,80,115,16,110,112,56,85,79,69,84,42,61,1,103,74,6,98,62],"cond_shown":["Congruent","Incongruent","Congruent","Incongruent","Incongruent","Congruent","Incongruent","Congruent","Congruent","Incongruent","Congruent","Congruent","Incongruent","Incongruent","Incongruent","Incongruent","Congruent","Congruent","Congruent","Incongruent","Congruent","Congruent","Incongruent","Congruent","Incongruent","Incongruent","Congruent","Incongruent","Incongruent","Incongruent","Incongruent","Incongruent","Congruent","Incongruent","Congruent","Congruent","Incongruent","Congruent","Incongruent","Congruent","Incongruent","Incongruent","Incongruent","Congruent","Congruent","Congruent","Incongruent","Incongruent","Congruent","Incongruent","Incongruent","Incongruent","Congruent","Incongruent","Congruent","Congruent","Incongruent","Incongruent","Incongruent","Congruent","Congruent","Incongruent","Congruent","Congruent","Incongruent","Incongruent","Congruent","Incongruent","Incongruent","Incongruent","Incongruent","Incongruent","Congruent","Congruent","Incongruent","Incongruent","Incongruent","Congruent","Congruent","Congruent","Congruent","Congruent","Congruent","Congruent","Congruent","Congruent","Incongruent","Incongruent","Congruent","Incongruent","Incongruent","Incongruent","Congruent","Congruent","Incongruent","Congruent","Incongruent","Congruent","Congruent","Congruent","Incongruent","Incongruent","Congruent","Incongruent","Congruent","Congruent","Congruent","Congruent","Incongruent","Incongruent","Incongruent","Congruent","Congruent","Incongruent","Incongruent","Incongruent","Congruent","Congruent","Congruent","Congruent"],"ratio_trial":[100,200,100,200,100,200,100,300,200,100,100,100,100,200,200,300,200,200,100,200,200,100,300,100,100,300,300,300,200,300,100,300,200,300,100,300,300,300,100,100,200,100,300,200,200,100,300,300,200,200,200,100,200,300,300,100,200,100,200,300,300,300,300,300,300,200,200,200,200,200,300,200,100,300,100,100,300,300,300,300,300,100,300,300,200,200,300,200,200,100,300,300,100,300,300,100,200,100,300,100,100,200,200,100,300,200,300,200,100,100,200,100,100,100,100,100,200,100,200,200],"left_num":[6,4,8,1,3,6,2,5,8,13,2,1,6,11,7,13,6,12,3,7,8,10,4,10,9,1,4,4,1,1,13,4,6,4,8,1,1,11,6,7,7,3,4,6,3,4,4,4,4,7,9,9,13,8,3,15,14,13,6,9,2,4,9,3,3,7,3,1,1,6,13,6,10,4,3,17,2,4,9,1,11,3,1,1,5,16,1,6,9,8,4,4,9,3,8,11,9,8,11,1,6,7,12,10,1,1,1,1,10,1,7,15,1,2,3,3,16,11,7,5],"right_num":[5,6,2,3,7,11,6,6,3,12,11,3,11,3,8,12,7,6,2,8,2,3,2,3,6,2,2,6,3,3,6,2,3,2,2,19,3,4,11,9,6,11,2,3,7,6,6,2,3,6,8,14,14,14,2,13,12,6,3,3,12,2,3,4,4,12,14,3,3,3,12,3,3,1,4,10,6,1,3,7,4,2,8,7,14,12,2,3,13,1,2,2,8,11,9,6,8,2,4,18,13,14,6,8,3,21,8,21,8,8,12,13,18,8,8,11,9,4,2,14],"left_den":[20,5,16,2,9,20,4,25,15,26,5,2,10,20,10,26,12,20,6,10,15,25,20,25,18,2,5,5,2,2,26,20,15,20,16,3,2,22,10,14,15,5,20,15,10,8,5,20,8,15,15,15,26,10,6,25,30,26,20,10,10,20,10,6,6,10,10,2,2,20,26,20,25,10,6,30,4,10,10,20,22,6,30,20,10,20,2,20,30,20,20,20,15,12,10,22,15,16,22,2,10,10,15,25,5,2,30,2,25,2,10,25,2,4,5,5,30,22,21,10],"right_den":[25,10,5,10,30,22,15,12,9,20,22,5,22,4,16,15,10,15,5,16,6,10,4,10,10,10,4,12,10,15,10,4,15,4,5,30,15,20,22,15,9,22,4,15,14,10,12,4,10,9,10,28,20,28,10,26,18,10,6,5,24,4,5,5,20,24,28,10,10,6,15,6,10,10,10,15,30,10,5,20,20,5,24,20,20,20,10,6,26,2,4,4,16,20,18,15,10,5,20,30,26,28,10,16,6,30,24,30,16,20,24,26,30,20,16,22,27,10,15,20],"correct_side":[1,1,1,1,1,2,1,2,1,2,2,2,1,2,1,2,2,1,1,1,1,1,2,1,2,1,1,1,1,1,2,2,1,2,1,2,1,1,1,2,2,1,2,1,2,2,1,2,1,2,2,1,2,1,1,1,2,2,2,1,2,2,1,2,1,1,2,1,1,2,2,2,1,1,1,2,1,1,1,2,1,1,2,2,2,1,1,2,2,2,2,2,1,2,1,1,2,1,1,2,1,1,1,2,2,2,2,2,2,1,1,1,2,1,1,1,1,1,1,2],"img_shown":["img2/100/Congruent/L/C_Dist_100_LN_6_LD_20_RN_5_RD_25_0.png","img2/200/Incongruent/L/I_Dist_200_LN_4_LD_5_RN_6_RD_10_0.png","img2/100/Congruent/L/C_Dist_100_LN_8_LD_16_RN_2_RD_5_0.png","img2/200/Incongruent/L/I_Dist_200_LN_1_LD_2_RN_3_RD_10_0.png","img2/100/Incongruent/L/I_Dist_100_LN_3_LD_9_RN_7_RD_30_0.png","img2/200/Congruent/R/C_Dist_200_LN_6_LD_20_RN_11_RD_22_1.png","img2/100/Incongruent/L/I_Dist_100_LN_2_LD_4_RN_6_RD_15_0.png","img2/300/Congruent/R/C_Dist_300_LN_5_LD_25_RN_6_RD_12_1.png","img2/200/Congruent/L/C_Dist_200_LN_8_LD_15_RN_3_RD_9_0.png","img2/100/Incongruent/R/I_Dist_100_LN_13_LD_26_RN_12_RD_20_1.png","img2/100/Congruent/R/C_Dist_100_LN_2_LD_5_RN_11_RD_22_1.png","img2/100/Congruent/R/C_Dist_100_LN_1_LD_2_RN_3_RD_5_1.png","img2/100/Incongruent/L/I_Dist_100_LN_6_LD_10_RN_11_RD_22_0.png","img2/200/Incongruent/R/I_Dist_200_LN_11_LD_20_RN_3_RD_4_1.png","img2/200/Incongruent/L/I_Dist_200_LN_7_LD_10_RN_8_RD_16_0.png","img2/300/Incongruent/R/I_Dist_300_LN_13_LD_26_RN_12_RD_15_1.png","img2/200/Congruent/R/C_Dist_200_LN_6_LD_12_RN_7_RD_10_1.png","img2/200/Congruent/L/C_Dist_200_LN_12_LD_20_RN_6_RD_15_0.png","img2/100/Congruent/L/C_Dist_100_LN_3_LD_6_RN_2_RD_5_0.png","img2/200/Incongruent/L/I_Dist_200_LN_7_LD_10_RN_8_RD_16_0.png","img2/200/Congruent/L/C_Dist_200_LN_8_LD_15_RN_2_RD_6_0.png","img2/100/Congruent/L/C_Dist_100_LN_10_LD_25_RN_3_RD_10_0.png","img2/300/Incongruent/R/I_Dist_300_LN_4_LD_20_RN_2_RD_4_1.png","img2/100/Congruent/L/C_Dist_100_LN_10_LD_25_RN_3_RD_10_0.png","img2/100/Incongruent/R/I_Dist_100_LN_9_LD_18_RN_6_RD_10_1.png","img2/300/Incongruent/L/I_Dist_300_LN_1_LD_2_RN_2_RD_10_0.png","img2/300/Congruent/L/C_Dist_300_LN_4_LD_5_RN_2_RD_4_0.png","img2/300/Incongruent/L/I_Dist_300_LN_4_LD_5_RN_6_RD_12_0.png","img2/200/Incongruent/L/I_Dist_200_LN_1_LD_2_RN_3_RD_10_0.png","img2/300/Incongruent/L/I_Dist_300_LN_1_LD_2_RN_3_RD_15_0.png","img2/100/Incongruent/R/I_Dist_100_LN_13_LD_26_RN_6_RD_10_1.png","img2/300/Incongruent/R/I_Dist_300_LN_4_LD_20_RN_2_RD_4_1.png","img2/200/Congruent/L/C_Dist_200_LN_6_LD_15_RN_3_RD_15_0.png","img2/300/Incongruent/R/I_Dist_300_LN_4_LD_20_RN_2_RD_4_1.png","img2/100/Congruent/L/C_Dist_100_LN_8_LD_16_RN_2_RD_5_0.png","img2/300/Congruent/R/C_Dist_300_LN_1_LD_3_RN_19_RD_30_1.png","img2/300/Incongruent/L/I_Dist_300_LN_1_LD_2_RN_3_RD_15_0.png","img2/300/Congruent/L/C_Dist_300_LN_11_LD_22_RN_4_RD_20_0.png","img2/100/Incongruent/L/I_Dist_100_LN_6_LD_10_RN_11_RD_22_0.png","img2/100/Congruent/R/C_Dist_100_LN_7_LD_14_RN_9_RD_15_1.png","img2/200/Incongruent/R/I_Dist_200_LN_7_LD_15_RN_6_RD_9_1.png","img2/100/Incongruent/L/I_Dist_100_LN_3_LD_5_RN_11_RD_22_0.png","img2/300/Incongruent/R/I_Dist_300_LN_4_LD_20_RN_2_RD_4_1.png","img2/200/Congruent/L/C_Dist_200_LN_6_LD_15_RN_3_RD_15_0.png","img2/200/Congruent/R/C_Dist_200_LN_3_LD_10_RN_7_RD_14_1.png","img2/100/Congruent/R/C_Dist_100_LN_4_LD_8_RN_6_RD_10_1.png","img2/300/Incongruent/L/I_Dist_300_LN_4_LD_5_RN_6_RD_12_0.png","img2/300/Incongruent/R/I_Dist_300_LN_4_LD_20_RN_2_RD_4_1.png","img2/200/Congruent/L/C_Dist_200_LN_4_LD_8_RN_3_RD_10_0.png","img2/200/Incongruent/R/I_Dist_200_LN_7_LD_15_RN_6_RD_9_1.png","img2/200/Incongruent/R/I_Dist_200_LN_9_LD_15_RN_8_RD_10_1.png","img2/100/Incongruent/L/I_Dist_100_LN_9_LD_15_RN_14_RD_28_0.png","img2/200/Congruent/R/C_Dist_200_LN_13_LD_26_RN_14_RD_20_1.png","img2/300/Incongruent/L/I_Dist_300_LN_8_LD_10_RN_14_RD_28_0.png","img2/300/Congruent/L/C_Dist_300_LN_3_LD_6_RN_2_RD_10_0.png","img2/100/Congruent/L/C_Dist_100_LN_15_LD_25_RN_13_RD_26_0.png","img2/200/Incongruent/R/I_Dist_200_LN_14_LD_30_RN_12_RD_18_1.png","img2/100/Incongruent/R/I_Dist_100_LN_13_LD_26_RN_6_RD_10_1.png","img2/200/Incongruent/R/I_Dist_200_LN_6_LD_20_RN_3_RD_6_1.png","img2/300/Congruent/L/C_Dist_300_LN_9_LD_10_RN_3_RD_5_0.png","img2/300/Congruent/R/C_Dist_300_LN_2_LD_10_RN_12_RD_24_1.png","img2/300/Incongruent/R/I_Dist_300_LN_4_LD_20_RN_2_RD_4_1.png","img2/300/Congruent/L/C_Dist_300_LN_9_LD_10_RN_3_RD_5_0.png","img2/300/Congruent/R/C_Dist_300_LN_3_LD_6_RN_4_RD_5_1.png","img2/300/Incongruent/L/I_Dist_300_LN_3_LD_6_RN_4_RD_20_0.png","img2/200/Incongruent/L/I_Dist_200_LN_7_LD_10_RN_12_RD_24_0.png","img2/200/Congruent/R/C_Dist_200_LN_3_LD_10_RN_14_RD_28_1.png","img2/200/Incongruent/L/I_Dist_200_LN_1_LD_2_RN_3_RD_10_0.png","img2/200/Incongruent/L/I_Dist_200_LN_1_LD_2_RN_3_RD_10_0.png","img2/200/Incongruent/R/I_Dist_200_LN_6_LD_20_RN_3_RD_6_1.png","img2/300/Incongruent/R/I_Dist_300_LN_13_LD_26_RN_12_RD_15_1.png","img2/200/Incongruent/R/I_Dist_200_LN_6_LD_20_RN_3_RD_6_1.png","img2/100/Congruent/L/C_Dist_100_LN_10_LD_25_RN_3_RD_10_0.png","img2/300/Congruent/L/C_Dist_300_LN_4_LD_10_RN_1_RD_10_0.png","img2/100/Incongruent/L/I_Dist_100_LN_3_LD_6_RN_4_RD_10_0.png","img2/100/Incongruent/R/I_Dist_100_LN_17_LD_30_RN_10_RD_15_1.png","img2/300/Incongruent/L/I_Dist_300_LN_2_LD_4_RN_6_RD_30_0.png","img2/300/Congruent/L/C_Dist_300_LN_4_LD_10_RN_1_RD_10_0.png","img2/300/Congruent/L/C_Dist_300_LN_9_LD_10_RN_3_RD_5_0.png","img2/300/Congruent/R/C_Dist_300_LN_1_LD_20_RN_7_RD_20_1.png","img2/300/Congruent/L/C_Dist_300_LN_11_LD_22_RN_4_RD_20_0.png","img2/100/Congruent/L/C_Dist_100_LN_3_LD_6_RN_2_RD_5_0.png","img2/300/Congruent/R/C_Dist_300_LN_1_LD_30_RN_8_RD_24_1.png","img2/300/Congruent/R/C_Dist_300_LN_1_LD_20_RN_7_RD_20_1.png","img2/200/Congruent/R/C_Dist_200_LN_5_LD_10_RN_14_RD_20_1.png","img2/200/Congruent/L/C_Dist_200_LN_16_LD_20_RN_12_RD_20_0.png","img2/300/Incongruent/L/I_Dist_300_LN_1_LD_2_RN_2_RD_10_0.png","img2/200/Incongruent/R/I_Dist_200_LN_6_LD_20_RN_3_RD_6_1.png","img2/200/Congruent/R/C_Dist_200_LN_9_LD_30_RN_13_RD_26_1.png","img2/100/Incongruent/R/I_Dist_100_LN_8_LD_20_RN_1_RD_2_1.png","img2/300/Incongruent/R/I_Dist_300_LN_4_LD_20_RN_2_RD_4_1.png","img2/300/Incongruent/R/I_Dist_300_LN_4_LD_20_RN_2_RD_4_1.png","img2/100/Congruent/L/C_Dist_100_LN_9_LD_15_RN_8_RD_16_0.png","img2/300/Congruent/R/C_Dist_300_LN_3_LD_12_RN_11_RD_20_1.png","img2/300/Incongruent/L/I_Dist_300_LN_8_LD_10_RN_9_RD_18_0.png","img2/100/Congruent/L/C_Dist_100_LN_11_LD_22_RN_6_RD_15_0.png","img2/200/Incongruent/R/I_Dist_200_LN_9_LD_15_RN_8_RD_10_1.png","img2/100/Congruent/L/C_Dist_100_LN_8_LD_16_RN_2_RD_5_0.png","img2/300/Congruent/L/C_Dist_300_LN_11_LD_22_RN_4_RD_20_0.png","img2/100/Congruent/R/C_Dist_100_LN_1_LD_2_RN_18_RD_30_1.png","img2/100/Incongruent/L/I_Dist_100_LN_6_LD_10_RN_13_RD_26_0.png","img2/200/Incongruent/L/I_Dist_200_LN_7_LD_10_RN_14_RD_28_0.png","img2/200/Congruent/L/C_Dist_200_LN_12_LD_15_RN_6_RD_10_0.png","img2/100/Incongruent/R/I_Dist_100_LN_10_LD_25_RN_8_RD_16_1.png","img2/300/Congruent/R/C_Dist_300_LN_1_LD_5_RN_3_RD_6_1.png","img2/200/Congruent/R/C_Dist_200_LN_1_LD_2_RN_21_RD_30_1.png","img2/300/Congruent/R/C_Dist_300_LN_1_LD_30_RN_8_RD_24_1.png","img2/200/Congruent/R/C_Dist_200_LN_1_LD_2_RN_21_RD_30_1.png","img2/100/Incongruent/R/I_Dist_100_LN_10_LD_25_RN_8_RD_16_1.png","img2/100/Incongruent/L/I_Dist_100_LN_1_LD_2_RN_8_RD_20_0.png","img2/200/Incongruent/L/I_Dist_200_LN_7_LD_10_RN_12_RD_24_0.png","img2/100/Congruent/L/C_Dist_100_LN_15_LD_25_RN_13_RD_26_0.png","img2/100/Congruent/R/C_Dist_100_LN_1_LD_2_RN_18_RD_30_1.png","img2/100/Incongruent/L/I_Dist_100_LN_2_LD_4_RN_8_RD_20_0.png","img2/100/Incongruent/L/I_Dist_100_LN_3_LD_5_RN_8_RD_16_0.png","img2/100/Incongruent/L/I_Dist_100_LN_3_LD_5_RN_11_RD_22_0.png","img2/200/Congruent/L/C_Dist_200_LN_16_LD_30_RN_9_RD_27_0.png","img2/100/Congruent/L/C_Dist_100_LN_11_LD_22_RN_4_RD_10_0.png","img2/200/Congruent/L/C_Dist_200_LN_7_LD_21_RN_2_RD_15_0.png","img2/200/Congruent/R/C_Dist_200_LN_5_LD_10_RN_14_RD_20_1.png"],"dist100_C":[["C_Dist_100_LN_10_LD_25_RN_3_RD_10_0.png","C_Dist_100_LN_11_LD_22_RN_4_RD_10_0.png","C_Dist_100_LN_11_LD_22_RN_6_RD_15_0.png","C_Dist_100_LN_15_LD_25_RN_13_RD_26_0.png","C_Dist_100_LN_3_LD_6_RN_2_RD_5_0.png","C_Dist_100_LN_6_LD_20_RN_5_RD_25_0.png","C_Dist_100_LN_8_LD_16_RN_2_RD_5_0.png","C_Dist_100_LN_9_LD_15_RN_8_RD_16_0.png"],["C_Dist_100_LN_1_LD_2_RN_18_RD_30_1.png","C_Dist_100_LN_1_LD_2_RN_3_RD_5_1.png","C_Dist_100_LN_12_LD_30_RN_13_RD_26_1.png","C_Dist_100_LN_2_LD_5_RN_11_RD_22_1.png","C_Dist_100_LN_2_LD_5_RN_6_RD_12_1.png","C_Dist_100_LN_3_LD_20_RN_4_RD_16_1.png","C_Dist_100_LN_4_LD_10_RN_15_RD_30_1.png","C_Dist_100_LN_4_LD_8_RN_6_RD_10_1.png","C_Dist_100_LN_6_LD_12_RN_15_RD_25_1.png","C_Dist_100_LN_7_LD_14_RN_15_RD_25_1.png","C_Dist_100_LN_7_LD_14_RN_9_RD_15_1.png"]],"dist100_I":[["I_Dist_100_LN_1_LD_2_RN_8_RD_20_0.png","I_Dist_100_LN_2_LD_4_RN_6_RD_15_0.png","I_Dist_100_LN_2_LD_4_RN_8_RD_20_0.png","I_Dist_100_LN_3_LD_5_RN_11_RD_22_0.png","I_Dist_100_LN_3_LD_5_RN_8_RD_16_0.png","I_Dist_100_LN_3_LD_6_RN_4_RD_10_0.png","I_Dist_100_LN_3_LD_9_RN_7_RD_30_0.png","I_Dist_100_LN_4_LD_8_RN_8_RD_20_0.png","I_Dist_100_LN_6_LD_10_RN_11_RD_22_0.png","I_Dist_100_LN_6_LD_10_RN_13_RD_26_0.png","I_Dist_100_LN_6_LD_10_RN_7_RD_14_0.png","I_Dist_100_LN_9_LD_10_RN_20_RD_25_0.png","I_Dist_100_LN_9_LD_15_RN_13_RD_26_0.png","I_Dist_100_LN_9_LD_15_RN_14_RD_28_0.png"],["I_Dist_100_LN_10_LD_25_RN_8_RD_16_1.png","I_Dist_100_LN_10_LD_25_RN_9_RD_18_1.png","I_Dist_100_LN_11_LD_22_RN_9_RD_15_1.png","I_Dist_100_LN_12_LD_24_RN_9_RD_15_1.png","I_Dist_100_LN_12_LD_30_RN_2_RD_4_1.png","I_Dist_100_LN_13_LD_26_RN_12_RD_20_1.png","I_Dist_100_LN_13_LD_26_RN_6_RD_10_1.png","I_Dist_100_LN_17_LD_30_RN_10_RD_15_1.png","I_Dist_100_LN_6_LD_12_RN_3_RD_5_1.png","I_Dist_100_LN_8_LD_16_RN_6_RD_10_1.png","I_Dist_100_LN_8_LD_20_RN_1_RD_2_1.png","I_Dist_100_LN_9_LD_18_RN_6_RD_10_1.png"]],"dist100_S":[["E_Dist_100_LN_2_LD_12_RN_2_RD_30_0.png","E_Dist_100_LN_6_LD_10_RN_6_RD_12_0.png"],["E_Dist_100_LN_6_LD_12_RN_6_RD_10_1.png"]],"dist200_C":[["C_Dist_200_LN_11_LD_22_RN_3_RD_10_0.png","C_Dist_200_LN_12_LD_15_RN_6_RD_10_0.png","C_Dist_200_LN_12_LD_20_RN_6_RD_15_0.png","C_Dist_200_LN_14_LD_28_RN_6_RD_20_0.png","C_Dist_200_LN_15_LD_25_RN_4_RD_10_0.png","C_Dist_200_LN_16_LD_20_RN_12_RD_20_0.png","C_Dist_200_LN_16_LD_30_RN_9_RD_27_0.png","C_Dist_200_LN_20_LD_25_RN_9_RD_15_0.png","C_Dist_200_LN_21_LD_30_RN_2_RD_4_0.png","C_Dist_200_LN_4_LD_10_RN_3_RD_15_0.png","C_Dist_200_LN_4_LD_8_RN_3_RD_10_0.png","C_Dist_200_LN_6_LD_15_RN_3_RD_15_0.png","C_Dist_200_LN_7_LD_21_RN_2_RD_15_0.png","C_Dist_200_LN_8_LD_15_RN_2_RD_6_0.png","C_Dist_200_LN_8_LD_15_RN_3_RD_9_0.png","C_Dist_200_LN_8_LD_15_RN_7_RD_21_0.png","C_Dist_200_LN_9_LD_20_RN_4_RD_16_0.png"],["C_Dist_200_LN_1_LD_2_RN_21_RD_30_1.png","C_Dist_200_LN_13_LD_26_RN_14_RD_20_1.png","C_Dist_200_LN_3_LD_10_RN_11_RD_22_1.png","C_Dist_200_LN_3_LD_10_RN_14_RD_28_1.png","C_Dist_200_LN_3_LD_10_RN_7_RD_14_1.png","C_Dist_200_LN_3_LD_12_RN_9_RD_20_1.png","C_Dist_200_LN_3_LD_6_RN_14_RD_20_1.png","C_Dist_200_LN_5_LD_10_RN_14_RD_20_1.png","C_Dist_200_LN_6_LD_12_RN_7_RD_10_1.png","C_Dist_200_LN_6_LD_20_RN_11_RD_22_1.png","C_Dist_200_LN_7_LD_15_RN_18_RD_27_1.png","C_Dist_200_LN_9_LD_30_RN_13_RD_26_1.png"]],"dist200_I":[["I_Dist_200_LN_1_LD_2_RN_3_RD_10_0.png","I_Dist_200_LN_1_LD_3_RN_2_RD_15_0.png","I_Dist_200_LN_3_LD_4_RN_11_RD_20_0.png","I_Dist_200_LN_4_LD_5_RN_6_RD_10_0.png","I_Dist_200_LN_4_LD_6_RN_14_RD_30_0.png","I_Dist_200_LN_7_LD_10_RN_12_RD_24_0.png","I_Dist_200_LN_7_LD_10_RN_14_RD_28_0.png","I_Dist_200_LN_7_LD_10_RN_8_RD_16_0.png"],["I_Dist_200_LN_11_LD_20_RN_3_RD_4_1.png","I_Dist_200_LN_14_LD_30_RN_12_RD_18_1.png","I_Dist_200_LN_14_LD_30_RN_6_RD_9_1.png","I_Dist_200_LN_3_LD_10_RN_1_RD_2_1.png","I_Dist_200_LN_4_LD_30_RN_1_RD_3_1.png","I_Dist_200_LN_6_LD_20_RN_3_RD_6_1.png","I_Dist_200_LN_7_LD_15_RN_4_RD_6_1.png","I_Dist_200_LN_7_LD_15_RN_6_RD_9_1.png","I_Dist_200_LN_9_LD_15_RN_8_RD_10_1.png"]],"dist200_S":[["E_Dist_200_LN_3_LD_6_RN_3_RD_10_0.png"],["E_Dist_200_LN_3_LD_10_RN_3_RD_6_1.png"]],"dist300_C":[["C_Dist_300_LN_11_LD_22_RN_1_RD_5_0.png","C_Dist_300_LN_11_LD_22_RN_2_RD_10_0.png","C_Dist_300_LN_11_LD_22_RN_4_RD_20_0.png","C_Dist_300_LN_12_LD_24_RN_2_RD_10_0.png","C_Dist_300_LN_18_LD_20_RN_9_RD_15_0.png","C_Dist_300_LN_20_LD_25_RN_13_RD_26_0.png","C_Dist_300_LN_20_LD_25_RN_14_RD_28_0.png","C_Dist_300_LN_20_LD_25_RN_5_RD_10_0.png","C_Dist_300_LN_20_LD_25_RN_8_RD_16_0.png","C_Dist_300_LN_20_LD_25_RN_9_RD_18_0.png","C_Dist_300_LN_24_LD_30_RN_2_RD_4_0.png","C_Dist_300_LN_24_LD_30_RN_8_RD_16_0.png","C_Dist_300_LN_3_LD_6_RN_2_RD_10_0.png","C_Dist_300_LN_4_LD_10_RN_1_RD_10_0.png","C_Dist_300_LN_4_LD_5_RN_2_RD_4_0.png","C_Dist_300_LN_8_LD_16_RN_1_RD_5_0.png","C_Dist_300_LN_9_LD_10_RN_3_RD_5_0.png"],["C_Dist_300_LN_1_LD_20_RN_7_RD_20_1.png","C_Dist_300_LN_1_LD_3_RN_19_RD_30_1.png","C_Dist_300_LN_1_LD_30_RN_8_RD_24_1.png","C_Dist_300_LN_1_LD_5_RN_11_RD_22_1.png","C_Dist_300_LN_1_LD_5_RN_3_RD_6_1.png","C_Dist_300_LN_1_LD_5_RN_6_RD_12_1.png","C_Dist_300_LN_2_LD_10_RN_12_RD_24_1.png","C_Dist_300_LN_2_LD_20_RN_10_RD_25_1.png","C_Dist_300_LN_3_LD_12_RN_11_RD_20_1.png","C_Dist_300_LN_3_LD_6_RN_4_RD_5_1.png","C_Dist_300_LN_4_LD_20_RN_13_RD_26_1.png","C_Dist_300_LN_5_LD_25_RN_6_RD_12_1.png","C_Dist_300_LN_5_LD_25_RN_7_RD_14_1.png","C_Dist_300_LN_7_LD_14_RN_20_RD_25_1.png","C_Dist_300_LN_8_LD_15_RN_10_RD_12_1.png"]],"dist300_I":[["I_Dist_300_LN_1_LD_2_RN_2_RD_10_0.png","I_Dist_300_LN_1_LD_2_RN_3_RD_15_0.png","I_Dist_300_LN_2_LD_4_RN_6_RD_30_0.png","I_Dist_300_LN_3_LD_6_RN_4_RD_20_0.png","I_Dist_300_LN_4_LD_5_RN_6_RD_12_0.png","I_Dist_300_LN_4_LD_5_RN_8_RD_16_0.png","I_Dist_300_LN_7_LD_10_RN_8_RD_20_0.png","I_Dist_300_LN_8_LD_10_RN_14_RD_28_0.png","I_Dist_300_LN_8_LD_10_RN_9_RD_18_0.png"],["I_Dist_300_LN_13_LD_26_RN_12_RD_15_1.png","I_Dist_300_LN_4_LD_20_RN_2_RD_4_1.png"]],"dist300_S":[["E_Dist_300_LN_9_LD_12_RN_9_RD_20_0.png"],["E_Dist_300_LN_18_LD_30_RN_18_RD_20_1.png","E_Dist_300_LN_3_LD_10_RN_3_RD_5_1.png","E_Dist_300_LN_9_LD_20_RN_9_RD_12_1.png"]],"dist500_C":[["C_Dist_500_LN_10_LD_13_RN_7_RD_26_0.png","C_Dist_500_LN_10_LD_15_RN_4_RD_24_0.png","C_Dist_500_LN_12_LD_16_RN_3_RD_12_0.png","C_Dist_500_LN_12_LD_18_RN_4_RD_24_0.png","C_Dist_500_LN_15_LD_18_RN_5_RD_15_0.png","C_Dist_500_LN_15_LD_20_RN_1_RD_4_0.png","C_Dist_500_LN_18_LD_27_RN_1_RD_6_0.png","C_Dist_500_LN_20_LD_24_RN_1_RD_3_0.png","C_Dist_500_LN_20_LD_24_RN_3_RD_9_0.png","C_Dist_500_LN_20_LD_24_RN_7_RD_21_0.png","C_Dist_500_LN_20_LD_28_RN_3_RD_14_0.png","C_Dist_500_LN_21_LD_28_RN_6_RD_24_0.png","C_Dist_500_LN_22_LD_28_RN_2_RD_7_0.png","C_Dist_500_LN_25_LD_30_RN_9_RD_27_0.png","C_Dist_500_LN_4_LD_6_RN_1_RD_6_0.png","C_Dist_500_LN_5_LD_6_RN_2_RD_6_0.png","C_Dist_500_LN_6_LD_9_RN_1_RD_6_0.png","C_Dist_500_LN_7_LD_10_RN_1_RD_5_0.png","C_Dist_500_LN_8_LD_12_RN_1_RD_6_0.png","C_Dist_500_LN_8_LD_12_RN_4_RD_24_0.png"],["C_Dist_500_LN_1_LD_4_RN_12_RD_16_1.png","C_Dist_500_LN_1_LD_4_RN_9_RD_12_1.png","C_Dist_500_LN_1_LD_9_RN_11_RD_18_1.png","C_Dist_500_LN_10_LD_24_RN_22_RD_24_1.png","C_Dist_500_LN_2_LD_12_RN_10_RD_15_1.png","C_Dist_500_LN_2_LD_12_RN_12_RD_18_1.png","C_Dist_500_LN_2_LD_12_RN_4_RD_6_1.png","C_Dist_500_LN_2_LD_24_RN_7_RD_12_1.png","C_Dist_500_LN_2_LD_5_RN_18_RD_20_1.png","C_Dist_500_LN_2_LD_5_RN_9_RD_10_1.png","C_Dist_500_LN_2_LD_8_RN_12_RD_16_1.png","C_Dist_500_LN_2_LD_8_RN_21_RD_28_1.png","C_Dist_500_LN_3_LD_10_RN_4_RD_5_1.png","C_Dist_500_LN_3_LD_12_RN_15_RD_20_1.png","C_Dist_500_LN_3_LD_30_RN_6_RD_10_1.png","C_Dist_500_LN_3_LD_8_RN_14_RD_16_1.png","C_Dist_500_LN_4_LD_16_RN_15_RD_20_1.png","C_Dist_500_LN_4_LD_24_RN_12_RD_18_1.png","C_Dist_500_LN_5_LD_14_RN_6_RD_7_1.png","C_Dist_500_LN_7_LD_21_RN_20_RD_24_1.png","C_Dist_500_LN_7_LD_28_RN_12_RD_16_1.png","C_Dist_500_LN_7_LD_28_RN_9_RD_12_1.png","C_Dist_500_LN_9_LD_27_RN_20_RD_24_1.png"]],"dist500_I":[["I_Dist_500_LN_2_LD_3_RN_4_RD_24_0.png","I_Dist_500_LN_5_LD_6_RN_6_RD_18_0.png","I_Dist_500_LN_7_LD_8_RN_9_RD_24_0.png"],["I_Dist_500_LN_7_LD_21_RN_5_RD_6_1.png"]],"dist500_S":[["E_Dist_500_LN_6_LD_8_RN_6_RD_24_0.png"],["E_Dist_500_LN_2_LD_12_RN_2_RD_3_1.png","E_Dist_500_LN_6_LD_24_RN_6_RD_8_1.png"]]}},{"start_time":1552312677275,"click_time":1552312681296,"finger_time":1552312679894,"fix_duration":1139.49118122761,"trial":1,"RT":2619,"MT":1402,"sideResp":1,"stimulus":[],"xmouse":[783,783,783,783,783,783,783,783,783,783,783,783,783,783,783,783,783,783,783,783,783,783,783,783,783,783,783,783,783,783,783,783,783,783,783,783,783,783,783,783,783,783,783,783,783,783,783,783,783,783,783,783,783,783,783,783,783,783,783,783,783,783,783,783,783,783,783,783,783,783,783,783,783,783,783,783,783,783,783,783,783,783,783,783,783,783,783,783,783,783,783,783,783,783,783,783,783,783,783,783,783,783,783,783,783,783,783,783,783,783,785,786,786,786,786,786,786,786,786,786,786,789,792,793,793,793,793,793,793,793,791,788,784,777,767,750,670,607,543,471,433,349,311,292,286,286,286,286,286,286,286,286,286,286,286,286,286,288,293,296,297,301,303,306,311,318,332,351,377,380,381,383,384,386,388,389,392,392,392,392,392,393,395,396,396,396,396,400,402,402,402,402,404,406,409,412,417,418,418,418,419,429],"ymouse":[492,492,492,492,492,492,492,492,492,492,492,492,492,492,492,492,492,492,492,492,492,492,492,492,492,492,492,492,492,492,492,492,492,492,492,492,492,492,492,492,492,492,492,492,492,492,492,492,492,492,492,492,492,492,492,492,492,492,492,492,492,492,492,492,492,492,492,492,492,492,492,492,492,492,492,492,492,492,492,492,492,492,492,492,492,492,492,492,492,492,492,492,492,492,492,492,492,492,492,492,492,492,492,492,492,492,492,492,492,492,492,492,492,492,492,492,492,492,492,492,492,490,488,486,483,481,478,477,475,473,470,466,460,453,443,432,375,330,277,211,168,71,34,16,10,10,10,10,10,10,10,10,10,10,10,9,9,17,24,26,28,30,32,33,35,38,43,43,43,45,45,50,53,57,63,65,69,69,69,69,69,71,75,77,77,77,77,77,77,77,77,77,77,77,77,77,76,76,76,76,76,73],"timestamp_mouse":[1,20,40,60,79,100,119,140,161,180,200,220,239,260,280,300,319,340,359,380,401,420,439,460,479,501,520,539,560,579,600,620,640,660,679,699,720,739,761,780,799,820,840,860,880,899,919,939,960,979,999,1019,1039,1059,1079,1100,1120,1140,1160,1179,1199,1220,1239,1260,1280,1300,1319,1340,1360,1381,1400,1419,1439,1461,1480,1500,1521,1540,1559,1580,1599,1619,1640,1659,1679,1700,1719,1739,1760,1779,1799,1819,1840,1860,1881,1900,1919,1940,1961,1980,1999,2021,2039,2059,2080,2099,2119,2139,2159,2180,2200,2219,2239,2260,2280,2299,2319,2340,2359,2380,2399,2419,2440,2459,2480,2499,2519,2539,2560,2580,2601,2619,2640,2660,2680,2701,2719,2739,2760,2779,2800,2819,2839,2859,2880,2900,2920,2939,2959,2979,2999,3019,3040,3060,3079,3100,3119,3139,3160,3180,3199,3220,3240,3260,3280,3299,3320,3340,3359,3380,3400,3420,3440,3459,3480,3500,3519,3541,3559,3580,3599,3619,3639,3661,3680,3699,3719,3740,3760,3780,3800,3823,3839,3859,3879,3900,3920,3940,3959,3980,4000,4020],"xSR":741.5,"ySR":469.95,"xT1":424.9,"yT1":0,"xT2":1058.1,"yT2":0,"toosoon":0,"cond_shown":"Incongruent","ratio_trial":200,"L_num":4,"L_den":5,"R_num":6,"R_den":10,"correct_side":1,"subjID":"jorgealejandroparra21","gender":"0","school":"4","age":"10"},{"start_time":1552312684993,"click_time":1552312728696,"finger_time":1552312728394,"fix_duration":1057.386693928235,"trial":2,"RT":43401,"MT":302,"sideResp":1,"stimulus":[],"xmouse":[808,808,808,808,808,808,808,808,808,808,808,808,808,808,808,808,808,808,808,808,808,808,808,808,808,808,808,808,808,808,808,808,808,808,808,808,808,808,808,808,808,808,808,808,808,808,808,808,808,808,808,808,808,808,808,808,808,808,808,808,808,808,808,808,808,808,808,808,808,808,810,810,810,810,810,810,810,810,810,810,810,810,810,810,810,810,810,810,810,810,810,810,810,810,810,810,810,810,810,810,810,810,810,810,810,810,810,810,810,810,810,810,810,810,810,810,810,810,810,810,810,810,810,810,810,810,810,810,810,810,810,810,810,810,810,810,810,810,810,810,810,810,810,810,810,810,810,810,810,810,810,810,810,810,810,810,810,810,810,810,810,810,810,810,810,810,810,810,810,810,810,810,810,810,810,810,810,810,810,810,810,810,810,810,810,810,810,810,810,810,810,810,810,810,810,810,810,810,810,810,810,810,810,810,810,810,810,810,810,810,810,810,810,810,810,810,810,810,810,810,810,810,810,810,810,810,810,810,810,810,810,810,810,810,810,810,810,810,810,810,810,810,810,810,810,810,810,810,810,810,810,810,810,810,810,810,810,810,810,810,810,810,810,810,810,810,810,810,810,810,810,810,810,810,810,810,810,810,810,810,810,810,810,810,810,810,810,810,810,810,810,810,810,810,810,810,810,810,810,810,810,810,810,810,810,810,810,810,810,810,810,810,810,810,810,810,810,810,810,810,810,810,810,810,810,810,810,810,810,810,810,810,810,810,810,810,810,810,810,810,810,810,810,810,810,810,810,810,810,810,810,810,810,810,810,810,810,810,810,810,810,810,810,810,810,810,810,810,810,810,810,810,810,810,810,810,810,810,810,810,810,810,810,810,810,810,810,810,810,810,810,810,810,810,810,810,810,810,810,810,810,810,810,810,810,810,810,810,810,810,810,810,810,810,810,810,810,810,810,810,810,810,810,810,810,810,810,810,810,810,810,810,810,810,810,810,810,810,810,810,810,810,810,810,810,810,810,810,810,810,810,810,810,810,810,810,810,810,810,810,810,810,810,810,810,810,810,810,810,810,810,810,810,810,810,810,810,810,810,810,810,810,810,810,810,810,810,810,810,810,810,810,810,810,810,810,810,810,810,810,810,810,810,810,810,810,810,810,810,810,810,810,810,810,810,810,810,810,810,810,810,810,810,810,810,810,810,810,810,810,810,810,810,810,810,810,810,810,810,810,810,810,810,810,810,810,810,810,810,810,810,810,810,810,810,810,810,810,810,810,810,810,810,810,810,810,810,810,810,810,810,810,810,810,810,810,810,810,810,810,810,810,810,810,810,810,810,810,810,810,810,810,810,810,810,810,810,810,810,810,810,810,810,810,810,810,810,810,810,810,810,810,810,810,810,810,810,810,810,810,810,810,810,810,810,810,810,810,810,810,810,810,810,810,810,810,810,810,810,810,810,810,810,810,810,810,810,810,810,810,810,810,810,810,810,810,810,810,810,810,810,810,810,810,810,810,810,810,810,810,810,810,810,810,810,810,810,810,810,810,810,810,810,810,810,810,810,810,810,810,810,810,810,810,810,810,810,810,810,810,810,810,810,810,810,810,810,810,810,810,810,810,810,810,810,810,810,810,810,810,810,810,810,810,810,810,810,810,810,810,810,810,810,810,810,810,810,810,810,810,810,810,810,810,810,810,810,810,810,810,810,810,810,810,810,810,810,810,810,810,810,810,810,810,810,810,810,810,810,810,810,810,810,810,810,810,810,810,810,810,810,810,810,810,810,810,810,810,810,810,810,810,810,810,810,810,810,810,810,810,810,810,810,810,810,810,810,810,810,810,810,810,810,810,810,810,810,810,810,810,810,810,810,810,810,810,810,810,810,810,810,810,810,810,810,810,810,810,810,810,810,810,810,810,810,810,810,810,810,810,810,810,810,810,810,810,810,810,810,810,810,810,810,810,810,810,810,810,810,810,810,810,810,810,810,810,810,810,810,810,810,810,810,810,810,810,810,810,810,810,810,810,810,810,810,810,810,810,810,810,810,810,810,810,810,810,810,810,810,810,810,810,810,810,810,810,810,810,810,810,810,810,810,810,810,810,810,810,810,810,810,810,810,810,810,810,810,810,810,810,810,810,810,810,810,810,810,810,810,810,810,810,810,810,810,810,810,810,810,810,810,810,810,810,810,810,810,810,810,810,810,810,810,810,810,810,810,810,810,810,810,810,810,810,810,810,810,810,810,810,810,810,810,810,810,810,810,810,810,810,810,810,810,810,810,810,810,810,810,810,810,810,810,810,810,810,810,810,810,810,810,810,810,810,810,810,810,810,810,810,810,810,810,810,810,810,810,810,810,810,810,810,810,810,810,810,810,810,810,810,810,810,810,810,810,810,810,810,810,810,810,810,810,810,810,810,810,810,810,810,810,810,810,810,810,810,810,810,810,810,810,810,810,810,810,810,810,810,810,810,810,810,810,810,810,810,810,810,810,810,810,810,810,810,810,810,810,810,810,810,810,810,810,810,810,810,810,810,810,810,810,810,810,810,810,810,810,810,810,810,810,810,810,810,810,810,810,810,810,810,810,810,810,810,810,810,810,810,810,810,810,810,810,810,810,810,810,810,810,810,810,810,810,810,810,810,810,810,810,810,810,810,810,810,810,810,810,810,810,810,810,810,810,810,810,810,810,810,810,810,810,810,810,810,810,810,810,810,810,810,810,810,810,810,810,810,810,810,810,810,810,810,810,810,810,810,810,810,810,810,810,810,810,810,810,810,810,810,810,810,810,810,810,810,810,810,810,810,810,810,810,810,810,810,810,810,810,810,810,810,810,810,810,810,810,810,810,810,810,810,810,810,810,810,810,810,810,810,810,810,810,810,810,810,810,810,810,810,810,810,810,810,810,810,810,810,810,810,810,810,810,810,810,810,810,810,810,810,810,810,810,810,810,810,810,810,810,810,810,810,810,810,810,810,810,810,810,810,810,810,810,810,810,810,810,810,810,810,810,810,810,810,810,810,810,810,810,810,810,810,810,810,810,810,810,810,810,810,810,810,810,810,810,810,810,810,810,810,810,810,810,810,810,810,810,810,810,810,810,810,810,810,810,810,810,810,810,810,810,810,810,810,810,810,810,810,810,810,810,810,810,810,810,810,810,810,810,810,810,810,810,810,810,810,810,810,810,810,810,810,810,810,810,810,810,810,810,810,810,810,810,810,810,810,810,810,810,810,810,810,810,810,810,810,810,810,810,810,810,810,810,810,810,810,810,810,810,810,810,810,810,810,810,810,810,810,810,810,810,810,810,810,810,810,810,810,810,810,810,810,810,810,810,810,810,810,810,810,810,810,810,810,810,810,810,810,810,810,810,810,810,810,810,810,810,810,810,810,810,810,810,810,810,810,810,810,810,810,810,810,810,810,810,810,810,810,810,810,810,810,810,810,810,810,810,810,810,810,810,810,810,810,810,810,810,810,810,810,810,810,810,810,810,810,810,810,810,810,810,810,810,810,810,810,810,810,810,810,810,810,810,810,810,810,810,810,810,810,810,810,810,810,810,810,810,810,810,810,810,810,810,810,810,810,810,810,810,810,810,810,810,810,810,810,810,810,810,810,810,810,810,810,810,810,810,810,810,810,810,810,810,810,810,810,810,810,810,810,810,810,810,810,810,810,810,810,810,810,810,810,810,810,810,810,810,810,810,810,810,810,810,810,810,810,810,810,810,810,810,810,810,810,810,810,810,810,810,810,810,810,810,810,810,810,810,810,810,810,810,810,810,810,810,810,810,810,810,810,810,810,810,810,810,810,810,810,810,810,810,810,810,810,810,810,810,810,810,810,810,810,810,810,810,810,810,810,810,810,810,810,810,810,810,810,810,810,810,810,810,810,810,810,810,810,810,810,810,810,810,810,810,810,810,810,810,810,810,810,810,810,810,810,810,810,810,810,810,810,810,810,810,810,810,810,810,810,810,810,810,810,810,810,810,810,810,810,810,810,810,810,810,810,810,810,810,810,810,810,810,810,810,810,810,810,810,810,810,810,810,810,810,810,810,810,810,810,810,810,810,810,810,810,810,810,810,810,810,810,810,810,810,810,810,810,810,810,810,810,810,810,810,810,810,810,810,810,810,810,810,810,810,810,810,810,810,810,810,810,810,810,810,810,810,810,810,810,810,810,810,810,810,810,810,810,810,810,810,810,810,810,810,810,810,810,810,810,810,810,810,810,810,810,810,810,810,810,810,810,810,810,810,810,810,810,810,810,810,810,810,810,810,810,810,810,810,810,810,810,810,810,810,810,810,810,810,810,810,810,810,810,810,810,810,810,810,810,810,810,810,810,810,810,810,810,810,810,810,810,810,810,810,810,810,810,810,810,810,810,810,810,810,810,810,810,810,810,810,810,810,810,810,810,810,810,810,810,810,810,810,810,810,810,810,810,810,810,810,810,810,810,810,810,810,810,810,810,810,810,810,810,810,810,810,810,810,810,810,810,810,810,810,810,810,810,810,810,810,810,810,810,810,810,810,810,810,810,810,810,810,810,810,810,810,810,810,810,810,810,810,810,810,810,810,810,810,810,810,810,810,810,810,810,810,810,810,810,810,810,810,810,810,810,810,810,810,810,810,810,810,810,810,810,810,810,810,810,810,810,810,810,810,810,810,810,810,810,810,810,810,810,810,810,810,810,810,810,810,810,810,810,810,810,810,810,810,810,810,810,810,810,810,810,810,810,810,810,810,810,810,810,810,810,810,810,810,810,810,810,810,810,810,810,810,810,810,810,810,810,810,810,810,810,810,810,810,810,810,810,810,810,810,810,810,810,810,810,810,810,810,810,810,810,810,810,810,810,810,810,810,810,810,810,810,810,810,810,810,810,810,810,810,810,810,810,810,810,810,810,810,810,431,431,431,431,431,431,431,431,431,431,431,447,463,472,473,473],"ymouse":[505,505,505,505,505,505,505,505,505,505,505,505,505,505,505,505,505,505,505,505,505,505,505,505,505,505,505,505,505,505,505,505,505,505,505,505,505,505,505,505,505,505,505,505,505,505,505,505,505,505,505,505,505,505,505,505,505,505,505,505,505,505,505,505,505,505,505,505,505,505,503,503,503,503,503,503,503,503,503,503,503,503,503,503,503,503,503,503,503,503,503,503,503,503,503,503,503,503,503,503,503,503,503,503,503,503,503,503,503,503,503,503,503,503,503,503,503,503,503,503,503,503,503,503,503,503,503,503,503,503,503,503,503,503,503,503,503,503,503,503,503,503,503,503,503,503,503,503,503,503,503,503,503,503,503,503,503,503,503,503,503,503,503,503,503,503,503,503,503,503,503,503,503,503,503,503,503,503,503,503,503,503,503,503,503,503,503,503,503,503,503,503,503,503,503,503,503,503,503,503,503,503,503,503,503,503,503,503,503,503,503,503,503,503,503,503,503,503,503,503,503,503,503,503,503,503,503,503,503,503,503,503,503,503,503,503,503,503,503,503,503,503,503,503,503,503,503,503,503,503,503,503,503,503,503,503,503,503,503,503,503,503,503,503,503,503,503,503,503,503,503,503,503,503,503,503,503,503,503,503,503,503,503,503,503,503,503,503,503,503,503,503,503,503,503,503,503,503,503,503,503,503,503,503,503,503,503,503,503,503,503,503,503,503,503,503,503,503,503,503,503,503,503,503,503,503,503,503,503,503,503,503,503,503,503,503,503,503,503,503,503,503,503,503,503,503,503,503,503,503,503,503,503,503,503,503,503,503,503,503,503,503,503,503,503,503,503,503,503,503,503,503,503,503,503,503,503,503,503,503,503,503,503,503,503,503,503,503,503,503,503,503,503,503,503,503,503,503,503,503,503,503,503,503,503,503,503,503,503,503,503,503,503,503,503,503,503,503,503,503,503,503,503,503,503,503,503,503,503,503,503,503,503,503,503,503,503,503,503,503,503,503,503,503,503,503,503,503,503,503,503,503,503,503,503,503,503,503,503,503,503,503,503,503,503,503,503,503,503,503,503,503,503,503,503,503,503,503,503,503,503,503,503,503,503,503,503,503,503,503,503,503,503,503,503,503,503,503,503,503,503,503,503,503,503,503,503,503,503,503,503,503,503,503,503,503,503,503,503,503,503,503,503,503,503,503,503,503,503,503,503,503,503,503,503,503,503,503,503,503,503,503,503,503,503,503,503,503,503,503,503,503,503,503,503,503,503,503,503,503,503,503,503,503,503,503,503,503,503,503,503,503,503,503,503,503,503,503,503,503,503,503,503,503,503,503,503,503,503,503,503,503,503,503,503,503,503,503,503,503,503,503,503,503,503,503,503,503,503,503,503,503,503,503,503,503,503,503,503,503,503,503,503,503,503,503,503,503,503,503,503,503,503,503,503,503,503,503,503,503,503,503,503,503,503,503,503,503,503,503,503,503,503,503,503,503,503,503,503,503,503,503,503,503,503,503,503,503,503,503,503,503,503,503,503,503,503,503,503,503,503,503,503,503,503,503,503,503,503,503,503,503,503,503,503,503,503,503,503,503,503,503,503,503,503,503,503,503,503,503,503,503,503,503,503,503,503,503,503,503,503,503,503,503,503,503,503,503,503,503,503,503,503,503,503,503,503,503,503,503,503,503,503,503,503,503,503,503,503,503,503,503,503,503,503,503,503,503,503,503,503,503,503,503,503,503,503,503,503,503,503,503,503,503,503,503,503,503,503,503,503,503,503,503,503,503,503,503,503,503,503,503,503,503,503,503,503,503,503,503,503,503,503,503,503,503,503,503,503,503,503,503,503,503,503,503,503,503,503,503,503,503,503,503,503,503,503,503,503,503,503,503,503,503,503,503,503,503,503,503,503,503,503,503,503,503,503,503,503,503,503,503,503,503,503,503,503,503,503,503,503,503,503,503,503,503,503,503,503,503,503,503,503,503,503,503,503,503,503,503,503,503,503,503,503,503,503,503,503,503,503,503,503,503,503,503,503,503,503,503,503,503,503,503,503,503,503,503,503,503,503,503,503,503,503,503,503,503,503,503,503,503,503,503,503,503,503,503,503,503,503,503,503,503,503,503,503,503,503,503,503,503,503,503,503,503,503,503,503,503,503,503,503,503,503,503,503,503,503,503,503,503,503,503,503,503,503,503,503,503,503,503,503,503,503,503,503,503,503,503,503,503,503,503,503,503,503,503,503,503,503,503,503,503,503,503,503,503,503,503,503,503,503,503,503,503,503,503,503,503,503,503,503,503,503,503,503,503,503,503,503,503,503,503,503,503,503,503,503,503,503,503,503,503,503,503,503,503,503,503,503,503,503,503,503,503,503,503,503,503,503,503,503,503,503,503,503,503,503,503,503,503,503,503,503,503,503,503,503,503,503,503,503,503,503,503,503,503,503,503,503,503,503,503,503,503,503,503,503,503,503,503,503,503,503,503,503,503,503,503,503,503,503,503,503,503,503,503,503,503,503,503,503,503,503,503,503,503,503,503,503,503,503,503,503,503,503,503,503,503,503,503,503,503,503,503,503,503,503,503,503,503,503,503,503,503,503,503,503,503,503,503,503,503,503,503,503,503,503,503,503,503,503,503,503,503,503,503,503,503,503,503,503,503,503,503,503,503,503,503,503,503,503,503,503,503,503,503,503,503,503,503,503,503,503,503,503,503,503,503,503,503,503,503,503,503,503,503,503,503,503,503,503,503,503,503,503,503,503,503,503,503,503,503,503,503,503,503,503,503,503,503,503,503,503,503,503,503,503,503,503,503,503,503,503,503,503,503,503,503,503,503,503,503,503,503,503,503,503,503,503,503,503,503,503,503,503,503,503,503,503,503,503,503,503,503,503,503,503,503,503,503,503,503,503,503,503,503,503,503,503,503,503,503,503,503,503,503,503,503,503,503,503,503,503,503,503,503,503,503,503,503,503,503,503,503,503,503,503,503,503,503,503,503,503,503,503,503,503,503,503,503,503,503,503,503,503,503,503,503,503,503,503,503,503,503,503,503,503,503,503,503,503,503,503,503,503,503,503,503,503,503,503,503,503,503,503,503,503,503,503,503,503,503,503,503,503,503,503,503,503,503,503,503,503,503,503,503,503,503,503,503,503,503,503,503,503,503,503,503,503,503,503,503,503,503,503,503,503,503,503,503,503,503,503,503,503,503,503,503,503,503,503,503,503,503,503,503,503,503,503,503,503,503,503,503,503,503,503,503,503,503,503,503,503,503,503,503,503,503,503,503,503,503,503,503,503,503,503,503,503,503,503,503,503,503,503,503,503,503,503,503,503,503,503,503,503,503,503,503,503,503,503,503,503,503,503,503,503,503,503,503,503,503,503,503,503,503,503,503,503,503,503,503,503,503,503,503,503,503,503,503,503,503,503,503,503,503,503,503,503,503,503,503,503,503,503,503,503,503,503,503,503,503,503,503,503,503,503,503,503,503,503,503,503,503,503,503,503,503,503,503,503,503,503,503,503,503,503,503,503,503,503,503,503,503,503,503,503,503,503,503,503,503,503,503,503,503,503,503,503,503,503,503,503,503,503,503,503,503,503,503,503,503,503,503,503,503,503,503,503,503,503,503,503,503,503,503,503,503,503,503,503,503,503,503,503,503,503,503,503,503,503,503,503,503,503,503,503,503,503,503,503,503,503,503,503,503,503,503,503,503,503,503,503,503,503,503,503,503,503,503,503,503,503,503,503,503,503,503,503,503,503,503,503,503,503,503,503,503,503,503,503,503,503,503,503,503,503,503,503,503,503,503,503,503,503,503,503,503,503,503,503,503,503,503,503,503,503,503,503,503,503,503,503,503,503,503,503,503,503,503,503,503,503,503,503,503,503,503,503,503,503,503,503,503,503,503,503,503,503,503,503,503,503,503,503,503,503,503,503,503,503,503,503,503,503,503,503,503,503,503,503,503,503,503,503,503,503,503,503,503,503,503,503,503,503,503,503,503,503,503,503,503,503,503,503,503,503,503,503,503,503,503,503,503,503,503,503,503,503,503,503,503,503,503,503,503,503,503,503,503,503,503,503,503,503,503,503,503,503,503,503,503,503,503,503,503,503,503,503,503,503,503,503,503,503,503,503,503,503,503,503,503,503,503,503,503,503,503,503,503,503,503,503,503,503,503,503,503,503,503,503,503,503,503,503,503,503,503,503,503,503,503,503,503,503,503,503,503,503,503,503,503,503,503,503,503,503,503,503,503,503,503,503,503,503,503,503,503,503,503,503,503,503,503,503,503,503,503,503,503,503,503,503,503,503,503,503,503,503,503,503,503,503,503,503,503,503,503,503,503,503,503,503,503,503,503,503,503,503,503,503,503,503,503,503,503,503,503,503,503,503,503,503,503,503,503,503,503,503,503,503,503,503,503,503,503,503,503,503,503,503,503,503,503,503,503,503,503,503,503,503,503,503,503,503,503,503,503,503,503,503,503,503,503,503,503,503,503,503,503,503,503,503,503,503,503,503,503,503,503,503,503,503,503,503,503,503,503,503,503,503,503,503,503,503,503,503,503,503,503,503,503,503,503,503,503,503,503,503,503,503,503,503,503,503,503,503,503,503,503,503,503,503,503,503,503,503,503,503,503,503,503,503,503,503,503,503,503,503,503,503,503,503,503,503,503,503,503,503,503,503,503,503,503,503,503,503,503,503,503,503,503,503,503,503,503,503,503,503,503,503,503,503,503,503,503,503,503,503,503,503,503,503,503,503,503,503,503,503,503,503,503,503,503,503,503,503,503,503,503,503,503,503,503,503,503,503,503,503,503,503,503,503,503,503,503,503,503,503,503,503,503,503,503,503,503,503,503,503,503,503,503,503,503,503,503,503,503,503,503,503,503,503,503,503,503,503,503,342,342,342,342,342,342,342,342,342,342,342,279,199,136,103,65],"timestamp_mouse":[11,38,42,62,82,102,121,142,161,181,203,223,243,262,281,302,321,342,362,381,402,422,441,462,481,503,522,542,562,581,602,622,641,661,681,702,722,742,762,781,802,821,841,861,881,902,922,941,961,982,1003,1022,1042,1061,1081,1103,1122,1141,1162,1181,1201,1222,1243,1261,1282,1301,1322,1341,1362,1382,1402,1421,1442,1463,1482,1502,1522,1543,1562,1582,1601,1621,1641,1662,1682,1702,1722,1743,1762,1781,1801,1822,1841,1861,1882,1903,1922,1941,1963,1982,2002,2023,2042,2062,2081,2101,2121,2141,2162,2181,2202,2222,2241,2262,2282,2301,2321,2341,2361,2381,2402,2422,2441,2461,2482,2502,2521,2542,2562,2582,2602,2621,2642,2662,2681,2702,2721,2741,2761,2783,2801,2821,2841,2862,2882,2901,2921,2941,2962,2982,3002,3021,3041,3062,3083,3102,3123,3142,3162,3182,3201,3221,3241,3262,3282,3302,3321,3342,3363,3382,3401,3421,3442,3463,3481,3502,3522,3541,3563,3582,3602,3621,3642,3661,3682,3702,3721,3741,3763,3782,3801,3821,3842,3862,3882,3902,3921,3941,3962,3982,4001,4021,4043,4061,4081,4101,4123,4142,4162,4181,4201,4221,4242,4262,4281,4301,4321,4342,4361,4381,4403,4421,4441,4461,4482,4502,4522,4543,4562,4581,4602,4621,4641,4662,4682,4703,4721,4742,4762,4782,4802,4821,4841,4862,4881,4901,4921,4943,4962,4981,5002,5021,5041,5062,5082,5101,5121,5141,5161,5181,5202,5221,5242,5262,5282,5303,5322,5342,5361,5381,5401,5422,5441,5461,5481,5501,5521,5543,5562,5582,5601,5621,5641,5662,5681,5701,5721,5742,5762,5781,5803,5821,5842,5862,5882,5902,5922,5942,5963,5982,6001,6021,6042,6062,6082,6101,6121,6143,6162,6181,6201,6222,6242,6262,6282,6302,6322,6343,6362,6382,6402,6421,6441,6462,6482,6501,6522,6542,6562,6582,6601,6621,6641,6661,6682,6701,6721,6742,6761,6781,6802,6821,6842,6861,6883,6903,6922,6942,6961,6983,7003,7022,7042,7061,7081,7102,7122,7142,7162,7181,7201,7221,7241,7262,7282,7302,7321,7342,7363,7381,7401,7421,7441,7461,7481,7501,7522,7541,7561,7582,7602,7621,7641,7663,7681,7701,7722,7742,7761,7781,7801,7822,7843,7863,7882,7903,7921,7941,7962,7983,8001,8021,8043,8061,8082,8102,8122,8143,8162,8182,8202,8222,8242,8262,8283,8302,8322,8341,8361,8381,8401,8421,8442,8462,8481,8501,8522,8542,8562,8583,8602,8623,8642,8661,8681,8701,8722,8741,8761,8782,8803,8822,8841,8862,8881,8901,8922,8942,8961,8982,9002,9022,9043,9062,9081,9103,9122,9142,9162,9181,9201,9221,9242,9261,9281,9303,9322,9342,9362,9383,9402,9422,9441,9461,9483,9502,9522,9541,9561,9583,9602,9622,9641,9662,9681,9701,9723,9742,9762,9783,9802,9823,9841,9862,9881,9901,9921,9942,9962,9982,10001,10022,10042,10062,10082,10103,10121,10142,10161,10181,10202,10221,10242,10261,10281,10301,10322,10342,10361,10383,10402,10422,10441,10462,10482,10502,10522,10541,10562,10583,10601,10621,10641,10663,10681,10702,10722,10743,10762,10781,10801,10822,10843,10863,10882,10903,10921,10942,10963,10981,11003,11022,11041,11061,11081,11102,11123,11143,11162,11182,11201,11221,11241,11262,11282,11303,11321,11342,11362,11382,11403,11423,11441,11461,11482,11501,11521,11543,11561,11582,11602,11622,11641,11661,11682,11702,11722,11743,11761,11782,11803,11821,11842,11861,11883,11902,11921,11941,11961,11981,12001,12021,12041,12061,12082,12101,12121,12141,12163,12182,12202,12221,12241,12261,12282,12301,12321,12341,12361,12382,12401,12421,12443,12463,12482,12503,12523,12542,12562,12581,12601,12622,12642,12662,12682,12702,12721,12741,12761,12783,12802,12821,12841,12861,12882,12901,12921,12941,12963,12982,13001,13021,13041,13061,13081,13102,13123,13142,13162,13183,13202,13223,13242,13262,13281,13301,13322,13341,13361,13381,13401,13421,13441,13462,13481,13503,13522,13541,13562,13581,13602,13621,13641,13661,13681,13701,13722,13741,13762,13781,13801,13822,13841,13862,13882,13902,13922,13941,13962,13982,14002,14023,14041,14061,14082,14101,14123,14141,14162,14181,14202,14221,14241,14263,14282,14301,14321,14341,14361,14381,14402,14421,14441,14463,14482,14501,14522,14542,14562,14581,14601,14622,14641,14662,14682,14701,14722,14741,14761,14782,14801,14821,14842,14862,14882,14902,14921,14942,14962,14981,15002,15022,15042,15063,15082,15103,15121,15141,15162,15182,15202,15221,15242,15263,15282,15301,15323,15342,15362,15383,15402,15422,15441,15463,15482,15502,15522,15541,15561,15581,15602,15623,15642,15661,15682,15703,15722,15742,15763,15782,15803,15821,15841,15861,15881,15901,15923,15941,15961,15981,16002,16023,16042,16062,16082,16102,16123,16142,16162,16183,16201,16222,16242,16263,16281,16301,16322,16342,16361,16382,16401,16421,16443,16463,16481,16501,16521,16542,16563,16582,16602,16621,16642,16662,16682,16702,16721,16743,16762,16782,16802,16821,16841,16862,16881,16902,16922,16943,16962,16981,17003,17022,17041,17062,17081,17101,17121,17142,17163,17182,17202,17223,17242,17261,17282,17301,17323,17342,17362,17381,17402,17421,17442,17462,17481,17502,17522,17542,17563,17582,17602,17622,17643,17661,17683,17702,17723,17742,17762,17783,17801,17822,17843,17862,17881,17902,17921,17942,17961,17981,18000,18020,18041,18061,18081,18101,18120,18142,18161,18181,18201,18220,18242,18260,18282,18302,18321,18342,18362,18382,18402,18420,18441,18461,18481,18501,18522,18540,18562,18580,18600,18621,18640,18662,18681,18701,18720,18741,18761,18780,18800,18822,18841,18860,18880,18901,18920,18942,18962,18982,19002,19021,19041,19060,19082,19100,19120,19140,19162,19180,19202,19221,19241,19261,19282,19301,19320,19340,19362,19380,19401,19422,19442,19461,19480,19501,19522,19540,19562,19580,19601,19622,19642,19660,19682,19700,19720,19740,19762,19782,19801,19820,19841,19862,19880,19902,19920,19942,19961,19982,20002,20021,20041,20060,20082,20102,20120,20141,20162,20182,20202,20220,20240,20260,20282,20301,20320,20340,20362,20380,20400,20422,20441,20462,20481,20501,20520,20541,20562,20581,20602,20620,20641,20660,20680,20702,20722,20740,20760,20780,20802,20822,20841,20860,20882,20902,20921,20941,20960,20982,21002,21020,21042,21061,21081,21102,21120,21140,21161,21180,21200,21220,21242,21262,21282,21300,21321,21342,21361,21380,21402,21421,21440,21461,21481,21501,21521,21541,21560,21580,21600,21621,21641,21660,21682,21700,21720,21740,21761,21781,21802,21820,21842,21861,21881,21901,21920,21941,21962,21980,22002,22022,22040,22061,22082,22100,22122,22141,22161,22181,22200,22220,22242,22261,22280,22302,22321,22341,22360,22382,22400,22421,22442,22461,22480,22501,22521,22541,22560,22581,22600,22621,22641,22661,22681,22702,22722,22741,22760,22782,22800,22822,22841,22861,22881,22902,22922,22941,22960,22981,23002,23022,23041,23060,23082,23102,23121,23152,23161,23180,23201,23221,23241,23261,23280,23301,23321,23340,23361,23380,23401,23422,23440,23461,23481,23501,23521,23542,23561,23581,23602,23621,23641,23660,23681,23701,23722,23741,23760,23782,23802,23820,23841,23860,23882,23902,23920,23941,23961,23981,24002,24021,24041,24060,24082,24100,24122,24141,24160,24182,24201,24222,24241,24261,24280,24302,24321,24340,24360,24382,24401,24422,24442,24461,24481,24502,24522,24542,24562,24580,24601,24622,24641,24661,24682,24700,24722,24740,24760,24782,24802,24822,24841,24860,24882,24900,24920,24940,24962,24980,25001,25021,25042,25060,25082,25100,25120,25142,25160,25182,25200,25220,25242,25260,25282,25300,25320,25340,25362,25382,25402,25420,25440,25461,25482,25500,25521,25542,25562,25582,25600,25622,25640,25660,25682,25701,25721,25740,25760,25782,25800,25822,25841,25861,25882,25902,25921,25942,25960,25981,26001,26022,26040,26062,26082,26102,26121,26142,26160,26181,26202,26221,26241,26260,26280,26302,26321,26340,26362,26380,26402,26421,26440,26462,26482,26502,26520,26542,26562,26581,26602,26622,26641,26662,26680,26700,26722,26741,26761,26781,26800,26822,26841,26861,26881,26900,26921,26942,26961,26980,27002,27021,27041,27061,27081,27101,27122,27140,27162,27180,27201,27220,27242,27262,27280,27302,27322,27341,27361,27381,27401,27420,27440,27462,27480,27501,27521,27541,27560,27582,27600,27620,27640,27661,27682,27702,27720,27740,27762,27780,27802,27820,27840,27861,27882,27901,27921,27942,27960,27981,28001,28021,28040,28062,28080,28101,28120,28140,28161,28181,28201,28221,28242,28262,28282,28302,28321,28341,28360,28382,28401,28420,28441,28460,28482,28501,28522,28541,28561,28582,28600,28622,28641,28661,28680,28702,28722,28741,28761,28782,28800,28821,28842,28860,28882,28900,28921,28942,28962,28980,29002,29022,29041,29060,29081,29102,29121,29142,29160,29181,29201,29221,29242,29261,29281,29301,29320,29342,29360,29381,29401,29422,29440,29460,29482,29502,29520,29542,29560,29580,29602,29622,29641,29661,29681,29701,29721,29740,29762,29782,29801,29821,29840,29862,29881,29900,29920,29940,29960,29981,30002,30020,30040,30062,30081,30100,30121,30141,30161,30180,30200,30222,30240,30261,30280,30301,30322,30341,30360,30381,30400,30420,30441,30462,30481,30500,30522,30540,30561,30581,30601,30620,30642,30662,30680,30700,30722,30742,30760,30781,30802,30820,30840,30862,30881,30901,30920,30941,30961,30980,31001,31021,31042,31060,31080,31102,31122,31141,31162,31181,31202,31222,31241,31262,31280,31300,31322,31341,31360,31380,31401,31421,31440,31462,31480,31501,31522,31542,31560,31581,31601,31620,31641,31661,31681,31701,31722,31741,31760,31781,31802,31820,31840,31860,31881,31900,31921,31940,31960,31981,32002,32021,32042,32060,32080,32102,32120,32142,32160,32181,32200,32221,32242,32261,32281,32302,32321,32342,32361,32381,32400,32422,32441,32462,32481,32500,32522,32542,32561,32581,32600,32621,32640,32662,32681,32701,32721,32741,32761,32781,32802,32822,32841,32860,32882,32901,32920,32942,32961,32981,33000,33021,33040,33061,33081,33101,33122,33142,33160,33181,33201,33222,33240,33261,33281,33300,33321,33340,33362,33381,33401,33422,33442,33462,33481,33501,33522,33540,33560,33582,33600,33622,33641,33660,33680,33702,33721,33740,33760,33782,33800,33821,33840,33862,33880,33902,33921,33940,33961,33980,34002,34020,34042,34062,34081,34102,34120,34142,34162,34180,34201,34221,34240,34261,34282,34300,34320,34340,34360,34380,34401,34421,34440,34462,34481,34502,34521,34542,34560,34582,34600,34620,34641,34660,34682,34702,34721,34740,34761,34780,34800,34820,34840,34861,34880,34900,34921,34941,34960,34981,35002,35022,35041,35061,35081,35102,35120,35141,35161,35182,35202,35220,35240,35262,35282,35300,35320,35340,35361,35382,35401,35422,35441,35462,35481,35501,35522,35542,35562,35580,35601,35621,35642,35661,35682,35701,35721,35741,35761,35780,35801,35820,35841,35862,35881,35901,35921,35942,35961,35981,36002,36021,36041,36062,36080,36102,36120,36140,36162,36180,36201,36222,36241,36262,36281,36300,36321,36342,36362,36380,36402,36422,36441,36462,36481,36502,36520,36540,36562,36580,36602,36621,36641,36661,36680,36702,36721,36741,36761,36782,36801,36821,36842,36861,36880,36900,36922,36942,36960,36980,37002,37021,37040,37062,37081,37100,37122,37140,37160,37182,37200,37221,37242,37261,37282,37300,37322,37341,37362,37380,37401,37420,37442,37462,37480,37501,37521,37542,37561,37582,37602,37620,37641,37662,37680,37702,37722,37741,37760,37782,37802,37820,37842,37861,37881,37901,37920,37941,37960,37981,38001,38021,38041,38062,38082,38102,38120,38142,38161,38180,38201,38220,38242,38262,38280,38301,38320,38342,38360,38382,38402,38421,38442,38462,38481,38502,38521,38541,38562,38582,38600,38620,38642,38660,38681,38701,38721,38741,38760,38782,38800,38820,38841,38861,38881,38902,38920,38941,38961,38981,39001,39021,39040,39060,39082,39101,39120,39140,39161,39182,39200,39221,39240,39261,39282,39301,39321,39342,39360,39382,39401,39421,39442,39461,39482,39501,39522,39540,39561,39582,39600,39622,39642,39662,39682,39701,39721,39742,39761,39781,39801,39822,39841,39861,39882,39901,39921,39942,39960,39981,40001,40022,40041,40062,40081,40100,40121,40140,40162,40182,40201,40222,40241,40260,40280,40300,40322,40342,40360,40380,40401,40421,40441,40461,40481,40501,40521,40540,40561,40580,40601,40620,40640,40662,40681,40701,40722,40740,40762,40780,40801,40820,40841,40862,40882,40901,40921,40942,40961,40980,41001,41021,41041,41062,41081,41100,41122,41141,41161,41181,41200,41222,41241,41261,41280,41302,41322,41341,41361,41382,41400,41422,41440,41460,41482,41501,41520,41542,41560,41580,41600,41622,41640,41662,41680,41702,41720,41742,41760,41782,41801,41821,41841,41860,41881,41901,41922,41942,41960,41982,42001,42021,42040,42061,42082,42100,42120,42142,42160,42182,42200,42222,42242,42260,42282,42301,42320,42341,42362,42382,42400,42422,42441,42461,42482,42501,42521,42542,42560,42580,42602,42622,42641,42661,42680,42701,42721,42741,42760,42782,42800,42822,42840,42861,42881,42902,42921,42941,42960,42982,43001,43020,43042,43060,43080,43102,43121,43141,43160,43182,43202,43220,43242,43262,43280,43302,43321,43342,43362,43382,43401,43421,43441,43462,43480,43501,43521,43541,43561,43581,43601,43621,43641,43660,43681,43702],"xSR":741.5,"ySR":469.95,"xT1":424.9,"yT1":0,"xT2":1058.1,"yT2":0,"toosoon":0,"cond_shown":"Congruent","ratio_trial":100,"L_num":8,"L_den":16,"R_num":2,"R_den":5,"correct_side":1,"subjID":"jorgealejandroparra21","gender":"0","school":"4","age":"10"},{"start_time":1552312730202,"click_time":1552312732475,"finger_time":1552312731814,"fix_duration":565.7283224918061,"trial":3,"RT":1612,"MT":661,"sideResp":2,"stimulus":[],"xmouse":[783,783,783,783,783,783,783,783,783,783,783,783,783,783,783,783,783,783,783,783,783,783,783,783,783,783,783,783,783,783,783,783,783,783,783,783,783,783,783,783,783,783,783,783,783,783,783,783,783,783,783,783,783,783,783,783,783,783,783,783,783,783,783,783,783,783,783,783,783,783,783,783,783,783,783,783,783,783,783,783,806,820,824,824,824,824,825,825,825,825,825,830,846,865,881,915,998,1027,1075,1083,1100,1108,1119,1129,1139,1154,1159,1160,1160,1160,1160,1160,1160,1158],"ymouse":[555,555,555,555,555,555,555,555,555,555,555,555,555,555,555,555,555,555,555,555,555,555,555,555,555,555,555,555,555,555,555,555,555,555,555,555,555,555,555,555,555,555,555,555,555,555,555,555,555,555,555,555,555,555,555,555,555,555,555,555,555,555,555,555,555,555,555,555,555,555,555,555,555,555,555,555,555,555,555,545,387,297,267,262,262,262,261,261,261,261,261,261,261,261,260,253,229,223,209,207,203,197,190,181,166,147,137,120,110,105,102,101,99,97],"timestamp_mouse":[13,41,53,71,91,113,131,153,173,191,211,231,253,271,293,312,332,352,372,392,412,433,453,471,493,512,533,553,571,591,611,633,652,673,693,711,732,752,773,792,813,832,852,872,892,913,932,951,972,992,1012,1032,1052,1072,1093,1112,1131,1153,1172,1192,1211,1232,1253,1273,1292,1312,1331,1352,1373,1392,1413,1431,1452,1473,1492,1512,1531,1551,1572,1592,1612,1632,1652,1672,1692,1713,1732,1751,1772,1791,1812,1832,1852,1873,1893,1912,1932,1952,1971,1992,2012,2032,2052,2072,2093,2112,2132,2152,2172,2192,2212,2231,2251,2272],"xSR":741.5,"ySR":469.95,"xT1":424.9,"yT1":0,"xT2":1058.1,"yT2":0,"toosoon":0,"cond_shown":"Incongruent","ratio_trial":200,"L_num":1,"L_den":2,"R_num":3,"R_den":10,"correct_side":1,"subjID":"jorgealejandroparra21","gender":"0","school":"4","age":"10"},{"start_time":1552312737429,"click_time":1552312740234,"finger_time":1552312739414,"fix_duration":673.6778584360611,"trial":4,"RT":1985,"MT":820,"sideResp":2,"stimulus":[],"xmouse":[809,809,809,809,809,808,807,807,807,807,807,807,807,806,806,806,806,806,806,806,806,806,806,806,806,806,806,806,806,806,806,806,806,806,806,806,806,806,806,806,806,806,806,806,806,806,806,806,806,806,806,806,806,806,806,806,806,806,806,806,806,806,806,806,806,806,806,806,806,806,806,806,806,806,806,806,806,806,806,807,809,809,809,809,809,809,809,809,809,809,809,809,809,809,809,820,827,832,836,842,853,860,869,881,895,927,953,977,1000,1016,1041,1053,1061,1066,1077,1091,1096,1100,1103,1107,1118,1122,1123,1124,1126,1130,1131,1134,1134,1134,1134,1134,1134,1133,1133,1130,1128,1127,1125,1124,1122],"ymouse":[487,487,487,487,487,487,487,487,487,487,487,487,487,488,488,488,488,488,488,488,488,488,488,488,488,488,488,488,488,488,488,488,488,488,488,488,488,488,488,488,488,488,488,488,488,488,488,488,488,488,488,488,488,488,488,488,488,488,488,488,488,488,488,488,488,488,488,488,488,488,488,488,488,488,488,488,488,488,488,487,485,485,485,485,485,485,485,485,485,485,485,485,485,485,485,482,480,478,476,474,468,464,458,450,439,419,405,391,374,359,329,317,306,297,278,255,246,238,229,220,195,185,179,175,170,155,150,144,139,137,134,134,133,132,131,126,123,118,113,106,92],"timestamp_mouse":[14,27,45,64,84,105,124,145,166,185,205,226,244,266,286,306,324,346,365,386,405,424,445,466,486,504,526,544,564,584,605,626,645,665,685,706,725,744,766,786,806,824,846,866,886,905,926,946,965,985,1004,1026,1045,1064,1084,1106,1126,1146,1164,1184,1206,1225,1246,1266,1285,1306,1324,1345,1366,1386,1406,1426,1445,1465,1485,1506,1526,1546,1565,1585,1604,1626,1645,1666,1684,1705,1726,1745,1764,1785,1805,1824,1844,1866,1885,1906,1925,1945,1965,1985,2005,2026,2046,2065,2085,2105,2126,2145,2166,2185,2205,2226,2246,2265,2285,2305,2325,2345,2364,2386,2405,2425,2445,2465,2484,2504,2524,2545,2565,2585,2605,2624,2645,2665,2685,2705,2725,2745,2765,2785,2805],"xSR":741.5,"ySR":469.95,"xT1":424.9,"yT1":0,"xT2":1058.1,"yT2":0,"toosoon":0,"cond_shown":"Incongruent","ratio_trial":100,"L_num":3,"L_den":9,"R_num":7,"R_den":30,"correct_side":1,"subjID":"jorgealejandroparra21","gender":"0","school":"4","age":"10"},{"start_time":1552312744485,"click_time":1552312747594,"finger_time":1552312746454,"fix_duration":1048.8346484099816,"trial":5,"RT":1969,"MT":1140,"sideResp":2,"stimulus":[],"xmouse":[800,800,800,800,800,800,800,800,800,800,800,800,800,800,800,800,800,800,800,800,800,800,800,800,800,800,800,800,800,800,800,800,800,800,800,800,800,800,800,800,800,800,800,800,800,800,800,800,800,800,800,800,800,800,800,800,800,800,800,800,800,800,800,800,800,800,800,800,800,800,800,800,800,800,800,800,800,800,800,800,800,800,800,800,800,800,800,800,800,800,800,800,802,804,808,812,817,826,857,872,887,904,917,950,966,980,991,999,1004,1004,1004,1004,1004,1004,1004,1004,1004,1004,1004,1004,1004,1004,1004,1004,1004,1006,1006,1007,1007,1009,1016,1027,1036,1041,1042,1045,1046,1047,1047,1047,1047,1047,1047,1048,1048,1048,1048,1049,1051,1053,1053,1054,1055,1057,1057,1059],"ymouse":[511,511,511,511,511,511,511,511,511,511,511,511,511,511,511,511,511,511,511,511,511,511,511,511,511,511,511,511,511,511,511,511,511,511,511,511,511,511,511,511,511,511,511,511,511,511,511,511,511,511,511,511,511,511,511,511,511,511,511,511,511,511,511,511,511,511,511,511,511,511,511,511,511,511,511,511,511,511,511,511,511,511,511,511,511,511,511,511,511,511,511,511,511,511,509,505,498,484,448,433,417,395,377,331,308,289,274,256,242,239,237,236,236,234,231,230,226,221,203,195,185,175,167,157,154,149,146,144,141,138,131,124,120,118,117,116,116,115,115,115,115,115,114,113,113,112,111,110,105,102,101,99,97,96,95,93],"timestamp_mouse":[9,39,49,70,89,110,130,148,169,190,208,229,250,268,289,308,329,350,369,388,408,430,448,468,490,508,528,550,569,588,608,630,648,668,690,708,730,748,770,788,809,829,850,868,888,910,930,949,968,990,1010,1030,1049,1069,1089,1109,1129,1150,1169,1190,1210,1229,1248,1269,1289,1308,1330,1349,1370,1389,1409,1429,1448,1468,1490,1509,1530,1548,1569,1590,1610,1628,1648,1669,1695,1709,1729,1749,1770,1789,1810,1829,1849,1869,1890,1908,1929,1949,1969,1989,2009,2029,2049,2069,2089,2110,2128,2149,2169,2189,2208,2228,2250,2269,2289,2309,2328,2348,2368,2389,2409,2429,2449,2469,2488,2508,2528,2548,2568,2589,2609,2629,2649,2669,2689,2709,2729,2750,2770,2788,2808,2829,2850,2868,2889,2909,2928,2948,2968,2988,3009,3029,3049,3069,3089,3109],"xSR":741.5,"ySR":469.95,"xT1":424.9,"yT1":0,"xT2":1058.1,"yT2":0,"toosoon":0,"cond_shown":"Congruent","ratio_trial":200,"L_num":6,"L_den":20,"R_num":11,"R_den":22,"correct_side":2,"subjID":"jorgealejandroparra21","gender":"0","school":"4","age":"10"},{"start_time":1552312751282,"click_time":1552312754134,"finger_time":1552312753653,"fix_duration":466.64290557408185,"trial":6,"RT":2371,"MT":481,"sideResp":1,"stimulus":[],"xmouse":[771,770,769,768,768,768,768,768,768,768,768,768,768,768,768,768,768,768,768,768,768,768,768,768,768,768,768,768,769,770,771,772,772,772,772,772,772,772,772,772,772,772,772,772,772,772,772,772,772,772,772,772,772,772,772,772,772,772,772,772,772,772,772,772,772,772,772,772,772,772,772,772,772,772,772,772,772,772,772,772,772,772,772,772,772,772,772,772,772,772,772,772,772,772,772,772,772,772,772,772,772,772,772,772,772,772,772,772,772,772,772,772,772,772,772,772,767,757,727,673,651,634,614,594,571,570,570,570,570,570,570,570,570,570,570,570,570,570,570,570,566,554,519],"ymouse":[562,564,564,565,565,565,565,565,565,565,565,565,565,565,565,565,565,565,565,565,565,565,565,565,565,565,564,562,558,556,554,553,553,553,553,553,553,553,553,553,553,553,553,553,553,553,553,553,553,553,553,553,553,553,553,553,553,553,553,553,553,553,553,553,553,553,553,553,553,553,553,553,553,553,553,553,553,553,553,553,553,553,553,553,553,553,553,553,553,553,553,553,553,553,553,553,553,553,553,553,553,553,553,553,553,553,553,553,553,553,553,553,553,553,553,553,536,513,462,334,278,237,194,162,133,132,132,132,132,132,132,132,132,132,132,132,132,132,132,132,128,117,95],"timestamp_mouse":[13,36,51,71,91,112,133,153,171,193,212,233,252,272,292,313,333,353,372,392,411,433,452,472,492,512,532,551,572,592,611,631,653,672,693,711,732,753,772,792,812,833,851,871,892,913,932,953,972,992,1011,1032,1052,1072,1093,1112,1133,1153,1172,1191,1212,1231,1253,1272,1292,1312,1332,1353,1371,1392,1413,1432,1453,1472,1492,1513,1533,1552,1572,1593,1612,1633,1653,1672,1691,1712,1733,1752,1773,1791,1812,1833,1853,1871,1891,1913,1931,1951,1973,1993,2011,2031,2052,2073,2092,2112,2133,2153,2172,2191,2212,2232,2253,2272,2293,2311,2331,2352,2371,2391,2411,2432,2451,2472,2492,2513,2532,2552,2572,2591,2612,2631,2652,2671,2692,2712,2733,2752,2772,2791,2812,2832,2851],"xSR":741.5,"ySR":469.95,"xT1":424.9,"yT1":0,"xT2":1058.1,"yT2":0,"toosoon":0,"cond_shown":"Incongruent","ratio_trial":100,"L_num":2,"L_den":4,"R_num":6,"R_den":15,"correct_side":1,"subjID":"jorgealejandroparra21","gender":"0","school":"4","age":"10"},{"start_time":1552312756141,"click_time":1552312758875,"finger_time":1552312757794,"fix_duration":565.5792850156338,"trial":7,"RT":1653,"MT":1081,"sideResp":1,"stimulus":[],"xmouse":[777,777,777,777,777,777,777,777,777,777,777,777,777,777,777,777,777,777,777,777,777,777,777,777,777,777,777,777,777,777,777,777,777,777,777,777,777,777,777,777,777,777,777,777,777,777,777,777,777,777,777,777,777,777,777,777,777,777,777,777,777,777,777,777,777,777,777,777,777,777,777,777,777,777,777,777,777,777,778,794,807,830,837,843,846,848,848,848,848,849,850,857,869,887,909,931,963,981,993,1007,1021,1048,1057,1060,1060,1060,1060,1060,1060,1058,1047,1001,933,788,602,456,346,334,328,327,325,322,321,321,321,321,321,322,341,349,353,357,358,360,362,369,429],"ymouse":[513,513,513,513,513,513,513,513,513,513,513,513,513,513,513,513,513,513,513,513,513,513,513,513,513,513,513,513,513,513,513,513,513,513,513,513,513,513,513,513,513,513,513,513,513,513,513,513,513,513,513,513,513,513,513,513,513,513,513,513,513,513,513,513,513,513,513,513,513,513,513,513,513,513,513,513,513,513,510,502,494,477,469,464,461,459,458,458,458,458,454,447,444,440,434,429,411,390,370,349,329,292,280,272,271,271,271,271,271,271,271,273,273,255,206,156,97,81,66,62,59,53,52,52,52,52,52,50,45,44,44,44,45,45,47,48,49],"timestamp_mouse":[14,34,53,74,94,112,134,154,172,193,214,233,253,272,292,314,332,352,372,393,412,433,453,473,492,514,532,554,572,593,612,634,653,673,694,714,733,754,772,793,813,833,854,874,894,914,932,954,974,992,1012,1033,1054,1073,1093,1112,1134,1153,1174,1193,1212,1232,1253,1272,1293,1314,1332,1352,1373,1394,1414,1433,1453,1474,1493,1512,1532,1553,1573,1593,1614,1633,1653,1673,1693,1713,1733,1754,1773,1793,1813,1832,1853,1873,1893,1913,1933,1954,1973,1993,2013,2032,2053,2074,2094,2113,2132,2153,2173,2193,2212,2233,2253,2273,2292,2314,2333,2354,2373,2393,2413,2433,2453,2474,2493,2514,2534,2553,2573,2592,2612,2633,2653,2672,2692,2712,2733],"xSR":741.5,"ySR":469.95,"xT1":424.9,"yT1":0,"xT2":1058.1,"yT2":0,"toosoon":0,"cond_shown":"Congruent","ratio_trial":300,"L_num":5,"L_den":25,"R_num":6,"R_den":12,"correct_side":2,"subjID":"jorgealejandroparra21","gender":"0","school":"4","age":"10"},{"start_time":1552312761607,"click_time":1552312764375,"finger_time":1552312763253,"fix_duration":250,"trial":8,"RT":1646,"MT":1122,"sideResp":1,"stimulus":[],"xmouse":[813,813,813,813,813,813,813,813,814,814,814,814,814,814,814,814,814,814,814,813,813,812,812,812,811,811,811,811,811,811,811,811,811,811,811,811,811,811,811,811,811,811,811,811,811,811,811,811,811,811,811,811,811,811,811,811,811,811,811,811,811,811,811,811,811,812,812,813,815,817,819,819,820,822,823,824,825,826,827,828,828,830,834,835,852,864,873,877,878,878,873,860,841,817,714,639,586,550,521,472,448,410,400,355,347,344,342,342,342,342,342,342,342,347,359,363,364,366,366,368,368,369,369,369,372,378,388,400,407,411,411,411,412,413,418,419,421,424,433],"ymouse":[530,528,528,525,523,522,520,518,516,516,516,516,516,516,516,516,516,515,514,512,510,510,509,508,504,502,500,498,493,492,492,492,492,492,492,492,492,492,492,492,492,492,492,492,492,492,492,492,492,492,492,492,492,492,492,492,492,492,491,491,491,491,491,491,491,490,490,490,488,487,484,483,481,479,477,476,475,474,473,473,473,472,468,466,450,437,426,416,414,409,405,403,403,404,395,362,323,287,248,179,149,95,81,29,18,11,7,6,6,6,6,6,4,2,0,0,0,0,2,4,7,8,9,9,15,20,26,30,32,34,34,34,34,34,34,33,32,32,29],"timestamp_mouse":[11,26,46,68,87,107,127,147,168,186,207,226,247,267,288,308,327,347,367,387,408,427,447,466,488,507,527,548,568,588,607,628,647,667,686,708,727,747,768,788,806,827,847,867,888,908,927,947,967,988,1007,1027,1047,1067,1086,1107,1127,1146,1168,1188,1206,1226,1248,1268,1288,1308,1327,1346,1367,1386,1406,1426,1446,1467,1486,1506,1527,1546,1567,1586,1606,1627,1646,1666,1686,1706,1726,1746,1766,1786,1806,1826,1846,1867,1886,1907,1925,1947,1967,1986,2006,2026,2047,2067,2086,2106,2126,2147,2166,2187,2207,2227,2246,2266,2286,2306,2327,2346,2366,2386,2407,2426,2446,2466,2486,2506,2527,2547,2566,2586,2606,2626,2646,2666,2685,2706,2727,2746,2767],"xSR":741.5,"ySR":469.95,"xT1":424.9,"yT1":0,"xT2":1058.1,"yT2":0,"toosoon":0,"cond_shown":"Congruent","ratio_trial":200,"L_num":8,"L_den":15,"R_num":3,"R_den":9,"correct_side":1,"subjID":"jorgealejandroparra21","gender":"0","school":"4","age":"10"},{"start_time":1552312767580,"click_time":1552312770113,"finger_time":1552312769414,"fix_duration":1185.9152422487384,"trial":9,"RT":1834,"MT":699,"sideResp":2,"stimulus":[],"xmouse":[785,785,785,785,785,785,785,785,785,785,785,785,785,785,785,785,785,785,785,785,785,785,785,785,785,785,785,785,785,785,785,785,785,785,785,785,785,785,785,785,785,785,785,785,785,785,785,785,785,785,785,785,785,785,785,785,785,785,785,785,785,785,785,785,785,785,785,785,785,785,785,785,785,785,785,785,785,785,785,785,785,785,785,785,785,785,785,789,796,803,812,842,858,871,882,901,913,928,939,955,973,1016,1029,1040,1047,1054,1057,1059,1062,1063,1066,1069,1071,1072,1074,1079,1081,1083,1084,1086,1088,1091,1093,1094,1095,1098,1100],"ymouse":[519,519,519,519,519,519,519,519,519,519,519,519,519,519,519,519,519,519,519,519,519,519,519,519,519,519,519,519,519,519,519,519,519,519,519,519,519,519,519,519,519,519,519,519,519,519,519,519,519,519,519,519,519,519,519,519,519,519,519,519,519,519,519,519,519,519,519,519,519,519,519,519,519,519,519,519,519,519,519,519,519,519,519,519,519,519,519,513,504,497,488,460,447,434,424,405,391,377,364,345,324,273,257,241,231,217,211,206,199,196,187,178,174,171,166,155,150,146,143,139,133,126,121,116,110,100,95],"timestamp_mouse":[14,36,61,74,94,113,133,154,174,193,213,234,254,273,294,313,334,353,374,393,413,433,454,473,493,513,533,554,573,592,613,633,653,672,694,713,733,754,774,793,813,833,854,872,893,913,934,953,973,993,1014,1034,1052,1073,1094,1113,1133,1153,1174,1193,1213,1233,1253,1274,1293,1313,1333,1353,1373,1394,1413,1434,1452,1474,1493,1513,1534,1554,1573,1593,1613,1633,1653,1673,1694,1713,1733,1753,1773,1792,1814,1834,1853,1872,1892,1913,1934,1953,1973,1994,2013,2034,2053,2073,2094,2114,2133,2153,2173,2193,2214,2233,2253,2273,2294,2314,2334,2354,2374,2394,2414,2433,2454,2473,2493,2514,2533],"xSR":741.5,"ySR":469.95,"xT1":424.9,"yT1":0,"xT2":1058.1,"yT2":0,"toosoon":0,"cond_shown":"Incongruent","ratio_trial":100,"L_num":13,"L_den":26,"R_num":12,"R_den":20,"correct_side":2,"subjID":"jorgealejandroparra21","gender":"0","school":"4","age":"10"},{"start_time":1552312772172,"click_time":1552312774953,"finger_time":1552312774733,"fix_duration":637.6751141407724,"trial":10,"RT":2561,"MT":220,"sideResp":2,"stimulus":[],"xmouse":[758,758,758,758,758,758,758,758,758,758,758,758,758,758,758,758,758,758,758,758,758,758,758,758,758,758,758,758,758,758,758,758,758,758,758,758,758,758,758,758,758,758,758,758,758,758,758,758,758,758,758,758,758,758,758,758,758,758,758,758,758,758,758,758,758,758,758,758,758,758,758,758,758,758,758,758,758,758,758,758,758,758,758,758,758,758,758,758,758,758,758,758,758,758,758,758,758,758,758,758,758,758,758,758,758,758,758,758,758,758,758,758,758,758,758,758,758,758,758,758,769,777,791,793,794,796,800,819,833,855,870,886,932,958,981,1002,1021,1059,1077,1093],"ymouse":[528,528,528,528,528,528,528,528,528,528,528,528,528,528,528,528,528,528,528,528,528,528,528,528,528,528,528,528,528,528,528,528,528,528,528,528,528,528,528,528,528,528,528,528,528,528,528,528,528,528,528,528,528,528,528,528,528,528,528,528,528,528,528,528,528,528,528,528,528,528,528,528,528,528,528,528,528,528,528,528,528,528,528,528,528,528,528,528,528,528,528,528,528,528,528,528,528,528,528,528,528,528,528,528,528,528,528,528,528,528,528,528,528,528,528,528,528,528,528,528,518,511,498,496,494,493,489,471,455,426,405,384,319,283,252,221,193,138,105,76],"timestamp_mouse":[10,21,42,62,82,101,121,142,161,182,202,222,241,262,282,301,321,342,362,381,401,422,442,462,482,502,521,542,561,582,601,622,642,661,682,702,721,741,761,781,801,823,842,862,880,901,921,941,962,981,1002,1021,1042,1061,1082,1101,1121,1142,1162,1182,1201,1222,1241,1261,1282,1301,1321,1342,1362,1381,1402,1422,1442,1462,1481,1501,1522,1541,1561,1582,1602,1621,1642,1661,1681,1702,1721,1741,1762,1781,1802,1821,1842,1862,1882,1902,1922,1941,1962,1982,2001,2021,2042,2061,2082,2101,2122,2141,2161,2182,2201,2222,2240,2262,2281,2301,2321,2342,2362,2381,2401,2422,2441,2461,2480,2502,2521,2541,2560,2581,2601,2622,2641,2661,2682,2701,2721,2742,2761,2781],"xSR":741.5,"ySR":469.95,"xT1":424.9,"yT1":0,"xT2":1058.1,"yT2":0,"toosoon":0,"cond_shown":"Congruent","ratio_trial":100,"L_num":2,"L_den":5,"R_num":11,"R_den":22,"correct_side":2,"subjID":"jorgealejandroparra21","gender":"0","school":"4","age":"10"},{"start_time":1552312777960,"click_time":1552312781253,"finger_time":1552312780614,"fix_duration":1225.844883954917,"trial":11,"RT":2654,"MT":639,"sideResp":1,"stimulus":[],"xmouse":[794,794,794,794,794,794,794,794,794,794,794,794,794,794,794,794,794,794,794,794,794,794,794,794,794,794,794,794,794,794,794,794,794,794,794,794,794,794,794,794,794,794,794,794,794,794,794,794,794,794,794,794,794,794,794,794,794,794,794,794,794,794,794,794,794,794,794,794,794,794,794,794,794,794,794,794,794,794,794,794,794,794,794,794,794,794,794,794,794,794,794,794,794,794,794,794,794,794,794,794,794,794,794,794,794,794,794,794,794,794,794,794,794,794,794,794,794,794,794,794,794,794,794,794,794,800,804,809,812,812,812,808,778,760,738,723,704,694,673,657,634,610,591,566,555,548,543,542,541,541,541,541,541,541,541,541,541,541,541,541,538,537,534,529,523],"ymouse":[492,492,492,492,492,492,492,492,492,492,492,492,492,492,492,492,492,492,492,492,492,492,492,492,492,492,492,492,492,492,492,492,492,492,492,492,492,492,492,492,492,492,492,492,492,492,492,492,492,492,492,492,492,492,492,492,492,492,492,492,492,492,492,492,492,492,492,492,492,492,492,492,492,492,492,492,492,492,492,492,492,492,492,492,492,492,492,492,492,492,492,492,492,492,492,492,492,492,492,492,492,492,492,492,492,492,492,492,492,492,492,492,492,492,492,492,492,492,492,492,492,492,492,492,492,487,484,480,478,478,477,473,447,432,411,391,364,347,310,284,244,211,185,152,136,123,109,105,98,98,98,98,98,98,98,98,98,98,98,98,97,97,96,95,94],"timestamp_mouse":[14,34,54,74,93,114,133,153,174,194,214,234,253,274,293,314,334,353,373,393,413,433,454,474,493,513,534,553,574,593,613,633,654,674,692,712,734,754,773,794,814,834,854,873,893,914,934,953,974,993,1013,1034,1053,1074,1093,1113,1134,1154,1174,1193,1214,1233,1254,1274,1294,1314,1333,1353,1374,1393,1413,1434,1454,1473,1493,1513,1534,1553,1573,1592,1613,1633,1654,1673,1693,1713,1733,1754,1773,1793,1814,1833,1853,1874,1893,1913,1934,1954,1973,1994,2014,2033,2053,2074,2094,2114,2134,2153,2174,2194,2213,2233,2254,2274,2294,2314,2334,2353,2373,2392,2414,2434,2454,2474,2494,2513,2534,2553,2573,2593,2614,2634,2654,2673,2694,2714,2733,2753,2772,2793,2813,2833,2853,2873,2894,2913,2933,2953,2973,2994,3013,3033,3054,3073,3093,3113,3134,3153,3174,3193,3213,3234,3254,3273,3293],"xSR":741.5,"ySR":469.95,"xT1":424.9,"yT1":0,"xT2":1058.1,"yT2":0,"toosoon":0,"cond_shown":"Congruent","ratio_trial":100,"L_num":1,"L_den":2,"R_num":3,"R_den":5,"correct_side":2,"subjID":"jorgealejandroparra21","gender":"0","school":"4","age":"10"},{"start_time":1552312783085,"click_time":1552312786154,"finger_time":1552312784733,"fix_duration":250,"trial":12,"RT":1648,"MT":1421,"sideResp":1,"stimulus":[],"xmouse":[787,787,787,787,787,787,787,787,787,787,787,787,787,787,787,787,787,787,787,787,787,787,787,787,787,787,787,787,787,787,787,787,787,787,787,787,787,787,787,787,787,787,787,787,787,787,787,787,787,787,787,787,787,787,787,787,787,787,787,787,787,787,787,787,787,787,787,787,787,787,787,787,787,787,787,787,787,787,787,795,809,819,835,842,850,862,875,896,904,914,920,924,932,937,939,942,947,953,957,963,968,974,984,988,991,995,998,1002,1003,1007,1008,1009,1011,1011,1011,1011,1009,999,986,978,966,947,851,770,716,688,678,677,677,677,677,677,670,655,645,635,624,620,616,611,606,599,589,583,578,574,572,571,563,558,555,551,534,521],"ymouse":[490,490,490,490,490,490,490,490,490,490,490,490,490,490,490,490,490,490,490,490,490,490,490,490,490,490,490,490,490,490,490,490,490,490,490,490,490,490,490,490,490,490,490,490,490,490,490,490,490,490,490,490,490,490,490,490,490,490,490,490,490,490,490,490,490,490,490,490,490,490,490,490,490,490,490,490,490,490,490,488,479,474,465,461,456,449,442,429,425,419,416,413,407,403,400,398,394,388,383,377,371,363,349,343,337,331,327,319,317,310,307,303,295,292,287,282,278,268,258,247,234,216,143,87,42,18,7,5,5,5,5,5,4,6,9,14,18,21,24,28,31,34,39,39,41,42,42,43,44,45,46,46,47,47],"timestamp_mouse":[14,34,48,67,88,109,128,148,168,189,208,228,249,269,288,308,328,348,369,389,409,428,448,467,488,508,529,549,568,589,609,629,649,668,688,708,728,748,769,788,809,828,848,868,888,908,928,949,968,988,1008,1029,1048,1068,1088,1108,1129,1149,1169,1189,1208,1229,1248,1268,1287,1309,1329,1348,1368,1389,1408,1428,1448,1468,1488,1509,1528,1548,1568,1588,1608,1628,1648,1668,1688,1709,1728,1749,1768,1789,1808,1828,1849,1868,1888,1909,1929,1948,1968,1988,2008,2027,2049,2068,2088,2108,2128,2149,2168,2189,2207,2229,2248,2268,2288,2308,2327,2348,2368,2389,2409,2428,2448,2468,2488,2508,2529,2548,2568,2588,2609,2628,2649,2668,2688,2708,2729,2748,2768,2788,2808,2829,2849,2868,2889,2908,2928,2948,2968,2988,3009,3028,3049,3069],"xSR":741.5,"ySR":469.95,"xT1":424.9,"yT1":0,"xT2":1058.1,"yT2":0,"toosoon":0,"cond_shown":"Incongruent","ratio_trial":100,"L_num":6,"L_den":10,"R_num":11,"R_den":22,"correct_side":1,"subjID":"jorgealejandroparra21","gender":"0","school":"4","age":"10"},{"start_time":1552312788714,"click_time":1552312791173,"finger_time":1552312790134,"fix_duration":1079.7973417935527,"trial":13,"RT":1420,"MT":1039,"sideResp":2,"stimulus":[],"xmouse":[809,809,809,809,809,809,809,809,809,809,809,809,809,809,809,809,809,809,809,809,809,809,809,809,809,809,809,809,809,809,809,809,809,809,809,809,821,823,824,825,827,827,827,827,827,827,827,827,827,827,827,827,827,827,827,827,827,827,827,827,827,827,827,827,827,827,827,827,830,837,851,913,966,1017,1055,1092,1172,1198,1218,1231,1238,1241,1241,1241,1241,1241,1241,1239,1235,1232,1231,1227,1221,1220,1218,1218,1216,1213,1211,1211,1211,1211,1211,1211,1205,1193,1176,1174,1174,1174,1174,1174,1174,1174,1174,1173,1172,1171,1171,1170,1169,1161,1155],"ymouse":[527,527,527,527,527,527,527,527,527,527,527,527,527,527,527,527,527,527,527,527,527,527,527,527,527,527,527,527,527,527,527,527,527,527,527,527,521,520,519,519,518,518,518,518,518,518,518,518,518,518,518,518,518,518,518,518,518,518,518,518,518,518,518,518,518,518,518,518,516,513,507,465,422,377,346,314,245,215,183,151,124,96,91,91,91,91,91,90,90,90,90,91,95,95,96,96,96,96,96,96,96,96,96,96,95,91,87,86,86,86,86,86,86,86,86,85,84,82,80,80,79,73,71],"timestamp_mouse":[19,39,59,78,100,120,140,160,179,199,220,239,259,279,300,319,339,360,379,399,420,439,460,480,499,520,540,559,580,600,619,639,659,679,700,719,740,760,780,800,819,839,859,880,899,919,939,959,979,999,1020,1040,1059,1079,1099,1120,1140,1158,1179,1199,1218,1240,1259,1283,1299,1318,1340,1359,1380,1400,1420,1439,1460,1479,1499,1519,1539,1559,1580,1600,1619,1639,1659,1679,1700,1719,1740,1759,1780,1799,1820,1839,1859,1879,1900,1921,1939,1958,1980,1999,2019,2039,2060,2079,2099,2119,2140,2159,2180,2199,2219,2240,2260,2279,2299,2319,2340,2360,2380,2400,2420,2439,2459],"xSR":741.5,"ySR":469.95,"xT1":424.9,"yT1":0,"xT2":1058.1,"yT2":0,"toosoon":0,"cond_shown":"Incongruent","ratio_trial":200,"L_num":11,"L_den":20,"R_num":3,"R_den":4,"correct_side":2,"subjID":"jorgealejandroparra21","gender":"0","school":"4","age":"10"},{"start_time":1552312794331,"click_time":1552312796373,"finger_time":1552312796114,"fix_duration":737.3989409503328,"trial":14,"RT":1783,"MT":259,"sideResp":1,"stimulus":[],"xmouse":[771,771,771,771,771,771,771,771,771,771,771,771,771,771,771,771,771,771,771,771,771,771,771,771,771,771,771,771,771,771,771,771,771,771,771,771,771,771,771,771,771,771,771,771,771,771,771,771,771,771,771,771,771,771,771,771,771,771,771,771,771,771,771,771,771,771,771,771,771,771,771,771,771,771,771,771,771,771,771,770,769,768,768,767,767,766,766,764,763,758,752,748,723,711,694,683,660,649,632,604,572,521,494],"ymouse":[516,516,516,516,516,516,516,516,516,516,516,516,516,516,516,516,516,516,516,516,516,516,516,516,516,516,516,516,516,516,516,516,516,516,516,516,516,516,516,516,516,516,516,516,516,516,516,516,516,516,516,516,516,516,516,516,516,516,516,516,516,516,516,516,516,516,516,516,516,516,516,516,516,516,516,516,516,516,516,515,513,509,501,499,497,495,489,485,480,469,456,445,379,350,319,298,265,249,228,193,160,111,88],"timestamp_mouse":[13,22,42,62,83,103,122,142,175,182,202,222,243,262,282,303,322,343,362,383,401,422,443,463,482,503,522,542,562,583,602,622,642,662,682,702,722,742,763,782,802,822,843,863,882,903,922,943,962,982,1002,1023,1043,1062,1083,1103,1122,1142,1162,1183,1202,1222,1243,1262,1282,1303,1323,1343,1362,1382,1402,1422,1442,1462,1483,1502,1523,1542,1562,1582,1602,1623,1643,1662,1683,1702,1722,1742,1762,1783,1803,1823,1841,1863,1882,1902,1924,1942,1963,1982,2002,2023,2042],"xSR":741.5,"ySR":469.95,"xT1":424.9,"yT1":0,"xT2":1058.1,"yT2":0,"toosoon":0,"cond_shown":"Incongruent","ratio_trial":200,"L_num":7,"L_den":10,"R_num":8,"R_den":16,"correct_side":1,"subjID":"jorgealejandroparra21","gender":"0","school":"4","age":"10"},{"start_time":1552312797747,"click_time":1552312801193,"finger_time":1552312799454,"fix_duration":250,"trial":15,"RT":1707,"MT":1739,"sideResp":2,"stimulus":[],"xmouse":[818,818,819,819,819,819,819,819,819,819,819,819,819,819,819,819,819,819,819,819,817,817,817,817,817,817,817,816,816,814,813,812,812,812,812,812,812,812,812,812,812,812,812,812,812,812,812,812,812,812,812,812,812,811,811,811,811,811,811,811,811,811,811,811,811,811,811,811,811,811,811,811,811,811,811,811,811,811,811,811,811,811,814,826,839,853,876,889,905,911,923,931,932,932,932,932,932,932,919,896,856,793,755,736,721,712,698,693,691,683,674,642,622,601,584,567,548,544,542,542,542,541,541,541,541,541,541,541,544,554,563,582,588,596,609,632,683,698,706,708,708,733,754,767,772,776,789,811,834,858,895,944,960,974,989,1005,1022,1027,1027,1027,1029,1034,1036,1037,1039,1042,1049,1050,1051,1052,1055,1058,1060],"ymouse":[519,519,519,518,517,515,515,515,515,515,515,515,515,515,515,515,514,513,512,511,511,511,511,511,511,511,511,511,511,511,511,511,511,511,511,511,511,511,511,511,511,511,511,511,511,511,511,511,511,511,511,511,511,511,511,511,511,511,511,511,511,511,511,511,511,511,511,511,511,511,511,511,511,511,511,511,511,511,511,511,511,511,506,497,488,476,455,441,414,403,379,356,352,350,349,349,349,347,338,325,302,259,234,220,208,200,189,187,186,181,176,161,151,141,132,123,114,112,112,112,112,112,112,112,112,112,112,112,113,116,121,134,135,135,135,132,129,129,131,131,132,142,149,154,157,159,163,166,170,173,178,184,184,182,178,170,163,161,161,161,159,148,143,137,131,125,113,110,107,106,103,96,92],"timestamp_mouse":[12,37,46,67,86,106,126,147,166,186,206,227,246,266,286,307,326,347,366,387,406,426,447,466,485,506,526,547,566,587,606,627,646,667,685,707,726,745,766,787,807,826,846,866,886,906,927,946,967,986,1006,1026,1047,1066,1085,1107,1127,1145,1167,1187,1207,1227,1246,1266,1287,1306,1327,1346,1367,1386,1407,1427,1446,1467,1486,1506,1527,1546,1567,1585,1607,1627,1646,1667,1686,1707,1727,1746,1766,1786,1806,1826,1846,1867,1886,1907,1926,1946,1967,1986,2006,2026,2046,2066,2087,2107,2127,2146,2166,2186,2206,2226,2246,2266,2286,2307,2325,2346,2367,2387,2408,2426,2447,2467,2487,2506,2526,2546,2566,2587,2606,2625,2646,2667,2686,2706,2725,2747,2767,2786,2806,2827,2847,2867,2886,2906,2926,2946,2967,2986,3006,3027,3046,3067,3086,3107,3126,3148,3166,3186,3206,3225,3246,3267,3286,3306,3326,3347,3367,3386,3406,3426,3446],"xSR":741.5,"ySR":469.95,"xT1":424.9,"yT1":0,"xT2":1058.1,"yT2":0,"toosoon":0,"cond_shown":"Incongruent","ratio_trial":300,"L_num":13,"L_den":26,"R_num":12,"R_den":15,"correct_side":2,"subjID":"jorgealejandroparra21","gender":"0","school":"4","age":"10"},{"start_time":1552312804785,"click_time":1552312807054,"finger_time":1552312806293,"fix_duration":690.6389452983525,"trial":16,"RT":1508,"MT":761,"sideResp":2,"stimulus":[],"xmouse":[787,787,787,787,787,787,787,787,787,787,787,787,787,787,787,787,787,787,787,787,787,787,787,787,787,787,787,787,787,787,787,787,787,787,787,787,787,787,787,787,787,787,787,787,787,787,787,787,787,787,787,787,787,787,787,787,787,787,787,787,787,787,787,787,787,787,787,787,787,787,787,787,787,788,812,915,959,990,1011,1018,1027,1035,1050,1062,1069,1075,1077,1079,1080,1081,1082,1083,1084,1085,1085,1070,1056,1044,1031,1025,1024,1024,1024,1023,1023,1023,1023,1023,1024,1025,1034,1040,1053,1069],"ymouse":[531,531,531,531,531,531,531,531,531,531,531,531,531,531,531,531,531,531,531,531,531,531,531,531,531,531,531,531,531,531,531,531,531,531,531,531,531,531,531,531,531,531,531,531,531,531,531,531,531,531,531,531,531,531,531,531,531,531,531,531,531,531,531,531,531,531,531,531,531,531,531,531,531,531,508,403,371,354,348,343,334,327,316,306,298,288,282,278,276,274,268,262,252,243,224,190,173,155,143,131,129,125,122,121,121,121,121,120,119,118,113,109,104,99],"timestamp_mouse":[9,28,49,69,87,109,128,149,169,188,208,228,249,268,288,308,328,349,369,388,409,428,448,468,488,507,528,549,568,588,609,628,649,669,688,709,728,748,769,787,808,829,847,869,889,909,929,949,969,989,1008,1028,1048,1069,1089,1108,1128,1148,1169,1187,1209,1228,1249,1267,1289,1309,1328,1347,1368,1389,1409,1428,1448,1469,1488,1508,1528,1549,1568,1588,1608,1628,1648,1669,1688,1708,1728,1748,1768,1788,1808,1828,1848,1869,1888,1908,1928,1949,1968,1988,2008,2029,2048,2069,2089,2109,2129,2148,2168,2189,2209,2228,2248,2269],"xSR":741.5,"ySR":469.95,"xT1":424.9,"yT1":0,"xT2":1058.1,"yT2":0,"toosoon":0,"cond_shown":"Congruent","ratio_trial":200,"L_num":6,"L_den":12,"R_num":7,"R_den":10,"correct_side":2,"subjID":"jorgealejandroparra21","gender":"0","school":"4","age":"10"},{"start_time":1552312841109,"click_time":1552312842474,"finger_time":1552312842413,"fix_duration":934.9124515512943,"trial":17,"RT":1304,"MT":61,"sideResp":1,"stimulus":[],"xmouse":[811,811,811,811,811,811,811,811,811,811,811,811,811,811,811,811,811,811,811,811,811,811,811,811,811,811,811,811,811,811,811,811,811,811,811,811,811,811,811,811,811,811,811,811,811,811,811,811,811,811,811,811,811,811,811,811,811,811,811,811,811,811,811,807,791,763,716,584,513],"ymouse":[524,524,524,524,524,524,524,524,524,524,524,524,524,524,524,524,524,524,524,524,524,524,524,524,524,524,524,524,524,524,524,524,524,524,524,524,524,524,524,524,524,524,524,524,524,524,524,524,524,524,524,524,524,524,524,524,524,524,524,524,524,524,524,519,482,418,328,130,47],"timestamp_mouse":[4,25,44,65,84,104,124,145,166,184,204,224,246,264,284,304,326,345,364,386,405,424,445,466,484,504,524,546,565,585,605,626,645,664,685,705,725,745,765,784,804,825,845,865,885,904,924,946,965,985,1004,1025,1045,1064,1084,1105,1126,1146,1164,1185,1206,1224,1245,1264,1284,1304,1325,1345,1365],"xSR":741.5,"ySR":469.95,"xT1":424.9,"yT1":0,"xT2":1058.1,"yT2":0,"toosoon":0,"cond_shown":"Congruent","ratio_trial":200,"L_num":12,"L_den":20,"R_num":6,"R_den":15,"correct_side":1,"subjID":"jorgealejandroparra21","gender":"0","school":"4","age":"10"},{"start_time":1552312848785,"click_time":1552312851294,"finger_time":1552312850494,"fix_duration":250,"trial":18,"RT":1709,"MT":800,"sideResp":2,"stimulus":[],"xmouse":[821,821,821,821,821,821,821,821,821,821,821,821,821,821,821,821,821,821,821,821,821,821,821,821,821,821,821,821,821,821,821,821,821,821,821,821,821,821,821,821,821,821,821,821,821,821,821,821,821,821,821,821,821,821,821,821,821,821,821,821,821,821,821,821,821,821,821,821,821,821,821,821,821,821,821,821,821,821,821,821,823,825,830,833,841,860,878,895,910,928,943,946,950,956,963,973,977,980,982,988,989,989,989,989,989,1015,1030,1037,1039,1041,1042,1044,1046,1049,1053,1056,1058,1059,1061,1062,1066,1068,1069,1071,1072,1077],"ymouse":[530,530,530,530,530,530,530,530,530,530,530,530,530,530,530,530,530,530,530,530,530,530,530,530,530,530,530,530,530,530,530,530,530,530,530,530,530,530,530,530,530,530,530,530,530,530,530,530,530,530,530,530,530,530,530,530,530,530,530,530,530,530,530,530,530,530,530,530,530,530,530,530,530,530,530,530,530,530,530,530,522,519,505,501,481,439,410,378,349,318,288,278,271,259,249,236,232,230,229,224,223,223,223,223,223,205,197,192,189,188,186,183,179,174,168,157,152,146,141,135,122,117,111,107,103,96],"timestamp_mouse":[10,28,49,68,89,108,130,150,168,188,210,229,250,268,290,308,328,349,369,389,408,429,448,469,488,509,528,548,570,588,609,629,649,669,688,710,729,748,770,789,808,828,848,870,890,909,928,950,968,988,1009,1028,1048,1068,1089,1109,1130,1149,1170,1189,1208,1228,1249,1269,1289,1309,1329,1348,1369,1388,1410,1429,1449,1468,1489,1510,1529,1548,1568,1588,1609,1629,1648,1670,1688,1709,1728,1749,1768,1788,1809,1829,1848,1870,1888,1910,1929,1948,1969,1990,2009,2029,2049,2068,2088,2108,2128,2150,2168,2190,2209,2228,2248,2268,2288,2308,2328,2348,2368,2388,2408,2428,2448,2469,2488,2509],"xSR":741.5,"ySR":469.95,"xT1":424.9,"yT1":0,"xT2":1058.1,"yT2":0,"toosoon":0,"cond_shown":"Congruent","ratio_trial":100,"L_num":3,"L_den":6,"R_num":2,"R_den":5,"correct_side":1,"subjID":"jorgealejandroparra21","gender":"0","school":"4","age":"10"},{"start_time":1552312856245,"click_time":1552312860613,"finger_time":1552312857894,"fix_duration":250,"trial":19,"RT":1649,"MT":2719,"sideResp":2,"stimulus":[],"xmouse":[796,796,796,796,796,796,796,796,796,796,796,796,796,796,796,796,796,796,796,796,796,796,796,796,796,796,796,796,796,796,796,796,796,796,796,796,796,796,796,796,796,796,796,796,796,796,796,796,796,796,796,796,796,796,796,796,796,796,796,796,796,796,796,796,796,796,796,796,805,819,825,829,830,830,830,830,830,832,833,835,837,838,841,842,844,845,848,850,854,855,857,860,864,873,878,882,888,893,900,900,900,900,899,895,891,885,877,867,842,826,804,782,755,703,689,686,686,686,686,683,679,675,672,663,656,640,618,575,541,540,540,540,540,540,540,540,540,540,561,577,595,615,644,658,669,678,695,706,729,734,734,734,734,740,742,753,784,905,1081,1114,1121,1121,1121,1121,1121,1121,1121,1117,1115,1110,1102,1091,1059,1040,1019,986,966,945,907,894,890,888,888,888,888,888,888,887,878,873,868,865,864,863,863,863,863,863,863,867,874,883,891,904,914,946,972,995,1018,1024,1031,1037,1042,1052,1057,1069,1077,1083,1089],"ymouse":[524,524,524,524,524,524,524,524,524,524,524,524,524,524,524,524,524,524,524,524,524,524,524,524,524,524,524,524,524,524,524,524,524,524,524,524,524,524,524,524,524,524,524,524,524,524,524,524,524,524,524,524,524,524,524,524,524,524,524,524,524,524,524,524,524,524,524,524,510,490,482,478,477,477,477,477,475,475,474,473,471,470,468,467,465,463,460,459,455,452,448,443,438,421,411,394,374,341,280,247,225,208,178,165,154,142,133,124,115,112,109,108,108,108,108,108,108,108,108,108,109,110,111,113,113,113,113,103,91,91,91,91,91,91,91,91,91,90,92,96,101,107,114,116,119,121,125,128,134,135,135,135,135,137,137,138,143,174,223,234,235,235,235,235,235,236,236,237,238,239,240,240,238,234,228,218,212,207,195,190,189,188,188,188,188,188,188,188,188,188,188,189,190,190,190,190,190,190,190,189,186,182,179,172,168,158,151,145,137,134,131,129,127,123,121,113,107,102,96],"timestamp_mouse":[10,30,49,70,89,110,129,148,169,188,210,229,248,269,288,309,328,348,370,389,410,428,449,469,489,510,529,549,568,588,609,629,649,669,688,709,729,749,768,788,810,829,849,870,890,909,928,949,970,988,1008,1028,1049,1070,1088,1108,1128,1149,1168,1188,1210,1230,1249,1268,1288,1310,1329,1349,1368,1388,1408,1429,1448,1468,1489,1510,1528,1548,1569,1589,1608,1628,1649,1668,1688,1708,1729,1749,1769,1788,1809,1828,1849,1869,1889,1909,1928,1948,1969,1988,2009,2029,2050,2068,2088,2108,2130,2148,2169,2188,2210,2228,2248,2268,2288,2308,2330,2349,2369,2389,2409,2429,2450,2468,2488,2508,2529,2548,2570,2589,2609,2629,2648,2668,2688,2708,2729,2748,2768,2790,2808,2828,2850,2869,2890,2909,2929,2950,2970,2989,3009,3029,3048,3068,3088,3108,3130,3148,3168,3188,3209,3229,3248,3269,3289,3308,3329,3350,3369,3388,3409,3429,3449,3470,3488,3508,3528,3549,3569,3589,3610,3628,3650,3670,3689,3708,3728,3748,3769,3788,3809,3829,3849,3868,3888,3909,3929,3950,3968,3988,4009,4028,4050,4068,4088,4108,4128,4148,4168,4188,4208,4228,4248,4268,4289,4309,4328,4348,4368],"xSR":741.5,"ySR":469.95,"xT1":424.9,"yT1":0,"xT2":1058.1,"yT2":0,"toosoon":0,"cond_shown":"Incongruent","ratio_trial":200,"L_num":7,"L_den":10,"R_num":8,"R_den":16,"correct_side":1,"subjID":"jorgealejandroparra21","gender":"0","school":"4","age":"10"},{"start_time":1552312862465,"click_time":1552312864514,"finger_time":1552312864094,"fix_duration":250,"trial":20,"RT":1629,"MT":420,"sideResp":1,"stimulus":[],"xmouse":[835,835,835,835,835,835,835,835,835,835,835,835,835,835,833,830,826,823,823,823,823,823,823,823,823,823,823,823,823,823,823,823,823,823,823,823,823,823,823,823,823,823,823,823,823,823,823,823,823,823,823,823,823,823,823,823,823,823,823,823,823,823,823,823,823,823,823,823,823,823,823,823,823,823,823,823,829,831,831,829,824,809,803,777,768,759,754,743,740,739,737,734,730,716,708,699,687,654,631,601,564,535,509],"ymouse":[540,540,540,540,540,540,540,540,540,540,540,540,540,540,540,540,540,541,541,541,541,541,541,541,541,541,541,541,541,541,541,541,541,541,541,541,541,541,541,541,541,541,541,541,541,541,541,541,541,541,541,541,541,541,541,541,541,541,541,541,541,541,541,541,541,541,541,541,541,541,541,541,541,541,541,541,527,511,501,488,474,446,436,398,382,367,352,315,298,287,277,267,257,231,219,211,198,172,155,136,114,98,83],"timestamp_mouse":[8,28,49,68,88,108,129,148,170,188,208,228,249,269,290,308,329,348,370,389,409,429,448,468,488,510,529,548,569,590,610,628,648,669,688,709,729,750,768,789,808,829,849,870,889,910,928,948,968,988,1010,1029,1048,1069,1089,1109,1130,1150,1170,1189,1210,1229,1248,1270,1289,1309,1329,1348,1368,1388,1409,1428,1450,1469,1489,1510,1529,1548,1568,1588,1608,1629,1648,1668,1689,1708,1729,1748,1768,1789,1809,1829,1849,1870,1889,1909,1928,1949,1968,1988,2009,2030,2049],"xSR":741.5,"ySR":469.95,"xT1":424.9,"yT1":0,"xT2":1058.1,"yT2":0,"toosoon":0,"cond_shown":"Congruent","ratio_trial":200,"L_num":8,"L_den":15,"R_num":2,"R_den":6,"correct_side":1,"subjID":"jorgealejandroparra21","gender":"0","school":"4","age":"10"},{"start_time":1552312870964,"click_time":1552312873014,"finger_time":1552312872255,"fix_duration":549.0945779116498,"trial":21,"RT":1291,"MT":759,"sideResp":1,"stimulus":[],"xmouse":[826,826,826,826,826,826,826,826,826,826,826,826,826,826,826,826,826,826,826,826,826,826,826,826,826,826,826,826,826,826,826,826,826,826,826,826,826,826,826,826,826,826,826,826,826,826,826,826,826,826,826,826,826,826,826,826,826,826,826,826,826,826,826,817,726,643,583,544,527,526,526,526,526,526,526,528,530,533,538,542,546,549,553,564,569,571,572,572,572,572,572,572,572,572,572,572,566,561,547,537,524,508,491],"ymouse":[522,522,522,522,522,522,522,522,522,522,522,522,522,522,522,522,522,522,522,522,522,522,522,522,522,522,522,522,522,522,522,522,522,522,522,522,522,522,522,522,522,522,522,522,522,522,522,522,522,522,522,522,522,522,522,522,522,522,522,522,522,522,520,511,457,419,394,374,362,362,362,362,362,361,361,357,352,347,329,316,303,290,274,234,219,205,194,187,182,181,181,180,179,173,167,162,155,147,128,119,112,105,96],"timestamp_mouse":[13,37,50,69,90,111,131,150,169,189,209,231,250,271,290,310,330,349,370,391,411,430,450,469,490,511,531,550,569,589,609,631,650,669,690,710,731,749,769,790,810,830,849,869,890,911,929,950,970,991,1010,1030,1049,1070,1089,1109,1131,1149,1170,1189,1209,1229,1250,1270,1291,1310,1330,1350,1370,1389,1409,1430,1451,1471,1489,1509,1530,1550,1570,1589,1610,1629,1649,1672,1690,1710,1730,1749,1769,1790,1809,1829,1849,1870,1889,1910,1929,1950,1971,1990,2010,2031,2050],"xSR":741.5,"ySR":469.95,"xT1":424.9,"yT1":0,"xT2":1058.1,"yT2":0,"toosoon":0,"cond_shown":"Congruent","ratio_trial":100,"L_num":10,"L_den":25,"R_num":3,"R_den":10,"correct_side":1,"subjID":"jorgealejandroparra21","gender":"0","school":"4","age":"10"},{"start_time":1552312875075,"click_time":1552312879154,"finger_time":1552312877714,"fix_duration":479.83074667958715,"trial":22,"RT":2639,"MT":1440,"sideResp":2,"stimulus":[],"xmouse":[776,776,776,776,776,776,776,776,776,776,776,776,776,776,776,776,776,776,776,776,776,776,776,776,776,776,776,776,776,776,776,776,776,776,776,776,776,776,776,776,776,776,776,776,776,776,776,776,776,776,776,776,776,776,776,776,776,776,776,776,776,776,776,776,776,776,776,776,776,776,776,776,776,776,776,776,776,776,776,776,776,776,776,776,776,776,776,776,776,776,776,776,776,776,776,776,776,776,776,776,776,776,776,776,776,776,776,776,776,776,776,776,776,776,776,784,788,793,795,796,796,797,799,800,802,804,805,808,819,827,834,840,854,862,869,876,882,883,885,886,886,887,891,892,892,892,892,892,892,892,892,893,897,921,932,945,957,975,992,994,997,999,1001,1012,1025,1040,1048,1054,1060,1062,1066,1072,1073,1071,1070,1069,1068,1067,1065,1065,1065,1065,1065,1065,1065,1066,1068,1070,1074,1076,1079,1082,1084,1089,1093,1096,1098,1100,1101,1102,1102,1102,1102,1102],"ymouse":[504,504,504,504,504,504,504,504,504,504,504,504,504,504,504,504,504,504,504,504,504,504,504,504,504,504,504,504,504,504,504,504,504,504,504,504,504,504,504,504,504,504,504,504,504,504,504,504,504,504,504,504,504,504,504,504,504,504,504,504,504,504,504,504,504,504,504,504,504,504,504,504,504,504,504,504,504,504,504,504,504,504,504,504,504,504,504,504,504,504,504,504,504,504,504,504,504,504,504,504,504,504,504,504,504,504,504,504,504,504,504,504,504,504,504,501,498,496,495,494,494,494,493,492,491,490,489,487,481,477,472,469,462,456,453,449,445,444,443,443,443,441,439,439,439,439,439,439,439,439,439,437,434,420,414,409,404,399,397,396,395,395,395,390,381,371,365,360,351,348,340,318,296,258,249,245,237,233,228,227,226,224,224,221,218,217,214,211,205,202,199,195,190,181,173,161,146,135,120,115,109,105,102,99],"timestamp_mouse":[19,43,60,79,99,118,138,159,180,200,219,240,260,280,298,320,340,358,378,399,419,440,460,479,499,518,540,560,580,599,619,639,658,678,699,719,740,759,779,799,819,839,859,878,899,920,939,960,978,998,1018,1040,1058,1079,1098,1120,1140,1159,1180,1198,1218,1240,1260,1278,1298,1319,1340,1360,1379,1398,1419,1440,1460,1479,1500,1518,1539,1560,1578,1598,1619,1639,1660,1678,1700,1719,1739,1759,1778,1799,1818,1839,1859,1880,1899,1919,1939,1960,1979,2000,2020,2038,2058,2080,2100,2120,2140,2159,2179,2199,2220,2240,2260,2279,2299,2318,2340,2360,2380,2398,2419,2439,2458,2478,2499,2520,2539,2559,2578,2598,2619,2639,2660,2679,2699,2719,2739,2758,2778,2798,2818,2839,2859,2878,2898,2920,2938,2959,2979,3000,3019,3038,3059,3078,3098,3120,3139,3159,3179,3198,3218,3238,3259,3279,3299,3319,3339,3358,3379,3399,3418,3439,3459,3479,3498,3518,3538,3559,3579,3599,3618,3639,3658,3679,3698,3718,3738,3759,3778,3799,3820,3839,3859,3878,3898,3919,3939,3959,3979,3999,4020,4039,4059,4079],"xSR":741.5,"ySR":469.95,"xT1":424.9,"yT1":0,"xT2":1058.1,"yT2":0,"toosoon":0,"cond_shown":"Incongruent","ratio_trial":300,"L_num":4,"L_den":20,"R_num":2,"R_den":4,"correct_side":2,"subjID":"jorgealejandroparra21","gender":"0","school":"4","age":"10"},{"start_time":1552312881057,"click_time":1552312883073,"finger_time":1552312882514,"fix_duration":502.0775826772845,"trial":23,"RT":1457,"MT":559,"sideResp":1,"stimulus":[],"xmouse":[806,806,805,805,805,805,805,805,805,805,805,805,805,805,805,805,805,805,805,805,805,805,805,805,805,805,805,805,805,805,805,805,805,805,805,805,805,805,805,805,805,805,805,805,805,805,805,805,805,805,805,805,805,805,805,805,805,805,805,805,805,805,805,805,805,805,805,805,805,805,805,805,801,79