[{"start_time":1552074356851,"click_time":1552074358477,"finger_time":1552074358056,"fix_duration":250,"trial":0,"RT":1205,"MT":421,"sideResp":1,"stimulus":"img/250/randomdotsizeEA/R/8_Ratio_250_L_1_R_4.png","xmouse":[766,766,766,766,766,766,766,766,766,766,766,766,766,766,766,766,766,766,766,766,766,766,766,767,767,767,767,767,767,767,767,767,767,767,767,767,767,767,767,767,767,767,767,767,767,767,767,767,767,767,774,782,788,792,794,790,785,770,743,696,666,633,596,549,414,397,394,394,394,396,398,401,404,407,410,412,412,412,414,424,425],"ymouse":[548,548,548,548,548,548,548,548,548,548,548,548,548,548,548,548,548,548,548,548,548,546,545,544,544,544,544,544,544,544,544,544,544,544,544,544,544,544,544,544,544,544,544,544,544,544,544,544,544,543,540,536,531,527,516,509,504,499,492,477,459,427,389,335,183,152,129,115,109,106,104,96,85,71,58,44,43,43,43,39,38],"timestamp_mouse":[10,50,65,86,106,125,145,166,185,206,225,246,265,285,305,327,346,365,386,405,426,446,466,486,505,526,546,566,585,605,626,645,666,686,705,726,746,766,785,805,826,846,865,885,905,926,945,966,986,1006,1025,1045,1065,1086,1105,1126,1145,1166,1185,1205,1225,1246,1265,1285,1306,1325,1345,1365,1385,1406,1425,1445,1465,1485,1505,1526,1546,1567,1586,1605,1625],"xSR":741.5,"ySR":501.8,"xT1":424.9,"yT1":0,"xT2":1058.1,"yT2":0,"toosoon":0,"cond_shown":"randomdotsizeEA","ratio_trial":250,"smaller_num":"1","larger_num":"4","correct_side":2,"subjID":"jUANAaLEJANDRAmaRTINEZlAVERDE16","gender":"1","age":"9","school":"4","test":{"fix_dur":[250,1500],"timestim":300,"targets_dim":[100,100],"targets_relative_coord":[0.3,0.7],"size_stim":[880,420],"start_dim":[100,100],"size_start":[300,300],"size_fix":60,"samplingrate":20,"img_types":["equaldotsize","equaldotanddens","randomdotsizeEA"],"ratios":[250,500,750,900],"rep_conds":9,"nTrials":120,"trials_to_rest":500,"Trials_order":[26,116,17,31,9,23,112,94,80,8,13,77,96,101,45,93,107,84,69,56,29,34,71,62,43,28,10,35,40,85,22,14,7,99,89,57,59,47,21,88,0,25,27,91,104,58,67,118,55,38,4,72,15,44,70,119,75,24,18,65,90,49,50,33,16,20,78,1,74,111,2,98,114,95,103,76,117,73,60,46,42,100,109,61,53,54,87,66,106,11,32,51,92,30,79,12,108,37,19,68,113,83,115,105,63,86,48,36,64,52,81,41,97,3,5,110,6,82,39,102],"cond_shown":["randomdotsizeEA","randomdotsizeEA","randomdotsizeEA","equaldotanddens","equaldotsize","randomdotsizeEA","equaldotanddens","equaldotanddens","randomdotsizeEA","randomdotsizeEA","equaldotanddens","randomdotsizeEA","equaldotsize","randomdotsizeEA","equaldotsize","equaldotsize","randomdotsizeEA","equaldotsize","equaldotsize","randomdotsizeEA","randomdotsizeEA","equaldotanddens","randomdotsizeEA","randomdotsizeEA","equaldotanddens","equaldotanddens","equaldotanddens","randomdotsizeEA","equaldotanddens","equaldotanddens","equaldotanddens","randomdotsizeEA","equaldotanddens","equaldotsize","randomdotsizeEA","equaldotsize","randomdotsizeEA","randomdotsizeEA","equaldotsize","equaldotanddens","equaldotsize","equaldotanddens","equaldotsize","equaldotanddens","randomdotsizeEA","equaldotanddens","equaldotanddens","equaldotanddens","equaldotanddens","randomdotsizeEA","equaldotanddens","equaldotsize","equaldotsize","randomdotsizeEA","equaldotanddens","randomdotsizeEA","equaldotsize","equaldotsize","equaldotsize","randomdotsizeEA","equaldotsize","equaldotanddens","randomdotsizeEA","equaldotsize","equaldotanddens","randomdotsizeEA","equaldotsize","equaldotanddens","randomdotsizeEA","equaldotsize","randomdotsizeEA","randomdotsizeEA","equaldotsize","randomdotsizeEA","equaldotanddens","equaldotanddens","equaldotsize","equaldotanddens","equaldotsize","equaldotanddens","equaldotsize","equaldotanddens","equaldotanddens","equaldotanddens","randomdotsizeEA","equaldotsize","equaldotsize","equaldotsize","equaldotanddens","randomdotsizeEA","randomdotsizeEA","equaldotsize","randomdotsizeEA","equaldotsize","equaldotanddens","equaldotsize","equaldotsize","equaldotanddens","equaldotanddens","randomdotsizeEA","randomdotsizeEA","randomdotsizeEA","equaldotanddens","equaldotsize","equaldotsize","randomdotsizeEA","equaldotsize","equaldotsize","equaldotanddens","equaldotanddens","equaldotsize","randomdotsizeEA","equaldotanddens","equaldotsize","randomdotsizeEA","randomdotsizeEA","equaldotsize","equaldotanddens","equaldotsize","equaldotsize"],"ratio_trial":[250,750,500,750,900,900,500,900,750,750,250,500,250,500,900,900,900,250,900,750,500,900,900,250,750,500,900,900,500,250,900,250,750,500,500,900,900,900,900,500,250,250,500,750,750,900,750,900,750,250,500,250,500,750,900,900,500,250,750,500,750,250,250,900,500,750,750,250,250,500,250,250,750,900,750,500,900,250,250,900,750,500,250,250,500,750,500,750,900,900,750,500,750,750,750,250,250,250,750,750,500,900,750,900,500,250,250,250,500,500,900,500,250,500,500,250,750,900,500,750],"smaller_num":["1","15","2","15","18","18","5","9","12","15","1","6","4","1","9","18","9","6","9","3","6","18","18","3","3","5","18","9","4","4","9","3","15","6","1","9","18","18","18","6","3","2","5","3","15","18","15","18","6","4","2","5","6","3","18","9","1","4","15","9","15","2","4","18","10","15","6","4","3","1","6","2","9","9","3","4","18","3","1","18","3","9","3","4","10","12","3","15","9","18","9","5","15","3","15","4","3","4","15","15","2","18","6","18","1","3","3","6","1","4","18","9","3","4","5","2","3","9","1","6"],"larger_num":["4","20","4","20","20","20","10","10","16","20","4","12","16","2","10","20","10","24","10","4","12","20","20","12","4","10","20","10","8","16","10","12","20","12","2","10","20","20","20","12","12","8","10","4","20","20","20","20","8","16","4","20","12","4","20","10","2","16","20","18","20","8","16","20","20","20","8","16","12","2","24","8","12","10","4","8","20","12","4","20","4","18","12","16","20","16","6","20","10","20","12","10","20","4","20","16","12","16","20","20","4","20","8","20","2","12","12","24","2","8","20","18","12","8","10","8","4","10","2","8"],"correct_side":[2,2,1,1,2,1,1,1,2,2,2,1,2,2,2,1,2,2,1,1,1,1,1,1,1,1,1,1,1,2,2,1,2,1,2,1,2,1,2,1,2,1,1,1,1,1,2,1,1,2,1,2,1,1,1,2,2,2,1,2,2,1,1,2,2,2,2,1,2,2,1,2,2,2,2,1,1,2,2,2,2,1,2,2,2,2,2,2,1,1,2,1,1,1,1,1,2,2,2,2,1,1,1,1,2,1,2,2,2,1,1,2,1,1,2,1,1,2,2,1],"img_shown":["img/250/randomdotsizeEA/R/8_Ratio_250_L_1_R_4.png","img/750/randomdotsizeEA/R/3_Ratio_750_L_15_R_20.png","img/500/randomdotsizeEA/L/5_Ratio_500_L_4_R_2.png","img/750/equaldotanddens/L/1_Ratio_750_L_20_R_15.png","img/900/equaldotsize/R/11_Ratio_900_L_18_R_20.png","img/900/randomdotsizeEA/L/10_Ratio_900_L_20_R_18.png","img/500/equaldotanddens/L/7_Ratio_500_L_10_R_5.png","img/900/equaldotanddens/L/1_Ratio_900_L_10_R_9.png","img/750/randomdotsizeEA/R/11_Ratio_750_L_12_R_16.png","img/750/randomdotsizeEA/R/3_Ratio_750_L_15_R_20.png","img/250/equaldotanddens/R/8_Ratio_250_L_1_R_4.png","img/500/randomdotsizeEA/L/11_Ratio_500_L_12_R_6.png","img/250/equaldotsize/R/10_Ratio_250_L_4_R_16.png","img/500/randomdotsizeEA/R/15_Ratio_500_L_1_R_2.png","img/900/equaldotsize/R/7_Ratio_900_L_9_R_10.png","img/900/equaldotsize/L/4_Ratio_900_L_20_R_18.png","img/900/randomdotsizeEA/R/5_Ratio_900_L_9_R_10.png","img/250/equaldotsize/R/6_Ratio_250_L_6_R_24.png","img/900/equaldotsize/L/1_Ratio_900_L_10_R_9.png","img/750/randomdotsizeEA/L/9_Ratio_750_L_4_R_3.png","img/500/randomdotsizeEA/L/13_Ratio_500_L_12_R_6.png","img/900/equaldotanddens/L/8_Ratio_900_L_20_R_18.png","img/900/randomdotsizeEA/L/10_Ratio_900_L_20_R_18.png","img/250/randomdotsizeEA/L/14_Ratio_250_L_12_R_3.png","img/750/equaldotanddens/L/8_Ratio_750_L_4_R_3.png","img/500/equaldotanddens/L/7_Ratio_500_L_10_R_5.png","img/900/equaldotanddens/L/8_Ratio_900_L_20_R_18.png","img/900/randomdotsizeEA/L/1_Ratio_900_L_10_R_9.png","img/500/equaldotanddens/L/8_Ratio_500_L_8_R_4.png","img/250/equaldotanddens/R/10_Ratio_250_L_4_R_16.png","img/900/equaldotanddens/R/5_Ratio_900_L_9_R_10.png","img/250/randomdotsizeEA/L/14_Ratio_250_L_12_R_3.png","img/750/equaldotanddens/R/3_Ratio_750_L_15_R_20.png","img/500/equaldotsize/L/11_Ratio_500_L_12_R_6.png","img/500/randomdotsizeEA/R/12_Ratio_500_L_1_R_2.png","img/900/equaldotsize/L/1_Ratio_900_L_10_R_9.png","img/900/randomdotsizeEA/R/12_Ratio_900_L_18_R_20.png","img/900/randomdotsizeEA/L/2_Ratio_900_L_20_R_18.png","img/900/equaldotsize/R/9_Ratio_900_L_18_R_20.png","img/500/equaldotanddens/L/13_Ratio_500_L_12_R_6.png","img/250/equaldotsize/R/4_Ratio_250_L_3_R_12.png","img/250/equaldotanddens/L/3_Ratio_250_L_8_R_2.png","img/500/equaldotsize/L/7_Ratio_500_L_10_R_5.png","img/750/equaldotanddens/L/9_Ratio_750_L_4_R_3.png","img/750/randomdotsizeEA/L/1_Ratio_750_L_20_R_15.png","img/900/equaldotanddens/L/10_Ratio_900_L_20_R_18.png","img/750/equaldotanddens/R/5_Ratio_750_L_15_R_20.png","img/900/equaldotanddens/L/2_Ratio_900_L_20_R_18.png","img/750/equaldotanddens/L/14_Ratio_750_L_8_R_6.png","img/250/randomdotsizeEA/R/10_Ratio_250_L_4_R_16.png","img/500/equaldotanddens/L/5_Ratio_500_L_4_R_2.png","img/250/equaldotsize/R/12_Ratio_250_L_5_R_20.png","img/500/equaldotsize/L/11_Ratio_500_L_12_R_6.png","img/750/randomdotsizeEA/L/9_Ratio_750_L_4_R_3.png","img/900/equaldotanddens/L/2_Ratio_900_L_20_R_18.png","img/900/randomdotsizeEA/R/3_Ratio_900_L_9_R_10.png","img/500/equaldotsize/R/15_Ratio_500_L_1_R_2.png","img/250/equaldotsize/R/10_Ratio_250_L_4_R_16.png","img/750/equaldotsize/L/1_Ratio_750_L_20_R_15.png","img/500/randomdotsizeEA/R/1_Ratio_500_L_9_R_18.png","img/750/equaldotsize/R/3_Ratio_750_L_15_R_20.png","img/250/equaldotanddens/L/1_Ratio_250_L_8_R_2.png","img/250/randomdotsizeEA/L/2_Ratio_250_L_16_R_4.png","img/900/equaldotsize/R/13_Ratio_900_L_18_R_20.png","img/500/equaldotanddens/R/3_Ratio_500_L_10_R_20.png","img/750/randomdotsizeEA/R/4_Ratio_750_L_15_R_20.png","img/750/equaldotsize/R/2_Ratio_750_L_6_R_8.png","img/250/equaldotanddens/L/2_Ratio_250_L_16_R_4.png","img/250/randomdotsizeEA/R/9_Ratio_250_L_3_R_12.png","img/500/equaldotsize/R/12_Ratio_500_L_1_R_2.png","img/250/randomdotsizeEA/L/5_Ratio_250_L_24_R_6.png","img/250/randomdotsizeEA/R/13_Ratio_250_L_2_R_8.png","img/750/equaldotsize/R/15_Ratio_750_L_9_R_12.png","img/900/randomdotsizeEA/R/3_Ratio_900_L_9_R_10.png","img/750/equaldotanddens/R/7_Ratio_750_L_3_R_4.png","img/500/equaldotanddens/L/8_Ratio_500_L_8_R_4.png","img/900/equaldotsize/L/4_Ratio_900_L_20_R_18.png","img/250/equaldotanddens/R/11_Ratio_250_L_3_R_12.png","img/250/equaldotsize/R/8_Ratio_250_L_1_R_4.png","img/900/equaldotanddens/R/14_Ratio_900_L_18_R_20.png","img/750/equaldotsize/R/7_Ratio_750_L_3_R_4.png","img/500/equaldotanddens/L/4_Ratio_500_L_18_R_9.png","img/250/equaldotanddens/R/9_Ratio_250_L_3_R_12.png","img/250/equaldotanddens/R/10_Ratio_250_L_4_R_16.png","img/500/randomdotsizeEA/R/3_Ratio_500_L_10_R_20.png","img/750/equaldotsize/R/11_Ratio_750_L_12_R_16.png","img/500/equaldotsize/R/2_Ratio_500_L_3_R_6.png","img/750/equaldotsize/R/4_Ratio_750_L_15_R_20.png","img/900/equaldotanddens/L/1_Ratio_900_L_10_R_9.png","img/900/randomdotsizeEA/L/8_Ratio_900_L_20_R_18.png","img/750/randomdotsizeEA/R/15_Ratio_750_L_9_R_12.png","img/500/equaldotsize/L/7_Ratio_500_L_10_R_5.png","img/750/randomdotsizeEA/L/1_Ratio_750_L_20_R_15.png","img/750/equaldotsize/L/8_Ratio_750_L_4_R_3.png","img/750/equaldotanddens/L/1_Ratio_750_L_20_R_15.png","img/250/equaldotsize/L/2_Ratio_250_L_16_R_4.png","img/250/equaldotsize/R/4_Ratio_250_L_3_R_12.png","img/250/equaldotanddens/R/10_Ratio_250_L_4_R_16.png","img/750/equaldotanddens/R/4_Ratio_750_L_15_R_20.png","img/750/randomdotsizeEA/R/5_Ratio_750_L_15_R_20.png","img/500/randomdotsizeEA/L/5_Ratio_500_L_4_R_2.png","img/900/randomdotsizeEA/L/4_Ratio_900_L_20_R_18.png","img/750/equaldotanddens/L/13_Ratio_750_L_8_R_6.png","img/900/equaldotsize/L/2_Ratio_900_L_20_R_18.png","img/500/equaldotsize/R/15_Ratio_500_L_1_R_2.png","img/250/randomdotsizeEA/L/15_Ratio_250_L_12_R_3.png","img/250/equaldotsize/R/11_Ratio_250_L_3_R_12.png","img/250/equaldotsize/R/6_Ratio_250_L_6_R_24.png","img/500/equaldotanddens/R/12_Ratio_500_L_1_R_2.png","img/500/equaldotanddens/L/8_Ratio_500_L_8_R_4.png","img/900/equaldotsize/L/4_Ratio_900_L_20_R_18.png","img/500/randomdotsizeEA/R/6_Ratio_500_L_9_R_18.png","img/250/equaldotanddens/L/14_Ratio_250_L_12_R_3.png","img/500/equaldotsize/L/8_Ratio_500_L_8_R_4.png","img/500/randomdotsizeEA/R/14_Ratio_500_L_5_R_10.png","img/250/randomdotsizeEA/L/1_Ratio_250_L_8_R_2.png","img/750/equaldotsize/L/10_Ratio_750_L_4_R_3.png","img/900/equaldotanddens/R/7_Ratio_900_L_9_R_10.png","img/500/equaldotsize/R/12_Ratio_500_L_1_R_2.png","img/750/equaldotsize/L/14_Ratio_750_L_8_R_6.png"],"Rat0":[["12_Ratio_0_L_9_R_0.png","13_Ratio_0_L_6_R_0.png","5_Ratio_0_L_2_R_0.png","6_Ratio_0_L_4_R_0.png","8_Ratio_0_L_6_R_0.png"],["1_Ratio_0_L_0_R_17.png","10_Ratio_0_L_0_R_22.png","11_Ratio_0_L_0_R_1.png","14_Ratio_0_L_0_R_24.png","15_Ratio_0_L_0_R_4.png","2_Ratio_0_L_0_R_5.png","3_Ratio_0_L_0_R_17.png","4_Ratio_0_L_0_R_7.png","7_Ratio_0_L_0_R_19.png","9_Ratio_0_L_0_R_15.png"]],"Rat250":[["1_Ratio_250_L_8_R_2.png","14_Ratio_250_L_12_R_3.png","15_Ratio_250_L_12_R_3.png","2_Ratio_250_L_16_R_4.png","3_Ratio_250_L_8_R_2.png","5_Ratio_250_L_24_R_6.png","7_Ratio_250_L_8_R_2.png"],["10_Ratio_250_L_4_R_16.png","11_Ratio_250_L_3_R_12.png","12_Ratio_250_L_5_R_20.png","13_Ratio_250_L_2_R_8.png","4_Ratio_250_L_3_R_12.png","6_Ratio_250_L_6_R_24.png","8_Ratio_250_L_1_R_4.png","9_Ratio_250_L_3_R_12.png"]],"Rat500":[["10_Ratio_500_L_4_R_2.png","11_Ratio_500_L_12_R_6.png","13_Ratio_500_L_12_R_6.png","4_Ratio_500_L_18_R_9.png","5_Ratio_500_L_4_R_2.png","7_Ratio_500_L_10_R_5.png","8_Ratio_500_L_8_R_4.png"],["1_Ratio_500_L_9_R_18.png","12_Ratio_500_L_1_R_2.png","14_Ratio_500_L_5_R_10.png","15_Ratio_500_L_1_R_2.png","2_Ratio_500_L_3_R_6.png","3_Ratio_500_L_10_R_20.png","6_Ratio_500_L_9_R_18.png","9_Ratio_500_L_2_R_4.png"]],"Rat750":[["1_Ratio_750_L_20_R_15.png","10_Ratio_750_L_4_R_3.png","13_Ratio_750_L_8_R_6.png","14_Ratio_750_L_8_R_6.png","6_Ratio_750_L_24_R_18.png","8_Ratio_750_L_4_R_3.png","9_Ratio_750_L_4_R_3.png"],["11_Ratio_750_L_12_R_16.png","12_Ratio_750_L_3_R_4.png","15_Ratio_750_L_9_R_12.png","2_Ratio_750_L_6_R_8.png","3_Ratio_750_L_15_R_20.png","4_Ratio_750_L_15_R_20.png","5_Ratio_750_L_15_R_20.png","7_Ratio_750_L_3_R_4.png"]],"Rat900":[["1_Ratio_900_L_10_R_9.png","10_Ratio_900_L_20_R_18.png","2_Ratio_900_L_20_R_18.png","4_Ratio_900_L_20_R_18.png","8_Ratio_900_L_20_R_18.png"],["11_Ratio_900_L_18_R_20.png","12_Ratio_900_L_18_R_20.png","13_Ratio_900_L_18_R_20.png","14_Ratio_900_L_18_R_20.png","15_Ratio_900_L_9_R_10.png","3_Ratio_900_L_9_R_10.png","5_Ratio_900_L_9_R_10.png","6_Ratio_900_L_9_R_10.png","7_Ratio_900_L_9_R_10.png","9_Ratio_900_L_18_R_20.png"]],"Rat1000":[["10_Ratio_1000_L_16_R_16.png","11_Ratio_1000_L_6_R_6.png","12_Ratio_1000_L_14_R_14.png","13_Ratio_1000_L_20_R_20.png","15_Ratio_1000_L_15_R_15.png","2_Ratio_1000_L_17_R_17.png","4_Ratio_1000_L_9_R_9.png","5_Ratio_1000_L_6_R_6.png","6_Ratio_1000_L_19_R_19.png","8_Ratio_1000_L_14_R_14.png","9_Ratio_1000_L_25_R_25.png"],["1_Ratio_1000_L_1_R_1.png","14_Ratio_1000_L_17_R_17.png","3_Ratio_1000_L_17_R_17.png","7_Ratio_1000_L_6_R_6.png"]]}},{"start_time":1552074360801,"click_time":1552074362257,"finger_time":1552074362036,"fix_duration":942.6752403259594,"trial":1,"RT":1235,"MT":221,"sideResp":2,"stimulus":"img/750/randomdotsizeEA/R/3_Ratio_750_L_15_R_20.png","xmouse":[799,799,799,799,799,797,796,795,794,794,793,793,793,793,792,791,791,791,791,791,791,791,791,791,791,791,791,791,791,791,791,791,791,791,791,791,791,791,791,791,791,791,791,791,791,791,791,791,791,791,791,791,791,791,791,791,791,791,797,807,822,840,875,887,893,901,911,932,960,986,1007,1036,1060],"ymouse":[526,526,526,526,526,526,526,525,525,525,525,524,524,524,524,523,523,523,523,523,523,523,523,523,523,523,523,523,523,523,523,523,523,523,523,523,523,523,523,523,523,523,523,523,523,523,523,523,523,523,523,523,523,523,523,523,523,523,510,493,471,446,394,373,363,342,321,277,228,187,138,90,41],"timestamp_mouse":[16,35,56,76,95,116,136,156,176,195,216,235,256,275,295,316,335,355,375,396,415,436,455,475,496,516,536,556,575,597,615,636,655,676,696,716,736,755,776,797,816,835,855,875,896,915,937,955,975,996,1016,1036,1056,1075,1096,1115,1136,1156,1175,1195,1215,1235,1255,1275,1295,1315,1335,1356,1375,1395,1415,1435,1455],"xSR":741.5,"ySR":469.95,"xT1":424.9,"yT1":0,"xT2":1058.1,"yT2":0,"toosoon":0,"cond_shown":"randomdotsizeEA","ratio_trial":750,"smaller_num":"15","larger_num":"20","correct_side":2,"subjID":"jUANAaLEJANDRAmaRTINEZlAVERDE16","gender":"1","age":"9","school":"4"},{"start_time":1552074364663,"click_time":1552074366156,"finger_time":1552074365496,"fix_duration":1266.3968169311913,"trial":2,"RT":833,"MT":660,"sideResp":1,"stimulus":"img/500/randomdotsizeEA/L/5_Ratio_500_L_4_R_2.png","xmouse":[778,778,778,778,778,778,778,778,778,778,778,778,778,778,778,778,778,778,778,778,778,778,778,778,778,778,778,778,778,778,778,778,778,778,778,778,778,778,778,775,767,758,747,728,669,648,633,623,615,593,582,569,569,569,569,569,569,569,569,569,569,569,569,569,403,403,407,410,412,414,414,417,419,424,436],"ymouse":[502,502,502,502,502,502,502,502,502,502,502,502,502,502,502,502,502,502,502,502,502,502,502,502,502,502,502,502,502,502,502,502,502,502,502,502,502,502,502,498,486,469,446,412,309,267,230,204,176,100,50,3,3,3,3,3,3,3,3,3,3,3,3,3,2,12,22,30,34,38,40,44,47,53,59],"timestamp_mouse":[20,43,53,73,94,114,133,153,174,193,213,233,253,274,293,313,334,353,373,393,414,433,453,474,493,513,533,554,573,593,614,633,654,674,693,714,734,754,773,794,813,833,854,873,894,914,933,954,973,994,1013,1033,1053,1073,1094,1114,1133,1154,1174,1194,1214,1235,1254,1274,1293,1313,1333,1354,1374,1393,1413,1433,1453,1473,1493],"xSR":741.5,"ySR":469.95,"xT1":424.9,"yT1":0,"xT2":1058.1,"yT2":0,"toosoon":0,"cond_shown":"randomdotsizeEA","ratio_trial":500,"smaller_num":"2","larger_num":"4","correct_side":1,"subjID":"jUANAaLEJANDRAmaRTINEZlAVERDE16","gender":"1","age":"9","school":"4"},{"start_time":1552074370029,"click_time":1552074371057,"finger_time":1552074370796,"fix_duration":1351.4171753116582,"trial":3,"RT":767,"MT":261,"sideResp":1,"stimulus":"img/750/equaldotanddens/L/1_Ratio_750_L_20_R_15.png","xmouse":[777,777,775,775,775,775,775,775,775,775,775,775,775,775,775,775,775,775,775,775,775,775,775,775,775,775,775,775,775,775,775,775,775,775,775,775,775,766,754,724,695,666,660,657,654,653,644,636,629,621,588,523],"ymouse":[514,507,499,495,495,495,495,495,495,495,495,495,495,495,495,495,495,495,495,495,495,495,495,495,495,495,495,495,495,495,495,495,495,495,495,495,495,479,451,407,366,315,300,288,283,280,269,261,250,234,157,24],"timestamp_mouse":[7,27,47,68,87,107,127,147,168,189,207,227,247,267,287,307,327,347,368,387,407,427,448,469,488,507,527,547,567,587,608,627,647,668,687,708,728,748,767,787,807,827,847,867,887,907,928,947,967,988,1007,1027],"xSR":741.5,"ySR":469.95,"xT1":424.9,"yT1":0,"xT2":1058.1,"yT2":0,"toosoon":0,"cond_shown":"equaldotanddens","ratio_trial":750,"smaller_num":"15","larger_num":"20","correct_side":1,"subjID":"jUANAaLEJANDRAmaRTINEZlAVERDE16","gender":"1","age":"9","school":"4"},{"start_time":1552074373725,"click_time":1552074374978,"finger_time":1552074374456,"fix_duration":1328.5394061054847,"trial":4,"RT":731,"MT":522,"sideResp":2,"stimulus":"img/900/equaldotsize/R/11_Ratio_900_L_18_R_20.png","xmouse":[812,812,812,812,812,812,812,812,812,812,812,812,812,812,812,812,812,812,816,820,824,826,826,826,826,826,826,826,826,826,826,826,826,826,826,826,840,859,886,916,937,969,976,987,1000,1013,1045,1064,1083,1102,1109,1112,1112,1109,1106,1101,1081,1076,1071,1069,1069,1072,1074],"ymouse":[522,522,522,522,522,522,522,522,522,522,522,522,522,522,522,522,522,522,512,503,496,487,485,485,485,485,485,485,485,485,485,485,485,485,485,485,468,447,422,399,381,356,351,344,336,328,304,286,263,237,217,190,184,180,175,168,145,135,123,116,110,101,99],"timestamp_mouse":[12,46,51,71,91,111,133,152,171,192,211,231,252,271,292,311,331,352,372,391,413,431,452,471,491,512,531,551,572,592,611,632,651,671,692,712,731,751,772,791,812,832,852,871,891,911,931,951,971,991,1011,1032,1051,1071,1091,1111,1132,1151,1171,1191,1212,1231,1252],"xSR":741.5,"ySR":469.95,"xT1":424.9,"yT1":0,"xT2":1058.1,"yT2":0,"toosoon":0,"cond_shown":"equaldotsize","ratio_trial":900,"smaller_num":"18","larger_num":"20","correct_side":2,"subjID":"jUANAaLEJANDRAmaRTINEZlAVERDE16","gender":"1","age":"9","school":"4"},{"start_time":1552074376484,"click_time":1552074377357,"finger_time":1552074376916,"fix_duration":447.24874777981813,"trial":5,"RT":432,"MT":441,"sideResp":1,"stimulus":"img/900/randomdotsizeEA/L/10_Ratio_900_L_20_R_18.png","xmouse":[776,776,776,776,776,776,776,776,776,776,776,776,776,776,776,776,776,774,762,751,742,734,731,731,731,731,731,731,731,731,731,731,729,705,650,611,580,560,547,544,538,531,523,513],"ymouse":[514,514,514,514,514,514,514,514,514,514,514,514,514,514,514,514,514,510,495,480,470,461,458,457,457,457,457,457,457,457,457,457,455,418,350,304,263,230,184,162,142,122,107,85],"timestamp_mouse":[14,37,52,72,93,114,132,153,172,193,212,232,252,273,292,312,333,352,372,392,413,432,452,472,492,512,533,552,573,593,612,632,652,673,693,712,732,752,772,792,812,832,853,873],"xSR":741.5,"ySR":469.95,"xT1":424.9,"yT1":0,"xT2":1058.1,"yT2":0,"toosoon":0,"cond_shown":"randomdotsizeEA","ratio_trial":900,"smaller_num":"18","larger_num":"20","correct_side":1,"subjID":"jUANAaLEJANDRAmaRTINEZlAVERDE16","gender":"1","age":"9","school":"4"},{"start_time":1552074378858,"click_time":1552074380137,"finger_time":1552074379556,"fix_duration":380.40660555700146,"trial":6,"RT":698,"MT":581,"sideResp":1,"stimulus":"img/500/equaldotanddens/L/7_Ratio_500_L_10_R_5.png","xmouse":[819,819,819,819,819,819,819,819,819,819,819,819,819,819,819,819,819,819,819,819,819,819,819,819,819,819,819,819,819,819,819,819,819,817,703,638,583,547,518,490,482,477,470,459,441,439,438,438,438,438,438,438,438,438,437,441,445,447,448,448,450,452,454,458],"ymouse":[506,506,506,506,506,506,506,506,506,506,506,506,506,506,506,506,506,506,506,506,506,506,506,506,506,506,506,506,506,506,506,506,506,506,417,360,305,257,209,165,158,155,151,146,137,135,135,135,135,135,135,135,135,135,134,127,122,120,119,118,114,109,103,96],"timestamp_mouse":[28,41,58,78,98,119,139,158,179,199,219,239,258,279,299,319,338,358,379,399,419,439,458,478,499,518,538,558,578,599,618,638,660,678,698,720,738,759,778,798,818,838,858,878,899,918,939,959,978,999,1018,1039,1059,1079,1099,1119,1138,1158,1179,1198,1218,1238,1258,1279],"xSR":741.5,"ySR":469.95,"xT1":424.9,"yT1":0,"xT2":1058.1,"yT2":0,"toosoon":0,"cond_shown":"equaldotanddens","ratio_trial":500,"smaller_num":"5","larger_num":"10","correct_side":1,"subjID":"jUANAaLEJANDRAmaRTINEZlAVERDE16","gender":"1","age":"9","school":"4"},{"start_time":1552074385332,"click_time":1552074386757,"finger_time":1552074385937,"fix_duration":1193.1248429588709,"trial":7,"RT":605,"MT":820,"sideResp":1,"stimulus":"img/900/equaldotanddens/L/1_Ratio_900_L_10_R_9.png","xmouse":[793,793,793,793,793,793,793,793,793,793,793,793,793,793,793,793,793,793,792,793,793,794,794,794,794,794,794,794,792,787,773,754,702,688,681,674,665,665,665,662,655,655,655,655,655,655,655,655,655,655,655,655,655,655,655,559,555,555,555,555,555,555,555,555,555,555,555,555,555,553,533,511],"ymouse":[528,528,528,528,528,528,528,528,528,528,528,528,528,528,528,528,528,528,523,517,508,494,493,493,493,493,493,493,483,475,453,428,363,341,324,300,203,146,84,44,2,2,2,2,2,2,2,2,2,2,2,2,2,2,2,6,19,22,22,22,22,22,22,22,22,22,22,22,22,23,26,32],"timestamp_mouse":[10,38,46,65,85,106,125,145,164,186,204,225,245,266,285,305,325,345,365,384,404,424,445,464,484,506,525,545,565,584,605,624,645,664,684,704,724,744,764,784,804,824,844,864,885,905,924,945,964,984,1005,1024,1044,1064,1084,1105,1124,1144,1164,1185,1204,1224,1244,1264,1284,1305,1324,1344,1365,1384,1405,1424],"xSR":741.5,"ySR":469.95,"xT1":424.9,"yT1":0,"xT2":1058.1,"yT2":0,"toosoon":0,"cond_shown":"equaldotanddens","ratio_trial":900,"smaller_num":"9","larger_num":"10","correct_side":1,"subjID":"jUANAaLEJANDRAmaRTINEZlAVERDE16","gender":"1","age":"9","school":"4"},{"start_time":1552074388252,"click_time":1552074389460,"finger_time":1552074389079,"fix_duration":415.22861606471105,"trial":8,"RT":827,"MT":381,"sideResp":2,"stimulus":"img/750/randomdotsizeEA/R/11_Ratio_750_L_12_R_16.png","xmouse":[770,770,770,770,770,770,770,770,770,770,770,770,770,770,770,770,770,770,770,770,770,770,770,770,770,770,770,770,770,770,770,770,770,770,770,770,770,770,770,778,799,831,873,913,942,979,986,991,998,1005,1035,1051,1068,1082,1092,1103,1103,1103,1104,1105,1106],"ymouse":[534,534,534,534,534,534,534,534,534,534,534,534,534,534,534,534,534,534,534,534,534,534,534,534,534,534,534,534,534,534,534,534,534,534,534,534,534,534,534,522,491,447,396,351,314,272,262,255,248,241,217,206,191,179,165,139,130,124,112,101,72],"timestamp_mouse":[10,24,44,65,84,105,126,145,164,185,205,225,245,265,285,304,325,345,365,384,404,425,447,468,488,508,527,546,568,586,606,628,647,666,688,708,727,747,768,787,807,827,846,867,887,907,927,947,967,987,1007,1027,1048,1066,1086,1108,1126,1147,1166,1187,1207],"xSR":741.5,"ySR":469.95,"xT1":424.9,"yT1":0,"xT2":1058.1,"yT2":0,"toosoon":0,"cond_shown":"randomdotsizeEA","ratio_trial":750,"smaller_num":"12","larger_num":"16","correct_side":2,"subjID":"jUANAaLEJANDRAmaRTINEZlAVERDE16","gender":"1","age":"9","school":"4"},{"start_time":1552074411382,"click_time":1552074411859,"finger_time":1552074411819,"fix_duration":1421.6713606341395,"trial":9,"RT":437,"MT":40,"sideResp":2,"stimulus":"img/750/randomdotsizeEA/R/3_Ratio_750_L_15_R_20.png","xmouse":[762,762,762,762,762,762,762,762,762,762,762,762,762,762,762,762,762,762,762,762,782,860,983,1122],"ymouse":[537,537,537,537,537,537,537,537,537,537,537,537,537,537,537,537,537,537,537,537,509,418,261,32],"timestamp_mouse":[17,41,57,78,98,117,137,157,177,197,217,238,257,277,297,317,338,358,377,398,417,437,456,477],"xSR":741.5,"ySR":469.95,"xT1":424.9,"yT1":0,"xT2":1058.1,"yT2":0,"toosoon":0,"cond_shown":"randomdotsizeEA","ratio_trial":750,"smaller_num":"15","larger_num":"20","correct_side":2,"subjID":"jUANAaLEJANDRAmaRTINEZlAVERDE16","gender":"1","age":"9","school":"4"},{"start_time":1552074413191,"click_time":1552074414519,"finger_time":1552074413479,"fix_duration":250,"trial":10,"RT":288,"MT":1040,"sideResp":2,"stimulus":"img/250/equaldotanddens/R/8_Ratio_250_L_1_R_4.png","xmouse":[799,799,799,799,799,799,799,799,799,799,799,799,798,807,838,927,1081,1393,1393,1393,1393,1179,598,0,0,0,197,612,1214,1214,1214,1214,1214,1379,1074,696,333,34,0,0,0,0,0,0,0,0,0,0,165,298,298,298,298,298,298,298,298,298,1485,1484,1484,1484,1484,1465,1404,1288,1153],"ymouse":[521,521,521,521,521,521,521,521,521,521,521,521,516,504,467,393,274,36,36,36,36,56,220,560,608,550,367,164,10,10,10,10,10,266,271,252,194,120,24,24,24,24,24,1,87,163,210,201,92,32,32,32,32,32,32,32,32,32,41,43,43,43,43,41,40,51,72],"timestamp_mouse":[8,36,48,68,88,109,129,148,167,189,208,229,247,267,288,309,328,349,369,388,408,429,449,468,487,508,528,548,569,588,608,629,649,668,687,708,728,749,768,788,808,829,848,867,888,908,929,948,968,988,1009,1029,1049,1068,1088,1107,1129,1148,1168,1189,1207,1228,1248,1268,1288,1307,1328],"xSR":741.5,"ySR":469.95,"xT1":424.9,"yT1":0,"xT2":1058.1,"yT2":0,"toosoon":0,"cond_shown":"equaldotanddens","ratio_trial":250,"smaller_num":"1","larger_num":"4","correct_side":2,"subjID":"jUANAaLEJANDRAmaRTINEZlAVERDE16","gender":"1","age":"9","school":"4"},{"start_time":1552074421131,"click_time":1552074422399,"finger_time":1552074422199,"fix_duration":1349.0801194803842,"trial":11,"RT":1068,"MT":200,"sideResp":1,"stimulus":"img/500/randomdotsizeEA/L/11_Ratio_500_L_12_R_6.png","xmouse":[796,796,796,796,796,796,796,796,796,796,796,796,796,796,796,796,796,796,796,796,796,796,796,796,796,796,796,796,796,796,796,796,796,796,796,796,796,796,796,796,796,796,796,796,796,796,796,796,796,796,796,790,783,750,685,612,504,486,479,478,476,473,469,463],"ymouse":[530,530,530,530,530,530,530,530,530,530,530,530,530,530,530,530,530,530,530,530,530,530,530,530,530,530,530,530,530,530,530,530,530,530,530,530,530,530,530,530,530,530,530,530,530,530,530,530,530,530,528,504,496,466,411,346,231,195,172,158,149,125,110,90],"timestamp_mouse":[9,41,48,69,89,108,129,147,169,190,208,229,249,267,289,308,328,348,369,389,409,428,448,468,488,507,528,548,567,589,609,628,649,668,689,709,728,749,769,788,808,828,849,869,888,909,928,948,969,988,1008,1028,1048,1068,1088,1109,1128,1148,1168,1189,1208,1228,1248,1267],"xSR":741.5,"ySR":469.95,"xT1":424.9,"yT1":0,"xT2":1058.1,"yT2":0,"toosoon":0,"cond_shown":"randomdotsizeEA","ratio_trial":500,"smaller_num":"6","larger_num":"12","correct_side":1,"subjID":"jUANAaLEJANDRAmaRTINEZlAVERDE16","gender":"1","age":"9","school":"4"},{"start_time":1552074424427,"click_time":1552074425099,"finger_time":1552074424899,"fix_duration":904.6794846982409,"trial":12,"RT":472,"MT":200,"sideResp":2,"stimulus":"img/250/equaldotsize/R/10_Ratio_250_L_4_R_16.png","xmouse":[758,758,758,758,758,758,758,758,758,758,758,758,758,758,758,758,758,758,758,758,757,781,816,858,891,914,953,967,990,1013,1040,1086,1099,1108],"ymouse":[542,542,542,542,542,542,542,542,542,542,542,542,542,542,542,542,542,542,542,542,540,507,477,446,422,405,359,333,289,244,197,121,100,86],"timestamp_mouse":[12,43,52,72,92,112,132,152,172,193,211,233,253,272,292,313,333,352,373,393,412,433,452,472,492,512,532,552,571,592,611,632,652,672],"xSR":741.5,"ySR":469.95,"xT1":424.9,"yT1":0,"xT2":1058.1,"yT2":0,"toosoon":0,"cond_shown":"equaldotsize","ratio_trial":250,"smaller_num":"4","larger_num":"16","correct_side":2,"subjID":"jUANAaLEJANDRAmaRTINEZlAVERDE16","gender":"1","age":"9","school":"4"},{"start_time":1552074426784,"click_time":1552074427499,"finger_time":1552074427159,"fix_duration":943.5038324689708,"trial":13,"RT":375,"MT":340,"sideResp":1,"stimulus":"img/500/randomdotsizeEA/R/15_Ratio_500_L_1_R_2.png","xmouse":[788,788,788,788,788,788,788,788,788,788,788,788,788,788,778,771,760,749,723,713,698,684,671,650,640,630,620,609,591,575,565,558,551,538,530,522],"ymouse":[543,543,543,543,543,543,543,543,543,543,543,543,543,543,527,516,496,480,441,424,404,385,368,340,323,300,278,255,211,176,157,144,133,111,99,87],"timestamp_mouse":[14,38,56,75,96,116,135,156,176,195,215,235,255,276,294,316,335,355,375,395,414,434,454,475,495,515,534,555,576,594,615,635,654,675,695,715],"xSR":741.5,"ySR":469.95,"xT1":424.9,"yT1":0,"xT2":1058.1,"yT2":0,"toosoon":0,"cond_shown":"randomdotsizeEA","ratio_trial":500,"smaller_num":"1","larger_num":"2","correct_side":2,"subjID":"jUANAaLEJANDRAmaRTINEZlAVERDE16","gender":"1","age":"9","school":"4"},{"start_time":1552074429489,"click_time":1552074430239,"finger_time":1552074430079,"fix_duration":708.1531163310655,"trial":14,"RT":590,"MT":160,"sideResp":2,"stimulus":"img/900/equaldotsize/R/7_Ratio_900_L_9_R_10.png","xmouse":[811,811,811,811,811,811,811,811,811,811,811,811,811,811,811,811,811,811,811,811,811,811,811,811,811,811,810,813,831,840,847,854,862,918,957,1001,1043,1083],"ymouse":[511,511,511,511,511,511,511,511,511,511,511,511,511,511,511,511,511,511,511,511,511,511,511,511,511,511,509,502,479,468,461,454,443,377,324,257,160,48],"timestamp_mouse":[15,40,51,71,90,110,130,149,170,191,210,231,250,271,289,310,330,351,369,391,411,430,450,471,491,511,530,549,570,590,610,630,649,671,689,710,729,750],"xSR":741.5,"ySR":469.95,"xT1":424.9,"yT1":0,"xT2":1058.1,"yT2":0,"toosoon":0,"cond_shown":"equaldotsize","ratio_trial":900,"smaller_num":"9","larger_num":"10","correct_side":2,"subjID":"jUANAaLEJANDRAmaRTINEZlAVERDE16","gender":"1","age":"9","school":"4"},{"start_time":1552074432875,"click_time":1552074433999,"finger_time":1552074433439,"fix_duration":394.3791585015901,"trial":15,"RT":564,"MT":560,"sideResp":1,"stimulus":"img/900/equaldotsize/L/4_Ratio_900_L_20_R_18.png","xmouse":[807,807,807,807,807,807,807,807,807,807,807,807,807,807,807,807,807,807,807,807,808,802,793,770,752,749,749,746,736,701,670,633,591,561,534,530,528,528,528,528,528,528,528,528,528,528,528,528,528,528,528,528,528,528,528,528,487],"ymouse":[519,519,519,519,519,519,519,519,519,519,519,519,519,519,519,519,519,519,519,519,518,511,505,489,478,476,475,473,457,405,356,292,213,145,51,15,1,1,1,1,1,1,1,1,1,1,1,1,1,1,1,1,1,1,1,1,18],"timestamp_mouse":[13,35,43,64,85,103,124,144,165,183,204,224,245,264,285,304,325,344,365,384,404,425,443,464,483,504,524,544,564,584,605,624,644,664,684,704,724,743,763,783,804,823,843,864,884,904,924,945,964,984,1005,1024,1045,1065,1084,1105,1124],"xSR":741.5,"ySR":469.95,"xT1":424.9,"yT1":0,"xT2":1058.1,"yT2":0,"toosoon":0,"cond_shown":"equaldotsize","ratio_trial":900,"smaller_num":"18","larger_num":"20","correct_side":1,"subjID":"jUANAaLEJANDRAmaRTINEZlAVERDE16","gender":"1","age":"9","school":"4"},{"start_time":1552074435191,"click_time":1552074436099,"finger_time":1552074436039,"fix_duration":250,"trial":16,"RT":848,"MT":60,"sideResp":1,"stimulus":"img/900/randomdotsizeEA/R/5_Ratio_900_L_9_R_10.png","xmouse":[786,786,786,786,786,786,786,786,786,786,786,786,786,786,786,786,786,786,786,786,786,786,786,786,786,786,786,786,786,786,786,786,786,786,786,786,786,786,786,786,786,776,745,610,545,505],"ymouse":[512,512,512,512,512,512,512,512,512,512,512,512,512,512,512,512,512,512,512,512,512,512,512,512,512,512,512,512,512,512,512,512,512,512,512,512,512,512,512,512,512,491,435,232,152,95],"timestamp_mouse":[10,38,48,67,88,109,129,148,169,188,207,229,249,268,288,308,329,348,369,389,409,427,449,469,488,508,529,549,569,588,608,629,649,668,689,709,729,748,769,788,807,829,848,868,888,908],"xSR":741.5,"ySR":469.95,"xT1":424.9,"yT1":0,"xT2":1058.1,"yT2":0,"toosoon":0,"cond_shown":"randomdotsizeEA","ratio_trial":900,"smaller_num":"9","larger_num":"10","correct_side":2,"subjID":"jUANAaLEJANDRAmaRTINEZlAVERDE16","gender":"1","age":"9","school":"4"},{"start_time":1552074438578,"click_time":1552074439659,"finger_time":1552074439039,"fix_duration":1477.0486348736829,"trial":17,"RT":461,"MT":620,"sideResp":2,"stimulus":"img/250/equaldotsize/R/6_Ratio_250_L_6_R_24.png","xmouse":[790,790,790,790,790,790,790,790,790,790,790,790,790,790,790,790,790,790,790,790,790,806,839,879,972,1004,1034,1075,1116,1199,1222,1232,1240,1244,1247,1247,1247,1247,1247,1247,1245,1241,1226,1212,1184,1174,1171,1167,1165,1165,1165,1165,1164,1163,1138],"ymouse":[508,508,508,508,508,508,508,508,508,508,508,508,508,508,508,508,508,508,508,508,508,497,474,446,386,364,340,302,254,134,92,66,43,29,16,15,15,15,15,15,15,15,22,26,33,35,35,36,36,36,36,36,36,36,43],"timestamp_mouse":[9,21,41,62,81,100,122,141,161,180,202,222,241,260,282,302,322,341,360,382,402,422,440,461,481,501,521,541,562,581,601,621,642,661,681,701,720,741,762,782,801,821,842,862,881,901,921,940,960,981,1001,1021,1041,1062,1080],"xSR":741.5,"ySR":469.95,"xT1":424.9,"yT1":0,"xT2":1058.1,"yT2":0,"toosoon":0,"cond_shown":"equaldotsize","ratio_trial":250,"smaller_num":"6","larger_num":"24","correct_side":2,"subjID":"jUANAaLEJANDRAmaRTINEZlAVERDE16","gender":"1","age":"9","school":"4"},{"start_time":1552074441130,"click_time":1552074442319,"finger_time":1552074441919,"fix_duration":250,"trial":18,"RT":789,"MT":400,"sideResp":1,"stimulus":"img/900/equaldotsize/L/1_Ratio_900_L_10_R_9.png","xmouse":[759,759,759,759,759,759,759,759,759,759,759,759,759,759,759,759,759,759,759,759,759,759,759,759,759,760,778,795,803,804,804,804,804,804,804,804,792,775,754,726,689,648,553,528,512,509,515,527,530,534,536,536,536,536,536,536,536,535,527,518],"ymouse":[526,526,526,526,526,526,526,526,526,526,526,526,526,526,526,526,526,526,526,526,526,526,526,526,526,526,514,505,501,500,500,500,500,500,500,500,500,500,498,489,469,442,341,291,244,217,173,128,95,72,60,52,51,51,51,51,51,48,39,33],"timestamp_mouse":[26,30,49,69,89,109,129,150,169,190,210,230,249,269,290,309,329,349,369,390,410,429,450,470,490,509,529,549,569,589,610,629,649,669,688,709,729,749,770,789,809,829,849,868,889,909,929,949,969,989,1008,1029,1049,1069,1089,1110,1129,1148,1170,1189],"xSR":741.5,"ySR":469.95,"xT1":424.9,"yT1":0,"xT2":1058.1,"yT2":0,"toosoon":0,"cond_shown":"equaldotsize","ratio_trial":900,"smaller_num":"9","larger_num":"10","correct_side":1,"subjID":"jUANAaLEJANDRAmaRTINEZlAVERDE16","gender":"1","age":"9","school":"4"},{"start_time":1552074443210,"click_time":1552074444820,"finger_time":1552074444200,"fix_duration":250,"trial":19,"RT":990,"MT":620,"sideResp":2,"stimulus":"img/750/randomdotsizeEA/L/9_Ratio_750_L_4_R_3.png","xmouse":[806,806,806,806,806,806,806,806,806,806,806,806,806,806,806,806,806,806,806,806,806,806,806,806,806,806,806,806,806,806,806,806,806,806,806,806,806,806,806,806,806,806,806,806,806,806,805,805,818,825,832,840,871,894,929,967,1002,1037,1048,1053,1057,1060,1066,1079,1084,1086,1087,1088,1088,1088,1088,1088,1088,1088,1088,1088,1088,1088,1088,1088,1088],"ymouse":[515,515,515,515,515,515,515,515,515,515,515,515,515,515,515,515,515,515,515,515,515,515,515,515,515,515,515,515,515,515,515,515,515,515,515,515,515,515,515,515,515,515,515,515,515,515,515,509,479,463,450,435,399,379,348,315,284,254,240,233,226,217,207,174,159,151,149,147,146,146,145,145,145,145,143,141,139,136,127,121,73],"timestamp_mouse":[10,34,50,69,89,110,129,149,169,190,210,229,250,269,289,309,329,349,368,390,409,429,449,470,490,509,529,549,570,589,609,629,650,669,689,709,728,749,770,789,810,830,849,869,888,909,930,949,969,990,1009,1029,1049,1068,1089,1109,1129,1149,1169,1188,1209,1228,1249,1270,1290,1309,1328,1349,1368,1389,1410,1429,1450,1469,1489,1510,1528,1549,1568,1589,1609],"xSR":741.5,"ySR":469.95,"xT1":424.9,"yT1":0,"xT2":1058.1,"yT2":0,"toosoon":0,"cond_shown":"randomdotsizeEA","ratio_trial":750,"smaller_num":"3","larger_num":"4","correct_side":1,"subjID":"jUANAaLEJANDRAmaRTINEZlAVERDE16","gender":"1","age":"9","school":"4"},{"start_time":1552074448071,"click_time":1552074449761,"finger_time":1552074449182,"fix_duration":850.8101683329725,"trial":20,"RT":1111,"MT":579,"sideResp":2,"stimulus":"img/500/randomdotsizeEA/L/13_Ratio_500_L_12_R_6.png","xmouse":[775,775,775,775,775,775,775,775,775,775,775,775,775,775,775,775,775,775,775,775,775,775,775,775,775,775,775,775,775,775,775,775,775,775,775,775,775,775,775,775,775,775,775,775,775,775,775,775,775,775,775,775,775,775,826,977,1087,1179,1243,1275,1312,1319,1322,1323,1317,1312,1307,1304,1300,1294,1287,1279,1265,1242,1224,1219,1213,1206,1196,1176,1171,1166,1163,1160,1147],"ymouse":[547,547,547,547,547,547,547,547,547,547,547,547,547,547,547,547,547,547,547,547,547,547,547,547,547,547,547,547,547,547,547,547,547,547,547,547,547,547,547,547,547,547,547,547,547,547,547,547,547,547,547,547,547,547,501,403,341,294,261,239,204,187,171,156,124,114,110,107,105,102,101,100,98,96,95,95,95,94,92,86,84,82,81,81,78],"timestamp_mouse":[12,39,48,69,88,107,128,148,168,189,208,227,249,269,289,309,329,347,368,389,407,428,449,469,489,508,529,548,569,588,609,630,651,671,690,710,731,751,770,791,811,831,850,871,891,911,931,950,970,990,1010,1030,1050,1071,1090,1111,1130,1151,1170,1190,1211,1231,1250,1271,1291,1310,1331,1350,1370,1390,1410,1431,1449,1470,1490,1511,1531,1551,1571,1590,1610,1630,1651,1670,1690],"xSR":741.5,"ySR":469.95,"xT1":424.9,"yT1":0,"xT2":1058.1,"yT2":0,"toosoon":0,"cond_shown":"randomdotsizeEA","ratio_trial":500,"smaller_num":"6","larger_num":"12","correct_side":1,"subjID":"jUANAaLEJANDRAmaRTINEZlAVERDE16","gender":"1","age":"9","school":"4"},{"start_time":1552074451867,"click_time":1552074452801,"finger_time":1552074452601,"fix_duration":1025.5927254455105,"trial":21,"RT":734,"MT":200,"sideResp":1,"stimulus":"img/900/equaldotanddens/L/8_Ratio_900_L_20_R_18.png","xmouse":[775,775,775,775,775,775,775,775,775,775,775,775,775,775,775,775,775,775,775,775,775,775,775,775,775,775,775,775,775,775,775,775,775,775,774,762,738,707,673,621,605,595,584,575,552,534,522],"ymouse":[516,516,516,516,516,516,516,516,516,516,516,516,516,516,516,516,516,516,516,516,516,516,516,516,516,516,516,516,516,516,516,516,516,516,510,483,431,359,278,162,129,108,87,70,38,16,2],"timestamp_mouse":[14,41,55,75,95,114,134,155,174,193,213,235,255,273,294,314,333,354,375,394,415,434,455,474,494,515,535,554,574,594,613,635,655,675,694,715,734,755,776,794,814,834,854,874,894,914,934],"xSR":741.5,"ySR":469.95,"xT1":424.9,"yT1":0,"xT2":1058.1,"yT2":0,"toosoon":0,"cond_shown":"equaldotanddens","ratio_trial":900,"smaller_num":"18","larger_num":"20","correct_side":1,"subjID":"jUANAaLEJANDRAmaRTINEZlAVERDE16","gender":"1","age":"9","school":"4"},{"start_time":1552074454699,"click_time":1552074455681,"finger_time":1552074455560,"fix_duration":995.7959520204523,"trial":22,"RT":861,"MT":121,"sideResp":1,"stimulus":"img/900/randomdotsizeEA/L/10_Ratio_900_L_20_R_18.png","xmouse":[836,836,836,836,836,836,836,836,836,836,836,836,836,836,836,836,836,836,836,836,836,836,836,836,836,836,836,836,836,836,836,836,836,836,836,836,836,836,836,836,836,836,836,787,731,656,590,546,522,514],"ymouse":[547,547,547,547,547,547,547,547,547,547,547,547,547,547,547,547,547,547,547,547,547,547,547,547,547,547,547,547,547,547,547,547,547,547,547,547,547,547,547,547,547,547,542,462,383,290,205,142,102,87],"timestamp_mouse":[10,21,46,63,83,103,123,142,162,181,203,223,242,262,283,302,323,343,361,383,403,422,443,462,483,503,523,543,562,583,601,622,642,663,683,702,721,743,762,783,803,823,843,861,881,902,923,942,962,982],"xSR":741.5,"ySR":469.95,"xT1":424.9,"yT1":0,"xT2":1058.1,"yT2":0,"toosoon":0,"cond_shown":"randomdotsizeEA","ratio_trial":900,"smaller_num":"18","larger_num":"20","correct_side":1,"subjID":"jUANAaLEJANDRAmaRTINEZlAVERDE16","gender":"1","age":"9","school":"4"},{"start_time":1552074457763,"click_time":1552074459301,"finger_time":1552074458821,"fix_duration":1060.5394891614076,"trial":23,"RT":1058,"MT":480,"sideResp":1,"stimulus":"img/250/randomdotsizeEA/L/14_Ratio_250_L_12_R_3.png","xmouse":[781,781,781,781,781,781,781,781,781,781,781,781,781,781,781,781,781,781,781,781,781,781,781,781,781,781,781,781,781,781,781,781,781,781,781,782,784,786,788,788,790,792,793,794,795,795,795,795,795,795,795,795,791,788,762,746,726,706,681,625,614,614,614,614,614,614,614,614,614,614,614,614,614,614,614,495,491],"ymouse":[514,514,514,514,514,514,514,514,514,514,514,514,514,514,514,514,514,514,514,514,514,514,514,514,514,514,514,514,514,514,514,514,514,514,513,504,497,492,489,487,485,482,480,478,476,476,476,476,476,476,476,476,461,450,387,332,274,211,148,26,10,10,10,10,10,10,10,10,10,10,10,10,10,10,10,0,3],"timestamp_mouse":[18,37,59,78,98,118,139,159,178,199,219,238,259,279,299,318,339,358,377,399,419,437,459,478,499,518,538,559,578,599,619,639,659,678,698,718,738,758,778,798,819,838,858,879,898,918,939,958,978,998,1019,1039,1058,1079,1099,1118,1139,1159,1177,1198,1218,1237,1258,1279,1298,1318,1338,1358,1378,1399,1418,1439,1458,1478,1498,1519,1538],"xSR":741.5,"ySR":469.95,"xT1":424.9,"yT1":0,"xT2":1058.1,"yT2":0,"toosoon":0,"cond_shown":"randomdotsizeEA","ratio_trial":250,"smaller_num":"3","larger_num":"12","correct_side":1,"subjID":"jUANAaLEJANDRAmaRTINEZlAVERDE16","gender":"1","age":"9","school":"4"},{"start_time":1552074460946,"click_time":1552074462101,"finger_time":1552074461741,"fix_duration":623.3214974091584,"trial":24,"RT":795,"MT":360,"sideResp":1,"stimulus":"img/750/equaldotanddens/L/8_Ratio_750_L_4_R_3.png","xmouse":[804,804,804,804,804,804,804,804,804,804,804,804,804,804,804,804,804,804,804,804,804,804,804,804,804,804,800,794,783,770,761,761,761,761,761,761,761,760,760,760,760,758,757,751,745,726,714,704,692,681,663,644,636,626,613,581,551,514],"ymouse":[517,517,517,517,517,517,517,517,517,517,517,517,517,517,517,517,517,517,517,517,517,517,517,517,517,517,515,509,495,485,477,476,476,476,476,475,473,472,470,468,462,453,437,421,401,356,327,304,278,255,216,190,180,169,158,129,106,77],"timestamp_mouse":[16,35,56,75,95,115,135,156,176,195,215,236,256,275,295,315,335,356,374,395,416,434,456,476,496,515,535,556,574,595,615,635,656,676,696,715,736,755,775,795,815,835,855,876,895,915,935,955,975,996,1015,1035,1055,1075,1095,1115,1135,1154],"xSR":741.5,"ySR":469.95,"xT1":424.9,"yT1":0,"xT2":1058.1,"yT2":0,"toosoon":0,"cond_shown":"equaldotanddens","ratio_trial":750,"smaller_num":"3","larger_num":"4","correct_side":1,"subjID":"jUANAaLEJANDRAmaRTINEZlAVERDE16","gender":"1","age":"9","school":"4"},{"start_time":1552074464034,"click_time":1552074464843,"finger_time":1552074464661,"fix_duration":1011.543890163639,"trial":25,"RT":627,"MT":182,"sideResp":1,"stimulus":"img/500/equaldotanddens/L/7_Ratio_500_L_10_R_5.png","xmouse":[813,813,813,813,813,813,813,813,813,813,813,813,813,813,813,813,813,813,813,813,813,813,813,813,813,813,813,813,813,813,814,749,693,633,590,565,533,520,505,487,464],"ymouse":[512,512,512,512,512,512,512,512,512,512,512,512,512,512,512,512,512,512,512,512,512,512,512,512,512,512,512,512,512,512,501,411,339,272,225,198,161,146,128,113,93],"timestamp_mouse":[13,36,48,68,88,107,128,148,168,187,207,227,247,268,287,307,327,347,366,387,407,427,447,467,487,506,527,546,568,588,607,627,647,667,687,706,727,748,767,787,808],"xSR":741.5,"ySR":469.95,"xT1":424.9,"yT1":0,"xT2":1058.1,"yT2":0,"toosoon":0,"cond_shown":"equaldotanddens","ratio_trial":500,"smaller_num":"5","larger_num":"10","correct_side":1,"subjID":"jUANAaLEJANDRAmaRTINEZlAVERDE16","gender":"1","age":"9","school":"4"},{"start_time":1552074466112,"click_time":1552074467941,"finger_time":1552074467261,"fix_duration":250,"trial":26,"RT":1149,"MT":680,"sideResp":1,"stimulus":"img/900/equaldotanddens/L/8_Ratio_900_L_20_R_18.png","xmouse":[772,772,772,772,772,772,772,772,772,772,772,772,772,772,772,772,772,772,772,772,772,772,772,772,772,772,772,772,772,772,772,772,772,772,772,772,772,772,772,772,772,772,772,772,772,772,772,772,772,772,772,772,772,772,772,772,768,737,716,700,685,664,574,504,443,406,386,378,378,378,378,378,378,378,378,378,378,378,378,378,378,378,379,382,383,385,387,391,394,404,419,436],"ymouse":[507,507,507,507,507,507,507,507,507,507,507,507,507,507,507,507,507,507,507,507,507,507,507,507,507,507,507,507,507,507,507,507,507,507,507,507,507,507,507,507,507,507,507,507,507,507,507,507,507,507,507,507,507,507,507,498,479,394,351,322,297,266,179,136,101,80,68,63,63,63,63,63,63,63,63,63,63,63,63,63,63,63,63,63,63,63,63,63,63,64,66,69],"timestamp_mouse":[12,38,49,70,90,110,130,149,169,188,210,230,249,270,290,309,328,349,369,390,409,429,450,469,489,510,530,550,570,589,610,629,649,669,690,709,729,749,770,789,810,829,850,869,890,910,929,949,970,989,1010,1029,1049,1068,1090,1110,1129,1149,1168,1189,1210,1229,1249,1270,1289,1309,1328,1350,1370,1389,1409,1429,1449,1470,1489,1509,1528,1549,1569,1590,1610,1630,1650,1671,1689,1709,1730,1750,1770,1790,1810,1829],"xSR":741.5,"ySR":469.95,"xT1":424.9,"yT1":0,"xT2":1058.1,"yT2":0,"toosoon":0,"cond_shown":"equaldotanddens","ratio_trial":900,"smaller_num":"18","larger_num":"20","correct_side":1,"subjID":"jUANAaLEJANDRAmaRTINEZlAVERDE16","gender":"1","age":"9","school":"4"},{"start_time":1552074469898,"click_time":1552074471202,"finger_time":1552074470902,"fix_duration":1054.2900184338878,"trial":27,"RT":1004,"MT":300,"sideResp":1,"stimulus":"img/900/randomdotsizeEA/L/1_Ratio_900_L_10_R_9.png","xmouse":[795,795,795,795,795,795,795,795,795,795,795,795,795,795,795,795,795,795,795,795,795,795,795,795,795,795,795,795,795,795,795,795,795,795,795,795,795,795,795,795,795,795,795,795,795,795,795,795,795,772,748,720,694,656,645,635,623,606,579,566,557,552,550,545,535,522],"ymouse":[531,531,531,531,531,531,531,531,531,531,531,531,531,531,531,531,531,531,531,531,531,531,531,531,531,531,531,531,531,531,531,531,531,531,531,531,531,531,531,531,531,531,531,531,531,531,531,531,525,487,449,404,361,287,260,234,211,180,136,118,105,98,94,86,72,60],"timestamp_mouse":[9,35,43,63,84,103,124,143,163,184,204,224,244,263,284,303,324,343,363,383,402,424,444,463,484,504,524,543,563,584,604,624,643,662,684,704,723,744,763,784,804,823,843,864,884,904,923,943,963,983,1004,1024,1044,1063,1082,1103,1124,1143,1163,1183,1203,1223,1243,1263,1282,1304],"xSR":741.5,"ySR":469.95,"xT1":424.9,"yT1":0,"xT2":1058.1,"yT2":0,"toosoon":0,"cond_shown":"randomdotsizeEA","ratio_trial":900,"smaller_num":"9","larger_num":"10","correct_side":1,"subjID":"jUANAaLEJANDRAmaRTINEZlAVERDE16","gender":"1","age":"9","school":"4"},{"start_time":1552074472393,"click_time":1552074473322,"finger_time":1552074473042,"fix_duration":250,"trial":28,"RT":649,"MT":280,"sideResp":1,"stimulus":"img/500/equaldotanddens/L/8_Ratio_500_L_8_R_4.png","xmouse":[795,795,795,795,795,795,795,795,795,795,795,795,795,795,795,795,795,795,795,795,795,795,795,795,795,795,795,795,795,784,766,750,735,712,701,691,673,650,591,571,556,542,533,512,498,483,466],"ymouse":[555,555,555,555,555,555,555,555,555,555,555,555,555,555,555,555,555,555,555,555,555,555,555,555,555,555,555,555,555,544,522,503,483,455,439,419,395,364,272,239,217,198,185,153,134,113,84],"timestamp_mouse":[10,39,49,69,88,109,128,148,169,189,208,228,248,269,289,308,328,349,369,388,408,428,449,469,488,509,528,548,568,588,609,629,649,668,688,709,728,749,768,789,808,829,850,868,887,908,929],"xSR":741.5,"ySR":469.95,"xT1":424.9,"yT1":0,"xT2":1058.1,"yT2":0,"toosoon":0,"cond_shown":"equaldotanddens","ratio_trial":500,"smaller_num":"4","larger_num":"8","correct_side":1,"subjID":"jUANAaLEJANDRAmaRTINEZlAVERDE16","gender":"1","age":"9","school":"4"},{"start_time":1552074475772,"click_time":1552074476661,"finger_time":1552074476401,"fix_duration":250,"trial":29,"RT":629,"MT":260,"sideResp":2,"stimulus":"img/250/equaldotanddens/R/10_Ratio_250_L_4_R_16.png","xmouse":[790,790,790,790,790,790,790,790,790,790,790,790,790,790,790,790,790,790,790,790,790,790,790,790,790,790,790,790,790,795,836,879,923,962,1027,1045,1055,1062,1066,1075,1085,1091,1096,1099,1100],"ymouse":[539,539,539,539,539,539,539,539,539,539,539,539,539,539,539,539,539,539,539,539,539,539,539,539,539,539,539,539,539,531,476,423,372,326,246,221,206,197,189,173,157,144,129,115,98],"timestamp_mouse":[10,36,49,70,90,109,129,149,169,189,210,229,249,270,290,309,330,349,369,389,410,430,449,468,490,509,530,550,570,589,610,629,650,670,689,709,729,748,769,789,809,829,850,870,889],"xSR":741.5,"ySR":469.95,"xT1":424.9,"yT1":0,"xT2":1058.1,"yT2":0,"toosoon":0,"cond_shown":"equaldotanddens","ratio_trial":250,"smaller_num":"4","larger_num":"16","correct_side":2,"subjID":"jUANAaLEJANDRAmaRTINEZlAVERDE16","gender":"1","age":"9","school":"4"},{"start_time":1552074478427,"click_time":1552074479402,"finger_time":1552074478902,"fix_duration":1065.1926654542456,"trial":30,"RT":475,"MT":500,"sideResp":2,"stimulus":"img/900/equaldotanddens/R/5_Ratio_900_L_9_R_10.png","xmouse":[761,761,761,761,761,761,761,761,761,761,761,761,761,761,761,761,761,761,761,761,761,788,816,837,849,853,859,861,861,861,861,861,861,861,861,861,861,861,861,861,862,934,1007,1075,1116,1132,1140,1142,1143],"ymouse":[539,539,539,539,539,539,539,539,539,539,539,539,539,539,539,539,539,539,539,539,540,506,474,449,435,427,414,410,408,408,408,408,408,408,408,408,408,408,408,408,406,322,252,190,154,138,114,104,96],"timestamp_mouse":[14,42,55,74,94,115,134,154,175,195,214,235,254,275,294,315,333,355,375,394,414,434,454,475,493,513,535,555,574,595,614,634,654,675,694,714,734,755,775,793,814,834,854,874,894,915,935,955,975],"xSR":741.5,"ySR":469.95,"xT1":424.9,"yT1":0,"xT2":1058.1,"yT2":0,"toosoon":0,"cond_shown":"equaldotanddens","ratio_trial":900,"smaller_num":"9","larger_num":"10","correct_side":2,"subjID":"jUANAaLEJANDRAmaRTINEZlAVERDE16","gender":"1","age":"9","school":"4"},{"start_time":1552074481003,"click_time":1552074481662,"finger_time":1552074481421,"fix_duration":680.9688647507754,"trial":31,"RT":418,"MT":241,"sideResp":1,"stimulus":"img/250/randomdotsizeEA/L/14_Ratio_250_L_12_R_3.png","xmouse":[771,771,771,771,771,771,771,771,771,771,771,771,771,771,771,773,779,799,816,823,829,832,832,832,829,822,809,725,669,619,573,534,460],"ymouse":[531,531,531,531,531,531,531,531,531,531,531,531,531,531,531,529,523,506,486,475,464,456,444,437,426,414,402,349,314,280,239,190,67],"timestamp_mouse":[19,38,58,79,98,118,137,158,179,199,219,237,258,278,298,318,338,358,377,398,418,439,458,478,499,517,539,558,579,598,618,638,658],"xSR":741.5,"ySR":469.95,"xT1":424.9,"yT1":0,"xT2":1058.1,"yT2":0,"toosoon":0,"cond_shown":"randomdotsizeEA","ratio_trial":250,"smaller_num":"3","larger_num":"12","correct_side":1,"subjID":"jUANAaLEJANDRAmaRTINEZlAVERDE16","gender":"1","age":"9","school":"4"},{"start_time":1552074482613,"click_time":1552074483901,"finger_time":1552074483561,"fix_duration":250,"trial":32,"RT":948,"MT":340,"sideResp":2,"stimulus":"img/750/equaldotanddens/R/3_Ratio_750_L_15_R_20.png","xmouse":[780,780,780,780,780,780,780,780,780,780,780,780,780,780,780,780,780,780,780,781,781,781,781,781,781,781,781,781,781,781,781,781,781,781,781,781,781,781,781,783,784,788,792,794,798,804,818,866,888,913,938,952,973,985,1000,1010,1021,1029,1033,1036,1039,1042,1046,1056,1069],"ymouse":[561,561,561,561,561,561,561,561,561,561,561,561,561,561,561,561,561,561,561,561,561,561,561,561,561,561,561,561,561,561,561,561,561,561,561,561,561,561,561,547,542,531,515,511,506,498,486,447,425,391,357,331,297,281,264,251,243,236,233,228,223,218,207,144,49],"timestamp_mouse":[21,46,48,68,88,108,128,148,169,188,208,228,248,268,288,308,327,348,369,389,409,429,449,469,489,509,529,549,568,588,609,627,647,669,689,709,728,748,768,788,809,828,847,868,888,908,928,948,969,988,1009,1028,1048,1067,1088,1108,1129,1148,1170,1188,1209,1228,1248,1269,1288],"xSR":741.5,"ySR":469.95,"xT1":424.9,"yT1":0,"xT2":1058.1,"yT2":0,"toosoon":0,"cond_shown":"equaldotanddens","ratio_trial":750,"smaller_num":"15","larger_num":"20","correct_side":2,"subjID":"jUANAaLEJANDRAmaRTINEZlAVERDE16","gender":"1","age":"9","school":"4"},{"start_time":1552074485560,"click_time":1552074486162,"finger_time":1552074486061,"fix_duration":777.9981182944096,"trial":33,"RT":501,"MT":101,"sideResp":1,"stimulus":"img/500/equaldotsize/L/11_Ratio_500_L_12_R_6.png","xmouse":[773,773,773,773,773,773,773,773,773,773,773,773,773,773,773,773,773,773,773,773,773,773,773,770,761,691,632,572,526,495,457],"ymouse":[532,532,532,532,532,532,532,532,532,532,532,532,532,532,532,532,532,532,532,532,532,532,532,528,518,457,404,339,272,199,66],"timestamp_mouse":[9,36,42,61,82,101,122,141,161,181,202,222,242,262,282,301,322,342,361,382,402,421,441,461,481,501,521,541,562,581,601],"xSR":741.5,"ySR":469.95,"xT1":424.9,"yT1":0,"xT2":1058.1,"yT2":0,"toosoon":0,"cond_shown":"equaldotsize","ratio_trial":500,"smaller_num":"6","larger_num":"12","correct_side":1,"subjID":"jUANAaLEJANDRAmaRTINEZlAVERDE16","gender":"1","age":"9","school":"4"},{"start_time":1552074488746,"click_time":1552074490161,"finger_time":1552074489181,"fix_duration":983.5258130321081,"trial":34,"RT":435,"MT":980,"sideResp":1,"stimulus":"img/500/randomdotsizeEA/R/12_Ratio_500_L_1_R_2.png","xmouse":[769,769,769,769,769,769,769,769,769,770,774,776,776,776,777,779,782,786,791,804,812,825,832,840,846,852,853,854,854,854,854,854,854,854,854,854,854,854,854,854,836,797,749,695,665,631,624,612,592,551,526,525,525,529,533,536,537,537,537,537,537,537,537,537,537,537,537,537,537,537,479],"ymouse":[536,536,536,536,536,536,536,536,536,533,526,523,522,521,520,517,513,510,503,489,482,469,459,452,445,437,435,434,434,434,434,434,434,434,434,434,434,434,434,434,439,449,460,468,469,466,459,432,354,205,86,59,43,26,16,2,0,0,0,0,0,0,0,0,0,0,0,0,0,0,7],"timestamp_mouse":[15,40,56,76,95,114,135,155,176,195,215,235,255,274,295,315,334,355,375,395,415,435,455,476,495,515,535,555,576,596,615,636,655,675,696,716,736,756,775,794,815,836,855,874,895,915,935,955,976,996,1015,1036,1056,1076,1096,1115,1135,1156,1175,1196,1215,1235,1255,1276,1296,1316,1335,1355,1376,1396,1415],"xSR":741.5,"ySR":469.95,"xT1":424.9,"yT1":0,"xT2":1058.1,"yT2":0,"toosoon":0,"cond_shown":"randomdotsizeEA","ratio_trial":500,"smaller_num":"1","larger_num":"2","correct_side":2,"subjID":"jUANAaLEJANDRAmaRTINEZlAVERDE16","gender":"1","age":"9","school":"4"},{"start_time":1552074493978,"click_time":1552074494562,"finger_time":1552074494402,"fix_duration":1113.1787049608495,"trial":35,"RT":424,"MT":160,"sideResp":2,"stimulus":"img/900/equaldotsize/L/1_Ratio_900_L_10_R_9.png","xmouse":[791,791,791,791,791,791,791,791,791,791,791,791,791,791,791,791,791,791,794,803,812,820,831,851,917,955,997,1029,1065,1142],"ymouse":[492,492,492,492,492,492,492,492,492,492,492,492,492,492,492,492,492,492,488,482,475,467,454,428,348,305,256,216,176,83],"timestamp_mouse":[12,31,44,64,84,103,124,144,164,184,202,224,243,264,283,303,324,343,364,383,403,424,444,462,483,503,523,543,562,584],"xSR":741.5,"ySR":469.95,"xT1":424.9,"yT1":0,"xT2":1058.1,"yT2":0,"toosoon":0,"cond_shown":"equaldotsize","ratio_trial":900,"smaller_num":"9","larger_num":"10","correct_side":1,"subjID":"jUANAaLEJANDRAmaRTINEZlAVERDE16","gender":"1","age":"9","school":"4"},{"start_time":1552074498028,"click_time":1552074499162,"finger_time":1552074498881,"fix_duration":606.0607378561878,"trial":36,"RT":853,"MT":281,"sideResp":1,"stimulus":"img/900/randomdotsizeEA/R/12_Ratio_900_L_18_R_20.png","xmouse":[795,795,795,795,795,795,795,795,795,795,795,795,795,795,795,795,795,795,795,795,795,795,795,795,795,795,795,795,795,795,795,795,795,795,795,795,789,785,780,778,775,768,762,758,750,743,724,714,705,697,690,682,658,643,622,599,519],"ymouse":[535,535,534,534,534,534,534,534,534,534,533,533,533,533,533,533,533,533,533,533,533,533,533,533,533,533,533,533,533,533,533,533,533,533,533,531,521,513,505,500,494,477,463,449,432,414,366,346,322,299,273,245,179,144,114,83,9],"timestamp_mouse":[13,42,54,73,93,112,133,152,173,192,213,234,253,272,293,313,333,354,373,393,412,434,453,473,493,513,533,553,573,593,613,633,654,674,693,713,733,753,774,792,813,833,853,874,893,914,933,954,973,993,1013,1033,1053,1073,1092,1114,1133],"xSR":741.5,"ySR":469.95,"xT1":424.9,"yT1":0,"xT2":1058.1,"yT2":0,"toosoon":0,"cond_shown":"randomdotsizeEA","ratio_trial":900,"smaller_num":"18","larger_num":"20","correct_side":2,"subjID":"jUANAaLEJANDRAmaRTINEZlAVERDE16","gender":"1","age":"9","school":"4"},{"start_time":1552074501339,"click_time":1552074504361,"finger_time":1552074502381,"fix_duration":1096.8969396973296,"trial":37,"RT":1042,"MT":1980,"sideResp":2,"stimulus":"img/900/randomdotsizeEA/L/2_Ratio_900_L_20_R_18.png","xmouse":[801,801,801,801,801,801,801,801,801,801,801,801,800,800,800,800,800,800,800,800,800,800,800,800,800,800,800,800,800,800,800,800,800,800,800,800,800,800,800,800,800,800,800,800,800,800,800,800,794,788,776,772,768,768,768,768,768,768,768,768,768,768,768,768,768,768,768,768,768,768,768,768,768,768,768,768,768,767,767,767,767,767,767,767,767,767,767,767,767,767,767,767,767,769,770,772,777,780,781,781,781,781,781,781,781,781,781,788,806,827,847,883,912,930,968,1044,1202,1271,1317,1349,1363,1374,1382,1383,1383,1383,1382,1381,1379,1374,1363,1316,1276,1252,1238,1234,1231,1230,1229,1227,1223,1209,1203,1198,1196,1195,1190,1184,1180,1174,1168,1142],"ymouse":[524,524,524,524,524,524,524,524,524,524,524,516,512,510,509,509,509,509,509,509,509,509,509,509,509,509,509,509,509,509,509,509,509,509,509,509,509,509,509,509,509,509,509,509,509,509,509,509,498,492,475,470,465,465,465,465,465,465,465,465,465,465,465,465,465,465,465,465,465,465,465,465,465,465,465,465,465,465,469,476,481,484,484,484,485,488,491,493,494,496,497,499,501,504,506,510,515,517,517,517,517,517,517,517,517,517,517,516,509,500,488,459,422,400,360,311,213,177,147,123,107,84,55,42,31,24,17,16,15,15,15,28,43,53,59,60,60,60,60,60,60,60,60,60,60,60,60,60,60,60,60,60],"timestamp_mouse":[10,36,42,61,83,102,122,142,162,182,203,222,241,261,283,301,322,343,361,382,403,422,443,462,482,502,522,543,562,583,602,623,643,663,682,703,723,742,763,782,803,822,842,863,883,903,922,942,963,982,1002,1021,1042,1063,1081,1102,1122,1142,1163,1181,1202,1222,1242,1262,1283,1302,1322,1342,1363,1382,1402,1423,1442,1462,1482,1503,1523,1542,1562,1583,1603,1622,1643,1662,1682,1702,1722,1743,1762,1782,1803,1822,1842,1863,1882,1902,1922,1942,1963,1983,2003,2022,2043,2063,2083,2103,2123,2143,2162,2182,2203,2222,2242,2261,2283,2303,2322,2341,2362,2382,2403,2422,2442,2462,2483,2501,2522,2541,2562,2583,2602,2622,2643,2662,2682,2701,2722,2742,2763,2783,2803,2822,2843,2862,2883,2903,2922,2943,2963,2982,3002,3022],"xSR":741.5,"ySR":469.95,"xT1":424.9,"yT1":0,"xT2":1058.1,"yT2":0,"toosoon":0,"cond_shown":"randomdotsizeEA","ratio_trial":900,"smaller_num":"18","larger_num":"20","correct_side":1,"subjID":"jUANAaLEJANDRAmaRTINEZlAVERDE16","gender":"1","age":"9","school":"4"},{"start_time":1552074507203,"click_time":1552074508661,"finger_time":1552074508141,"fix_duration":1459.4123027903363,"trial":38,"RT":938,"MT":520,"sideResp":1,"stimulus":"img/900/equaldotsize/R/9_Ratio_900_L_18_R_20.png","xmouse":[793,793,793,793,793,793,793,793,793,793,793,793,793,793,793,793,793,793,793,793,793,793,793,793,793,793,793,793,793,793,793,793,793,793,793,793,793,793,793,793,793,793,793,793,793,789,783,764,734,730,726,723,717,704,692,678,663,647,615,603,595,586,581,573,567,561,554,549,542,540,536,531,527,514],"ymouse":[498,498,498,498,498,498,498,498,498,498,498,498,498,498,498,498,498,498,498,498,498,498,498,498,498,498,498,498,498,498,498,498,498,498,498,498,498,498,498,498,498,498,498,498,498,493,479,438,360,336,311,289,263,213,184,157,133,110,78,71,67,64,63,63,63,63,63,63,63,63,63,63,63,63],"timestamp_mouse":[1,19,37,59,78,97,117,139,158,179,199,219,238,258,279,299,318,339,358,379,398,417,439,458,479,499,519,538,559,579,599,618,638,659,679,698,718,739,758,779,797,819,839,859,878,898,919,938,958,978,998,1018,1038,1058,1078,1098,1119,1139,1158,1178,1198,1218,1239,1258,1278,1298,1319,1338,1358,1379,1398,1419,1439,1458],"xSR":741.5,"ySR":469.95,"xT1":424.9,"yT1":0,"xT2":1058.1,"yT2":0,"toosoon":0,"cond_shown":"equaldotsize","ratio_trial":900,"smaller_num":"18","larger_num":"20","correct_side":2,"subjID":"jUANAaLEJANDRAmaRTINEZlAVERDE16","gender":"1","age":"9","school":"4"},{"start_time":1552074512611,"click_time":1552074513882,"finger_time":1552074513563,"fix_duration":1148.9843139206719,"trial":39,"RT":952,"MT":319,"sideResp":1,"stimulus":"img/500/equaldotanddens/L/13_Ratio_500_L_12_R_6.png","xmouse":[799,796,790,790,790,790,790,790,790,790,790,790,790,790,791,793,794,795,795,795,795,795,795,795,795,795,795,795,795,795,795,795,795,795,795,795,795,795,795,795,795,795,795,782,769,757,746,724,716,713,712,712,712,712,711,708,703,650,595,571,551,540,529,524],"ymouse":[533,540,551,553,553,553,553,553,553,553,553,553,553,552,551,548,547,546,546,546,546,546,546,546,546,546,546,546,546,546,546,546,546,546,546,546,546,546,546,546,546,546,538,521,507,497,488,462,457,455,454,454,454,452,447,433,418,277,164,130,102,84,48,35],"timestamp_mouse":[12,33,51,73,92,111,131,152,172,193,213,231,251,271,293,311,333,351,372,393,412,431,452,472,493,511,532,551,573,593,611,631,652,673,692,712,732,751,773,792,812,831,852,871,893,912,932,952,972,991,1012,1031,1052,1071,1093,1113,1132,1152,1171,1191,1212,1233,1252,1271],"xSR":741.5,"ySR":469.95,"xT1":424.9,"yT1":0,"xT2":1058.1,"yT2":0,"toosoon":0,"cond_shown":"equaldotanddens","ratio_trial":500,"smaller_num":"6","larger_num":"12","correct_side":1,"subjID":"jUANAaLEJANDRAmaRTINEZlAVERDE16","gender":"1","age":"9","school":"4"},{"start_time":1552074515468,"click_time":1552074517282,"finger_time":1552074516762,"fix_duration":483.7347270112213,"trial":40,"RT":1294,"MT":520,"sideResp":2,"stimulus":"img/250/equaldotsize/R/4_Ratio_250_L_3_R_12.png","xmouse":[789,788,786,784,783,783,783,783,783,783,783,783,783,783,783,783,783,783,783,783,783,783,783,783,783,783,783,783,783,783,783,783,783,783,783,783,783,783,783,783,783,783,783,783,783,783,783,783,783,783,783,783,783,783,783,783,783,783,783,783,783,783,787,790,830,856,867,876,885,904,916,934,944,951,963,967,969,972,981,998,1005,1010,1014,1016,1019,1024,1029,1035,1043,1055,1061],"ymouse":[556,552,547,546,544,544,544,544,544,544,544,544,544,544,544,544,544,544,544,544,544,544,544,544,544,544,544,544,544,544,544,544,544,544,544,544,544,544,544,544,544,544,544,544,544,544,544,544,544,544,544,544,544,544,544,544,544,544,544,544,544,544,529,522,456,411,390,370,349,301,269,226,199,176,147,138,132,124,111,84,75,69,65,63,61,58,57,55,53,50,49],"timestamp_mouse":[16,37,55,75,95,115,135,154,175,194,216,235,255,274,295,316,336,354,375,394,414,436,456,474,494,516,536,554,575,595,615,634,655,676,695,716,735,754,774,795,815,835,856,876,895,915,935,956,975,995,1016,1034,1055,1075,1095,1115,1136,1154,1175,1196,1216,1234,1254,1276,1294,1315,1335,1355,1375,1394,1415,1434,1454,1474,1494,1515,1534,1554,1575,1595,1614,1634,1654,1676,1695,1715,1735,1754,1774,1796,1814],"xSR":741.5,"ySR":469.95,"xT1":424.9,"yT1":0,"xT2":1058.1,"yT2":0,"toosoon":0,"cond_shown":"equaldotsize","ratio_trial":250,"smaller_num":"3","larger_num":"12","correct_side":2,"subjID":"jUANAaLEJANDRAmaRTINEZlAVERDE16","gender":"1","age":"9","school":"4"},{"start_time":1552074519278,"click_time":1552074520282,"finger_time":1552074519823,"fix_duration":1072.8627081344684,"trial":41,"RT":545,"MT":459,"sideResp":1,"stimulus":"img/250/equaldotanddens/L/3_Ratio_250_L_8_R_2.png","xmouse":[775,775,775,775,775,775,775,775,775,775,775,775,775,775,775,775,775,775,775,775,775,775,775,775,775,772,766,757,747,718,701,683,666,643,589,548,548,548,548,548,548,548,548,548,548,548,548,548,548,548,495],"ymouse":[515,515,515,515,515,515,515,515,515,515,515,515,515,515,515,515,515,515,515,515,515,515,515,515,515,504,490,469,444,374,339,296,253,196,80,10,10,10,10,10,10,10,10,10,10,10,10,10,10,10,14],"timestamp_mouse":[12,27,44,65,86,106,124,144,166,185,204,224,245,265,285,304,325,345,365,384,406,425,445,465,484,505,525,545,564,585,604,625,644,665,685,705,725,745,766,786,805,826,845,865,885,905,925,946,966,985,1004],"xSR":741.5,"ySR":469.95,"xT1":424.9,"yT1":0,"xT2":1058.1,"yT2":0,"toosoon":0,"cond_shown":"equaldotanddens","ratio_trial":250,"smaller_num":"2","larger_num":"8","correct_side":1,"subjID":"jUANAaLEJANDRAmaRTINEZlAVERDE16","gender":"1","age":"9","school":"4"},{"start_time":1552074522150,"click_time":1552074523203,"finger_time":1552074522642,"fix_duration":965.1582696298829,"trial":42,"RT":492,"MT":561,"sideResp":1,"stimulus":"img/500/equaldotsize/L/7_Ratio_500_L_10_R_5.png","xmouse":[803,803,803,803,803,803,803,803,803,803,803,803,803,803,803,803,803,803,803,803,803,803,801,794,783,738,715,688,654,587,535,535,535,535,535,535,535,535,535,535,535,535,535,535,535,535,392,400,403,403,410,424,440],"ymouse":[551,551,551,551,551,551,551,551,551,551,551,551,551,551,551,551,551,551,551,551,551,543,523,500,469,354,288,226,158,60,12,12,12,12,12,12,12,12,12,12,12,12,12,12,12,12,3,14,17,18,28,42,54],"timestamp_mouse":[14,46,54,74,94,113,133,154,173,192,213,233,252,273,293,313,332,352,373,392,412,433,452,474,492,512,533,554,573,594,613,632,654,673,693,712,734,754,772,792,813,833,853,874,893,914,933,953,974,994,1013,1032,1053],"xSR":741.5,"ySR":469.95,"xT1":424.9,"yT1":0,"xT2":1058.1,"yT2":0,"toosoon":0,"cond_shown":"equaldotsize","ratio_trial":500,"smaller_num":"5","larger_num":"10","correct_side":1,"subjID":"jUANAaLEJANDRAmaRTINEZlAVERDE16","gender":"1","age":"9","school":"4"},{"start_time":1552074525896,"click_time":1552074526843,"finger_time":1552074526522,"fix_duration":250,"trial":43,"RT":626,"MT":321,"sideResp":1,"stimulus":"img/750/equaldotanddens/L/9_Ratio_750_L_4_R_3.png","xmouse":[788,788,788,788,788,788,788,788,788,788,788,788,788,788,788,788,788,788,790,791,792,793,793,793,793,793,793,793,786,772,756,741,730,711,697,684,673,661,639,630,623,617,610,588,566,550,534,523],"ymouse":[557,557,557,557,557,555,554,554,554,554,554,554,554,554,554,554,554,554,550,548,547,546,546,546,546,546,546,545,533,518,498,474,451,392,328,286,251,221,185,172,163,153,145,121,106,95,88,83],"timestamp_mouse":[13,34,46,67,86,107,127,146,167,188,207,226,248,267,288,307,326,347,367,388,407,427,447,466,487,507,527,546,567,587,607,626,647,666,686,706,726,748,767,786,808,827,846,866,886,907,927,947],"xSR":741.5,"ySR":469.95,"xT1":424.9,"yT1":0,"xT2":1058.1,"yT2":0,"toosoon":0,"cond_shown":"equaldotanddens","ratio_trial":750,"smaller_num":"3","larger_num":"4","correct_side":1,"subjID":"jUANAaLEJANDRAmaRTINEZlAVERDE16","gender":"1","age":"9","school":"4"},{"start_time":1552074529744,"click_time":1552074530863,"finger_time":1552074530463,"fix_duration":579.4473012882061,"trial":44,"RT":719,"MT":400,"sideResp":1,"stimulus":"img/750/randomdotsizeEA/L/1_Ratio_750_L_20_R_15.png","xmouse":[789,789,789,789,789,789,789,789,789,789,789,789,789,789,789,789,789,789,789,789,789,789,789,789,789,789,789,789,789,789,789,789,789,789,789,789,780,766,742,713,689,668,647,645,642,637,610,589,566,549,542,540,540,538,536,528,508],"ymouse":[540,540,540,540,540,540,540,540,540,540,540,540,540,540,540,540,540,540,540,540,540,540,540,540,540,540,540,540,540,540,540,540,540,540,540,537,466,397,315,243,191,156,124,122,118,114,88,74,60,53,49,49,49,49,49,49,49],"timestamp_mouse":[1,19,38,60,78,98,119,139,158,179,200,220,239,259,279,300,320,340,360,379,400,418,438,460,479,498,519,540,560,579,599,618,640,658,678,698,719,740,759,778,798,818,838,858,879,898,918,938,958,978,1000,1018,1038,1059,1078,1099,1118],"xSR":741.5,"ySR":469.95,"xT1":424.9,"yT1":0,"xT2":1058.1,"yT2":0,"toosoon":0,"cond_shown":"randomdotsizeEA","ratio_trial":750,"smaller_num":"15","larger_num":"20","correct_side":1,"subjID":"jUANAaLEJANDRAmaRTINEZlAVERDE16","gender":"1","age":"9","school":"4"},{"start_time":1552074532624,"click_time":1552074533383,"finger_time":1552074533143,"fix_duration":659.8737114368679,"trial":45,"RT":519,"MT":240,"sideResp":1,"stimulus":"img/900/equaldotanddens/L/10_Ratio_900_L_20_R_18.png","xmouse":[791,791,791,791,791,791,791,791,791,791,791,791,791,791,791,791,791,791,791,791,791,791,791,792,785,770,753,713,704,688,663,630,604,563,555,550,546,525,499],"ymouse":[522,522,522,522,522,522,522,522,522,522,522,522,522,522,522,522,522,522,522,522,522,522,522,518,503,477,454,392,360,324,265,207,164,104,93,84,74,42,14],"timestamp_mouse":[2,18,41,58,79,99,120,138,159,179,198,220,239,259,279,299,320,338,359,379,400,419,439,458,479,500,519,539,559,579,599,620,638,658,679,698,720,738,759],"xSR":741.5,"ySR":469.95,"xT1":424.9,"yT1":0,"xT2":1058.1,"yT2":0,"toosoon":0,"cond_shown":"equaldotanddens","ratio_trial":900,"smaller_num":"18","larger_num":"20","correct_side":1,"subjID":"jUANAaLEJANDRAmaRTINEZlAVERDE16","gender":"1","age":"9","school":"4"},{"start_time":1552074536317,"click_time":1552074537484,"finger_time":1552074537062,"fix_duration":712.6372276617558,"trial":46,"RT":745,"MT":422,"sideResp":2,"stimulus":"img/750/equaldotanddens/R/5_Ratio_750_L_15_R_20.png","xmouse":[778,778,778,778,778,778,778,778,778,778,778,778,778,778,778,778,778,778,778,778,778,778,778,778,778,778,778,778,778,778,778,778,778,778,778,778,791,874,942,1006,1063,1128,1184,1203,1212,1222,1222,1222,1222,1222,1222,1222,1222,1222,1222,1222,1222,1222,1155],"ymouse":[502,502,502,502,502,502,502,502,502,502,502,502,502,502,502,502,502,502,502,502,502,502,502,502,502,502,502,502,502,502,502,502,502,502,502,502,496,449,401,350,296,211,103,57,34,9,9,9,9,9,9,9,9,9,9,9,9,9,4],"timestamp_mouse":[10,27,45,67,86,105,126,147,167,186,207,225,245,266,287,307,326,345,367,387,406,425,447,466,485,507,526,546,566,587,606,626,645,666,687,705,725,745,765,786,807,827,846,867,886,906,927,946,966,986,1007,1026,1047,1067,1087,1106,1127,1147,1167],"xSR":741.5,"ySR":469.95,"xT1":424.9,"yT1":0,"xT2":1058.1,"yT2":0,"toosoon":0,"cond_shown":"equaldotanddens","ratio_trial":750,"smaller_num":"15","larger_num":"20","correct_side":2,"subjID":"jUANAaLEJANDRAmaRTINEZlAVERDE16","gender":"1","age":"9","school":"4"},{"start_time":1552074541459,"click_time":1552074542543,"finger_time":1552074542183,"fix_duration":1094.0644794914342,"trial":47,"RT":724,"MT":360,"sideResp":1,"stimulus":"img/900/equaldotanddens/L/2_Ratio_900_L_20_R_18.png","xmouse":[791,791,791,791,791,791,791,791,791,791,791,791,791,791,791,791,791,791,791,791,791,791,791,791,791,791,791,791,791,791,791,791,791,791,789,769,738,722,709,701,688,680,669,658,644,616,593,575,560,549,536,524,510,497,477],"ymouse":[542,542,542,542,542,542,542,542,542,542,542,542,542,542,542,542,542,542,542,542,542,542,542,542,542,542,542,542,542,542,542,542,542,542,530,474,414,383,362,348,316,301,284,266,251,224,202,187,174,165,150,136,120,102,71],"timestamp_mouse":[10,30,45,65,84,105,124,143,165,183,204,225,244,264,284,303,325,345,363,384,405,423,444,464,484,503,523,550,565,584,604,625,643,663,684,704,724,744,764,785,805,824,844,863,883,903,923,944,964,985,1003,1023,1044,1064,1084],"xSR":741.5,"ySR":469.95,"xT1":424.9,"yT1":0,"xT2":1058.1,"yT2":0,"toosoon":0,"cond_shown":"equaldotanddens","ratio_trial":900,"smaller_num":"18","larger_num":"20","correct_side":1,"subjID":"jUANAaLEJANDRAmaRTINEZlAVERDE16","gender":"1","age":"9","school":"4"},{"start_time":1552074543374,"click_time":1552074544483,"finger_time":1552074544162,"fix_duration":250,"trial":48,"RT":788,"MT":321,"sideResp":1,"stimulus":"img/750/equaldotanddens/L/14_Ratio_750_L_8_R_6.png","xmouse":[838,838,838,837,816,809,805,805,805,804,804,804,804,804,804,804,804,804,804,804,804,804,804,804,804,804,804,804,804,804,804,804,804,804,804,804,804,804,803,794,752,707,648,590,495,475,465,463,461,454,454,454,458,464,474,477],"ymouse":[561,561,561,560,539,533,529,529,529,529,529,529,529,529,529,529,529,529,529,529,529,529,529,529,529,529,529,529,529,529,529,529,529,529,529,529,529,529,528,467,384,330,284,250,208,197,188,179,168,144,138,132,123,114,102,98],"timestamp_mouse":[10,38,49,70,89,110,128,148,170,189,209,229,249,269,290,308,329,350,369,389,408,430,450,469,490,509,529,550,568,589,609,629,648,669,689,710,728,749,769,788,808,829,850,870,888,908,929,950,968,989,1010,1029,1050,1069,1088,1109],"xSR":741.5,"ySR":469.95,"xT1":424.9,"yT1":0,"xT2":1058.1,"yT2":0,"toosoon":0,"cond_shown":"equaldotanddens","ratio_trial":750,"smaller_num":"6","larger_num":"8","correct_side":1,"subjID":"jUANAaLEJANDRAmaRTINEZlAVERDE16","gender":"1","age":"9","school":"4"},{"start_time":1552074545570,"click_time":1552074546923,"finger_time":1552074546044,"fix_duration":465.3875518020183,"trial":49,"RT":474,"MT":879,"sideResp":2,"stimulus":"img/250/randomdotsizeEA/R/10_Ratio_250_L_4_R_16.png","xmouse":[805,805,805,805,805,805,805,805,805,805,803,802,800,796,793,791,789,787,784,772,766,761,754,746,731,722,711,699,686,637,612,591,574,561,551,550,549,546,544,538,537,535,534,534,534,534,534,534,534,534,534,534,535,544,631,689,751,791,832,957,1004,1042,1063,1074,1082,1086,1089,1091],"ymouse":[527,527,527,527,527,527,527,527,527,527,527,527,527,524,521,518,517,515,512,497,489,481,470,460,441,429,414,396,375,301,267,243,223,208,195,192,189,183,178,165,160,155,150,145,137,136,135,135,135,135,135,135,137,146,187,198,205,207,207,204,189,172,161,151,132,119,104,92],"timestamp_mouse":[13,38,53,74,94,114,132,153,173,194,213,233,253,274,293,312,333,352,374,393,413,434,454,474,492,512,532,554,574,593,612,632,653,674,694,712,733,753,772,792,812,834,853,874,893,913,932,953,972,993,1013,1033,1053,1074,1093,1114,1133,1153,1173,1192,1213,1234,1253,1274,1292,1314,1334,1353],"xSR":741.5,"ySR":469.95,"xT1":424.9,"yT1":0,"xT2":1058.1,"yT2":0,"toosoon":0,"cond_shown":"randomdotsizeEA","ratio_trial":250,"smaller_num":"4","larger_num":"16","correct_side":2,"subjID":"jUANAaLEJANDRAmaRTINEZlAVERDE16","gender":"1","age":"9","school":"4"},{"start_time":1552074548638,"click_time":1552074549644,"finger_time":1552074549202,"fix_duration":432.9666725672018,"trial":50,"RT":564,"MT":442,"sideResp":1,"stimulus":"img/500/equaldotanddens/L/5_Ratio_500_L_4_R_2.png","xmouse":[785,785,785,785,785,785,785,785,785,785,785,785,785,785,785,785,785,785,785,785,785,785,785,785,785,785,785,785,780,740,696,632,614,604,598,592,579,576,576,576,576,576,576,576,576,576,576,576,576,504,500],"ymouse":[489,489,489,489,489,489,489,489,489,489,489,489,489,489,489,489,489,489,489,489,489,489,489,489,489,489,489,489,460,374,294,170,127,96,73,52,8,0,0,0,0,0,0,0,0,0,0,0,0,0,8],"timestamp_mouse":[13,25,45,65,85,104,125,146,164,185,205,224,245,266,285,304,325,344,366,385,404,424,446,465,486,504,525,545,564,585,605,624,645,665,686,704,725,746,766,786,806,825,845,865,886,905,924,946,965,986,1006],"xSR":741.5,"ySR":469.95,"xT1":424.9,"yT1":0,"xT2":1058.1,"yT2":0,"toosoon":0,"cond_shown":"equaldotanddens","ratio_trial":500,"smaller_num":"2","larger_num":"4","correct_side":1,"subjID":"jUANAaLEJANDRAmaRTINEZlAVERDE16","gender":"1","age":"9","school":"4"},{"start_time":1552074551913,"click_time":1552074552824,"finger_time":1552074552524,"fix_duration":968.7589359424742,"trial":51,"RT":611,"MT":300,"sideResp":2,"stimulus":"img/250/equaldotsize/R/12_Ratio_250_L_5_R_20.png","xmouse":[776,776,776,776,776,776,776,776,776,776,776,776,776,776,776,776,776,776,776,776,776,776,776,778,782,786,793,803,814,826,841,861,883,895,901,905,911,927,936,948,959,970,1006,1026,1042,1060],"ymouse":[520,520,520,520,520,520,520,520,520,520,520,520,520,520,520,520,520,520,520,520,520,520,520,521,521,520,518,511,501,485,465,434,387,346,317,291,271,233,217,199,184,168,128,113,98,84],"timestamp_mouse":[10,35,50,70,89,109,131,149,171,190,209,229,251,269,289,311,330,349,371,390,410,430,451,470,490,510,531,550,569,590,611,630,650,670,690,709,731,749,769,790,810,831,850,869,889,911],"xSR":741.5,"ySR":469.95,"xT1":424.9,"yT1":0,"xT2":1058.1,"yT2":0,"toosoon":0,"cond_shown":"equaldotsize","ratio_trial":250,"smaller_num":"5","larger_num":"20","correct_side":2,"subjID":"jUANAaLEJANDRAmaRTINEZlAVERDE16","gender":"1","age":"9","school":"4"},{"start_time":1552074568532,"click_time":1552074569324,"finger_time":1552074569122,"fix_duration":1148.3576242080783,"trial":52,"RT":590,"MT":202,"sideResp":1,"stimulus":"img/500/equaldotsize/L/11_Ratio_500_L_12_R_6.png","xmouse":[775,775,775,775,775,775,775,775,775,775,775,775,775,775,775,775,775,775,775,775,775,775,775,775,775,775,771,761,750,734,718,691,664,643,618,594,547,535,527,523],"ymouse":[522,520,519,518,518,518,518,518,518,518,518,518,518,518,518,518,518,518,518,518,518,518,518,518,518,518,509,489,470,441,412,350,285,241,196,144,66,43,24,14],"timestamp_mouse":[10,33,51,71,92,110,130,152,172,192,210,231,252,270,290,312,330,351,372,392,410,431,451,470,492,510,531,551,572,590,611,630,651,670,691,712,731,751,771,792],"xSR":741.5,"ySR":469.95,"xT1":424.9,"yT1":0,"xT2":1058.1,"yT2":0,"toosoon":0,"cond_shown":"equaldotsize","ratio_trial":500,"smaller_num":"6","larger_num":"12","correct_side":1,"subjID":"jUANAaLEJANDRAmaRTINEZlAVERDE16","gender":"1","age":"9","school":"4"},{"start_time":1552074571096,"click_time":1552074572024,"finger_time":1552074571883,"fix_duration":951.3431114626949,"trial":53,"RT":787,"MT":141,"sideResp":1,"stimulus":"img/750/randomdotsizeEA/L/9_Ratio_750_L_4_R_3.png","xmouse":[762,762,762,762,762,762,762,762,762,762,762,762,762,762,762,762,762,762,762,767,778,789,797,809,810,810,810,810,810,810,810,810,810,810,810,810,810,810,786,766,743,719,687,615,565,531,506],"ymouse":[537,537,537,537,537,537,537,537,537,537,537,537,537,537,537,537,537,537,537,538,538,538,535,530,530,530,530,530,530,530,530,530,530,530,530,530,529,527,474,428,372,320,266,165,103,67,46],"timestamp_mouse":[13,35,48,67,87,108,129,148,167,189,207,227,247,268,288,307,329,347,367,389,408,427,448,467,487,507,527,548,567,588,607,628,647,668,687,708,727,748,768,787,808,827,848,867,888,907,928],"xSR":741.5,"ySR":469.95,"xT1":424.9,"yT1":0,"xT2":1058.1,"yT2":0,"toosoon":0,"cond_shown":"randomdotsizeEA","ratio_trial":750,"smaller_num":"3","larger_num":"4","correct_side":1,"subjID":"jUANAaLEJANDRAmaRTINEZlAVERDE16","gender":"1","age":"9","school":"4"},{"start_time":1552074574676,"click_time":1552074575283,"finger_time":1552074575105,"fix_duration":250,"trial":54,"RT":429,"MT":178,"sideResp":1,"stimulus":"img/900/equaldotanddens/L/2_Ratio_900_L_20_R_18.png","xmouse":[820,820,820,820,820,820,820,820,820,820,820,820,820,820,819,816,816,816,815,813,808,798,785,770,726,701,660,605,551,462,446],"ymouse":[542,542,542,542,542,542,542,542,542,542,542,542,542,539,524,517,516,515,513,500,485,465,447,432,403,386,350,297,237,123,90],"timestamp_mouse":[12,36,48,68,87,107,129,147,168,187,208,227,249,268,287,307,329,349,367,387,408,429,447,467,487,508,527,547,569,587,607],"xSR":741.5,"ySR":469.95,"xT1":424.9,"yT1":0,"xT2":1058.1,"yT2":0,"toosoon":0,"cond_shown":"equaldotanddens","ratio_trial":900,"smaller_num":"18","larger_num":"20","correct_side":1,"subjID":"jUANAaLEJANDRAmaRTINEZlAVERDE16","gender":"1","age":"9","school":"4"},{"start_time":1552074577433,"click_time":1552074579563,"finger_time":1552074578264,"fix_duration":888.179916986749,"trial":55,"RT":831,"MT":1299,"sideResp":1,"stimulus":"img/900/randomdotsizeEA/R/3_Ratio_900_L_9_R_10.png","xmouse":[771,771,771,771,771,771,771,771,771,771,771,771,771,771,771,771,771,771,771,771,774,791,803,812,816,817,818,818,818,818,818,818,818,818,818,818,818,818,818,818,817,796,766,735,704,684,649,635,616,595,583,583,583,583,583,583,583,583,583,583,583,583,583,583,567,576,586,637,653,665,673,686,691,696,701,706,713,713,714,714,713,710,708,708,708,708,706,698,675,652,624,570,553,553,553,553,553,553,553,553,553,553,553,553,553,508,496],"ymouse":[509,509,509,509,509,509,509,509,509,509,509,509,509,509,509,509,509,509,509,509,507,493,485,479,477,477,476,476,476,476,476,476,476,476,476,476,476,476,476,476,472,421,344,269,196,153,76,56,35,12,3,3,3,3,3,3,3,3,3,3,3,3,3,3,5,20,34,91,105,114,120,135,146,159,178,199,262,286,307,328,347,368,370,370,371,371,371,349,295,239,174,50,10,10,10,10,10,10,10,10,10,10,10,10,10,0,67],"timestamp_mouse":[10,34,50,71,91,111,132,152,172,190,211,231,252,271,291,311,331,350,370,391,412,430,450,470,491,510,531,550,570,591,611,630,651,671,691,711,730,752,772,791,810,831,851,871,892,911,931,950,972,991,1011,1031,1050,1070,1090,1111,1130,1150,1171,1191,1210,1230,1250,1271,1290,1312,1330,1352,1372,1391,1411,1430,1450,1471,1490,1512,1530,1551,1571,1591,1612,1630,1652,1671,1690,1711,1731,1751,1770,1791,1810,1830,1850,1870,1890,1911,1931,1950,1971,1990,2010,2031,2050,2070,2090,2110,2130],"xSR":741.5,"ySR":469.95,"xT1":424.9,"yT1":0,"xT2":1058.1,"yT2":0,"toosoon":0,"cond_shown":"randomdotsizeEA","ratio_trial":900,"smaller_num":"9","larger_num":"10","correct_side":2,"subjID":"jUANAaLEJANDRAmaRTINEZlAVERDE16","gender":"1","age":"9","school":"4"},{"start_time":1552074581056,"click_time":1552074584825,"finger_time":1552074583863,"fix_duration":250,"trial":56,"RT":2807,"MT":962,"sideResp":2,"stimulus":"img/500/equaldotsize/R/15_Ratio_500_L_1_R_2.png","xmouse":[772,772,772,772,772,772,772,772,772,772,772,772,772,772,772,772,772,772,772,772,772,772,772,772,772,772,772,772,772,772,772,772,772,772,772,772,772,772,772,772,772,772,772,772,772,772,772,772,772,772,772,772,772,772,772,772,772,772,772,772,772,772,772,772,772,772,772,772,772,772,772,772,772,772,772,772,772,772,772,772,772,772,772,772,772,772,772,772,772,772,772,772,772,772,772,772,772,772,772,772,772,772,772,772,772,772,772,772,772,772,772,772,772,772,772,772,772,772,772,772,772,772,772,772,772,772,772,772,772,772,772,772,772,772,772,772,772,772,800,828,1006,1110,1191,1258,1319,1409,1429,1444,1453,1459,1465,1465,1465,1458,1431,1351,1292,1230,1203,1203,1203,1203,1203,1203,1203,1203,1203,1203,1203,1164,1319,1363,1370,1370,1370,1370,1370,1370,1370,1361,1314,1284,1246,1208,1181,1161,1160,1159,1157],"ymouse":[515,515,515,515,515,515,515,515,515,515,515,515,515,515,515,515,515,515,515,515,515,515,515,515,515,515,515,515,515,515,515,515,515,515,515,515,515,515,515,515,515,515,515,515,515,515,515,515,515,515,515,515,515,515,515,515,515,515,515,515,515,515,515,515,515,515,515,515,515,515,515,515,515,515,515,515,515,515,515,515,515,515,515,515,515,515,515,515,515,515,515,515,515,515,515,515,515,515,515,515,515,515,515,515,515,515,515,515,515,515,515,515,515,515,515,515,515,515,515,515,515,515,515,515,515,515,515,515,515,515,515,515,515,515,515,515,515,515,509,498,420,380,342,305,270,206,188,175,161,151,133,128,124,118,105,73,48,20,3,3,3,3,3,3,3,3,3,3,3,47,207,270,280,280,280,280,280,280,280,266,227,200,162,131,108,90,90,90,90],"timestamp_mouse":[9,40,48,68,87,108,127,149,167,187,208,229,249,268,288,307,327,347,367,387,408,429,448,468,488,507,528,548,568,587,607,629,648,667,688,708,729,747,768,787,808,827,848,867,889,907,928,948,968,988,1007,1027,1047,1069,1087,1108,1128,1147,1169,1188,1208,1228,1248,1267,1288,1308,1329,1348,1368,1388,1407,1427,1449,1468,1487,1507,1528,1548,1568,1587,1607,1628,1647,1669,1687,1707,1727,1748,1768,1788,1808,1828,1848,1868,1888,1907,1928,1949,1968,1987,2007,2028,2047,2068,2088,2107,2127,2148,2168,2188,2207,2227,2248,2268,2288,2308,2328,2348,2368,2387,2407,2429,2449,2468,2487,2507,2527,2548,2569,2588,2608,2627,2647,2668,2687,2707,2729,2748,2767,2787,2807,2827,2847,2867,2888,2907,2928,2947,2967,2987,3007,3029,3047,3069,3089,3107,3128,3147,3167,3187,3208,3228,3248,3267,3288,3307,3328,3347,3367,3387,3408,3427,3447,3467,3487,3508,3527,3548,3567,3587,3608,3629,3649,3668,3688,3707,3727,3747,3769],"xSR":741.5,"ySR":469.95,"xT1":424.9,"yT1":0,"xT2":1058.1,"yT2":0,"toosoon":0,"cond_shown":"equaldotsize","ratio_trial":500,"smaller_num":"1","larger_num":"2","correct_side":2,"subjID":"jUANAaLEJANDRAmaRTINEZlAVERDE16","gender":"1","age":"9","school":"4"},{"start_time":1552074587810,"click_time":1552074588904,"finger_time":1552074588544,"fix_duration":364.04889478130565,"trial":57,"RT":734,"MT":360,"sideResp":2,"stimulus":"img/250/equaldotsize/R/10_Ratio_250_L_4_R_16.png","xmouse":[803,803,803,803,803,803,803,803,803,803,803,803,803,803,803,803,803,803,803,803,803,803,803,803,803,803,803,803,803,803,803,803,803,803,814,822,853,913,939,961,987,1013,1063,1084,1098,1114,1126,1141,1142,1142,1140,1133,1111,1099,1088],"ymouse":[552,552,552,552,552,552,552,552,552,552,552,552,552,552,552,552,552,552,552,552,552,552,552,552,552,552,552,552,552,552,552,552,552,552,536,529,502,457,436,418,392,363,306,282,262,241,218,174,165,159,154,146,120,104,88],"timestamp_mouse":[13,34,55,73,93,113,134,153,175,194,215,233,253,274,294,314,334,353,374,394,413,434,454,473,494,513,534,554,574,593,614,633,653,674,694,715,734,753,773,794,814,833,853,873,893,915,934,954,973,993,1014,1034,1053,1074,1093],"xSR":741.5,"ySR":469.95,"xT1":424.9,"yT1":0,"xT2":1058.1,"yT2":0,"toosoon":0,"cond_shown":"equaldotsize","ratio_trial":250,"smaller_num":"4","larger_num":"16","correct_side":2,"subjID":"jUANAaLEJANDRAmaRTINEZlAVERDE16","gender":"1","age":"9","school":"4"},{"start_time":1552074590215,"click_time":1552074591385,"finger_time":1552074590803,"fix_duration":250,"trial":58,"RT":588,"MT":582,"sideResp":1,"stimulus":"img/750/equaldotsize/L/1_Ratio_750_L_20_R_15.png","xmouse":[799,799,799,799,799,799,799,799,799,799,799,799,799,799,799,799,799,799,799,799,799,799,799,799,799,799,799,799,799,791,785,768,747,742,739,737,735,728,721,718,715,711,700,687,670,650,630,596,588,580,572,562,541,535,534,534,534,532,521],"ymouse":[509,509,509,509,509,509,509,509,509,509,509,509,509,509,509,509,509,509,509,509,509,509,509,509,509,509,509,509,509,451,422,365,290,257,233,217,202,175,164,158,153,146,137,128,119,109,98,82,77,73,67,60,47,44,43,43,43,43,40],"timestamp_mouse":[10,35,48,69,90,108,128,149,169,190,209,229,248,269,290,309,329,348,369,389,410,429,449,470,489,508,529,549,569,588,609,630,648,669,689,708,730,748,768,788,809,830,848,868,888,910,929,948,968,988,1009,1029,1048,1068,1089,1109,1128,1149,1170],"xSR":741.5,"ySR":469.95,"xT1":424.9,"yT1":0,"xT2":1058.1,"yT2":0,"toosoon":0,"cond_shown":"equaldotsize","ratio_trial":750,"smaller_num":"15","larger_num":"20","correct_side":1,"subjID":"jUANAaLEJANDRAmaRTINEZlAVERDE16","gender":"1","age":"9","school":"4"},{"start_time":1552074593158,"click_time":1552074594663,"finger_time":1552074593963,"fix_duration":833.8545623381227,"trial":59,"RT":805,"MT":700,"sideResp":2,"stimulus":"img/500/randomdotsizeEA/R/1_Ratio_500_L_9_R_18.png","xmouse":[794,794,794,794,794,794,794,794,794,794,794,794,794,794,794,794,794,794,794,794,794,794,794,794,794,794,794,794,794,794,794,794,795,795,795,795,794,793,792,791,784,780,776,773,769,765,763,763,763,763,763,763,764,770,784,826,850,880,924,1028,1144,1176,1193,1204,1210,1222,1226,1228,1228,1228,1228,1228,1228,1228,1228,1127],"ymouse":[538,538,538,538,538,538,538,538,538,538,538,538,538,538,538,538,538,538,538,538,538,538,538,538,538,538,538,538,538,538,538,538,526,518,509,502,499,497,494,488,466,455,443,434,425,416,412,412,412,412,412,412,404,398,386,360,344,323,284,206,120,98,83,71,63,37,22,11,4,0,0,0,0,0,0,15],"timestamp_mouse":[5,25,45,65,86,105,125,145,165,187,207,227,245,265,287,306,325,345,366,385,406,425,445,466,485,505,525,545,566,585,605,625,646,666,685,705,725,746,766,785,805,825,846,865,885,905,926,945,965,985,1006,1026,1045,1066,1085,1105,1126,1145,1165,1185,1206,1226,1247,1266,1286,1305,1326,1346,1366,1385,1405,1427,1445,1465,1485,1505],"xSR":741.5,"ySR":469.95,"xT1":424.9,"yT1":0,"xT2":1058.1,"yT2":0,"toosoon":0,"cond_shown":"randomdotsizeEA","ratio_trial":500,"smaller_num":"9","larger_num":"18","correct_side":2,"subjID":"jUANAaLEJANDRAmaRTINEZlAVERDE16","gender":"1","age":"9","school":"4"},{"start_time":1552074595655,"click_time":1552074596804,"finger_time":1552074596563,"fix_duration":250,"trial":60,"RT":908,"MT":241,"sideResp":2,"stimulus":"img/750/equaldotsize/R/3_Ratio_750_L_15_R_20.png","xmouse":[813,813,813,813,813,813,813,813,813,813,813,809,807,800,792,781,780,780,780,780,780,780,780,780,780,780,780,780,780,780,780,780,780,780,780,780,780,780,780,780,780,788,795,811,835,890,920,956,984,1020,1076,1089,1104,1116,1127,1141,1142,1142],"ymouse":[551,551,551,551,551,551,551,551,551,551,551,551,551,549,545,540,540,540,540,540,540,540,540,540,540,540,540,540,540,540,540,540,540,540,540,540,540,540,540,540,540,529,523,506,483,433,404,371,345,308,258,242,224,207,187,136,115,99],"timestamp_mouse":[8,41,49,69,89,108,130,148,168,189,208,228,249,269,288,308,328,349,368,388,409,428,450,468,489,510,528,548,569,588,608,630,649,668,689,708,730,749,769,790,808,828,848,869,890,908,928,949,969,990,1008,1028,1048,1069,1088,1108,1129,1149],"xSR":741.5,"ySR":469.95,"xT1":424.9,"yT1":0,"xT2":1058.1,"yT2":0,"toosoon":0,"cond_shown":"equaldotsize","ratio_trial":750,"smaller_num":"15","larger_num":"20","correct_side":2,"subjID":"jUANAaLEJANDRAmaRTINEZlAVERDE16","gender":"1","age":"9","school":"4"},{"start_time":1552074599007,"click_time":1552074599963,"finger_time":1552074599603,"fix_duration":1042.0981466418611,"trial":61,"RT":596,"MT":360,"sideResp":1,"stimulus":"img/250/equaldotanddens/L/1_Ratio_250_L_8_R_2.png","xmouse":[773,773,773,773,773,773,773,773,773,773,773,773,773,773,773,773,773,773,773,773,773,773,773,773,773,773,773,773,761,737,716,697,676,670,662,653,641,614,596,587,584,580,572,568,562,552,543,515],"ymouse":[500,500,500,500,500,500,500,500,500,500,500,500,500,500,500,500,500,500,500,500,500,500,500,500,500,500,500,500,475,441,415,391,360,346,328,310,289,251,225,210,200,187,160,147,131,114,100,66],"timestamp_mouse":[17,36,58,78,97,117,137,157,176,196,218,237,257,276,296,318,337,357,377,398,418,437,458,476,497,517,536,556,578,596,617,636,656,676,697,717,737,757,776,796,817,836,856,877,896,918,936,956],"xSR":741.5,"ySR":469.95,"xT1":424.9,"yT1":0,"xT2":1058.1,"yT2":0,"toosoon":0,"cond_shown":"equaldotanddens","ratio_trial":250,"smaller_num":"2","larger_num":"8","correct_side":1,"subjID":"jUANAaLEJANDRAmaRTINEZlAVERDE16","gender":"1","age":"9","school":"4"},{"start_time":1552074601115,"click_time":1552074602124,"finger_time":1552074601823,"fix_duration":250,"trial":62,"RT":708,"MT":301,"sideResp":1,"stimulus":"img/250/randomdotsizeEA/L/2_Ratio_250_L_16_R_4.png","xmouse":[805,805,805,805,805,805,805,805,805,805,805,805,805,805,805,805,805,805,805,805,805,805,805,805,805,805,805,805,805,805,805,805,806,805,798,791,782,758,743,728,709,690,619,593,567,548,530,511,506,503,501],"ymouse":[519,519,519,519,519,519,519,519,519,519,519,519,519,519,519,519,519,519,519,519,519,519,519,519,519,519,519,519,519,519,519,519,518,498,479,459,438,394,370,348,325,306,255,234,212,190,169,133,118,105,94],"timestamp_mouse":[15,28,48,69,89,109,129,148,169,188,208,229,250,268,288,308,330,349,369,389,409,430,450,469,489,510,529,550,568,588,609,629,649,668,688,708,729,749,770,790,808,829,848,869,888,910,930,948,969,989,1009],"xSR":741.5,"ySR":469.95,"xT1":424.9,"yT1":0,"xT2":1058.1,"yT2":0,"toosoon":0,"cond_shown":"randomdotsizeEA","ratio_trial":250,"smaller_num":"4","larger_num":"16","correct_side":1,"subjID":"jUANAaLEJANDRAmaRTINEZlAVERDE16","gender":"1","age":"9","school":"4"},{"start_time":1552074604154,"click_time":1552074605264,"finger_time":1552074604763,"fix_duration":989.6017356419717,"trial":63,"RT":609,"MT":501,"sideResp":2,"stimulus":"img/900/equaldotsize/R/13_Ratio_900_L_18_R_20.png","xmouse":[800,800,800,800,800,800,800,800,800,800,800,800,800,800,800,800,800,800,800,800,800,800,800,800,800,800,800,800,801,808,849,864,875,885,897,919,930,941,954,963,977,979,981,985,987,993,997,1003,1012,1021,1043,1047,1048,1049,1052,1064],"ymouse":[507,507,507,507,507,507,507,507,507,507,507,507,507,507,507,507,507,507,507,507,507,507,507,507,507,507,507,507,507,497,457,445,435,424,409,373,354,334,311,290,243,227,212,194,175,141,125,111,93,76,52,49,48,47,45,38],"timestamp_mouse":[10,39,51,70,91,109,130,150,171,190,210,229,250,269,291,310,329,351,370,389,409,430,450,470,489,509,531,550,570,589,609,629,649,670,689,710,729,749,769,790,810,829,850,870,890,909,931,950,969,990,1009,1030,1050,1069,1090,1110],"xSR":741.5,"ySR":469.95,"xT1":424.9,"yT1":0,"xT2":1058.1,"yT2":0,"toosoon":0,"cond_shown":"equaldotsize","ratio_trial":900,"smaller_num":"18","larger_num":"20","correct_side":2,"subjID":"jUANAaLEJANDRAmaRTINEZlAVERDE16","gender":"1","age":"9","school":"4"},{"start_time":1552074607683,"click_time":1552074608785,"finger_time":1552074608343,"fix_duration":1497.77936034721,"trial":64,"RT":660,"MT":442,"sideResp":2,"stimulus":"img/500/equaldotanddens/R/3_Ratio_500_L_10_R_20.png","xmouse":[790,790,790,790,790,790,790,790,790,790,790,790,790,790,790,790,790,790,790,790,790,790,790,790,790,790,790,790,790,790,794,803,825,850,909,939,961,983,1011,1071,1104,1124,1143,1157,1179,1182,1184,1185,1185,1183,1179,1173,1167,1165,1160,1146],"ymouse":[531,531,531,531,531,531,531,531,531,531,531,531,531,531,531,531,531,531,531,531,531,531,531,531,531,531,531,531,531,531,522,506,485,469,424,402,382,361,336,278,246,226,203,183,144,134,125,118,107,94,86,78,72,70,68,64],"timestamp_mouse":[9,37,42,60,80,101,121,140,161,182,200,220,240,261,280,300,320,340,360,380,401,420,441,462,481,500,521,542,561,581,600,622,640,660,680,700,721,741,762,780,800,820,842,861,880,901,921,941,960,981,1000,1020,1040,1060,1081,1101],"xSR":741.5,"ySR":469.95,"xT1":424.9,"yT1":0,"xT2":1058.1,"yT2":0,"toosoon":0,"cond_shown":"equaldotanddens","ratio_trial":500,"smaller_num":"10","larger_num":"20","correct_side":2,"subjID":"jUANAaLEJANDRAmaRTINEZlAVERDE16","gender":"1","age":"9","school":"4"},{"start_time":1552074610916,"click_time":1552074612284,"finger_time":1552074611764,"fix_duration":930.5324771260416,"trial":65,"RT":848,"MT":520,"sideResp":1,"stimulus":"img/750/randomdotsizeEA/R/4_Ratio_750_L_15_R_20.png","xmouse":[807,807,807,807,807,807,807,807,807,807,807,807,807,807,807,807,807,807,807,807,807,807,807,807,807,807,807,807,807,807,807,807,807,807,807,807,807,807,807,807,805,799,752,725,700,682,671,655,643,626,600,571,571,571,571,571,571,571,571,571,571,571,571,571,571,571,571,571,471],"ymouse":[527,527,527,527,527,527,527,527,527,527,527,527,527,527,527,527,527,527,527,527,527,527,527,527,527,527,527,527,527,527,527,527,527,527,527,527,527,527,527,527,527,512,423,375,330,294,267,208,167,117,65,17,17,17,17,17,17,17,17,17,17,17,17,17,17,17,17,17,5],"timestamp_mouse":[10,28,47,68,89,107,127,147,167,187,208,227,247,269,289,309,327,348,368,387,407,428,447,468,489,509,528,547,568,587,607,628,647,667,689,707,727,747,768,787,807,828,848,868,887,908,927,948,967,987,1007,1028,1047,1067,1087,1107,1129,1148,1169,1187,1208,1228,1248,1269,1288,1307,1327,1347,1368],"xSR":741.5,"ySR":469.95,"xT1":424.9,"yT1":0,"xT2":1058.1,"yT2":0,"toosoon":0,"cond_shown":"randomdotsizeEA","ratio_trial":750,"smaller_num":"15","larger_num":"20","correct_side":2,"subjID":"jUANAaLEJANDRAmaRTINEZlAVERDE16","gender":"1","age":"9","school":"4"},{"start_time":1552074613515,"click_time":1552074615624,"finger_time":1552074614545,"fix_duration":250,"trial":66,"RT":1030,"MT":1079,"sideResp":1,"stimulus":"img/750/equaldotsize/R/2_Ratio_750_L_6_R_8.png","xmouse":[781,781,781,781,781,781,782,784,785,785,785,785,785,785,785,785,785,785,785,785,785,785,785,785,785,785,785,785,785,785,785,785,785,785,785,785,785,785,785,785,785,785,785,785,785,785,785,785,786,796,818,855,891,911,931,945,955,965,967,970,974,979,989,999,1006,1013,1019,1026,1030,1031,1032,1032,1032,1032,1032,1028,1023,994,983,968,952,933,865,839,812,790,773,752,742,731,717,704,685,681,676,669,659,635,623,614,610,608,584,561,533,511],"ymouse":[490,490,490,490,490,490,495,503,505,505,505,505,505,505,505,505,505,505,505,505,505,505,505,505,505,505,505,505,505,505,505,505,505,505,505,505,505,505,505,505,505,505,505,505,505,505,505,505,506,504,487,458,414,378,334,292,265,232,223,213,199,185,158,137,126,115,107,96,92,91,89,89,89,89,89,89,89,92,98,104,108,113,130,137,142,144,144,143,139,134,128,119,100,92,84,72,60,37,30,27,25,25,32,41,49,55],"timestamp_mouse":[9,38,48,69,88,110,129,148,168,189,210,229,248,269,289,309,328,350,369,389,408,430,450,468,488,509,528,548,568,590,609,628,648,669,690,708,728,748,769,790,809,828,849,868,889,909,930,949,968,990,1009,1030,1048,1068,1088,1108,1128,1149,1170,1188,1208,1229,1248,1268,1288,1309,1328,1349,1368,1389,1409,1429,1449,1470,1489,1508,1529,1549,1568,1589,1608,1629,1648,1668,1688,1708,1729,1748,1769,1790,1809,1829,1848,1869,1889,1910,1930,1949,1969,1990,2009,2029,2048,2068,2088,2109],"xSR":741.5,"ySR":469.95,"xT1":424.9,"yT1":0,"xT2":1058.1,"yT2":0,"toosoon":0,"cond_shown":"equaldotsize","ratio_trial":750,"smaller_num":"6","larger_num":"8","correct_side":2,"subjID":"jUANAaLEJANDRAmaRTINEZlAVERDE16","gender":"1","age":"9","school":"4"},{"start_time":1552074618876,"click_time":1552074619863,"finger_time":1552074619544,"fix_duration":250,"trial":67,"RT":668,"MT":319,"sideResp":1,"stimulus":"img/250/equaldotanddens/L/2_Ratio_250_L_16_R_4.png","xmouse":[791,791,791,791,791,791,791,791,791,791,791,791,791,791,791,791,791,791,791,791,791,791,791,791,791,791,791,791,791,791,790,784,761,725,644,623,601,583,568,539,528,520,514,511,508,508,508,508,510,516],"ymouse":[531,531,531,531,531,531,531,531,531,531,531,531,531,531,531,531,531,531,531,531,531,531,531,531,531,531,531,531,531,531,531,517,475,425,325,306,291,279,269,249,238,224,211,199,169,156,144,133,117,71],"timestamp_mouse":[10,38,47,67,88,108,129,147,167,187,208,228,248,267,288,309,328,347,367,389,409,427,447,467,488,507,528,548,567,587,607,628,649,668,687,707,727,748,768,787,808,828,848,867,888,908,928,949,967,987],"xSR":741.5,"ySR":469.95,"xT1":424.9,"yT1":0,"xT2":1058.1,"yT2":0,"toosoon":0,"cond_shown":"equaldotanddens","ratio_trial":250,"smaller_num":"4","larger_num":"16","correct_side":1,"subjID":"jUANAaLEJANDRAmaRTINEZlAVERDE16","gender":"1","age":"9","school":"4"},{"start_time":1552074621081,"click_time":1552074621963,"finger_time":1552074621644,"fix_duration":335.99056886734047,"trial":68,"RT":563,"MT":319,"sideResp":2,"stimulus":"img/250/randomdotsizeEA/R/9_Ratio_250_L_3_R_12.png","xmouse":[768,784,784,790,791,791,791,791,791,791,791,791,791,791,791,791,791,791,791,791,791,791,791,791,791,794,808,822,835,849,855,857,861,866,889,905,931,957,980,1000,1009,1015,1024,1035,1059],"ymouse":[544,522,522,516,515,515,515,515,515,515,515,515,515,515,515,515,515,515,515,515,515,515,515,515,515,512,495,475,456,422,406,395,385,372,332,309,278,246,220,188,171,155,137,115,71],"timestamp_mouse":[10,38,43,63,82,103,122,142,163,184,203,222,242,262,284,302,322,342,364,382,402,424,442,462,483,503,523,542,563,582,602,622,642,662,682,702,722,742,762,783,802,822,843,862,882],"xSR":741.5,"ySR":469.95,"xT1":424.9,"yT1":0,"xT2":1058.1,"yT2":0,"toosoon":0,"cond_shown":"randomdotsizeEA","ratio_trial":250,"smaller_num":"3","larger_num":"12","correct_side":2,"subjID":"jUANAaLEJANDRAmaRTINEZlAVERDE16","gender":"1","age":"9","school":"4"},{"start_time":1552074623644,"click_time":1552074625063