[{"start_time":1552073546052,"click_time":1552073549203,"finger_time":1552073546562,"fix_duration":1265.6878704291987,"trial":0,"RT":510,"MT":2641,"sideResp":2,"stimulus":[],"xmouse":[777,777,777,777,777,777,777,777,777,777,777,777,777,776,778,782,786,789,791,792,792,790,790,787,790,770,759,761,768,766,761,759,758,759,761,769,777,788,789,789,789,789,789,789,789,790,787,785,781,777,771,765,761,755,749,738,732,732,737,744,751,769,772,772,772,772,778,785,794,805,817,822,826,830,833,836,836,836,834,831,825,817,811,808,808,808,817,822,822,822,822,822,822,822,822,822,820,818,818,820,828,851,866,885,913,913,913,913,913,913,913,913,913,913,913,913,913,913,913,913,913,913,913,913,913,913,913,913,913,913,913,1577,1525,1489,1468,1468,1468,1468,1468,1468,1468,1468,1468,1468,1468,1468,1468,1468,1468,1468,1468,1468,1468,1199,1190,1177,1159,1156],"ymouse":[553,553,553,553,553,553,553,553,553,553,553,553,553,552,547,534,508,500,498,497,493,489,488,478,474,433,424,423,426,421,413,413,412,415,416,402,397,398,398,398,398,398,398,398,398,400,402,403,407,411,431,444,458,474,499,551,603,624,642,652,656,661,661,661,661,661,648,637,623,609,595,591,588,584,581,571,567,562,559,556,556,553,548,543,536,526,475,449,426,410,404,404,404,404,404,404,422,438,457,479,509,573,617,661,720,720,720,720,720,720,720,720,720,720,720,720,720,720,720,720,720,720,720,720,720,720,720,720,720,720,720,635,483,242,95,95,95,95,95,95,95,95,95,95,95,95,95,95,95,95,95,95,95,2,5,11,17,17],"timestamp_mouse":[10,45,50,70,90,111,129,149,170,191,209,230,251,270,291,310,329,349,370,390,410,430,450,470,490,510,530,549,569,591,611,630,649,670,689,712,729,750,769,789,810,829,850,869,890,911,929,949,970,990,1013,1029,1050,1070,1090,1110,1131,1150,1170,1190,1211,1230,1250,1270,1290,1311,1330,1351,1371,1391,1412,1429,1450,1471,1490,1512,1529,1550,1570,1589,1610,1630,1651,1670,1691,1710,1731,1750,1770,1791,1811,1829,1849,1869,1890,1910,1929,1951,1969,1990,2011,2030,2049,2070,2090,2111,2130,2150,2171,2190,2209,2230,2250,2269,2291,2310,2329,2350,2370,2390,2410,2430,2449,2469,2489,2511,2530,2550,2571,2590,2611,2630,2650,2670,2690,2709,2729,2749,2771,2790,2810,2830,2850,2871,2891,2911,2931,2950,2971,2990,3010,3030,3049,3069,3090,3110,3129,3150],"xSR":741.5,"ySR":501.8,"xT1":424.9,"yT1":0,"xT2":1058.1,"yT2":0,"toosoon":0,"cond_shown":"Congruent","ratio_trial":100,"L_num":12,"L_den":30,"R_num":13,"R_den":26,"correct_side":2,"subjID":"JUANAMARTINEZLAVERDE16","gender":"1","age":"9","school":"4","test":{"fix_dur":[250,1500],"timestim":1000,"targets_dim":[100,100],"targets_relative_coord":[0.3,0.7],"size_stim":[880,420],"start_dim":[100,100],"size_start":[300,300],"size_fix":60,"samplingrate":20,"img_types":["Congruent","Incongruent"],"ratios":[100,200,300],"rep_conds":19,"nTrials":120,"trials_to_rest":500,"Trials_order":[36,8,2,63,26,92,12,0,91,4,62,60,115,103,73,67,22,97,108,21,68,113,19,98,79,112,15,11,48,106,58,94,38,101,50,14,41,25,95,10,90,45,32,53,54,88,6,72,74,7,118,99,18,114,43,49,100,35,80,117,104,116,83,44,78,102,85,86,107,76,71,52,81,70,33,119,31,105,75,30,1,61,56,42,47,51,111,28,59,65,37,20,34,110,23,13,64,96,77,27,3,93,9,5,69,39,24,40,17,109,57,16,89,84,46,66,29,55,82,87],"cond_shown":["Congruent","Congruent","Congruent","Incongruent","Congruent","Congruent","Congruent","Congruent","Incongruent","Congruent","Congruent","Congruent","Incongruent","Incongruent","Incongruent","Incongruent","Congruent","Incongruent","Congruent","Incongruent","Congruent","Incongruent","Incongruent","Congruent","Incongruent","Congruent","Incongruent","Incongruent","Congruent","Congruent","Congruent","Congruent","Congruent","Incongruent","Congruent","Congruent","Incongruent","Incongruent","Incongruent","Congruent","Congruent","Incongruent","Congruent","Incongruent","Congruent","Congruent","Congruent","Congruent","Congruent","Incongruent","Congruent","Incongruent","Congruent","Congruent","Incongruent","Incongruent","Congruent","Incongruent","Congruent","Incongruent","Congruent","Congruent","Incongruent","Congruent","Congruent","Congruent","Incongruent","Congruent","Incongruent","Congruent","Incongruent","Congruent","Incongruent","Congruent","Incongruent","Incongruent","Incongruent","Incongruent","Incongruent","Congruent","Incongruent","Incongruent","Congruent","Congruent","Incongruent","Incongruent","Incongruent","Congruent","Incongruent","Incongruent","Incongruent","Congruent","Congruent","Congruent","Incongruent","Incongruent","Congruent","Congruent","Incongruent","Incongruent","Incongruent","Incongruent","Incongruent","Incongruent","Incongruent","Incongruent","Congruent","Congruent","Incongruent","Incongruent","Incongruent","Congruent","Incongruent","Congruent","Congruent","Congruent","Incongruent","Incongruent","Congruent","Incongruent"],"ratio_trial":[100,200,200,200,200,200,100,100,100,300,200,100,100,100,100,100,300,100,100,200,200,300,100,200,100,300,200,300,100,300,300,300,200,300,200,200,300,100,300,300,100,200,200,300,100,300,100,100,200,100,300,200,100,100,100,100,300,300,200,200,200,200,300,200,100,100,100,200,300,300,300,300,200,300,200,300,100,200,200,100,100,100,200,100,300,200,200,300,300,300,100,200,300,200,300,100,300,100,300,200,200,200,200,300,200,200,100,300,300,100,200,300,300,100,300,100,300,100,300,200],"left_num":[12,15,3,1,21,8,1,4,8,7,6,2,9,8,11,6,3,13,10,3,20,7,10,8,17,1,7,13,11,20,20,1,16,13,3,4,2,9,4,20,15,4,6,3,11,4,7,3,20,9,1,4,3,3,8,10,12,7,7,7,20,8,13,3,11,15,8,3,2,18,3,3,7,24,1,1,12,14,3,2,9,2,3,8,13,4,7,4,13,1,11,3,8,3,4,3,2,9,3,14,9,3,9,13,3,3,15,18,4,13,6,8,2,11,24,8,13,6,1,11],"right_num":[13,4,7,3,2,3,18,15,1,20,7,6,6,6,9,3,2,12,3,11,9,8,8,2,10,19,4,12,6,13,8,3,9,12,9,3,6,13,2,8,13,14,7,4,6,1,15,2,9,6,3,1,4,4,1,9,2,8,18,4,9,7,12,14,6,13,1,14,6,9,4,4,12,2,3,3,2,6,1,6,14,8,14,2,12,6,14,13,12,2,9,7,1,9,2,4,12,8,4,12,8,1,8,12,11,11,13,9,8,12,3,10,6,4,8,2,12,7,7,3],"left_den":[30,25,10,2,30,15,2,10,20,14,12,5,18,16,22,12,6,26,25,4,25,10,25,15,30,3,15,26,22,25,25,5,30,26,12,8,4,15,20,25,25,6,12,6,22,10,14,6,25,18,5,30,20,20,20,25,24,10,15,15,25,15,26,6,22,25,20,6,4,20,6,6,10,30,2,2,30,30,10,5,15,4,6,16,26,5,10,20,26,2,22,10,16,12,20,6,10,15,6,30,15,10,15,26,4,4,25,20,5,26,20,15,4,22,30,16,26,10,20,20],"right_den":[26,10,14,10,4,9,30,30,2,25,10,12,10,10,15,5,10,20,10,20,15,20,16,6,15,30,6,15,15,26,16,6,27,15,20,10,30,26,4,16,26,30,10,20,15,10,25,5,15,10,6,3,16,16,2,18,10,20,27,6,15,21,15,20,15,26,2,20,30,15,20,5,24,4,10,15,4,9,2,12,28,20,20,5,15,10,28,26,15,10,15,14,5,20,4,10,24,16,20,18,10,2,10,15,20,20,26,15,16,20,6,12,30,10,16,5,15,14,20,4],"correct_side":[2,1,2,1,1,1,2,2,2,2,2,2,2,2,2,2,1,2,1,1,1,1,2,1,2,2,2,2,1,1,1,2,1,2,2,1,1,1,2,1,1,1,2,1,1,1,2,1,1,2,2,2,2,2,2,2,1,1,2,2,1,1,2,2,1,1,2,2,1,1,1,2,1,1,1,1,2,2,2,2,1,1,2,1,2,1,1,2,2,1,2,2,1,2,2,1,2,1,1,2,2,2,2,2,1,1,1,1,1,2,2,2,1,1,1,1,2,1,2,2],"img_shown":["img2/100/Congruent/R/C_Dist_100_LN_12_LD_30_RN_13_RD_26_1.png","img2/200/Congruent/L/C_Dist_200_LN_15_LD_25_RN_4_RD_10_0.png","img2/200/Congruent/R/C_Dist_200_LN_3_LD_10_RN_7_RD_14_1.png","img2/200/Incongruent/L/I_Dist_200_LN_1_LD_2_RN_3_RD_10_0.png","img2/200/Congruent/L/C_Dist_200_LN_21_LD_30_RN_2_RD_4_0.png","img2/200/Congruent/L/C_Dist_200_LN_8_LD_15_RN_3_RD_9_0.png","img2/100/Congruent/R/C_Dist_100_LN_1_LD_2_RN_18_RD_30_1.png","img2/100/Congruent/R/C_Dist_100_LN_4_LD_10_RN_15_RD_30_1.png","img2/100/Incongruent/R/I_Dist_100_LN_8_LD_20_RN_1_RD_2_1.png","img2/300/Congruent/R/C_Dist_300_LN_7_LD_14_RN_20_RD_25_1.png","img2/200/Congruent/R/C_Dist_200_LN_6_LD_12_RN_7_RD_10_1.png","img2/100/Congruent/R/C_Dist_100_LN_2_LD_5_RN_6_RD_12_1.png","img2/100/Incongruent/R/I_Dist_100_LN_9_LD_18_RN_6_RD_10_1.png","img2/100/Incongruent/R/I_Dist_100_LN_8_LD_16_RN_6_RD_10_1.png","img2/100/Incongruent/R/I_Dist_100_LN_11_LD_22_RN_9_RD_15_1.png","img2/100/Incongruent/R/I_Dist_100_LN_6_LD_12_RN_3_RD_5_1.png","img2/300/Congruent/L/C_Dist_300_LN_3_LD_6_RN_2_RD_10_0.png","img2/100/Incongruent/R/I_Dist_100_LN_13_LD_26_RN_12_RD_20_1.png","img2/100/Congruent/L/C_Dist_100_LN_10_LD_25_RN_3_RD_10_0.png","img2/200/Incongruent/L/I_Dist_200_LN_3_LD_4_RN_11_RD_20_0.png","img2/200/Congruent/L/C_Dist_200_LN_20_LD_25_RN_9_RD_15_0.png","img2/300/Incongruent/L/I_Dist_300_LN_7_LD_10_RN_8_RD_20_0.png","img2/100/Incongruent/R/I_Dist_100_LN_10_LD_25_RN_8_RD_16_1.png","img2/200/Congruent/L/C_Dist_200_LN_8_LD_15_RN_2_RD_6_0.png","img2/100/Incongruent/R/I_Dist_100_LN_17_LD_30_RN_10_RD_15_1.png","img2/300/Congruent/R/C_Dist_300_LN_1_LD_3_RN_19_RD_30_1.png","img2/200/Incongruent/R/I_Dist_200_LN_7_LD_15_RN_4_RD_6_1.png","img2/300/Incongruent/R/I_Dist_300_LN_13_LD_26_RN_12_RD_15_1.png","img2/100/Congruent/L/C_Dist_100_LN_11_LD_22_RN_6_RD_15_0.png","img2/300/Congruent/L/C_Dist_300_LN_20_LD_25_RN_13_RD_26_0.png","img2/300/Congruent/L/C_Dist_300_LN_20_LD_25_RN_8_RD_16_0.png","img2/300/Congruent/R/C_Dist_300_LN_1_LD_5_RN_3_RD_6_1.png","img2/200/Congruent/L/C_Dist_200_LN_16_LD_30_RN_9_RD_27_0.png","img2/300/Incongruent/R/I_Dist_300_LN_13_LD_26_RN_12_RD_15_1.png","img2/200/Congruent/R/C_Dist_200_LN_3_LD_12_RN_9_RD_20_1.png","img2/200/Congruent/L/C_Dist_200_LN_4_LD_8_RN_3_RD_10_0.png","img2/300/Incongruent/L/I_Dist_300_LN_2_LD_4_RN_6_RD_30_0.png","img2/100/Incongruent/L/I_Dist_100_LN_9_LD_15_RN_13_RD_26_0.png","img2/300/Incongruent/R/I_Dist_300_LN_4_LD_20_RN_2_RD_4_1.png","img2/300/Congruent/L/C_Dist_300_LN_20_LD_25_RN_8_RD_16_0.png","img2/100/Congruent/L/C_Dist_100_LN_15_LD_25_RN_13_RD_26_0.png","img2/200/Incongruent/L/I_Dist_200_LN_4_LD_6_RN_14_RD_30_0.png","img2/200/Congruent/R/C_Dist_200_LN_6_LD_12_RN_7_RD_10_1.png","img2/300/Incongruent/L/I_Dist_300_LN_3_LD_6_RN_4_RD_20_0.png","img2/100/Congruent/L/C_Dist_100_LN_11_LD_22_RN_6_RD_15_0.png","img2/300/Congruent/L/C_Dist_300_LN_4_LD_10_RN_1_RD_10_0.png","img2/100/Congruent/R/C_Dist_100_LN_7_LD_14_RN_15_RD_25_1.png","img2/100/Congruent/L/C_Dist_100_LN_3_LD_6_RN_2_RD_5_0.png","img2/200/Congruent/L/C_Dist_200_LN_20_LD_25_RN_9_RD_15_0.png","img2/100/Incongruent/R/I_Dist_100_LN_9_LD_18_RN_6_RD_10_1.png","img2/300/Congruent/R/C_Dist_300_LN_1_LD_5_RN_3_RD_6_1.png","img2/200/Incongruent/R/I_Dist_200_LN_4_LD_30_RN_1_RD_3_1.png","img2/100/Congruent/R/C_Dist_100_LN_3_LD_20_RN_4_RD_16_1.png","img2/100/Congruent/R/C_Dist_100_LN_3_LD_20_RN_4_RD_16_1.png","img2/100/Incongruent/R/I_Dist_100_LN_8_LD_20_RN_1_RD_2_1.png","img2/100/Incongruent/R/I_Dist_100_LN_10_LD_25_RN_9_RD_18_1.png","img2/300/Congruent/L/C_Dist_300_LN_12_LD_24_RN_2_RD_10_0.png","img2/300/Incongruent/L/I_Dist_300_LN_7_LD_10_RN_8_RD_20_0.png","img2/200/Congruent/R/C_Dist_200_LN_7_LD_15_RN_18_RD_27_1.png","img2/200/Incongruent/R/I_Dist_200_LN_7_LD_15_RN_4_RD_6_1.png","img2/200/Congruent/L/C_Dist_200_LN_20_LD_25_RN_9_RD_15_0.png","img2/200/Congruent/L/C_Dist_200_LN_8_LD_15_RN_7_RD_21_0.png","img2/300/Incongruent/R/I_Dist_300_LN_13_LD_26_RN_12_RD_15_1.png","img2/200/Congruent/R/C_Dist_200_LN_3_LD_6_RN_14_RD_20_1.png","img2/100/Congruent/L/C_Dist_100_LN_11_LD_22_RN_6_RD_15_0.png","img2/100/Congruent/L/C_Dist_100_LN_15_LD_25_RN_13_RD_26_0.png","img2/100/Incongruent/R/I_Dist_100_LN_8_LD_20_RN_1_RD_2_1.png","img2/200/Congruent/R/C_Dist_200_LN_3_LD_6_RN_14_RD_20_1.png","img2/300/Incongruent/L/I_Dist_300_LN_2_LD_4_RN_6_RD_30_0.png","img2/300/Congruent/L/C_Dist_300_LN_18_LD_20_RN_9_RD_15_0.png","img2/300/Incongruent/L/I_Dist_300_LN_3_LD_6_RN_4_RD_20_0.png","img2/300/Congruent/R/C_Dist_300_LN_3_LD_6_RN_4_RD_5_1.png","img2/200/Incongruent/L/I_Dist_200_LN_7_LD_10_RN_12_RD_24_0.png","img2/300/Congruent/L/C_Dist_300_LN_24_LD_30_RN_2_RD_4_0.png","img2/200/Incongruent/L/I_Dist_200_LN_1_LD_2_RN_3_RD_10_0.png","img2/300/Incongruent/L/I_Dist_300_LN_1_LD_2_RN_3_RD_15_0.png","img2/100/Incongruent/R/I_Dist_100_LN_12_LD_30_RN_2_RD_4_1.png","img2/200/Incongruent/R/I_Dist_200_LN_14_LD_30_RN_6_RD_9_1.png","img2/200/Incongruent/R/I_Dist_200_LN_3_LD_10_RN_1_RD_2_1.png","img2/100/Congruent/R/C_Dist_100_LN_2_LD_5_RN_6_RD_12_1.png","img2/100/Incongruent/L/I_Dist_100_LN_9_LD_15_RN_14_RD_28_0.png","img2/100/Incongruent/L/I_Dist_100_LN_2_LD_4_RN_8_RD_20_0.png","img2/200/Congruent/R/C_Dist_200_LN_3_LD_6_RN_14_RD_20_1.png","img2/100/Congruent/L/C_Dist_100_LN_8_LD_16_RN_2_RD_5_0.png","img2/300/Incongruent/R/I_Dist_300_LN_13_LD_26_RN_12_RD_15_1.png","img2/200/Incongruent/L/I_Dist_200_LN_4_LD_5_RN_6_RD_10_0.png","img2/200/Incongruent/L/I_Dist_200_LN_7_LD_10_RN_14_RD_28_0.png","img2/300/Congruent/R/C_Dist_300_LN_4_LD_20_RN_13_RD_26_1.png","img2/300/Incongruent/R/I_Dist_300_LN_13_LD_26_RN_12_RD_15_1.png","img2/300/Incongruent/L/I_Dist_300_LN_1_LD_2_RN_2_RD_10_0.png","img2/100/Incongruent/R/I_Dist_100_LN_11_LD_22_RN_9_RD_15_1.png","img2/200/Congruent/R/C_Dist_200_LN_3_LD_10_RN_7_RD_14_1.png","img2/300/Congruent/L/C_Dist_300_LN_8_LD_16_RN_1_RD_5_0.png","img2/200/Congruent/R/C_Dist_200_LN_3_LD_12_RN_9_RD_20_1.png","img2/300/Incongruent/R/I_Dist_300_LN_4_LD_20_RN_2_RD_4_1.png","img2/100/Incongruent/L/I_Dist_100_LN_3_LD_6_RN_4_RD_10_0.png","img2/300/Congruent/R/C_Dist_300_LN_2_LD_10_RN_12_RD_24_1.png","img2/100/Congruent/L/C_Dist_100_LN_9_LD_15_RN_8_RD_16_0.png","img2/300/Incongruent/L/I_Dist_300_LN_3_LD_6_RN_4_RD_20_0.png","img2/200/Incongruent/R/I_Dist_200_LN_14_LD_30_RN_12_RD_18_1.png","img2/200/Incongruent/R/I_Dist_200_LN_9_LD_15_RN_8_RD_10_1.png","img2/200/Incongruent/R/I_Dist_200_LN_3_LD_10_RN_1_RD_2_1.png","img2/200/Incongruent/R/I_Dist_200_LN_9_LD_15_RN_8_RD_10_1.png","img2/300/Incongruent/R/I_Dist_300_LN_13_LD_26_RN_12_RD_15_1.png","img2/200/Incongruent/L/I_Dist_200_LN_3_LD_4_RN_11_RD_20_0.png","img2/200/Incongruent/L/I_Dist_200_LN_3_LD_4_RN_11_RD_20_0.png","img2/100/Congruent/L/C_Dist_100_LN_15_LD_25_RN_13_RD_26_0.png","img2/300/Congruent/L/C_Dist_300_LN_18_LD_20_RN_9_RD_15_0.png","img2/300/Incongruent/L/I_Dist_300_LN_4_LD_5_RN_8_RD_16_0.png","img2/100/Incongruent/R/I_Dist_100_LN_13_LD_26_RN_12_RD_20_1.png","img2/200/Incongruent/R/I_Dist_200_LN_6_LD_20_RN_3_RD_6_1.png","img2/300/Congruent/R/C_Dist_300_LN_8_LD_15_RN_10_RD_12_1.png","img2/300/Incongruent/L/I_Dist_300_LN_2_LD_4_RN_6_RD_30_0.png","img2/100/Congruent/L/C_Dist_100_LN_11_LD_22_RN_4_RD_10_0.png","img2/300/Congruent/L/C_Dist_300_LN_24_LD_30_RN_8_RD_16_0.png","img2/100/Congruent/L/C_Dist_100_LN_8_LD_16_RN_2_RD_5_0.png","img2/300/Incongruent/R/I_Dist_300_LN_13_LD_26_RN_12_RD_15_1.png","img2/100/Incongruent/L/I_Dist_100_LN_6_LD_10_RN_7_RD_14_0.png","img2/300/Congruent/R/C_Dist_300_LN_1_LD_20_RN_7_RD_20_1.png","img2/200/Incongruent/R/I_Dist_200_LN_11_LD_20_RN_3_RD_4_1.png"],"dist100_C":[["C_Dist_100_LN_10_LD_25_RN_3_RD_10_0.png","C_Dist_100_LN_11_LD_22_RN_4_RD_10_0.png","C_Dist_100_LN_11_LD_22_RN_6_RD_15_0.png","C_Dist_100_LN_15_LD_25_RN_13_RD_26_0.png","C_Dist_100_LN_3_LD_6_RN_2_RD_5_0.png","C_Dist_100_LN_6_LD_20_RN_5_RD_25_0.png","C_Dist_100_LN_8_LD_16_RN_2_RD_5_0.png","C_Dist_100_LN_9_LD_15_RN_8_RD_16_0.png"],["C_Dist_100_LN_1_LD_2_RN_18_RD_30_1.png","C_Dist_100_LN_1_LD_2_RN_3_RD_5_1.png","C_Dist_100_LN_12_LD_30_RN_13_RD_26_1.png","C_Dist_100_LN_2_LD_5_RN_11_RD_22_1.png","C_Dist_100_LN_2_LD_5_RN_6_RD_12_1.png","C_Dist_100_LN_3_LD_20_RN_4_RD_16_1.png","C_Dist_100_LN_4_LD_10_RN_15_RD_30_1.png","C_Dist_100_LN_4_LD_8_RN_6_RD_10_1.png","C_Dist_100_LN_6_LD_12_RN_15_RD_25_1.png","C_Dist_100_LN_7_LD_14_RN_15_RD_25_1.png","C_Dist_100_LN_7_LD_14_RN_9_RD_15_1.png"]],"dist100_I":[["I_Dist_100_LN_1_LD_2_RN_8_RD_20_0.png","I_Dist_100_LN_2_LD_4_RN_6_RD_15_0.png","I_Dist_100_LN_2_LD_4_RN_8_RD_20_0.png","I_Dist_100_LN_3_LD_5_RN_11_RD_22_0.png","I_Dist_100_LN_3_LD_5_RN_8_RD_16_0.png","I_Dist_100_LN_3_LD_6_RN_4_RD_10_0.png","I_Dist_100_LN_3_LD_9_RN_7_RD_30_0.png","I_Dist_100_LN_4_LD_8_RN_8_RD_20_0.png","I_Dist_100_LN_6_LD_10_RN_11_RD_22_0.png","I_Dist_100_LN_6_LD_10_RN_13_RD_26_0.png","I_Dist_100_LN_6_LD_10_RN_7_RD_14_0.png","I_Dist_100_LN_9_LD_10_RN_20_RD_25_0.png","I_Dist_100_LN_9_LD_15_RN_13_RD_26_0.png","I_Dist_100_LN_9_LD_15_RN_14_RD_28_0.png"],["I_Dist_100_LN_10_LD_25_RN_8_RD_16_1.png","I_Dist_100_LN_10_LD_25_RN_9_RD_18_1.png","I_Dist_100_LN_11_LD_22_RN_9_RD_15_1.png","I_Dist_100_LN_12_LD_24_RN_9_RD_15_1.png","I_Dist_100_LN_12_LD_30_RN_2_RD_4_1.png","I_Dist_100_LN_13_LD_26_RN_12_RD_20_1.png","I_Dist_100_LN_13_LD_26_RN_6_RD_10_1.png","I_Dist_100_LN_17_LD_30_RN_10_RD_15_1.png","I_Dist_100_LN_6_LD_12_RN_3_RD_5_1.png","I_Dist_100_LN_8_LD_16_RN_6_RD_10_1.png","I_Dist_100_LN_8_LD_20_RN_1_RD_2_1.png","I_Dist_100_LN_9_LD_18_RN_6_RD_10_1.png"]],"dist100_S":[["E_Dist_100_LN_2_LD_12_RN_2_RD_30_0.png","E_Dist_100_LN_6_LD_10_RN_6_RD_12_0.png"],["E_Dist_100_LN_6_LD_12_RN_6_RD_10_1.png"]],"dist200_C":[["C_Dist_200_LN_11_LD_22_RN_3_RD_10_0.png","C_Dist_200_LN_12_LD_15_RN_6_RD_10_0.png","C_Dist_200_LN_12_LD_20_RN_6_RD_15_0.png","C_Dist_200_LN_14_LD_28_RN_6_RD_20_0.png","C_Dist_200_LN_15_LD_25_RN_4_RD_10_0.png","C_Dist_200_LN_16_LD_20_RN_12_RD_20_0.png","C_Dist_200_LN_16_LD_30_RN_9_RD_27_0.png","C_Dist_200_LN_20_LD_25_RN_9_RD_15_0.png","C_Dist_200_LN_21_LD_30_RN_2_RD_4_0.png","C_Dist_200_LN_4_LD_10_RN_3_RD_15_0.png","C_Dist_200_LN_4_LD_8_RN_3_RD_10_0.png","C_Dist_200_LN_6_LD_15_RN_3_RD_15_0.png","C_Dist_200_LN_7_LD_21_RN_2_RD_15_0.png","C_Dist_200_LN_8_LD_15_RN_2_RD_6_0.png","C_Dist_200_LN_8_LD_15_RN_3_RD_9_0.png","C_Dist_200_LN_8_LD_15_RN_7_RD_21_0.png","C_Dist_200_LN_9_LD_20_RN_4_RD_16_0.png"],["C_Dist_200_LN_1_LD_2_RN_21_RD_30_1.png","C_Dist_200_LN_13_LD_26_RN_14_RD_20_1.png","C_Dist_200_LN_3_LD_10_RN_11_RD_22_1.png","C_Dist_200_LN_3_LD_10_RN_14_RD_28_1.png","C_Dist_200_LN_3_LD_10_RN_7_RD_14_1.png","C_Dist_200_LN_3_LD_12_RN_9_RD_20_1.png","C_Dist_200_LN_3_LD_6_RN_14_RD_20_1.png","C_Dist_200_LN_5_LD_10_RN_14_RD_20_1.png","C_Dist_200_LN_6_LD_12_RN_7_RD_10_1.png","C_Dist_200_LN_6_LD_20_RN_11_RD_22_1.png","C_Dist_200_LN_7_LD_15_RN_18_RD_27_1.png","C_Dist_200_LN_9_LD_30_RN_13_RD_26_1.png"]],"dist200_I":[["I_Dist_200_LN_1_LD_2_RN_3_RD_10_0.png","I_Dist_200_LN_1_LD_3_RN_2_RD_15_0.png","I_Dist_200_LN_3_LD_4_RN_11_RD_20_0.png","I_Dist_200_LN_4_LD_5_RN_6_RD_10_0.png","I_Dist_200_LN_4_LD_6_RN_14_RD_30_0.png","I_Dist_200_LN_7_LD_10_RN_12_RD_24_0.png","I_Dist_200_LN_7_LD_10_RN_14_RD_28_0.png","I_Dist_200_LN_7_LD_10_RN_8_RD_16_0.png"],["I_Dist_200_LN_11_LD_20_RN_3_RD_4_1.png","I_Dist_200_LN_14_LD_30_RN_12_RD_18_1.png","I_Dist_200_LN_14_LD_30_RN_6_RD_9_1.png","I_Dist_200_LN_3_LD_10_RN_1_RD_2_1.png","I_Dist_200_LN_4_LD_30_RN_1_RD_3_1.png","I_Dist_200_LN_6_LD_20_RN_3_RD_6_1.png","I_Dist_200_LN_7_LD_15_RN_4_RD_6_1.png","I_Dist_200_LN_7_LD_15_RN_6_RD_9_1.png","I_Dist_200_LN_9_LD_15_RN_8_RD_10_1.png"]],"dist200_S":[["E_Dist_200_LN_3_LD_6_RN_3_RD_10_0.png"],["E_Dist_200_LN_3_LD_10_RN_3_RD_6_1.png"]],"dist300_C":[["C_Dist_300_LN_11_LD_22_RN_1_RD_5_0.png","C_Dist_300_LN_11_LD_22_RN_2_RD_10_0.png","C_Dist_300_LN_11_LD_22_RN_4_RD_20_0.png","C_Dist_300_LN_12_LD_24_RN_2_RD_10_0.png","C_Dist_300_LN_18_LD_20_RN_9_RD_15_0.png","C_Dist_300_LN_20_LD_25_RN_13_RD_26_0.png","C_Dist_300_LN_20_LD_25_RN_14_RD_28_0.png","C_Dist_300_LN_20_LD_25_RN_5_RD_10_0.png","C_Dist_300_LN_20_LD_25_RN_8_RD_16_0.png","C_Dist_300_LN_20_LD_25_RN_9_RD_18_0.png","C_Dist_300_LN_24_LD_30_RN_2_RD_4_0.png","C_Dist_300_LN_24_LD_30_RN_8_RD_16_0.png","C_Dist_300_LN_3_LD_6_RN_2_RD_10_0.png","C_Dist_300_LN_4_LD_10_RN_1_RD_10_0.png","C_Dist_300_LN_4_LD_5_RN_2_RD_4_0.png","C_Dist_300_LN_8_LD_16_RN_1_RD_5_0.png","C_Dist_300_LN_9_LD_10_RN_3_RD_5_0.png"],["C_Dist_300_LN_1_LD_20_RN_7_RD_20_1.png","C_Dist_300_LN_1_LD_3_RN_19_RD_30_1.png","C_Dist_300_LN_1_LD_30_RN_8_RD_24_1.png","C_Dist_300_LN_1_LD_5_RN_11_RD_22_1.png","C_Dist_300_LN_1_LD_5_RN_3_RD_6_1.png","C_Dist_300_LN_1_LD_5_RN_6_RD_12_1.png","C_Dist_300_LN_2_LD_10_RN_12_RD_24_1.png","C_Dist_300_LN_2_LD_20_RN_10_RD_25_1.png","C_Dist_300_LN_3_LD_12_RN_11_RD_20_1.png","C_Dist_300_LN_3_LD_6_RN_4_RD_5_1.png","C_Dist_300_LN_4_LD_20_RN_13_RD_26_1.png","C_Dist_300_LN_5_LD_25_RN_6_RD_12_1.png","C_Dist_300_LN_5_LD_25_RN_7_RD_14_1.png","C_Dist_300_LN_7_LD_14_RN_20_RD_25_1.png","C_Dist_300_LN_8_LD_15_RN_10_RD_12_1.png"]],"dist300_I":[["I_Dist_300_LN_1_LD_2_RN_2_RD_10_0.png","I_Dist_300_LN_1_LD_2_RN_3_RD_15_0.png","I_Dist_300_LN_2_LD_4_RN_6_RD_30_0.png","I_Dist_300_LN_3_LD_6_RN_4_RD_20_0.png","I_Dist_300_LN_4_LD_5_RN_6_RD_12_0.png","I_Dist_300_LN_4_LD_5_RN_8_RD_16_0.png","I_Dist_300_LN_7_LD_10_RN_8_RD_20_0.png","I_Dist_300_LN_8_LD_10_RN_14_RD_28_0.png","I_Dist_300_LN_8_LD_10_RN_9_RD_18_0.png"],["I_Dist_300_LN_13_LD_26_RN_12_RD_15_1.png","I_Dist_300_LN_4_LD_20_RN_2_RD_4_1.png"]],"dist300_S":[["E_Dist_300_LN_9_LD_12_RN_9_RD_20_0.png"],["E_Dist_300_LN_18_LD_30_RN_18_RD_20_1.png","E_Dist_300_LN_3_LD_10_RN_3_RD_5_1.png","E_Dist_300_LN_9_LD_20_RN_9_RD_12_1.png"]],"dist500_C":[["C_Dist_500_LN_10_LD_13_RN_7_RD_26_0.png","C_Dist_500_LN_10_LD_15_RN_4_RD_24_0.png","C_Dist_500_LN_12_LD_16_RN_3_RD_12_0.png","C_Dist_500_LN_12_LD_18_RN_4_RD_24_0.png","C_Dist_500_LN_15_LD_18_RN_5_RD_15_0.png","C_Dist_500_LN_15_LD_20_RN_1_RD_4_0.png","C_Dist_500_LN_18_LD_27_RN_1_RD_6_0.png","C_Dist_500_LN_20_LD_24_RN_1_RD_3_0.png","C_Dist_500_LN_20_LD_24_RN_3_RD_9_0.png","C_Dist_500_LN_20_LD_24_RN_7_RD_21_0.png","C_Dist_500_LN_20_LD_28_RN_3_RD_14_0.png","C_Dist_500_LN_21_LD_28_RN_6_RD_24_0.png","C_Dist_500_LN_22_LD_28_RN_2_RD_7_0.png","C_Dist_500_LN_25_LD_30_RN_9_RD_27_0.png","C_Dist_500_LN_4_LD_6_RN_1_RD_6_0.png","C_Dist_500_LN_5_LD_6_RN_2_RD_6_0.png","C_Dist_500_LN_6_LD_9_RN_1_RD_6_0.png","C_Dist_500_LN_7_LD_10_RN_1_RD_5_0.png","C_Dist_500_LN_8_LD_12_RN_1_RD_6_0.png","C_Dist_500_LN_8_LD_12_RN_4_RD_24_0.png"],["C_Dist_500_LN_1_LD_4_RN_12_RD_16_1.png","C_Dist_500_LN_1_LD_4_RN_9_RD_12_1.png","C_Dist_500_LN_1_LD_9_RN_11_RD_18_1.png","C_Dist_500_LN_10_LD_24_RN_22_RD_24_1.png","C_Dist_500_LN_2_LD_12_RN_10_RD_15_1.png","C_Dist_500_LN_2_LD_12_RN_12_RD_18_1.png","C_Dist_500_LN_2_LD_12_RN_4_RD_6_1.png","C_Dist_500_LN_2_LD_24_RN_7_RD_12_1.png","C_Dist_500_LN_2_LD_5_RN_18_RD_20_1.png","C_Dist_500_LN_2_LD_5_RN_9_RD_10_1.png","C_Dist_500_LN_2_LD_8_RN_12_RD_16_1.png","C_Dist_500_LN_2_LD_8_RN_21_RD_28_1.png","C_Dist_500_LN_3_LD_10_RN_4_RD_5_1.png","C_Dist_500_LN_3_LD_12_RN_15_RD_20_1.png","C_Dist_500_LN_3_LD_30_RN_6_RD_10_1.png","C_Dist_500_LN_3_LD_8_RN_14_RD_16_1.png","C_Dist_500_LN_4_LD_16_RN_15_RD_20_1.png","C_Dist_500_LN_4_LD_24_RN_12_RD_18_1.png","C_Dist_500_LN_5_LD_14_RN_6_RD_7_1.png","C_Dist_500_LN_7_LD_21_RN_20_RD_24_1.png","C_Dist_500_LN_7_LD_28_RN_12_RD_16_1.png","C_Dist_500_LN_7_LD_28_RN_9_RD_12_1.png","C_Dist_500_LN_9_LD_27_RN_20_RD_24_1.png"]],"dist500_I":[["I_Dist_500_LN_2_LD_3_RN_4_RD_24_0.png","I_Dist_500_LN_5_LD_6_RN_6_RD_18_0.png","I_Dist_500_LN_7_LD_8_RN_9_RD_24_0.png"],["I_Dist_500_LN_7_LD_21_RN_5_RD_6_1.png"]],"dist500_S":[["E_Dist_500_LN_6_LD_8_RN_6_RD_24_0.png"],["E_Dist_500_LN_2_LD_12_RN_2_RD_3_1.png","E_Dist_500_LN_6_LD_24_RN_6_RD_8_1.png"]]}},{"start_time":1552073550854,"click_time":1552073554042,"finger_time":1552073551122,"fix_duration":250,"trial":1,"RT":268,"MT":2920,"sideResp":2,"stimulus":[],"xmouse":[783,783,783,783,783,783,783,783,783,783,783,791,802,818,835,848,872,884,901,918,923,925,925,925,925,925,925,925,925,925,925,925,925,925,925,925,925,925,925,923,910,884,871,863,858,847,840,839,839,838,838,838,838,838,838,838,838,838,838,838,838,838,838,837,833,832,829,829,831,833,838,851,856,860,865,870,910,943,957,983,1004,1017,1017,1017,1017,1017,1017,1017,1017,1017,1017,1017,1017,1017,1017,1017,1017,1017,1017,1015,1009,955,919,882,864,853,851,848,844,840,837,828,825,823,823,822,819,818,817,817,817,817,817,817,817,817,817,819,820,820,820,820,820,820,820,820,820,820,820,820,820,820,820,820,820,820,820,820,820,820,818,818,818,819,827,931,1008,1077,1114,1135],"ymouse":[526,526,526,526,526,526,526,526,526,526,521,502,481,451,427,408,378,369,360,350,346,344,344,344,344,344,344,344,344,344,344,344,344,344,344,344,344,344,344,344,348,387,411,434,457,488,510,515,518,519,519,519,519,519,519,519,519,519,519,519,519,519,525,528,535,542,556,556,559,561,561,561,561,561,561,561,570,580,586,592,595,596,596,596,596,596,596,596,596,596,596,596,596,596,596,596,596,596,596,598,601,621,632,638,638,639,640,640,641,643,645,649,650,650,650,650,650,650,650,650,650,650,650,650,650,650,644,640,638,637,637,636,636,636,636,636,636,636,636,636,636,636,636,636,636,636,636,636,636,635,635,635,635,622,587,339,233,150,104,70],"timestamp_mouse":[11,41,47,68,88,107,127,148,169,187,208,228,249,268,288,308,327,348,367,388,408,427,448,467,489,509,529,548,567,587,609,628,647,668,688,708,728,748,767,787,807,827,848,868,888,908,929,948,969,988,1008,1027,1049,1068,1089,1108,1129,1147,1169,1187,1208,1229,1249,1268,1288,1307,1329,1349,1369,1387,1407,1428,1448,1468,1488,1509,1528,1547,1567,1587,1608,1627,1648,1668,1688,1708,1727,1747,1767,1787,1809,1827,1848,1869,1888,1909,1927,1948,1968,1988,2008,2028,2047,2068,2087,2108,2128,2149,2168,2188,2208,2227,2247,2268,2287,2308,2328,2348,2368,2388,2408,2427,2448,2468,2487,2508,2527,2548,2568,2588,2607,2628,2648,2668,2688,2709,2727,2748,2768,2788,2807,2827,2848,2868,2888,2908,2928,2948,2969,2988,3008,3027,3048,3067,3088,3109,3127,3149,3168,3188],"xSR":741.5,"ySR":469.95,"xT1":424.9,"yT1":0,"xT2":1058.1,"yT2":0,"toosoon":0,"cond_shown":"Congruent","ratio_trial":200,"L_num":15,"L_den":25,"R_num":4,"R_den":10,"correct_side":1,"subjID":"JUANAMARTINEZLAVERDE16","gender":"1","school":"4","age":"9"},{"start_time":1552073558931,"click_time":1552073561164,"finger_time":1552073559261,"fix_duration":1246.6575085332827,"trial":2,"RT":330,"MT":1903,"sideResp":2,"stimulus":[],"xmouse":[791,791,791,791,791,791,791,791,791,791,791,791,791,791,788,782,769,725,705,688,672,641,632,630,630,630,630,630,630,630,630,630,630,630,630,631,632,632,632,632,632,632,632,644,664,686,707,744,756,765,773,782,784,784,785,785,785,785,785,785,785,785,785,785,785,785,785,785,785,785,791,793,799,799,799,799,799,799,799,799,800,800,793,793,793,793,793,793,793,793,793,793,793,793,793,793,799,900,998,1101,1188,1225,1231,1229,1225,1219,1193,1172,1163,1160,1160,1154],"ymouse":[534,534,534,534,534,534,534,534,534,534,534,534,534,534,524,502,466,352,301,251,204,107,94,92,92,92,92,92,92,92,92,92,92,103,120,126,128,129,129,129,129,129,129,145,168,189,207,237,247,256,264,275,277,278,279,279,279,279,279,279,279,279,279,279,279,279,279,279,279,279,279,281,289,289,289,289,289,289,289,289,290,296,310,310,310,310,310,310,310,310,310,310,310,310,310,310,310,304,288,271,244,233,220,215,206,188,114,70,52,43,37,21],"timestamp_mouse":[15,39,50,72,90,110,132,150,171,191,210,232,252,271,292,311,330,351,370,391,412,433,450,472,490,510,531,552,570,590,610,632,651,671,690,711,730,750,770,791,811,831,850,870,891,911,930,951,970,990,1010,1032,1050,1072,1092,1111,1131,1151,1171,1190,1211,1232,1250,1271,1291,1311,1330,1351,1371,1391,1412,1431,1451,1471,1491,1511,1531,1551,1571,1591,1612,1631,1652,1672,1691,1710,1731,1751,1772,1792,1811,1831,1850,1871,1891,1911,1931,1951,1971,1992,2011,2031,2050,2071,2092,2111,2132,2151,2171,2191,2211,2233],"xSR":741.5,"ySR":469.95,"xT1":424.9,"yT1":0,"xT2":1058.1,"yT2":0,"toosoon":0,"cond_shown":"Congruent","ratio_trial":200,"L_num":3,"L_den":10,"R_num":7,"R_den":14,"correct_side":2,"subjID":"JUANAMARTINEZLAVERDE16","gender":"1","school":"4","age":"9"},{"start_time":1552073562589,"click_time":1552073564022,"finger_time":1552073562882,"fix_duration":465.8906337252006,"trial":3,"RT":293,"MT":1140,"sideResp":2,"stimulus":[],"xmouse":[798,798,798,798,798,798,798,798,798,798,799,805,814,830,843,860,884,920,963,986,986,986,986,986,986,986,986,986,986,986,986,986,985,976,950,945,945,945,945,945,945,944,944,944,944,944,944,944,945,946,949,954,957,961,970,973,976,977,978,979,980,982,986,994,1027,1050,1078,1098,1128,1132,1132,1132],"ymouse":[521,521,521,521,521,521,521,521,521,521,520,511,499,476,461,446,426,398,363,324,324,324,324,324,324,324,324,324,324,324,324,323,323,327,338,340,340,340,340,340,340,345,363,363,373,373,375,379,387,395,404,417,421,425,426,426,426,426,426,426,426,426,425,418,391,370,339,304,180,139,109,85],"timestamp_mouse":[13,39,54,74,93,113,134,154,172,192,212,233,253,274,293,313,332,354,374,393,413,433,453,473,492,512,533,554,572,592,613,633,653,673,693,713,732,753,772,793,812,833,859,873,893,913,933,953,973,992,1013,1034,1054,1073,1093,1112,1133,1152,1174,1193,1214,1233,1254,1273,1292,1313,1333,1352,1375,1393,1413,1433],"xSR":741.5,"ySR":469.95,"xT1":424.9,"yT1":0,"xT2":1058.1,"yT2":0,"toosoon":0,"cond_shown":"Incongruent","ratio_trial":200,"L_num":1,"L_den":2,"R_num":3,"R_den":10,"correct_side":1,"subjID":"JUANAMARTINEZLAVERDE16","gender":"1","school":"4","age":"9"},{"start_time":1552073566394,"click_time":1552073566821,"finger_time":1552073566742,"fix_duration":1029.6984685014088,"trial":4,"RT":348,"MT":79,"sideResp":1,"stimulus":[],"xmouse":[805,805,805,805,805,805,805,805,805,805,805,805,805,805,805,802,789,762,723,563,512,487],"ymouse":[518,518,518,518,518,518,518,518,518,518,518,518,518,518,518,506,482,443,381,180,116,85],"timestamp_mouse":[13,37,47,69,89,108,129,148,167,188,209,228,248,268,288,308,328,348,368,387,407,427],"xSR":741.5,"ySR":469.95,"xT1":424.9,"yT1":0,"xT2":1058.1,"yT2":0,"toosoon":0,"cond_shown":"Congruent","ratio_trial":200,"L_num":21,"L_den":30,"R_num":2,"R_den":4,"correct_side":1,"subjID":"JUANAMARTINEZLAVERDE16","gender":"1","school":"4","age":"9"},{"start_time":1552073569559,"click_time":1552073573602,"finger_time":1552073569743,"fix_duration":556.5456292366977,"trial":5,"RT":184,"MT":3859,"sideResp":2,"stimulus":[],"xmouse":[808,808,808,807,805,804,801,800,799,798,797,779,768,755,737,703,697,696,696,696,692,691,691,689,687,684,684,684,684,684,684,684,684,684,684,684,684,684,695,719,775,807,822,834,844,853,865,868,870,871,871,871,871,871,871,871,871,871,871,876,914,918,918,919,920,921,921,925,925,926,928,928,928,928,928,928,928,928,928,928,928,928,928,928,928,928,927,923,920,917,917,917,918,921,922,925,944,953,956,960,961,961,961,961,961,961,961,961,964,966,968,968,968,968,963,956,946,941,938,934,921,886,873,862,856,855,854,854,862,871,876,877,875,871,865,861,852,848,847,845,844,838,835,834,833,833,833,833,832,831,830,822,819,817,816,813,806,799,794,792,791,791,791,791,791,791,791,791,790,790,790,789,789,789,788,788,787,786,785,784,784,783,783,783,789,809,942,1046,1157,1231,1246,1230,1204,1176,1151,1127,1127,1127,1127,1127,1127,1127,1135],"ymouse":[505,505,505,504,502,498,489,484,477,467,459,413,400,379,347,301,298,297,297,297,310,312,315,320,326,332,332,332,332,332,332,332,332,332,332,332,332,333,360,396,469,518,538,554,564,571,583,589,593,595,597,610,616,619,619,619,619,620,620,620,620,620,620,620,621,621,622,622,623,623,625,625,625,625,625,625,625,625,625,625,625,625,625,625,625,620,618,613,612,612,612,613,613,607,606,605,602,601,601,602,603,603,603,603,603,603,603,603,605,605,607,607,609,618,629,641,651,652,654,655,655,636,616,597,584,580,578,576,561,543,525,505,498,489,479,472,462,458,458,457,457,463,468,471,472,473,477,479,481,483,485,493,496,498,498,501,508,518,527,532,533,533,533,533,533,533,533,533,533,533,533,533,533,533,532,532,531,530,529,528,526,523,520,515,502,475,347,266,189,138,123,118,114,111,108,105,105,105,105,105,105,102,97],"timestamp_mouse":[10,35,43,64,84,103,123,143,162,184,203,223,242,262,283,304,323,343,362,382,404,422,442,462,483,505,522,542,563,583,604,623,644,662,682,703,723,744,763,783,804,822,843,862,884,903,922,943,963,984,1003,1023,1043,1062,1082,1102,1123,1143,1163,1183,1205,1222,1242,1262,1283,1302,1323,1343,1364,1383,1404,1422,1443,1463,1483,1503,1522,1543,1563,1583,1603,1622,1643,1663,1683,1704,1723,1743,1762,1783,1804,1823,1843,1864,1884,1904,1923,1943,1962,1982,2004,2023,2043,2064,2084,2104,2123,2142,2163,2184,2203,2224,2243,2264,2284,2303,2323,2343,2363,2383,2403,2422,2442,2463,2483,2504,2523,2543,2563,2583,2603,2622,2642,2662,2683,2703,2723,2744,2763,2783,2803,2822,2843,2862,2882,2903,2923,2944,2963,2983,3003,3022,3043,3062,3084,3104,3123,3142,3163,3182,3202,3222,3244,3263,3283,3304,3324,3344,3363,3382,3402,3424,3443,3462,3483,3504,3523,3543,3564,3583,3603,3624,3643,3664,3683,3703,3723,3742,3762,3782,3803,3823,3844,3863,3884,3905,3922,3942,3963,3983,4003,4023,4043],"xSR":741.5,"ySR":469.95,"xT1":424.9,"yT1":0,"xT2":1058.1,"yT2":0,"toosoon":0,"cond_shown":"Congruent","ratio_trial":200,"L_num":8,"L_den":15,"R_num":3,"R_den":9,"correct_side":1,"subjID":"JUANAMARTINEZLAVERDE16","gender":"1","school":"4","age":"9"},{"start_time":1552073578965,"click_time":1552073582462,"finger_time":1552073579163,"fix_duration":382.3960668662012,"trial":6,"RT":198,"MT":3299,"sideResp":2,"stimulus":[],"xmouse":[783,783,783,783,783,783,783,783,783,776,767,757,753,753,752,752,747,747,746,747,749,750,753,753,753,753,753,753,753,753,753,753,753,753,757,784,801,816,827,837,846,849,858,861,867,872,872,873,872,875,868,861,857,854,847,831,823,817,812,808,807,806,805,805,805,805,805,805,805,805,805,805,805,805,805,805,805,805,805,805,805,804,802,799,796,793,792,792,792,792,792,792,792,792,792,792,792,792,792,792,792,792,792,792,792,792,792,792,792,792,792,792,792,792,792,792,792,792,792,792,792,792,792,792,792,792,792,792,792,792,792,792,792,792,792,792,792,792,792,792,801,812,820,822,826,848,864,873,868,896,916,919,919,919,915,906,905,907,916,930,943,958,975,983,990,1005,1015,1020,1022,1023,1033,1039,1046,1053,1061],"ymouse":[513,513,513,513,513,513,513,513,496,316,224,167,150,150,149,149,174,189,191,190,196,201,201,202,202,202,202,202,202,202,202,202,202,202,204,242,259,272,283,293,315,325,336,345,352,370,377,377,376,381,401,414,426,434,446,473,488,498,508,515,517,518,520,521,521,521,521,521,521,521,521,521,521,521,521,521,521,521,521,521,521,521,522,523,523,524,524,524,524,524,524,524,524,524,524,524,524,524,524,524,524,524,524,524,524,524,524,524,524,524,524,524,524,524,524,524,524,524,524,524,524,524,524,524,524,524,524,524,524,524,524,524,524,524,524,524,524,524,524,524,511,497,488,487,476,453,435,425,415,365,327,319,318,307,293,238,227,207,190,173,164,154,145,140,136,129,124,121,119,118,107,101,95,91,85],"timestamp_mouse":[17,39,57,78,98,116,137,157,178,198,217,237,257,277,296,316,336,358,377,397,417,437,456,477,498,518,536,556,576,597,616,637,658,677,697,717,737,756,777,796,816,837,857,878,897,917,937,957,977,997,1017,1036,1057,1076,1096,1116,1137,1156,1177,1197,1218,1237,1257,1277,1297,1317,1338,1357,1378,1397,1418,1437,1458,1477,1497,1517,1537,1558,1576,1596,1617,1637,1658,1677,1696,1717,1737,1758,1777,1797,1818,1836,1858,1876,1896,1916,1938,1956,1976,1998,2016,2037,2057,2077,2098,2117,2137,2157,2176,2196,2217,2238,2256,2277,2297,2318,2337,2356,2378,2396,2418,2438,2457,2476,2498,2517,2536,2557,2577,2596,2617,2638,2656,2677,2696,2717,2737,2757,2777,2797,2817,2837,2856,2877,2898,2917,2937,2957,2976,2998,3017,3037,3057,3078,3097,3117,3136,3157,3176,3198,3216,3237,3257,3277,3297,3316,3336,3356,3377,3398,3417,3436,3456,3478,3497],"xSR":741.5,"ySR":469.95,"xT1":424.9,"yT1":0,"xT2":1058.1,"yT2":0,"toosoon":0,"cond_shown":"Congruent","ratio_trial":100,"L_num":1,"L_den":2,"R_num":18,"R_den":30,"correct_side":2,"subjID":"JUANAMARTINEZLAVERDE16","gender":"1","school":"4","age":"9"},{"start_time":1552073588622,"click_time":1552073591183,"finger_time":1552073589024,"fix_duration":497.46087755119527,"trial":7,"RT":402,"MT":2159,"sideResp":2,"stimulus":[],"xmouse":[791,786,782,781,781,781,781,781,781,781,781,781,781,781,781,781,781,781,781,781,807,827,969,1018,1043,1051,1052,1053,1053,1053,1053,1053,1053,1053,1053,1053,1053,1053,1053,1053,1053,1053,1053,1053,1053,1042,1029,1010,989,980,973,966,957,938,931,925,914,902,873,859,849,849,849,848,848,848,848,848,848,848,847,841,834,819,813,811,809,809,786,777,772,770,770,770,770,770,770,770,770,770,770,770,770,770,770,770,772,775,793,802,803,803,817,859,883,919,968,1025,1159,1203,1233,1241,1241,1241,1241,1241,1241,1241,1241,1241,1241,1241,1241,1241,1241,1241,1241,1241,1062],"ymouse":[510,511,512,512,512,512,512,512,512,512,512,512,512,512,512,512,512,512,512,512,467,441,308,271,252,246,245,245,245,245,245,245,245,245,245,245,245,245,245,245,245,245,245,245,248,269,291,323,361,380,395,406,419,445,456,462,475,491,519,533,544,545,545,545,545,545,545,545,545,545,545,531,521,503,499,497,496,495,492,492,492,492,492,492,492,492,492,492,492,492,492,492,492,492,492,492,496,499,510,511,511,511,502,466,439,391,316,232,79,36,11,3,3,3,3,3,3,3,3,3,3,3,3,3,3,3,3,3,7],"timestamp_mouse":[2,23,43,62,82,103,121,141,161,181,201,223,241,263,281,301,321,342,363,381,402,422,444,462,483,502,523,544,562,581,602,622,641,662,682,703,722,743,763,782,802,822,842,861,882,901,922,943,963,982,1001,1023,1042,1062,1082,1102,1123,1142,1163,1182,1202,1222,1241,1262,1281,1302,1321,1342,1361,1382,1402,1421,1443,1462,1481,1502,1522,1541,1562,1581,1601,1622,1641,1661,1683,1701,1722,1743,1763,1782,1802,1822,1843,1862,1882,1902,1922,1942,1962,1982,2001,2022,2042,2062,2083,2102,2123,2142,2163,2182,2201,2222,2241,2262,2281,2302,2321,2341,2362,2382,2402,2423,2443,2463,2482,2503,2522,2542,2561],"xSR":741.5,"ySR":469.95,"xT1":424.9,"yT1":0,"xT2":1058.1,"yT2":0,"toosoon":0,"cond_shown":"Congruent","ratio_trial":100,"L_num":4,"L_den":10,"R_num":15,"R_den":30,"correct_side":2,"subjID":"JUANAMARTINEZLAVERDE16","gender":"1","school":"4","age":"9"},{"start_time":1552073605375,"click_time":1552073608023,"finger_time":1552073605564,"fix_duration":1228.0180027564866,"trial":8,"RT":189,"MT":2459,"sideResp":2,"stimulus":[],"xmouse":[783,783,783,783,783,783,783,779,779,771,764,759,755,747,706,688,685,685,685,685,685,685,685,685,685,685,685,685,685,685,685,685,685,685,685,685,685,685,685,685,685,685,688,693,702,704,705,705,705,705,705,705,705,705,705,705,713,731,753,778,799,801,802,803,804,808,809,809,809,810,810,810,810,810,810,810,810,810,810,810,810,810,810,810,810,810,810,810,810,810,810,810,810,810,810,810,810,810,810,810,810,810,810,825,832,868,881,883,884,884,885,889,891,907,942,950,959,975,995,1012,1014,1014,1014,1017,1019,1020,1020,1020,1020,1020,1020,1035,1061],"ymouse":[482,482,482,482,482,482,482,480,477,468,455,447,439,425,367,360,360,360,360,360,360,360,360,360,360,360,360,360,360,360,360,360,360,360,360,360,360,360,360,360,360,360,387,409,437,443,444,444,444,444,444,444,444,444,444,444,459,482,500,513,519,519,519,519,519,516,515,513,512,510,510,510,510,510,510,510,510,510,510,510,510,510,510,510,510,510,510,510,510,510,510,510,510,510,510,510,510,510,510,510,510,510,510,482,469,410,385,380,373,364,328,315,309,290,244,223,205,172,142,113,110,110,110,106,104,102,102,102,102,102,102,92,81],"timestamp_mouse":[10,40,48,69,90,109,128,148,169,189,209,229,249,268,290,309,329,348,369,388,410,430,449,468,490,508,529,549,570,590,610,629,648,669,689,709,729,748,768,790,808,829,850,869,890,908,929,949,968,989,1008,1028,1048,1070,1090,1109,1130,1149,1169,1189,1208,1229,1249,1268,1288,1308,1329,1349,1369,1388,1408,1430,1449,1469,1488,1509,1529,1549,1569,1589,1609,1629,1650,1669,1688,1709,1729,1750,1769,1790,1810,1828,1849,1870,1888,1909,1928,1948,1970,1989,2010,2028,2048,2069,2088,2109,2129,2148,2170,2189,2209,2229,2248,2268,2290,2309,2330,2349,2369,2391,2409,2428,2448,2468,2488,2509,2530,2550,2568,2588,2608,2628,2648],"xSR":741.5,"ySR":469.95,"xT1":424.9,"yT1":0,"xT2":1058.1,"yT2":0,"toosoon":0,"cond_shown":"Incongruent","ratio_trial":100,"L_num":8,"L_den":20,"R_num":1,"R_den":2,"correct_side":2,"subjID":"JUANAMARTINEZLAVERDE16","gender":"1","school":"4","age":"9"},{"start_time":1552073616077,"click_time":1552073619504,"finger_time":1552073616404,"fix_duration":629.7829323597767,"trial":9,"RT":327,"MT":3100,"sideResp":2,"stimulus":[],"xmouse":[800,800,800,800,800,800,800,800,800,800,800,800,800,800,800,804,825,873,931,957,957,957,957,957,957,957,957,957,957,957,957,957,957,957,957,957,975,973,972,965,965,964,964,964,964,963,963,963,963,960,958,957,957,957,957,957,957,957,957,952,937,915,890,882,881,879,879,878,877,871,841,828,819,816,814,813,813,813,813,813,813,813,813,813,813,813,813,813,813,813,813,813,812,811,810,810,810,810,810,810,809,809,809,809,809,809,809,809,809,809,809,809,809,809,809,809,809,812,829,1000,1077,1115,1133,1133,1114,1068,1051,1044,1041,1037,1034,1028,1026,1025,1024,1019,1018,1018,1019,1016,1017,1017,1017,1017,1017,1019,1019,1019,1019,1019,1014,1008,1008,1009,1016,1021,1027,1031,1038,1057,1072,1086,1090,1092,1094,1089,1089,1089,1089,1089,1089,1090],"ymouse":[510,510,510,510,510,510,510,510,510,510,510,510,510,510,510,492,424,275,86,4,4,4,4,4,4,4,4,4,4,4,4,4,4,4,4,4,36,47,64,124,162,192,217,237,258,271,274,277,279,289,298,300,302,302,302,302,302,302,302,314,361,420,479,497,501,506,506,508,508,508,511,514,516,516,517,517,517,517,517,517,517,517,517,517,517,517,517,517,517,517,517,517,518,519,519,520,520,520,520,520,521,521,521,521,521,521,521,521,521,521,521,521,521,521,521,521,521,519,509,426,397,377,365,361,343,330,326,323,317,312,300,292,285,281,277,271,268,268,269,268,267,267,267,264,262,257,257,255,255,255,254,250,251,251,243,234,221,209,189,163,154,143,141,134,128,123,123,123,123,110,104,92],"timestamp_mouse":[9,31,47,67,86,106,128,148,166,187,208,226,246,268,288,307,327,346,366,388,407,428,447,466,488,506,528,546,566,587,606,628,647,667,688,706,726,746,767,788,806,827,847,867,887,906,926,946,966,988,1007,1028,1048,1067,1086,1107,1126,1146,1166,1188,1206,1227,1248,1266,1287,1307,1327,1346,1368,1387,1407,1426,1448,1468,1487,1506,1527,1548,1566,1586,1607,1628,1647,1666,1686,1707,1728,1748,1767,1787,1806,1827,1847,1868,1887,1907,1926,1948,1968,1987,2007,2028,2046,2066,2087,2107,2126,2148,2166,2186,2208,2226,2247,2267,2288,2308,2326,2347,2368,2388,2408,2428,2448,2466,2489,2506,2526,2547,2566,2588,2607,2628,2647,2667,2687,2707,2726,2747,2767,2786,2806,2828,2848,2866,2887,2907,2927,2947,2967,2988,3007,3027,3047,3066,3087,3106,3127,3146,3166,3188,3206,3227,3246,3266,3287,3306,3328,3347,3385,3387,3406,3427],"xSR":741.5,"ySR":469.95,"xT1":424.9,"yT1":0,"xT2":1058.1,"yT2":0,"toosoon":0,"cond_shown":"Congruent","ratio_trial":300,"L_num":7,"L_den":14,"R_num":20,"R_den":25,"correct_side":2,"subjID":"JUANAMARTINEZLAVERDE16","gender":"1","school":"4","age":"9"},{"start_time":1552073620836,"click_time":1552073622504,"finger_time":1552073621024,"fix_duration":250,"trial":10,"RT":188,"MT":1480,"sideResp":2,"stimulus":[],"xmouse":[790,790,790,790,790,790,788,788,787,747,679,619,606,606,606,605,605,605,605,605,605,605,605,605,605,605,605,605,605,605,605,605,605,605,605,605,605,624,632,634,634,634,635,643,657,673,687,698,701,705,718,727,737,749,765,781,795,801,801,801,803,804,814,823,836,846,847,864,870,878,887,925,949,971,991,1010,1038,1040,1044,1052,1066,1081,1085,1082],"ymouse":[520,520,520,520,520,520,520,520,514,442,337,255,238,238,238,237,237,237,237,237,237,237,237,237,237,237,237,237,237,237,237,237,237,237,237,237,237,289,299,301,301,301,302,315,336,354,371,387,395,403,421,434,447,461,477,494,502,504,504,504,499,494,468,447,415,390,385,326,311,299,285,265,255,243,232,221,206,204,198,182,160,132,111,88],"timestamp_mouse":[10,27,48,68,87,109,128,148,168,188,207,229,248,269,287,308,328,349,368,387,408,427,447,467,487,508,528,549,568,587,608,628,648,668,689,708,728,747,768,788,808,828,848,867,887,907,928,949,968,988,1017,1030,1047,1069,1089,1108,1128,1148,1169,1187,1207,1229,1248,1268,1288,1307,1329,1347,1368,1389,1408,1429,1447,1468,1487,1507,1529,1547,1568,1587,1608,1631,1647,1668],"xSR":741.5,"ySR":469.95,"xT1":424.9,"yT1":0,"xT2":1058.1,"yT2":0,"toosoon":0,"cond_shown":"Congruent","ratio_trial":200,"L_num":6,"L_den":12,"R_num":7,"R_den":10,"correct_side":2,"subjID":"JUANAMARTINEZLAVERDE16","gender":"1","school":"4","age":"9"},{"start_time":1552073623757,"click_time":1552073626045,"finger_time":1552073623964,"fix_duration":250,"trial":11,"RT":207,"MT":2081,"sideResp":2,"stimulus":[],"xmouse":[789,788,788,788,788,787,787,787,787,786,765,682,661,661,661,661,661,661,661,661,661,661,661,661,661,661,661,661,661,661,661,661,661,660,660,660,660,660,660,660,671,690,690,690,690,690,691,692,692,692,692,698,703,708,711,714,721,722,722,723,726,742,747,749,751,752,753,755,756,757,762,762,762,763,763,763,764,765,765,766,767,767,767,769,769,769,769,769,769,770,774,779,785,792,793,803,815,825,842,862,878,902,915,932,952,966,992,1009,1020,1028,1031,1044,1051,1057,1064],"ymouse":[511,511,511,511,511,511,511,511,511,511,466,392,385,385,385,385,385,384,384,384,384,384,384,384,384,384,384,384,384,384,384,384,384,384,384,384,384,384,385,401,454,490,490,490,490,490,494,497,497,497,497,503,506,509,511,514,518,518,518,518,518,522,523,523,523,523,523,523,523,523,523,523,523,523,521,521,521,520,520,518,517,517,517,515,514,514,513,513,513,512,506,498,484,466,462,449,428,411,386,360,342,312,298,264,240,223,187,157,135,118,104,72,64,58,50],"timestamp_mouse":[9,28,48,66,87,108,127,146,166,187,207,227,248,267,287,306,326,347,367,388,407,426,447,466,486,507,528,548,567,587,607,627,647,666,687,707,727,747,767,788,807,826,846,867,887,906,926,948,966,986,1007,1027,1047,1066,1087,1107,1126,1146,1167,1188,1207,1228,1247,1267,1287,1307,1326,1346,1367,1388,1407,1427,1448,1467,1488,1506,1526,1548,1566,1587,1608,1626,1647,1667,1687,1706,1727,1747,1766,1787,1808,1827,1847,1867,1887,1908,1927,1946,1966,1986,2007,2027,2048,2067,2087,2108,2127,2147,2167,2187,2207,2228,2247,2267,2288],"xSR":741.5,"ySR":469.95,"xT1":424.9,"yT1":0,"xT2":1058.1,"yT2":0,"toosoon":0,"cond_shown":"Congruent","ratio_trial":100,"L_num":2,"L_den":5,"R_num":6,"R_den":12,"correct_side":2,"subjID":"JUANAMARTINEZLAVERDE16","gender":"1","school":"4","age":"9"},{"start_time":1552073642458,"click_time":1552073645084,"finger_time":1552073642584,"fix_duration":832.9473836582943,"trial":12,"RT":126,"MT":2500,"sideResp":2,"stimulus":[],"xmouse":[793,793,793,793,793,790,755,682,610,555,533,533,533,533,537,549,550,550,550,550,550,550,550,550,550,550,550,550,552,558,559,559,559,559,559,559,562,567,575,582,590,601,608,616,623,631,642,647,650,653,657,663,665,667,669,672,672,672,671,670,669,664,654,652,652,652,652,652,652,652,654,655,657,659,662,663,665,665,665,665,665,665,665,665,665,665,705,712,752,781,808,812,813,813,814,814,809,794,787,782,778,776,771,769,768,767,767,767,767,770,781,783,783,783,783,783,783,783,784,789,795,819,834,849,851,875,897,946,1003,1046,1065,1067],"ymouse":[496,496,496,496,496,479,419,323,247,198,179,179,179,186,199,222,224,225,225,225,225,225,225,225,225,225,225,225,226,232,232,233,233,233,233,233,235,239,246,254,260,275,281,287,292,297,302,304,307,310,314,328,334,341,344,346,348,349,349,350,354,373,391,393,393,393,393,393,395,401,404,405,405,405,405,405,405,405,405,405,405,405,405,405,405,405,477,484,511,529,543,545,545,545,545,545,530,508,501,499,499,499,499,499,499,499,499,499,501,506,515,516,517,517,517,517,517,517,517,515,505,464,440,416,412,377,341,279,207,144,101,73],"timestamp_mouse":[10,41,45,67,85,106,126,146,166,186,205,225,246,266,287,306,325,345,366,386,407,427,447,465,486,505,526,546,566,586,607,626,646,666,686,705,726,746,765,786,805,825,845,865,886,906,926,945,965,986,1005,1026,1046,1066,1086,1107,1125,1146,1166,1186,1205,1226,1245,1266,1287,1307,1326,1346,1367,1385,1405,1425,1446,1466,1487,1506,1526,1547,1566,1586,1606,1626,1646,1666,1686,1705,1725,1746,1767,1786,1806,1826,1846,1866,1886,1906,1926,1945,1965,1986,2006,2025,2046,2066,2086,2107,2126,2146,2166,2186,2206,2226,2245,2266,2287,2305,2325,2346,2365,2386,2406,2426,2445,2465,2486,2507,2526,2546,2566,2587,2606,2625],"xSR":741.5,"ySR":469.95,"xT1":424.9,"yT1":0,"xT2":1058.1,"yT2":0,"toosoon":0,"cond_shown":"Incongruent","ratio_trial":100,"L_num":9,"L_den":18,"R_num":6,"R_den":10,"correct_side":2,"subjID":"JUANAMARTINEZLAVERDE16","gender":"1","school":"4","age":"9"},{"start_time":1552073646877,"click_time":1552073648584,"finger_time":1552073647104,"fix_duration":250,"trial":13,"RT":227,"MT":1480,"sideResp":2,"stimulus":[],"xmouse":[810,810,810,810,810,810,810,810,810,810,804,795,790,764,720,716,716,716,716,716,716,716,716,716,716,715,714,713,712,712,712,712,713,714,716,718,719,721,723,730,732,735,735,738,748,751,753,755,757,758,760,760,760,761,764,786,806,806,840,869,872,872,878,893,919,951,962,974,983,1003,1013,1021,1028,1034,1039,1040,1041,1044,1046,1052,1054,1056,1056,1056,1057,1061],"ymouse":[521,521,521,521,521,521,521,521,521,521,501,462,425,274,183,177,177,177,177,177,177,177,177,177,177,177,179,185,191,201,201,203,206,209,218,226,232,237,243,257,263,268,268,274,298,307,316,322,327,331,336,336,336,338,339,339,339,339,324,306,302,302,288,262,219,174,153,134,116,94,84,78,75,73,71,71,71,71,71,71,70,70,70,70,70,70],"timestamp_mouse":[10,36,49,68,89,108,128,147,168,189,208,227,248,268,289,308,328,349,367,388,409,428,449,468,489,507,527,548,568,589,608,628,647,667,690,708,728,749,768,789,807,829,848,867,889,909,928,949,968,988,1007,1028,1048,1069,1088,1107,1129,1148,1168,1189,1208,1228,1248,1268,1287,1307,1328,1348,1368,1389,1408,1427,1448,1467,1487,1509,1528,1548,1569,1589,1608,1628,1649,1668,1689,1707],"xSR":741.5,"ySR":469.95,"xT1":424.9,"yT1":0,"xT2":1058.1,"yT2":0,"toosoon":0,"cond_shown":"Incongruent","ratio_trial":100,"L_num":8,"L_den":16,"R_num":6,"R_den":10,"correct_side":2,"subjID":"JUANAMARTINEZLAVERDE16","gender":"1","school":"4","age":"9"},{"start_time":1552073651393,"click_time":1552073652566,"finger_time":1552073651485,"fix_duration":623.3408925872893,"trial":14,"RT":92,"MT":1081,"sideResp":2,"stimulus":[],"xmouse":[771,771,771,762,729,690,650,606,606,606,606,606,606,606,606,606,606,606,606,606,606,606,606,606,558,558,558,558,560,575,583,592,601,607,618,629,642,652,675,682,688,689,691,696,700,707,718,719,725,747,758,768,780,797,832,886,957,1033,1090],"ymouse":[515,515,515,491,430,339,204,39,39,39,39,39,39,39,39,39,39,39,39,39,39,39,39,39,10,10,10,10,12,20,26,32,39,43,50,60,71,82,115,125,135,137,140,147,151,157,163,164,166,158,145,126,108,101,98,98,97,97,90],"timestamp_mouse":[14,42,52,72,92,112,132,152,174,192,211,231,252,273,292,313,332,351,372,391,412,433,452,472,493,511,532,552,571,592,612,632,652,672,691,712,733,753,773,791,813,831,851,873,891,912,932,952,972,992,1013,1033,1051,1073,1091,1112,1132,1152,1172],"xSR":741.5,"ySR":469.95,"xT1":424.9,"yT1":0,"xT2":1058.1,"yT2":0,"toosoon":0,"cond_shown":"Incongruent","ratio_trial":100,"L_num":11,"L_den":22,"R_num":9,"R_den":15,"correct_side":2,"subjID":"JUANAMARTINEZLAVERDE16","gender":"1","school":"4","age":"9"},{"start_time":1552073654522,"click_time":1552073658565,"finger_time":1552073654825,"fix_duration":394.0468576585312,"trial":15,"RT":303,"MT":3740,"sideResp":2,"stimulus":[],"xmouse":[779,779,779,779,779,779,779,779,779,779,779,778,777,774,760,748,730,640,631,631,631,631,631,631,631,631,631,631,631,631,631,631,631,631,631,631,632,632,633,635,637,640,641,642,643,643,645,647,647,647,647,647,647,647,647,647,647,647,647,647,647,647,647,647,647,647,647,659,659,659,659,659,659,659,659,659,659,659,659,659,659,659,659,659,659,659,659,659,659,659,659,659,659,659,659,659,659,659,659,659,659,659,659,659,659,659,659,659,659,659,659,659,659,659,659,659,659,659,659,659,659,659,659,655,652,650,650,642,637,633,631,631,623,604,568,549,452,431,140,0,0,0,0,0,0,0,0,0,0,0,0,0,0,0,0,0,0,0,0,0,0,0,0,0,0,0,0,0,0,0,0,0,0,0,0,0,0,0,0,0,0,0,0,0,0,0,2,30,56,108,160,191,249,403,493,577,651,779,831,881,941,1003,1106],"ymouse":[519,519,519,519,519,519,519,519,519,515,514,512,510,502,477,459,435,317,306,306,306,306,306,306,306,308,315,315,315,315,315,315,315,315,315,316,317,318,319,321,324,329,331,340,344,345,361,373,373,373,373,373,373,373,373,373,373,373,373,373,373,373,373,373,373,373,374,382,382,382,382,382,382,382,382,382,382,382,382,382,382,382,382,382,382,382,382,382,382,382,382,382,382,382,382,382,382,382,382,382,382,382,382,382,382,382,382,382,382,382,382,382,382,382,382,382,382,382,382,382,382,382,382,383,383,383,383,388,388,388,388,388,393,402,416,425,463,468,574,663,711,711,711,711,711,711,711,711,711,711,711,711,711,711,711,711,711,711,711,711,711,711,711,711,711,711,711,711,711,711,711,711,711,711,711,711,711,711,711,695,590,501,386,377,377,377,374,362,358,350,342,339,329,304,289,278,266,247,232,204,166,123,78],"timestamp_mouse":[4,22,42,63,82,104,122,143,163,184,203,223,244,264,283,303,323,344,363,383,403,423,444,462,483,502,523,542,562,582,602,623,642,664,683,702,723,744,762,783,803,823,845,862,884,903,924,943,963,983,1004,1024,1044,1064,1082,1103,1123,1144,1162,1184,1203,1223,1243,1263,1283,1303,1323,1344,1363,1383,1403,1423,1443,1464,1483,1504,1523,1543,1563,1583,1603,1623,1644,1662,1682,1703,1722,1742,1763,1783,1804,1823,1844,1862,1882,1902,1924,1944,1964,1984,2004,2023,2044,2062,2083,2103,2122,2143,2163,2187,2204,2224,2244,2264,2284,2304,2323,2342,2363,2384,2404,2424,2443,2464,2483,2504,2523,2544,2563,2583,2603,2622,2644,2662,2684,2703,2723,2743,2763,2783,2804,2823,2843,2864,2884,2904,2922,2944,2963,2983,3003,3024,3044,3063,3084,3102,3124,3144,3163,3183,3203,3223,3243,3262,3282,3303,3322,3342,3364,3383,3404,3423,3443,3464,3483,3503,3524,3543,3562,3583,3603,3623,3645,3662,3684,3704,3723,3743,3762,3783,3804,3823,3843,3863,3883,3903,3923,3943,3962,3983,4003,4023,4043],"xSR":741.5,"ySR":469.95,"xT1":424.9,"yT1":0,"xT2":1058.1,"yT2":0,"toosoon":0,"cond_shown":"Incongruent","ratio_trial":100,"L_num":6,"L_den":12,"R_num":3,"R_den":5,"correct_side":2,"subjID":"JUANAMARTINEZLAVERDE16","gender":"1","school":"4","age":"9"},{"start_time":1552073666009,"click_time":1552073668125,"finger_time":1552073668025,"fix_duration":362.6598601550022,"trial":16,"RT":2016,"MT":100,"sideResp":1,"stimulus":[],"xmouse":[798,798,798,798,798,798,798,798,798,798,798,798,797,797,797,798,798,798,798,798,798,798,798,798,798,798,798,798,798,798,797,796,794,792,789,788,788,788,788,788,788,788,788,788,788,788,788,788,788,788,788,788,788,788,788,788,788,788,788,788,788,788,788,788,788,788,788,788,788,788,788,788,788,788,788,788,788,788,788,788,788,788,788,788,788,788,788,788,788,788,788,788,788,788,788,788,788,788,788,785,770,735,659,612,564,509],"ymouse":[549,549,549,549,549,549,549,549,549,549,549,549,549,544,540,539,538,537,535,534,534,534,534,534,534,534,534,534,534,534,530,529,526,521,518,516,516,516,516,516,516,516,516,516,516,516,516,516,516,516,516,516,516,516,516,516,516,516,516,516,516,516,516,516,516,516,516,516,516,516,516,516,516,516,516,516,516,516,516,516,516,516,516,516,516,516,516,516,516,516,516,516,516,516,516,516,516,516,516,507,462,387,224,144,76,14],"timestamp_mouse":[16,40,56,76,96,115,136,157,175,195,217,235,256,276,297,316,336,356,377,396,416,436,456,477,496,517,536,556,575,596,616,636,656,676,696,717,735,757,776,795,817,836,856,877,897,917,936,957,975,996,1016,1036,1056,1075,1096,1117,1135,1157,1175,1195,1216,1236,1256,1276,1296,1316,1337,1356,1377,1397,1415,1435,1457,1477,1495,1515,1537,1557,1576,1597,1616,1637,1657,1676,1697,1717,1736,1756,1776,1795,1816,1835,1856,1875,1895,1917,1936,1956,1976,1996,2016,2036,2057,2076,2096,2116],"xSR":741.5,"ySR":469.95,"xT1":424.9,"yT1":0,"xT2":1058.1,"yT2":0,"toosoon":0,"cond_shown":"Congruent","ratio_trial":300,"L_num":3,"L_den":6,"R_num":2,"R_den":10,"correct_side":1,"subjID":"JUANAMARTINEZLAVERDE16","gender":"1","school":"4","age":"9"},{"start_time":1552073674007,"click_time":1552073680765,"finger_time":1552073680245,"fix_duration":1239.0645272150487,"trial":17,"RT":6238,"MT":520,"sideResp":2,"stimulus":[],"xmouse":[760,760,760,760,760,760,760,760,760,760,760,760,760,760,760,760,760,760,760,760,760,760,760,760,760,760,760,760,760,760,760,760,760,760,760,760,760,760,760,760,760,764,766,770,770,770,770,770,770,770,770,770,770,770,770,770,770,770,770,770,770,770,770,770,770,770,770,770,770,770,770,770,770,770,770,770,770,770,770,770,770,770,770,770,770,770,770,770,770,770,770,770,770,770,770,770,770,770,770,770,770,770,770,770,770,770,770,770,770,770,770,770,770,770,770,771,771,772,772,772,772,772,774,776,777,778,778,778,778,778,778,778,778,778,778,778,778,778,778,778,778,778,778,778,778,778,778,778,778,778,778,778,778,778,778,778,778,778,778,778,778,778,778,778,778,778,778,778,778,778,778,778,778,778,778,778,778,778,778,778,778,778,778,778,778,778,778,778,778,778,778,778,778,778,778,778,778,778,778,778,778,778,778,778,778,778,778,778,778,778,778,778,778,778,778,778,778,778,778,778,778,778,778,778,778,778,778,778,778,778,778,778,778,778,778,778,778,778,778,778,778,778,778,778,778,778,778,778,778,778,778,778,778,778,778,778,778,778,778,778,778,778,778,778,778,778,778,778,778,778,778,778,778,778,778,778,778,778,778,778,778,778,778,778,778,778,778,778,778,778,778,778,778,778,778,778,778,778,778,778,778,778,778,778,778,778,778,778,795,816,837,854,862,903,933,986,1093,1320,1362,1362,1362,1362,1362,1362,1362,1362,1362,1362,1362,1362,1362,1362,1362,1362,1362,1362,1163,1155],"ymouse":[509,509,509,509,509,509,509,509,509,509,509,509,509,509,509,509,509,509,509,509,509,509,509,509,509,509,509,509,509,509,509,509,509,509,509,509,509,509,509,509,509,509,509,509,508,508,508,508,508,508,508,508,508,508,508,508,508,508,508,508,508,508,508,508,508,508,508,508,508,508,508,508,508,508,508,508,508,508,508,508,508,508,508,508,508,508,508,508,508,508,508,508,508,508,508,508,508,508,508,508,508,508,508,508,508,508,508,508,508,508,508,508,508,508,508,508,508,508,508,508,508,508,509,513,515,516,516,516,516,516,516,516,516,516,516,516,516,516,516,516,516,516,516,516,516,516,516,516,516,516,516,516,516,516,516,516,516,516,516,516,516,516,516,516,516,516,516,516,516,516,516,516,516,516,516,516,516,516,516,516,516,516,516,516,516,516,516,516,516,516,516,516,516,516,516,516,516,516,516,516,516,516,516,516,516,516,516,516,516,516,516,516,516,516,516,516,516,516,516,516,516,516,516,516,516,516,516,516,516,516,516,516,516,516,516,516,516,516,516,516,516,516,516,516,516,516,516,516,516,516,516,516,516,516,516,516,516,516,516,516,516,516,516,516,516,516,516,516,516,516,516,516,516,516,516,516,516,516,516,516,516,516,516,516,516,516,516,516,516,516,516,516,516,516,516,516,516,516,516,516,516,516,516,516,516,516,516,516,513,501,487,470,451,383,339,284,201,45,14,14,14,14,14,14,14,14,14,14,14,14,14,14,14,14,14,14,5,8],"timestamp_mouse":[19,40,59,77,97,117,137,158,179,199,218,238,257,277,299,317,339,359,378,399,418,437,459,478,497,519,538,557,579,599,618,639,657,678,698,717,737,759,779,797,819,838,859,877,898,919,938,957,979,997,1017,1039,1058,1077,1097,1119,1138,1157,1177,1199,1217,1239,1257,1277,1299,1318,1339,1358,1378,1398,1419,1438,1457,1479,1499,1517,1537,1557,1578,1597,1618,1639,1658,1678,1699,1719,1737,1758,1777,1798,1818,1839,1858,1879,1898,1918,1939,1957,1977,1999,2019,2038,2059,2078,2098,2117,2137,2159,2177,2199,2219,2244,2257,2277,2297,2318,2338,2358,2378,2399,2417,2437,2458,2478,2498,2518,2538,2558,2578,2598,2618,2639,2658,2678,2698,2717,2739,2759,2778,2797,2818,2839,2859,2878,2899,2919,2937,2957,2977,2998,3017,3039,3057,3077,3097,3118,3139,3158,3178,3199,3218,3237,3259,3279,3297,3319,3339,3357,3378,3399,3417,3439,3458,3477,3499,3518,3538,3559,3579,3598,3619,3637,3659,3679,3699,3719,3738,3757,3777,3799,3818,3838,3859,3879,3899,3919,3939,3959,3978,3998,4019,4039,4057,4079,4099,4118,4138,4159,4177,4199,4218,4239,4258,4277,4298,4319,4339,4358,4378,4397,4419,4439,4458,4479,4497,4518,4539,4559,4578,4599,4619,4638,4659,4678,4697,4717,4739,4758,4777,4797,4819,4837,4859,4879,4897,4918,4938,4957,4978,4997,5018,5039,5059,5078,5097,5118,5138,5157,5179,5199,5218,5238,5258,5279,5298,5317,5339,5358,5379,5399,5418,5438,5459,5477,5499,5518,5538,5559,5577,5598,5619,5638,5657,5679,5699,5718,5739,5759,5779,5798,5818,5838,5859,5877,5899,5918,5938,5959,5977,5997,6018,6039,6058,6078,6099,6117,6137,6159,6179,6198,6218,6238,6259,6278,6297,6318,6338,6360,6378,6398,6418,6438,6457,6478,6497,6518,6539,6558,6578,6598,6618,6638,6659,6678,6699,6718,6739,6758],"xSR":741.5,"ySR":469.95,"xT1":424.9,"yT1":0,"xT2":1058.1,"yT2":0,"toosoon":0,"cond_shown":"Incongruent","ratio_trial":100,"L_num":13,"L_den":26,"R_num":12,"R_den":20,"correct_side":2,"subjID":"JUANAMARTINEZLAVERDE16","gender":"1","school":"4","age":"9"},{"start_time":1552073687934,"click_time":1552073689667,"finger_time":1552073688345,"fix_duration":587.856039617847,"trial":18,"RT":411,"MT":1322,"sideResp":2,"stimulus":[],"xmouse":[798,798,798,798,798,798,798,798,798,798,798,798,798,798,798,798,798,798,798,797,782,747,664,655,655,655,655,654,654,654,654,654,654,654,654,654,654,654,654,654,654,654,654,655,659,663,673,681,690,704,723,733,735,736,736,736,732,731,731,731,731,731,737,741,743,745,748,759,767,785,800,804,825,834,856,866,913,934,969,989,1007,1013,1017,1028,1045,1075,1141],"ymouse":[513,513,513,513,512,512,512,512,512,512,512,512,512,512,512,512,512,512,510,497,459,343,144,129,129,129,132,175,178,179,179,179,179,179,179,179,179,179,179,179,179,183,194,201,208,214,230,242,253,263,279,290,301,311,323,337,370,389,407,424,440,452,484,498,512,523,532,544,545,550,550,550,543,536,520,510,473,454,423,404,380,360,333,297,250,185,31],"timestamp_mouse":[10,39,51,71,92,111,130,152,172,190,211,232,252,270,292,310,331,351,372,391,411,431,450,471,492,511,531,550,571,590,611,632,651,670,690,710,732,750,772,791,810,832,851,872,891,911,933,951,972,990,1010,1032,1050,1071,1091,1111,1132,1151,1172,1191,1210,1231,1251,1272,1292,1311,1331,1350,1372,1392,1412,1431,1451,1471,1492,1510,1532,1551,1572,1591,1611,1632,1651,1672,1691,1711,1732],"xSR":741.5,"ySR":469.95,"xT1":424.9,"yT1":0,"xT2":1058.1,"yT2":0,"toosoon":0,"cond_shown":"Congruent","ratio_trial":100,"L_num":10,"L_den":25,"R_num":3,"R_den":10,"correct_side":1,"subjID":"JUANAMARTINEZLAVERDE16","gender":"1","school":"4","age":"9"},{"start_time":1552073691196,"click_time":1552073692885,"finger_time":1552073691585,"fix_duration":250,"trial":19,"RT":389,"MT":1300,"sideResp":2,"stimulus":[],"xmouse":[802,801,800,800,800,800,800,800,800,800,800,800,800,800,800,800,800,800,797,734,686,664,664,664,664,664,665,666,667,668,668,668,668,668,668,668,668,668,668,668,668,668,668,668,669,675,683,691,718,740,761,778,792,801,812,816,819,820,820,822,822,824,824,825,826,826,826,826,826,826,826,826,827,847,868,891,920,955,1031,1047,1061,1070,1081,1130,1155],"ymouse":[525,521,518,518,518,518,518,518,518,518,518,518,518,518,518,518,518,518,506,409,329,265,263,262,262,262,265,269,273,273,273,273,273,273,273,273,273,273,273,273,273,274,276,284,294,305,320,334,367,395,421,446,471,490,516,523,528,529,530,537,539,542,544,547,548,548,548,548,548,548,548,548,548,535,521,504,479,440,342,313,289,270,243,140,83],"timestamp_mouse":[15,33,50,69,88,109,129,149,169,189,209,230,249,270,290,308,330,349,369,389,408,428,449,470,490,509,528,548,570,588,609,629,649,669,689,708,729,750,768,788,808,829,849,870,889,909,929,950,970,988,1009,1029,1050,1070,1089,1109,1129,1150,1169,1189,1209,1230,1249,1269,1288,1309,1330,1349,1368,1390,1410,1429,1448,1470,1489,1509,1529,1548,1570,1589,1609,1630,1649,1671,1688],"xSR":741.5,"ySR":469.95,"xT1":424.9,"yT1":0,"xT2":1058.1,"yT2":0,"toosoon":0,"cond_shown":"Incongruent","ratio_trial":200,"L_num":3,"L_den":4,"R_num":11,"R_den":20,"correct_side":1,"subjID":"JUANAMARTINEZLAVERDE16","gender":"1","school":"4","age":"9"},{"start_time":1552073694543,"click_time":1552073695826,"finger_time":1552073694665,"fix_duration":675.1418825774384,"trial":20,"RT":122,"MT":1161,"sideResp":2,"stimulus":[],"xmouse":[792,792,792,792,792,788,761,670,670,670,670,670,653,678,695,702,705,705,705,705,705,705,705,705,705,705,707,707,707,707,707,707,707,707,708,710,713,717,718,725,736,756,759,765,775,794,861,899,938,963,989,1010,1016,1021,1023,1025,1029,1037,1037,1038,1038,1038,1038,1047,1060],"ymouse":[509,509,509,509,509,497,405,100,100,100,100,100,54,101,139,158,165,165,165,165,165,165,165,165,165,165,169,173,176,180,187,187,187,187,189,193,206,219,223,240,258,277,277,277,277,266,229,204,176,154,119,82,69,61,57,55,52,49,49,49,49,49,49,49,53],"timestamp_mouse":[10,21,42,62,83,102,122,144,163,182,202,222,243,262,282,302,323,342,362,382,401,421,441,462,482,502,523,542,562,582,602,622,643,661,682,702,722,743,762,781,802,823,841,862,882,901,923,942,962,982,1002,1023,1042,1061,1082,1103,1122,1142,1162,1182,1202,1223,1242,1262,1282],"xSR":741.5,"ySR":469.95,"xT1":424.9,"yT1":0,"xT2":1058.1,"yT2":0,"toosoon":0,"cond_shown":"Congruent","ratio_trial":200,"L_num":20,"L_den":25,"R_num":9,"R_den":15,"correct_side":1,"subjID":"JUANAMARTINEZLAVERDE16","gender":"1","school":"4","age":"9"},{"start_time":1552073697136,"click_time":1552073698945,"finger_time":1552073697424,"fix_duration":250,"trial":21,"RT":288,"MT":1521,"sideResp":2,"stimulus":[],"xmouse":[798,798,798,798,798,798,798,798,798,798,798,795,787,780,774,768,759,745,745,745,745,745,745,745,745,745,745,745,745,745,745,745,745,745,745,745,745,745,745,745,745,745,750,756,759,762,763,763,763,763,764,767,769,771,773,776,780,793,801,806,808,809,809,809,809,809,809,809,815,822,833,847,889,919,949,987,1070,1099,1114,1122,1126,1127,1125,1123,1122,1122,1121,1121,1121,1121,1122],"ymouse":[540,540,540,540,540,540,540,540,540,540,540,516,492,472,454,434,401,355,355,355,355,355,355,355,355,355,355,355,355,355,355,355,355,355,355,355,355,355,355,355,357,361,393,415,435,454,469,491,498,505,513,535,540,544,546,548,549,552,553,553,553,553,553,553,553,553,553,553,549,540,525,509,442,399,359,316,237,206,187,169,156,147,135,130,126,122,119,113,108,102,93],"timestamp_mouse":[29,39,48,69,90,110,129,149,170,190,209,230,250,269,288,309,329,349,370,389,410,428,448,468,489,510,530,548,569,589,609,629,649,669,688,708,730,749,768,789,809,829,849,869,889,910,928,949,970,990,1010,1030,1050,1069,1090,1109,1129,1149,1170,1190,1209,1230,1250,1269,1290,1309,1330,1349,1368,1389,1409,1429,1450,1469,1488,1508,1530,1549,1570,1589,1610,1631,1649,1669,1689,1709,1730,1749,1769,1789,1809],"xSR":741.5,"ySR":469.95,"xT1":424.9,"yT1":0,"xT2":1058.1,"yT2":0,"toosoon":0,"cond_shown":"Incongruent","ratio_trial":300,"L_num":7,"L_den":10,"R_num":8,"R_den":20,"correct_side":1,"subjID":"JUANAMARTINEZLAVERDE16","gender":"1","school":"4","age":"9"},{"start_time":1552073703013,"click_time":1552073705485,"finger_time":1552073703166,"fix_duration":426.48561329875866,"trial":22,"RT":153,"MT":2319,"sideResp":2,"stimulus":[],"xmouse":[792,792,792,792,790,790,787,777,770,770,764,758,745,736,728,726,726,726,726,726,726,726,726,726,726,726,726,726,726,726,726,726,726,726,726,726,726,729,737,745,755,763,769,776,780,785,787,790,796,797,798,798,798,798,798,798,798,798,806,820,845,874,912,988,1022,1069,1124,1234,1234,1234,1234,1234,1234,1234,1234,1234,1234,1234,1234,1234,1234,1176,1011,901,798,711,659,630,629,629,629,629,629,629,629,629,629,629,635,635,630,610,567,406,300,193,98,44,42,67,132,235,476,608,725,807,842,863,895,920,953,1007,1054,1157],"ymouse":[518,518,518,518,517,513,503,467,451,446,436,423,386,364,346,343,343,343,343,343,343,343,343,343,343,343,343,343,343,343,343,343,343,343,343,343,345,375,409,432,453,471,487,506,514,523,530,540,552,554,555,555,555,555,555,555,555,555,549,537,518,492,455,348,289,204,130,13,13,13,13,13,13,13,13,13,13,13,13,13,13,68,162,209,240,265,274,277,277,277,277,277,277,277,277,277,277,277,277,277,274,267,255,217,201,193,193,193,192,183,168,153,116,100,96,96,96,96,98,99,98,84,71,41],"timestamp_mouse":[16,40,52,72,93,112,133,153,172,192,211,231,253,271,293,313,333,353,372,391,412,432,452,473,493,513,532,552,571,593,611,632,653,672,692,711,732,753,772,792,812,832,851,871,892,912,932,952,973,992,1011,1031,1051,1071,1092,1112,1132,1152,1173,1192,1212,1232,1251,1272,1292,1312,1332,1352,1372,1391,1413,1432,1452,1472,1492,1512,1532,1553,1572,1593,1611,1631,1653,1671,1692,1712,1731,1752,1772,1792,1813,1833,1852,1873,1892,1912,1932,1951,1972,1992,2013,2032,2052,2072,2092,2112,2132,2152,2171,2192,2212,2232,2253,2271,2291,2312,2333,2352,2373,2392,2413,2432,2451,2471],"xSR":741.5,"ySR":469.95,"xT1":424.9,"yT1":0,"xT2":1058.1,"yT2":0,"toosoon":0,"cond_shown":"Incongruent","ratio_trial":100,"L_num":10,"L_den":25,"R_num":8,"R_den":16,"correct_side":2,"subjID":"JUANAMARTINEZLAVERDE16","gender":"1","school":"4","age":"9"},{"start_time":1552073708175,"click_time":1552073709547,"finger_time":1552073708366,"fix_duration":1306.7719881072503,"trial":23,"RT":191,"MT":1181,"sideResp":2,"stimulus":[],"xmouse":[798,798,798,798,798,798,798,798,796,788,778,757,745,743,743,743,743,743,743,743,742,742,742,742,742,742,742,742,742,742,742,742,742,742,742,742,742,742,743,756,762,766,769,770,771,771,771,774,790,880,937,978,1005,1015,1019,1026,1028,1030,1030,1032,1039,1041,1043,1044,1047,1052,1055,1061,1067],"ymouse":[518,518,518,518,518,518,518,518,511,433,247,154,126,124,124,134,160,183,204,234,238,238,238,238,238,238,238,238,238,238,238,238,238,238,238,238,251,267,281,315,327,333,335,335,335,335,335,335,324,260,226,197,176,164,156,133,130,128,128,125,113,109,106,105,104,102,101,100,97],"timestamp_mouse":[12,38,50,72,91,110,131,151,172,191,210,231,251,270,291,310,331,350,370,392,410,430,451,470,490,511,530,550,571,590,610,630,652,671,691,710,731,750,770,792,810,831,850,870,892,911,932,951,972,991,1010,1030,1050,1071,1091,1110,1130,1150,1171,1190,1211,1231,1250,1270,1292,1310,1330,1351,1372],"xSR":741.5,"ySR":469.95,"xT1":424.9,"yT1":0,"xT2":1058.1,"yT2":0,"toosoon":0,"cond_shown":"Congruent","ratio_trial":200,"L_num":8,"L_den":15,"R_num":2,"R_den":6,"correct_side":1,"subjID":"JUANAMARTINEZLAVERDE16","gender":"1","school":"4","age":"9"},{"start_time":1552073711098,"click_time":1552073712485,"finger_time":1552073711306,"fix_duration":649.7089815203092,"trial":24,"RT":208,"MT":1179,"sideResp":2,"stimulus":[],"xmouse":[805,805,805,805,805,805,800,794,783,753,736,712,674,633,633,633,633,633,633,633,633,633,633,633,633,633,633,633,633,633,633,633,633,636,640,643,647,655,663,677,684,691,695,699,703,712,731,757,796,806,818,841,917,1186,1258,1259,1249,1233,1208,1202,1201,1201,1201,1201,1182,1166,1150,1139,1132,1127],"ymouse":[538,538,538,538,538,538,534,527,518,488,466,430,364,295,295,295,295,295,295,295,295,295,295,295,295,295,295,295,295,295,295,295,303,313,324,329,335,345,356,381,393,401,406,408,408,401,383,361,332,326,322,318,309,241,190,187,185,184,184,187,187,187,187,187,182,172,155,136,116,99],"timestamp_mouse":[10,42,49,68,87,107,127,147,168,188,208,228,247,268,287,307,328,348,367,387,408,427,448,467,488,508,527,547,567,587,607,629,648,669,687,707,728,747,767,787,808,827,848,869,887,907,927,948,969,987,1007,1027,1047,1069,1087,1108,1128,1147,1169,1187,1208,1229,1249,1269,1288,1308,1328,1348,1368,1387],"xSR":741.5,"ySR":469.95,"xT1":424.9,"yT1":0,"xT2":1058.1,"yT2":0,"toosoon":0,"cond_shown":"Incongruent","ratio_trial":100,"L_num":17,"L_den":30,"R_num":10,"R_den":15,"correct_side":2,"subjID":"JUANAMARTINEZLAVERDE16","gender":"1","school":"4","age":"9"},{"start_time":1552073713477,"click_time":1552073714506,"finger_time":1552073713786,"fix_duration":250,"trial":25,"RT":309,"MT":720,"sideResp":2,"stimulus":[],"xmouse":[793,793,793,793,793,793,793,793,793,793,793,793,793,793,797,852,939,1037,1084,1092,1093,1093,1093,1093,1093,1093,1093,1093,1093,1092,1092,1092,1091,1088,1086,1074,1072,1072,1072,1072,1072,1072,1072,1072,1072,1080,1087,1091,1092,1087,1083,1089],"ymouse":[562,562,562,562,562,562,562,562,562,562,562,562,562,562,555,489,387,289,245,239,239,239,239,239,239,239,239,239,239,239,239,239,239,238,238,247,249,252,252,252,253,253,254,254,255,248,232,216,197,159,139,92],"timestamp_mouse":[10,39,49,69,88,108,128,148,169,188,208,228,248,268,288,309,328,348,369,388,408,428,449,469,488,508,528,549,568,589,608,630,649,669,688,708,729,749,769,790,809,830,849,869,889,909,928,948,969,989,1008,1029],"xSR":741.5,"ySR":469.95,"xT1":424.9,"yT1":0,"xT2":1058.1,"yT2":0,"toosoon":0,"cond_shown":"Congruent","ratio_trial":300,"L_num":1,"L_den":3,"R_num":19,"R_den":30,"correct_side":2,"subjID":"JUANAMARTINEZLAVERDE16","gender":"1","school":"4","age":"9"},{"start_time":1552073716792,"click_time":1552073718206,"finger_time":1552073716966,"fix_duration":1082.729458626693,"trial":26,"RT":174,"MT":1240,"sideResp":2,"stimulus":[],"xmouse":[767,767,767,767,767,767,757,752,681,667,662,661,661,661,661,661,661,661,661,661,661,661,661,661,661,661,661,661,661,661,661,661,661,661,665,675,687,706,724,742,744,745,748,753,763,765,768,777,816,832,851,875,915,981,1043,1046,1046,1046,1046,1046,1046,1051,1057,1057,1057,1057,1061,1066,1084,1090,1095],"ymouse":[500,500,500,500,500,500,483,470,368,341,329,327,327,327,327,327,327,327,327,327,327,327,327,327,327,327,327,327,327,327,327,327,327,327,336,348,362,376,389,402,403,405,405,408,409,409,409,406,373,362,350,336,309,257,207,200,198,198,198,198,198,195,190,181,178,173,163,150,119,107,93],"timestamp_mouse":[14,40,53,74,94,114,134,153,174,193,214,234,254,274,294,315,333,354,375,393,414,433,453,474,494,514,534,555,573,593,613,633,654,673,693,714,734,753,775,793,814,834,853,874,893,913,933,955,974,993,1013,1034,1054,1074,1093,1113,1133,1154,1174,1194,1213,1234,1253,1275,1293,1314,1334,1353,1375,1393,1414],"xSR":741.5,"ySR":469.95,"xT1":424.9,"yT1":0,"xT2":1058.1,"yT2":0,"toosoon":0,"cond_shown":"Incongruent","ratio_trial":200,"L_num":7,"L_den":15,"R_num":4,"R_den":6,"correct_side":2,"subjID":"JUANAMARTINEZLAVERDE16","gender":"1","school":"4","age":"9"},{"start_time":1552073719377,"click_time":1552073720526,"finger_time":1552073719465,"fix_duration":348.9760757555064,"trial":27,"RT":88,"MT":1061,"sideResp":2,"stimulus":[],"xmouse":[772,769,769,758,750,721,686,637,605,605,605,605,605,605,605,605,605,605,605,605,605,605,605,605,605,605,606,617,633,713,741,762,770,770,770,789,812,838,860,893,961,991,1010,1027,1035,1044,1045,1045,1045,1046,1058,1068,1078,1081,1086,1089,1097,1106],"ymouse":[510,504,504,480,462,396,333,260,232,232,232,232,232,232,232,232,232,232,232,232,232,232,232,232,232,232,236,249,263,304,312,318,319,319,319,315,306,297,287,269,230,211,196,180,171,154,151,150,149,147,132,126,119,117,113,109,104,99],"timestamp_mouse":[14,40,49,69,88,108,128,148,170,190,209,228,248,269,288,310,329,348,368,388,408,429,450,468,488,510,528,549,568,590,608,628,649,668,689,708,729,750,769,789,809,828,849,868,889,908,928,948,969,988,1008,1029,1050,1068,1089,1108,1128,1149],"xSR":741.5,"ySR":469.95,"xT1":424.9,"yT1":0,"xT2":1058.1,"yT2":0,"toosoon":0,"cond_shown":"Incongruent","ratio_trial":300,"L_num":13,"L_den":26,"R_num":12,"R_den":15,"correct_side":2,"subjID":"JUANAMARTINEZLAVERDE16","gender":"1","school":"4","age":"9"},{"start_time":1552073722918,"click_time":1552073724146,"finger_time":1552073723147,"fix_duration":1130.2164073399315,"trial":28,"RT":229,"MT":999,"sideResp":2,"stimulus":[],"xmouse":[778,778,778,778,777,773,766,757,753,749,742,728,714,714,714,714,714,714,714,714,714,714,714,714,714,714,714,714,714,714,714,714,714,714,714,714,714,719,735,747,761,776,782,792,796,800,806,814,839,850,872,882,899,929,941,953,962,973,1010,1034,1059,1073],"ymouse":[515,515,515,515,514,511,506,498,495,490,477,444,421,421,421,421,421,421,421,421,421,421,421,421,421,421,421,421,421,421,421,421,421,421,421,421,421,427,452,465,478,488,493,500,502,505,508,510,513,513,512,508,496,450,424,394,368,339,245,184,125,76],"timestamp_mouse":[11,39,48,68,87,108,127,149,168,188,207,229,249,267,288,308,328,347,368,388,408,427,448,469,487,508,527,549,567,587,608,628,647,667,687,707,727,748,767,787,808,828,848,868,888,908,927,949,968,987,1007,1028,1048,1067,1087,1107,1127,1147,1167,1188,1209,1228],"xSR":741.5,"ySR":469.95,"xT1":424.9,"yT1":0,"xT2":1058.1,"yT2":0,"toosoon":0,"cond_shown":"Congruent","ratio_trial":100,"L_num":11,"L_den":22,"R_num":6,"R_den":15,"correct_side":1,"subjID":"JUANAMARTINEZLAVERDE16","gender":"1","school":"4","age":"9"},{"start_time":1552073728927,"click_time":1552073729126,"finger_time":1552073729046,"fix_duration":1299.8849488743838,"trial":29,"RT":119,"MT":80,"sideResp":1,"stimulus":[],"xmouse":[800,800,800,797,788,770,729,562,484,454],"ymouse":[496,496,496,496,485,460,405,214,125,81],"timestamp_mouse":[19,39,58,78,99,119,138,158,178,199],"xSR":741.5,"ySR":469.95,"xT1":424.9,"yT1":0,"xT2":1058.1,"yT2":0,"toosoon":0,"cond_shown":"Congruent","ratio_trial":300,"L_num":20,"L_den":25,"R_num":13,"R_den":26,"correct_side":1,"subjID":"JUANAMARTINEZLAVERDE16","gender":"1","school":"4","age":"9"},{"start_time":1552073731238,"click_time":1552073731625,"finger_time":1552073731565,"fix_duration":250,"trial":30,"RT":327,"MT":60,"sideResp":1,"stimulus":[],"xmouse":[787,787,787,787,787,787,787,787,787,787,787,787,787,786,783,778,759,667,583,508],"ymouse":[505,505,505,505,505,505,505,505,505,505,505,505,505,502,493,477,433,258,144,53],"timestamp_mouse":[9,38,47,67,88,107,127,148,167,187,208,229,248,268,287,308,327,347,368,387],"xSR":741.5,"ySR":469.95,"xT1":424.9,"yT1":0,"xT2":1058.1,"yT2":0,"toosoon":0,"cond_shown":"Congruent","ratio_trial":300,"L_num":20,"L_den":25,"R_num":8,"R_den":16,"correct_side":1,"subjID":"JUANAMARTINEZLAVERDE16","gender":"1","school":"4","age":"9"},{"start_time":1552073735888,"click_time":1552073738367,"finger_time":1552073736346,"fix_duration":381.6287553030919,"trial":31,"RT":458,"MT":2021,"sideResp":2,"stimulus":[],"xmouse":[806,806,806,806,806,806,806,806,806,806,806,806,806,806,806,806,806,806,806,806,807,808,862,898,912,917,918,918,918,918,918,918,918,918,918,918,918,918,918,918,918,918,922,925,936,936,939,943,948,952,958,962,967,969,970,970,970,970,970,962,944,921,911,861,779,768,763,759,757,755,754,752,751,751,751,751,751,751,751,756,760,762,763,763,763,763,763,763,765,770,773,773,773,773,773,773,773,773,773,773,774,776,786,791,826,842,857,875,914,936,964,985,998,1013,1017,1022,1026,1033,1054,1067,1080,1091,1103,1118],"ymouse":[515,515,515,515,515,515,515,515,515,515,515,515,515,515,515,515,515,515,515,515,506,504,407,321,288,266,256,256,256,256,256,256,256,256,256,256,256,256,256,256,256,256,252,247,235,235,231,228,223,219,215,210,205,203,202,202,202,202,202,207,229,253,264,319,471,497,512,524,530,541,547,553,560,567,570,570,570,570,570,560,554,551,550,549,549,549,549,548,545,542,540,539,539,539,539,539,539,539,539,539,538,536,529,525,481,456,436,411,364,340,314,294,278,252,245,239,232,222,197,178,157,131,105,66],"timestamp_mouse":[18,42,58,78,98,118,139,157,178,199,218,237,257,277,297,317,338,358,378,398,417,438,458,479,497,517,539,557,578,597,618,638,657,678,697,717,739,757,777,798,817,837,857,878,898,918,938,958,978,997,1018,1038,1059,1078,1098,1117,1138,1157,1178,1197,1218,1237,1257,1277,1297,1317,1337,1358,1378,1397,1417,1439,1459,1478,1498,1517,1538,1559,1578,1597,1617,1638,1659,1678,1698,1719,1738,1757,1777,1798,1819,1838,1858,1879,1897,1918,1938,1959,1978,1999,2017,2037,2058,2077,2099,2117,2138,2157,2179,2197,2217,2237,2258,2279,2298,2318,2337,2358,2379,2397,2418,2438,2458,2478],"xSR":741.5,"ySR":469.95,"xT1":424.9,"yT1":0,"xT2":1058.1,"yT2":0,"toosoon":0,"cond_shown":"Congruent","ratio_trial":300,"L_num":1,"L_den":5,"R_num":3,"R_den":6,"correct_side":2,"subjID":"JUANAMARTINEZLAVERDE16","gender":"1","school":"4","age":"9"},{"start_time":1552073740676,"click_time":1552073741367,"finger_time":1552073740806,"fix_duration":988.6053889638815,"trial":32,"RT":130,"MT":561,"sideResp":1,"stimulus":[],"xmouse":[780,784,784,786,787,795,810,832,882,933,979,979,979,979,979,979,979,979,979,979,979,979,979,979,979,979,979,979,979,979,979,979,979,979,442],"ymouse":[501,496,496,493,491,480,458,430,332,198,21,21,21,21,21,21,21,21,21,21,21,21,21,21,21,21,21,21,21,21,21,21,21,21,15],"timestamp_mouse":[15,47,50,70,89,110,130,150,170,189,209,229,250,269,291,310,340,351,370,391,410,429,449,469,490,511,531,549,571,590,610,630,650,670,691],"xSR":741.5,"ySR":469.95,"xT1":424.9,"yT1":0,"xT2":1058.1,"yT2":0,"toosoon":0,"cond_shown":"Congruent","ratio_trial":200,"L_num":16,"L_den":30,"R_num":9,"R_den":27,"correct_side":1,"subjID":"JUANAMARTINEZLAVERDE16","gender":"1","school":"4","age":"9"},{"start_time":1552073749433,"click_time":1552073751165,"finger_time":1552073749445,"fix_duration":926.8574358745093,"trial":33,"RT":12,"MT":1720,"sideResp":1,"stimulus":[],"xmouse":[432,432,432,432,432,432,432,432,432,432,432,432,432,432,432,432,432,432,432,432,432,432,447,452,454,454,454,454,454,454,454,454,454,454,454,454,454,454,454,461,469,487,492,493,493,493,493,493,493,493,502,518,560,576,588,601,623,659,679,696,709,716,717,717,717,717,717,712,701,685,665,651,632,624,617,610,602,592,590,589,588,585,575,569,558,542,482],"ymouse":[258,258,258,258,258,258,258,258,258,258,258,258,258,258,258,258,258,258,258,258,258,258,252,249,248,248,248,248,248,248,248,248,248,248,248,248,248,248,248,245,239,227,222,220,220,220,220,220,220,219,222,231,264,285,304,325,355,387,399,407,414,417,417,417,417,417,417,399,377,353,319,294,249,223,199,177,152,127,122,117,112,106,90,81,73,64,40],"timestamp_mouse":[12,33,52,73,94,112,133,152,172,193,212,232,253,273,294,313,333,352,372,393,412,432,452,472,492,512,532,552,572,594,614,633,653,673,692,712,734,752,773,792,812,834,852,873,893,912,933,953,972,992,1012,1032,1052,1072,1092,1112,1133,1154,1172,1192,1212,1232,1253,1274,1292,1313,1332,1352,1372,1393,1412,1432,1452,1472,1492,1513,1533,1552,1573,1592,1612,1633,1653,1673,1693,1714,1732],"xSR":383.5,"ySR":208,"xT1":210.09999999999997,"yT1":0,"xT2":556.9,"yT2":0,"toosoon":0,"cond_shown":"Incongruent","ratio_trial":300,"L_num":13,"L_den":26,"R_num":12,"R_den":15,"correct_side":2,"subjID":"JUANAMARTINEZLAVERDE16","gender":"1","school":"4","age":"9"},{"start_time":1552073758579,"click_time":1552073760787,"finger_time":1552073758885,"fix_duration":591.3196642134011,"trial":34,"RT":306,"MT":1902,"sideResp":2,"stimulus":[],"xmouse":[808,808,808,808,808,808,808,808,808,808,808,808,808,808,806,790,774,756,742,735,735,735,735,735,735,735,735,735,735,735,735,735,735,735,735,735,735,736,741,752,767,777,781,786,787,787,787,787,787,787,787,787,787,787,787,787,787,787,787,787,787,787,787,787,787,787,787,787,787,787,797,841,920,1009,1156,1189,1208,1219,1231,1249,1314,1404,1512,1512,1512,1512,1512,1512,1512,1512,1512,1512,936,936,943,952,965,982,1000,1027,1036,1036,1040,1057,1122,1159,1175,1183,1183,1182,1120],"ymouse":[481,481,481,481,481,481,481,481,481,481,481,481,481,481,479,455,435,414,400,393,393,393,393,393,393,392,392,392,392,392,392,392,392,392,392,392,392,391,397,421,477,513,526,545,553,554,554,554,554,554,554,554,554,554,554,554,554,554,554,554,554,554,554,554,554,554,554,554,554,554,547,503,451,413,353,338,329,321,312,295,230,140,40,40,40,40,40,40,40,40,40,40,48,72,130,168,203,225,240,250,250,250,249,233,165,126,113,100,96,94,70],"timestamp_mouse":[11,40,46,66,87,108,127,146,167,186,206,227,246,268,286,306,327,348,367,386,408,426,446,467,488,506,528,548,567,588,606,626,646,668,687,706,727,746,767,786,806,826,846,866,887,907,928,946,967,987,1007,1028,1047,1066,1086,1108,1127,1148,1167,1187,1206,1228,1247,1267,1287,1308,1327,1346,1366,1387,1407,1426,1447,1466,1488,1507,1526,1546,1567,1587,1607,1627,1648,1667,1688,1706,1726,1746,1767,1787,1807,1826,1846,1866,1888,1906,1926,1946,1967,1988,2008,2027,2047,2066,2087,2106,2126,2146,2167,2186,2207],"xSR":741.5,"ySR":469.95,"xT1":424.9,"yT1":0,"xT2":1058.1,"yT2":0,"toosoon":0,"cond_shown":"Congruent","ratio_trial":200,"L_num":3,"L_den":12,"R_num":9,"R_den":20,"correct_side":2,"subjID":"JUANAMARTINEZLAVERDE16","gender":"1","school":"4","age":"9"},{"start_time":1552073767519,"click_time":1552073769207,"finger_time":1552073767867,"fix_duration":430.77763795843305,"trial":35,"RT":348,"MT":1340,"sideResp":2,"stimulus":[],"xmouse":[784,784,784,784,784,784,784,784,784,784,784,784,784,784,784,784,781,769,706,692,692,692,692,692,692,692,692,692,692,692,692,692,692,692,692,692,692,705,732,775,827,889,962,962,962,962,962,962,962,962,962,963,967,973,973,973,973,982,986,993,1001,1012,1021,1021,1021,1021,1021,1024,1032,1037,1043,1049,1052,1057,1059,1061,1062,1065,1066,1067,1068,1068,1070,1071,1071],"ymouse":[506,506,506,506,506,506,506,506,506,506,506,506,506,506,506,505,494,444,306,285,285,285,285,285,285,285,285,285,285,285,285,285,285,285,285,285,285,323,380,455,535,618,683,683,683,683,683,683,683,676,667,662,639,594,561,514,480,456,448,431,415,395,370,370,370,370,370,358,343,330,313,291,267,220,211,206,202,200,198,198,197,197,194,170,99],"timestamp_mouse":[10,38,47,67,88,109,129,148,168,188,207,229,248,268,288,308,328,348,367,387,408,427,449,469,488,507,527,549,567,588,608,627,648,668,687,708,727,748,767,787,807,828,849,867,888,909,927,948,967,988,1007,1027,1047,1067,1087,1107,1127,1148,1167,1187,1208,1227,1248,1267,1287,1308,1327,1348,1367,1387,1407,1428,1447,1467,1487,1508,1527,1549,1567,1587,1607,1628,1647,1667,1688],"xSR":741.5,"ySR":469.95,"xT1":424.9,"yT1":0,"xT2":1058.1,"yT2":0,"toosoon":0,"cond_shown":"Congruent","ratio_trial":200,"L_num":4,"L_den":8,"R_num":3,"R_den":10,"correct_side":1,"subjID":"JUANAMARTINEZLAVERDE16","gender":"1","school":"4","age":"9"},{"start_time":1552073771257,"click_time":1552073772847,"finger_time":1552073771707,"fix_duration":250,"trial":36,"RT":450,"MT":1140,"sideResp":2,"stimulus":[],"xmouse":[777,777,777,777,777,777,777,777,777,777,777,777,777,777,777,777,777,777,777,777,776,776,776,778,787,796,796,796,796,796,796,796,796,796,796,796,796,796,796,796,796,796,796,796,796,796,796,796,796,796,796,796,796,796,802,805,805,808,821,842,852,860,864,876,913,952,955,955,955,955,958,975,989,999,1004,1012,1012,1020,1031,1063],"ymouse":[511,511,511,511,511,511,511,511,511,511,511,511,511,511,511,511,511,510,509,507,497,473,456,438,418,402,402,402,402,402,402,402,402,402,402,402,402,402,402,402,402,402,402,402,402,402,402,402,402,402,402,411,442,473,492,496,496,493,462,427,411,402,397,373,311,208,141,102,89,81,74,50,33,23,19,19,19,19,23,33],"timestamp_mouse":[21,29,49,69,89,111,130,149,169,189,209,229,249,269,289,310,331,350,370,389,409,429,450,470,489,511,529,550,569,589,610,630,651,669,690,710,729,749,770,790,811,829,849,870,890,911,929,950,969,989,1009,1030,1050,1069,1089,1110,1130,1149,1170,1189,1210,1229,1249,1269,1290,1311,1330,1349,1369,1389,1410,1429,1450,1470,1490,1510,1529,1549,1569,1589],"xSR":741.5,"ySR":469.95,"xT1":424.9,"yT1":0,"xT2":1058.1,"yT2":0,"toosoon":0,"cond_shown":"Incongruent","ratio_trial":300,"L_num":2,"L_den":4,"R_num":6,"R_den":30,"correct_side":1,"subjID":"JUANAMARTINEZLAVERDE16","gender":"1","school":"4","age":"9"},{"start_time":1552073779508,"click_time":1552073781047,"finger_time":1552073779568,"fix_duration":860.6357037837304,"trial":37,"RT":60,"MT":1479,"sideResp":2,"stimulus":[],"xmouse":[785,786,786,786,779,777,776,776,776,776,776,776,776,776,776,776,776,776,776,776,776,776,776,776,776,776,776,776,776,776,776,776,779,787,789,790,791,793,794,794,795,795,795,799,814,835,840,860,889,896,901,904,908,915,915,915,918,927,982,982,990,1032,1081,1089,1089,1089,1089,1089,1090,1090,1090,1090,1091,1093,1097,1101,1113],"ymouse":[510,486,410,390,367,349,341,340,340,340,340,340,340,340,340,340,340,340,340,340,340,340,340,340,340,340,340,340,340,340,351,362,379,412,417,419,422,425,427,428,428,428,429,428,421,407,400,372,321,302,290,283,278,270,270,270,268,259,230,230,224,199,171,166,166,166,166,165,164,164,162,160,158,145,130,114,87],"timestamp_mouse":[19,40,60,79,98,118,138,158,179,199,220,239,258,278,299,318,338,359,380,398,418,438,460,485,498,518,539,559,579,598,618,639,659,678,698,718,738,760,778,798,819,839,859,880,898,918,938,960,978,998,1018,1039,1059,1078,1098,1119,1138,1159,1178,1199,1219,1239,1259,1278,1299,1319,1338,1359,1378,1399,1418,1439,1458,1479,1499,1519,1539],"xSR":741.5,"ySR":469.95,"xT1":424.9,"yT1":0,"xT2":1058.1,"yT2":0,"toosoon":0,"cond_shown":"Incongruent","ratio_trial":100,"L_num":9,"L_den":15,"R_num":13,"R_den":26,"correct_side":1,"subjID":"JUANAMARTINEZLAVERDE16","gender":"1","school":"4","age":"9"},{"start_time":1552073786758,"click_time":1552073792707,"finger_time":1552073792467,"fix_duration":250,"trial":38,"RT":5709,"MT":240,"sideResp":2,"stimulus":[],"xmouse":[808,808,808,808,808,808,808,808,807,806,805,804,804,804,804,803,803,803,802,801,801,801,801,801,801,801,801,800,800,800,800,799,799,799,799,799,799,799,799,799,799,799,799,799,799,799,799,799,799,799,799,799,799,799,799,799,799,799,799,799,799,799,799,799,799,799,799,799,799,799,799,799,799,799,799,799,799,799,799,799,799,799,799,799,799,799,799,799,799,799,799,799,799,799,799,799,799,799,799,799,799,799,799,799,799,799,799,799,799,799,799,799,799,799,799,799,799,799,799,799,799,799,799,799,799,799,799,799,799,799,799,799,799,799,799,799,799,799,799,799,799,799,799,799,799,799,799,799,799,799,799,799,799,799,799,799,799,799,799,799,799,799,799,799,799,799,799,799,799,799,799,799,799,799,799,799,799,799,799,799,799,799,799,799,799,799,799,799,799,799,799,799,799,799,799,799,799,799,799,799,799,799,799,799,799,799,799,799,799,799,799,799,799,799,799,799,799,799,799,799,799,799,799,799,799,799,799,799,799,798,796,795,795,795,795,795,795,795,795,795,795,794,794,794,794,793,792,791,791,790,788,785,784,783,782,782,782,782,782,782,782,782,782,782,782,781,779,778,778,778,778,778,778,778,778,778,778,778,778,778,778,778,778,792,806,834,846,858,874,890,929,939,953,972,991,1036,1057,1075],"ymouse":[512,512,512,512,512,512,512,512,513,514,515,516,516,516,516,517,517,517,518,518,518,518,518,518,519,519,519,520,520,520,520,521,521,521,521,521,521,521,521,521,521,521,521,521,521,521,521,521,521,521,521,521,521,521,521,521,521,521,521,521,521,521,521,521,521,521,521,521,521,521,521,521,521,521,521,521,521,521,521,521,521,521,521,521,521,521,521,521,521,521,521,521,521,521,521,521,521,521,521,521,521,521,521,521,521,521,521,521,521,521,521,521,521,521,521,521,521,521,521,521,521,521,521,521,521,521,521,521,521,521,521,521,521,521,521,521,521,521,521,521,521,521,521,521,521,521,521,521,521,521,521,521,521,521,521,521,521,521,521,521,521,521,521,521,521,521,521,521,521,521,521,521,521,521,521,521,521,521,521,521,521,521,521,521,521,521,521,521,521,521,521,521,521,521,521,521,521,521,521,521,521,521,521,521,521,521,521,521,521,521,521,521,521,521,521,521,521,521,521,521,521,521,521,521,521,521,521,521,521,521,520,520,520,520,520,520,520,520,520,520,519,519,519,519,519,519,519,518,517,517,512,508,505,504,503,503,502,502,502,502,502,502,502,502,502,501,499,499,499,499,499,499,499,499,499,499,499,499,499,499,499,499,499,491,485,466,451,431,405,372,310,299,280,257,227,149,108,65],"timestamp_mouse":[12,40,49,68,89,109,128,149,168,190,208,228,248,270,289,310,328,349,368,389,410,430,449,468,489,509,528,549,570,589,608,629,648,669,688,710,729,749,770,789,809,828,849,868,888,908,929,950,968,988,1008,1028,1048,1069,1089,1110,1128,1148,1168,1189,1209,1229,1248,1268,1290,1309,1329,1349,1368,1388,1408,1429,1448,1470,1489,1508,1528,1549,1568,1588,1609,1629,1648,1669,1689,1709,1729,1748,1769,1789,1810,1829,1849,1869,1890,1909,1928,1949,1968,1988,2008,2029,2049,2069,2088,2109,2129,2149,2169,2189,2208,2229,2250,2268,2289,2310,2329,2349,2368,2389,2409,2428,2450,2468,2489,2509,2528,2548,2569,2590,2609,2629,2649,2670,2688,2709,2730,2748,2769,2789,2809,2828,2848,2869,2889,2910,2929,2949,2970,2989,3010,3029,3050,3069,3089,3109,3128,3148,3168,3189,3208,3229,3248,3268,3288,3308,3329,3348,3369,3388,3408,3428,3449,3469,3488,3508,3529,3548,3568,3589,3610,3629,3650,3669,3688,3710,3728,3748,3770,3789,3808,3828,3849,3868,3888,3909,3930,3948,3969,3988,4009,4030,4048,4069,4089,4109,4130,4148,4169,4190,4209,4229,4250,4268,4289,4309,4330,4348,4369,4390,4409,4429,4449,4468,4488,4508,4530,4549,4568,4589,4609,4628,4649,4668,4688,4708,4728,4749,4768,4788,4809,4829,4849,4869,4890,4909,4928,4949,4969,4989,5009,5029,5049,5068,5089,5110,5129,5149,5168,5188,5209,5229,5248,5269,5289,5309,5328,5349,5369,5388,5409,5429,5448,5468,5489,5509,5528,5550,5569,5589,5609,5628,5648,5669,5688,5709,5728,5748,5769,5790,5810,5828,5848,5869,5888,5909,5928,5949],"xSR":741.5,"ySR":469.95,"xT1":424.9,"yT1":0,"xT2":1058.1,"yT2":0,"toosoon":0,"cond_shown":"Incongruent","ratio_trial":300,"L_num":4,"L_den":20,"R_num":2,"R_den":4,"correct_side":2,"subjID":"JUANAMARTINEZLAVERDE16","gender":"1","school":"4","age":"9"},{"start_time":1552073795518,"click_time":1552073796788,"finger_time":1552073795927,"fix_duration":1489.2521588536963,"trial":39,"RT":409,"MT":861,"sideResp":2,"stimulus":[],"xmouse":[776,776,776,776,776,776,776,776,776,776,776,776,776,776,776,776,776,768,761,750,736,719,681,680,676,673,673,671,655,647,644,644,644,644,644,644,644,644,644,644,644,644,644,644,644,644,644,644,654,671,689,711,748,762,767,794,816,833,870,870,899,942,1045,1152],"ymouse":[508,508,508,508,508,508,508,508,508,508,508,508,508,508,508,508,508,497,488,472,454,438,406,405,401,398,398,396,383,378,376,376,376,376,376,376,376,376,376,376,376,376,376,376,376,376,376,376,390,410,424,439,452,453,453,453,453,450,424,424,397,353,221,84],"timestamp_mouse":[12,38,49,69,88,108,129,148,169,189,209,229,248,268,289,309,330,349,368,389,408,429,450,468,488,509,528,549,568,589,609,628,650,670,688,708,728,750,768,790,810,828,849,869,889,909,928,950,969,989,1010,1029,1048,1068,1088,1109,1128,1149,1169,1188,1208,1229,1249,1270],"xSR":741.5,"ySR":469.95,"xT1":424.9,"yT1":0,"xT2":1058.1,"yT2":0,"toosoon":0,"cond_shown":"Congruent","ratio_trial":300,"L_num":20,"L_den":25,"R_num":8,"R_den":16,"correct_side":1,"subjID":"JUANAMARTINEZLAVERDE16","gender":"1","school":"4","age":"9"},{"start_time":1552073799518,"click_time":1552073801306,"finger_time":1552073800686,"fix_duration":1029.1559623776316,"trial":40,"RT":1168,"MT":620,"sideResp":2,"stimulus":[],"xmouse":[759,759,759,759,759,759,759,759,759,759,759,759,759,759,759,759,759,759,759,759,759,759,759,759,759,759,759,759,759,759,759,759,759,759,759,759,759,759,759,759,759,759,759,759,759,759,759,762,768,769,770,770,770,770,771,771,772,773,773,759,756,742,715,709,709,709,709,709,709,709,709,709,709,708,712,718,724,730,739,746,760,787,917,969,995,1002,1017,1028,1052,1066],"ymouse":[529,529,529,529,529,529,529,529,529,529,529,529,529,529,529,529,529,529,529,529,529,529,529,529,529,529,529,529,529,529,529,529,529,529,529,529,529,529,529,529,529,529,529,529,529,529,529,525,518,515,514,514,514,512,511,507,502,490,431,366,358,318,275,267,267,267,267,267,267,267,267,267,267,268,282,295,307,312,313,313,305,287,193,156,132,124,103,88,69,61],"timestamp_mouse":[10,37,50,69,89,108,128,149,169,188,208,228,249,270,289,309,328,348,368,390,410,428,448,481,488,508,528,548,568,590,609,628,649,669,689,708,729,750,768,789,809,829,848,870,889,908,928,948,968,989,1008,1029,1049,1069,1088,1108,1128,1148,1168,1188,1208,1229,1250,1268,1288,1308,1328,1349,1368,1390,1410,1430,1449,1470,1489,1508,1528,1548,1568,1589,1608,1628,1649,1668,1689,1708,1728,1748,1768,1788],"xSR":741.5,"ySR":469.95,"xT1":424.9,"yT1":0,"xT2":1058.1,"yT2":0,"toosoon":0,"cond_shown":"Congruent","ratio_trial":100,"L_num":15,"L_den":25,"R_num":13,"R_den":26,"correct_side":1,"subjID":"JUANAMARTINEZLAVERDE16","gender":"1","school":"4","age":"9"},{"start_time":1552073806366,"click_time":1552073807727,"finger_time":1552073806746,"fix_duration":999.4843605004264,"trial":41,"RT":380,"MT":981,"sideResp":2,"stimulus":[],"xmouse":[790,790,790,790,790,790,790,790,790,790,790,790,790,790,790,790,790,789,787,763,749,695,693,693,693,693,693,693,693,693,693,693,693,693,693,693,693,693,693,693,693,693,693,693,693,699,717,728,737,748,762,795,817,863,897,951,1025,1041,1053,1063,1063,1085,1090,1094,1095,1097,1097,1096,1093],"ymouse":[477,477,477,477,477,477,477,477,477,477,477,477,477,477,477,477,477,472,470,404,371,289,286,286,286,286,286,286,286,286,286,286,286,286,286,286,286,286,286,286,286,286,286,286,290,305,329,339,345,348,349,345,333,319,309,293,253,237,219,199,199,160,147,138,128,111,109,102,95],"timestamp_mouse":[9,20,40,61,80,100,120,142,160,181,201,220,241,261,281,301,321,341,360,380,400,420,440,462,481,501,520,540,561,580,601,620,641,661,680,701,720,740,761,780,801,820,841,860,880,900,920,941,960,981,1001,1020,1040,1060,1080,1100,1120,1140,1161,1180,1200,1221,1241,1260,1281,1301,1320,1341,1361],"xSR":741.5,"ySR":469.95,"xT1":424.9,"yT1":0,"xT2":1058.1,"yT2":0,"toosoon":0,"cond_shown":"Incongruent","ratio_trial":200,"L_num":4,"L_den":6,"R_num":14,"R_den":30,"correct_side":1,"subjID":"JUANAMARTINEZLAVERDE16","gender":"1","school":"4","age":"9"},{"start_time":1552073809351,"click_time":1552073811787,"finger_time":1552073811606,"fix_duration":483.1461916391764,"trial":42,"RT":2255,"MT":181,"sideResp":2,"stimulus":[],"xmouse":[777,776,776,776,776,776,776,776,776,776,776,776,776,776,776,776,776,776,776,776,776,776,776,776,776,776,776,776,776,776,776,776,776,778,779,781,781,781,781,781,781,781,781,781,781,781,781,781,781,781,781,781,781,781,781,781,781,781,781,781,781,781,781,781,781,781,781,781,781,781,781,781,781,781,781,781,781,781,781,781,781,781,781,781,781,781,781,781,781,781,781,781,781,781,781,781,781,781,781,781,781,781,781,781,781,781,781,781,781,781,781,782,797,826,886,990,1026,1052,1079,1101,1118,1135],"ymouse":[484,484,482,481,480,479,479,479,479,479,479,479,479,479,479,479,479,479,479,479,478,478,478,478,478,478,478,477,477,477,477,476,476,476,474,474,473,473,473,473,473,473,473,473,473,473,473,473,473,473,473,473,473,473,473,473,473,473,473,473,473,473,473,473,473,473,473,473,473,473,473,473,473,473,473,473,473,473,473,473,473,473,473,473,473,473,473,473,473,473,473,473,473,473,473,473,473,473,473,473,473,473,473,473,473,473,473,473,473,473,473,470,451,424,382,314,286,258,218,176,140,82],"timestamp_mouse":[15,36,55,76,95,116,135,155,175,195,216,237,255,276,295,315,335,355,377,395,415,436,456,475,495,515,536,555,577,596,615,636,655,675,695,717,735,755,775,796,815,835,855,876,895,917,936,955,975,995,1016,1036,1056,1076,1095,1115,1137,1156,1176,1195,1215,1235,1255,1277,1295,1315,1335,1355,1376,1395,1415,1437,1455,1475,1495,1517,1535,1555,1576,1596,1616,1636,1655,1676,1697,1716,1736,1755,1776,1796,1815,1837,1855,1875,1896,1916,1936,1956,1977,1997,2016,2036,2056,2076,2095,2116,2136,2156,2176,2196,2215,2237,2255,2276,2296,2316,2335,2357,2375,2396,2415,2436],"xSR":741.5,"ySR":469.95,"xT1":424.9,"yT1":0,"xT2":1058.1,"yT2":0,"toosoon":0,"cond_shown":"Congruent","ratio_trial":200,"L_num":6,"L_den":12,"R_num":7,"R_den":10,"correct_side":2,"subjID":"JUANAMARTINEZLAVERDE16","gender":"1","school":"4","age":"9"},{"start_time":1552073813019,"click_time":1552073814367,"finger_time":1552073813426,"fix_duration":250,"trial":43,"RT":407,"MT":941,"sideResp":2,"stimulus":[],"xmouse":[794,794,794,793,793,793,793,792,792,792,792,792,791,791,791,791,791,791,791,791,791,791,799,808,818,835,862,866,866,866,866,866,866,866,866,866,866,866,866,866,866,866,866,866,866,867,869,875,879,886,890,890,892,893,901,905,909,915,924,928,931,935,946,967,1000,1048,1078,1115],"ymouse":[482,481,478,476,476,475,475,473,473,473,473,473,472,472,472,472,472,472,472,472,469,468,454,440,423,383,314,305,305,305,305,305,305,305,305,305,305,305,305,305,305,305,305,305,305,305,309,319,324,330,331,331,331,331,324,314,307,297,278,269,259,247,221,185,161,125,104,81],"timestamp_mouse":[9,27,53,68,88,108,128,148,168,187,207,227,248,267,287,308,327,348,367,388,407,427,449,467,488,507,528,549,567,588,608,628,648,667,687,709,727,748,767,787,808,827,849,868,888,907,927,949,967,988,1008,1028,1048,1067,1089,1108,1128,1147,1167,1187,1207,1227,1248,1267,1287,1307,1328,1347],"xSR":741.5,"ySR":469.95,"xT1":424.9,"yT1":0,"xT2":1058.1,"yT2":0,"toosoon":0,"cond_shown":"Incongruent","ratio_trial":300,"L_num":3,"L_den":6,"R_num":4,"R_den":20,"correct_side":1,"subjID":"JUANAMARTINEZLAVERDE16","gender":"1","school":"4","age":"9"},{"start_time":1552073820614,"click_time":1552073822987,"finger_time":1552073821226,"fix_duration":626.6764637152528,"trial":44,"RT":612,"MT":1761,"sideResp":2,"stimulus":[],"xmouse":[796,796,796,796,796,796,796,796,796,796,796,796,796,796,796,796,796,796,796,796,796,796,796,796,796,796,796,796,796,794,769,739,713,713,713,713,713,713,713,713,713,713,713,713,713,713,713,713,713,713,713,713,720,728,732,734,735,737,737,737,737,737,737,737,737,737,737,737,737,737,738,734,732,734,739,746,757,767,796,802,804,804,804,804,804,804,804,804,804,811,830,852,926,964,996,1058,1137,1221,1221,1221,1221,1221,1221,1221,1221,1221,1221,1221,1221,1221,1221,1221,1221,1057,1049,1047,1047,1052,1060],"ymouse":[521,521,521,521,521,521,521,521,521,521,521,521,521,521,521,521,521,521,521,521,521,521,521,521,521,521,521,521,521,496,404,324,279,279,279,279,279,279,279,279,279,279,279,279,279,279,279,279,279,279,279,279,279,283,289,294,299,303,303,303,303,303,303,303,303,303,303,303,303,305,330,365,402,414,424,437,454,468,502,507,507,507,507,507,507,507,507,507,507,507,491,466,393,338,300,210,118,13,13,13,13,13,13,13,13,13,13,13,13,13,13,13,13,5,23,36,40,49,50],"timestamp_mouse":[13,32,52,73,93,112,132,153,174,192,213,233,253,273,293,314,334,353,373,392,413,433,452,474,494,513,533,553,573,592,612,633,653,672,692,713,734,753,772,792,812,832,853,872,893,913,932,953,973,992,1013,1032,1052,1072,1092,1112,1132,1153,1173,1194,1214,1234,1253,1273,1293,1313,1333,1353,1373,1392,1413,1433,1453,1472,1492,1512,1533,1552,157