[{"start_time":1552328359154,"click_time":1552328361848,"finger_time":1552328359182,"fix_duration":442.57456953186124,"trial":0,"RT":28,"MT":2666,"sideResp":1,"stimulus":"img/500/equaldotsize/L/5_Ratio_500_L_4_R_2.png","xmouse":[748,748,752,752,752,752,754,754,757,758,758,758,758,759,759,759,759,760,761,767,770,775,778,782,784,785,785,786,787,792,797,800,801,801,801,801,801,801,801,801,800,798,796,794,793,790,789,788,787,787,787,787,787,787,786,786,785,785,785,785,785,785,785,785,785,785,785,785,785,785,785,785,785,785,785,785,785,785,785,785,785,785,785,785,785,785,785,785,785,785,785,785,785,785,785,785,785,785,785,785,785,780,776,771,755,749,733,721,705,681,673,667,663,660,649,644,635,633,632,632,627,618,606,592,563,555,543,539,537,537,537,537,534,531,517],"ymouse":[478,478,480,480,480,480,480,481,485,487,487,487,487,488,493,494,497,499,500,508,511,514,517,519,521,522,522,525,527,540,548,555,558,559,559,559,559,559,562,572,578,581,585,587,590,596,599,602,603,603,603,603,603,603,604,604,604,604,604,604,604,604,604,604,604,604,604,604,604,604,604,604,604,604,604,604,604,604,604,604,604,604,604,604,604,604,604,604,604,604,604,604,604,604,604,604,604,604,604,604,604,578,559,521,409,358,271,212,153,70,43,24,10,4,0,0,0,0,0,0,0,9,20,31,47,52,57,58,58,58,58,58,58,58,57],"timestamp_mouse":[28,33,53,74,93,112,133,153,172,193,214,233,252,272,293,313,333,354,374,393,413,434,453,473,492,513,532,553,573,593,613,633,652,672,693,712,733,754,773,792,813,832,852,874,893,914,932,954,973,993,1013,1032,1052,1072,1092,1112,1134,1154,1174,1194,1214,1233,1254,1274,1293,1313,1334,1353,1374,1394,1413,1433,1453,1473,1493,1514,1533,1552,1574,1594,1613,1633,1653,1673,1694,1712,1733,1753,1774,1794,1813,1833,1853,1873,1892,1913,1933,1954,1974,1994,2013,2033,2052,2073,2094,2112,2133,2152,2172,2192,2213,2233,2254,2273,2297,2312,2333,2353,2373,2394,2413,2433,2453,2473,2495,2512,2532,2552,2572,2593,2613,2632,2652,2672,2694],"xSR":741.5,"ySR":469.95,"xT1":424.9,"yT1":0,"xT2":1058.1,"yT2":0,"toosoon":0,"cond_shown":"equaldotsize","ratio_trial":500,"smaller_num":"2","larger_num":"4","correct_side":1,"subjID":"JuanaNeira28","gender":"1","age":"8","school":"4","test":{"fix_dur":[250,1500],"timestim":300,"targets_dim":[100,100],"targets_relative_coord":[0.3,0.7],"size_stim":[880,420],"start_dim":[100,100],"size_start":[300,300],"size_fix":60,"samplingrate":20,"img_types":["equaldotsize","equaldotanddens","randomdotsizeEA"],"ratios":[250,500,750,900],"rep_conds":9,"nTrials":120,"trials_to_rest":500,"Trials_order":[15,110,103,85,18,26,50,45,19,55,99,61,118,51,21,20,31,42,11,92,112,119,62,28,91,43,98,71,23,79,13,116,12,114,39,109,75,66,36,2,97,73,34,4,117,80,56,113,95,7,0,41,76,3,84,77,89,78,101,104,35,96,17,111,100,108,46,22,5,63,25,44,102,68,65,52,47,115,1,38,9,107,67,93,74,70,54,81,60,53,72,8,105,40,88,94,69,90,30,106,32,57,33,27,87,86,58,49,14,16,24,64,10,48,83,59,82,37,29,6],"cond_shown":["equaldotsize","randomdotsizeEA","equaldotanddens","equaldotanddens","equaldotsize","randomdotsizeEA","randomdotsizeEA","equaldotsize","equaldotanddens","equaldotanddens","equaldotsize","equaldotanddens","equaldotanddens","equaldotsize","equaldotsize","randomdotsizeEA","equaldotanddens","equaldotsize","randomdotsizeEA","randomdotsizeEA","equaldotanddens","randomdotsizeEA","randomdotsizeEA","equaldotanddens","equaldotanddens","equaldotanddens","randomdotsizeEA","randomdotsizeEA","randomdotsizeEA","equaldotanddens","equaldotanddens","randomdotsizeEA","equaldotsize","equaldotsize","equaldotsize","equaldotanddens","equaldotsize","equaldotsize","equaldotsize","randomdotsizeEA","equaldotanddens","equaldotanddens","equaldotanddens","equaldotanddens","equaldotsize","randomdotsizeEA","randomdotsizeEA","randomdotsizeEA","randomdotsizeEA","equaldotanddens","equaldotsize","randomdotsizeEA","equaldotanddens","equaldotsize","equaldotsize","randomdotsizeEA","randomdotsizeEA","equaldotsize","randomdotsizeEA","randomdotsizeEA","randomdotsizeEA","equaldotsize","randomdotsizeEA","equaldotsize","equaldotanddens","equaldotsize","equaldotanddens","equaldotanddens","randomdotsizeEA","equaldotsize","equaldotanddens","randomdotsizeEA","equaldotsize","randomdotsizeEA","randomdotsizeEA","equaldotanddens","randomdotsizeEA","equaldotanddens","equaldotanddens","randomdotsizeEA","equaldotsize","randomdotsizeEA","equaldotanddens","equaldotsize","randomdotsizeEA","equaldotanddens","equaldotsize","equaldotsize","equaldotsize","randomdotsizeEA","equaldotsize","randomdotsizeEA","equaldotsize","equaldotanddens","equaldotanddens","equaldotanddens","equaldotsize","equaldotsize","equaldotsize","equaldotanddens","randomdotsizeEA","equaldotsize","equaldotsize","equaldotsize","equaldotsize","randomdotsizeEA","equaldotanddens","equaldotanddens","randomdotsizeEA","equaldotanddens","equaldotsize","equaldotanddens","equaldotanddens","equaldotsize","randomdotsizeEA","randomdotsizeEA","equaldotanddens","equaldotanddens","randomdotsizeEA","equaldotsize"],"ratio_trial":[500,250,750,250,750,250,250,900,750,750,500,250,900,500,900,750,750,750,900,750,500,900,250,500,750,750,250,900,900,750,250,750,250,750,500,250,500,750,250,250,250,250,900,500,900,750,750,500,900,750,250,500,500,500,250,500,500,750,500,750,900,250,500,500,500,250,900,900,500,500,250,750,750,750,500,500,900,750,250,250,900,900,750,900,250,900,750,900,250,500,250,750,900,500,500,900,900,750,750,900,750,900,900,500,500,250,900,250,250,500,250,500,900,250,900,900,900,250,500,750],"smaller_num":["2","1","3","2","3","6","2","18","3","6","9","3","18","5","18","9","15","6","9","9","9","9","3","6","6","15","3","18","18","15","5","6","3","6","9","4","1","15","3","2","3","2","18","9","18","15","18","9","18","3","4","1","2","9","5","10","1","3","2","15","9","2","3","1","6","5","18","18","6","9","4","3","9","15","9","5","18","15","4","3","18","18","3","18","1","18","3","9","2","9","1","3","9","2","1","18","9","6","15","18","9","18","18","1","3","2","18","5","3","4","1","2","18","2","18","18","18","2","4","3"],"larger_num":["4","4","4","8","4","24","8","20","4","8","18","12","20","10","20","12","20","8","10","12","18","10","12","12","8","20","12","20","20","20","20","8","12","8","18","16","2","20","12","8","12","8","20","18","20","20","24","18","20","4","16","2","4","18","20","20","2","4","4","20","10","8","6","2","12","20","20","20","12","18","16","4","12","20","18","10","20","20","16","12","20","20","4","20","4","20","4","10","8","18","4","4","10","4","2","20","10","8","20","20","12","20","20","2","6","8","20","20","12","8","4","4","20","8","20","20","20","8","8","4"],"correct_side":[1,2,2,1,1,1,1,1,1,1,2,1,1,2,1,2,2,2,2,2,2,2,1,1,1,2,2,2,1,2,2,1,1,1,1,2,2,1,1,2,1,1,1,2,1,2,1,2,1,1,1,2,2,2,2,2,2,2,2,2,2,1,2,2,1,2,1,2,1,1,2,2,2,2,1,2,1,1,1,1,1,1,1,1,2,1,1,2,1,2,2,2,2,1,2,2,1,2,2,2,2,1,2,2,2,1,2,2,1,1,2,2,1,2,1,1,2,1,1,2],"img_shown":["img/500/equaldotsize/L/5_Ratio_500_L_4_R_2.png","img/250/randomdotsizeEA/R/8_Ratio_250_L_1_R_4.png","img/750/equaldotanddens/R/12_Ratio_750_L_3_R_4.png","img/250/equaldotanddens/L/1_Ratio_250_L_8_R_2.png","img/750/equaldotsize/L/10_Ratio_750_L_4_R_3.png","img/250/randomdotsizeEA/L/5_Ratio_250_L_24_R_6.png","img/250/randomdotsizeEA/L/7_Ratio_250_L_8_R_2.png","img/900/equaldotsize/L/8_Ratio_900_L_20_R_18.png","img/750/equaldotanddens/L/10_Ratio_750_L_4_R_3.png","img/750/equaldotanddens/L/13_Ratio_750_L_8_R_6.png","img/500/equaldotsize/R/1_Ratio_500_L_9_R_18.png","img/250/equaldotanddens/L/15_Ratio_250_L_12_R_3.png","img/900/equaldotanddens/L/2_Ratio_900_L_20_R_18.png","img/500/equaldotsize/R/14_Ratio_500_L_5_R_10.png","img/900/equaldotsize/L/10_Ratio_900_L_20_R_18.png","img/750/randomdotsizeEA/R/15_Ratio_750_L_9_R_12.png","img/750/equaldotanddens/R/5_Ratio_750_L_15_R_20.png","img/750/equaldotsize/R/2_Ratio_750_L_6_R_8.png","img/900/randomdotsizeEA/R/6_Ratio_900_L_9_R_10.png","img/750/randomdotsizeEA/R/15_Ratio_750_L_9_R_12.png","img/500/equaldotanddens/R/1_Ratio_500_L_9_R_18.png","img/900/randomdotsizeEA/R/6_Ratio_900_L_9_R_10.png","img/250/randomdotsizeEA/L/15_Ratio_250_L_12_R_3.png","img/500/equaldotanddens/L/11_Ratio_500_L_12_R_6.png","img/750/equaldotanddens/L/13_Ratio_750_L_8_R_6.png","img/750/equaldotanddens/R/3_Ratio_750_L_15_R_20.png","img/250/randomdotsizeEA/R/9_Ratio_250_L_3_R_12.png","img/900/randomdotsizeEA/R/12_Ratio_900_L_18_R_20.png","img/900/randomdotsizeEA/L/4_Ratio_900_L_20_R_18.png","img/750/equaldotanddens/R/5_Ratio_750_L_15_R_20.png","img/250/equaldotanddens/R/12_Ratio_250_L_5_R_20.png","img/750/randomdotsizeEA/L/14_Ratio_750_L_8_R_6.png","img/250/equaldotsize/L/14_Ratio_250_L_12_R_3.png","img/750/equaldotsize/L/13_Ratio_750_L_8_R_6.png","img/500/equaldotsize/L/4_Ratio_500_L_18_R_9.png","img/250/equaldotanddens/R/10_Ratio_250_L_4_R_16.png","img/500/equaldotsize/R/12_Ratio_500_L_1_R_2.png","img/750/equaldotsize/L/1_Ratio_750_L_20_R_15.png","img/250/equaldotsize/L/14_Ratio_250_L_12_R_3.png","img/250/randomdotsizeEA/R/13_Ratio_250_L_2_R_8.png","img/250/equaldotanddens/L/14_Ratio_250_L_12_R_3.png","img/250/equaldotanddens/L/1_Ratio_250_L_8_R_2.png","img/900/equaldotanddens/L/8_Ratio_900_L_20_R_18.png","img/500/equaldotanddens/R/1_Ratio_500_L_9_R_18.png","img/900/equaldotsize/L/10_Ratio_900_L_20_R_18.png","img/750/randomdotsizeEA/R/3_Ratio_750_L_15_R_20.png","img/750/randomdotsizeEA/L/6_Ratio_750_L_24_R_18.png","img/500/randomdotsizeEA/R/6_Ratio_500_L_9_R_18.png","img/900/randomdotsizeEA/L/2_Ratio_900_L_20_R_18.png","img/750/equaldotanddens/L/9_Ratio_750_L_4_R_3.png","img/250/equaldotsize/L/2_Ratio_250_L_16_R_4.png","img/500/randomdotsizeEA/R/15_Ratio_500_L_1_R_2.png","img/500/equaldotanddens/R/9_Ratio_500_L_2_R_4.png","img/500/equaldotsize/R/6_Ratio_500_L_9_R_18.png","img/250/equaldotsize/R/12_Ratio_250_L_5_R_20.png","img/500/randomdotsizeEA/R/3_Ratio_500_L_10_R_20.png","img/500/randomdotsizeEA/R/12_Ratio_500_L_1_R_2.png","img/750/equaldotsize/R/7_Ratio_750_L_3_R_4.png","img/500/randomdotsizeEA/R/9_Ratio_500_L_2_R_4.png","img/750/randomdotsizeEA/R/3_Ratio_750_L_15_R_20.png","img/900/randomdotsizeEA/R/3_Ratio_900_L_9_R_10.png","img/250/equaldotsize/L/1_Ratio_250_L_8_R_2.png","img/500/randomdotsizeEA/R/2_Ratio_500_L_3_R_6.png","img/500/equaldotsize/R/15_Ratio_500_L_1_R_2.png","img/500/equaldotanddens/L/13_Ratio_500_L_12_R_6.png","img/250/equaldotsize/R/12_Ratio_250_L_5_R_20.png","img/900/equaldotanddens/L/4_Ratio_900_L_20_R_18.png","img/900/equaldotanddens/R/9_Ratio_900_L_18_R_20.png","img/500/randomdotsizeEA/L/13_Ratio_500_L_12_R_6.png","img/500/equaldotsize/L/4_Ratio_500_L_18_R_9.png","img/250/equaldotanddens/R/10_Ratio_250_L_4_R_16.png","img/750/randomdotsizeEA/R/7_Ratio_750_L_3_R_4.png","img/750/equaldotsize/R/15_Ratio_750_L_9_R_12.png","img/750/randomdotsizeEA/R/4_Ratio_750_L_15_R_20.png","img/500/randomdotsizeEA/L/4_Ratio_500_L_18_R_9.png","img/500/equaldotanddens/R/14_Ratio_500_L_5_R_10.png","img/900/randomdotsizeEA/L/8_Ratio_900_L_20_R_18.png","img/750/equaldotanddens/L/1_Ratio_750_L_20_R_15.png","img/250/equaldotanddens/L/2_Ratio_250_L_16_R_4.png","img/250/randomdotsizeEA/L/15_Ratio_250_L_12_R_3.png","img/900/equaldotsize/L/10_Ratio_900_L_20_R_18.png","img/900/randomdotsizeEA/L/10_Ratio_900_L_20_R_18.png","img/750/equaldotanddens/L/9_Ratio_750_L_4_R_3.png","img/900/equaldotsize/L/8_Ratio_900_L_20_R_18.png","img/250/randomdotsizeEA/R/8_Ratio_250_L_1_R_4.png","img/900/equaldotanddens/L/2_Ratio_900_L_20_R_18.png","img/750/equaldotsize/L/10_Ratio_750_L_4_R_3.png","img/900/equaldotsize/R/7_Ratio_900_L_9_R_10.png","img/250/equaldotsize/L/7_Ratio_250_L_8_R_2.png","img/500/randomdotsizeEA/R/1_Ratio_500_L_9_R_18.png","img/250/equaldotsize/R/8_Ratio_250_L_1_R_4.png","img/750/randomdotsizeEA/R/7_Ratio_750_L_3_R_4.png","img/900/equaldotsize/R/15_Ratio_900_L_9_R_10.png","img/500/equaldotanddens/L/10_Ratio_500_L_4_R_2.png","img/500/equaldotanddens/R/12_Ratio_500_L_1_R_2.png","img/900/equaldotanddens/R/13_Ratio_900_L_18_R_20.png","img/900/equaldotsize/L/1_Ratio_900_L_10_R_9.png","img/750/equaldotsize/R/2_Ratio_750_L_6_R_8.png","img/750/equaldotsize/R/3_Ratio_750_L_15_R_20.png","img/900/equaldotanddens/R/9_Ratio_900_L_18_R_20.png","img/750/randomdotsizeEA/R/15_Ratio_750_L_9_R_12.png","img/900/equaldotsize/L/2_Ratio_900_L_20_R_18.png","img/900/equaldotsize/R/13_Ratio_900_L_18_R_20.png","img/500/equaldotsize/R/12_Ratio_500_L_1_R_2.png","img/500/equaldotsize/R/2_Ratio_500_L_3_R_6.png","img/250/randomdotsizeEA/L/1_Ratio_250_L_8_R_2.png","img/900/equaldotanddens/R/12_Ratio_900_L_18_R_20.png","img/250/equaldotanddens/R/12_Ratio_250_L_5_R_20.png","img/250/randomdotsizeEA/L/15_Ratio_250_L_12_R_3.png","img/500/equaldotanddens/L/8_Ratio_500_L_8_R_4.png","img/250/equaldotsize/R/8_Ratio_250_L_1_R_4.png","img/500/equaldotanddens/R/9_Ratio_500_L_2_R_4.png","img/900/equaldotanddens/L/10_Ratio_900_L_20_R_18.png","img/250/equaldotsize/R/13_Ratio_250_L_2_R_8.png","img/900/randomdotsizeEA/L/2_Ratio_900_L_20_R_18.png","img/900/randomdotsizeEA/L/10_Ratio_900_L_20_R_18.png","img/900/equaldotanddens/R/14_Ratio_900_L_18_R_20.png","img/250/equaldotanddens/L/7_Ratio_250_L_8_R_2.png","img/500/randomdotsizeEA/L/8_Ratio_500_L_8_R_4.png","img/750/equaldotsize/R/7_Ratio_750_L_3_R_4.png"],"Rat0":[["12_Ratio_0_L_9_R_0.png","13_Ratio_0_L_6_R_0.png","5_Ratio_0_L_2_R_0.png","6_Ratio_0_L_4_R_0.png","8_Ratio_0_L_6_R_0.png"],["1_Ratio_0_L_0_R_17.png","10_Ratio_0_L_0_R_22.png","11_Ratio_0_L_0_R_1.png","14_Ratio_0_L_0_R_24.png","15_Ratio_0_L_0_R_4.png","2_Ratio_0_L_0_R_5.png","3_Ratio_0_L_0_R_17.png","4_Ratio_0_L_0_R_7.png","7_Ratio_0_L_0_R_19.png","9_Ratio_0_L_0_R_15.png"]],"Rat250":[["1_Ratio_250_L_8_R_2.png","14_Ratio_250_L_12_R_3.png","15_Ratio_250_L_12_R_3.png","2_Ratio_250_L_16_R_4.png","3_Ratio_250_L_8_R_2.png","5_Ratio_250_L_24_R_6.png","7_Ratio_250_L_8_R_2.png"],["10_Ratio_250_L_4_R_16.png","11_Ratio_250_L_3_R_12.png","12_Ratio_250_L_5_R_20.png","13_Ratio_250_L_2_R_8.png","4_Ratio_250_L_3_R_12.png","6_Ratio_250_L_6_R_24.png","8_Ratio_250_L_1_R_4.png","9_Ratio_250_L_3_R_12.png"]],"Rat500":[["10_Ratio_500_L_4_R_2.png","11_Ratio_500_L_12_R_6.png","13_Ratio_500_L_12_R_6.png","4_Ratio_500_L_18_R_9.png","5_Ratio_500_L_4_R_2.png","7_Ratio_500_L_10_R_5.png","8_Ratio_500_L_8_R_4.png"],["1_Ratio_500_L_9_R_18.png","12_Ratio_500_L_1_R_2.png","14_Ratio_500_L_5_R_10.png","15_Ratio_500_L_1_R_2.png","2_Ratio_500_L_3_R_6.png","3_Ratio_500_L_10_R_20.png","6_Ratio_500_L_9_R_18.png","9_Ratio_500_L_2_R_4.png"]],"Rat750":[["1_Ratio_750_L_20_R_15.png","10_Ratio_750_L_4_R_3.png","13_Ratio_750_L_8_R_6.png","14_Ratio_750_L_8_R_6.png","6_Ratio_750_L_24_R_18.png","8_Ratio_750_L_4_R_3.png","9_Ratio_750_L_4_R_3.png"],["11_Ratio_750_L_12_R_16.png","12_Ratio_750_L_3_R_4.png","15_Ratio_750_L_9_R_12.png","2_Ratio_750_L_6_R_8.png","3_Ratio_750_L_15_R_20.png","4_Ratio_750_L_15_R_20.png","5_Ratio_750_L_15_R_20.png","7_Ratio_750_L_3_R_4.png"]],"Rat900":[["1_Ratio_900_L_10_R_9.png","10_Ratio_900_L_20_R_18.png","2_Ratio_900_L_20_R_18.png","4_Ratio_900_L_20_R_18.png","8_Ratio_900_L_20_R_18.png"],["11_Ratio_900_L_18_R_20.png","12_Ratio_900_L_18_R_20.png","13_Ratio_900_L_18_R_20.png","14_Ratio_900_L_18_R_20.png","15_Ratio_900_L_9_R_10.png","3_Ratio_900_L_9_R_10.png","5_Ratio_900_L_9_R_10.png","6_Ratio_900_L_9_R_10.png","7_Ratio_900_L_9_R_10.png","9_Ratio_900_L_18_R_20.png"]],"Rat1000":[["10_Ratio_1000_L_16_R_16.png","11_Ratio_1000_L_6_R_6.png","12_Ratio_1000_L_14_R_14.png","13_Ratio_1000_L_20_R_20.png","15_Ratio_1000_L_15_R_15.png","2_Ratio_1000_L_17_R_17.png","4_Ratio_1000_L_9_R_9.png","5_Ratio_1000_L_6_R_6.png","6_Ratio_1000_L_19_R_19.png","8_Ratio_1000_L_14_R_14.png","9_Ratio_1000_L_25_R_25.png"],["1_Ratio_1000_L_1_R_1.png","14_Ratio_1000_L_17_R_17.png","3_Ratio_1000_L_17_R_17.png","7_Ratio_1000_L_6_R_6.png"]]}},{"start_time":1552328363540,"click_time":1552328365229,"finger_time":1552328364347,"fix_duration":371.6865086423743,"trial":1,"RT":807,"MT":882,"sideResp":1,"stimulus":"img/250/randomdotsizeEA/R/8_Ratio_250_L_1_R_4.png","xmouse":[797,797,797,797,797,797,797,797,797,797,797,797,797,797,797,797,797,797,797,797,797,797,797,797,797,797,797,797,797,797,797,797,797,797,797,797,797,798,805,812,840,862,893,923,952,995,1006,1015,1015,1015,1015,1015,1014,1005,996,986,982,977,970,962,937,922,904,889,876,839,807,782,759,732,685,660,637,618,599,570,560,553,550,547,545,537,532,528,523],"ymouse":[609,609,609,609,609,609,609,609,609,609,609,609,609,609,609,609,609,609,609,609,609,609,609,609,609,609,609,609,609,609,609,609,609,609,609,609,609,609,597,582,529,490,439,383,326,236,206,170,157,151,150,150,149,146,146,143,143,142,141,139,137,134,131,128,123,112,103,97,90,81,69,62,54,50,46,42,42,42,42,43,43,44,44,44,44],"timestamp_mouse":[13,32,46,68,86,106,126,147,167,188,207,227,246,267,287,307,326,348,366,386,407,426,447,467,488,507,528,547,567,588,607,627,647,668,688,706,727,747,767,786,807,827,847,866,888,906,928,947,966,986,1006,1026,1047,1067,1086,1107,1126,1147,1168,1187,1206,1227,1247,1266,1287,1306,1327,1346,1366,1386,1407,1426,1447,1467,1486,1506,1527,1547,1566,1587,1606,1626,1647,1667,1688],"xSR":741.5,"ySR":573.95,"xT1":424.9,"yT1":0,"xT2":1058.1,"yT2":0,"toosoon":0,"cond_shown":"randomdotsizeEA","ratio_trial":250,"smaller_num":"1","larger_num":"4","correct_side":2,"subjID":"JuanaNeira28","gender":"1","age":"8","school":"4"},{"start_time":1552328366690,"click_time":1552328368147,"finger_time":1552328367647,"fix_duration":281.8875198628955,"trial":2,"RT":957,"MT":500,"sideResp":1,"stimulus":"img/750/equaldotanddens/R/12_Ratio_750_L_3_R_4.png","xmouse":[790,790,790,790,790,790,790,790,790,790,790,790,790,790,790,790,790,790,790,790,790,790,790,790,790,790,790,790,790,790,790,790,790,790,790,790,790,790,790,790,790,790,790,790,790,790,788,756,725,711,675,653,629,627,626,621,617,610,593,570,556,547,545,545,545,545,545,545,545,545,542,532,500],"ymouse":[635,635,635,635,635,635,635,635,635,635,635,635,635,635,635,635,635,635,635,635,635,635,635,635,635,635,635,635,635,635,635,635,635,635,635,635,635,635,635,635,635,635,635,635,635,617,600,478,355,311,179,87,0,0,0,0,0,0,0,0,0,0,0,0,0,0,0,0,0,0,1,15,56],"timestamp_mouse":[17,37,56,77,96,116,137,157,176,196,216,237,257,277,297,316,336,356,378,398,417,437,456,478,498,517,537,557,577,598,616,637,657,677,697,716,737,757,776,798,816,837,858,877,897,916,936,957,976,997,1016,1037,1057,1077,1096,1116,1136,1156,1176,1197,1217,1237,1257,1277,1297,1318,1338,1358,1377,1397,1417,1436,1457],"xSR":741.5,"ySR":573.95,"xT1":424.9,"yT1":0,"xT2":1058.1,"yT2":0,"toosoon":0,"cond_shown":"equaldotanddens","ratio_trial":750,"smaller_num":"3","larger_num":"4","correct_side":2,"subjID":"JuanaNeira28","gender":"1","age":"8","school":"4"},{"start_time":1552328371419,"click_time":1552328372268,"finger_time":1552328372046,"fix_duration":250,"trial":3,"RT":627,"MT":222,"sideResp":2,"stimulus":"img/250/equaldotanddens/L/1_Ratio_250_L_8_R_2.png","xmouse":[798,798,798,798,798,798,798,798,797,796,796,796,796,796,796,796,796,796,796,796,796,796,796,796,796,796,796,796,796,803,806,826,844,856,868,879,903,915,927,942,957,1020,1089],"ymouse":[629,629,629,629,629,629,629,629,629,630,630,630,630,630,630,630,630,630,630,630,630,630,630,630,630,630,630,630,630,616,610,565,519,485,453,424,380,363,344,318,271,164,87],"timestamp_mouse":[18,33,49,68,88,108,127,147,169,188,207,227,248,267,288,309,328,349,368,387,408,429,448,468,488,509,527,549,567,587,609,627,648,668,687,707,727,747,767,787,809,827,848],"xSR":741.5,"ySR":573.95,"xT1":424.9,"yT1":0,"xT2":1058.1,"yT2":0,"toosoon":0,"cond_shown":"equaldotanddens","ratio_trial":250,"smaller_num":"2","larger_num":"8","correct_side":1,"subjID":"JuanaNeira28","gender":"1","age":"8","school":"4"},{"start_time":1552328374823,"click_time":1552328376228,"finger_time":1552328375826,"fix_duration":1455.3769639895277,"trial":4,"RT":1003,"MT":402,"sideResp":1,"stimulus":"img/750/equaldotsize/L/10_Ratio_750_L_4_R_3.png","xmouse":[829,829,829,829,829,829,829,829,829,829,829,829,829,829,829,829,829,829,829,829,829,829,829,829,829,829,829,829,829,829,829,829,829,829,829,829,829,829,829,829,829,829,829,829,829,829,829,829,827,821,801,718,687,655,639,624,608,603,600,596,594,578,569,557,554,551,547,542,536,528,514],"ymouse":[621,621,621,621,621,621,621,621,621,621,621,621,621,621,621,621,621,621,621,621,621,621,621,621,621,621,621,621,621,621,621,621,621,621,621,621,621,621,621,621,621,621,621,621,621,621,621,621,612,589,542,388,313,209,155,111,61,47,38,31,25,1,0,0,0,0,0,0,3,9,19],"timestamp_mouse":[13,39,43,63,85,104,123,145,164,183,205,224,245,263,285,304,323,343,365,385,403,423,445,464,484,505,525,545,564,584,605,625,643,663,684,705,725,744,763,784,804,825,845,863,884,905,924,943,965,984,1003,1024,1043,1063,1084,1103,1123,1143,1164,1183,1204,1224,1244,1263,1284,1305,1325,1343,1363,1383,1405],"xSR":741.5,"ySR":573.95,"xT1":424.9,"yT1":0,"xT2":1058.1,"yT2":0,"toosoon":0,"cond_shown":"equaldotsize","ratio_trial":750,"smaller_num":"3","larger_num":"4","correct_side":1,"subjID":"JuanaNeira28","gender":"1","age":"8","school":"4"},{"start_time":1552328377859,"click_time":1552328378787,"finger_time":1552328378467,"fix_duration":250,"trial":5,"RT":608,"MT":320,"sideResp":1,"stimulus":"img/250/randomdotsizeEA/L/5_Ratio_250_L_24_R_6.png","xmouse":[793,793,793,793,793,793,793,794,795,796,797,799,801,804,806,808,809,809,809,809,811,812,814,814,816,816,816,817,817,818,816,782,743,681,564,526,502,487,478,474,474,474,474,474,474,470,465],"ymouse":[587,587,587,587,586,585,584,583,583,583,583,583,584,586,587,588,588,588,588,588,588,588,588,588,587,587,587,587,587,581,561,465,373,264,30,0,0,0,0,0,0,0,0,0,0,0,3],"timestamp_mouse":[9,27,47,68,87,108,129,148,169,188,208,227,248,268,287,308,327,347,369,387,409,428,447,467,488,507,528,549,568,588,608,628,648,669,688,708,728,747,768,787,808,828,847,868,887,908,928],"xSR":741.5,"ySR":573.95,"xT1":424.9,"yT1":0,"xT2":1058.1,"yT2":0,"toosoon":0,"cond_shown":"randomdotsizeEA","ratio_trial":250,"smaller_num":"6","larger_num":"24","correct_side":1,"subjID":"JuanaNeira28","gender":"1","age":"8","school":"4"},{"start_time":1552328380485,"click_time":1552328381627,"finger_time":1552328381146,"fix_duration":516.2084069378813,"trial":6,"RT":661,"MT":481,"sideResp":1,"stimulus":"img/250/randomdotsizeEA/L/7_Ratio_250_L_8_R_2.png","xmouse":[783,784,784,784,784,784,784,784,784,784,784,784,784,784,784,784,784,784,784,785,785,785,785,785,785,785,785,785,785,785,785,785,785,781,772,766,753,741,721,711,698,690,683,663,652,642,634,627,613,598,588,576,563,545,541,537,531,523],"ymouse":[627,627,627,627,627,627,627,627,627,627,627,627,627,627,627,627,627,627,627,638,651,656,656,656,656,656,656,656,656,656,657,644,619,533,481,427,385,354,313,296,268,248,222,158,130,106,91,80,64,55,49,42,35,27,26,25,25,25],"timestamp_mouse":[1,35,42,62,81,102,122,143,162,182,203,222,242,261,283,301,322,342,362,382,401,422,442,462,481,502,522,543,562,581,602,622,642,661,681,702,721,742,762,781,802,822,841,861,881,901,922,942,961,981,1002,1021,1043,1062,1082,1103,1122,1142],"xSR":741.5,"ySR":573.95,"xT1":424.9,"yT1":0,"xT2":1058.1,"yT2":0,"toosoon":0,"cond_shown":"randomdotsizeEA","ratio_trial":250,"smaller_num":"2","larger_num":"8","correct_side":1,"subjID":"JuanaNeira28","gender":"1","age":"8","school":"4"},{"start_time":1552328385364,"click_time":1552328386326,"finger_time":1552328385826,"fix_duration":916.0739802782961,"trial":7,"RT":462,"MT":500,"sideResp":1,"stimulus":"img/900/equaldotsize/L/8_Ratio_900_L_20_R_18.png","xmouse":[760,760,760,760,760,760,760,760,760,760,760,760,760,760,760,760,760,760,760,760,760,756,750,745,731,722,718,707,699,675,661,648,636,623,608,602,595,591,588,581,579,575,570,567,558,551,542,526,519],"ymouse":[614,614,614,614,614,614,614,614,614,614,614,614,614,614,614,614,614,614,614,614,611,597,579,561,526,501,492,469,455,423,404,384,362,337,291,267,228,203,180,133,113,95,79,68,51,42,35,26,25],"timestamp_mouse":[18,33,44,63,83,104,123,142,162,182,203,224,243,264,282,303,322,342,364,383,402,422,443,462,482,502,523,543,562,583,603,623,643,662,683,703,722,742,763,782,803,823,843,864,883,902,922,943,962],"xSR":741.5,"ySR":573.95,"xT1":424.9,"yT1":0,"xT2":1058.1,"yT2":0,"toosoon":0,"cond_shown":"equaldotsize","ratio_trial":900,"smaller_num":"18","larger_num":"20","correct_side":1,"subjID":"JuanaNeira28","gender":"1","age":"8","school":"4"},{"start_time":1552328388159,"click_time":1552328390446,"finger_time":1552328388806,"fix_duration":250,"trial":8,"RT":647,"MT":1640,"sideResp":1,"stimulus":"img/750/equaldotanddens/L/10_Ratio_750_L_4_R_3.png","xmouse":[788,788,788,788,788,788,771,762,761,761,761,761,761,761,761,761,761,761,761,761,761,761,761,761,761,761,761,761,761,761,761,749,740,724,708,708,708,708,708,708,708,708,708,708,708,708,708,708,708,720,725,727,728,728,731,731,731,731,731,731,731,731,731,731,731,731,731,731,731,731,731,747,769,783,787,787,787,787,787,787,787,787,787,787,787,787,787,787,787,787,787,787,787,787,787,787,788,784,777,767,738,715,681,637,594,523,507,496,487,478,474,471,470,469,466],"ymouse":[587,587,587,587,587,587,585,584,583,583,583,583,583,583,583,583,583,583,583,583,583,583,583,583,583,583,583,583,583,583,583,583,585,593,602,602,602,602,602,602,602,602,602,602,602,602,602,602,602,603,603,603,603,603,603,603,603,603,603,603,603,603,603,603,603,603,603,603,603,603,603,606,609,611,611,611,611,611,611,611,611,611,611,611,611,611,611,611,611,611,611,611,611,611,611,611,611,589,543,470,282,186,100,20,0,0,0,0,0,0,0,0,0,0,1],"timestamp_mouse":[8,27,47,68,87,108,127,148,167,188,207,227,247,269,288,308,328,349,369,388,409,428,448,468,489,507,528,547,568,589,608,628,647,668,688,707,727,747,768,788,808,829,848,867,887,907,928,947,967,987,1008,1028,1047,1067,1088,1108,1128,1148,1167,1188,1209,1228,1248,1267,1288,1308,1329,1349,1368,1389,1408,1427,1448,1469,1489,1507,1528,1547,1569,1588,1609,1629,1648,1667,1687,1707,1727,1749,1769,1789,1808,1827,1849,1869,1888,1907,1928,1948,1967,1988,2007,2029,2049,2067,2087,2108,2127,2148,2168,2188,2207,2227,2248,2269,2287],"xSR":741.5,"ySR":573.95,"xT1":424.9,"yT1":0,"xT2":1058.1,"yT2":0,"toosoon":0,"cond_shown":"equaldotanddens","ratio_trial":750,"smaller_num":"3","larger_num":"4","correct_side":1,"subjID":"JuanaNeira28","gender":"1","age":"8","school":"4"},{"start_time":1552328398039,"click_time":1552328398908,"finger_time":1552328398666,"fix_duration":250,"trial":9,"RT":627,"MT":242,"sideResp":2,"stimulus":"img/750/equaldotanddens/L/13_Ratio_750_L_8_R_6.png","xmouse":[792,792,792,792,792,792,792,792,792,792,792,792,792,792,792,792,792,792,792,792,792,792,792,792,790,787,786,786,785,785,783,779,772,758,747,715,707,704,706,726,814,892,1022,1062],"ymouse":[659,659,659,659,659,659,659,659,659,659,659,659,659,659,659,659,659,659,659,659,659,659,659,657,645,630,623,618,610,602,579,552,526,484,431,312,252,191,152,110,58,36,12,4],"timestamp_mouse":[23,27,47,67,88,108,128,148,167,187,208,228,248,269,287,308,327,349,369,387,407,427,447,468,488,507,527,549,567,589,608,627,647,669,687,707,728,748,767,788,807,827,848,869],"xSR":741.5,"ySR":573.95,"xT1":424.9,"yT1":0,"xT2":1058.1,"yT2":0,"toosoon":0,"cond_shown":"equaldotanddens","ratio_trial":750,"smaller_num":"6","larger_num":"8","correct_side":1,"subjID":"JuanaNeira28","gender":"1","age":"8","school":"4"},{"start_time":1552328401506,"click_time":1552328402387,"finger_time":1552328402027,"fix_duration":978.2391728342728,"trial":10,"RT":521,"MT":360,"sideResp":2,"stimulus":"img/500/equaldotsize/R/1_Ratio_500_L_9_R_18.png","xmouse":[769,769,769,769,769,769,769,769,769,769,769,769,769,769,769,769,769,769,769,772,776,780,784,792,797,804,813,836,845,866,880,899,926,937,946,954,964,987,999,1018,1032,1045,1064,1071,1077],"ymouse":[631,631,631,631,631,631,631,631,631,631,631,631,631,631,631,631,631,631,626,621,615,609,605,595,588,578,569,543,531,502,482,459,412,387,358,329,304,256,235,204,186,164,129,114,99],"timestamp_mouse":[10,22,41,60,80,102,121,141,160,182,202,222,240,261,280,301,321,340,361,381,401,421,440,460,480,501,521,540,560,581,601,621,641,661,681,701,720,741,761,782,801,822,841,860,881],"xSR":741.5,"ySR":573.95,"xT1":424.9,"yT1":0,"xT2":1058.1,"yT2":0,"toosoon":0,"cond_shown":"equaldotsize","ratio_trial":500,"smaller_num":"9","larger_num":"18","correct_side":2,"subjID":"JuanaNeira28","gender":"1","age":"8","school":"4"},{"start_time":1552328415985,"click_time":1552328417247,"finger_time":1552328416606,"fix_duration":1377.512973934581,"trial":11,"RT":621,"MT":641,"sideResp":2,"stimulus":"img/250/equaldotanddens/L/15_Ratio_250_L_12_R_3.png","xmouse":[775,775,773,773,773,773,773,773,772,772,770,769,768,767,766,766,765,765,765,765,765,765,765,765,765,765,765,765,765,765,763,762,762,762,762,764,771,781,813,825,844,858,874,897,913,917,925,926,928,931,932,934,940,961,980,984,993,1003,1022,1031,1041,1048,1054,1061],"ymouse":[597,597,595,594,594,594,594,594,594,594,595,596,597,598,599,599,599,599,599,599,599,599,599,599,599,599,599,599,591,583,577,573,570,566,562,553,544,535,514,501,484,467,450,420,397,390,368,355,342,314,295,271,245,193,162,151,123,97,63,55,50,47,44,41],"timestamp_mouse":[10,21,41,62,81,103,121,142,161,181,201,221,242,261,281,301,321,341,361,381,402,421,441,462,482,501,522,541,561,581,602,621,642,661,681,702,721,742,761,781,801,822,841,861,881,902,921,941,961,981,1001,1021,1042,1061,1081,1102,1122,1141,1161,1181,1201,1221,1241,1261],"xSR":741.5,"ySR":573.95,"xT1":424.9,"yT1":0,"xT2":1058.1,"yT2":0,"toosoon":0,"cond_shown":"equaldotanddens","ratio_trial":250,"smaller_num":"3","larger_num":"12","correct_side":1,"subjID":"JuanaNeira28","gender":"1","age":"8","school":"4"},{"start_time":1552328420989,"click_time":1552328422166,"finger_time":1552328421446,"fix_duration":360.53412791081195,"trial":12,"RT":457,"MT":720,"sideResp":1,"stimulus":"img/900/equaldotanddens/L/2_Ratio_900_L_20_R_18.png","xmouse":[773,773,773,773,773,773,772,772,770,770,769,769,767,766,766,764,762,757,753,751,747,742,731,724,717,710,704,701,695,694,693,692,692,692,692,692,692,692,692,692,691,689,676,662,658,646,641,630,627,625,619,615,602,594,581,570,557,530,521],"ymouse":[659,659,659,659,659,659,656,654,649,647,646,645,641,639,636,634,629,616,610,603,593,582,552,536,522,499,484,469,449,441,437,435,435,435,435,435,435,435,435,434,434,432,416,394,386,356,337,296,273,254,233,213,174,155,129,110,93,60,49],"timestamp_mouse":[28,45,58,77,97,118,137,157,177,197,217,238,257,278,297,318,337,357,377,398,417,438,457,477,498,518,538,557,577,598,617,638,657,678,697,717,738,757,778,797,817,838,857,877,897,917,937,957,977,998,1017,1038,1057,1077,1097,1117,1137,1157,1177],"xSR":741.5,"ySR":573.95,"xT1":424.9,"yT1":0,"xT2":1058.1,"yT2":0,"toosoon":0,"cond_shown":"equaldotanddens","ratio_trial":900,"smaller_num":"18","larger_num":"20","correct_side":1,"subjID":"JuanaNeira28","gender":"1","age":"8","school":"4"},{"start_time":1552328430341,"click_time":1552328431346,"finger_time":1552328430806,"fix_duration":1052.8409975129196,"trial":13,"RT":465,"MT":540,"sideResp":2,"stimulus":"img/500/equaldotsize/R/14_Ratio_500_L_5_R_10.png","xmouse":[775,775,775,775,775,775,775,775,775,775,775,775,775,775,775,775,775,775,775,775,777,778,779,783,785,787,787,791,797,805,818,826,834,842,854,882,901,920,946,979,1034,1047,1053,1054,1054,1054,1054,1055,1056,1058,1063],"ymouse":[624,624,624,624,624,624,624,624,624,624,624,624,624,624,624,624,624,624,624,624,615,607,595,572,538,432,374,309,273,247,204,187,170,158,148,138,132,129,126,121,115,112,108,107,104,98,96,94,88,83,67],"timestamp_mouse":[13,35,45,65,87,105,125,145,166,185,205,225,246,266,286,305,325,345,366,385,406,425,445,465,486,505,525,545,566,585,605,625,645,665,686,705,725,746,765,786,805,825,846,865,885,905,925,945,965,985,1005],"xSR":741.5,"ySR":573.95,"xT1":424.9,"yT1":0,"xT2":1058.1,"yT2":0,"toosoon":0,"cond_shown":"equaldotsize","ratio_trial":500,"smaller_num":"5","larger_num":"10","correct_side":2,"subjID":"JuanaNeira28","gender":"1","age":"8","school":"4"},{"start_time":1552328433475,"click_time":1552328434026,"finger_time":1552328433787,"fix_duration":927.3977839317608,"trial":14,"RT":312,"MT":239,"sideResp":1,"stimulus":"img/900/equaldotsize/L/10_Ratio_900_L_20_R_18.png","xmouse":[775,775,775,775,775,775,775,775,775,775,775,775,775,767,758,747,733,720,677,666,629,601,570,549,532,530,527,524],"ymouse":[622,622,622,622,622,622,622,622,622,622,622,622,622,604,574,536,492,445,338,312,241,193,152,117,70,50,30,14],"timestamp_mouse":[14,38,52,72,91,112,131,151,172,191,212,231,252,271,291,312,331,352,372,392,411,431,452,471,491,511,531,551],"xSR":741.5,"ySR":573.95,"xT1":424.9,"yT1":0,"xT2":1058.1,"yT2":0,"toosoon":0,"cond_shown":"equaldotsize","ratio_trial":900,"smaller_num":"18","larger_num":"20","correct_side":1,"subjID":"JuanaNeira28","gender":"1","age":"8","school":"4"},{"start_time":1552328436422,"click_time":1552328437126,"finger_time":1552328436886,"fix_duration":1274.8026171278393,"trial":15,"RT":464,"MT":240,"sideResp":1,"stimulus":"img/750/randomdotsizeEA/R/15_Ratio_750_L_9_R_12.png","xmouse":[774,774,774,774,774,774,774,774,774,774,774,774,774,774,774,774,774,774,774,774,773,773,772,766,756,739,710,644,621,605,598,591,564,548,528,515],"ymouse":[648,648,648,648,648,648,648,648,648,648,648,648,648,648,648,648,648,648,648,648,646,624,591,563,528,483,430,313,266,226,200,174,113,86,57,36],"timestamp_mouse":[14,34,45,64,84,104,125,144,164,185,205,224,245,264,285,304,324,344,364,385,405,424,445,464,485,504,524,544,564,584,604,624,644,664,684,704],"xSR":741.5,"ySR":573.95,"xT1":424.9,"yT1":0,"xT2":1058.1,"yT2":0,"toosoon":0,"cond_shown":"randomdotsizeEA","ratio_trial":750,"smaller_num":"9","larger_num":"12","correct_side":2,"subjID":"JuanaNeira28","gender":"1","age":"8","school":"4"},{"start_time":1552328438845,"click_time":1552328439946,"finger_time":1552328439506,"fix_duration":576.4519835717953,"trial":16,"RT":661,"MT":440,"sideResp":2,"stimulus":"img/750/equaldotanddens/R/5_Ratio_750_L_15_R_20.png","xmouse":[804,804,804,804,804,804,804,804,804,804,804,804,804,804,804,804,804,804,804,804,804,804,804,804,804,804,804,804,804,804,804,807,814,823,833,858,867,880,897,919,977,991,998,998,998,998,998,998,998,998,998,999,1009,1021,1035,1067],"ymouse":[594,594,594,594,594,594,594,594,594,594,594,594,594,594,594,594,594,594,594,594,594,594,594,594,594,594,594,594,594,594,594,587,575,558,538,479,441,402,364,329,266,247,221,204,190,182,176,176,176,176,176,170,157,144,128,89],"timestamp_mouse":[11,38,42,61,81,101,121,141,161,182,201,221,241,261,282,301,321,342,362,382,402,422,442,461,482,501,521,541,562,582,601,622,641,661,681,701,721,741,762,782,801,821,842,862,881,901,922,942,962,982,1001,1022,1041,1061,1081,1101],"xSR":741.5,"ySR":573.95,"xT1":424.9,"yT1":0,"xT2":1058.1,"yT2":0,"toosoon":0,"cond_shown":"equaldotanddens","ratio_trial":750,"smaller_num":"15","larger_num":"20","correct_side":2,"subjID":"JuanaNeira28","gender":"1","age":"8","school":"4"},{"start_time":1552328442638,"click_time":1552328443787,"finger_time":1552328443126,"fix_duration":1429.1010406505095,"trial":17,"RT":488,"MT":661,"sideResp":1,"stimulus":"img/750/equaldotsize/R/2_Ratio_750_L_6_R_8.png","xmouse":[805,805,805,805,805,805,805,805,805,805,805,805,805,805,805,805,805,805,805,806,806,806,806,806,805,802,799,797,794,792,786,785,782,781,780,787,797,807,813,816,816,800,774,754,725,676,656,641,630,620,604,591,587,574,563,539,530,522],"ymouse":[613,613,613,613,613,613,613,613,613,613,613,613,613,613,613,613,613,613,613,612,604,599,590,580,571,545,529,512,497,479,443,438,419,410,401,386,376,367,356,344,330,298,269,250,225,188,171,158,148,138,120,103,98,79,64,37,27,21],"timestamp_mouse":[10,39,48,69,89,109,129,148,169,188,208,229,249,269,289,308,328,348,369,388,408,429,448,468,488,509,528,548,568,589,609,628,648,668,689,708,728,749,769,789,808,828,848,869,888,908,928,948,968,989,1008,1028,1048,1070,1088,1108,1128,1149],"xSR":741.5,"ySR":573.95,"xT1":424.9,"yT1":0,"xT2":1058.1,"yT2":0,"toosoon":0,"cond_shown":"equaldotsize","ratio_trial":750,"smaller_num":"6","larger_num":"8","correct_side":2,"subjID":"JuanaNeira28","gender":"1","age":"8","school":"4"},{"start_time":1552328448125,"click_time":1552328448787,"finger_time":1552328448546,"fix_duration":1335.2022286857468,"trial":18,"RT":421,"MT":241,"sideResp":2,"stimulus":"img/900/randomdotsizeEA/R/6_Ratio_900_L_9_R_10.png","xmouse":[788,788,788,788,788,788,788,788,788,788,788,788,788,788,788,788,788,788,799,812,833,895,925,952,980,1003,1032,1043,1046,1051,1056,1062,1063,1063],"ymouse":[618,618,618,618,618,618,618,618,618,618,618,618,618,618,618,618,618,618,609,599,582,536,513,490,454,416,337,277,242,209,182,136,115,92],"timestamp_mouse":[10,21,42,61,81,101,121,141,161,182,202,221,241,261,282,302,321,341,361,381,401,421,441,462,481,501,521,541,562,582,601,621,642,662],"xSR":741.5,"ySR":573.95,"xT1":424.9,"yT1":0,"xT2":1058.1,"yT2":0,"toosoon":0,"cond_shown":"randomdotsizeEA","ratio_trial":900,"smaller_num":"9","larger_num":"10","correct_side":2,"subjID":"JuanaNeira28","gender":"1","age":"8","school":"4"},{"start_time":1552328450692,"click_time":1552328451466,"finger_time":1552328450747,"fix_duration":703.2293571163531,"trial":19,"RT":55,"MT":719,"sideResp":1,"stimulus":"img/750/randomdotsizeEA/R/15_Ratio_750_L_9_R_12.png","xmouse":[786,786,767,758,752,747,741,728,717,712,706,703,695,691,688,682,676,666,660,648,638,626,596,584,575,570,563,557,547,536,532,529,527,527,527,527,524,509,482],"ymouse":[591,591,573,564,559,553,543,521,502,492,479,470,456,447,438,427,416,393,380,352,330,301,219,173,126,75,23,0,0,0,0,0,0,0,0,0,0,0,10],"timestamp_mouse":[15,39,55,74,95,115,134,154,174,194,214,234,254,274,295,314,334,354,375,394,415,434,454,474,494,515,534,554,574,594,615,635,655,674,694,715,735,754,774],"xSR":741.5,"ySR":573.95,"xT1":424.9,"yT1":0,"xT2":1058.1,"yT2":0,"toosoon":0,"cond_shown":"randomdotsizeEA","ratio_trial":750,"smaller_num":"9","larger_num":"12","correct_side":2,"subjID":"JuanaNeira28","gender":"1","age":"8","school":"4"},{"start_time":1552328453924,"click_time":1552328454846,"finger_time":1552328454346,"fix_duration":476.0840162215854,"trial":20,"RT":422,"MT":500,"sideResp":2,"stimulus":"img/500/equaldotanddens/R/1_Ratio_500_L_9_R_18.png","xmouse":[834,834,834,834,834,834,834,834,834,834,834,834,834,834,834,834,834,833,830,829,831,833,834,834,834,835,836,841,848,858,881,894,916,940,966,1021,1041,1046,1057,1064,1066,1067,1067,1066,1062,1059],"ymouse":[596,596,596,596,596,596,596,596,596,596,596,596,596,596,596,596,596,591,584,574,550,535,521,507,498,479,472,461,450,439,417,407,394,380,364,322,287,275,235,211,188,151,133,120,109,97],"timestamp_mouse":[20,46,62,82,102,122,143,163,183,203,222,243,263,282,302,322,342,362,383,402,422,442,462,482,502,522,543,562,582,602,623,642,664,682,702,722,742,762,782,803,822,842,863,882,902,922],"xSR":741.5,"ySR":573.95,"xT1":424.9,"yT1":0,"xT2":1058.1,"yT2":0,"toosoon":0,"cond_shown":"equaldotanddens","ratio_trial":500,"smaller_num":"9","larger_num":"18","correct_side":2,"subjID":"JuanaNeira28","gender":"1","age":"8","school":"4"},{"start_time":1552328456776,"click_time":1552328457546,"finger_time":1552328457226,"fix_duration":250,"trial":21,"RT":450,"MT":320,"sideResp":2,"stimulus":"img/900/randomdotsizeEA/R/6_Ratio_900_L_9_R_10.png","xmouse":[808,808,808,808,808,808,807,807,807,807,807,807,807,807,807,807,807,808,814,818,821,827,833,849,858,872,880,889,913,926,941,955,972,1007,1030,1047,1061,1074,1093],"ymouse":[645,645,645,645,645,645,645,645,645,644,642,641,641,641,641,641,639,634,613,602,590,577,564,540,528,510,498,484,456,440,420,397,367,286,227,189,162,135,91],"timestamp_mouse":[10,30,51,71,90,110,130,151,171,190,211,230,250,270,291,310,330,350,370,390,410,430,450,470,491,510,530,551,570,591,610,630,650,670,690,711,731,750,770],"xSR":741.5,"ySR":573.95,"xT1":424.9,"yT1":0,"xT2":1058.1,"yT2":0,"toosoon":0,"cond_shown":"randomdotsizeEA","ratio_trial":900,"smaller_num":"9","larger_num":"10","correct_side":2,"subjID":"JuanaNeira28","gender":"1","age":"8","school":"4"},{"start_time":1552328459256,"click_time":1552328460506,"finger_time":1552328460126,"fix_duration":827.7574142989356,"trial":22,"RT":870,"MT":380,"sideResp":2,"stimulus":"img/250/randomdotsizeEA/L/15_Ratio_250_L_12_R_3.png","xmouse":[771,771,771,771,771,771,771,771,771,771,771,771,771,771,771,771,771,771,771,771,771,771,771,771,771,771,771,771,771,771,771,771,771,771,771,771,771,771,771,779,788,816,835,852,890,912,937,964,988,1034,1049,1064,1071,1078,1086,1090,1093,1096,1097,1098,1098,1096,1095],"ymouse":[622,622,622,622,622,622,622,622,622,622,622,622,622,622,622,622,622,622,622,622,622,622,622,622,622,622,622,622,622,622,622,622,622,622,622,622,622,622,622,619,614,593,574,549,483,444,406,372,343,293,275,249,232,216,192,181,169,159,152,133,122,107,99],"timestamp_mouse":[26,36,51,70,90,110,130,150,171,190,210,231,250,270,291,310,331,351,370,390,410,432,450,471,490,510,531,550,570,590,610,630,650,670,690,710,730,751,770,790,810,830,850,870,890,910,930,950,971,990,1010,1030,1050,1071,1090,1110,1130,1150,1171,1190,1210,1230,1250],"xSR":741.5,"ySR":573.95,"xT1":424.9,"yT1":0,"xT2":1058.1,"yT2":0,"toosoon":0,"cond_shown":"randomdotsizeEA","ratio_trial":250,"smaller_num":"3","larger_num":"12","correct_side":1,"subjID":"JuanaNeira28","gender":"1","age":"8","school":"4"},{"start_time":1552328467887,"click_time":1552328468846,"finger_time":1552328468246,"fix_duration":1038.918688640711,"trial":23,"RT":359,"MT":600,"sideResp":1,"stimulus":"img/500/equaldotanddens/L/11_Ratio_500_L_12_R_6.png","xmouse":[807,807,807,807,807,807,807,807,807,807,807,807,807,807,807,807,807,807,806,801,790,784,777,759,747,734,726,720,705,695,680,649,629,594,587,586,586,586,558,513,457,447,447,452,455,457,460,462,467],"ymouse":[586,586,586,586,586,586,586,586,586,586,586,586,586,586,586,586,586,586,573,557,533,519,503,468,447,426,405,391,356,334,308,263,241,209,206,205,205,205,202,192,169,160,155,138,129,119,111,102,88],"timestamp_mouse":[1,19,40,59,79,100,121,140,159,179,200,220,239,261,280,300,320,340,359,380,399,420,439,459,479,499,519,539,559,580,600,619,639,660,679,699,719,739,759,779,799,819,839,860,879,899,919,940,959],"xSR":741.5,"ySR":573.95,"xT1":424.9,"yT1":0,"xT2":1058.1,"yT2":0,"toosoon":0,"cond_shown":"equaldotanddens","ratio_trial":500,"smaller_num":"6","larger_num":"12","correct_side":1,"subjID":"JuanaNeira28","gender":"1","age":"8","school":"4"},{"start_time":1552328472091,"click_time":1552328473766,"finger_time":1552328473307,"fix_duration":283.58076749192696,"trial":24,"RT":1216,"MT":459,"sideResp":1,"stimulus":"img/750/equaldotanddens/L/13_Ratio_750_L_8_R_6.png","xmouse":[775,775,775,775,775,775,775,775,775,775,775,775,775,775,775,775,775,775,775,775,775,775,775,775,775,775,775,775,775,776,778,781,785,785,785,785,785,785,785,785,785,785,785,785,785,785,785,785,785,785,785,785,785,785,783,783,783,783,783,782,782,779,763,749,734,721,710,700,690,674,667,665,661,658,653,644,632,593,570,562,555,547,509,488],"ymouse":[606,606,606,606,606,606,606,606,606,606,606,606,606,606,606,606,606,606,606,606,606,606,606,606,606,606,606,606,606,607,602,592,582,582,582,582,582,582,582,582,582,582,582,582,582,582,582,582,582,582,582,582,582,581,581,581,581,581,581,580,567,559,532,518,501,482,459,410,382,347,337,332,323,318,308,293,274,233,210,201,189,169,116,86],"timestamp_mouse":[16,36,56,76,96,115,136,155,176,196,216,235,255,275,296,316,335,355,376,395,415,435,456,476,496,517,536,555,576,595,616,636,655,675,696,715,735,755,776,796,815,835,855,876,896,916,936,955,975,996,1015,1035,1056,1076,1096,1117,1136,1155,1175,1195,1216,1235,1255,1275,1295,1316,1335,1354,1376,1395,1415,1435,1455,1475,1495,1516,1536,1555,1575,1595,1616,1635,1655,1675],"xSR":741.5,"ySR":573.95,"xT1":424.9,"yT1":0,"xT2":1058.1,"yT2":0,"toosoon":0,"cond_shown":"equaldotanddens","ratio_trial":750,"smaller_num":"6","larger_num":"8","correct_side":1,"subjID":"JuanaNeira28","gender":"1","age":"8","school":"4"},{"start_time":1552328476278,"click_time":1552328484867,"finger_time":1552328480028,"fix_duration":1429.2345378185082,"trial":25,"RT":3750,"MT":4839,"sideResp":1,"stimulus":"img/750/equaldotanddens/R/3_Ratio_750_L_15_R_20.png","xmouse":[783,783,783,783,783,783,783,783,783,783,783,783,783,783,783,783,783,783,783,783,783,783,783,783,783,783,783,783,783,783,783,783,783,783,783,783,783,783,783,783,783,783,783,783,783,783,783,783,783,783,783,783,783,783,783,783,783,783,783,783,783,783,783,783,783,783,783,783,783,783,783,783,783,783,783,783,783,783,783,783,783,783,783,783,783,783,783,783,783,784,784,784,784,784,784,784,784,784,785,785,785,785,785,785,785,785,785,785,785,785,785,785,785,785,785,785,785,785,785,785,785,785,785,785,785,785,785,785,785,785,785,785,785,785,785,785,785,785,785,785,785,785,785,785,785,785,785,785,785,785,785,785,785,785,785,785,785,785,785,785,785,785,785,785,785,785,785,785,785,785,785,785,785,785,785,785,785,786,788,788,788,789,789,789,791,795,798,801,804,804,804,804,804,804,804,804,802,800,800,800,800,800,800,800,800,800,800,798,795,794,793,793,792,792,791,791,791,791,791,791,791,791,790,789,787,787,787,787,787,787,787,787,787,792,792,787,786,786,786,785,785,785,785,785,785,785,785,785,785,785,785,785,785,785,785,785,785,785,785,785,785,785,785,788,791,792,792,792,792,792,792,792,792,792,792,792,792,792,792,792,792,792,792,792,792,792,792,792,792,792,792,792,792,792,792,792,792,792,792,792,792,792,792,792,792,792,792,792,792,792,792,792,792,792,792,792,792,792,792,792,792,792,792,792,792,792,792,792,792,792,792,792,792,793,794,794,794,794,794,794,794,794,794,794,794,794,794,794,794,794,794,794,794,794,793,793,793,793,787,785,785,785,785,785,785,785,785,785,785,785,785,785,786,793,795,796,796,796,794,794,792,791,791,790,790,790,790,790,789,787,785,785,785,785,785,785,785,785,785,785,785,785,785,785,785,785,784,782,764,742,724,698,664,590,568,557,551,546,542,541,541,541,541,541,540,540,540,540,529,510],"ymouse":[606,606,606,606,606,606,606,606,606,606,606,606,606,606,606,606,606,606,606,606,606,606,606,606,606,606,606,606,606,606,606,606,606,606,606,606,606,606,606,606,606,606,606,606,606,606,606,606,606,606,606,606,606,606,606,606,606,606,606,606,606,606,606,606,606,606,606,606,606,606,606,606,606,606,606,606,606,606,606,606,606,606,606,606,606,606,606,606,607,607,607,607,607,607,607,607,607,607,607,607,607,607,607,607,607,607,607,607,607,607,607,607,607,607,607,607,607,607,607,607,607,607,607,607,607,607,607,607,607,607,607,607,607,607,607,607,607,607,607,607,607,607,607,607,607,607,607,607,607,607,607,607,607,607,607,607,607,607,607,607,607,607,607,607,607,607,607,607,607,607,607,607,607,607,607,607,607,607,610,612,612,613,613,613,606,593,584,573,553,550,541,536,532,530,530,530,532,537,540,540,540,540,540,540,540,540,542,551,575,580,590,595,600,609,611,612,612,612,612,612,612,612,610,603,580,577,576,576,576,576,576,575,572,544,533,530,529,529,529,529,537,540,540,540,540,540,540,540,540,540,540,540,540,540,540,540,540,540,540,540,540,540,541,541,541,541,541,541,541,541,541,541,541,541,541,541,541,541,541,541,541,541,541,541,541,541,541,541,541,541,541,541,541,541,541,541,541,541,541,541,541,541,541,541,541,541,541,541,541,541,541,541,541,541,541,541,541,541,541,541,541,541,541,541,541,541,541,541,541,541,541,541,541,542,542,537,536,534,532,531,530,530,530,530,530,530,530,530,530,530,530,530,530,523,518,518,518,518,529,534,535,535,535,535,535,535,535,535,535,534,521,503,483,437,415,394,377,362,339,329,315,308,303,300,300,300,300,300,298,292,287,287,287,287,287,287,287,287,287,287,287,287,287,287,287,287,286,286,291,294,294,285,264,215,197,186,176,167,152,141,137,119,104,79,74,74,74,74,80,92],"timestamp_mouse":[12,36,49,70,88,108,129,149,170,189,210,228,249,269,290,310,330,349,369,389,410,428,450,469,488,509,529,550,569,589,609,628,649,670,689,710,729,749,769,789,810,829,848,868,889,910,929,950,968,990,1009,1030,1049,1069,1090,1110,1129,1149,1169,1188,1208,1229,1250,1269,1289,1309,1329,1348,1368,1390,1409,1429,1450,1468,1490,1510,1530,1549,1570,1588,1610,1629,1649,1670,1690,1710,1729,1750,1769,1790,1808,1828,1850,1869,1890,1910,1929,1949,1969,1989,2009,2030,2049,2068,2089,2110,2129,2149,2169,2190,2209,2229,2249,2269,2290,2310,2330,2350,2370,2389,2410,2428,2449,2470,2489,2510,2529,2549,2568,2588,2608,2630,2650,2670,2688,2708,2728,2750,2769,2789,2810,2830,2850,2870,2889,2910,2930,2949,2969,2989,3009,3029,3049,3069,3089,3110,3130,3150,3169,3190,3209,3228,3250,3269,3289,3309,3329,3349,3368,3390,3409,3430,3449,3470,3489,3509,3528,3549,3568,3588,3609,3630,3649,3668,3688,3710,3729,3750,3769,3789,3809,3829,3849,3869,3889,3909,3929,3949,3969,3989,4010,4029,4049,4068,4089,4109,4129,4149,4169,4188,4209,4230,4249,4268,4289,4310,4329,4349,4369,4390,4410,4430,4449,4469,4489,4510,4530,4548,4569,4589,4610,4629,4648,4669,4689,4709,4728,4750,4770,4789,4808,4829,4849,4870,4889,4908,4929,4949,4970,4989,5009,5028,5050,5069,5089,5110,5129,5150,5169,5189,5210,5229,5249,5269,5289,5310,5330,5350,5368,5389,5410,5430,5449,5470,5489,5509,5529,5550,5569,5589,5610,5629,5648,5669,5689,5709,5729,5750,5768,5789,5809,5829,5850,5870,5889,5910,5928,5950,5969,5989,6008,6030,6049,6070,6089,6109,6129,6149,6169,6189,6209,6229,6249,6269,6290,6310,6329,6349,6370,6390,6409,6430,6449,6469,6489,6509,6530,6548,6568,6589,6610,6629,6649,6668,6689,6709,6729,6749,6768,6790,6809,6830,6849,6868,6890,6909,6928,6950,6969,6989,7008,7029,7048,7068,7089,7109,7129,7149,7169,7188,7209,7229,7249,7269,7289,7309,7328,7348,7369,7390,7409,7428,7450,7469,7489,7508,7529,7548,7568,7589,7609,7630,7649,7669,7689,7709,7729,7750,7768,7789,7810,7829,7849,7869,7888,7909,7929,7950,7969,7990,8009,8028,8049,8070,8089,8110,8129,8149,8169,8188,8209,8229,8249,8268,8289,8310,8328,8349,8369,8389,8409,8430,8449,8469,8489,8509,8530,8549,8569,8589],"xSR":741.5,"ySR":573.95,"xT1":424.9,"yT1":0,"xT2":1058.1,"yT2":0,"toosoon":0,"cond_shown":"equaldotanddens","ratio_trial":750,"smaller_num":"15","larger_num":"20","correct_side":2,"subjID":"JuanaNeira28","gender":"1","age":"8","school":"4"},{"start_time":1552328492212,"click_time":1552328493327,"finger_time":1552328492966,"fix_duration":1263.299822777181,"trial":26,"RT":754,"MT":361,"sideResp":1,"stimulus":"img/250/randomdotsizeEA/R/9_Ratio_250_L_3_R_12.png","xmouse":[759,759,759,759,759,759,759,759,759,759,759,759,759,759,759,759,759,759,759,759,759,759,759,759,759,759,759,759,759,759,759,759,759,759,759,759,746,732,712,691,664,610,571,560,554,551,549,549,549,549,549,549,541,535,529,524],"ymouse":[639,639,639,639,639,639,639,639,639,639,639,639,639,639,639,639,639,639,639,639,639,639,639,639,639,639,639,639,639,639,639,639,639,639,639,639,594,520,442,351,261,95,4,0,0,0,0,0,0,0,0,0,2,7,18,30],"timestamp_mouse":[15,43,56,75,95,115,136,154,176,195,215,235,254,274,296,315,336,355,375,396,414,435,455,475,496,516,535,555,575,596,616,634,655,675,694,715,735,754,775,795,814,835,854,875,895,914,937,955,976,995,1015,1035,1056,1075,1096,1115],"xSR":741.5,"ySR":573.95,"xT1":424.9,"yT1":0,"xT2":1058.1,"yT2":0,"toosoon":0,"cond_shown":"randomdotsizeEA","ratio_trial":250,"smaller_num":"3","larger_num":"12","correct_side":2,"subjID":"JuanaNeira28","gender":"1","age":"8","school":"4"},{"start_time":1552328495446,"click_time":1552328496827,"finger_time":1552328496267,"fix_duration":998.0976219550557,"trial":27,"RT":821,"MT":560,"sideResp":1,"stimulus":"img/900/randomdotsizeEA/R/12_Ratio_900_L_18_R_20.png","xmouse":[818,819,819,819,819,819,819,820,820,821,821,821,821,821,822,822,822,822,823,823,823,823,823,823,823,823,823,823,823,823,823,823,823,823,823,823,823,823,823,822,814,801,790,774,758,748,737,735,733,731,726,720,709,700,693,676,666,655,642,626,593,580,565,556,553,552,550,543,531,517],"ymouse":[628,627,627,627,627,627,627,627,627,627,627,627,627,627,626,626,626,626,625,625,625,625,625,625,625,625,625,625,625,625,625,625,625,625,625,625,625,623,620,616,594,565,538,500,463,430,386,368,355,345,322,308,281,262,245,208,190,173,158,140,111,100,86,80,78,76,76,75,72,71],"timestamp_mouse":[10,37,42,61,81,102,120,141,160,181,202,222,241,260,282,300,321,341,361,382,402,420,442,460,480,501,521,541,561,582,601,621,641,661,681,701,721,742,761,782,800,821,841,860,881,900,921,942,961,981,1001,1022,1040,1062,1081,1100,1121,1142,1160,1182,1201,1222,1241,1262,1281,1301,1320,1342,1361,1381],"xSR":741.5,"ySR":573.95,"xT1":424.9,"yT1":0,"xT2":1058.1,"yT2":0,"toosoon":0,"cond_shown":"randomdotsizeEA","ratio_trial":900,"smaller_num":"18","larger_num":"20","correct_side":2,"subjID":"JuanaNeira28","gender":"1","age":"8","school":"4"},{"start_time":1552328499937,"click_time":1552328500947,"finger_time":1552328500567,"fix_duration":268.0959664628142,"trial":28,"RT":630,"MT":380,"sideResp":2,"stimulus":"img/900/randomdotsizeEA/L/4_Ratio_900_L_20_R_18.png","xmouse":[790,790,790,790,790,790,790,790,790,790,790,790,790,790,790,790,790,790,790,790,790,792,793,794,795,796,796,797,798,799,801,810,820,834,857,926,968,1029,1062,1091,1129,1135,1139,1141,1141,1141,1141,1140,1137,1132,1123],"ymouse":[603,603,603,603,603,603,603,603,603,603,603,603,603,603,603,603,603,603,603,603,603,599,596,591,588,583,582,580,579,577,574,563,549,534,514,450,401,330,288,246,188,174,165,161,160,160,156,142,126,110,83],"timestamp_mouse":[15,30,50,70,90,110,130,150,170,190,210,230,250,270,290,310,330,350,370,390,410,429,450,471,491,509,530,549,570,590,609,630,651,670,691,710,730,750,770,789,810,830,850,870,890,910,930,950,970,990,1009],"xSR":741.5,"ySR":573.95,"xT1":424.9,"yT1":0,"xT2":1058.1,"yT2":0,"toosoon":0,"cond_shown":"randomdotsizeEA","ratio_trial":900,"smaller_num":"18","larger_num":"20","correct_side":1,"subjID":"JuanaNeira28","gender":"1","age":"8","school":"4"},{"start_time":1552328512185,"click_time":1552328513508,"finger_time":1552328512667,"fix_duration":1036.8847627419743,"trial":29,"RT":482,"MT":841,"sideResp":2,"stimulus":"img/750/equaldotanddens/R/5_Ratio_750_L_15_R_20.png","xmouse":[779,779,779,779,779,779,779,779,779,779,779,779,779,779,779,779,779,779,779,779,781,788,806,839,847,854,860,867,894,914,940,969,995,1025,1034,1042,1048,1053,1061,1065,1069,1071,1073,1076,1076,1076,1076,1074,1073,1073,1072,1072,1072,1072,1072,1072,1072,1072,1072,1072,1072,1072,1072,1072,1072,1073,1075],"ymouse":[639,639,639,639,639,639,639,639,639,639,639,639,639,639,639,639,639,639,639,639,639,635,624,598,590,575,566,557,525,501,475,442,406,348,326,297,278,263,236,224,214,205,195,176,159,150,141,136,127,123,120,119,119,119,119,119,119,119,119,119,119,119,119,119,113,105,94],"timestamp_mouse":[12,23,42,62,83,101,121,141,163,183,201,223,243,263,282,302,322,342,363,381,402,422,443,462,482,502,522,542,561,582,603,622,642,662,681,702,722,742,762,782,801,822,843,862,881,902,923,942,962,982,1002,1023,1042,1063,1083,1102,1121,1143,1162,1182,1202,1221,1243,1262,1282,1302,1322],"xSR":741.5,"ySR":573.95,"xT1":424.9,"yT1":0,"xT2":1058.1,"yT2":0,"toosoon":0,"cond_shown":"equaldotanddens","ratio_trial":750,"smaller_num":"15","larger_num":"20","correct_side":2,"subjID":"JuanaNeira28","gender":"1","age":"8","school":"4"},{"start_time":1552328514719,"click_time":1552328515987,"finger_time":1552328515607,"fix_duration":250,"trial":30,"RT":888,"MT":380,"sideResp":1,"stimulus":"img/250/equaldotanddens/R/12_Ratio_250_L_5_R_20.png","xmouse":[811,811,811,811,811,811,811,811,811,811,811,812,812,812,812,812,812,812,812,812,812,812,812,812,812,812,812,812,812,812,812,813,813,813,813,814,814,814,814,813,810,798,788,776,762,744,705,688,672,651,638,621,616,612,608,602,583,569,549,538,529,517,512,507],"ymouse":[642,642,642,642,642,642,642,642,642,643,643,643,643,643,643,643,643,643,643,643,643,643,643,643,643,643,643,643,643,643,643,642,642,642,642,641,641,640,637,635,630,613,598,579,556,524,453,420,389,351,332,307,300,292,284,273,240,218,189,169,152,122,109,98],"timestamp_mouse":[7,31,48,69,89,107,128,147,167,189,209,229,248,267,288,308,329,348,369,389,408,429,449,469,488,509,527,549,568,589,607,629,649,669,687,708,728,749,767,788,808,828,847,869,888,907,928,949,968,989,1008,1028,1048,1069,1088,1108,1128,1147,1168,1189,1208,1228,1248,1268],"xSR":741.5,"ySR":573.95,"xT1":424.9,"yT1":0,"xT2":1058.1,"yT2":0,"toosoon":0,"cond_shown":"equaldotanddens","ratio_trial":250,"smaller_num":"5","larger_num":"20","correct_side":2,"subjID":"JuanaNeira28","gender":"1","age":"8","school":"4"},{"start_time":1552328526611,"click_time":1552328527507,"finger_time":1552328527027,"fix_duration":442.8708427007595,"trial":31,"RT":416,"MT":480,"sideResp":2,"stimulus":"img/750/randomdotsizeEA/L/14_Ratio_750_L_8_R_6.png","xmouse":[840,840,840,840,840,840,840,839,839,838,838,837,837,836,836,835,835,833,831,830,830,830,830,830,830,840,862,885,912,936,959,995,1017,1030,1042,1052,1061,1063,1064,1064,1064,1064,1064,1065,1067],"ymouse":[643,643,643,643,643,643,643,642,642,641,640,640,640,637,636,635,627,619,604,586,564,523,490,462,419,361,227,161,99,49,12,0,0,0,0,0,0,0,0,0,0,0,0,0,1],"timestamp_mouse":[17,42,55,76,97,117,136,156,177,196,217,236,256,276,296,316,335,355,376,396,416,436,455,476,496,516,536,556,576,596,615,636,656,676,696,717,737,756,775,796,815,837,856,876,896],"xSR":741.5,"ySR":573.95,"xT1":424.9,"yT1":0,"xT2":1058.1,"yT2":0,"toosoon":0,"cond_shown":"randomdotsizeEA","ratio_trial":750,"smaller_num":"6","larger_num":"8","correct_side":1,"subjID":"JuanaNeira28","gender":"1","age":"8","school":"4"},{"start_time":1552328540191,"click_time":1552328541406,"finger_time":1552328540926,"fix_duration":1143.4382369900982,"trial":32,"RT":735,"MT":480,"sideResp":2,"stimulus":"img/250/equaldotsize/L/14_Ratio_250_L_12_R_3.png","xmouse":[805,805,805,805,805,805,805,805,805,805,805,805,805,805,805,805,805,803,802,800,798,795,790,785,781,777,771,769,769,769,769,768,770,774,784,799,819,881,917,950,979,1005,1039,1054,1059,1062,1063,1067,1070,1072,1074,1077,1079,1080,1082,1084,1086,1090,1095,1103,1116],"ymouse":[633,633,633,633,633,633,633,633,634,634,634,634,634,634,634,634,634,634,635,635,636,636,635,631,627,623,617,614,614,614,614,614,606,600,590,576,556,465,411,369,332,302,265,246,237,231,224,209,204,199,193,189,182,174,172,166,163,153,141,122,94],"timestamp_mouse":[15,35,56,75,95,116,135,155,175,196,215,236,256,276,296,315,335,355,375,396,415,436,454,475,495,515,535,555,575,596,616,636,655,676,695,715,735,755,776,795,815,835,854,876,895,916,935,955,975,996,1015,1035,1055,1075,1096,1115,1135,1155,1175,1195,1215],"xSR":741.5,"ySR":573.95,"xT1":424.9,"yT1":0,"xT2":1058.1,"yT2":0,"toosoon":0,"cond_shown":"equaldotsize","ratio_trial":250,"smaller_num":"3","larger_num":"12","correct_side":1,"subjID":"JuanaNeira28","gender":"1","age":"8","school":"4"},{"start_time":1552328543397,"click_time":1552328544786,"finger_time":1552328544066,"fix_duration":449.28892244176643,"trial":33,"RT":669,"MT":720,"sideResp":1,"stimulus":"img/750/equaldotsize/L/13_Ratio_750_L_8_R_6.png","xmouse":[804,804,805,806,806,806,806,806,806,807,807,807,807,807,807,807,807,807,807,803,800,793,783,783,783,783,783,783,783,783,783,782,770,754,732,723,717,699,682,671,664,660,659,657,652,647,640,631,625,617,610,604,595,592,588,587,586,583,579,573,567,563,555,552,549,544,539,529,526,523],"ymouse":[598,598,598,597,597,597,597,597,597,597,597,597,597,597,597,597,597,597,597,598,599,599,602,602,602,602,602,602,602,602,602,602,590,571,537,519,499,454,423,399,378,359,310,287,261,234,207,149,117,90,65,47,15,5,0,0,0,0,0,0,0,1,8,11,16,20,26,34,37,38],"timestamp_mouse":[12,35,49,69,89,110,130,149,168,189,209,229,249,269,290,309,329,349,370,390,409,429,449,469,490,509,528,549,570,589,609,629,649,669,689,709,729,749,769,789,809,830,849,869,889,909,929,949,969,989,1009,1029,1049,1070,1089,1110,1129,1149,1169,1190,1210,1229,1251,1269,1289,1309,1329,1350,1370,1389],"xSR":741.5,"ySR":573.95,"xT1":424.9,"yT1":0,"xT2":1058.1,"yT2":0,"toosoon":0,"cond_shown":"equaldotsize","ratio_trial":750,"smaller_num":"6","larger_num":"8","correct_side":1,"subjID":"JuanaNeira28","gender":"1","age":"8","school":"4"},{"start_time":1552328547097,"click_time":1552328547966,"finger_time":1552328547346,"fix_duration":1069.5623557591186,"trial":34,"RT":249,"MT":620,"sideResp":2,"stimulus":"img/500/equaldotsize/L/4_Ratio_500_L_18_R_9.png","xmouse":[832,832,832,832,832,832,832,832,832,832,834,835,843,848,853,858,864,881,892,906,912,922,941,948,954,961,967,982,995,1003,1008,1013,1018,1019,1019,1019,1022,1033,1046,1056,1068,1083,1111,1122],"ymouse":[584,584,584,584,584,584,584,584,584,584,582,582,573,564,555,542,528,493,474,446,431,416,388,377,367,357,347,324,303,289,275,259,237,228,221,214,203,178,158,144,133,121,101,91],"timestamp_mouse":[10,44,49,70,89,109,129,149,170,189,209,229,249,269,289,309,329,349,369,389,409,429,449,469,490,509,528,549,570,588,609,630,649,668,689,709,729,749,770,789,810,830,849,869],"xSR":741.5,"ySR":573.95,"xT1":424.9,"yT1":0,"xT2":1058.1,"yT2":0,"toosoon":0,"cond_shown":"equaldotsize","ratio_trial":500,"smaller_num":"9","larger_num":"18","correct_side":1,"subjID":"JuanaNeira28","gender":"1","age":"8","school":"4"},{"start_time":1552328571357,"click_time":1552328572486,"finger_time":1552328571426,"fix_duration":1189.569924815863,"trial":35,"RT":69,"MT":1060,"sideResp":1,"stimulus":"img/250/equaldotanddens/R/10_Ratio_250_L_4_R_16.png","xmouse":[744,742,742,741,740,740,740,738,737,735,735,735,735,735,735,735,736,737,740,745,751,762,779,801,854,859,867,869,869,869,865,862,858,852,830,813,789,778,769,751,742,727,714,703,690,686,683,676,665,632,610,589,568,548,527,526,523],"ymouse":[578,579,579,579,579,579,579,580,580,581,581,581,581,581,581,581,581,581,581,580,578,575,565,551,505,495,470,454,441,421,411,404,399,392,379,371,355,346,336,312,296,279,261,244,214,194,179,160,142,96,74,55,40,28,16,16,15],"timestamp_mouse":[15,38,50,69,90,109,130,149,169,189,209,229,249,269,289,309,329,350,369,389,408,429,449,470,489,510,529,549,569,589,609,629,649,669,689,709,729,749,769,789,809,829,849,868,890,909,929,949,969,989,1009,1029,1049,1070,1089,1110,1129],"xSR":741.5,"ySR":573.95,"xT1":424.9,"yT1":0,"xT2":1058.1,"yT2":0,"toosoon":0,"cond_shown":"equaldotanddens","ratio_trial":250,"smaller_num":"4","larger_num":"16","correct_side":2,"subjID":"JuanaNeira28","gender":"1","age":"8","school":"4"},{"start_time":1552328574701,"click_time":1552328575546,"finger_time":1552328574966,"fix_duration":614.8322373992853,"trial":36,"RT":265,"MT":580,"sideResp":2,"stimulus":"img/500/equaldotsize/R/12_Ratio_500_L_1_R_2.png","xmouse":[777,777,777,777,777,777,777,777,782,791,801,813,833,842,849,855,860,873,891,908,929,950,989,1008,1029,1053,1077,1123,1161,1178,1188,1193,1200,1200,1200,1198,1198,1198,1192,1186,1179,1169,1146],"ymouse":[602,602,602,602,602,602,602,602,602,601,598,593,582,576,569,564,557,543,530,519,507,494,460,439,415,386,356,288,224,174,131,87,9,0,0,0,0,0,0,0,0,6,21],"timestamp_mouse":[10,25,45,65,85,106,126,145,165,186,206,225,245,265,286,305,325,345,365,385,405,425,445,465,485,505,525,545,565,585,606,625,645,665,686,705,725,745,765,786,805,826,845],"xSR":741.5,"ySR":573.95,"xT1":424.9,"yT1":0,"xT2":1058.1,"yT2":0,"toosoon":0,"cond_shown":"equaldotsize","ratio_trial":500,"smaller_num":"1","larger_num":"2","correct_side":2,"subjID":"JuanaNeira28","gender":"1","age":"8","school":"4"},{"start_time":1552328577684,"click_time":1552328579006,"finger_time":1552328578167,"fix_duration":397.94180542625355,"trial":37,"RT":483,"MT":839,"sideResp":2,"stimulus":"img/750/equaldotsize/L/1_Ratio_750_L_20_R_15.png","xmouse":[780,780,780,780,780,780,780,780,780,780,780,780,780,780,780,780,780,780,780,780,784,789,799,831,848,867,888,906,948,995,1029,1064,1101,1156,1176,1193,1208,1218,1228,1243,1244,1244,1241,1232,1229,1229,1229,1226,1220,1212,1212,1210,1207,1194,1188,1178,1173,1171,1171,1171,1169,1166,1164,1163,1161,1159,1158],"ymouse":[658,658,658,658,658,658,658,658,658,658,658,658,658,658,658,658,658,658,658,658,652,645,633,611,599,586,569,550,496,443,396,344,290,190,146,106,71,47,24,0,0,0,0,0,0,0,0,0,0,0,0,0,2,8,12,19,23,25,25,26,27,28,30,32,33,36,36],"timestamp_mouse":[10,22,42,62,82,102,123,142,162,182,202,223,243,263,282,302,322,343,362,383,401,422,442,462,483,502,522,542,562,582,602,623,642,662,682,702,722,741,761,783,803,822,842,862,882,902,922,944,963,982,1002,1022,1042,1063,1082,1102,1123,1142,1162,1182,1202,1222,1243,1262,1283,1302,1322],"xSR":741.5,"ySR":573.95,"xT1":424.9,"yT1":0,"xT2":1058.1,"yT2":0,"toosoon":0,"cond_shown":"equaldotsize","ratio_trial":750,"smaller_num":"15","larger_num":"20","correct_side":1,"subjID":"JuanaNeira28","gender":"1","age":"8","school":"4"},{"start_time":1552328580914,"click_time":1552328581886,"finger_time":1552328581285,"fix_duration":345.50608458252805,"trial":38,"RT":371,"MT":601,"sideResp":1,"stimulus":"img/250/equaldotsize/L/14_Ratio_250_L_12_R_3.png","xmouse":[813,813,813,813,813,813,813,813,813,813,813,813,813,813,813,813,814,814,814,812,810,803,800,796,791,787,774,758,746,730,709,656,634,619,603,590,565,556,548,546,545,546,549,553,555,557,555,543,510],"ymouse":[620,620,620,620,620,620,620,620,620,620,620,620,620,618,616,611,595,589,573,555,539,501,483,468,454,444,429,418,409,399,383,346,328,311,292,276,242,229,211,199,185,160,147,133,123,110,83,65,25],"timestamp_mouse":[12,37,52,71,92,111,132,153,173,193,212,233,253,272,292,313,332,353,371,392,412,432,452,472,492,512,531,552,572,592,611,632,652,672,692,712,732,752,772,792,812,832,851,872,892,913,931,952,972],"xSR":741.5,"ySR":573.95,"xT1":424.9,"yT1":0,"xT2":1058.1,"yT2":0,"toosoon":0,"cond_shown":"equaldotsize","ratio_trial":250,"smaller_num":"3","larger_num":"12","correct_side":1,"subjID":"JuanaNeira28","gender":"1","age":"8","school":"4"},{"start_time":1552328584651,"click_time":1552328585646,"finger_time":1552328585106,"fix_duration":1403.30325140432,"trial":39,"RT":455,"MT":540,"sideResp":2,"stimulus":"img/250/randomdotsizeEA/R/13_Ratio_250_L_2_R_8.png","xmouse":[787,787,787,787,789,789,789,789,789,789,789,789,789,789,789,789,789,791,793,811,818,834,844,853,877,891,907,927,942,974,1005,1022,1040,1052,1065,1069,1071,1071,1071,1071,1072,1073,1078,1088,1110,1121,1126,1127,1127,1122],"ymouse":[609,609,609,609,614,615,615,615,615,615,615,615,615,615,615,615,615,615,615,609,606,597,590,583,560,544,528,509,493,452,414,391,366,345,306,292,279,273,271,270,268,265,254,239,208,191,170,150,126,86],"timestamp_mouse":[15,38,55,75,95,116,135,156,176,195,215,236,255,276,296,315,336,355,375,395,415,435,455,475,495,515,535,555,576,595,616,635,656,675,695,714,735,755,775,795,815,835,855,875,896,916,935,955,975,995],"xSR":741.5,"ySR":573.95,"xT1":424.9,"yT1":0,"xT2":1058.1,"yT2":0,"toosoon":0,"cond_shown":"randomdotsizeEA","ratio_trial":250,"smaller_num":"2","larger_num":"8","correct_side":2,"subjID":"JuanaNeira28","gender":"1","age":"8","school":"4"},{"start_time":1552328587118,"click_time":1552328588046,"finger_time":1552328587387,"fix_duration":269.67125820643645,"trial":40,"RT":269,"MT":659,"sideResp":2,"stimulus":"img/250/equaldotanddens/L/14_Ratio_250_L_12_R_3.png","xmouse":[809,809,809,809,809,809,809,809,809,809,809,809,809,812,815,819,826,830,835,838,843,852,857,861,867,873,892,905,927,942,957,972,976,980,986,991,1008,1022,1039,1045,1050,1054,1056,1059,1061,1062,1067],"ymouse":[627,627,627,627,627,627,627,627,621,613,604,588,579,571,562,549,523,509,486,472,457,431,421,410,402,394,376,366,350,339,327,303,289,276,263,254,231,217,192,174,155,126,116,110,107,104,98],"timestamp_mouse":[12,40,49,68,88,108,128,149,168,188,208,228,248,269,288,309,328,348,368,389,408,428,448,469,488,508,528,547,567,589,608,627,647,668,688,708,728,748,768,789,809,828,848,868,888,908,928],"xSR":741.5,"ySR":573.95,"xT1":424.9,"yT1":0,"xT2":1058.1,"yT2":0,"toosoon":0,"cond_shown":"equaldotanddens","ratio_trial":250,"smaller_num":"3","larger_num":"12","correct_side":1,"subjID":"JuanaNeira28","gender":"1","age":"8","school":"4"},{"start_time":1552328596942,"click_time":1552328597846,"finger_time":1552328597347,"fix_duration":494.76811862638135,"trial":41,"RT":405,"MT":499,"sideResp":2,"stimulus":"img/250/equaldotanddens/L/1_Ratio_250_L_8_R_2.png","xmouse":[787,787,787,787,787,787,787,787,787,787,787,787,787,787,787,787,787,787,791,792,792,792,792,791,788,784,779,772,771,769,775,783,793,803,813,845,862,876,890,907,952,988,1019,1055,1076,1111],"ymouse":[627,627,627,627,627,627,627,627,627,627,627,627,627,627,627,627,627,627,603,588,554,539,525,514,506,498,487,470,459,447,409,387,363,346,328,306,301,297,292,285,255,229,202,169,136,62],"timestamp_mouse":[12,34,44,64,85,105,125,145,165,184,205,225,245,265,285,305,324,344,365,384,404,424,444,464,484,504,524,544,563,584,604,624,644,664,684,704,724,744,764,784,804,825,844,864,885,904],"xSR":741.5,"ySR":573.95,"xT1":424.9,"yT1":0,"xT2":1058.1,"yT2":0,"toosoon":0,"cond_shown":"equaldotanddens","ratio_trial":250,"smaller_num":"2","larger_num":"8","correct_side":1,"subjID":"JuanaNeira28","gender":"1","age":"8","school":"4"},{"start_time":1552328600343,"click_time":1552328601286,"finger_time":1552328600726,"fix_duration":874.2546010925013,"trial":42,"RT":383,"MT":560,"sideResp":1,"stimulus":"img/900/equaldotanddens/L/8_Ratio_900_L_20_R_18.png","xmouse":[790,790,790,790,790,790,790,790,790,790,790,790,790,790,790,790,790,786,779,768,746,738,732,727,724,720,718,716,714,712,710,706,705,703,703,701,699,697,691,686,674,668,659,648,634,594,565,500],"ymouse":[614,614,614,614,614,614,614,614,614,614,614,614,614,614,614,614,614,597,583,564,531,515,501,486,473,447,430,421,410,400,373,356,340,327,312,285,271,250,235,221,195,181,168,155,141,107,85,39],"timestamp_mouse":[13,34,44,63,84,104,123,143,164,184,205,223,245,264,283,303,324,344,363,383,403,423,444,464,483,503,523,543,564,583,603,624,643,663,683,703,723,743,764,783,803,823,843,864,884,903,923,943],"xSR":741.5,"ySR":573.95,"xT1":424.9,"yT1":0,"xT2":1058.1,"yT2":0,"toosoon":0,"cond_shown":"equaldotanddens","ratio_trial":900,"smaller_num":"18","larger_num":"20","correct_side":1,"subjID":"JuanaNeira28","gender":"1","age":"8","school":"4"},{"start_time":1552328605239,"click_time":1552328606766,"finger_time":1552328606067,"fix_duration":250,"trial":43,"RT":828,"MT":699,"sideResp":2,"stimulus":"img/500/equaldotanddens/R/1_Ratio_500_L_9_R_18.png","xmouse":[780,780,780,780,780,780,780,780,780,780,780,780,780,780,780,780,780,780,780,780,780,780,780,780,780,780,780,780,780,780,780,780,780,780,780,780,780,781,782,785,797,801,817,833,855,912,943,971,992,1006,1024,1034,1041,1046,1054,1069,1078,1087,1093,1100,1117,1121,1125,1126,1128,1129,1129,1129,1129,1129,1129,1128,1127,1125,1125,1123,1123],"ymouse":[621,621,621,621,621,621,621,621,621,621,621,621,621,621,621,621,621,621,621,621,621,621,621,621,621,621,621,621,621,621,621,621,621,621,621,621,621,613,609,602,575,568,543,526,506,456,421,382,349,325,289,271,262,253,244,228,220,211,203,194,170,162,156,152,147,143,142,141,140,137,130,121,114,110,107,102,99],"timestamp_mouse":[13,38,47,68,88,109,128,147,167,188,207,227,248,269,288,307,327,348,368,387,408,429,448,468,487,507,527,547,568,589,608,628,648,668,687,709,727,748,767,787,807,828,847,868,887,907,927,948,968,989,1008,1028,1047,1068,1087,1107,1127,1147,1167,1188,1207,1228,1247,1268,1287,1307,1327,1348,1367,1388,1407,1427,1447,1467,1488,1507,1527],"xSR":741.5,"ySR":573.95,"xT1":424.9,"yT1":0,"xT2":1058.1,"yT2":0,"toosoon":0,"cond_shown":"equaldotanddens","ratio_trial":500,"smaller_num":"9","larger_num":"18","correct_side":2,"subjID":"JuanaNeira28","gender":"1","age":"8","school":"4"},{"start_time":1552328609091,"click_time":1552328611207,"finger_time":1552328610387,"fix_duration":1044.5045652623064,"trial":44,"RT":1296,"MT":820,"sideResp":2,"stimulus":"img/900/equaldotsize/L/10_Ratio_900_L_20_R_18.png","xmouse":[812,812,812,812,812,812,812,812,812,812,812,812,812,812,812,812,812,812,812,812,812,812,812,812,812,812,812,812,812,812,812,812,812,812,812,812,812,812,812,812,812,812,812,812,813,813,813,813,813,813,813,813,813,813,813,813,813,813,813,813,813,813,827,839,854,873,892,938,962,997,1018,1038,1075,1089,1099,1107,1113,1116,1117,1121,1122,1122,1126,1128,1129,1131,1134,1141,1144,1148,1151,1152,1156,1158,1160,1163,1167,1176,1185,1188,1192,1192,1192,1190,1169,1120],"ymouse":[626,626,626,626,626,626,626,626,626,626,626,626,626,626,626,626,626,626,626,626,626,626,626,626,626,626,626,626,626,626,626,626,626,626,626,626,626,626,626,626,626,626,618,615,614,614,614,614,614,614,614,614,614,614,614,614,614,614,614,614,614,612,592,574,548,514,476,391,358,325,311,299,280,273,269,266,264,261,260,257,255,253,248,244,238,232,226,211,205,195,189,185,177,171,166,158,148,125,106,97,90,86,82,80,73,61],"timestamp_mouse":[21,44,56,75,95,115,136,156,176,197,216,235,255,275,295,316,335,356,376,396,415,435,455,476,496,516,536,556,575,597,616,635,656,675,695,717,736,755,776,796,817,835,855,875,896,917,936,956,976,997,1016,1035,1055,1075,1095,1115,1136,1156,1176,1197,1216,1236,1255,1275,1296,1316,1337,1355,1375,1395,1415,1435,1455,1475,1495,1515,1535,1555,1577,1595,1616,1635,1655,1675,1695,1716,1737,1755,1775,1795,1815,1836,1856,1875,1896,1915,1935,1955,1975,1996,2016,2035,2055,2075,2096,2115],"xSR":741.5,"ySR":573.95,"xT1":424.9,"yT1":0,"xT2":1058.1,"yT2":0,"toosoon":0,"cond_shown":"equaldotsize","ratio_trial":900,"smaller_num":"18","larger_num":"20","correct_side":1,"subjID":"JuanaNeira28","gender":"1","age":"8","school":"4"},{"start_time":1552328615755,"click_time":1552328617186,"finger_time":1552328616147,"fix_duration":1186.0787183388206,"trial":45,"RT":392,"MT":1039,"sideResp":2,"stimulus":"img/750/randomdotsizeEA/R/3_Ratio_750_L_15_R_20.png","xmouse":[787,787,787,787,787,787,787,787,787,787,787,787,787,787,787,787,787,787,787,791,791,792,792,794,801,809,817,826,844,907,967,1028,1078,1114,1141,1149,1161,1168,1173,1183,1186,1187,1187,1187,1189,1189,1192,1193,1197,1201,1204,1206,1208,1210,1210,1209,1209,1209,1207,1203,1199,1192,1185,1179,1174,1173,1173,1173,1173,1169,1164,1136],"ymouse":[622,622,622,622,622,622,622,622,622,622,622,622,622,622,622,617,609,592,576,543,531,520,509,498,475,458,449,439,427,398,369,334,295,261,219,207,196,193,192,189,187,186,186,184,178,173,159,147,133,103,84,68,53,40,25,24,24,24,24,24,24,24,24,24,24,24,24,24,24,24,24,24],"timestamp_mouse":[13,38,52,72,92,111,132,151,171,191,212,231,251,273,291,311,331,351,371,392,411,432,451,472,491,511,531,552,571,591,611,631,651,672,691,712,732,752,772,791,811,832,851,872,891,912,931,952,971,991,1011,1031,1051,1072,1091,1111,1132,1152,1172,1191,1211,1231,1251,1271,1291,1311,1332,1351,1372,1391,1411,1431],"xSR":741.5,"ySR":573.95,"xT1":424.9,"yT1":0,"xT2":1058.1,"yT2":0,"toosoon":0,"cond_shown":"randomdotsizeEA","ratio_trial":750,"smaller_num":"15","larger_num":"20","correct_side":2,"subjID":"JuanaNeira28","gender":"1","age":"8","school":"4"},{"start_time":1552328618479,"click_time":1552328619686,"finger_time":1552328618787,"fix_duration":250,"trial":46,"RT":308,"MT":899,"sideResp":2,"stimulus":"img/750/randomdotsizeEA/L/6_Ratio_750_L_24_R_18.png","xmouse":[759,759,759,759,759,759,759,759,759,759,759,759,758,761,768,775,780,786,799,802,815,821,830,851,864,874,884,893,919,936,961,975,986,1000,1003,1006,1007,1009,1012,1014,1016,1016,1018,1019,1021,1022,1022,1023,1028,1033,1041,1048,1054,1069,1078,1085,1094,1102,1110,1114,1115],"ymouse":[602,602,602,602,602,602,602,602,602,602,602,602,598,592,581,572,565,555,537,533,522,517,513,505,501,495,489,482,457,440,411,395,379,358,352,348,345,342,334,329,326,323,319,314,310,308,307,305,298,292,280,268,252,217,198,178,160,142,116,104,99],"timestamp_mouse":[7,27,47,68,87,109,128,148,169,187,208,227,247,267,287,308,327,348,367,388,407,427,447,467,487,508,528,547,567,588,607,628,648,668,687,707,727,747,767,787,807,828,847,867,887,908,928,948,967,988,1007,1028,1047,1067,1087,1107,1127,1149,1167,1187,1207],"xSR":741.5,"ySR":573.95,"xT1":424.9,"yT1":0,"xT2":1058.1,"yT2":0,"toosoon":0,"cond_shown":"randomdotsizeEA","ratio_trial":750,"smaller_num":"18","larger_num":"24","correct_side":1,"subjID":"JuanaNeira28","gender":"1","age":"8","school":"4"},{"start_time":1552328622405,"click_time":1552328623466,"finger_time":1552328622886,"fix_duration":1275.7805996927902,"trial":47,"RT":481,"MT":580,"sideResp":1,"stimulus":"img/500/randomdotsizeEA/R/6_Ratio_500_L_9_R_18.png","xmouse":[811,811,811,811,811,811,811,811,811,811,811,811,811,811,811,811,811,811,811,811,811,811,807,802,796,791,786,781,780,777,774,770,765,762,760,758,757,757,757,756,755,754,744,734,718,692,643,585,573,562,548,541,529,522],"ymouse":[601,601,601,601,601,601,601,601,601,601,601,601,601,601,601,601,601,601,601,601,601,602,590,579,566,554,545,531,524,514,503,490,457,436,421,408,394,367,352,340,329,319,295,279,265,246,212,172,160,147,132,119,93,76],"timestamp_mouse":[10,22,42,61,81,102,121,142,161,181,202,221,241,261,282,301,322,341,362,382,402,421,441,461,481,501,521,541,561,581,601,622,641,662,681,701,722,741,761,781,801,821,841,862,881,901,921,942,962,982,1001,1021,1041,1061],"xSR":741.5,"ySR":573.95,"xT1":424.9,"yT1":0,"xT2":1058.1,"yT2":0,"toosoon":0,"cond_shown":"randomdotsizeEA","ratio_trial":500,"smaller_num":"9","larger_num":"18","correct_side":2,"subjID":"JuanaNeira28","gender":"1","age":"8","school":"4"},{"start_time":1552328625286,"click_time":1552328626308,"finger_time":1552328625946,"fix_duration":678.7683093349959,"trial":48,"RT":660,"MT":362,"sideResp":2,"stimulus":"img/900/randomdotsizeEA/L/2_Ratio_900_L_20_R_18.png","xmouse":[804,804,804,804,804,804,804,804,804,804,804,802,801,799,798,798,797,797,797,797,797,797,797,797,797,797,797,797,797,797,797,799,803,816,824,835,848,864,903,926,964,992,1021,1066,1086,1100,1114,1123,1139,1148,1149,1152],"ymouse":[597,597,597,597,597,597,597,597,597,597,597,599,600,603,604,605,606,606,606,606,606,606,606,606,606,606,606,606,606,606,604,600,590,567,556,544,530,517,476,449,406,382,356,308,288,266,243,220,170,135,124,94],"timestamp_mouse":[10,20,43,61,81,101,120,140,160,180,200,220,241,260,281,301,321,342,362,380,401,421,440,460,481,500,522,540,560,581,601,620,640,660,680,702,720,740,760,780,800,822,840,860,880,901,921,942,960,981,1001,1021],"xSR":741.5,"ySR":573.95,"xT1":424.9,"yT1":0,"xT2":1058.1,"yT2":0,"toosoon":0,"cond_shown":"randomdotsizeEA","ratio_trial":900,"smaller_num":"18","larger_num":"20","correct_side":1,"subjID":"JuanaNeira28","gender":"1","age":"8","school":"4"},{"start_time":1552328628320,"click_time":1552328629947,"finger_time":1552328628666,"fix_duration":552.3396051652692,"trial":49,"RT":346,"MT":1281,"sideResp":1,"stimulus":"img/750/equaldotanddens/L/9_Ratio_750_L_4_R_3.png","xmouse":[777,777,777,777,777,777,777,777,777,777,779,778,776,773,770,766,758,753,747,741,735,720,717,717,717,717,718,718,718,718,718,718,718,718,711,704,682,675,661,650,638,605,584,549,490,432,253,171,103,66,51,48,48,48,48,48,47,48,50,53,56,94,118,138,150,157,167,177,183,195,211,256,285,311,331,341,345,353,372,405,444,491],"ymouse":[623,623,623,623,623,623,623,623,623,623,622,619,617,614,607,599,581,568,554,545,531,494,477,462,450,439,428,425,422,419,417,405,397,383,367,346,297,272,235,209,180,119,84,42,0,0,0,0,0,0,0,0,0,0,1,1,7,16,20,24,28,50,60,70,75,79,84,86,88,92,96,108,111,113,113,113,113,112,111,111,108,94],"timestamp_mouse":[12,38,47,67,87,106,126,148,167,187,206,226,246,266,286,307,326,346,366,387,407,426,446,466,486,507,526,547,566,586,606,626,646,666,686,706,726,747,767,788,807,826,847,866,886,908,928,946,966,987,1006,1027,1047,1066,1087,1107,1126,1147,1166,1187,1207,1226,1246,1267,1287,1307,1326,1346,1366,1387,1406,1427,1446,1466,1486,1507,1526,1547,1567,1588,1606,1626],"xSR":741.5,"ySR":573.95,"xT1":424.9,"yT1":0,"xT2":1058.1,"yT2":0,"toosoon":0,"cond_shown":"equaldotanddens","ratio_trial":750,"smaller_num":"3","larger_num":"4","correct_side":1,"subjID":"JuanaNeira28","gender":"1","age":"8","school":"4"},{"start_time":1552328631779,"click_time":1552328632927,"finger_time":1552328632206,"fix_duration":432.9863892379852,"trial":50,"RT":427,"MT":721,"sideResp":1,"stimulus":"img/250/equaldotsize/L/2_Ratio_250_L_16_R_4.png","xmouse":[790,790,790,790,790,790,790,790,790,790,790,790,790,790,790,790,790,790,790,784,778,766,752,727,719,710,705,702,696,689,680,669,659,645,639,633,630,626,618,613,606,601,595,582,579,567,559,550,533,526,521,513,505,491,481,476,473,472],"ymouse":[609,609,609,609,609,609,609,609,609,609,609,609,609,609,609,609,609,609,609,595,585,564,536,490,472,450,440,432,418,408,394,378,361,333,315,294,282,269,238,222,198,175,151,86,73,33,8,0,0,0,0,0,0,0,0,0,0,3],"timestamp_mouse":[11,27,49,68,88,107,128,148,169,187,208,227,247,267,288,307,327,349,369,387,408,427,448,467,488,507,527,547,567,587,607,628,647,667,688,707,728,747,767,788,808,827,847,867,887,907,927,948,968,988,1008,1027,1047,1067,1087,1108,1128,1148],"xSR":741.5,"ySR":573.95,"xT1":424.9,"yT1":0,"xT2":1058.1,"yT2":0,"toosoon":0,"cond_shown":"equaldotsize","ratio_trial":250,"smaller_num":"4","larger_num":"16","correct_side":1,"subjID":"JuanaNeira28","gender":"1","age":"8","school":"4"},{"start_time":1552328635348,"click_time":1552328635966,"finger_time":1552328635486,"fix_duration":1318.176263481082,"trial":51,"RT":138,"MT":480,"sideResp":1,"stimulus":"img/500/randomdotsizeEA/R/15_Ratio_500_L_1_R_2.png","xmouse":[803,803,803,803,803,803,798,785,771,757,727,713,698,686,674,640,635,622,617,613,610,608,606,604,599,592,584,578,569,557,533,515],"ymouse":[591,591,591,591,591,591,585,567,549,527,484,464,444,425,404,348,337,308,294,284,271,266,258,247,233,205,180,160,141,121,76,52],"timestamp_mouse":[1,19,38,58,78,100,119,138,158,178,198,218,238,258,278,299,320,338,358,378,398,418,438,459,480,498,519,538,559,578,598,618],"xSR":741.5,"ySR":573.95,"xT1":424.9,"yT1":0,"xT2":1058.1,"yT2":0,"toosoon":0,"cond_shown":"randomdotsizeEA","ratio_trial":500,"smaller_num":"1","larger_num":"2","correct_side":2,"subjID":"JuanaNeira28","gender":"1","age":"8","school":"4"},{"start_time":1552328638854,"click_time":1552328639927,"finger_time":1552328639486,"fix_duration":466.6983190533447,"trial":52,"RT":632,"MT":441,"sideResp":2,"stimulus":"img/500/equaldotanddens/R/9_Ratio_500_L_2_R_4.png","xmouse":[820,820,820,820,820,820,820,820,820,820,820,820,820,820,820,820,820,820,820,820,820,820,820,820,820,823,828,833,835,838,841,846,855,865,901,920,945,980,1019,1098,1143,1162,1177,1186,1194,1194,1194,1194,1193,1176,1171,1153,1140,1131],"ymouse":[617,617,617,617,617,617,617,617,617,617,617,617,617,617,617,617,617,617,617,617,617,617,617,617,613,606,598,592,590,587,585,583,580,577,563,554,541,521,499,440,400,373,342,317,273,257,245,234,224,191,180,146,118,97],"timestamp_mouse":[13,40,53,72,92,113,132,153,173,192,213,234,253,272,293,313,333,354,373,392,412,434,453,472,493,512,534,552,573,592,613,632,652,672,692,712,732,752,772,792,813,832,852,873,892,912,933,952,972,992,1012,1032,1052,1073],"xSR":741.5,"ySR":573.95,"xT1":424.9,"yT1":0,"xT2":1058.1,"yT2":0,"toosoon":0,"cond_shown":"equaldotanddens","ratio_trial":500,"smaller_num":"2","larger_num":"4","correct_side":2,"subjID":"JuanaNeira28","gender":"1","age":"8","school":"4"},{"start_time":1552328641919,"click_time":1552328643346,"finger_time":1552328642346,"fix_duration":250,"trial":53,"RT":427,"MT":1000,"sideResp":2,"stimulus":"img/500/equaldotsize/R/6_Ratio_500_L_9_R_18.png","xmouse":[789,789,789,789,789,789,789,789,789,789,789,789,789,789,789,789,789,789,789,788,786,782,780,777,776,773,766,759,756,750,745,737,735,735,735,735,735,735,735,735,736,746,753,762,775,788,824,847,885,931,985,1064,1089,1108,1125,1141,1166,1181,1186,1188,1189,1189,1188,1187,1185,1182,1175,1171,1164,1161,1159,1156],"ymouse":[619,619,619,619,619,619,619,619,619,619,619,619,619,619,619,619,619,614,603,592,580,548,533,519,507,495,475,460,449,434,420,391,378,371,368,367,367,367,367,366,366,366,366,366,366,366,359,352,341,326,305,253,233,214,194,173,136,111,97,89,81,74,71,70,70,70,68,68,67,66,66,66],"timestamp_mouse":[13,37,47,68,87,108,127,147,168,189,207,228,248,268,289,307,328,348,367,387,407,427,447,467,488,507,527,549,567,588,607,627,648,667,687,708,728,748,767,788,807,827,847,867,887,907,927,947,967,988,1008,1029,1048,1067,1087,1108,1127,1148,1167,1187,1207,1227,1247,1268,1288,1308,1327,1347,1367,1387,1407,1427],"xSR":741.5,"ySR":573.95,"xT1":424.9,"yT1":0,"xT2":1058.1,"yT2":0,"toosoon":0,"cond_shown":"equaldotsize","ratio_trial":500,"smaller_num":"9","larger_num":"18","correct_side":2,"subjID":"JuanaNeira28","gender":"1","age":"8","school":"4"},{"start_time":1552328647429,"click_time":1552328648887,"finger_time":1552328647947,"fix_duration":1158.8015558720358,"trial":54,"RT":518,"MT":940,"sideResp":1,"stimulus":"img/250/equaldotsize/R/12_Ratio_250_L_5_R_20.png","xmouse":[792,792,792,792,792,792,792,792,792,792,792,792,792,792,792,792,792,793,793,795,799,799,802,803,807,811,812,815,818,819,821,821,821,821,821,823,823,823,823,823,823,823,817,809,801,784,776,770,766,764,756,752,742,733,724,702,689,668,646,621,565,537,497,478,462,449,449,449,449,448,452,453,457],"ymouse":[616,616,616,616,616,616,616,616,616,616,616,616,616,616,616,616,616,615,613,609,602,600,595,588,579,560,550,537,531,524,517,516,515,513,511,499,490,475,460,442,397,360,334,307,276,223,205,190,179,170,157,152,145,141,139,134,132,129,126,122,118,117,110,109,108,108,108,108,108,107,101,101,99],"timestamp_mouse":[18,39,58,79,98,118,137,158,178,197,217,238,258,277,298,318,338,357,377,397,417,438,457,478,497,518,538,557,577,598,617,638,657,678,699,717,738,758,777,798,817,839,857,877,897,917,938,958,978,999,1017,1038,1057,1077,1097,1117,1137,1158,1177,1198,1217,1238,1257,1278,1297,1317,1338,1358,1378,1397,1417,1438,1458],"xSR":741.5,"ySR":573.95,"xT1":424.9,"yT1":0,"xT2":1058.1,"yT2":0,"toosoon":0,"cond_shown":"equaldotsize","ratio_trial":250,"smaller_num":"5","larger_num":"20","correct_side":2,"subjID":"JuanaNeira28","gender":"1","age":"8","school":"4"},{"start_time":1552328652321,"click_time":1552328653807,"finger_time":1552328652766,"fix_duration":372.3152142906436,"trial":55,"RT":445,"MT":1041,"sideResp":2,"stimulus":"img/500/randomdotsizeEA/R/3_Ratio_500_L_10_R_20.png","xmouse":[780,780,780,780,780,780,780,780,780,780,780,780,780,780,780,780,780,780,780,780,780,784,787,789,792,796,805,813,825,833,845,873,899,929,960,1002,1097,1173,1207,1234,1253,1278,1286,1290,1292,1295,1296,1296,1295,1293,1285,1272,1260,1250,1238,1224,1205,1202,1200,1200,1198,1194,1192,1190,1189,1188,1183,1181,1175,1170,1166,1160,1159,1159,1158],"ymouse":[605,605,605,605,605,605,605,605,605,605,605,605,605,605,605,605,605,605,605,605,601,579,571,565,561,555,546,539,531,526,519,498,477,451,422,387,301,222,166,109,53,0,0,0,0,0,0,0,0,0,0,0,2,8,15,23,33,34,35,35,35,39,40,40,41,42,45,46,49,51,53,55,56,56,56],"timestamp_mouse":[10,39,46,65,85,107,126,146,167,185,206,226,247,266,285,307,325,345,366,386,405,425,445,466,485,505,525,546,565,586,605,625,645,665,685,705,726,745,765,785,805,825,846,866,886,905,926,945,965,985,1006,1025,1045,1066,1085,1105,1125,1146,1165,1185,1206,1225,1245,1266,1285,1305,1327,1346,1365,1385,1405,1425,1445,1466,1485],"xSR":741.5,"ySR":573.95,"xT1":424.9,"yT1":0,"xT2":1058.1,"yT2":0,"toosoon":0,"cond_shown":"randomdotsizeEA","ratio_trial":500,"smaller_num":"10","larger_num":"20","correct_side":2,"subjID":"JuanaNeira28","gender":"1","age":"8","school":"4"},{"start_time":1552328655353,"click_time":1552328656326,"finger_time":1552328655687,"fix_duration":405.0325169846789,"trial":56,"RT":334,"MT":639,"sideResp":2,"stimulus":"img/500/randomdotsizeEA/R/12_Ratio_500_L_1_R_2.png","xmouse":[809,809,809,809,809,809,809,809,809,809,810,811,813,815,820,824,829,832,838,850,862,875,892,908,954,962,978,986,993,1002,1006,1014,1019,1028,1052,1056,1069,1076,1082,1087,1088,1089,1091,1094,1105,1117,1120,1125,1125],"ymouse":[626,626,626,626,626,626,626,626,626,626,625,621,615,607,589,581,570,565,555,540,528,514,500,485,443,435,415,405,396,381,376,368,360,348,312,304,277,259,240,211,198,187,180,172,153,135,129,106,89],"timestamp_mouse":[19,43,53,74,94,113,135,153,173,193,213,234,253,274,293,313,334,354,373,393,413,433,453,474,493,514,533,553,573,593,613,633,653,673,693,714,733,753,773,793,813,833,854,874,893,913,934,953,973],"xSR":741.5,"ySR":573.95,"xT1":424.9,"yT1":0,"xT2":1058.1,"yT2":0,"toosoon":0,"cond_shown":"randomdotsizeEA","ratio_trial":500,"smaller_num":"1","larger_num":"2","correct_side":2,"subjID":"JuanaNeira28","gender":"1","age":"8","school":"4"},{"start_time":1552328658972,"click_time":1552328659829,"finger_time":1552328659206,"fix_duration":1324.3307941692635,"trial":57,"RT":234,"MT":623,"sideResp":2,"stimulus":"img/750/equaldotsize/R/7_Ratio_750_L_3_R_4.png","xmouse":[772,773,773,776,776,776,777,778,780,783,789,795,804,824,839,849,857,864,877,883,890,897,904,919,931,942,952,963,986,1000,1014,1030,1045,1067,1077,1080,1084,1089,1102,1108,1114,1120,1124],"ymouse":[621,617,617,608,606,605,604,602,595,588,577,561,543,507,481,467,454,442,422,411,403,394,387,375,364,353,341,329,302,286,270,251,235,206,190,181,172,160,136,126,114,104,97],"timestamp_mouse":[15,41,54,74,96,114,134,154,174,194,216,234,254,274,294,314,334,354,374,396,415,434,455,474,494,514,534,556,575,595,615,635,656,676,696,715,736,755,775,795,816,835,856],"xSR":741.5,"ySR":573.95,"xT1":424.9,"yT1":0,"xT2":1058.1,"yT2":0,"toosoon":0,"cond_shown":"equaldotsize","ratio_trial":750,"smaller_num":"3","larger_num":"4","correct_side":2,"subjID":"JuanaNeira28","gender":"1","age":"8","school":"4"},{"start_time":1552328661029,"click_time":1552328661747,"finger_time":1552328661147,"fix_duration":300.1909694551623,"trial":58,"RT":118,"MT":600,"sideResp":2,"stimulus":"img/500/randomdotsizeEA/R/9_Ratio_500_L_2_R_4.png","xmouse":[783,783,787,794,804,824,835,845,858,868,891,910,923,936,949,982,998,1018,1032,1045,1060,1064,1065,1068,1071,1074,1074,1075,1077,1078,1080,1086,1090,1096,1103,1117],"ymouse":[591,591,590,584,575,557,545,532,515,496,459,433,417,400,382,338,318,294,279,264,244,238,234,229,223,211,206,200,194,189,174,158,146,132,119,97],"timestamp_mouse":[36,42,59,78,98,118,138,158,179,200,218,238,258,279,298,318,338,358,378,398,419,438,459,478,499,518,539,558,579,599,618,638,658,678,699,718],"xSR":741.5,"ySR":573.95,"xT1":424.9,"yT1":0,"xT2":1058.1,"yT2":0,"toosoon":0,"cond_shown":"randomdotsizeEA","ratio_trial":500,"smaller_num":"2","larger_num":"4","correct_side":2,"subjID":"JuanaNeira28","gender":"1","age":"8","school":"4"},{"start_time":1552328663079,"click_time":1552328663908,"finger_time":1552328663287,"fix_duration":250,"trial":59,"RT":208,"MT":621,"sideResp":2,"stimulus":"img/750/randomdotsizeEA/R/3_Ratio_750_L_15_R_20.png","xmouse":[773,773,773,774,776,779,783,787,800,803,810,816,822,839,849,861,872,884,908,925,938,949,964,997,1010,1021,1029,1034,1042,1045,1050,1052,1055,1060,1063,1067,1072,1079,1100,1108,1114,1119],"ymouse":[647,647,647,645,641,636,628,621,596,589,572,561,549,520,503,484,464,447,406,379,359,343,328,302,292,284,277,272,260,253,242,235,228,215,207,197,185,170,129,113,100,87],"timestamp_mouse":[13,30,49,70,88,108,129,148,168,189,208,228,248,270,288,309,328,350,368,388,408,428,449,469,488,510,529,549,568,588,609,629,649,668,688,708,729,749,768,789,808,829],"xSR":741.5,"ySR":573.95,"xT1":424.9,"yT1":0,"xT2":1058.1,"yT2":0,"toosoon":0,"cond_shown":"randomdotsizeEA","ratio_trial":750,"smaller_num":"15","larger_num":"20","correct_side":2,"subjID":"JuanaNeira28","gender":"1","age":"8","school":"4"},{"start_time":1552328676687,"click_time":1552328677567,"finger_time":1552328677067,"fix_duration":1279.3143979577894,"trial":60,"RT":380,"MT":500,"sideResp":1,"stimulus":"img/900/randomdotsizeEA/R/3_Ratio_900_L_9_R_10.png","xmouse":[777,777,777,777,777,777,777,777,777,776,776,775,773,770,766,765,762,759,753,750,745,741,737,725,720,710,699,688,653,616,592,567,547,513,495,480,468,461,456,456,456,456,456,455,455],"ymouse":[658,658,658,658,658,658,658,658,658,655,653,650,646,637,630,625,615,604,577,566,547,533,518,478,455,423,387,346,263,194,152,107,64,0,0,0,0,0,0,0,0,0,0,0,4],"timestamp_mouse":[10,21,40,60,82,100,120,142,160,181,200,221,240,262,280,300,320,341,361,380,400,420,440,461,480,501,520,540,560,580,600,620,641,660,680,701,722,740,760,780,801,820,840,861,880],"xSR":741.5,"ySR":573.95,"xT1":424.9,"yT1":0,"xT2":1058.1,"yT2":0,"toosoon":0,"cond_shown":"randomdotsizeEA","ratio_trial":900,"smaller_num":"9","larger_num":"10","correct_side":2,"subjID":"JuanaNeira28","gender":"1","age":"8","school":"4"},{"start_time":1552328678955,"click_time":1552328679989,"finger_time":1552328679247,"fix_duration":465.5215988308882,"trial":61,"RT":292,"MT":742,"sideResp":2,"stimulus":"img/250/equaldotsize/L/1_Ratio_250_L_8_R_2.png","xmouse":[801,801,801,801,801,801,801,801,801,801,801,801,800,800,801,803,819,836,864,923,952,973,986,991,991,991,991,991,991,991,991,991,991,991,996,1009,1019,1028,1033,1035,1037,1041,1046,1050,1052,1052,1052,1052,1052,1055,1057,1060],"ymouse":[615,615,615,615,615,615,615,615,615,615,615,615,614,610,563,546,467,404,337,200,137,72,10,0,0,0,0,0,0,0,0,0,0,1,9,29,40,48,52,52,52,53,53,53,53,53,53,53,53,53,53,53],"timestamp_mouse":[12,38,54,74,94,113,133,152,173,193,212,232,252,273,292,313,332,353,372,392,414,434,454,473,494,512,533,552,572,593,612,633,653,672,694,714,732,753,773,792,812,833,853,872,892,912,933,953,973,993,1012,1033],"xSR":741.5,"ySR":573.95,"xT1":424.9,"yT1":0,"xT2":1058.1,"yT2":0,"toosoon":0,"cond_shown":"equaldotsize","ratio_trial":250,"smaller_num":"2","larger_num":"8","correct_side":1,"subjID":"JuanaNeira28","gender":"1","age":"8","school":"4"},{"start_time":1552328683939,"click_time":1552328685087,"finger_time":1552328684047,"fix_duration":469.73911506750386,"trial":62,"RT":108,"MT":1040,"sideResp":1,"stimulus":"img/500/randomdotsizeEA/R/2_Ratio_500_L_3_R_6.png","xmouse":[755,755,753,750,748,737,727,715,704,698,689,687,685,685,684,679,672,661,647,630,589,571,559,550,542,533,530,529,528,528,527,527,527,527,527,527,527,527,527,526,526,526,526,526,526,528,529,530,530,530,530,530,530,530,530,529,525,522],"ymouse":[610,610,607,603,600,588,579,563,547,536,519,513,508,505,501,486,461,437,405,365,263,208,165,130,101,71,65,59,57,54,50,50,50,50,50,50,50,50,50,50,50,50,50,50,51,54,57,59,59,59,59,59,59,60,60,60,60,60],"timestamp_mouse":[16,29,52,68,89,108,129,148,168,188,208,228,248,268,290,308,329,348,368,388,408,428,449,469,489,508,528,548,568,589,608,629,650,668,689,708,729,748,768,789,808,830,849,868,888,908,928,948,968,989,1008,1029,1048,1068,1089,1108,1128,1148],"xSR":741.5,"ySR":573.95,"xT1":424.9,"yT1":0,"xT2":1058.1,"yT2":0,"toosoon":0,"cond_shown":"randomdotsizeEA","ratio_trial":500,"smaller_num":"3","larger_num":"6","correct_side":2,"subjID":"JuanaNeira28","gender":"1","age":"8","school":"4"},{"start_time":1552328686671,"click_time":1552328687388,"finger_time":1552328686907,"fix_duration":360.4844175828114,"trial":63,"RT":236,"MT":481,"sideResp":2,"stimulus":"img/500/equaldotsize/R/15_Ratio_500_L_1_R_2.png","xmouse":[801,801,801,801,801,801,801,801,804,819,836,855,880,919,936,941,942,942,942,942,942,942,944,948,952,954,960,967,978,1000,1027,1049,1058,1058,1060,1065],"ymouse":[618,618,618,618,618,618,618,618,617,605,586,560,515,402,342,299,275,255,210,180,162,144,126,84,60,38,19,1,0,0,0,0,0,0,0,4],"timestamp_mouse":[17,44,57,77,97,118,136,157,176,196,216,236,256,276,296,316,336,357,376,396,416,437,456,476,496,517,536,557,577,598,616,637,657,677,698,717],"xSR":741.5,"ySR":573.95,"xT1":424.9,"yT1":0,"xT2":1058.1,"yT2":0,"toosoon":0,"cond_shown":"equaldotsize","ratio_trial":500,"smaller_num":"1","larger_num":"2","correct_side":2,"subjID":"JuanaNeira28","gender":"1","age":"8","school":"4"},{"start_time":1552328689099,"click_time":1552328690068,"finger_time":1552328689347,"fix_duration":549.9868135326091,"trial":64,"RT":248,"MT":721,"sideResp":1,"stimulus":"img/500/equaldotanddens/L/13_Ratio_500_L_12_R_6.png","xmouse":[806,806,806,806,806,806,806,806,806,806,789,753,705,686,673,661,645,613,603,593,584,578,573,572,571,571,571,571,570,566,563,559,552,549,545,542,538,533,533,533,533,533,535,535,536,536,536,529,523],"ymouse":[618,618,618,618,618,618,618,618,618,618,618,607,582,569,556,540,520,466,443,420,399,381,356,350,346,344,343,339,334,323,313,299,276,264,252,239,226,203,198,196,194,193,184,174,165,154,139,112,97],"timestamp_mouse":[19,45,48,68,88,108,129,149,170,188,208,228,248,270,289,308,328,348,368,388,409,428,448,468,488,508,529,548,568,588,609,629,650,669,689,708,729,748,769,788,808,828,848,869,889,908,928,948,969],"xSR":741.5,"ySR":573.95,"xT1":424.9,"yT1":0,"xT2":1058.1,"yT2":0,"toosoon":0,"cond_shown":"equaldotanddens","ratio_trial":500,"smaller_num":"6","larger_num":"12","correct_side":1,"subjID":"JuanaNeira28","gender":"1","age":"8","school":"4"},{"start_time":1552328702199,"click_time":1552328703269,"finger_time":1552328702648,"fix_duration":250,"trial":65,"RT":449,"MT":621,"sideResp":1,"stimulus":"img/250/equaldotsize/R/12_Ratio_250_L_5_R_20.png","xmouse":[790,790,790,790,790,790,790,790,790,790,790,790,790,790,790,790,790,790,790,790,776,767,681,594,530,460,404,322,304,294,291,290,288,288,288,289,293,326,343,354,357,357,357,357,357,357,357,357,357,357,361,361,399,433],"ymouse":[614,614,614,614,614,614,614,614,614,614,614,614,614,614,614,614,614,614,614,614,598,585,483,365,273,168,76,0,0,0,0,0,0,0,0,0,0,0,0,0,0,0,0,0,0,0,0,0,0,0,0,0,23,38],"timestamp_mouse":[13,37,49,69,90,108,129,149,168,188,208,229,249,269,289,310,328,348,369,389,408,429,448,470,488,508,530,549,568,589,610,629,649,668,688,709,728,749,769,788,809,828,849,868,888,909,928,948,968,989,1009,1029,1048,1070],"xSR":741.5,"ySR":573.95,"xT1":424.9,"yT1":0,"xT2":1058.1,"yT2":0,"toosoon":0,"cond_shown":"equaldotsize","ratio_trial":250,"smaller_num":"5","larger_num":"20","correct_side":2,"subjID":"JuanaNeira28","gender":"1","age":"8","school":"4"},{"start_time":1552328704860,"click_time":1552328705849,"finger_time":1552328705487,"fix_duration":250,"trial":66,"RT":627,"MT":362,"sideResp":1,"stimulus":"img/900/equaldotanddens/L/4_Ratio_900_L_20_R_18.png","xmouse":[816,816,816,816,816,816,816,816,816,816,816,816,816,816,816,816,816,816,816,816,816,816,816,816,816,816,816,816,816,816,789,749,709,668,587,537,492,450,415,378,376,376,376,376,376,376,376,382,382,443],"ymouse":[616,616,616,616,616,616,616,616,616,616,616,616,616,616,616,616,616,616,616,616,616,616,616,616,616,616,616,616,616,616,599,567,523,470,353,284,209,125,49,0,0,0,0,0,0,0,0,0,0,18],"timestamp_mouse":[20,40,48,68,87,107,129,147,168,189,207,227,248,268,288,307,329,347,368,387,408,427,449,467,488,508,528,549,567,588,608,627,648,667,687,707,728,747,767,789,807,827,848,867,887,908,927,947,967,989],"xSR":741.5,"ySR":573.95,"xT1":424.9,"yT1":0,"xT2":1058.1,"yT2":0,"toosoon":0,"cond_shown":"equaldotanddens","ratio_trial":900,"smaller_num":"18","larger_num":"20","correct_side":1,"subjID":"JuanaNeira28","gender":"1","age":"8","school":"4"},{"start_time":1552328708337,"click_time":1552328708908,"finger_time":1552328708648,"fix_duration":1388.5356134353444,"trial":67,"RT":311,"MT":260,"sideResp":2,"stimulus":"img/900/equaldotanddens/R/9_Ratio_900_L_18_R_20.png","xmouse":[797,797,797,797,797,797,797,797,797,797,797,797,800,812,823,844,846,849,859,872,925,959,992,1010,1026,1056,1067,1079,1093],"ymouse":[617,617,617,617,617,617,617,617,617,617,617,615,611,604,594,555,546,527,497,472,395,341,283,235,199,148,132,116,93],"timestamp_mouse":[12,39,51,70,90,112,130,152,171,190,210,231,250,270,291,311,331,351,372,391,410,430,451,470,492,510,531,550,571],"xSR":741.5,"ySR":573.95,"xT1":424.9,"yT1":0,"xT2":1058.1,"yT2":0,"toosoon":0,"cond_shown":"equaldotanddens","ratio_trial":900,"smaller_num":"18","larger_num":"20","correct_side":2,"subjID":"JuanaNeira28","gender":"1","age":"8","school":"4"},{"start_time":1552328710884,"click_time":1552328711648,"finger_time":1552328711087,"fix_duration":795.5212887379424,"trial":68,"RT":203,"MT":561,"sideResp":2,"stimulus":"img/500/randomdotsizeEA/L/13_Ratio_500_L_12_R_6.png","xmouse":[781,781,781,781,781,781,781,781,807,831,903,941,961,977,979,981,983,987,994,999,1007,1017,1025,1039,1042,1042,1039,1028,1013,1012,1012,1017,1025,1042,1047,1048,1050,1055,1078],"ymouse":[625,625,625,625,625,625,625,625,612,604,573,548,532,511,501,491,479,468,450,439,422,406,390,354,331,305,274,235,166,135,89,64,39,14,8,8,8,8,16],"timestamp_mouse":[19,28,43,64,84,104,123,145,163,183,203,224,244,265,283,304,324,343,363,384,403,424,444,464,485,504,524,543,563,583,604,623,643,664,683,704,723,744,764],"xSR":741.5,"ySR":573.95,"xT1":424.9,"yT1":0,"xT2":1058.1,"yT2":0,"toosoon":0,"cond_shown":"randomdotsizeEA","ratio_trial":500,"smaller_num":"6","larger_num":"12","correct_side":1,"subjID":"JuanaNeira28","gender":"1","age":"8","school":"4"},{"start_time":1552328725577,"c