[{"start_time":1552327561777,"click_time":1552327572584,"finger_time":1552327561786,"fix_duration":448.3311010578267,"trial":0,"RT":9,"MT":10798,"sideResp":2,"stimulus":[],"xmouse":[772,772,772,772,772,772,772,772,772,772,772,772,772,772,772,772,772,772,772,772,772,772,772,772,772,772,772,772,772,772,772,772,772,772,773,775,778,783,789,789,790,790,790,791,791,791,791,791,791,791,791,791,791,791,791,791,791,791,791,791,791,791,791,791,791,791,791,791,791,791,791,791,791,792,792,792,792,792,792,792,792,792,792,792,792,792,792,792,792,792,792,792,792,792,792,792,792,792,792,792,792,792,792,792,792,792,792,792,792,792,792,792,792,792,792,792,792,792,792,792,792,792,792,790,788,788,788,787,787,787,787,787,787,787,787,787,787,787,787,787,787,787,787,787,787,787,787,787,787,787,787,787,787,787,787,787,787,787,787,787,787,787,787,787,787,787,787,787,787,791,799,804,809,810,810,810,810,810,810,810,810,810,810,810,810,810,810,810,810,810,807,807,807,807,807,807,807,807,807,807,807,807,807,807,807,807,807,807,807,807,807,807,807,807,807,807,807,807,807,807,807,807,807,807,807,807,807,807,807,807,807,807,807,807,807,807,807,807,807,807,807,807,807,807,807,807,807,807,807,807,807,807,807,807,807,807,807,807,807,807,807,807,807,807,807,807,807,807,807,807,807,806,806,806,806,806,806,806,806,806,806,806,806,806,806,806,806,806,806,786,748,721,707,705,705,705,705,705,705,705,705,705,705,705,705,713,738,751,759,763,763,763,763,763,764,771,784,784,784,784,784,784,784,784,784,784,784,784,784,784,784,784,784,784,784,784,784,784,784,784,784,784,784,784,784,784,784,784,784,784,785,785,785,785,785,785,785,785,785,785,785,785,785,785,785,785,785,785,785,785,785,785,785,785,785,786,793,799,805,805,805,805,806,806,806,806,806,806,806,806,806,806,806,806,806,806,806,806,806,806,806,806,806,806,806,806,806,806,806,806,806,806,806,806,806,806,806,806,806,806,806,806,806,806,806,806,806,806,806,806,806,806,806,806,806,806,806,806,806,806,806,806,806,806,806,806,806,806,806,806,806,806,806,806,806,806,806,806,806,806,806,806,806,806,806,806,806,805,800,798,797,797,797,797,797,797,797,797,797,797,797,797,797,797,796,795,791,788,786,786,786,786,786,786,786,786,786,786,786,786,786,786,786,786,786,786,786,786,786,786,786,786,786,786,786,786,786,786,786,786,786,791,801,840,867,898,950,986,1056,1083,1103,1119,1134,1171,1193,1214,1233,1234,1216,1184,1129],"ymouse":[485,485,485,485,485,485,485,485,485,485,485,485,485,485,485,485,485,485,485,485,485,485,485,485,485,485,485,485,485,485,485,485,503,547,566,579,594,604,616,619,620,621,622,625,625,625,625,625,625,625,625,625,625,625,625,625,625,625,625,625,625,625,625,625,625,625,625,625,625,625,625,625,625,625,625,625,625,625,625,625,625,625,625,625,625,625,625,625,625,625,625,625,625,625,625,625,625,625,625,625,621,619,614,609,608,608,608,608,608,608,607,602,599,588,581,578,576,575,575,575,575,575,575,575,575,575,575,575,575,575,575,575,575,575,575,575,575,575,575,575,575,575,575,575,575,575,575,575,575,575,575,575,575,575,575,575,575,575,575,575,575,575,575,575,575,575,575,575,577,589,602,612,622,624,624,624,624,624,624,624,624,624,624,624,624,624,624,624,624,624,624,624,624,624,624,624,624,624,624,624,624,624,624,624,624,624,624,624,624,624,624,624,624,624,624,624,624,624,624,624,624,624,624,624,624,624,624,624,624,624,624,624,624,624,624,624,624,624,624,624,624,624,624,624,624,624,624,624,624,624,624,624,624,624,624,624,624,624,624,624,624,624,624,624,624,624,624,624,624,624,624,624,624,624,624,624,624,624,624,624,624,624,624,624,624,624,624,624,624,624,624,624,624,624,624,624,624,624,624,624,624,624,624,624,624,624,624,624,623,622,622,622,622,622,622,622,620,620,620,620,620,620,620,620,620,620,620,620,620,620,620,620,620,620,620,620,620,620,620,620,620,620,620,620,620,620,620,620,620,620,620,620,620,620,620,620,620,620,620,620,620,620,620,620,620,620,620,620,620,620,620,620,620,620,615,610,602,599,599,599,599,599,599,599,599,599,599,599,599,599,599,599,599,599,599,599,599,599,599,599,599,599,599,599,599,599,599,599,599,599,599,599,599,599,599,599,599,599,599,599,599,599,599,599,599,599,599,599,599,599,599,599,599,599,599,599,599,599,599,599,599,599,599,599,599,599,599,599,599,599,599,599,599,599,599,599,599,599,599,599,599,599,599,599,599,599,602,609,639,648,651,651,651,651,651,651,651,651,651,651,651,651,651,651,652,652,650,649,648,648,648,648,648,648,648,648,648,648,648,648,648,648,648,648,648,648,648,648,648,648,648,648,648,648,648,648,648,648,648,648,630,608,573,489,446,404,341,301,218,186,162,143,127,104,93,85,74,72,61,52,44],"timestamp_mouse":[8,28,47,67,87,108,127,147,167,187,206,226,246,266,287,307,328,348,368,386,407,426,448,467,488,507,527,547,568,588,608,628,648,667,686,707,727,747,767,786,806,827,848,867,886,907,927,948,967,988,1007,1026,1048,1067,1087,1108,1128,1147,1166,1188,1207,1227,1246,1267,1288,1307,1326,1346,1367,1386,1406,1428,1448,1467,1486,1508,1526,1547,1567,1587,1607,1626,1648,1667,1688,1708,1726,1747,1767,1788,1808,1827,1846,1867,1886,1907,1927,1947,1967,1987,2006,2027,2047,2067,2088,2107,2128,2147,2167,2187,2207,2228,2246,2267,2287,2308,2327,2347,2367,2388,2406,2428,2446,2467,2487,2507,2528,2548,2567,2588,2608,2627,2648,2667,2688,2708,2728,2747,2766,2788,2808,2828,2846,2867,2888,2907,2927,2947,2967,2988,3008,3027,3048,3067,3087,3107,3128,3148,3166,3188,3207,3228,3247,3267,3288,3306,3328,3348,3368,3388,3407,3427,3448,3467,3488,3508,3528,3548,3567,3587,3607,3628,3648,3666,3688,3707,3730,3747,3767,3786,3808,3828,3846,3867,3888,3907,3926,3946,3967,3987,4007,4026,4048,4067,4086,4107,4127,4147,4166,4188,4207,4228,4246,4267,4286,4307,4328,4346,4367,4388,4407,4428,4447,4467,4488,4508,4528,4546,4567,4586,4608,4628,4648,4667,4688,4707,4727,4747,4767,4787,4807,4827,4846,4866,4888,4906,4926,4948,4966,4986,5007,5027,5048,5066,5088,5108,5127,5147,5167,5188,5208,5227,5246,5267,5287,5307,5328,5346,5366,5388,5406,5428,5448,5466,5488,5507,5528,5547,5567,5588,5607,5628,5646,5666,5688,5707,5727,5746,5767,5788,5807,5826,5847,5867,5887,5908,5927,5947,5966,5988,6007,6027,6047,6067,6086,6107,6127,6146,6167,6188,6208,6227,6246,6267,6287,6307,6328,6347,6366,6387,6407,6426,6447,6467,6487,6507,6527,6548,6566,6586,6608,6628,6647,6666,6688,6708,6728,6747,6767,6787,6808,6827,6847,6867,6886,6908,6927,6947,6967,6988,7008,7027,7048,7067,7088,7107,7127,7147,7167,7187,7207,7227,7246,7267,7288,7306,7328,7348,7367,7388,7408,7427,7448,7467,7487,7508,7528,7548,7567,7588,7608,7627,7647,7666,7686,7708,7727,7748,7766,7787,7808,7828,7848,7867,7887,7906,7926,7947,7967,7988,8007,8028,8048,8067,8088,8108,8128,8147,8166,8188,8208,8228,8248,8266,8286,8306,8327,8347,8366,8387,8407,8428,8448,8467,8488,8507,8528,8547,8567,8587,8607,8627,8648,8666,8686,8706,8728,8747,8768,8788,8807,8828,8848,8867,8887,8908,8927,8947,8966,8987,9008,9028,9048,9067,9087,9107,9126,9148,9167,9187,9208,9228,9247,9266,9288,9308,9328,9346,9367,9387,9408,9427,9447,9467,9487,9508,9527,9547,9567,9588,9608,9628,9648,9667,9688,9707,9728,9746,9766,9787,9808,9827,9847,9866,9886,9907,9928,9948,9966,9988,10007,10027,10048,10067,10086,10108,10128,10148,10167,10188,10207,10226,10246,10267,10288,10306,10328,10348,10366,10387,10407,10428,10447,10467,10487,10508,10528,10548,10567,10586,10607,10627,10648,10667,10687,10708,10728,10746,10767,10786,10807],"xSR":741.5,"ySR":469.95,"xT1":424.9,"yT1":0,"xT2":1058.1,"yT2":0,"toosoon":0,"cond_shown":"Incongruent","ratio_trial":100,"L_num":17,"L_den":30,"R_num":10,"R_den":15,"correct_side":2,"subjID":"JuanaIsabelaNeiraCorrea28","gender":"1","age":"8","school":"4","test":{"fix_dur":[250,1500],"timestim":1000,"targets_dim":[100,100],"targets_relative_coord":[0.3,0.7],"size_stim":[880,420],"start_dim":[100,100],"size_start":[300,300],"size_fix":60,"samplingrate":20,"img_types":["Congruent","Incongruent"],"ratios":[100,200,300],"rep_conds":19,"nTrials":120,"trials_to_rest":500,"Trials_order":[37,22,76,109,28,69,74,73,57,5,1,77,82,17,117,9,50,42,32,70,12,24,35,95,116,93,84,98,26,41,4,83,11,8,45,106,55,54,103,29,63,96,25,40,79,62,100,114,102,67,104,56,38,101,119,80,10,3,27,75,89,23,94,46,15,36,108,115,6,2,112,92,107,61,18,48,110,44,14,68,64,43,60,53,111,7,59,90,52,118,34,51,85,39,13,72,16,31,47,78,91,71,113,58,105,65,49,33,97,81,66,88,99,21,19,86,0,20,87,30],"cond_shown":["Incongruent","Congruent","Congruent","Incongruent","Congruent","Incongruent","Congruent","Incongruent","Incongruent","Incongruent","Incongruent","Incongruent","Congruent","Incongruent","Incongruent","Incongruent","Congruent","Congruent","Congruent","Congruent","Congruent","Congruent","Incongruent","Incongruent","Congruent","Incongruent","Congruent","Congruent","Congruent","Incongruent","Congruent","Incongruent","Incongruent","Congruent","Incongruent","Congruent","Incongruent","Congruent","Incongruent","Incongruent","Incongruent","Congruent","Incongruent","Congruent","Incongruent","Congruent","Congruent","Congruent","Congruent","Incongruent","Congruent","Congruent","Congruent","Incongruent","Incongruent","Congruent","Congruent","Incongruent","Incongruent","Incongruent","Incongruent","Incongruent","Congruent","Congruent","Incongruent","Congruent","Congruent","Incongruent","Congruent","Congruent","Congruent","Congruent","Incongruent","Incongruent","Congruent","Congruent","Congruent","Congruent","Congruent","Congruent","Congruent","Incongruent","Congruent","Incongruent","Incongruent","Incongruent","Incongruent","Congruent","Congruent","Congruent","Congruent","Incongruent","Incongruent","Incongruent","Incongruent","Congruent","Congruent","Incongruent","Incongruent","Congruent","Incongruent","Incongruent","Incongruent","Congruent","Incongruent","Incongruent","Incongruent","Incongruent","Incongruent","Incongruent","Congruent","Congruent","Incongruent","Incongruent","Incongruent","Congruent","Congruent","Congruent","Incongruent","Congruent"],"ratio_trial":[100,300,300,100,300,200,200,100,200,300,100,300,300,300,200,200,200,100,200,300,100,100,300,300,200,200,100,200,200,300,300,300,300,200,200,300,100,100,100,300,200,100,100,300,100,200,300,100,100,100,200,200,200,300,300,200,300,200,200,200,300,300,300,300,200,100,100,100,100,200,300,200,300,100,100,100,200,200,200,200,300,100,100,300,200,100,300,100,300,300,300,200,100,200,100,100,300,100,300,100,100,300,300,300,200,300,100,200,100,200,100,300,200,200,100,200,100,200,200,100],"left_num":[17,4,24,3,11,3,12,6,4,1,3,13,1,13,7,7,6,15,8,20,6,15,4,4,7,7,6,15,3,4,2,4,7,14,3,4,6,3,10,8,3,11,3,5,10,5,2,15,1,12,1,6,3,13,13,3,1,7,14,7,8,8,12,5,6,8,6,6,2,3,1,3,13,6,6,11,16,9,6,4,20,2,2,4,7,12,13,15,20,1,11,7,4,3,6,6,5,12,3,10,11,13,2,20,14,4,6,7,12,11,4,3,9,9,3,7,7,21,7,9],"right_num":[10,2,8,4,1,1,6,11,6,2,7,12,8,12,12,12,3,13,3,13,5,13,2,2,18,6,5,4,11,8,12,6,8,6,1,1,7,2,9,14,1,4,8,7,9,14,10,13,18,9,21,11,7,12,12,7,8,8,6,4,14,14,2,6,3,2,5,7,6,9,8,14,12,3,15,6,9,13,3,3,8,8,6,2,4,9,12,13,9,19,2,14,8,1,13,5,6,2,4,3,9,12,6,13,6,2,13,14,2,3,6,2,8,8,4,2,9,2,14,8],"left_den":[30,5,30,6,22,10,20,10,5,2,9,26,30,26,10,10,15,25,15,25,20,25,20,20,15,15,20,25,10,5,10,5,10,28,10,10,10,6,25,10,10,22,5,25,25,10,20,25,2,24,2,20,10,26,26,10,30,10,30,15,10,10,24,25,20,16,20,10,5,12,30,6,26,12,12,22,30,30,15,8,25,4,5,20,15,24,26,25,25,3,22,10,8,10,10,20,25,30,6,25,22,26,4,25,30,20,10,10,30,20,8,6,15,15,6,21,14,30,10,15],"right_den":[15,4,16,10,5,2,15,22,10,10,30,15,24,15,24,24,15,26,9,26,25,26,4,4,27,9,25,10,22,16,24,12,20,20,2,10,14,5,18,28,2,10,16,14,18,20,25,26,30,15,30,22,14,15,15,14,24,16,9,6,28,28,10,12,6,5,25,14,12,20,24,20,15,5,25,15,27,26,15,10,16,20,12,4,6,15,15,26,18,30,10,28,20,2,26,25,12,4,20,10,15,15,30,26,9,4,26,28,4,4,10,10,10,10,10,15,15,4,28,16],"correct_side":[2,1,1,1,1,2,1,1,1,1,1,2,2,2,1,1,1,1,1,1,1,1,2,2,2,2,1,1,2,1,2,1,1,1,2,1,1,1,2,1,2,1,1,2,2,2,2,1,2,2,2,2,2,2,2,2,2,1,2,2,1,1,1,2,2,1,1,1,2,2,2,2,2,2,2,1,1,2,1,1,1,1,2,2,2,2,2,1,1,2,1,1,1,2,1,1,2,2,1,1,2,2,1,1,2,2,1,1,2,2,2,1,2,2,1,1,2,1,1,1],"img_shown":["img2/100/Incongruent/R/I_Dist_100_LN_17_LD_30_RN_10_RD_15_1.png","img2/300/Congruent/L/C_Dist_300_LN_4_LD_5_RN_2_RD_4_0.png","img2/300/Congruent/L/C_Dist_300_LN_24_LD_30_RN_8_RD_16_0.png","img2/100/Incongruent/L/I_Dist_100_LN_3_LD_6_RN_4_RD_10_0.png","img2/300/Congruent/L/C_Dist_300_LN_11_LD_22_RN_1_RD_5_0.png","img2/200/Incongruent/R/I_Dist_200_LN_3_LD_10_RN_1_RD_2_1.png","img2/200/Congruent/L/C_Dist_200_LN_12_LD_20_RN_6_RD_15_0.png","img2/100/Incongruent/L/I_Dist_100_LN_6_LD_10_RN_11_RD_22_0.png","img2/200/Incongruent/L/I_Dist_200_LN_4_LD_5_RN_6_RD_10_0.png","img2/300/Incongruent/L/I_Dist_300_LN_1_LD_2_RN_2_RD_10_0.png","img2/100/Incongruent/L/I_Dist_100_LN_3_LD_9_RN_7_RD_30_0.png","img2/300/Incongruent/R/I_Dist_300_LN_13_LD_26_RN_12_RD_15_1.png","img2/300/Congruent/R/C_Dist_300_LN_1_LD_30_RN_8_RD_24_1.png","img2/300/Incongruent/R/I_Dist_300_LN_13_LD_26_RN_12_RD_15_1.png","img2/200/Incongruent/L/I_Dist_200_LN_7_LD_10_RN_12_RD_24_0.png","img2/200/Incongruent/L/I_Dist_200_LN_7_LD_10_RN_12_RD_24_0.png","img2/200/Congruent/L/C_Dist_200_LN_6_LD_15_RN_3_RD_15_0.png","img2/100/Congruent/L/C_Dist_100_LN_15_LD_25_RN_13_RD_26_0.png","img2/200/Congruent/L/C_Dist_200_LN_8_LD_15_RN_3_RD_9_0.png","img2/300/Congruent/L/C_Dist_300_LN_20_LD_25_RN_13_RD_26_0.png","img2/100/Congruent/L/C_Dist_100_LN_6_LD_20_RN_5_RD_25_0.png","img2/100/Congruent/L/C_Dist_100_LN_15_LD_25_RN_13_RD_26_0.png","img2/300/Incongruent/R/I_Dist_300_LN_4_LD_20_RN_2_RD_4_1.png","img2/300/Incongruent/R/I_Dist_300_LN_4_LD_20_RN_2_RD_4_1.png","img2/200/Congruent/R/C_Dist_200_LN_7_LD_15_RN_18_RD_27_1.png","img2/200/Incongruent/R/I_Dist_200_LN_7_LD_15_RN_6_RD_9_1.png","img2/100/Congruent/L/C_Dist_100_LN_6_LD_20_RN_5_RD_25_0.png","img2/200/Congruent/L/C_Dist_200_LN_15_LD_25_RN_4_RD_10_0.png","img2/200/Congruent/R/C_Dist_200_LN_3_LD_10_RN_11_RD_22_1.png","img2/300/Incongruent/L/I_Dist_300_LN_4_LD_5_RN_8_RD_16_0.png","img2/300/Congruent/R/C_Dist_300_LN_2_LD_10_RN_12_RD_24_1.png","img2/300/Incongruent/L/I_Dist_300_LN_4_LD_5_RN_6_RD_12_0.png","img2/300/Incongruent/L/I_Dist_300_LN_7_LD_10_RN_8_RD_20_0.png","img2/200/Congruent/L/C_Dist_200_LN_14_LD_28_RN_6_RD_20_0.png","img2/200/Incongruent/R/I_Dist_200_LN_3_LD_10_RN_1_RD_2_1.png","img2/300/Congruent/L/C_Dist_300_LN_4_LD_10_RN_1_RD_10_0.png","img2/100/Incongruent/L/I_Dist_100_LN_6_LD_10_RN_7_RD_14_0.png","img2/100/Congruent/L/C_Dist_100_LN_3_LD_6_RN_2_RD_5_0.png","img2/100/Incongruent/R/I_Dist_100_LN_10_LD_25_RN_9_RD_18_1.png","img2/300/Incongruent/L/I_Dist_300_LN_8_LD_10_RN_14_RD_28_0.png","img2/200/Incongruent/R/I_Dist_200_LN_3_LD_10_RN_1_RD_2_1.png","img2/100/Congruent/L/C_Dist_100_LN_11_LD_22_RN_4_RD_10_0.png","img2/100/Incongruent/L/I_Dist_100_LN_3_LD_5_RN_8_RD_16_0.png","img2/300/Congruent/R/C_Dist_300_LN_5_LD_25_RN_7_RD_14_1.png","img2/100/Incongruent/R/I_Dist_100_LN_10_LD_25_RN_9_RD_18_1.png","img2/200/Congruent/R/C_Dist_200_LN_5_LD_10_RN_14_RD_20_1.png","img2/300/Congruent/R/C_Dist_300_LN_2_LD_20_RN_10_RD_25_1.png","img2/100/Congruent/L/C_Dist_100_LN_15_LD_25_RN_13_RD_26_0.png","img2/100/Congruent/R/C_Dist_100_LN_1_LD_2_RN_18_RD_30_1.png","img2/100/Incongruent/R/I_Dist_100_LN_12_LD_24_RN_9_RD_15_1.png","img2/200/Congruent/R/C_Dist_200_LN_1_LD_2_RN_21_RD_30_1.png","img2/200/Congruent/R/C_Dist_200_LN_6_LD_20_RN_11_RD_22_1.png","img2/200/Congruent/R/C_Dist_200_LN_3_LD_10_RN_7_RD_14_1.png","img2/300/Incongruent/R/I_Dist_300_LN_13_LD_26_RN_12_RD_15_1.png","img2/300/Incongruent/R/I_Dist_300_LN_13_LD_26_RN_12_RD_15_1.png","img2/200/Congruent/R/C_Dist_200_LN_3_LD_10_RN_7_RD_14_1.png","img2/300/Congruent/R/C_Dist_300_LN_1_LD_30_RN_8_RD_24_1.png","img2/200/Incongruent/L/I_Dist_200_LN_7_LD_10_RN_8_RD_16_0.png","img2/200/Incongruent/R/I_Dist_200_LN_14_LD_30_RN_6_RD_9_1.png","img2/200/Incongruent/R/I_Dist_200_LN_7_LD_15_RN_4_RD_6_1.png","img2/300/Incongruent/L/I_Dist_300_LN_8_LD_10_RN_14_RD_28_0.png","img2/300/Incongruent/L/I_Dist_300_LN_8_LD_10_RN_14_RD_28_0.png","img2/300/Congruent/L/C_Dist_300_LN_12_LD_24_RN_2_RD_10_0.png","img2/300/Congruent/R/C_Dist_300_LN_5_LD_25_RN_6_RD_12_1.png","img2/200/Incongruent/R/I_Dist_200_LN_6_LD_20_RN_3_RD_6_1.png","img2/100/Congruent/L/C_Dist_100_LN_8_LD_16_RN_2_RD_5_0.png","img2/100/Congruent/L/C_Dist_100_LN_6_LD_20_RN_5_RD_25_0.png","img2/100/Incongruent/L/I_Dist_100_LN_6_LD_10_RN_7_RD_14_0.png","img2/100/Congruent/R/C_Dist_100_LN_2_LD_5_RN_6_RD_12_1.png","img2/200/Congruent/R/C_Dist_200_LN_3_LD_12_RN_9_RD_20_1.png","img2/300/Congruent/R/C_Dist_300_LN_1_LD_30_RN_8_RD_24_1.png","img2/200/Congruent/R/C_Dist_200_LN_3_LD_6_RN_14_RD_20_1.png","img2/300/Incongruent/R/I_Dist_300_LN_13_LD_26_RN_12_RD_15_1.png","img2/100/Incongruent/R/I_Dist_100_LN_6_LD_12_RN_3_RD_5_1.png","img2/100/Congruent/R/C_Dist_100_LN_6_LD_12_RN_15_RD_25_1.png","img2/100/Congruent/L/C_Dist_100_LN_11_LD_22_RN_6_RD_15_0.png","img2/200/Congruent/L/C_Dist_200_LN_16_LD_30_RN_9_RD_27_0.png","img2/200/Congruent/R/C_Dist_200_LN_9_LD_30_RN_13_RD_26_1.png","img2/200/Congruent/L/C_Dist_200_LN_6_LD_15_RN_3_RD_15_0.png","img2/200/Congruent/L/C_Dist_200_LN_4_LD_8_RN_3_RD_10_0.png","img2/300/Congruent/L/C_Dist_300_LN_20_LD_25_RN_8_RD_16_0.png","img2/100/Incongruent/L/I_Dist_100_LN_2_LD_4_RN_8_RD_20_0.png","img2/100/Congruent/R/C_Dist_100_LN_2_LD_5_RN_6_RD_12_1.png","img2/300/Incongruent/R/I_Dist_300_LN_4_LD_20_RN_2_RD_4_1.png","img2/200/Incongruent/R/I_Dist_200_LN_7_LD_15_RN_4_RD_6_1.png","img2/100/Incongruent/R/I_Dist_100_LN_12_LD_24_RN_9_RD_15_1.png","img2/300/Incongruent/R/I_Dist_300_LN_13_LD_26_RN_12_RD_15_1.png","img2/100/Congruent/L/C_Dist_100_LN_15_LD_25_RN_13_RD_26_0.png","img2/300/Congruent/L/C_Dist_300_LN_20_LD_25_RN_9_RD_18_0.png","img2/300/Congruent/R/C_Dist_300_LN_1_LD_3_RN_19_RD_30_1.png","img2/300/Congruent/L/C_Dist_300_LN_11_LD_22_RN_2_RD_10_0.png","img2/200/Incongruent/L/I_Dist_200_LN_7_LD_10_RN_14_RD_28_0.png","img2/100/Incongruent/L/I_Dist_100_LN_4_LD_8_RN_8_RD_20_0.png","img2/200/Incongruent/R/I_Dist_200_LN_3_LD_10_RN_1_RD_2_1.png","img2/100/Incongruent/L/I_Dist_100_LN_6_LD_10_RN_13_RD_26_0.png","img2/100/Congruent/L/C_Dist_100_LN_6_LD_20_RN_5_RD_25_0.png","img2/300/Congruent/R/C_Dist_300_LN_5_LD_25_RN_6_RD_12_1.png","img2/100/Incongruent/R/I_Dist_100_LN_12_LD_30_RN_2_RD_4_1.png","img2/300/Incongruent/L/I_Dist_300_LN_3_LD_6_RN_4_RD_20_0.png","img2/100/Congruent/L/C_Dist_100_LN_10_LD_25_RN_3_RD_10_0.png","img2/100/Incongruent/R/I_Dist_100_LN_11_LD_22_RN_9_RD_15_1.png","img2/300/Incongruent/R/I_Dist_300_LN_13_LD_26_RN_12_RD_15_1.png","img2/300/Incongruent/L/I_Dist_300_LN_2_LD_4_RN_6_RD_30_0.png","img2/300/Congruent/L/C_Dist_300_LN_20_LD_25_RN_13_RD_26_0.png","img2/200/Incongruent/R/I_Dist_200_LN_14_LD_30_RN_6_RD_9_1.png","img2/300/Incongruent/R/I_Dist_300_LN_4_LD_20_RN_2_RD_4_1.png","img2/100/Incongruent/L/I_Dist_100_LN_6_LD_10_RN_13_RD_26_0.png","img2/200/Incongruent/L/I_Dist_200_LN_7_LD_10_RN_14_RD_28_0.png","img2/100/Incongruent/R/I_Dist_100_LN_12_LD_30_RN_2_RD_4_1.png","img2/200/Incongruent/R/I_Dist_200_LN_11_LD_20_RN_3_RD_4_1.png","img2/100/Congruent/R/C_Dist_100_LN_4_LD_8_RN_6_RD_10_1.png","img2/300/Congruent/L/C_Dist_300_LN_3_LD_6_RN_2_RD_10_0.png","img2/200/Incongruent/R/I_Dist_200_LN_9_LD_15_RN_8_RD_10_1.png","img2/200/Incongruent/R/I_Dist_200_LN_9_LD_15_RN_8_RD_10_1.png","img2/100/Incongruent/L/I_Dist_100_LN_3_LD_6_RN_4_RD_10_0.png","img2/200/Congruent/L/C_Dist_200_LN_7_LD_21_RN_2_RD_15_0.png","img2/100/Congruent/R/C_Dist_100_LN_7_LD_14_RN_9_RD_15_1.png","img2/200/Congruent/L/C_Dist_200_LN_21_LD_30_RN_2_RD_4_0.png","img2/200/Incongruent/L/I_Dist_200_LN_7_LD_10_RN_14_RD_28_0.png","img2/100/Congruent/L/C_Dist_100_LN_9_LD_15_RN_8_RD_16_0.png"],"dist100_C":[["C_Dist_100_LN_10_LD_25_RN_3_RD_10_0.png","C_Dist_100_LN_11_LD_22_RN_4_RD_10_0.png","C_Dist_100_LN_11_LD_22_RN_6_RD_15_0.png","C_Dist_100_LN_15_LD_25_RN_13_RD_26_0.png","C_Dist_100_LN_3_LD_6_RN_2_RD_5_0.png","C_Dist_100_LN_6_LD_20_RN_5_RD_25_0.png","C_Dist_100_LN_8_LD_16_RN_2_RD_5_0.png","C_Dist_100_LN_9_LD_15_RN_8_RD_16_0.png"],["C_Dist_100_LN_1_LD_2_RN_18_RD_30_1.png","C_Dist_100_LN_1_LD_2_RN_3_RD_5_1.png","C_Dist_100_LN_12_LD_30_RN_13_RD_26_1.png","C_Dist_100_LN_2_LD_5_RN_11_RD_22_1.png","C_Dist_100_LN_2_LD_5_RN_6_RD_12_1.png","C_Dist_100_LN_3_LD_20_RN_4_RD_16_1.png","C_Dist_100_LN_4_LD_10_RN_15_RD_30_1.png","C_Dist_100_LN_4_LD_8_RN_6_RD_10_1.png","C_Dist_100_LN_6_LD_12_RN_15_RD_25_1.png","C_Dist_100_LN_7_LD_14_RN_15_RD_25_1.png","C_Dist_100_LN_7_LD_14_RN_9_RD_15_1.png"]],"dist100_I":[["I_Dist_100_LN_1_LD_2_RN_8_RD_20_0.png","I_Dist_100_LN_2_LD_4_RN_6_RD_15_0.png","I_Dist_100_LN_2_LD_4_RN_8_RD_20_0.png","I_Dist_100_LN_3_LD_5_RN_11_RD_22_0.png","I_Dist_100_LN_3_LD_5_RN_8_RD_16_0.png","I_Dist_100_LN_3_LD_6_RN_4_RD_10_0.png","I_Dist_100_LN_3_LD_9_RN_7_RD_30_0.png","I_Dist_100_LN_4_LD_8_RN_8_RD_20_0.png","I_Dist_100_LN_6_LD_10_RN_11_RD_22_0.png","I_Dist_100_LN_6_LD_10_RN_13_RD_26_0.png","I_Dist_100_LN_6_LD_10_RN_7_RD_14_0.png","I_Dist_100_LN_9_LD_10_RN_20_RD_25_0.png","I_Dist_100_LN_9_LD_15_RN_13_RD_26_0.png","I_Dist_100_LN_9_LD_15_RN_14_RD_28_0.png"],["I_Dist_100_LN_10_LD_25_RN_8_RD_16_1.png","I_Dist_100_LN_10_LD_25_RN_9_RD_18_1.png","I_Dist_100_LN_11_LD_22_RN_9_RD_15_1.png","I_Dist_100_LN_12_LD_24_RN_9_RD_15_1.png","I_Dist_100_LN_12_LD_30_RN_2_RD_4_1.png","I_Dist_100_LN_13_LD_26_RN_12_RD_20_1.png","I_Dist_100_LN_13_LD_26_RN_6_RD_10_1.png","I_Dist_100_LN_17_LD_30_RN_10_RD_15_1.png","I_Dist_100_LN_6_LD_12_RN_3_RD_5_1.png","I_Dist_100_LN_8_LD_16_RN_6_RD_10_1.png","I_Dist_100_LN_8_LD_20_RN_1_RD_2_1.png","I_Dist_100_LN_9_LD_18_RN_6_RD_10_1.png"]],"dist100_S":[["E_Dist_100_LN_2_LD_12_RN_2_RD_30_0.png","E_Dist_100_LN_6_LD_10_RN_6_RD_12_0.png"],["E_Dist_100_LN_6_LD_12_RN_6_RD_10_1.png"]],"dist200_C":[["C_Dist_200_LN_11_LD_22_RN_3_RD_10_0.png","C_Dist_200_LN_12_LD_15_RN_6_RD_10_0.png","C_Dist_200_LN_12_LD_20_RN_6_RD_15_0.png","C_Dist_200_LN_14_LD_28_RN_6_RD_20_0.png","C_Dist_200_LN_15_LD_25_RN_4_RD_10_0.png","C_Dist_200_LN_16_LD_20_RN_12_RD_20_0.png","C_Dist_200_LN_16_LD_30_RN_9_RD_27_0.png","C_Dist_200_LN_20_LD_25_RN_9_RD_15_0.png","C_Dist_200_LN_21_LD_30_RN_2_RD_4_0.png","C_Dist_200_LN_4_LD_10_RN_3_RD_15_0.png","C_Dist_200_LN_4_LD_8_RN_3_RD_10_0.png","C_Dist_200_LN_6_LD_15_RN_3_RD_15_0.png","C_Dist_200_LN_7_LD_21_RN_2_RD_15_0.png","C_Dist_200_LN_8_LD_15_RN_2_RD_6_0.png","C_Dist_200_LN_8_LD_15_RN_3_RD_9_0.png","C_Dist_200_LN_8_LD_15_RN_7_RD_21_0.png","C_Dist_200_LN_9_LD_20_RN_4_RD_16_0.png"],["C_Dist_200_LN_1_LD_2_RN_21_RD_30_1.png","C_Dist_200_LN_13_LD_26_RN_14_RD_20_1.png","C_Dist_200_LN_3_LD_10_RN_11_RD_22_1.png","C_Dist_200_LN_3_LD_10_RN_14_RD_28_1.png","C_Dist_200_LN_3_LD_10_RN_7_RD_14_1.png","C_Dist_200_LN_3_LD_12_RN_9_RD_20_1.png","C_Dist_200_LN_3_LD_6_RN_14_RD_20_1.png","C_Dist_200_LN_5_LD_10_RN_14_RD_20_1.png","C_Dist_200_LN_6_LD_12_RN_7_RD_10_1.png","C_Dist_200_LN_6_LD_20_RN_11_RD_22_1.png","C_Dist_200_LN_7_LD_15_RN_18_RD_27_1.png","C_Dist_200_LN_9_LD_30_RN_13_RD_26_1.png"]],"dist200_I":[["I_Dist_200_LN_1_LD_2_RN_3_RD_10_0.png","I_Dist_200_LN_1_LD_3_RN_2_RD_15_0.png","I_Dist_200_LN_3_LD_4_RN_11_RD_20_0.png","I_Dist_200_LN_4_LD_5_RN_6_RD_10_0.png","I_Dist_200_LN_4_LD_6_RN_14_RD_30_0.png","I_Dist_200_LN_7_LD_10_RN_12_RD_24_0.png","I_Dist_200_LN_7_LD_10_RN_14_RD_28_0.png","I_Dist_200_LN_7_LD_10_RN_8_RD_16_0.png"],["I_Dist_200_LN_11_LD_20_RN_3_RD_4_1.png","I_Dist_200_LN_14_LD_30_RN_12_RD_18_1.png","I_Dist_200_LN_14_LD_30_RN_6_RD_9_1.png","I_Dist_200_LN_3_LD_10_RN_1_RD_2_1.png","I_Dist_200_LN_4_LD_30_RN_1_RD_3_1.png","I_Dist_200_LN_6_LD_20_RN_3_RD_6_1.png","I_Dist_200_LN_7_LD_15_RN_4_RD_6_1.png","I_Dist_200_LN_7_LD_15_RN_6_RD_9_1.png","I_Dist_200_LN_9_LD_15_RN_8_RD_10_1.png"]],"dist200_S":[["E_Dist_200_LN_3_LD_6_RN_3_RD_10_0.png"],["E_Dist_200_LN_3_LD_10_RN_3_RD_6_1.png"]],"dist300_C":[["C_Dist_300_LN_11_LD_22_RN_1_RD_5_0.png","C_Dist_300_LN_11_LD_22_RN_2_RD_10_0.png","C_Dist_300_LN_11_LD_22_RN_4_RD_20_0.png","C_Dist_300_LN_12_LD_24_RN_2_RD_10_0.png","C_Dist_300_LN_18_LD_20_RN_9_RD_15_0.png","C_Dist_300_LN_20_LD_25_RN_13_RD_26_0.png","C_Dist_300_LN_20_LD_25_RN_14_RD_28_0.png","C_Dist_300_LN_20_LD_25_RN_5_RD_10_0.png","C_Dist_300_LN_20_LD_25_RN_8_RD_16_0.png","C_Dist_300_LN_20_LD_25_RN_9_RD_18_0.png","C_Dist_300_LN_24_LD_30_RN_2_RD_4_0.png","C_Dist_300_LN_24_LD_30_RN_8_RD_16_0.png","C_Dist_300_LN_3_LD_6_RN_2_RD_10_0.png","C_Dist_300_LN_4_LD_10_RN_1_RD_10_0.png","C_Dist_300_LN_4_LD_5_RN_2_RD_4_0.png","C_Dist_300_LN_8_LD_16_RN_1_RD_5_0.png","C_Dist_300_LN_9_LD_10_RN_3_RD_5_0.png"],["C_Dist_300_LN_1_LD_20_RN_7_RD_20_1.png","C_Dist_300_LN_1_LD_3_RN_19_RD_30_1.png","C_Dist_300_LN_1_LD_30_RN_8_RD_24_1.png","C_Dist_300_LN_1_LD_5_RN_11_RD_22_1.png","C_Dist_300_LN_1_LD_5_RN_3_RD_6_1.png","C_Dist_300_LN_1_LD_5_RN_6_RD_12_1.png","C_Dist_300_LN_2_LD_10_RN_12_RD_24_1.png","C_Dist_300_LN_2_LD_20_RN_10_RD_25_1.png","C_Dist_300_LN_3_LD_12_RN_11_RD_20_1.png","C_Dist_300_LN_3_LD_6_RN_4_RD_5_1.png","C_Dist_300_LN_4_LD_20_RN_13_RD_26_1.png","C_Dist_300_LN_5_LD_25_RN_6_RD_12_1.png","C_Dist_300_LN_5_LD_25_RN_7_RD_14_1.png","C_Dist_300_LN_7_LD_14_RN_20_RD_25_1.png","C_Dist_300_LN_8_LD_15_RN_10_RD_12_1.png"]],"dist300_I":[["I_Dist_300_LN_1_LD_2_RN_2_RD_10_0.png","I_Dist_300_LN_1_LD_2_RN_3_RD_15_0.png","I_Dist_300_LN_2_LD_4_RN_6_RD_30_0.png","I_Dist_300_LN_3_LD_6_RN_4_RD_20_0.png","I_Dist_300_LN_4_LD_5_RN_6_RD_12_0.png","I_Dist_300_LN_4_LD_5_RN_8_RD_16_0.png","I_Dist_300_LN_7_LD_10_RN_8_RD_20_0.png","I_Dist_300_LN_8_LD_10_RN_14_RD_28_0.png","I_Dist_300_LN_8_LD_10_RN_9_RD_18_0.png"],["I_Dist_300_LN_13_LD_26_RN_12_RD_15_1.png","I_Dist_300_LN_4_LD_20_RN_2_RD_4_1.png"]],"dist300_S":[["E_Dist_300_LN_9_LD_12_RN_9_RD_20_0.png"],["E_Dist_300_LN_18_LD_30_RN_18_RD_20_1.png","E_Dist_300_LN_3_LD_10_RN_3_RD_5_1.png","E_Dist_300_LN_9_LD_20_RN_9_RD_12_1.png"]],"dist500_C":[["C_Dist_500_LN_10_LD_13_RN_7_RD_26_0.png","C_Dist_500_LN_10_LD_15_RN_4_RD_24_0.png","C_Dist_500_LN_12_LD_16_RN_3_RD_12_0.png","C_Dist_500_LN_12_LD_18_RN_4_RD_24_0.png","C_Dist_500_LN_15_LD_18_RN_5_RD_15_0.png","C_Dist_500_LN_15_LD_20_RN_1_RD_4_0.png","C_Dist_500_LN_18_LD_27_RN_1_RD_6_0.png","C_Dist_500_LN_20_LD_24_RN_1_RD_3_0.png","C_Dist_500_LN_20_LD_24_RN_3_RD_9_0.png","C_Dist_500_LN_20_LD_24_RN_7_RD_21_0.png","C_Dist_500_LN_20_LD_28_RN_3_RD_14_0.png","C_Dist_500_LN_21_LD_28_RN_6_RD_24_0.png","C_Dist_500_LN_22_LD_28_RN_2_RD_7_0.png","C_Dist_500_LN_25_LD_30_RN_9_RD_27_0.png","C_Dist_500_LN_4_LD_6_RN_1_RD_6_0.png","C_Dist_500_LN_5_LD_6_RN_2_RD_6_0.png","C_Dist_500_LN_6_LD_9_RN_1_RD_6_0.png","C_Dist_500_LN_7_LD_10_RN_1_RD_5_0.png","C_Dist_500_LN_8_LD_12_RN_1_RD_6_0.png","C_Dist_500_LN_8_LD_12_RN_4_RD_24_0.png"],["C_Dist_500_LN_1_LD_4_RN_12_RD_16_1.png","C_Dist_500_LN_1_LD_4_RN_9_RD_12_1.png","C_Dist_500_LN_1_LD_9_RN_11_RD_18_1.png","C_Dist_500_LN_10_LD_24_RN_22_RD_24_1.png","C_Dist_500_LN_2_LD_12_RN_10_RD_15_1.png","C_Dist_500_LN_2_LD_12_RN_12_RD_18_1.png","C_Dist_500_LN_2_LD_12_RN_4_RD_6_1.png","C_Dist_500_LN_2_LD_24_RN_7_RD_12_1.png","C_Dist_500_LN_2_LD_5_RN_18_RD_20_1.png","C_Dist_500_LN_2_LD_5_RN_9_RD_10_1.png","C_Dist_500_LN_2_LD_8_RN_12_RD_16_1.png","C_Dist_500_LN_2_LD_8_RN_21_RD_28_1.png","C_Dist_500_LN_3_LD_10_RN_4_RD_5_1.png","C_Dist_500_LN_3_LD_12_RN_15_RD_20_1.png","C_Dist_500_LN_3_LD_30_RN_6_RD_10_1.png","C_Dist_500_LN_3_LD_8_RN_14_RD_16_1.png","C_Dist_500_LN_4_LD_16_RN_15_RD_20_1.png","C_Dist_500_LN_4_LD_24_RN_12_RD_18_1.png","C_Dist_500_LN_5_LD_14_RN_6_RD_7_1.png","C_Dist_500_LN_7_LD_21_RN_20_RD_24_1.png","C_Dist_500_LN_7_LD_28_RN_12_RD_16_1.png","C_Dist_500_LN_7_LD_28_RN_9_RD_12_1.png","C_Dist_500_LN_9_LD_27_RN_20_RD_24_1.png"]],"dist500_I":[["I_Dist_500_LN_2_LD_3_RN_4_RD_24_0.png","I_Dist_500_LN_5_LD_6_RN_6_RD_18_0.png","I_Dist_500_LN_7_LD_8_RN_9_RD_24_0.png"],["I_Dist_500_LN_7_LD_21_RN_5_RD_6_1.png"]],"dist500_S":[["E_Dist_500_LN_6_LD_8_RN_6_RD_24_0.png"],["E_Dist_500_LN_2_LD_12_RN_2_RD_3_1.png","E_Dist_500_LN_6_LD_24_RN_6_RD_8_1.png"]]}},{"start_time":1552327575513,"click_time":1552327576565,"finger_time":1552327575944,"fix_duration":1227.9601642668754,"trial":1,"RT":431,"MT":621,"sideResp":1,"stimulus":[],"xmouse":[787,787,787,787,787,787,787,787,787,787,787,787,787,787,787,787,787,787,787,787,788,793,803,805,805,804,802,802,802,802,793,778,743,732,721,715,698,682,660,617,589,572,561,560,560,560,560,558,552,540,533,527,514],"ymouse":[617,617,617,617,617,617,617,617,617,617,617,617,617,617,617,617,617,617,617,616,593,568,504,479,462,450,446,446,446,446,442,435,413,402,385,366,305,265,216,146,107,82,56,52,51,51,51,51,49,48,47,47,46],"timestamp_mouse":[11,31,61,71,91,111,131,152,172,191,210,230,252,272,290,311,331,352,371,392,412,431,451,471,492,510,530,550,571,591,611,631,651,671,691,712,730,751,771,792,812,831,851,871,891,912,931,951,971,992,1011,1031,1051],"xSR":741.5,"ySR":573.95,"xT1":424.9,"yT1":0,"xT2":1058.1,"yT2":0,"toosoon":0,"cond_shown":"Congruent","ratio_trial":300,"L_num":4,"L_den":5,"R_num":2,"R_den":4,"correct_side":1,"subjID":"JuanaIsabelaNeiraCorrea28","gender":"1","school":"4","age":"8"},{"start_time":1552327579519,"click_time":1552327580404,"finger_time":1552327580025,"fix_duration":1433.5642599416958,"trial":2,"RT":506,"MT":379,"sideResp":1,"stimulus":[],"xmouse":[792,792,792,792,792,792,780,769,764,763,763,763,763,763,763,763,763,763,763,763,763,763,763,761,760,752,719,696,670,637,591,548,537,528,524,521,521,521,520,517,513,505,485,477,472],"ymouse":[623,623,623,623,623,623,619,615,612,612,612,612,612,612,612,612,612,612,612,612,612,612,611,600,588,570,518,492,464,428,377,314,295,274,256,243,227,220,207,196,183,163,124,106,93],"timestamp_mouse":[13,25,45,65,86,104,125,145,166,185,205,224,246,265,286,305,325,345,365,385,405,425,446,466,484,506,525,546,566,584,605,625,646,666,686,706,725,745,766,784,804,825,846,865,885],"xSR":741.5,"ySR":573.95,"xT1":424.9,"yT1":0,"xT2":1058.1,"yT2":0,"toosoon":0,"cond_shown":"Congruent","ratio_trial":300,"L_num":24,"L_den":30,"R_num":8,"R_den":16,"correct_side":1,"subjID":"JuanaIsabelaNeiraCorrea28","gender":"1","school":"4","age":"8"},{"start_time":1552327581861,"click_time":1552327582565,"finger_time":1552327582405,"fix_duration":495.8563048440685,"trial":3,"RT":544,"MT":160,"sideResp":2,"stimulus":[],"xmouse":[781,781,781,781,781,781,781,781,781,781,781,781,781,781,781,781,781,781,781,781,781,781,781,781,782,798,812,829,847,907,950,990,1026,1072,1100,1134],"ymouse":[615,615,615,615,615,615,615,615,615,615,615,615,615,615,615,615,615,615,615,615,615,615,615,615,615,595,580,561,540,468,418,367,313,235,183,92],"timestamp_mouse":[9,23,43,64,83,102,123,144,163,182,203,223,244,263,283,304,324,343,363,382,403,422,444,464,483,504,523,544,564,583,603,622,642,663,683,704],"xSR":741.5,"ySR":573.95,"xT1":424.9,"yT1":0,"xT2":1058.1,"yT2":0,"toosoon":0,"cond_shown":"Incongruent","ratio_trial":100,"L_num":3,"L_den":6,"R_num":4,"R_den":10,"correct_side":1,"subjID":"JuanaIsabelaNeiraCorrea28","gender":"1","school":"4","age":"8"},{"start_time":1552327586227,"click_time":1552327587304,"finger_time":1552327586703,"fix_duration":601.2739734200102,"trial":4,"RT":476,"MT":601,"sideResp":1,"stimulus":[],"xmouse":[815,815,815,815,815,815,815,815,815,815,815,815,814,814,814,814,814,814,814,814,814,813,803,783,742,716,674,662,651,645,631,627,625,623,622,622,622,622,622,622,621,620,619,613,609,594,583,571,555,537,508,502,498,493],"ymouse":[632,632,632,632,632,632,632,632,632,632,632,632,632,632,632,632,632,632,632,632,632,619,600,569,517,477,401,369,342,318,276,262,254,249,247,247,247,247,247,247,244,237,233,221,212,193,179,167,155,142,119,112,104,95],"timestamp_mouse":[17,37,57,77,96,117,138,157,177,196,217,237,257,278,297,317,337,357,376,397,418,438,457,476,496,517,538,558,578,598,617,638,657,677,697,717,737,758,778,796,817,836,858,878,897,916,936,957,978,997,1017,1036,1058,1077],"xSR":741.5,"ySR":573.95,"xT1":424.9,"yT1":0,"xT2":1058.1,"yT2":0,"toosoon":0,"cond_shown":"Congruent","ratio_trial":300,"L_num":11,"L_den":22,"R_num":1,"R_den":5,"correct_side":1,"subjID":"JuanaIsabelaNeiraCorrea28","gender":"1","school":"4","age":"8"},{"start_time":1552327595316,"click_time":1552327596585,"finger_time":1552327595666,"fix_duration":810.4290462318647,"trial":5,"RT":350,"MT":919,"sideResp":1,"stimulus":[],"xmouse":[780,780,780,780,780,780,780,780,780,780,780,780,780,780,779,779,779,779,779,779,778,776,776,775,773,770,760,754,749,744,740,740,740,740,740,740,740,740,740,740,740,740,715,693,661,624,544,514,489,485,478,478,478,478,478,478,478,478,478,478,480,484,486,486],"ymouse":[588,588,588,588,588,588,588,588,588,588,588,588,588,588,585,583,578,568,564,557,554,542,534,524,509,491,451,430,408,392,381,379,379,379,379,379,379,379,379,379,379,379,353,332,302,269,194,167,137,128,113,110,110,110,110,110,110,110,110,109,105,102,100,99],"timestamp_mouse":[13,41,49,68,90,110,128,150,169,190,210,228,249,269,290,310,329,350,370,390,409,428,449,469,490,509,529,549,570,588,609,629,648,668,689,710,729,750,769,790,808,829,850,870,890,910,929,949,969,989,1008,1028,1049,1069,1090,1109,1129,1149,1170,1189,1208,1228,1249,1268],"xSR":741.5,"ySR":573.95,"xT1":424.9,"yT1":0,"xT2":1058.1,"yT2":0,"toosoon":0,"cond_shown":"Incongruent","ratio_trial":200,"L_num":3,"L_den":10,"R_num":1,"R_den":2,"correct_side":2,"subjID":"JuanaIsabelaNeiraCorrea28","gender":"1","school":"4","age":"8"},{"start_time":1552327597995,"click_time":1552327600106,"finger_time":1552327599485,"fix_duration":250,"trial":6,"RT":1490,"MT":621,"sideResp":1,"stimulus":[],"xmouse":[801,801,801,801,801,801,801,801,801,801,801,801,801,801,801,801,801,801,801,801,801,801,801,801,801,801,801,803,805,805,806,806,806,806,806,806,806,806,806,806,806,806,806,806,806,806,806,806,806,806,806,806,806,806,806,806,806,806,806,806,806,806,806,806,806,806,806,806,806,806,806,806,806,806,797,790,780,760,751,746,741,738,725,718,704,699,688,682,669,662,654,645,621,609,603,598,598,595,591,579,563,550,535,527,518,499],"ymouse":[644,644,644,644,644,644,644,644,644,644,644,644,644,644,644,644,644,644,644,644,644,644,644,644,644,644,643,631,625,620,617,616,616,616,616,616,616,616,616,616,616,616,616,616,616,616,616,616,616,616,616,616,616,616,616,616,616,616,616,616,616,616,616,616,616,616,616,616,616,616,616,616,609,595,565,545,525,493,483,478,474,470,460,455,444,440,432,425,413,406,398,387,358,342,327,300,281,242,214,191,169,150,126,114,107,93],"timestamp_mouse":[10,33,50,70,90,110,131,149,171,189,211,231,249,271,290,310,329,350,371,390,410,430,450,471,489,511,529,550,571,590,609,629,650,671,690,710,729,750,771,791,810,831,849,870,890,910,929,950,971,990,1010,1030,1050,1069,1089,1110,1129,1150,1171,1191,1211,1230,1249,1271,1291,1310,1331,1349,1371,1390,1410,1431,1450,1471,1490,1509,1530,1550,1570,1591,1611,1630,1650,1671,1689,1710,1730,1750,1771,1790,1810,1830,1852,1869,1890,1909,1930,1950,1969,1990,2010,2031,2049,2069,2089,2110],"xSR":741.5,"ySR":573.95,"xT1":424.9,"yT1":0,"xT2":1058.1,"yT2":0,"toosoon":0,"cond_shown":"Congruent","ratio_trial":200,"L_num":12,"L_den":20,"R_num":6,"R_den":15,"correct_side":1,"subjID":"JuanaIsabelaNeiraCorrea28","gender":"1","school":"4","age":"8"},{"start_time":1552327602075,"click_time":1552327602966,"finger_time":1552327602606,"fix_duration":367.2626546487927,"trial":7,"RT":531,"MT":360,"sideResp":2,"stimulus":[],"xmouse":[798,798,798,798,798,798,798,798,798,798,798,798,798,798,798,798,798,798,798,798,798,798,798,798,798,802,811,823,833,850,861,871,880,902,915,929,943,959,974,1005,1020,1039,1051,1062,1080],"ymouse":[601,601,601,601,601,601,601,601,601,601,601,601,601,601,601,601,601,601,601,601,601,601,601,601,601,591,570,541,517,478,458,444,428,389,365,340,316,293,272,227,201,170,141,116,74],"timestamp_mouse":[12,37,50,71,91,110,130,151,170,190,210,230,250,270,289,309,330,350,370,391,410,431,449,470,490,510,531,549,570,591,610,630,649,670,689,711,730,750,770,791,810,830,850,870,891],"xSR":741.5,"ySR":573.95,"xT1":424.9,"yT1":0,"xT2":1058.1,"yT2":0,"toosoon":0,"cond_shown":"Incongruent","ratio_trial":100,"L_num":6,"L_den":10,"R_num":11,"R_den":22,"correct_side":1,"subjID":"JuanaIsabelaNeiraCorrea28","gender":"1","school":"4","age":"8"},{"start_time":1552327605605,"click_time":1552327607625,"finger_time":1552327606364,"fix_duration":657.7175895081735,"trial":8,"RT":759,"MT":1261,"sideResp":1,"stimulus":[],"xmouse":[773,773,773,773,773,773,773,773,773,773,773,773,773,773,773,773,773,773,773,773,773,773,773,773,773,773,773,773,773,773,773,773,773,773,773,773,773,777,782,789,793,795,795,795,795,795,795,795,795,795,795,795,795,795,795,795,795,795,795,795,796,799,809,816,825,839,844,852,853,854,854,854,854,854,854,853,852,840,829,820,809,796,770,757,741,726,703,685,677,671,666,659,650,633,625,613,600,563,545,532,526,521],"ymouse":[589,589,589,589,589,589,589,589,589,589,589,589,589,589,589,589,589,589,589,589,589,589,589,589,589,589,589,589,589,589,589,589,589,589,589,589,589,579,564,547,534,527,524,524,524,524,524,524,524,524,524,524,524,524,524,524,524,524,524,524,524,521,507,498,483,461,449,432,429,426,426,426,426,426,426,423,418,392,366,334,293,252,184,160,142,128,113,103,100,98,95,93,91,89,88,85,81,70,63,54,44,34],"timestamp_mouse":[10,21,39,61,80,100,121,140,159,181,201,221,239,259,279,301,321,340,360,380,400,420,440,461,480,500,520,539,560,580,600,621,640,660,679,701,720,740,759,780,801,820,839,859,880,899,920,940,960,980,1000,1020,1041,1061,1080,1101,1120,1141,1160,1180,1200,1219,1239,1259,1281,1299,1320,1339,1360,1381,1400,1420,1440,1460,1481,1500,1520,1539,1560,1580,1600,1621,1639,1661,1679,1700,1720,1739,1760,1781,1801,1820,1840,1861,1881,1900,1921,1940,1959,1980,2000,2020],"xSR":741.5,"ySR":573.95,"xT1":424.9,"yT1":0,"xT2":1058.1,"yT2":0,"toosoon":0,"cond_shown":"Incongruent","ratio_trial":200,"L_num":4,"L_den":5,"R_num":6,"R_den":10,"correct_side":1,"subjID":"JuanaIsabelaNeiraCorrea28","gender":"1","school":"4","age":"8"},{"start_time":1552327612992,"click_time":1552327614825,"finger_time":1552327613364,"fix_duration":1086.930715270488,"trial":9,"RT":372,"MT":1461,"sideResp":2,"stimulus":[],"xmouse":[798,798,798,798,798,798,798,798,798,798,800,803,803,804,804,804,804,804,804,804,802,801,800,800,800,800,802,805,813,817,820,822,831,837,845,850,854,855,856,856,857,858,864,868,874,876,888,901,929,939,948,956,974,986,998,1018,1029,1052,1061,1068,1076,1082,1085,1088,1089,1089,1089,1089,1089,1089,1089,1089,1089,1089,1089,1090,1090,1090,1090,1090,1090,1090,1090,1090,1090,1090,1091,1092,1093,1095,1097,1099],"ymouse":[645,645,645,645,645,645,645,645,641,633,622,613,608,601,597,595,589,577,570,565,556,547,526,515,500,487,469,459,443,437,434,432,427,425,424,423,422,422,422,422,422,421,419,418,414,412,398,386,356,340,327,314,292,279,269,253,241,218,206,196,188,181,177,171,169,169,169,169,169,169,169,169,166,165,161,153,148,140,139,139,139,139,139,139,139,137,137,135,129,122,110,95],"timestamp_mouse":[13,35,52,73,94,113,134,152,174,193,214,234,253,273,292,313,334,353,372,393,414,433,453,472,492,513,533,553,573,593,613,633,654,673,693,713,732,752,774,794,814,833,853,872,893,913,933,952,973,994,1013,1033,1053,1072,1094,1113,1133,1153,1172,1193,1212,1233,1253,1274,1294,1312,1334,1353,1374,1394,1413,1433,1453,1472,1493,1512,1534,1552,1573,1594,1613,1633,1654,1673,1692,1713,1734,1753,1773,1794,1814,1833],"xSR":741.5,"ySR":573.95,"xT1":424.9,"yT1":0,"xT2":1058.1,"yT2":0,"toosoon":0,"cond_shown":"Incongruent","ratio_trial":300,"L_num":1,"L_den":2,"R_num":2,"R_den":10,"correct_side":1,"subjID":"JuanaIsabelaNeiraCorrea28","gender":"1","school":"4","age":"8"},{"start_time":1552327618056,"click_time":1552327619585,"finger_time":1552327618665,"fix_duration":1048.4965842144786,"trial":10,"RT":609,"MT":920,"sideResp":1,"stimulus":[],"xmouse":[757,757,757,757,757,757,757,757,757,757,757,757,757,757,757,757,757,757,757,757,757,757,757,757,757,757,757,758,760,767,780,792,803,809,814,814,814,813,812,812,812,812,812,812,812,812,812,812,812,812,812,812,809,802,784,772,760,744,724,657,624,600,576,564,551,525,511,494,481,460,456,456,456,456,456,456,456],"ymouse":[626,626,626,626,626,626,626,626,626,626,626,626,626,626,626,626,626,626,626,626,626,626,626,626,626,626,626,624,620,592,563,537,511,485,440,422,409,399,394,391,391,391,391,391,391,391,391,391,391,391,391,391,384,375,348,331,312,291,267,197,160,126,88,67,47,14,0,0,0,0,0,0,0,0,0,0,1],"timestamp_mouse":[11,29,49,69,89,110,129,148,170,189,210,230,250,269,289,310,329,349,368,389,409,430,449,468,488,510,530,549,570,589,609,630,650,670,688,709,729,749,769,789,810,829,849,868,888,909,930,950,969,988,1009,1029,1049,1069,1089,1109,1129,1149,1169,1189,1209,1229,1249,1268,1289,1309,1329,1350,1370,1391,1409,1429,1449,1469,1489,1510,1529],"xSR":741.5,"ySR":573.95,"xT1":424.9,"yT1":0,"xT2":1058.1,"yT2":0,"toosoon":0,"cond_shown":"Incongruent","ratio_trial":100,"L_num":3,"L_den":9,"R_num":7,"R_den":30,"correct_side":1,"subjID":"JuanaIsabelaNeiraCorrea28","gender":"1","school":"4","age":"8"},{"start_time":1552327622212,"click_time":1552327623465,"finger_time":1552327622766,"fix_duration":1246.918357732884,"trial":11,"RT":554,"MT":699,"sideResp":1,"stimulus":[],"xmouse":[769,769,769,769,769,769,769,769,769,769,769,769,769,769,769,769,769,769,769,769,769,769,769,769,769,768,755,739,715,681,644,586,561,555,543,537,529,526,524,523,522,522,519,517,515,513,513,511,511,511,511,511,511,511,511,511,511,511,511,511,509,506,502],"ymouse":[646,646,646,646,646,646,646,646,646,646,646,646,646,646,646,646,646,646,646,646,646,646,646,646,646,642,618,594,561,512,460,373,328,318,295,285,272,267,263,262,261,260,256,252,246,242,239,235,234,232,231,225,221,218,214,207,190,177,161,147,133,107,94],"timestamp_mouse":[13,36,53,72,92,113,133,153,172,192,213,233,252,272,293,312,333,354,372,393,414,433,453,474,492,514,533,554,574,592,612,632,652,674,693,714,733,753,773,793,813,833,853,873,894,913,933,953,973,993,1013,1032,1052,1072,1092,1114,1133,1154,1173,1194,1214,1232,1253],"xSR":741.5,"ySR":573.95,"xT1":424.9,"yT1":0,"xT2":1058.1,"yT2":0,"toosoon":0,"cond_shown":"Incongruent","ratio_trial":300,"L_num":13,"L_den":26,"R_num":12,"R_den":15,"correct_side":2,"subjID":"JuanaIsabelaNeiraCorrea28","gender":"1","school":"4","age":"8"},{"start_time":1552327629119,"click_time":1552327631606,"finger_time":1552327629205,"fix_duration":412.6882381530604,"trial":12,"RT":86,"MT":2401,"sideResp":2,"stimulus":[],"xmouse":[794,793,787,778,774,773,773,773,773,773,773,778,780,782,784,786,789,792,794,794,794,794,795,795,797,797,797,797,797,796,796,796,796,796,796,796,796,796,796,796,796,796,796,796,796,796,796,796,796,796,796,796,796,796,796,796,796,796,796,796,796,796,796,796,796,796,796,796,796,797,804,819,830,836,841,843,844,844,845,845,845,845,846,846,847,847,847,849,851,857,867,895,908,926,949,980,1063,1103,1141,1180,1197,1220,1225,1228,1229,1229,1227,1223,1214,1204,1197,1192,1188,1188,1188,1188,1188,1186,1181,1177,1177,1177,1174,1166,1158],"ymouse":[641,643,656,672,687,697,700,700,700,700,701,701,701,701,701,701,698,689,684,681,679,677,675,671,663,654,633,624,621,617,616,615,615,615,615,615,615,615,615,615,615,615,615,615,615,615,615,615,615,615,615,615,615,615,615,615,615,615,615,615,615,615,615,615,615,615,615,614,611,606,588,553,534,517,500,486,468,464,464,464,463,463,461,460,460,460,459,458,456,451,446,426,414,395,369,334,256,222,189,144,119,72,54,40,30,25,22,22,21,20,18,18,18,18,18,18,18,18,18,18,18,18,18,18,18],"timestamp_mouse":[6,27,47,66,86,107,126,145,167,186,206,225,245,266,286,306,326,346,366,387,407,425,445,466,486,506,526,545,566,586,607,625,647,665,686,706,726,747,766,786,806,826,846,865,887,906,925,947,966,986,1005,1025,1047,1066,1087,1106,1126,1146,1167,1186,1206,1226,1246,1267,1287,1307,1326,1345,1367,1386,1407,1425,1445,1466,1486,1505,1526,1547,1567,1586,1606,1625,1646,1666,1686,1706,1726,1747,1767,1786,1806,1826,1845,1867,1886,1907,1926,1945,1967,1986,2006,2025,2045,2066,2087,2107,2125,2145,2167,2187,2206,2226,2246,2267,2286,2307,2326,2346,2366,2386,2406,2426,2447,2466,2487],"xSR":741.5,"ySR":573.95,"xT1":424.9,"yT1":0,"xT2":1058.1,"yT2":0,"toosoon":0,"cond_shown":"Congruent","ratio_trial":300,"L_num":1,"L_den":30,"R_num":8,"R_den":24,"correct_side":2,"subjID":"JuanaIsabelaNeiraCorrea28","gender":"1","school":"4","age":"8"},{"start_time":1552327633037,"click_time":1552327634986,"finger_time":1552327634325,"fix_duration":250,"trial":13,"RT":1288,"MT":661,"sideResp":2,"stimulus":[],"xmouse":[815,815,815,815,815,815,815,815,815,815,815,815,815,815,815,815,815,815,815,815,815,815,815,815,815,815,815,815,815,815,815,815,815,815,815,815,814,814,814,814,814,814,814,814,814,814,814,814,814,814,814,814,814,811,797,788,787,787,787,787,787,787,787,787,794,808,815,825,837,851,879,890,898,909,919,944,958,971,980,986,994,994,994,994,996,1002,1005,1010,1014,1015,1018,1020,1021,1024,1030,1046,1053,1060],"ymouse":[590,590,590,590,590,590,590,590,590,590,590,590,590,590,590,590,590,590,590,590,590,590,590,590,590,590,590,590,590,590,590,590,590,590,590,589,588,588,588,588,588,588,588,588,588,588,588,588,588,588,588,588,588,588,586,585,584,584,584,584,584,584,584,579,561,533,521,512,501,492,467,449,434,407,386,345,324,303,280,256,206,186,159,151,131,102,89,76,66,61,60,60,60,60,60,60,60,61],"timestamp_mouse":[12,39,48,68,88,108,129,149,169,187,208,228,248,268,288,308,328,349,367,388,408,429,448,468,488,507,528,547,569,589,607,628,647,669,689,708,728,747,769,788,808,827,847,869,889,908,927,949,968,987,1009,1029,1049,1068,1088,1108,1129,1149,1169,1188,1208,1229,1248,1267,1288,1308,1329,1348,1368,1388,1408,1429,1448,1468,1488,1507,1527,1548,1568,1587,1608,1628,1649,1669,1687,1707,1729,1748,1768,1789,1808,1829,1849,1867,1888,1908,1927,1949],"xSR":741.5,"ySR":573.95,"xT1":424.9,"yT1":0,"xT2":1058.1,"yT2":0,"toosoon":0,"cond_shown":"Incongruent","ratio_trial":300,"L_num":13,"L_den":26,"R_num":12,"R_den":15,"correct_side":2,"subjID":"JuanaIsabelaNeiraCorrea28","gender":"1","school":"4","age":"8"},{"start_time":1552327645572,"click_time":1552327646647,"finger_time":1552327646046,"fix_duration":1246.390589037532,"trial":14,"RT":474,"MT":601,"sideResp":2,"stimulus":[],"xmouse":[804,804,804,804,804,804,804,804,804,804,804,804,804,804,804,804,804,804,804,804,804,804,804,803,803,805,808,812,819,821,824,826,829,840,849,859,871,897,982,1051,1107,1155,1168,1169,1169,1169,1169,1169,1169,1167,1164,1162,1160,1157],"ymouse":[603,603,603,603,603,603,603,603,603,603,603,603,603,603,603,603,603,603,603,603,603,602,596,559,538,505,489,472,451,445,441,437,432,411,396,375,344,254,43,0,0,0,0,0,0,0,0,0,3,8,16,23,31,43],"timestamp_mouse":[13,39,54,73,92,114,134,153,172,192,214,234,253,273,292,313,334,354,373,394,413,432,454,474,494,514,533,552,573,593,614,633,652,673,693,714,732,752,772,793,813,832,852,873,893,913,933,953,973,992,1013,1032,1053,1075],"xSR":741.5,"ySR":573.95,"xT1":424.9,"yT1":0,"xT2":1058.1,"yT2":0,"toosoon":0,"cond_shown":"Incongruent","ratio_trial":200,"L_num":7,"L_den":10,"R_num":12,"R_den":24,"correct_side":1,"subjID":"JuanaIsabelaNeiraCorrea28","gender":"1","school":"4","age":"8"},{"start_time":1552327647817,"click_time":1552327648906,"finger_time":1552327648286,"fix_duration":250,"trial":15,"RT":469,"MT":620,"sideResp":1,"stimulus":[],"xmouse":[778,778,778,778,778,778,778,778,778,778,778,778,778,778,778,778,778,778,778,778,778,778,772,759,748,734,687,662,638,621,608,587,577,567,560,559,559,558,550,540,532,529,529,529,529,529,529,529,529,529,529,529,529,521,511],"ymouse":[602,602,602,602,602,602,602,602,602,602,602,602,602,602,602,602,602,602,602,602,602,602,587,550,521,488,401,356,314,279,244,184,164,146,139,138,138,138,135,131,127,126,126,126,126,126,126,126,126,126,126,126,125,114,96],"timestamp_mouse":[8,28,48,67,89,107,128,148,167,188,209,228,248,268,288,307,328,347,369,388,408,429,447,469,488,509,528,549,568,588,607,628,647,668,689,708,729,747,768,787,807,828,849,869,888,908,928,949,968,987,1008,1028,1048,1069,1089],"xSR":741.5,"ySR":573.95,"xT1":424.9,"yT1":0,"xT2":1058.1,"yT2":0,"toosoon":0,"cond_shown":"Incongruent","ratio_trial":200,"L_num":7,"L_den":10,"R_num":12,"R_den":24,"correct_side":1,"subjID":"JuanaIsabelaNeiraCorrea28","gender":"1","school":"4","age":"8"},{"start_time":1552327651041,"click_time":1552327651966,"finger_time":1552327651645,"fix_duration":1335.7499652234594,"trial":16,"RT":604,"MT":321,"sideResp":1,"stimulus":[],"xmouse":[781,781,781,781,781,781,781,781,781,781,781,781,781,781,781,781,781,781,781,781,781,781,780,775,768,761,760,758,754,750,739,730,727,720,710,693,683,670,651,627,567,537,530,509,499,489,475],"ymouse":[646,646,646,646,646,646,646,646,646,646,646,646,646,646,646,646,646,646,646,646,646,646,647,647,642,632,630,628,624,617,583,554,543,522,497,465,446,423,381,339,252,205,194,156,132,110,71],"timestamp_mouse":[13,36,44,63,84,103,125,143,165,184,204,224,244,264,285,305,324,345,364,385,404,424,444,464,484,503,523,545,563,584,604,624,643,663,685,703,725,745,763,784,803,823,844,865,884,903,925],"xSR":741.5,"ySR":573.95,"xT1":424.9,"yT1":0,"xT2":1058.1,"yT2":0,"toosoon":0,"cond_shown":"Congruent","ratio_trial":200,"L_num":6,"L_den":15,"R_num":3,"R_den":15,"correct_side":1,"subjID":"JuanaIsabelaNeiraCorrea28","gender":"1","school":"4","age":"8"},{"start_time":1552327654689,"click_time":1552327655886,"finger_time":1552327655246,"fix_duration":1383.8968293385924,"trial":17,"RT":557,"MT":640,"sideResp":1,"stimulus":[],"xmouse":[819,819,819,819,819,819,819,819,819,819,819,819,819,819,819,819,819,819,819,819,819,819,819,819,819,819,821,827,828,829,829,829,827,823,817,808,799,756,721,691,652,633,603,588,577,570,566,562,560,559,558,558,554,550,544,537,530,514,506,498],"ymouse":[615,615,615,615,615,615,615,615,615,615,615,615,615,615,615,615,615,615,615,615,615,615,615,615,614,608,597,572,562,555,546,540,528,520,511,501,492,466,446,426,395,379,342,321,303,282,259,229,219,211,207,203,190,185,174,161,148,117,102,89],"timestamp_mouse":[17,40,56,77,96,116,137,156,176,196,215,237,256,276,296,315,337,355,375,397,417,437,456,477,495,517,537,557,577,597,617,637,656,677,697,717,737,756,776,797,817,836,856,877,896,916,937,956,976,998,1017,1036,1056,1077,1097,1117,1138,1156,1176,1197],"xSR":741.5,"ySR":573.95,"xT1":424.9,"yT1":0,"xT2":1058.1,"yT2":0,"toosoon":0,"cond_shown":"Congruent","ratio_trial":100,"L_num":15,"L_den":25,"R_num":13,"R_den":26,"correct_side":1,"subjID":"JuanaIsabelaNeiraCorrea28","gender":"1","school":"4","age":"8"},{"start_time":1552327657721,"click_time":1552327659505,"finger_time":1552327658786,"fix_duration":374.1762857927049,"trial":18,"RT":1065,"MT":719,"sideResp":2,"stimulus":[],"xmouse":[825,825,825,825,825,825,825,825,825,825,825,825,825,825,825,825,825,825,825,825,825,825,825,825,825,825,825,825,825,825,825,825,825,825,825,825,825,825,825,825,825,825,825,825,825,825,825,825,825,825,827,837,841,844,847,849,854,860,871,875,880,884,886,887,890,893,898,901,904,908,909,915,918,922,926,929,938,947,960,976,998,1009,1009,1009,1011,1014,1036,1050,1054,1060],"ymouse":[636,636,636,636,636,636,636,636,636,636,636,636,636,636,636,636,636,636,636,636,636,636,636,636,636,636,636,636,636,636,636,636,636,636,636,636,636,636,636,636,636,636,636,636,636,636,636,636,636,635,632,625,624,623,621,619,616,612,602,594,584,564,554,543,530,515,481,459,438,404,381,337,313,286,261,238,197,177,160,141,114,86,76,70,67,67,67,65,65,65],"timestamp_mouse":[12,37,46,66,85,104,124,145,166,184,205,226,244,265,285,304,324,345,366,385,404,426,445,465,484,504,525,544,564,584,606,625,645,665,686,704,724,745,765,785,806,824,844,864,885,906,924,946,964,984,1005,1024,1045,1065,1085,1105,1126,1144,1166,1186,1205,1224,1244,1265,1284,1305,1326,1344,1366,1385,1404,1424,1446,1465,1485,1505,1524,1544,1566,1585,1604,1624,1644,1664,1685,1705,1725,1744,1765,1784],"xSR":741.5,"ySR":573.95,"xT1":424.9,"yT1":0,"xT2":1058.1,"yT2":0,"toosoon":0,"cond_shown":"Congruent","ratio_trial":200,"L_num":8,"L_den":15,"R_num":3,"R_den":9,"correct_side":1,"subjID":"JuanaIsabelaNeiraCorrea28","gender":"1","school":"4","age":"8"},{"start_time":1552327666587,"click_time":1552327667446,"finger_time":1552327667006,"fix_duration":838.8592803242979,"trial":19,"RT":419,"MT":440,"sideResp":1,"stimulus":[],"xmouse":[819,819,819,819,819,819,819,819,819,819,819,819,819,819,819,819,819,819,819,820,824,841,849,850,850,850,850,850,850,850,850,850,850,850,850,850,824,781,722,609,571,540,519,499],"ymouse":[645,645,645,645,645,645,645,645,645,645,645,645,645,645,645,645,645,645,645,643,612,545,508,495,495,495,495,495,495,495,495,495,495,495,495,493,454,405,345,246,205,170,135,76],"timestamp_mouse":[1,20,39,59,78,100,119,139,158,179,198,218,239,258,279,298,319,340,358,379,399,419,439,458,478,500,518,538,558,578,599,619,638,658,679,698,719,738,758,778,798,818,840,858],"xSR":741.5,"ySR":573.95,"xT1":424.9,"yT1":0,"xT2":1058.1,"yT2":0,"toosoon":0,"cond_shown":"Congruent","ratio_trial":300,"L_num":20,"L_den":25,"R_num":13,"R_den":26,"correct_side":1,"subjID":"JuanaIsabelaNeiraCorrea28","gender":"1","school":"4","age":"8"},{"start_time":1552327669717,"click_time":1552327670945,"finger_time":1552327670266,"fix_duration":250,"trial":20,"RT":549,"MT":679,"sideResp":1,"stimulus":[],"xmouse":[788,788,788,788,788,788,788,788,788,788,788,788,788,788,788,788,788,788,788,788,788,788,788,788,790,790,790,788,782,748,727,712,696,691,688,685,683,680,679,676,672,667,643,624,603,584,564,560,560,559,556,554,554,553,553,551,546,540,537,530,526,520],"ymouse":[657,657,657,657,657,657,657,657,657,657,657,657,657,657,657,657,657,657,657,657,657,657,657,657,656,645,579,539,503,438,400,376,344,334,325,319,313,309,309,306,303,297,276,258,237,217,176,158,136,122,106,68,52,38,33,29,29,29,29,29,29,29],"timestamp_mouse":[9,29,49,69,88,108,128,149,170,189,209,229,249,269,288,308,329,349,368,388,410,428,449,469,489,509,528,549,569,589,608,629,649,669,690,709,728,748,769,788,808,828,848,869,889,909,928,948,969,989,1009,1028,1049,1068,1089,1108,1128,1148,1169,1188,1209,1228],"xSR":741.5,"ySR":573.95,"xT1":424.9,"yT1":0,"xT2":1058.1,"yT2":0,"toosoon":0,"cond_shown":"Congruent","ratio_trial":100,"L_num":6,"L_den":20,"R_num":5,"R_den":25,"correct_side":1,"subjID":"JuanaIsabelaNeiraCorrea28","gender":"1","school":"4","age":"8"},{"start_time":1552327672883,"click_time":1552327673945,"finger_time":1552327673385,"fix_duration":256.4774123406761,"trial":21,"RT":502,"MT":560,"sideResp":1,"stimulus":[],"xmouse":[786,786,786,786,786,786,786,784,781,780,780,780,780,780,780,773,771,761,748,744,744,744,744,744,744,738,726,708,667,647,623,587,570,558,541,539,539,539,539,539,539,539,539,539,540,540,540,540,540,540,540,538,533,514],"ymouse":[601,601,601,601,601,601,601,602,603,604,604,604,604,604,604,609,611,622,640,644,644,644,644,644,644,637,625,608,543,488,421,320,255,209,155,150,150,150,150,147,143,139,135,129,128,128,128,127,125,124,121,117,112,95],"timestamp_mouse":[12,26,44,62,83,104,123,143,164,182,203,222,243,263,282,303,323,343,363,383,404,423,442,462,483,502,523,543,562,582,603,622,643,662,683,703,722,742,762,783,803,822,842,862,883,902,923,942,962,982,1004,1023,1043,1062],"xSR":741.5,"ySR":573.95,"xT1":424.9,"yT1":0,"xT2":1058.1,"yT2":0,"toosoon":0,"cond_shown":"Congruent","ratio_trial":100,"L_num":15,"L_den":25,"R_num":13,"R_den":26,"correct_side":1,"subjID":"JuanaIsabelaNeiraCorrea28","gender":"1","school":"4","age":"8"},{"start_time":1552327676256,"click_time":1552327677245,"finger_time":1552327676646,"fix_duration":1129.5010889022585,"trial":22,"RT":390,"MT":599,"sideResp":2,"stimulus":[],"xmouse":[810,810,810,810,810,810,810,810,810,810,810,810,808,804,792,788,781,774,766,753,749,748,748,748,747,747,747,745,740,726,718,709,703,701,700,700,700,702,707,743,784,811,878,925,994,1026,1055,1078,1100,1113],"ymouse":[607,607,607,607,607,607,608,608,608,608,608,608,608,610,613,617,624,636,650,678,683,686,686,686,672,651,623,595,565,507,481,448,431,421,411,411,410,406,402,391,381,374,364,363,359,352,338,319,280,82],"timestamp_mouse":[12,36,50,70,90,109,129,149,169,189,209,230,249,269,289,310,329,350,370,390,411,430,450,470,489,510,530,549,571,590,609,629,650,669,690,710,730,749,770,790,809,830,850,870,890,910,929,950,970,989],"xSR":741.5,"ySR":573.95,"xT1":424.9,"yT1":0,"xT2":1058.1,"yT2":0,"toosoon":0,"cond_shown":"Incongruent","ratio_trial":300,"L_num":4,"L_den":20,"R_num":2,"R_den":4,"correct_side":2,"subjID":"JuanaIsabelaNeiraCorrea28","gender":"1","school":"4","age":"8"},{"start_time":1552327685615,"click_time":1552327686767,"finger_time":1552327686266,"fix_duration":467.1307833412116,"trial":23,"RT":651,"MT":501,"sideResp":2,"stimulus":[],"xmouse":[799,799,799,799,799,799,799,799,799,795,794,785,785,785,785,785,785,785,785,785,785,785,785,785,785,785,784,781,781,781,781,774,772,769,769,768,767,767,768,772,775,784,790,795,803,810,842,868,897,920,939,973,991,1012,1049,1064,1071,1071],"ymouse":[613,613,613,613,613,613,613,613,614,613,612,607,607,607,607,607,607,607,607,607,607,607,607,607,607,607,607,607,608,608,608,579,560,472,445,411,374,361,347,338,330,322,310,293,270,259,237,232,228,224,220,197,183,165,133,119,103,97],"timestamp_mouse":[10,31,50,70,90,111,130,150,172,190,210,231,251,271,290,312,332,351,371,390,411,431,451,470,492,511,530,551,571,592,610,630,651,671,691,711,730,751,770,790,811,831,850,871,892,912,930,951,971,990,1010,1031,1050,1071,1090,1110,1130,1151],"xSR":741.5,"ySR":573.95,"xT1":424.9,"yT1":0,"xT2":1058.1,"yT2":0,"toosoon":0,"cond_shown":"Incongruent","ratio_trial":300,"L_num":4,"L_den":20,"R_num":2,"R_den":4,"correct_side":2,"subjID":"JuanaIsabelaNeiraCorrea28","gender":"1","school":"4","age":"8"},{"start_time":1552327689518,"click_time":1552327691027,"finger_time":1552327690105,"fix_duration":250,"trial":24,"RT":587,"MT":922,"sideResp":2,"stimulus":[],"xmouse":[807,807,807,807,807,807,807,807,807,807,807,807,807,807,807,807,807,807,807,807,807,807,807,807,807,807,807,779,749,695,691,691,691,691,691,691,701,725,767,849,909,987,1015,1028,1027,1008,1001,998,997,993,987,972,960,951,945,943,941,940,941,948,967,1055,1099,1135,1152,1158,1158,1158,1158,1158,1158,1158,1158,1158,1158,1158],"ymouse":[627,627,627,627,627,627,627,627,627,627,627,627,627,627,627,627,627,627,627,627,627,627,627,627,627,627,627,627,627,628,628,628,628,628,628,628,618,609,596,570,545,511,484,445,351,279,244,223,213,178,110,43,8,0,0,0,0,0,0,0,0,0,0,0,0,0,0,0,0,0,0,0,0,0,0,3],"timestamp_mouse":[13,27,48,68,87,109,127,148,168,188,207,227,247,269,288,308,327,348,367,387,408,429,448,468,488,509,527,548,568,587,608,628,649,668,687,708,727,747,768,788,808,827,848,868,888,908,927,948,968,987,1008,1027,1048,1068,1088,1109,1129,1147,1167,1188,1207,1228,1247,1267,1288,1308,1328,1348,1369,1389,1407,1427,1447,1467,1488,1509],"xSR":741.5,"ySR":573.95,"xT1":424.9,"yT1":0,"xT2":1058.1,"yT2":0,"toosoon":0,"cond_shown":"Congruent","ratio_trial":200,"L_num":7,"L_den":15,"R_num":18,"R_den":27,"correct_side":2,"subjID":"JuanaIsabelaNeiraCorrea28","gender":"1","school":"4","age":"8"},{"start_time":1552327709679,"click_time":1552327710986,"finger_time":1552327710166,"fix_duration":250,"trial":25,"RT":487,"MT":820,"sideResp":1,"stimulus":[],"xmouse":[805,805,805,805,805,805,805,805,805,805,805,805,805,805,805,805,805,805,805,805,805,805,805,801,791,781,771,766,763,763,763,763,763,763,763,763,759,749,645,547,511,424,388,355,352,352,352,352,352,352,352,352,360,393,407,417,429,444,479,502,529,545,545,534,525,514],"ymouse":[581,581,581,581,581,581,581,581,581,581,581,581,581,581,581,581,581,581,581,581,581,581,581,574,550,525,503,489,480,480,480,480,480,480,480,480,476,471,424,384,372,328,280,238,231,230,230,230,230,230,230,230,221,214,212,212,211,209,197,177,143,100,80,47,38,33],"timestamp_mouse":[12,35,47,66,87,106,126,146,166,187,206,226,246,267,287,306,327,347,366,387,406,427,447,466,487,507,527,546,566,586,606,626,646,666,687,706,727,748,766,787,806,826,846,866,887,907,926,947,967,988,1007,1027,1047,1066,1087,1107,1126,1147,1167,1187,1207,1227,1246,1266,1287,1307],"xSR":741.5,"ySR":573.95,"xT1":424.9,"yT1":0,"xT2":1058.1,"yT2":0,"toosoon":0,"cond_shown":"Incongruent","ratio_trial":200,"L_num":7,"L_den":15,"R_num":6,"R_den":9,"correct_side":2,"subjID":"JuanaIsabelaNeiraCorrea28","gender":"1","school":"4","age":"8"},{"start_time":1552327713942,"click_time":1552327715165,"finger_time":1552327714345,"fix_duration":1154.9503028143135,"trial":26,"RT":403,"MT":820,"sideResp":2,"stimulus":[],"xmouse":[822,822,822,822,822,822,822,822,822,822,822,822,822,822,822,822,821,821,829,835,843,851,857,864,871,893,904,914,920,923,928,928,928,928,928,928,928,928,929,934,956,967,977,987,998,1012,1018,1024,1027,1028,1028,1028,1028,1028,1030,1033,1037,1042,1045,1055,1062,1071],"ymouse":[639,639,639,639,639,639,639,639,639,639,639,639,639,639,639,639,639,631,599,577,548,534,521,507,491,441,414,384,367,353,338,337,337,336,336,336,336,335,331,325,298,282,262,245,227,197,186,177,170,166,165,165,165,165,162,159,148,141,137,122,110,81],"timestamp_mouse":[13,38,43,63,85,103,124,144,163,184,203,225,244,265,283,303,324,343,364,384,403,424,443,463,483,503,523,544,563,584,603,624,643,664,684,704,723,744,764,783,803,824,844,864,883,904,923,944,964,983,1004,1023,1044,1065,1084,1103,1124,1143,1163,1183,1203,1223],"xSR":741.5,"ySR":573.95,"xT1":424.9,"yT1":0,"xT2":1058.1,"yT2":0,"toosoon":0,"cond_shown":"Congruent","ratio_trial":100,"L_num":6,"L_den":20,"R_num":5,"R_den":25,"correct_side":1,"subjID":"JuanaIsabelaNeiraCorrea28","gender":"1","school":"4","age":"8"},{"start_time":1552327717483,"click_time":1552327718587,"finger_time":1552327717846,"fix_duration":554.490158851746,"trial":27,"RT":363,"MT":741,"sideResp":1,"stimulus":[],"xmouse":[813,813,813,813,812,810,809,808,808,808,808,808,808,808,808,808,808,808,809,809,809,809,808,807,807,807,807,807,808,808,808,799,785,721,679,646,617,595,583,582,582,582,585,590,590,590,590,590,590,589,585,573,563,541,527,517],"ymouse":[611,611,611,611,611,610,609,609,609,609,609,609,609,609,609,603,601,593,567,556,548,539,537,533,533,530,524,513,486,476,469,455,445,407,387,363,339,316,294,286,272,258,223,175,162,155,151,148,140,134,123,102,88,66,60,57],"timestamp_mouse":[4,22,43,63,84,103,124,143,163,183,204,223,244,263,284,304,324,343,363,384,404,423,444,463,484,503,523,543,563,583,603,623,643,663,683,703,723,743,763,783,804,823,845,863,885,903,923,943,964,984,1004,1024,1045,1063,1083,1104],"xSR":741.5,"ySR":573.95,"xT1":424.9,"yT1":0,"xT2":1058.1,"yT2":0,"toosoon":0,"cond_shown":"Congruent","ratio_trial":200,"L_num":15,"L_den":25,"R_num":4,"R_den":10,"correct_side":1,"subjID":"JuanaIsabelaNeiraCorrea28","gender":"1","school":"4","age":"8"},{"start_time":1552327721260,"click_time":1552327722687,"finger_time":1552327721987,"fix_duration":250,"trial":28,"RT":727,"MT":700,"sideResp":2,"stimulus":[],"xmouse":[812,812,812,812,812,812,812,812,812,812,812,812,812,812,812,812,812,812,811,810,810,810,810,810,810,810,810,810,810,810,810,810,810,810,816,822,826,830,830,830,830,830,830,831,832,836,839,842,847,866,882,904,933,951,977,987,999,1011,1023,1045,1046,1046,1044,1043,1043,1044,1044,1044,1044,1047,1053,1059],"ymouse":[631,631,631,631,631,631,631,631,631,631,631,631,631,631,631,631,631,631,631,632,632,632,632,632,632,632,632,632,632,632,632,632,632,629,608,588,561,529,489,432,412,394,370,358,351,343,338,331,323,298,286,274,257,243,216,201,189,179,172,156,147,141,122,113,104,102,102,102,102,100,98,93],"timestamp_mouse":[14,39,46,66,86,107,127,146,167,186,207,225,246,267,286,306,327,346,366,386,406,426,446,467,487,506,526,547,567,587,607,626,647,666,686,706,727,747,767,786,807,827,846,866,886,907,927,947,967,986,1006,1026,1046,1066,1086,1108,1127,1146,1167,1186,1206,1227,1247,1266,1286,1306,1326,1347,1367,1386,1407,1427],"xSR":741.5,"ySR":573.95,"xT1":424.9,"yT1":0,"xT2":1058.1,"yT2":0,"toosoon":0,"cond_shown":"Congruent","ratio_trial":200,"L_num":3,"L_den":10,"R_num":11,"R_den":22,"correct_side":2,"subjID":"JuanaIsabelaNeiraCorrea28","gender":"1","school":"4","age":"8"},{"start_time":1552327731161,"click_time":1552327732046,"finger_time":1552327731546,"fix_duration":1313.4811443975432,"trial":29,"RT":385,"MT":500,"sideResp":2,"stimulus":[],"xmouse":[782,782,782,782,782,782,782,782,782,782,782,782,782,782,782,782,782,782,782,787,789,791,793,794,799,803,806,813,819,838,851,866,881,893,918,928,947,961,978,995,1031,1047,1058,1067,1079],"ymouse":[612,612,612,607,605,605,605,605,605,605,605,605,605,605,605,605,605,599,585,548,530,519,511,506,496,487,476,453,439,407,392,377,364,354,329,318,295,279,260,240,187,160,137,116,88],"timestamp_mouse":[12,35,46,66,85,106,125,146,165,185,206,225,246,265,285,306,326,346,365,385,405,426,445,466,486,505,525,545,565,584,606,625,646,666,685,705,725,744,765,785,806,825,845,865,885],"xSR":741.5,"ySR":573.95,"xT1":424.9,"yT1":0,"xT2":1058.1,"yT2":0,"toosoon":0,"cond_shown":"Incongruent","ratio_trial":300,"L_num":4,"L_den":5,"R_num":8,"R_den":16,"correct_side":1,"subjID":"JuanaIsabelaNeiraCorrea28","gender":"1","school":"4","age":"8"},{"start_time":1552327737788,"click_time":1552327738667,"finger_time":1552327737987,"fix_duration":820.1355830221214,"trial":30,"RT":199,"MT":680,"sideResp":2,"stimulus":[],"xmouse":[773,773,773,773,773,773,772,789,800,810,816,818,818,818,818,818,818,818,818,818,816,809,751,707,685,681,674,673,672,674,680,688,715,735,758,782,828,893,925,952,979,1004,1047,1063],"ymouse":[648,648,648,648,648,648,643,603,581,543,499,475,448,446,445,445,445,445,445,445,443,430,331,275,237,228,207,199,190,187,181,175,160,143,120,95,63,40,33,28,25,22,9,4],"timestamp_mouse":[18,41,58,79,99,118,138,158,179,199,219,238,258,279,299,318,338,358,378,398,418,438,459,478,498,518,539,558,579,598,618,637,658,678,699,718,738,758,778,798,818,838,859,879],"xSR":741.5,"ySR":573.95,"xT1":424.9,"yT1":0,"xT2":1058.1,"yT2":0,"toosoon":0,"cond_shown":"Congruent","ratio_trial":300,"L_num":2,"L_den":10,"R_num":12,"R_den":24,"correct_side":2,"subjID":"JuanaIsabelaNeiraCorrea28","gender":"1","school":"4","age":"8"},{"start_time":1552327746387,"click_time":1552327747766,"finger_time":1552327747067,"fix_duration":519.9494296197473,"trial":31,"RT":680,"MT":699,"sideResp":2,"stimulus":[],"xmouse":[807,807,807,807,807,807,807,807,807,806,798,789,786,786,786,786,786,786,786,786,786,786,786,786,786,786,786,786,786,786,793,805,819,839,839,839,839,839,844,850,855,859,863,872,877,882,888,889,896,902,909,919,929,953,963,977,984,991,1009,1021,1033,1048,1062,1072,1092,1103,1104,1105,1105,1105],"ymouse":[639,639,639,639,639,639,639,639,639,639,645,648,649,649,649,649,649,649,649,649,649,649,649,649,649,649,649,649,649,639,622,608,593,574,569,563,557,549,520,501,483,468,454,424,409,395,374,361,334,317,300,283,267,231,214,188,173,155,113,87,61,25,0,0,0,0,0,0,0,3],"timestamp_mouse":[1,19,39,59,79,99,120,139,160,180,199,220,240,259,279,299,320,340,359,380,400,420,439,458,480,500,520,539,559,579,599,620,639,659,680,699,719,740,759,779,799,819,839,860,879,899,919,940,960,979,999,1019,1039,1059,1079,1100,1120,1141,1160,1180,1199,1220,1239,1260,1279,1299,1320,1341,1360,1379],"xSR":741.5,"ySR":573.95,"xT1":424.9,"yT1":0,"xT2":1058.1,"yT2":0,"toosoon":0,"cond_shown":"Incongruent","ratio_trial":300,"L_num":4,"L_den":5,"R_num":6,"R_den":12,"correct_side":1,"subjID":"JuanaIsabelaNeiraCorrea28","gender":"1","school":"4","age":"8"},{"start_time":1552327750849,"click_time":1552327752327,"finger_time":1552327751326,"fix_duration":501.859979672962,"trial":32,"RT":477,"MT":1001,"sideResp":1,"stimulus":[],"xmouse":[779,779,779,779,779,779,779,779,779,779,776,776,773,771,766,762,760,759,758,758,758,758,754,751,739,730,721,710,700,683,675,669,663,663,662,662,662,662,662,662,662,662,661,662,695,720,739,757,767,778,780,781,781,781,781,781,781,781,781,765,738,682,576,516,481,481,481,481,480,479,479,479,482,487],"ymouse":[646,646,646,646,646,646,646,646,646,647,650,651,654,657,662,664,666,667,667,667,667,668,670,674,685,692,701,710,719,734,740,744,750,750,751,751,751,751,751,751,751,751,751,709,544,460,392,340,304,251,236,228,224,224,224,224,224,224,221,211,201,180,146,129,119,119,119,119,116,114,111,106,101,97],"timestamp_mouse":[20,48,57,78,98,117,137,158,178,198,218,237,258,278,297,318,337,357,377,397,417,438,458,477,497,517,537,558,579,597,617,638,658,677,697,718,737,758,777,797,818,837,857,878,897,917,937,958,977,998,1017,1037,1057,1077,1098,1117,1138,1157,1178,1197,1218,1238,1257,1277,1297,1318,1337,1358,1378,1397,1417,1438,1457,1478],"xSR":741.5,"ySR":573.95,"xT1":424.9,"yT1":0,"xT2":1058.1,"yT2":0,"toosoon":0,"cond_shown":"Incongruent","ratio_trial":300,"L_num":7,"L_den":10,"R_num":8,"R_den":20,"correct_side":1,"subjID":"JuanaIsabelaNeiraCorrea28","gender":"1","school":"4","age":"8"},{"start_time":1552327755037,"click_time":1552327756767,"finger_time":1552327755847,"fix_duration":1149.7642610725716,"trial":33,"RT":810,"MT":920,"sideResp":1,"stimulus":[],"xmouse":[797,797,797,797,797,797,797,797,797,797,797,797,797,797,797,797,797,797,797,797,797,797,797,797,797,797,797,797,797,797,797,797,797,797,797,797,797,797,799,804,816,816,816,816,816,818,821,825,828,831,832,832,832,832,832,829,825,819,810,799,771,758,747,738,721,688,671,658,651,647,646,642,639,633,630,622,616,606,594,580,564,560,556,554,551,533,521],"ymouse":[656,656,656,656,656,656,656,656,656,656,656,656,656,656,656,656,656,656,656,656,656,656,656,656,656,656,656,656,656,656,656,656,656,656,656,656,656,656,633,601,467,397,345,291,264,220,204,191,182,173,167,165,163,157,149,124,111,95,75,57,22,9,2,0,0,0,0,0,0,0,0,2,6,14,17,21,23,24,26,28,30,31,31,32,33,36,38],"timestamp_mouse":[10,39,49,70,89,109,129,150,170,190,209,229,249,270,289,309,330,349,370,390,409,429,449,469,490,509,529,550,570,589,609,629,649,669,689,709,730,749,769,790,810,829,850,870,889,909,930,950,969,989,1011,1029,1050,1069,1089,1109,1129,1150,1169,1190,1209,1230,1249,1269,1289,1309,1328,1349,1369,1390,1409,1429,1448,1470,1489,1509,1529,1549,1569,1590,1611,1629,1650,1669,1689,1709,1730],"xSR":741.5,"ySR":573.95,"xT1":424.9,"yT1":0,"xT2":1058.1,"yT2":0,"toosoon":0,"cond_shown":"Congruent","ratio_trial":200,"L_num":14,"L_den":28,"R_num":6,"R_den":20,"correct_side":1,"subjID":"JuanaIsabelaNeiraCorrea28","gender":"1","school":"4","age":"8"},{"start_time":1552327759173,"click_time":1552327760447,"finger_time":1552327759527,"fix_duration":625.03069303916,"trial":34,"RT":354,"MT":920,"sideResp":1,"stimulus":[],"xmouse":[807,806,806,806,806,806,806,806,806,806,806,806,806,806,806,812,816,826,831,837,844,853,859,869,870,872,872,872,870,867,865,860,851,832,822,811,791,773,737,722,707,698,689,668,657,644,625,613,591,582,574,563,558,555,555,555,555,555,555,555,553,539,522,502],"ymouse":[593,594,594,594,594,594,594,594,594,594,594,594,594,594,594,584,576,561,554,541,528,507,485,447,433,422,415,412,403,397,388,377,366,351,345,338,326,314,289,277,265,253,239,214,199,184,168,157,138,133,127,123,119,118,118,118,118,118,118,118,117,112,105,91],"timestamp_mouse":[13,35,53,73,93,114,134,153,173,194,213,233,253,273,294,313,333,354,373,394,420,434,453,474,494,513,533,553,573,593,614,634,653,673,692,714,733,753,773,793,813,834,853,874,893,914,933,953,973,993,1013,1034,1053,1073,1093,1113,1133,1154,1174,1194,1213,1234,1254,1274],"xSR":741.5,"ySR":573.95,"xT1":424.9,"yT1":0,"xT2":1058.1,"yT2":0,"toosoon":0,"cond_shown":"Incongruent","ratio_trial":200,"L_num":3,"L_den":10,"R_num":1,"R_den":2,"correct_side":2,"subjID":"JuanaIsabelaNeiraCorrea28","gender":"1","school":"4","age":"8"},{"start_time":1552327762554,"click_time":1552327763986,"finger_time":1552327763207,"fix_duration":927.4360282813914,"trial":35,"RT":653,"MT":779,"sideResp":1,"stimulus":[],"xmouse":[823,823,823,823,823,823,823,823,823,823,823,823,823,823,823,823,823,823,823,823,823,823,823,823,823,823,823,823,823,822,822,820,816,809,790,777,765,750,740,725,718,713,712,712,712,709,707,703,702,697,694,691,688,685,661,636,607,564,544,522,510,495,483,473,466,465,465,465,465,465,465,465],"ymouse":[628,628,628,628,628,628,628,628,628,628,628,628,628,628,628,628,628,628,628,628,628,628,628,626,613,609,605,604,602,597,591,583,572,558,518,495,474,439,417,384,373,365,364,364,363,352,347,334,325,303,289,276,263,252,224,211,199,182,171,157,148,137,127,119,106,103,101,101,101,101,101,99],"timestamp_mouse":[13,38,53,73,92,112,133,152,172,193,213,232,251,272,292,312,333,352,372,392,413,432,453,472,493,513,532,552,573,592,613,633,653,673,693,712,733,752,772,792,813,832,853,873,892,912,933,952,973,992,1012,1032,1051,1073,1092,1112,1133,1153,1172,1192,1213,1233,1253,1273,1291,1312,1333,1353,1372,1392,1413,1432],"xSR":741.5,"ySR":573.95,"xT1":424.9,"yT1":0,"xT2":1058.1,"yT2":0,"toosoon":0,"cond_shown":"Congruent","ratio_trial":300,"L_num":4,"L_den":10,"R_num":1,"R_den":10,"correct_side":1,"subjID":"JuanaIsabelaNeiraCorrea28","gender":"1","school":"4","age":"8"},{"start_time":1552327765719,"click_time":1552327767387,"finger_time":1552327766287,"fix_duration":250,"trial":36,"RT":568,"MT":1100,"sideResp":2,"stimulus":[],"xmouse":[837,837,837,837,837,837,837,837,837,837,837,837,837,837,837,837,837,837,837,837,837,837,837,837,837,837,837,841,845,848,851,852,853,853,853,853,854,855,855,856,857,859,859,860,861,864,868,885,895,932,974,1031,1140,1168,1177,1181,1182,1183,1184,1189,1192,1195,1196,1196,1196,1196,1196,1196,1196,1196,1196,1190,1179,1173,1169,1167,1167,1167,1167,1167,1167,1167,1162,1156],"ymouse":[654,654,654,654,654,654,654,654,654,654,654,654,654,654,654,654,654,654,654,654,654,654,654,654,654,654,642,619,605,593,584,577,575,575,574,574,573,570,569,566,563,560,559,557,555,551,544,517,498,430,358,274,119,83,66,58,54,52,50,40,32,22,20,19,19,19,19,19,19,19,19,19,19,19,19,19,19,19,19,19,19,19,22,28],"timestamp_mouse":[20,39,47,68,87,107,127,147,167,188,207,227,247,267,287,307,326,347,368,387,408,427,447,467,488,508,527,548,568,587,608,627,648,668,687,708,728,747,768,787,808,827,848,867,887,907,927,947,967,987,1008,1027,1047,1068,1088,1108,1127,1147,1167,1187,1208,1227,1248,1267,1287,1308,1328,1348,1367,1388,1408,1427,1448,1467,1488,1508,1528,1548,1567,1588,1607,1628,1647,1668],"xSR":741.5,"ySR":573.95,"xT1":424.9,"yT1":0,"xT2":1058.1,"yT2":0,"toosoon":0,"cond_shown":"Incongruent","ratio_trial":100,"L_num":6,"L_den":10,"R_num":7,"R_den":14,"correct_side":1,"subjID":"JuanaIsabelaNeiraCorrea28","gender":"1","school":"4","age":"8"},{"start_time":1552327774464,"click_time":1552327776986,"finger_time":1552327775907,"fix_duration":1096.376464905657,"trial":37,"RT":1443,"MT":1079,"sideResp":1,"stimulus":[],"xmouse":[786,786,786,786,786,786,786,786,786,786,786,786,786,786,786,786,786,786,786,786,786,786,786,786,786,786,786,786,786,786,786,786,786,786,786,786,786,786,786,786,786,786,786,786,786,786,786,786,786,786,786,786,786,786,786,786,786,786,786,786,786,786,786,786,786,786,786,786,786,786,769,749,727,717,708,706,705,704,703,701,699,695,686,673,642,625,602,576,546,500,494,494,494,496,510,516,523,529,533,534,533,533,533,533,533,527,507,478,434,371,361,358,355,355,355,355,355,355,355,355,355,355,357,365,401,421,439],"ymouse":[626,626,626,626,626,626,626,626,626,626,626,626,626,626,626,626,626,626,626,626,626,626,626,626,626,626,626,626,626,626,626,626,626,626,626,626,626,626,626,626,626,626,626,626,626,626,626,626,626,626,626,626,626,626,626,626,626,626,626,626,626,626,626,626,626,626,626,626,626,622,606,591,563,540,502,491,485,481,478,471,467,463,452,441,415,402,387,370,349,314,304,297,294,286,261,248,235,218,203,184,181,181,181,181,179,172,159,144,125,89,77,68,52,48,47,47,47,47,47,47,47,47,47,47,44,43,43],"timestamp_mouse":[11,39,42,62,83,103,122,143,162,182,202,221,242,263,282,303,322,342,363,383,403,422,442,463,482,503,522,543,561,582,603,623,643,663,682,702,722,742,763,782,803,822,842,863,882,902,923,942,962,982,1002,1023,1042,1064,1082,1104,1123,1142,1164,1184,1202,1224,1244,1263,1282,1304,1323,1344,1362,1382,1403,1423,1443,1463,1482,1503,1523,1544,1562,1583,1604,1624,1643,1664,1682,1703,1723,1743,1763,1782,1803,1823,1843,1864,1883,1904,1923,1943,1963,1982,2003,2022,2043,2063,2083,2103,2123,2143,2163,2183,2202,2223,2242,2263,2282,2304,2323,2342,2362,2383,2402,2422,2442,2463,2482,2503,2522],"xSR":741.5,"ySR":573.95,"xT1":424.9,"yT1":0,"xT2":1058.1,"yT2":0,"toosoon":0,"cond_shown":"Congruent","ratio_trial":100,"L_num":3,"L_den":6,"R_num":2,"R_den":5,"correct_side":1,"subjID":"JuanaIsabelaNeiraCorrea28","gender":"1","school":"4","age":"8"},{"start_time":1552327779484,"click_time":1552327781447,"finger_time":1552327781007,"fix_duration":574.5358303359495,"trial":38,"RT":1523,"MT":440,"sideResp":1,"stimulus":[],"xmouse":[762,762,762,762,762,762,762,762,762,762,762,762,762,762,762,762,762,762,762,762,762,762,762,762,762,762,762,762,762,762,762,762,762,762,762,762,762,762,762,762,762,762,762,762,762,762,762,762,762,762,762,762,762,762,762,762,762,762,762,762,762,762,762,762,762,762,762,762,762,762,762,762,762,761,762,762,762,760,737,723,700,687,676,658,651,646,638,627,597,572,554,541,531,519,514,509,505,502,497],"ymouse":[630,630,630,630,630,630,630,630,630,630,630,630,630,630,630,630,630,630,630,630,630,630,630,630,630,630,630,630,630,630,630,630,630,630,630,630,630,630,630,630,630,630,630,630,630,630,630,630,630,630,630,630,630,630,630,630,630,630,630,630,630,630,630,630,630,630,630,630,630,630,630,630,630,626,610,589,563,538,489,468,439,425,414,398,391,384,372,357,322,295,275,258,241,202,182,161,141,118,75],"timestamp_mouse":[2,34,43,63,82,103,122,142,163,184,203,223,244,262,282,302,324,343,363,382,403,422,443,464,484,503,523,544,564,583,602,623,644,664,683,703,724,743,762,782,803,824,843,862,883,903,923,944,964,983,1002,1024,1043,1063,1083,1102,1123,1144,1164,1184,1202,1223,1242,1262,1284,1303,1322,1342,1363,1382,1404,1424,1444,1463,1483,1503,1523,1543,1563,1582,1603,1622,1644,1663,1682,1703,1723,1744,1762,1783,1803,1823,1843,1862,1882,1902,1923,1943,1962],"xSR":741.5,"ySR":573.95,"xT1":424.9,"yT1":0,"xT2":1058.1,"yT2":0,"toosoon":0,"cond_shown":"Incongruent","ratio_trial":100,"L_num":10,"L_den":25,"R_num":9,"R_den":18,"correct_side":2,"subjID":"JuanaIsabelaNeiraCorrea28","gender":"1","school":"4","age":"8"},{"start_time":1552327792961,"click_time":1552327793767,"finger_time":1552327793387,"fix_duration":1070.2215021331344,"trial":39,"RT":426,"MT":380,"sideResp":2,"stimulus":[],"xmouse":[792,792,792,792,792,792,792,792,792,792,792,792,792,792,792,792,792,792,793,793,793,793,793,793,804,809,816,823,829,847,854,862,873,884,912,930,938,964,991,1035,1059],"ymouse":[622,622,622,622,622,622,622,622,622,622,622,622,622,622,622,622,622,622,620,608,590,569,541,503,418,383,344,303,281,242,227,213,198,182,145,120,110,84,65,39,27],"timestamp_mouse":[15,38,47,66,86,105,125,146,167,185,206,225,246,266,287,306,325,346,366,386,406,426,446,466,486,505,526,546,566,586,606,627,647,666,686,706,725,746,766,786,805],"xSR":741.5,"ySR":573.95,"xT1":424.9,"yT1":0,"xT2":1058.1,"yT2":0,"toosoon":0,"cond_shown":"Incongruent","ratio_trial":300,"L_num":8,"L_den":10,"R_num":14,"R_den":28,"correct_side":1,"subjID":"JuanaIsabelaNeiraCorrea28","gender":"1","school":"4","age":"8"},{"start_time":1552327796280,"click_time":1552327797046,"finger_time":1552327796767,"fix_duration":1231.8382905091469,"trial":40,"RT":487,"MT":279,"sideResp":1,"stimulus":[],"xmouse":[786,786,786,786,786,786,786,786,786,786,786,786,786,786,786,786,786,786,786,786,786,781,776,754,742,731,725,718,704,697,685,666,656,606,575,552,534,510,471],"ymouse":[630,630,630,630,630,630,630,630,630,630,630,630,630,630,630,630,630,630,630,630,630,620,613,581,566,551,541,530,506,493,473,439,409,311,269,236,193,153,66],"timestamp_mouse":[11,35,48,67,87,106,127,148,166,188,206,226,248,266,288,306,326,347,368,387,407,426,447,467,487,507,526,547,566,588,607,626,647,666,687,708,727,748,766],"xSR":741.5,"ySR":573.95,"xT1":424.9,"yT1":0,"xT2":1058.1,"yT2":0,"toosoon":0,"cond_shown":"Incongruent","ratio_trial":200,"L_num":3,"L_den":10,"R_num":1,"R_den":2,"correct_side":2,"subjID":"JuanaIsabelaNeiraCorrea28","gender":"1","school":"4","age":"8"},{"start_time":1552327800673,"click_time":1552327803027,"finger_time":1552327801128,"fix_duration":1085.6036901420837,"trial":41,"RT":455,"MT":1899,"sideResp":1,"stimulus":[],"xmouse":[794,794,794,794,794,794,794,794,794,794,794,794,794,794,794,794,794,794,796,808,823,827,829,832,833,834,835,836,838,844,846,857,868,898,915,925,932,934,934,934,934,934,939,947,949,952,953,955,956,956,956,956,956,931,869,782,682,592,454,407,365,348,341,341,341,341,341,341,341,341,341,341,341,341,341,341,341,341,341,345,347,352,355,356,356,357,357,357,357,357,370,381,390,403,406,406,406,406,406,406,406,406,406,410,414,417,419,422,422,423,423,424,424,424,424,424,424,425],"ymouse":[644,644,644,644,644,644,644,644,644,644,644,644,644,644,644,644,644,644,631,604,577,574,568,563,561,559,558,557,552,546,543,527,512,472,449,427,401,368,278,229,190,138,105,55,36,21,13,7,3,3,3,3,3,0,0,0,0,0,0,0,0,0,0,0,0,0,0,0,0,0,0,0,0,0,0,0,0,0,3,20,26,42,53,60,62,63,63,63,63,64,69,73,74,75,75,75,75,75,75,75,75,75,75,74,70,62,57,53,50,48,47,46,46,46,46,46,46,46],"timestamp_mouse":[16,38,54,73,93,115,135,154,173,194,215,234,255,274,294,313,335,354,374,394,414,434,455,474,494,513,534,554,573,593,615,634,655,674,694,713,734,754,773,793,814,834,855,874,893,914,934,955,974,994,1013,1033,1053,1075,1094,1114,1135,1155,1175,1193,1213,1235,1254,1273,1295,1314,1333,1354,1373,1394,1415,1434,1455,1474,1494,1514,1534,1555,1575,1594,1613,1634,1653,1674,1694,1714,1733,1754,1774,1794,1815,1835,1854,1874,1894,1914,1935,1955,1974,1994,2015,2034,2053,2074,2095,2114,2135,2155,2174,2194,2215,2234,2255,2274,2294,2313,2333,2354],"xSR":741.5,"ySR":573.95,"xT1":424.9,"yT1":0,"xT2":1058.1,"yT2":0,"toosoon":0,"cond_shown":"Congruent","ratio_trial":100,"L_num":11,"L_den":22,"R_num":4,"R_den":10,"correct_side":1,"subjID":"JuanaIsabelaNeiraCorrea28","gender":"1","school":"4","age":"8"},{"start_time":1552327807979,"click_time":1552327810027,"finger_time":1552327808827,"fix_duration":609.1343955505653,"trial":42,"RT":848,"MT":1200,"sideResp":2,"stimulus":[],"xmouse":[808,808,808,808,808,808,808,808,804,801,797,797,797,797,797,797,797,797,797,797,797,797,797,797,797,797,797,797,797,797,797,797,797,797,797,797,797,797,795,793,790,787,785,782,780,780,780,779,778,778,778,778,778,778,778,778,778,778,784,789,792,795,797,802,805,808,813,816,829,836,842,847,852,857,861,862,870,878,899,909,923,935,948,960,965,968,972,975,982,986,990,993,997,1004,1006,1010,1017,1023,1038,1044,1051,1057,1064],"ymouse":[654,654,654,654,654,654,654,654,647,644,643,642,642,642,642,642,642,642,642,642,642,642,642,642,642,642,642,642,642,642,642,642,642,642,642,642,642,639,622,606,589,574,560,542,533,528,525,521,518,517,517,517,517,517,517,517,517,516,511,508,505,502,498,482,469,455,432,414,375,356,335,316,298,270,257,254,245,241,237,235,233,230,227,220,209,198,186,175,151,137,122,108,94,69,60,54,45,40,34,34,33,32,31],"timestamp_mouse":[9,37,49,69,88,107,129,148,168,188,208,228,249,267,288,307,329,348,368,387,408,427,449,469,487,508,529,548,568,588,608,628,648,669,688,708,727,748,768,788,808,828,848,868,887,908,928,948,968,988,1008,1029,1049,1068,1088,1109,1129,1148,1167,1189,1208,1228,1247,1267,1287,1308,1328,1349,1368,1387,1408,1428,1449,1468,1488,1508,1528,1548,1567,1589,1609,1628,1649,1667,1688,1708,1728,1749,1768,1788,1808,1827,1848,1867,1888,1908,1928,1948,1967,1988,2008,2027,2048],"xSR":741.5,"ySR":573.95,"xT1":424.9,"yT1":0,"xT2":1058.1,"yT2":0,"toosoon":0,"cond_shown":"Incongruent","ratio_trial":100,"L_num":3,"L_den":5,"R_num":8,"R_den":16,"correct_side":1,"subjID":"JuanaIsabelaNeiraCorrea28","gender":"1","school":"4","age":"8"},{"start_time":1552327812614,"click_time":1552327813547,"finger_time":1552327812907,"fix_duration":866.3921997808446,"trial":43,"RT":293,"MT":640,"sideResp":1,"stimulus":[],"xmouse":[750,750,750,750,750,750,750,750,750,750,750,750,750,744,728,711,687,641,628,619,614,601,589,565,560,555,563,571,576,581,581,574,557,551,533,521,513,504,501,498,495,491,490,489,489,489,489],"ymouse":[589,589,589,589,589,589,589,589,589,589,589,589,589,586,580,572,562,542,535,531,528,508,484,435,421,385,343,320,303,285,270,238,211,204,182,167,154,135,128,122,117,109,107,106,104,103,98],"timestamp_mouse":[13,36,54,72,94,114,133,152,174,193,214,232,253,273,293,313,332,353,373,393,412,433,452,473,493,513,533,552,572,592,614,632,653,673,694,713,732,753,774,794,814,833,854,873,894,913,933],"xSR":741.5,"ySR":573.95,"xT1":424.9,"yT1":0,"xT2":1058.1,"yT2":0,"toosoon":0,"cond_shown":"Congruent","ratio_trial":300,"L_num":5,"L_den":25,"R_num":7,"R_den":14,"correct_side":2,"subjID":"JuanaIsabelaNeiraCorrea28","gender":"1","school":"4","age":"8"},{"start_time":1552327821436,"click_time":1552327822387,"finger_time":1552327822008,"fix_duration":387.4947508128453,"trial":44,"RT":572,"MT":379,"sideResp":1,"stimulus":[],"xmouse":[839,839,839,839,839,839,839,839,839,838,836,835,835,835,835,835,835,835,835,834,834,834,834,834,833,827,823,820,817,814,812,808,803,801,798,798,795,791,786,777,763,725,702,689,679,659,564,494],"ymouse":[626,626,626,626,626,626,626,626,626,626,626,626,626,626,626,626,626,626,626,626,626,626,626,626,626,602,590,575,560,542,524,479,445,421,396,340,310,282,254,227,199,171,166,163,157,142,62,4],"timestamp_mouse":[13,32,50,71,90,112,132,151,170,192,211,234,252,271,290,310,332,351,371,391,411,432,451,470,491,511,531,551,572,590,610,631,652,671,692,711,731,752,771,791,810,831,851,871,890,910,931,951],"xSR":741.5,"ySR":573.95,"xT1":424.9,"yT1":0,"xT2":1058.1,"yT2":0,"toosoon":0,"cond_shown":"Incongruent","ratio_trial":100,"L_num":10,"L_den":25,"R_num":9,"R_den":18,"correct_side":2,"subjID":"JuanaIsabelaNeiraCorrea28","gender":"1","school":"4","age":"8"},{"start_time":1552327825835,"click_time":1552327827007,"finger_time":1552327826228,"fix_duration":1425.6527666242616,"trial":45,"RT":393,"MT":779,"sideResp":2,"stimulus":[],"xmouse":[813,813,813,813,813,813,813,813,813,813,813,813,813,813,813,813,813,813,817,819,828,836,842,852,858,877,898,937,963,983,1001,1007,1017,1024,1034,1057,1068,1075,1081,1082,1082,1082,1082,1083,1085,1089,1091,1092,1093,1093,1095,1095,1095,1095,1095,1095,1096,1097,1098],"ymouse":[593,593,593,593,593,593,593,593,593,593,593,593,593,593,593,593,593,593,580,570,523,494,474,450,440,423,416,402,398,390,376,367,349,337,320,285,266,249,231,216,192,181,173,162,157,146,144,143,142,141,138,136,131,126,122,113,107,101,95],"timestamp_mouse":[13,36,52,73,93,111,133,151,173,192,212,231,253,271,292,312,332,352,372,393,412,431,453,472,493,511,532,553,572,593,612,632,653,672,692,712,732,751,772,792,811,832,852,872,893,912,932,953,972,992,1014,1031,1052,1072,1092,1112,1132,1152,1172],"xSR":741.5,"ySR":573.95,"xT1":424.9,"yT1":0,"xT2":1058.1,"yT2":0,"toosoon":0,"cond_shown":"Congruent","ratio_trial":200,"L_num":5,"L_den":10,"R_num":14,"R_den":20,"correct_side":2,"subjID":"JuanaIsabelaNeiraCorrea28","gender":"1","school":"4","age":"8"},{"start_time":1552327829630,"click_time":1552327830887,"finger_time":1552327829846,"fix_duration":821.5669225995638,"trial":46,"RT":216,"MT":1041,"sideResp":2,"stimulus":[],"xmouse":[811,811,811,811,811,811,811,811,811,811,813,815,818,821,824,827,827,827,827,827,827,827,827,827,827,827,832,843,855,871,914,944,977,1029,1083,1196,1250,1297,1330,1349,1352,1341,1327,1310,1309,1305,1301,1299,1295,1292,1281,1274,1257,1245,1238,1227,1222,1218,1214,1204,1173,1160,1149],"ymouse":[577,577,577,577,577,577,577,577,577,574,555,539,510,490,470,445,441,440,440,440,440,440,440,440,440,440,434,423,414,403,377,357,334,288,239,98,19,0,0,0,0,0,0,0,0,0,0,0,1,7,20,25,29,30,32,34,36,37,38,42,46,47,49],"timestamp_mouse":[28,44,56,77,98,116,136,156,178,197,216,237,258,277,298,317,337,357,376,396,417,438,457,476,497,516,537,557,578,596,618,636,656,677,697,717,737,758,777,798,817,837,857,876,897,917,937,958,977,998,1019,1036,1057,1078,1097,1117,1137,1156,1177,1197,1217,1237,1257],"xSR":741.5,"ySR":573.95,"xT1":424.9,"yT1":0,"xT2":1058.1,"yT2":0,"toosoon":0,"cond_shown":"Congruent","ratio_trial":300,"L_num":2,"L_den":20,"R_num":10,"R_den":25,"correct_side":2,"subjID":"JuanaIsabelaNeiraCorrea28","gender":"1","school":"4","age":"8"},{"start_time":1552327832740,"click_time":1552327833608,"finger_time":1552327833247,"fix_duration":250,"trial":47,"RT":507,"MT":361,"sideResp":1,"stimulus":[],"xmouse":[760,760,760,760,760,760,760,760,760,760,760,760,760,760,760,760,760,760,760,760,760,760,760,756,752,741,733,727,721,710,679,662,646,630,609,546,520,499,480,473,463,459,455,453],"ymouse":[617,617,617,617,617,617,617,617,617,617,617,617,617,617,617,617,617,617,617,617,617,617,607,596,580,552,534,522,509,495,471,461,447,426,397,320,291,260,226,206,154,127,101,80],"timestamp_mouse":[12,36,47,68,86,108,128,148,167,187,207,228,248,267,286,308,328,346,367,387,407,427,447,467,486,507,526,547,566,588,607,628,647,667,687,707,727,748,766,787,806,827,847,868],"xSR":741.5,"ySR":573.95,"xT1":424.9,"yT1":0,"xT2":1058.1,"yT2":0,"toosoon":0,"cond_shown":"Congruent","ratio_trial":100,"L_num":15,"L_den":25,"R_num":13,"R_den":26,"correct_side":1,"subjID":"JuanaIsabelaNeiraCorrea28","gender":"1","school":"4","age":"8"},{"start_time":1552327835926,"click_time":1552327836827,"finger_time":1552327836127,"fix_duration":1017.3533316543546,"trial":48,"RT":201,"MT":700,"sideResp":2,"stimulus":[],"xmouse":[769,769,769,769,769,773,798,813,825,839,842,845,847,849,851,852,856,859,862,864,866,868,869,870,872,878,894,899,904,918,934,968,981,988,989,992,995,995,995,999,1012,1023,1031,1039,1052,1072],"ymouse":[629,629,629,629,629,629,629,629,629,629,629,629,629,627,625,622,617,607,598,587,574,536,513,488,463,432,372,342,306,242,182,70,17,0,0,0,0,0,0,0,7,11,15,21,30,44],"timestamp_mouse":[15,31,47,61,81,102,121,141,161,181,201,221,241,262,282,302,321,341,362,382,401,421,441,461,482,501,521,541,562,582,601,621,642,662,682,702,722,741,761,781,802,822,841,861,881,901],"xSR":741.5,"ySR":573.95,"xT1":424.9,"yT1":0,"xT2":1058.1,"yT2":0,"toosoon":0,"cond_shown":"Congruent","ratio_trial":100,"L_num":1,"L_den":2,"R_num":18,"R_den":30,"correct_side":2,"subjID":"JuanaIsabelaNeiraCorrea28","gender":"1","school":"4","age":"8"},{"start_time":1552327838568,"click_time":1552327839668,"finger_time":1552327838667,"fix_duration":359.7676483600144,"trial":49,"RT":99,"MT":1001,"sideResp":2,"stimulus":[],"xmouse":[804,804,805,805,817,821,824,826,826,826,826,826,826,826,826,826,826,828,831,845,855,867,880,896,929,941,953,971,980,994,999,1003,1009,1013,1019,1021,1022,1024,1025,1025,1025,1025,1025,1025,1025,1025,1025,1025,1025,1025,1025,1025,1025,1030,1054,1095],"ymouse":[615,613,609,609,581,567,552,536,533,532,532,532,532,532,532,532,532,531,526,510,496,483,465,443,392,370,349,318,302,274,263,251,239,230,217,213,210,208,207,206,206,206,206,206,206,206,206,206,206,206,206,206,206,200,112,21],"timestamp_mouse":[1,20,46,60,79,99,119,140,159,181,199,219,240,259,280,299,319,340,360,379,399,420,439,460,479,500,520,539,559,579,599,619,639,659,679,700,720,739,760,779,799,819,839,860,879,900,919,939,960,979,999,1020,1039,1060,1079,1100],"xSR":741.5,"ySR":573.95,"xT1":424.9,"yT1":0,"xT2":1058.1,"yT2":0,"toosoon":0,"cond_shown":"Incongruent","ratio_trial":100,"L_num":12,"L_den":24,"R_num":9,"R_den":15,"correct_side":2,"subjID":"JuanaIsabelaNeiraCorrea28","gender":"1","school":"4","age":"8"},{"start_time":1552327843531,"click_time":1552327844608,"finger_time":1552327843947,"fix_duration":1282.0074479455413,"trial":50,"RT":416,"MT":661,"sideResp":2,"stimulus":[],"xmouse":[770,770,770,770,770,770,770,770,770,770,770,770,770,770,770,770,770,770,776,782,794,802,807,813,818,828,833,837,846,853,874,892,915,940,969,1035,1071,1100,1130,1145,1156,1158,1159,1161,1163,1168,1171,1171,1170,1165,1159,1159,1158,1153],"ymouse":[645,645,645,645,645,645,645,645,645,645,645,645,645,645,645,645,645,645,632,609,564,542,521,503,487,458,448,440,429,422,406,395,378,360,338,277,241,209,166,145,114,107,96,85,71,37,17,0,0,0,0,0,0,6],"timestamp_mouse":[27,37,56,76,97,116,137,156,177,196,216,236,257,276,297,317,337,357,376,397,416,436,457,477,496,516,537,557,577,596,616,637,656,677,698,716,736,756,776,797,816,837,856,876,897,917,936,956,976,996,1020,1036,1056,1077],"xSR":741.5,"ySR":573.95,"xT1":424.9,"yT1":0,"xT2":1058.1,"yT2":0,"toosoon":0,"cond_shown":"Congruent","ratio_trial":200,"L_num":1,"L_den":2,"R_num":21,"R_den":30,"correct_side":2,"subjID":"JuanaIsabelaNeiraCorrea28","gender":"1","school":"4","age":"8"},{"start_time":1552327846219,"click_time":1552327847367,"finger_time":1552327846707,"fix_duration":250,"trial":51,"RT":488,"MT":660,"sideResp":2,"stimulus":[],"xmouse":[811,811,811,811,808,807,805,804,804,804,804,804,804,804,806,806,806,806,807,807,809,809,811,812,819,826,841,849,856,859,864,868,869,870,870,870,870,873,878,884,897,916,968,1021,1062,1104,1168,1185,1196,1203,1206,1207,1205,1203,1200,1192,1164,1149],"ymouse":[617,617,617,617,616,614,608,606,606,606,606,606,606,605,605,605,605,605,605,605,604,600,589,583,558,536,483,454,428,407,391,374,369,367,365,365,365,362,357,351,342,329,288,241,203,159,59,19,0,0,0,0,0,0,0,0,3,9],"timestamp_mouse":[12,28,48,68,88,108,128,149,168,188,208,228,248,269,289,309,329,348,368,388,408,428,448,469,488,509,528,548,568,588,609,628,649,669,688,709,728,748,768,788,809,828,849,868,888,909,928,948,968,988,1009,1030,1048,1068,1089,1109,1129,1148],"xSR":741.5,"ySR":573.95,"xT1":424.9,"yT1":0,"xT2":1058.1,"yT2":0,"toosoon":0,"cond_shown":"Congruent","ratio_trial":200,"L_num":6,"L_den":20,"R_num":11,"R_den":22,"correct_side":2,"subjID":"JuanaIsabelaNeiraCorrea28","gender":"1","school":"4","age":"8"},{"start_time":1552327850317,"click_time":1552327851148,"finger_time":1552327850647,"fix_duration":1429.7937241007169,"trial":52,"RT":330,"MT":501,"sideResp":2,"stimulus":[],"xmouse":[769,770,771,771,772,772,772,773,773,774,774,774,774,778,788,804,840,860,894,921,950,1002,1022,1042,1058,1073,1097,1114,1124,1131,1134,1134,1133,1131,1129,1127,1125,1123,1121,1118,1117,1117],"ymouse":[601,600,599,597,597,596,596,596,596,595,595,595,595,594,590,585,566,553,528,507,481,442,427,412,399,384,349,321,302,283,271,252,239,225,212,197,164,149,135,117,108,95],"timestamp_mouse":[22,37,50,70,91,110,130,150,170,191,211,231,250,270,291,311,330,350,370,390,412,431,451,470,490,510,530,550,570,591,611,630,650,670,691,711,730,751,771,790,811,831],"xSR":741.5,"ySR":573.95,"xT1":424.9,"yT1":0,"xT2":1058.1,"yT2":0,"toosoon":0,"cond_shown":"Congruent","ratio_trial":200,"L_num":3,"L_den":10,"R_num":7,"R_den":14,"correct_side":2,"subjID":"JuanaIsabelaNeiraCorrea28","gender":"1","school":"4","age":"8"},{"start_time":1552327854066,"click_time":1552327854929,"finger_time":1552327854467,"fix_duration":417.0412247178321,"trial":53,"RT":401,"MT":462,"sideResp":1,"stimulus":[],"xmouse":[812,812,812,812,812,812,812,812,812,812,812,812,812,812,812,812,812,812,812,814,816,818,824,830,847,858,864,864,864,857,855,854,854,854,852,850,845,836,819,760,706,633,505,425],"ymouse":[585,585,585,585,585,585,585,585,585,585,585,585,585,585,585,585,585,585,585,582,573,569,550,531,468,412,361,325,300,280,278,276,276,275,265,259,250,242,232,202,177,146,107,77],"timestamp_mouse":[10,35,41,62,81,101,122,142,162,181,201,223,242,262,281,301,321,341,362,381,401,421,441,461,481,501,521,542,562,581,601,622,642,662,681,701,721,741,762,781,802,822,842,862],"xSR":741.5,"ySR":573.95,"xT1":424.9,"yT1":0,"xT2":1058.1,"yT2":0,"toosoon":0,"cond_shown":"Incongruent","ratio_trial":300,"L_num":13,"L_den":26,"R_num":12,"R_den":15,"correct_side":2,"subjID":"JuanaIsabelaNeiraCorrea28","gender":"1","school":"4","age":"8"},{"start_time":1552327857697,"click_time":1552327858607,"finger_time":1552327858147,"fix_duration":1026.268799828605,"trial":54,"RT":450,"MT":460,"sideResp":2,"stimulus":[],"xmouse":[791,791,791,791,791,791,791,791,791,791,791,791,791,791,791,791,791,791,791,798,802,821,847,865,887,905,921,948,959,972,975,988,999,1002,1004,1007,1009,1011,1012,1013,1016,1020,1043,1052,1058,1065],"ymouse":[649,649,649,649,649,649,649,649,649,649,649,649,649,649,649,649,649,649,649,633,624,594,544,508,459,402,344,246,208,162,150,108,66,51,41,32,27,23,21,18,15,13,5,4,3,6],"timestamp_mouse":[11,30,50,71,91,111,130,150,170,191,210,231,251,271,291,311,331,350,370,390,411,431,450,471,490,510,531,550,570,591,611,630,650,670,691,710,730,750,770,790,811,831,850,870,890,910],"xSR":741.5,"ySR":573.95,"xT1":424.9,"yT1":0,"xT2":1058.1,"yT2":0,"toosoon":0,"cond_shown":"Incongruent","ratio_trial":300,"L_num":13,"L_den":26,"R_num":12,"R_den":15,"correct_side":2,"subjID":"JuanaIsabelaNeiraCorrea28","gender":"1","school":"4","age":"8"},{"start_time":1552327860350,"click_time":1552327861507,"finger_time":1552327860747,"fix_duration":820.0311166983377,"trial":55,"RT":397,"MT":760,"sideResp":2,"stimulus":[],"xmouse":[796,796,796,796,796,796,796,796,796,796,796,796,797,798,803,809,817,827,833,844,854,863,871,879,891,896,902,906,911,916,918,920,922,926,937,947,951,963,973,990,998,1003,1008,1012,1019,1023,1028,1030,1032,1038,1040,1043,1047,1054,1065,1071,1073,1077],"ymouse":[617,617,617,617,617,617,617,617,617,617,617,618,618,618,616,611,606,598,593,580,568,555,542,525,494,479,455,441,427,408,401,394,388,378,355,331,322,290,269,229,214,206,199,191,182,179,174,172,168,161,156,150,142,132,113,103,100,93],"timestamp_mouse":[17,38,58,77,98,117,137,157,177,197,217,238,258,277,297,318,337,357,378,397,418,437,458,478,497,517,537,557,578,598,617,638,657,677,697,717,738,758,777,797,817,837,857,877,897,917,938,957,977,997,1017,1037,1058,1077,1097,1118,1138,1157],"xSR":741.5,"ySR":573.95,"xT1":424.9,"yT1":0,"xT2":1058.1,"yT2":0,"toosoon":0,"cond_shown":"Congruent","ratio_trial":200,"L_num":3,"L_den":10,"R_num":7,"R_den":14,"correct_side":2,"subjID":"JuanaIsabelaNeiraCorrea28","gender":"1","school":"4","age":"8"},{"start_time":1552327866279,"click_time":1552327872047,"finger_time":1552327867108,"fix_duration":567.9469627050821,"trial":56,"RT":829,"MT":4939,"sideResp":2,"stimulus":[],"xmouse":[789,789,789,789,789,789,789,789,789,789,789,790,792,793,793,794,795,796,796,796,797,797,797,797,797,797,797,797,797,797,797,797,797,797,797,797,797,797,797,797,800,803,808,814,825,829,831,832,832,833,835,839,841,842,842,842,841,837,829,824,824,821,819,815,814,812,811,809,806,804,803,803,803,803,803,803,803,803,803,803,803,803,803,803,803,803,802,802,802,802,802,802,802,802,802,802,802,799,796,795,792,792,792,792,792,792,792,792,792,792,792,792,792,791,789,788,787,787,787,787,785,779,767,763,763,763,762,761,752,744,739,739,739,739,739,739,739,739,739,739,743,748,756,772,780,785,785,787,787,787,787,790,791,792,792,792,792,792,792,792,792,792,792,787,780,774,767,760,751,750,749,749,749,749,748,747,745,744,744,744,744,744,744,742,734,727,719,713,706,706,706,706,706,706,706,706,705,705,696,689,687,685,685,685,685,685,686,686,689,691,695,701,702,702,702,702,703,704,714,726,751,770,790,819,823,824,824,824,824,824,824,824,824,824,824,824,824,823,818,816,815,815,815,815,815,815,815,815,814,813,811,809,808,808,808,808,808,809,811,814,815,820,825,838,846,862,879,901,935,949,963,991,1007,1033,1045,1055,1064,1074,1093,1100,1104,1108,1109,1111,1112,1112,1112,1112,1112],"ymouse":[620,620,620,620,620,620,620,620,620,620,620,621,621,621,621,621,622,623,629,632,637,639,641,644,646,649,654,656,660,660,660,660,660,657,642,634,627,620,606,595,576,557,536,516,481,471,465,463,460,458,453,449,447,447,447,450,462,475,500,521,525,541,551,564,569,576,582,589,600,605,606,607,607,607,607,607,607,607,607,607,607,607,607,607,607,607,610,614,619,620,620,620,620,620,620,620,620,620,620,620,620,620,620,620,620,620,620,620,620,620,620,620,620,620,620,621,621,621,621,621,623,631,643,650,651,651,651,653,667,675,681,681,681,681,681,681,681,681,681,680,665,643,614,519,467,419,373,333,273,253,238,224,220,219,219,219,219,219,219,219,219,216,211,185,164,141,114,80,19,0,0,0,0,0,0,0,1,2,2,2,2,2,2,5,24,42,64,89,133,157,168,180,194,227,248,275,308,344,416,463,489,510,524,540,546,551,553,557,569,577,587,597,599,599,599,599,600,600,600,600,599,594,589,576,573,573,573,573,573,573,573,573,573,573,573,573,573,578,589,597,598,599,599,599,599,599,599,599,599,593,588,580,574,557,550,544,536,531,525,519,517,510,503,478,461,426,378,336,283,272,260,248,241,228,220,213,205,199,185,178,174,166,159,143,134,125,114,102,84],"timestamp_mouse":[13,31,48,69,88,108,129,149,168,188,208,228,248,268,288,309,328,348,368,389,408,428,448,468,488,509,529,549,568,590,609,628,648,668,688,708,729,749,768,788,808,829,849,868,888,908,928,949,968,990,1008,1028,1049,1068,1089,1109,1129,1149,1168,1188,1208,1228,1249,1268,1289,1309,1328,1349,1368,1389,1408,1429,1449,1468,1489,1509,1529,1548,1569,1589,1608,1628,1648,1668,1689,1708,1728,1748,1769,1789,1810,1829,1848,1868,1889,1908,1927,1949,1968,1989,2008,2030,2049,2068,2089,2108,2128,2149,2169,2189,2208,2230,2249,2268,2288,2309,2328,2349,2368,2388,2408,2428,2449,2468,2489,2508,2528,2549,2568,258