[{"start_time":1552309666789,"click_time":1552309668578,"finger_time":1552309667717,"fix_duration":1003.4290151569801,"trial":0,"RT":928,"MT":861,"sideResp":2,"stimulus":"img/250/randomdotsizeEA/R/4_Ratio_250_L_3_R_12.png","xmouse":[805,805,805,805,805,805,805,805,805,805,805,805,805,805,805,805,805,805,805,805,805,805,805,805,805,805,805,805,805,805,805,805,805,805,805,805,805,805,805,805,805,805,805,801,785,761,737,714,713,713,713,713,713,713,713,713,713,713,713,712,713,721,752,782,800,813,824,843,852,866,881,898,930,946,964,969,973,975,975,975,975,979,998,1008,1023,1032,1042,1062,1070,1080],"ymouse":[538,538,538,538,538,538,538,538,538,538,538,538,538,538,538,538,538,538,538,538,538,538,538,538,538,538,538,538,538,538,538,538,538,538,538,538,538,538,538,538,538,538,538,539,537,537,535,531,531,531,531,531,531,531,531,531,531,531,531,531,529,522,496,471,453,437,421,395,387,377,367,352,316,292,260,246,238,236,236,236,235,230,210,195,176,163,150,123,111,98],"timestamp_mouse":[10,36,48,67,88,109,129,148,168,188,208,229,249,269,288,309,329,349,369,388,408,429,449,468,489,508,528,549,569,589,607,628,649,668,688,708,729,749,769,788,809,829,848,868,888,908,928,948,969,988,1009,1029,1048,1068,1087,1109,1128,1148,1167,1187,1208,1228,1248,1268,1289,1309,1328,1347,1368,1388,1408,1428,1447,1469,1488,1508,1529,1549,1569,1588,1609,1627,1648,1668,1687,1708,1728,1747,1768,1789],"xSR":741.5,"ySR":501.8,"xT1":424.9,"yT1":0,"xT2":1058.1,"yT2":0,"toosoon":0,"cond_shown":"randomdotsizeEA","ratio_trial":250,"smaller_num":"3","larger_num":"12","correct_side":2,"subjID":"JUANANDRESLOPEZFLOREZ21","gender":"0","age":"9","school":"4","test":{"fix_dur":[250,1500],"timestim":300,"targets_dim":[100,100],"targets_relative_coord":[0.3,0.7],"size_stim":[880,420],"start_dim":[100,100],"size_start":[300,300],"size_fix":60,"samplingrate":20,"img_types":["equaldotsize","equaldotanddens","randomdotsizeEA"],"ratios":[250,500,750,900],"rep_conds":9,"nTrials":120,"trials_to_rest":500,"Trials_order":[62,113,31,97,71,2,78,108,88,44,79,82,21,99,24,90,57,76,109,17,1,107,102,4,13,95,33,5,6,60,15,28,58,104,111,38,59,37,0,29,106,14,72,11,83,55,110,81,68,91,43,103,56,12,46,52,27,69,116,47,74,67,100,19,61,23,112,117,26,87,84,94,96,64,32,22,25,45,7,35,63,39,9,30,77,3,54,70,18,98,75,118,34,105,92,115,42,85,114,101,73,89,80,10,20,50,41,16,119,49,40,86,53,36,66,51,93,8,65,48],"cond_shown":["randomdotsizeEA","randomdotsizeEA","equaldotanddens","equaldotanddens","randomdotsizeEA","randomdotsizeEA","equaldotsize","equaldotsize","equaldotanddens","randomdotsizeEA","equaldotanddens","equaldotanddens","equaldotsize","equaldotsize","equaldotsize","equaldotsize","equaldotsize","equaldotanddens","equaldotanddens","randomdotsizeEA","equaldotanddens","randomdotsizeEA","equaldotsize","equaldotanddens","equaldotanddens","randomdotsizeEA","equaldotsize","randomdotsizeEA","equaldotsize","equaldotsize","equaldotsize","equaldotanddens","equaldotanddens","randomdotsizeEA","equaldotsize","randomdotsizeEA","randomdotsizeEA","equaldotanddens","equaldotsize","randomdotsizeEA","equaldotanddens","randomdotsizeEA","equaldotsize","randomdotsizeEA","randomdotsizeEA","equaldotanddens","randomdotsizeEA","equaldotsize","randomdotsizeEA","equaldotanddens","equaldotanddens","equaldotanddens","randomdotsizeEA","equaldotsize","equaldotanddens","equaldotanddens","equaldotsize","equaldotsize","randomdotsizeEA","randomdotsizeEA","randomdotsizeEA","equaldotanddens","equaldotanddens","equaldotanddens","equaldotanddens","randomdotsizeEA","equaldotanddens","equaldotsize","randomdotsizeEA","equaldotsize","equaldotsize","equaldotanddens","equaldotsize","equaldotanddens","randomdotsizeEA","equaldotanddens","equaldotanddens","equaldotsize","equaldotanddens","randomdotsizeEA","equaldotsize","equaldotsize","equaldotsize","equaldotsize","randomdotsizeEA","equaldotsize","equaldotsize","equaldotanddens","equaldotsize","randomdotsizeEA","equaldotsize","equaldotanddens","equaldotanddens","equaldotsize","randomdotsizeEA","equaldotanddens","equaldotsize","equaldotanddens","equaldotsize","randomdotsizeEA","equaldotanddens","randomdotsizeEA","randomdotsizeEA","equaldotanddens","randomdotsizeEA","randomdotsizeEA","randomdotsizeEA","equaldotanddens","randomdotsizeEA","equaldotanddens","equaldotanddens","randomdotsizeEA","randomdotsizeEA","equaldotsize","equaldotsize","equaldotsize","equaldotsize","randomdotsizeEA","randomdotsizeEA","equaldotsize"],"ratio_trial":[250,500,750,250,900,250,750,250,500,750,750,900,900,500,250,750,900,500,250,500,250,900,750,500,250,900,900,500,750,250,500,500,900,750,500,250,900,250,250,500,900,250,250,900,900,750,250,900,750,750,750,750,750,250,900,500,500,900,750,900,250,750,500,750,250,900,500,900,250,500,250,900,250,500,750,900,250,900,750,900,500,500,900,750,500,500,750,900,750,250,500,900,900,900,750,750,750,250,750,500,250,500,750,900,750,250,500,500,900,250,500,250,500,250,750,500,900,750,500,250],"smaller_num":["3","5","6","3","18","3","3","4","1","18","12","18","18","3","3","3","18","2","2","9","4","9","12","1","2","9","9","2","18","4","9","3","18","3","3","6","9","5","6","3","18","2","3","9","18","18","6","9","12","15","12","3","18","2","9","9","9","18","6","9","3","15","10","6","2","18","6","18","2","2","2","9","2","2","15","18","2","9","15","18","1","9","9","3","1","5","6","18","15","6","2","9","9","18","18","15","3","3","15","2","3","5","12","18","6","3","2","1","18","3","4","3","6","6","12","2","9","9","6","4"],"larger_num":["12","10","8","12","20","12","4","16","2","24","16","20","20","6","12","4","20","4","8","18","16","10","16","2","8","10","10","4","24","16","18","6","20","4","6","24","10","20","24","6","20","8","12","10","20","24","24","10","16","20","16","4","24","8","10","18","18","20","8","10","12","20","20","8","8","20","12","20","8","4","8","10","8","4","20","20","8","10","20","20","2","18","10","4","2","10","8","20","20","24","4","10","10","20","24","20","4","12","20","4","12","10","16","20","8","12","4","2","20","12","8","12","12","24","16","4","10","12","12","16"],"correct_side":[2,2,1,1,1,2,2,2,2,1,2,2,1,2,2,2,2,1,2,1,1,2,2,2,1,1,1,2,1,2,1,2,1,1,2,1,2,2,1,2,1,2,1,2,1,1,2,2,2,1,2,2,1,1,2,2,2,1,1,2,1,2,2,1,1,1,1,1,1,1,1,2,1,1,1,1,2,2,2,1,2,1,2,1,2,1,2,1,2,1,1,2,1,1,1,1,1,1,2,1,1,1,2,2,2,2,1,2,1,1,1,2,1,2,2,1,1,2,1,1],"img_shown":["img/250/randomdotsizeEA/R/4_Ratio_250_L_3_R_12.png","img/500/randomdotsizeEA/R/14_Ratio_500_L_5_R_10.png","img/750/equaldotanddens/L/13_Ratio_750_L_8_R_6.png","img/250/equaldotanddens/L/14_Ratio_250_L_12_R_3.png","img/900/randomdotsizeEA/L/4_Ratio_900_L_20_R_18.png","img/250/randomdotsizeEA/R/4_Ratio_250_L_3_R_12.png","img/750/equaldotsize/R/7_Ratio_750_L_3_R_4.png","img/250/equaldotsize/R/10_Ratio_250_L_4_R_16.png","img/500/equaldotanddens/R/12_Ratio_500_L_1_R_2.png","img/750/randomdotsizeEA/L/6_Ratio_750_L_24_R_18.png","img/750/equaldotanddens/R/11_Ratio_750_L_12_R_16.png","img/900/equaldotanddens/R/12_Ratio_900_L_18_R_20.png","img/900/equaldotsize/L/8_Ratio_900_L_20_R_18.png","img/500/equaldotsize/R/2_Ratio_500_L_3_R_6.png","img/250/equaldotsize/R/9_Ratio_250_L_3_R_12.png","img/750/equaldotsize/R/12_Ratio_750_L_3_R_4.png","img/900/equaldotsize/R/11_Ratio_900_L_18_R_20.png","img/500/equaldotanddens/L/10_Ratio_500_L_4_R_2.png","img/250/equaldotanddens/R/13_Ratio_250_L_2_R_8.png","img/500/randomdotsizeEA/L/4_Ratio_500_L_18_R_9.png","img/250/equaldotanddens/L/2_Ratio_250_L_16_R_4.png","img/900/randomdotsizeEA/R/3_Ratio_900_L_9_R_10.png","img/750/equaldotsize/R/11_Ratio_750_L_12_R_16.png","img/500/equaldotanddens/R/12_Ratio_500_L_1_R_2.png","img/250/equaldotanddens/L/7_Ratio_250_L_8_R_2.png","img/900/randomdotsizeEA/L/1_Ratio_900_L_10_R_9.png","img/900/equaldotsize/L/1_Ratio_900_L_10_R_9.png","img/500/randomdotsizeEA/R/9_Ratio_500_L_2_R_4.png","img/750/equaldotsize/L/6_Ratio_750_L_24_R_18.png","img/250/equaldotsize/R/10_Ratio_250_L_4_R_16.png","img/500/equaldotsize/L/4_Ratio_500_L_18_R_9.png","img/500/equaldotanddens/R/2_Ratio_500_L_3_R_6.png","img/900/equaldotanddens/L/2_Ratio_900_L_20_R_18.png","img/750/randomdotsizeEA/L/10_Ratio_750_L_4_R_3.png","img/500/equaldotsize/R/2_Ratio_500_L_3_R_6.png","img/250/randomdotsizeEA/L/5_Ratio_250_L_24_R_6.png","img/900/randomdotsizeEA/R/6_Ratio_900_L_9_R_10.png","img/250/equaldotanddens/R/12_Ratio_250_L_5_R_20.png","img/250/equaldotsize/L/5_Ratio_250_L_24_R_6.png","img/500/randomdotsizeEA/R/2_Ratio_500_L_3_R_6.png","img/900/equaldotanddens/L/10_Ratio_900_L_20_R_18.png","img/250/randomdotsizeEA/R/13_Ratio_250_L_2_R_8.png","img/250/equaldotsize/L/14_Ratio_250_L_12_R_3.png","img/900/randomdotsizeEA/R/15_Ratio_900_L_9_R_10.png","img/900/randomdotsizeEA/L/10_Ratio_900_L_20_R_18.png","img/750/equaldotanddens/L/6_Ratio_750_L_24_R_18.png","img/250/randomdotsizeEA/R/6_Ratio_250_L_6_R_24.png","img/900/equaldotsize/R/6_Ratio_900_L_9_R_10.png","img/750/randomdotsizeEA/R/11_Ratio_750_L_12_R_16.png","img/750/equaldotanddens/L/1_Ratio_750_L_20_R_15.png","img/750/equaldotanddens/R/11_Ratio_750_L_12_R_16.png","img/750/equaldotanddens/R/12_Ratio_750_L_3_R_4.png","img/750/randomdotsizeEA/L/6_Ratio_750_L_24_R_18.png","img/250/equaldotsize/L/3_Ratio_250_L_8_R_2.png","img/900/equaldotanddens/R/15_Ratio_900_L_9_R_10.png","img/500/equaldotanddens/R/1_Ratio_500_L_9_R_18.png","img/500/equaldotsize/R/1_Ratio_500_L_9_R_18.png","img/900/equaldotsize/L/2_Ratio_900_L_20_R_18.png","img/750/randomdotsizeEA/L/13_Ratio_750_L_8_R_6.png","img/900/randomdotsizeEA/R/6_Ratio_900_L_9_R_10.png","img/250/randomdotsizeEA/L/15_Ratio_250_L_12_R_3.png","img/750/equaldotanddens/R/3_Ratio_750_L_15_R_20.png","img/500/equaldotanddens/R/3_Ratio_500_L_10_R_20.png","img/750/equaldotanddens/L/13_Ratio_750_L_8_R_6.png","img/250/equaldotanddens/L/7_Ratio_250_L_8_R_2.png","img/900/randomdotsizeEA/L/4_Ratio_900_L_20_R_18.png","img/500/equaldotanddens/L/13_Ratio_500_L_12_R_6.png","img/900/equaldotsize/L/8_Ratio_900_L_20_R_18.png","img/250/randomdotsizeEA/L/1_Ratio_250_L_8_R_2.png","img/500/equaldotsize/L/10_Ratio_500_L_4_R_2.png","img/250/equaldotsize/L/3_Ratio_250_L_8_R_2.png","img/900/equaldotanddens/R/15_Ratio_900_L_9_R_10.png","img/250/equaldotsize/L/7_Ratio_250_L_8_R_2.png","img/500/equaldotanddens/L/10_Ratio_500_L_4_R_2.png","img/750/randomdotsizeEA/L/1_Ratio_750_L_20_R_15.png","img/900/equaldotanddens/L/10_Ratio_900_L_20_R_18.png","img/250/equaldotanddens/R/13_Ratio_250_L_2_R_8.png","img/900/equaldotsize/R/7_Ratio_900_L_9_R_10.png","img/750/equaldotanddens/R/5_Ratio_750_L_15_R_20.png","img/900/randomdotsizeEA/L/4_Ratio_900_L_20_R_18.png","img/500/equaldotsize/R/15_Ratio_500_L_1_R_2.png","img/500/equaldotsize/L/4_Ratio_500_L_18_R_9.png","img/900/equaldotsize/R/7_Ratio_900_L_9_R_10.png","img/750/equaldotsize/L/8_Ratio_750_L_4_R_3.png","img/500/randomdotsizeEA/R/15_Ratio_500_L_1_R_2.png","img/500/equaldotsize/L/7_Ratio_500_L_10_R_5.png","img/750/equaldotsize/R/2_Ratio_750_L_6_R_8.png","img/900/equaldotanddens/L/2_Ratio_900_L_20_R_18.png","img/750/equaldotsize/R/4_Ratio_750_L_15_R_20.png","img/250/randomdotsizeEA/L/5_Ratio_250_L_24_R_6.png","img/500/equaldotsize/L/5_Ratio_500_L_4_R_2.png","img/900/equaldotanddens/R/7_Ratio_900_L_9_R_10.png","img/900/equaldotanddens/L/1_Ratio_900_L_10_R_9.png","img/900/equaldotsize/L/10_Ratio_900_L_20_R_18.png","img/750/randomdotsizeEA/L/6_Ratio_750_L_24_R_18.png","img/750/equaldotanddens/L/1_Ratio_750_L_20_R_15.png","img/750/equaldotsize/L/9_Ratio_750_L_4_R_3.png","img/250/equaldotanddens/L/14_Ratio_250_L_12_R_3.png","img/750/equaldotsize/R/4_Ratio_750_L_15_R_20.png","img/500/randomdotsizeEA/L/5_Ratio_500_L_4_R_2.png","img/250/equaldotanddens/L/15_Ratio_250_L_12_R_3.png","img/500/randomdotsizeEA/L/7_Ratio_500_L_10_R_5.png","img/750/randomdotsizeEA/R/11_Ratio_750_L_12_R_16.png","img/900/equaldotanddens/R/14_Ratio_900_L_18_R_20.png","img/750/randomdotsizeEA/R/2_Ratio_750_L_6_R_8.png","img/250/randomdotsizeEA/R/11_Ratio_250_L_3_R_12.png","img/500/randomdotsizeEA/L/5_Ratio_500_L_4_R_2.png","img/500/equaldotanddens/R/15_Ratio_500_L_1_R_2.png","img/900/randomdotsizeEA/L/10_Ratio_900_L_20_R_18.png","img/250/equaldotanddens/L/14_Ratio_250_L_12_R_3.png","img/500/equaldotanddens/L/8_Ratio_500_L_8_R_4.png","img/250/randomdotsizeEA/R/4_Ratio_250_L_3_R_12.png","img/500/randomdotsizeEA/L/11_Ratio_500_L_12_R_6.png","img/250/equaldotsize/R/6_Ratio_250_L_6_R_24.png","img/750/equaldotsize/R/11_Ratio_750_L_12_R_16.png","img/500/equaldotsize/L/10_Ratio_500_L_4_R_2.png","img/900/equaldotsize/L/1_Ratio_900_L_10_R_9.png","img/750/randomdotsizeEA/R/15_Ratio_750_L_9_R_12.png","img/500/randomdotsizeEA/L/11_Ratio_500_L_12_R_6.png","img/250/equaldotsize/L/2_Ratio_250_L_16_R_4.png"],"Rat0":[["12_Ratio_0_L_9_R_0.png","13_Ratio_0_L_6_R_0.png","5_Ratio_0_L_2_R_0.png","6_Ratio_0_L_4_R_0.png","8_Ratio_0_L_6_R_0.png"],["1_Ratio_0_L_0_R_17.png","10_Ratio_0_L_0_R_22.png","11_Ratio_0_L_0_R_1.png","14_Ratio_0_L_0_R_24.png","15_Ratio_0_L_0_R_4.png","2_Ratio_0_L_0_R_5.png","3_Ratio_0_L_0_R_17.png","4_Ratio_0_L_0_R_7.png","7_Ratio_0_L_0_R_19.png","9_Ratio_0_L_0_R_15.png"]],"Rat250":[["1_Ratio_250_L_8_R_2.png","14_Ratio_250_L_12_R_3.png","15_Ratio_250_L_12_R_3.png","2_Ratio_250_L_16_R_4.png","3_Ratio_250_L_8_R_2.png","5_Ratio_250_L_24_R_6.png","7_Ratio_250_L_8_R_2.png"],["10_Ratio_250_L_4_R_16.png","11_Ratio_250_L_3_R_12.png","12_Ratio_250_L_5_R_20.png","13_Ratio_250_L_2_R_8.png","4_Ratio_250_L_3_R_12.png","6_Ratio_250_L_6_R_24.png","8_Ratio_250_L_1_R_4.png","9_Ratio_250_L_3_R_12.png"]],"Rat500":[["10_Ratio_500_L_4_R_2.png","11_Ratio_500_L_12_R_6.png","13_Ratio_500_L_12_R_6.png","4_Ratio_500_L_18_R_9.png","5_Ratio_500_L_4_R_2.png","7_Ratio_500_L_10_R_5.png","8_Ratio_500_L_8_R_4.png"],["1_Ratio_500_L_9_R_18.png","12_Ratio_500_L_1_R_2.png","14_Ratio_500_L_5_R_10.png","15_Ratio_500_L_1_R_2.png","2_Ratio_500_L_3_R_6.png","3_Ratio_500_L_10_R_20.png","6_Ratio_500_L_9_R_18.png","9_Ratio_500_L_2_R_4.png"]],"Rat750":[["1_Ratio_750_L_20_R_15.png","10_Ratio_750_L_4_R_3.png","13_Ratio_750_L_8_R_6.png","14_Ratio_750_L_8_R_6.png","6_Ratio_750_L_24_R_18.png","8_Ratio_750_L_4_R_3.png","9_Ratio_750_L_4_R_3.png"],["11_Ratio_750_L_12_R_16.png","12_Ratio_750_L_3_R_4.png","15_Ratio_750_L_9_R_12.png","2_Ratio_750_L_6_R_8.png","3_Ratio_750_L_15_R_20.png","4_Ratio_750_L_15_R_20.png","5_Ratio_750_L_15_R_20.png","7_Ratio_750_L_3_R_4.png"]],"Rat900":[["1_Ratio_900_L_10_R_9.png","10_Ratio_900_L_20_R_18.png","2_Ratio_900_L_20_R_18.png","4_Ratio_900_L_20_R_18.png","8_Ratio_900_L_20_R_18.png"],["11_Ratio_900_L_18_R_20.png","12_Ratio_900_L_18_R_20.png","13_Ratio_900_L_18_R_20.png","14_Ratio_900_L_18_R_20.png","15_Ratio_900_L_9_R_10.png","3_Ratio_900_L_9_R_10.png","5_Ratio_900_L_9_R_10.png","6_Ratio_900_L_9_R_10.png","7_Ratio_900_L_9_R_10.png","9_Ratio_900_L_18_R_20.png"]],"Rat1000":[["10_Ratio_1000_L_16_R_16.png","11_Ratio_1000_L_6_R_6.png","12_Ratio_1000_L_14_R_14.png","13_Ratio_1000_L_20_R_20.png","15_Ratio_1000_L_15_R_15.png","2_Ratio_1000_L_17_R_17.png","4_Ratio_1000_L_9_R_9.png","5_Ratio_1000_L_6_R_6.png","6_Ratio_1000_L_19_R_19.png","8_Ratio_1000_L_14_R_14.png","9_Ratio_1000_L_25_R_25.png"],["1_Ratio_1000_L_1_R_1.png","14_Ratio_1000_L_17_R_17.png","3_Ratio_1000_L_17_R_17.png","7_Ratio_1000_L_6_R_6.png"]]}},{"start_time":1552309669989,"click_time":1552309671238,"finger_time":1552309670837,"fix_duration":250,"trial":1,"RT":848,"MT":401,"sideResp":1,"stimulus":"img/500/randomdotsizeEA/R/14_Ratio_500_L_5_R_10.png","xmouse":[790,790,790,791,792,792,792,793,793,793,793,793,793,793,793,793,793,793,793,793,793,793,793,793,793,793,793,793,793,793,793,793,793,793,793,793,793,793,794,790,773,744,684,664,643,621,604,593,578,577,576,576,569,565,557,549,540,518,510,501,495,491,485],"ymouse":[515,515,515,515,515,515,515,515,515,515,515,515,515,515,515,515,515,515,515,515,515,515,515,515,515,515,515,515,515,515,515,515,515,515,515,515,515,515,514,509,494,471,419,401,381,363,348,338,326,325,325,325,316,309,296,277,255,196,169,141,118,104,85],"timestamp_mouse":[10,28,60,68,88,108,128,148,168,188,209,229,249,269,289,308,329,349,369,387,409,429,449,467,488,509,529,548,569,589,609,628,649,668,689,708,728,749,768,788,808,828,848,867,888,908,928,948,968,988,1008,1029,1048,1067,1088,1108,1128,1148,1168,1188,1208,1229,1248],"xSR":741.5,"ySR":469.95,"xT1":424.9,"yT1":0,"xT2":1058.1,"yT2":0,"toosoon":0,"cond_shown":"randomdotsizeEA","ratio_trial":500,"smaller_num":"5","larger_num":"10","correct_side":2,"subjID":"JUANANDRESLOPEZFLOREZ21","gender":"0","age":"9","school":"4"},{"start_time":1552309673600,"click_time":1552309674859,"finger_time":1552309674238,"fix_duration":1301.7158129665763,"trial":2,"RT":638,"MT":621,"sideResp":1,"stimulus":"img/750/equaldotanddens/L/13_Ratio_750_L_8_R_6.png","xmouse":[775,775,775,775,775,775,775,775,775,775,775,775,775,775,775,775,775,775,775,775,775,775,775,775,775,775,775,775,774,771,762,741,719,686,649,595,537,537,537,537,537,537,537,537,537,537,537,537,537,537,537,537,537,537,537,537,537,537,537,537,537,537,473],"ymouse":[512,512,512,512,512,512,512,512,512,512,512,512,512,512,512,512,512,512,512,512,512,512,512,512,512,512,512,512,512,511,498,472,443,389,316,217,108,108,108,108,108,108,108,108,108,108,108,108,108,108,108,108,108,108,108,108,108,108,108,108,108,108,4],"timestamp_mouse":[23,38,57,76,96,118,138,157,176,197,218,238,257,278,297,318,337,357,376,398,418,438,457,478,497,517,537,558,577,597,617,638,656,677,697,717,738,757,777,797,817,838,857,877,898,917,938,957,977,997,1018,1037,1057,1076,1096,1116,1138,1157,1177,1198,1217,1239,1258],"xSR":741.5,"ySR":469.95,"xT1":424.9,"yT1":0,"xT2":1058.1,"yT2":0,"toosoon":0,"cond_shown":"equaldotanddens","ratio_trial":750,"smaller_num":"6","larger_num":"8","correct_side":1,"subjID":"JUANANDRESLOPEZFLOREZ21","gender":"0","age":"9","school":"4"},{"start_time":1552309676917,"click_time":1552309677957,"finger_time":1552309677497,"fix_duration":998.0906471981687,"trial":3,"RT":580,"MT":460,"sideResp":1,"stimulus":"img/250/equaldotanddens/L/14_Ratio_250_L_12_R_3.png","xmouse":[826,826,826,826,826,826,826,826,826,826,826,826,826,826,826,826,826,826,826,826,826,826,826,826,826,826,826,823,802,771,740,715,662,643,629,614,601,583,579,577,575,575,574,569,563,554,547,537,533,529,525,521,517],"ymouse":[501,501,501,501,501,501,501,501,501,501,501,501,501,501,501,501,501,501,501,501,501,501,501,501,501,501,501,496,474,448,417,393,344,325,305,286,267,233,224,217,212,211,204,194,181,166,154,138,132,126,119,112,92],"timestamp_mouse":[10,21,51,61,81,100,121,141,161,181,200,221,241,260,279,300,321,340,361,380,401,421,440,461,479,501,521,540,561,580,600,620,640,660,680,700,720,740,761,780,800,820,840,861,881,900,922,940,960,981,1000,1020,1040],"xSR":741.5,"ySR":469.95,"xT1":424.9,"yT1":0,"xT2":1058.1,"yT2":0,"toosoon":0,"cond_shown":"equaldotanddens","ratio_trial":250,"smaller_num":"3","larger_num":"12","correct_side":1,"subjID":"JUANANDRESLOPEZFLOREZ21","gender":"0","age":"9","school":"4"},{"start_time":1552309679741,"click_time":1552309680798,"finger_time":1552309680356,"fix_duration":803.3421617438767,"trial":4,"RT":615,"MT":442,"sideResp":1,"stimulus":"img/900/randomdotsizeEA/L/4_Ratio_900_L_20_R_18.png","xmouse":[750,750,750,750,750,750,750,750,750,750,750,750,750,750,750,750,751,752,753,753,754,754,754,754,754,754,754,754,749,742,722,712,697,683,669,647,638,632,625,614,590,573,555,538,523,497,486,479,478,475,468,455,451],"ymouse":[559,559,559,559,559,559,559,559,559,559,559,559,559,559,559,559,557,552,546,540,531,530,530,530,530,530,521,515,496,474,410,381,346,313,283,242,229,223,218,214,204,197,189,181,171,157,151,147,146,143,134,104,91],"timestamp_mouse":[16,35,66,76,96,117,137,156,177,196,217,236,257,276,296,316,336,356,376,396,415,436,457,476,495,516,535,556,577,595,615,635,656,677,696,717,735,756,776,796,817,837,856,877,896,917,935,956,977,997,1016,1037,1057],"xSR":741.5,"ySR":469.95,"xT1":424.9,"yT1":0,"xT2":1058.1,"yT2":0,"toosoon":0,"cond_shown":"randomdotsizeEA","ratio_trial":900,"smaller_num":"18","larger_num":"20","correct_side":1,"subjID":"JUANANDRESLOPEZFLOREZ21","gender":"0","age":"9","school":"4"},{"start_time":1552309685870,"click_time":1552309686737,"finger_time":1552309686457,"fix_duration":851.9133159403698,"trial":5,"RT":587,"MT":280,"sideResp":2,"stimulus":"img/250/randomdotsizeEA/R/4_Ratio_250_L_3_R_12.png","xmouse":[775,775,775,775,775,775,775,775,775,775,775,775,775,775,775,775,779,783,787,791,796,799,800,801,803,805,806,810,818,832,875,909,937,955,970,996,1007,1017,1026,1036,1077,1106,1131,1152],"ymouse":[509,509,509,509,509,509,509,509,509,509,509,509,509,509,509,509,506,502,498,493,488,485,484,483,482,481,479,477,471,459,420,382,350,330,308,286,279,273,266,252,195,154,120,76],"timestamp_mouse":[13,37,47,68,87,108,127,148,167,187,207,227,248,267,287,308,326,347,368,387,406,427,447,468,487,507,526,548,568,587,607,627,647,668,687,707,728,747,768,787,807,828,847,867],"xSR":741.5,"ySR":469.95,"xT1":424.9,"yT1":0,"xT2":1058.1,"yT2":0,"toosoon":0,"cond_shown":"randomdotsizeEA","ratio_trial":250,"smaller_num":"3","larger_num":"12","correct_side":2,"subjID":"JUANANDRESLOPEZFLOREZ21","gender":"0","age":"9","school":"4"},{"start_time":1552309690210,"click_time":1552309692338,"finger_time":1552309692338,"fix_duration":250,"trial":6,"RT":2128,"MT":0,"sideResp":2,"stimulus":"img/750/equaldotsize/R/7_Ratio_750_L_3_R_4.png","xmouse":[784,784,784,784,784,784,784,784,784,784,784,784,784,784,784,784,784,784,784,781,779,779,779,779,779,779,779,779,779,779,779,779,779,779,779,779,779,779,779,779,779,779,779,779,779,779,779,779,779,779,779,779,779,779,779,779,779,779,779,779,779,779,779,779,779,779,779,779,779,779,779,779,779,779,779,779,779,779,779,779,779,779,779,779,779,779,779,779,779,779,779,779,779,779,779,779,779,779,779,779,779,779,779,779,779,779,1082],"ymouse":[530,530,530,530,530,530,530,530,530,530,530,530,530,530,530,530,530,530,530,527,523,523,523,523,523,523,523,523,523,523,523,523,523,523,523,523,523,523,523,523,523,523,523,523,523,523,523,523,523,523,523,523,523,523,523,523,523,523,523,523,523,523,523,523,523,523,523,523,523,523,523,523,523,523,523,523,523,523,523,523,523,523,523,523,523,523,523,523,523,523,523,523,523,523,523,523,523,523,523,523,523,523,523,523,523,523,58],"timestamp_mouse":[9,26,47,66,87,108,127,148,167,186,208,228,248,267,286,307,327,347,367,386,407,427,448,467,488,507,528,547,567,586,608,628,647,666,688,707,727,747,767,787,808,827,847,867,888,907,927,946,968,987,1008,1026,1047,1067,1087,1107,1128,1146,1168,1188,1207,1227,1248,1267,1287,1307,1327,1347,1368,1387,1408,1427,1448,1467,1488,1507,1528,1547,1567,1588,1608,1627,1648,1667,1687,1707,1728,1747,1767,1787,1808,1827,1847,1868,1888,1908,1926,1947,1968,1988,2007,2026,2047,2068,2088,2107,2128],"xSR":741.5,"ySR":469.95,"xT1":424.9,"yT1":0,"xT2":1058.1,"yT2":0,"toosoon":0,"cond_shown":"equaldotsize","ratio_trial":750,"smaller_num":"3","larger_num":"4","correct_side":2,"subjID":"JUANANDRESLOPEZFLOREZ21","gender":"0","age":"9","school":"4"},{"start_time":1552309693849,"click_time":1552309695136,"finger_time":1552309695136,"fix_duration":250,"trial":7,"RT":1287,"MT":0,"sideResp":2,"stimulus":"img/250/equaldotsize/R/10_Ratio_250_L_4_R_16.png","xmouse":[840,840,840,840,840,840,840,840,840,840,840,839,839,839,839,839,839,839,839,839,839,839,839,839,839,839,839,839,839,839,839,839,839,839,839,839,839,839,839,839,839,839,839,839,839,839,839,839,839,839,839,839,839,839,839,839,839,839,839,839,839,839,839,839,1114],"ymouse":[481,481,481,481,481,481,481,481,481,481,481,482,482,482,482,482,482,482,482,482,482,482,482,475,475,475,475,475,475,475,475,475,475,475,475,475,475,475,475,475,475,475,475,475,475,475,475,475,475,475,475,475,475,475,475,475,475,475,475,475,475,475,475,475,66],"timestamp_mouse":[9,29,48,68,88,108,128,149,168,188,208,228,249,268,287,308,329,348,368,389,409,429,448,468,489,508,529,549,568,588,608,628,649,668,689,708,728,748,768,788,809,828,849,868,889,908,928,948,969,988,1009,1028,1049,1068,1088,1108,1127,1149,1169,1188,1208,1228,1249,1269,1287],"xSR":741.5,"ySR":469.95,"xT1":424.9,"yT1":0,"xT2":1058.1,"yT2":0,"toosoon":0,"cond_shown":"equaldotsize","ratio_trial":250,"smaller_num":"4","larger_num":"16","correct_side":2,"subjID":"JUANANDRESLOPEZFLOREZ21","gender":"0","age":"9","school":"4"},{"start_time":1552309698985,"click_time":1552309700637,"finger_time":1552309700637,"fix_duration":1245.8466813128616,"trial":8,"RT":1652,"MT":0,"sideResp":2,"stimulus":"img/500/equaldotanddens/R/12_Ratio_500_L_1_R_2.png","xmouse":[802,802,802,802,802,802,802,802,802,802,802,802,802,802,802,802,802,802,802,802,802,802,802,802,802,802,802,802,802,802,802,802,806,806,806,806,806,806,806,806,806,806,806,806,806,806,806,806,806,806,806,806,806,806,806,806,806,806,806,806,806,806,806,806,806,806,806,806,806,806,806,806,806,806,806,806,806,806,806,806,806,806,1119],"ymouse":[511,511,511,511,511,511,511,511,511,511,511,511,511,511,511,511,511,511,511,511,511,511,511,511,511,511,511,511,511,511,511,511,501,501,501,501,501,501,501,501,501,501,501,501,501,501,501,501,501,501,501,501,501,501,501,501,501,501,501,501,501,501,501,501,501,501,501,501,501,501,501,501,501,501,501,501,501,501,501,501,501,501,1],"timestamp_mouse":[12,33,51,73,92,112,132,153,173,192,213,232,252,272,293,313,333,352,372,392,412,433,453,472,493,512,533,553,572,592,612,632,652,673,692,713,732,753,773,792,812,833,852,873,892,912,932,952,971,992,1012,1033,1052,1072,1092,1113,1131,1152,1172,1193,1212,1233,1253,1273,1292,1312,1332,1352,1373,1393,1412,1433,1453,1473,1491,1513,1533,1552,1572,1593,1612,1632,1652],"xSR":741.5,"ySR":469.95,"xT1":424.9,"yT1":0,"xT2":1058.1,"yT2":0,"toosoon":0,"cond_shown":"equaldotanddens","ratio_trial":500,"smaller_num":"1","larger_num":"2","correct_side":2,"subjID":"JUANANDRESLOPEZFLOREZ21","gender":"0","age":"9","school":"4"},{"start_time":1552309703317,"click_time":1552309705157,"finger_time":1552309705157,"fix_duration":719.6139681820397,"trial":9,"RT":1840,"MT":0,"sideResp":1,"stimulus":"img/750/randomdotsizeEA/L/6_Ratio_750_L_24_R_18.png","xmouse":[762,762,762,760,760,759,759,759,759,758,758,758,758,758,758,758,758,758,758,758,758,758,758,758,758,758,758,758,758,758,758,758,758,758,758,758,758,758,758,758,758,758,758,758,758,758,758,758,758,758,758,758,758,758,758,758,758,758,758,758,758,758,758,758,758,758,758,758,758,758,758,758,758,758,758,758,758,758,758,758,758,758,758,758,758,758,758,758,758,758,758,758,455],"ymouse":[512,512,512,512,512,512,512,512,512,512,512,512,512,512,512,512,512,512,512,512,512,512,512,512,512,512,512,512,512,512,512,512,512,512,512,512,512,512,512,512,512,512,512,512,512,512,512,512,512,512,512,512,512,512,512,512,512,512,512,512,512,512,512,512,512,512,512,512,512,512,512,512,512,512,512,512,512,512,512,512,512,512,512,512,512,512,512,512,512,512,512,512,68],"timestamp_mouse":[1,21,40,63,80,100,121,140,160,180,200,220,240,260,280,301,321,340,360,380,400,420,440,459,479,500,520,541,560,580,600,621,640,661,680,700,720,740,760,781,800,820,841,860,880,900,920,941,960,981,1000,1020,1040,1060,1080,1101,1121,1140,1160,1181,1200,1221,1240,1261,1280,1300,1321,1341,1361,1380,1400,1421,1440,1461,1480,1500,1520,1541,1560,1581,1600,1621,1640,1661,1680,1700,1721,1741,1761,1779,1801,1820,1840],"xSR":741.5,"ySR":469.95,"xT1":424.9,"yT1":0,"xT2":1058.1,"yT2":0,"toosoon":0,"cond_shown":"randomdotsizeEA","ratio_trial":750,"smaller_num":"18","larger_num":"24","correct_side":1,"subjID":"JUANANDRESLOPEZFLOREZ21","gender":"0","age":"9","school":"4"},{"start_time":1552309708109,"click_time":1552309709557,"finger_time":1552309709557,"fix_duration":250,"trial":10,"RT":1448,"MT":0,"sideResp":2,"stimulus":"img/750/equaldotanddens/R/11_Ratio_750_L_12_R_16.png","xmouse":[802,802,802,802,802,802,802,802,802,802,802,802,802,802,802,802,802,802,802,802,802,802,802,802,802,802,802,802,802,802,805,805,805,805,805,805,805,805,805,805,805,805,805,805,805,805,805,805,805,805,805,805,805,805,805,805,805,805,805,805,805,805,805,805,805,805,805,805,805,805,805,805,1129],"ymouse":[554,554,554,554,554,554,554,554,554,554,554,554,554,554,554,554,554,554,554,554,554,554,554,554,554,554,554,554,554,553,548,548,548,548,548,548,548,548,548,548,548,548,548,548,548,548,548,548,548,548,548,548,548,548,548,548,548,548,548,548,548,548,548,548,548,548,548,548,548,548,548,548,10],"timestamp_mouse":[14,28,51,69,89,109,129,149,168,189,208,229,249,268,288,309,328,349,367,389,408,428,449,469,489,509,529,549,568,588,608,628,648,668,688,708,728,749,768,789,808,828,848,869,888,908,928,948,968,987,1007,1029,1048,1069,1088,1110,1128,1149,1169,1188,1208,1227,1247,1269,1288,1309,1328,1349,1368,1389,1409,1428,1448],"xSR":741.5,"ySR":469.95,"xT1":424.9,"yT1":0,"xT2":1058.1,"yT2":0,"toosoon":0,"cond_shown":"equaldotanddens","ratio_trial":750,"smaller_num":"12","larger_num":"16","correct_side":2,"subjID":"JUANANDRESLOPEZFLOREZ21","gender":"0","age":"9","school":"4"},{"start_time":1552309711910,"click_time":1552309713118,"finger_time":1552309713118,"fix_duration":250,"trial":11,"RT":1208,"MT":0,"sideResp":2,"stimulus":"img/900/equaldotanddens/R/12_Ratio_900_L_18_R_20.png","xmouse":[808,808,808,808,808,808,808,808,808,808,808,808,808,808,808,808,808,808,808,808,808,808,808,809,809,812,812,812,812,812,812,812,812,812,812,812,812,812,812,812,812,812,812,812,812,812,812,812,812,812,812,812,812,812,812,812,812,812,812,812,1080],"ymouse":[534,534,534,534,534,533,533,533,533,533,533,533,533,533,533,533,533,533,533,533,533,533,533,531,530,525,525,525,525,525,525,525,525,525,525,525,525,525,525,525,525,525,525,525,525,525,525,525,525,525,525,525,525,525,525,525,525,525,525,525,35],"timestamp_mouse":[11,27,47,73,87,107,127,147,167,186,208,228,247,268,287,306,328,347,368,387,408,427,447,468,487,508,527,547,567,587,607,628,647,668,687,707,727,748,767,788,807,828,847,868,887,908,927,947,968,987,1008,1028,1047,1067,1088,1107,1127,1147,1168,1187,1208],"xSR":741.5,"ySR":469.95,"xT1":424.9,"yT1":0,"xT2":1058.1,"yT2":0,"toosoon":0,"cond_shown":"equaldotanddens","ratio_trial":900,"smaller_num":"18","larger_num":"20","correct_side":2,"subjID":"JUANANDRESLOPEZFLOREZ21","gender":"0","age":"9","school":"4"},{"start_time":1552309714504,"click_time":1552309716058,"finger_time":1552309716058,"fix_duration":845.7131190684644,"trial":12,"RT":1554,"MT":0,"sideResp":2,"stimulus":"img/900/equaldotsize/L/8_Ratio_900_L_20_R_18.png","xmouse":[775,775,775,775,775,775,775,775,775,775,775,775,775,775,775,775,775,775,775,775,775,775,775,775,775,775,775,775,775,775,775,775,775,775,775,775,775,775,775,775,775,775,775,775,775,775,775,775,775,775,775,775,775,775,775,775,775,775,775,775,775,775,775,775,775,775,775,775,775,775,775,775,775,775,775,775,775,1071],"ymouse":[498,498,498,498,498,498,498,498,498,498,498,498,498,498,498,498,498,498,498,498,498,498,498,498,498,498,498,498,498,498,498,498,498,498,498,498,498,498,498,498,498,498,498,498,498,498,498,498,498,498,498,498,498,498,498,498,498,498,498,498,498,498,498,498,498,498,498,498,498,498,498,498,498,498,498,498,498,35],"timestamp_mouse":[13,33,54,73,93,113,133,153,173,193,213,233,254,273,293,314,333,353,373,394,412,433,454,473,494,513,534,553,573,594,613,634,653,674,693,713,733,754,773,793,813,833,853,873,893,914,933,954,973,994,1012,1033,1053,1073,1093,1114,1133,1153,1173,1193,1213,1234,1252,1274,1293,1313,1333,1353,1373,1393,1413,1432,1453,1472,1493,1514,1533,1554],"xSR":741.5,"ySR":469.95,"xT1":424.9,"yT1":0,"xT2":1058.1,"yT2":0,"toosoon":0,"cond_shown":"equaldotsize","ratio_trial":900,"smaller_num":"18","larger_num":"20","correct_side":1,"subjID":"JUANANDRESLOPEZFLOREZ21","gender":"0","age":"9","school":"4"},{"start_time":1552309719809,"click_time":1552309721197,"finger_time":1552309720418,"fix_duration":1188.8615121193804,"trial":13,"RT":609,"MT":779,"sideResp":2,"stimulus":"img/500/equaldotsize/R/2_Ratio_500_L_3_R_6.png","xmouse":[791,791,791,791,791,791,791,791,791,791,791,791,791,791,791,791,791,791,791,791,791,791,791,791,791,792,794,798,803,806,811,817,830,836,844,850,861,871,877,884,892,900,919,931,940,950,960,976,986,992,996,998,1005,1006,1008,1008,1008,1008,1008,1008,1008,1008,1008,1008,1008,1009,1016,1038,1054,1060],"ymouse":[525,525,525,525,525,525,525,525,525,525,525,525,525,525,525,525,525,525,525,525,525,525,525,525,522,519,512,496,482,470,457,444,413,396,381,368,343,323,307,290,274,255,218,199,179,159,141,108,89,79,73,70,65,65,64,64,64,64,64,64,64,64,64,64,64,64,64,64,63,61],"timestamp_mouse":[9,28,60,69,89,109,129,149,168,188,209,229,248,268,289,309,328,349,368,388,408,429,448,469,488,509,529,548,568,589,609,628,648,669,689,708,730,748,768,788,808,829,848,867,888,908,929,947,968,988,1008,1029,1049,1068,1089,1109,1128,1149,1168,1189,1208,1228,1248,1269,1288,1309,1328,1348,1368,1388],"xSR":741.5,"ySR":469.95,"xT1":424.9,"yT1":0,"xT2":1058.1,"yT2":0,"toosoon":0,"cond_shown":"equaldotsize","ratio_trial":500,"smaller_num":"3","larger_num":"6","correct_side":2,"subjID":"JUANANDRESLOPEZFLOREZ21","gender":"0","age":"9","school":"4"},{"start_time":1552309724857,"click_time":1552309725976,"finger_time":1552309725436,"fix_duration":998.2411867780937,"trial":14,"RT":579,"MT":540,"sideResp":2,"stimulus":"img/250/equaldotsize/R/9_Ratio_250_L_3_R_12.png","xmouse":[791,791,791,791,791,791,791,791,791,791,791,791,791,791,791,791,791,791,791,791,791,791,791,791,791,792,799,810,822,835,846,869,880,896,907,928,935,945,954,963,984,992,999,1006,1016,1023,1027,1027,1027,1027,1029,1035,1042,1057,1065,1074,1078],"ymouse":[522,522,522,522,522,522,522,522,522,522,522,522,522,522,522,522,522,522,522,522,522,522,522,522,522,519,510,495,479,460,441,405,384,352,331,291,271,253,235,217,183,167,156,144,128,119,110,109,109,109,109,109,108,106,104,101,99],"timestamp_mouse":[1,20,41,59,80,100,121,140,161,180,199,220,241,260,280,300,320,339,359,381,399,421,440,460,480,500,520,540,560,579,599,620,640,660,679,700,719,740,760,780,801,819,840,861,879,899,919,939,960,981,1001,1020,1039,1059,1079,1101,1119],"xSR":741.5,"ySR":469.95,"xT1":424.9,"yT1":0,"xT2":1058.1,"yT2":0,"toosoon":0,"cond_shown":"equaldotsize","ratio_trial":250,"smaller_num":"3","larger_num":"12","correct_side":2,"subjID":"JUANANDRESLOPEZFLOREZ21","gender":"0","age":"9","school":"4"},{"start_time":1552309752488,"click_time":1552309753736,"finger_time":1552309753056,"fix_duration":890.9718208934353,"trial":15,"RT":568,"MT":680,"sideResp":2,"stimulus":"img/750/equaldotsize/R/12_Ratio_750_L_3_R_4.png","xmouse":[768,768,768,768,768,768,768,768,768,768,768,768,768,768,768,768,768,768,768,768,768,768,768,768,768,768,768,779,791,810,837,852,884,895,900,906,906,906,906,906,906,906,906,906,906,906,906,906,906,906,906,906,906,906,906,906,906,906,906,906,906,906,1059],"ymouse":[526,526,526,526,526,526,526,526,526,526,526,526,526,526,526,526,526,526,526,526,526,526,526,526,526,523,519,487,458,415,337,278,154,103,62,19,19,19,19,19,19,19,19,19,19,19,19,19,19,19,19,19,19,19,19,19,19,19,19,19,19,19,6],"timestamp_mouse":[10,35,50,70,88,109,130,150,168,188,208,229,249,268,288,309,330,348,369,390,408,430,449,468,490,509,528,548,568,588,608,628,648,668,688,708,728,748,769,789,810,831,848,869,888,908,931,949,969,990,1009,1029,1048,1069,1089,1109,1131,1148,1170,1188,1209,1228,1248],"xSR":741.5,"ySR":469.95,"xT1":424.9,"yT1":0,"xT2":1058.1,"yT2":0,"toosoon":0,"cond_shown":"equaldotsize","ratio_trial":750,"smaller_num":"3","larger_num":"4","correct_side":2,"subjID":"JUANANDRESLOPEZFLOREZ21","gender":"0","age":"9","school":"4"},{"start_time":1552309757008,"click_time":1552309757756,"finger_time":1552309757436,"fix_duration":250,"trial":16,"RT":428,"MT":320,"sideResp":2,"stimulus":"img/900/equaldotsize/R/11_Ratio_900_L_18_R_20.png","xmouse":[778,778,778,778,778,778,778,778,778,778,778,778,778,778,778,780,791,800,811,819,829,858,870,883,895,908,931,943,957,970,986,1005,1015,1023,1031,1040,1055,1062],"ymouse":[526,526,526,526,526,526,526,526,526,526,526,526,526,526,526,527,525,520,514,505,496,456,436,413,392,371,328,306,286,265,234,190,168,148,129,111,74,59],"timestamp_mouse":[11,29,60,70,89,108,129,149,169,188,209,230,248,268,289,310,328,348,369,390,408,428,449,469,489,508,529,549,570,589,608,629,649,668,689,710,729,748],"xSR":741.5,"ySR":469.95,"xT1":424.9,"yT1":0,"xT2":1058.1,"yT2":0,"toosoon":0,"cond_shown":"equaldotsize","ratio_trial":900,"smaller_num":"18","larger_num":"20","correct_side":2,"subjID":"JUANANDRESLOPEZFLOREZ21","gender":"0","age":"9","school":"4"},{"start_time":1552309759574,"click_time":1552309760839,"finger_time":1552309760137,"fix_duration":395.9375668186176,"trial":17,"RT":563,"MT":702,"sideResp":1,"stimulus":"img/500/equaldotanddens/L/10_Ratio_500_L_4_R_2.png","xmouse":[771,771,771,771,771,771,771,771,771,771,771,771,771,771,771,771,771,771,771,771,771,771,771,771,771,772,780,790,828,854,883,921,938,950,952,952,952,952,952,952,952,952,952,887,834,796,768,739,690,584,541,495,475,456,448,448,448,448,447,447,447,454,456,465],"ymouse":[533,533,533,533,533,533,533,533,533,533,533,533,533,533,533,533,533,533,533,533,533,533,533,533,531,521,505,484,416,362,304,224,194,173,170,170,170,170,170,170,170,170,170,161,156,158,166,175,181,187,187,192,195,196,197,197,197,197,193,181,164,132,120,71],"timestamp_mouse":[9,22,44,75,83,103,123,142,163,184,203,224,243,263,283,302,323,342,363,384,404,423,443,462,483,504,522,544,563,582,602,622,643,664,682,702,722,744,764,783,804,824,843,864,883,903,924,942,963,983,1003,1023,1042,1062,1083,1102,1123,1144,1165,1183,1203,1223,1242,1264],"xSR":741.5,"ySR":469.95,"xT1":424.9,"yT1":0,"xT2":1058.1,"yT2":0,"toosoon":0,"cond_shown":"equaldotanddens","ratio_trial":500,"smaller_num":"2","larger_num":"4","correct_side":1,"subjID":"JUANANDRESLOPEZFLOREZ21","gender":"0","age":"9","school":"4"},{"start_time":1552309763282,"click_time":1552309764417,"finger_time":1552309763877,"fix_duration":1383.8121844656503,"trial":18,"RT":595,"MT":540,"sideResp":2,"stimulus":"img/250/equaldotanddens/R/13_Ratio_250_L_2_R_8.png","xmouse":[786,786,786,786,786,786,786,786,786,786,786,786,786,786,786,786,786,786,786,786,786,786,786,786,786,787,794,816,841,852,863,872,883,911,933,948,958,966,969,969,969,969,969,969,969,971,977,983,993,1002,1013,1023,1037,1068,1090,1101,1111],"ymouse":[517,517,517,517,517,517,517,517,517,517,517,517,517,517,517,517,517,517,517,517,517,517,517,517,517,518,518,511,483,463,445,424,400,343,295,267,249,234,226,225,225,225,225,225,225,225,224,221,218,213,205,195,182,150,121,102,86],"timestamp_mouse":[14,49,55,75,95,115,135,154,175,196,214,235,254,276,295,316,336,354,376,395,414,435,454,475,495,514,534,554,574,595,615,635,654,674,696,715,734,754,774,794,814,835,855,874,894,916,935,956,975,994,1014,1035,1054,1075,1095,1115,1135],"xSR":741.5,"ySR":469.95,"xT1":424.9,"yT1":0,"xT2":1058.1,"yT2":0,"toosoon":0,"cond_shown":"equaldotanddens","ratio_trial":250,"smaller_num":"2","larger_num":"8","correct_side":2,"subjID":"JUANANDRESLOPEZFLOREZ21","gender":"0","age":"9","school":"4"},{"start_time":1552309766788,"click_time":1552309768117,"finger_time":1552309767597,"fix_duration":1468.5838816940238,"trial":19,"RT":809,"MT":520,"sideResp":1,"stimulus":"img/500/randomdotsizeEA/L/4_Ratio_500_L_18_R_9.png","xmouse":[771,771,771,771,771,771,771,771,771,771,771,771,771,771,771,771,771,771,771,771,771,771,773,774,774,774,774,774,774,779,785,791,797,802,807,808,808,808,808,808,799,789,769,718,667,616,571,531,485,466,466,466,466,464,460,456,454,453,453,453,453,454,456,461,465,469,474],"ymouse":[542,542,542,542,542,542,542,542,542,542,542,542,542,542,542,542,542,542,542,542,539,536,533,532,532,532,532,532,531,526,519,509,499,490,476,473,472,472,472,472,467,461,449,403,361,317,281,254,231,225,225,225,225,223,219,212,208,204,197,194,188,182,175,146,128,109,90],"timestamp_mouse":[11,29,53,69,88,109,130,150,169,190,209,230,249,269,289,309,329,348,370,389,408,428,449,469,489,508,530,549,568,589,608,628,648,668,689,709,729,748,768,788,809,829,848,870,888,909,930,950,969,989,1008,1029,1048,1069,1088,1109,1130,1150,1170,1190,1209,1228,1248,1270,1288,1309,1329],"xSR":741.5,"ySR":469.95,"xT1":424.9,"yT1":0,"xT2":1058.1,"yT2":0,"toosoon":0,"cond_shown":"randomdotsizeEA","ratio_trial":500,"smaller_num":"9","larger_num":"18","correct_side":1,"subjID":"JUANANDRESLOPEZFLOREZ21","gender":"0","age":"9","school":"4"},{"start_time":1552309770834,"click_time":1552309771697,"finger_time":1552309771277,"fix_duration":535.1720991243178,"trial":20,"RT":443,"MT":420,"sideResp":1,"stimulus":"img/250/equaldotanddens/L/2_Ratio_250_L_16_R_4.png","xmouse":[805,805,805,805,805,805,805,801,787,783,783,783,783,783,783,783,782,782,779,776,772,762,737,727,713,704,695,681,672,663,653,641,616,608,604,601,599,594,588,579,568,537,518,487],"ymouse":[535,535,535,535,535,535,535,532,528,527,527,527,527,527,527,527,526,526,524,521,511,498,464,445,421,405,389,367,353,341,329,314,283,274,267,261,256,244,233,218,197,144,112,67],"timestamp_mouse":[10,23,47,63,83,103,124,143,162,184,203,224,243,264,282,302,322,343,362,383,402,422,443,463,483,502,524,543,562,583,603,625,642,663,682,702,724,742,763,783,804,825,842,863],"xSR":741.5,"ySR":469.95,"xT1":424.9,"yT1":0,"xT2":1058.1,"yT2":0,"toosoon":0,"cond_shown":"equaldotanddens","ratio_trial":250,"smaller_num":"4","larger_num":"16","correct_side":1,"subjID":"JUANANDRESLOPEZFLOREZ21","gender":"0","age":"9","school":"4"},{"start_time":1552309782458,"click_time":1552309783878,"finger_time":1552309783217,"fix_duration":759.5494236005185,"trial":21,"RT":759,"MT":661,"sideResp":2,"stimulus":"img/900/randomdotsizeEA/R/3_Ratio_900_L_9_R_10.png","xmouse":[767,767,767,767,767,767,767,767,767,767,767,767,767,767,767,767,767,767,767,767,767,767,767,767,767,767,767,767,767,767,767,767,767,767,767,793,808,840,848,854,860,867,874,893,907,923,940,967,973,978,986,997,1027,1036,1045,1050,1054,1058,1058,1058,1058,1058,1058,1058,1058,1058,1058,1061,1064,1067,1072,1074],"ymouse":[505,505,505,505,505,505,505,505,505,505,505,505,505,505,505,505,505,505,505,505,505,505,505,505,505,505,505,505,505,505,505,505,505,505,505,504,504,483,473,465,456,446,436,404,385,363,343,304,295,289,280,271,246,230,209,187,165,128,125,125,125,125,125,125,125,125,125,122,118,110,104,97],"timestamp_mouse":[1,18,38,59,79,98,120,139,159,180,198,219,240,260,278,300,318,340,358,378,400,418,439,459,478,499,519,539,559,578,600,619,638,658,680,698,719,739,759,778,798,818,838,858,879,898,918,938,960,979,999,1020,1039,1058,1078,1098,1119,1139,1159,1178,1199,1220,1239,1260,1281,1300,1320,1339,1361,1379,1399,1420],"xSR":741.5,"ySR":469.95,"xT1":424.9,"yT1":0,"xT2":1058.1,"yT2":0,"toosoon":0,"cond_shown":"randomdotsizeEA","ratio_trial":900,"smaller_num":"9","larger_num":"10","correct_side":2,"subjID":"JUANANDRESLOPEZFLOREZ21","gender":"0","age":"9","school":"4"},{"start_time":1552309785107,"click_time":1552309786858,"finger_time":1552309785598,"fix_duration":429.5898687075577,"trial":22,"RT":491,"MT":1260,"sideResp":2,"stimulus":"img/750/equaldotsize/R/11_Ratio_750_L_12_R_16.png","xmouse":[808,808,808,808,808,808,808,808,808,808,808,808,808,808,808,808,808,808,808,809,812,815,816,819,822,822,822,822,822,822,822,822,822,822,802,779,755,736,717,700,667,644,632,624,616,616,616,616,613,609,595,587,578,577,577,577,577,591,615,654,666,680,692,709,732,747,763,779,798,826,834,834,834,834,834,834,834,834,834,834,834,834,834,1002,1043,1053,1058,1061],"ymouse":[563,563,563,563,563,563,563,563,562,562,561,561,561,561,561,561,561,558,551,542,524,506,500,483,465,460,457,456,455,455,455,455,455,455,447,437,426,414,401,388,369,355,348,344,340,340,340,340,336,329,296,277,254,246,240,240,239,239,241,240,233,223,211,189,156,137,114,89,61,21,11,11,11,11,11,11,11,11,11,11,11,11,11,1,6,8,10,10],"timestamp_mouse":[10,31,52,71,90,111,130,150,171,190,211,230,251,270,292,310,330,351,370,390,411,430,451,472,491,510,530,550,570,590,610,630,650,670,692,710,730,750,770,791,810,830,850,871,891,910,931,951,971,990,1011,1030,1050,1071,1090,1111,1130,1152,1172,1192,1210,1230,1251,1270,1291,1310,1330,1351,1371,1391,1411,1430,1450,1471,1491,1510,1531,1550,1571,1592,1610,1631,1652,1671,1692,1710,1730,1751],"xSR":741.5,"ySR":469.95,"xT1":424.9,"yT1":0,"xT2":1058.1,"yT2":0,"toosoon":0,"cond_shown":"equaldotsize","ratio_trial":750,"smaller_num":"12","larger_num":"16","correct_side":2,"subjID":"JUANANDRESLOPEZFLOREZ21","gender":"0","age":"9","school":"4"},{"start_time":1552309789060,"click_time":1552309789938,"finger_time":1552309789619,"fix_duration":1280.39057351996,"trial":23,"RT":559,"MT":319,"sideResp":2,"stimulus":"img/500/equaldotanddens/R/12_Ratio_500_L_1_R_2.png","xmouse":[779,779,779,779,779,779,779,779,779,779,779,779,779,779,779,779,779,779,779,779,779,779,779,779,782,786,790,803,812,823,840,860,900,934,955,973,988,1006,1013,1020,1028,1036,1055,1061],"ymouse":[529,529,529,529,529,529,529,529,529,529,529,529,529,529,529,529,529,529,529,529,528,526,517,513,499,489,480,458,446,434,418,398,360,321,297,275,259,232,218,203,185,164,111,93],"timestamp_mouse":[19,37,57,77,99,118,137,158,177,199,217,239,258,277,298,317,337,358,379,397,417,437,457,477,497,517,538,559,577,597,617,638,657,678,697,718,738,757,778,797,819,838,857,878],"xSR":741.5,"ySR":469.95,"xT1":424.9,"yT1":0,"xT2":1058.1,"yT2":0,"toosoon":0,"cond_shown":"equaldotanddens","ratio_trial":500,"smaller_num":"1","larger_num":"2","correct_side":2,"subjID":"JUANANDRESLOPEZFLOREZ21","gender":"0","age":"9","school":"4"},{"start_time":1552309791150,"click_time":1552309792318,"finger_time":1552309791717,"fix_duration":250,"trial":24,"RT":567,"MT":601,"sideResp":1,"stimulus":"img/250/equaldotanddens/L/7_Ratio_250_L_8_R_2.png","xmouse":[803,803,803,803,803,803,803,803,803,803,803,803,803,803,803,803,803,803,803,803,803,803,803,803,803,803,802,801,801,800,795,780,752,702,674,647,619,588,535,527,521,517,514,508,506,503,502,501,501,501,501,500,499,496,493,493,490,488,484],"ymouse":[525,525,525,525,525,525,525,525,525,525,525,525,525,525,525,525,525,525,525,525,525,520,517,499,491,483,477,472,469,468,464,459,451,429,414,398,382,359,315,303,290,276,261,227,213,201,192,187,177,173,169,163,156,139,131,124,117,109,83],"timestamp_mouse":[10,42,48,67,87,107,128,148,167,188,209,228,248,268,288,307,328,348,367,388,407,428,447,467,487,507,527,548,567,589,608,628,648,668,687,708,727,747,768,789,808,828,847,868,887,907,927,948,968,987,1007,1028,1049,1068,1087,1108,1127,1149,1167],"xSR":741.5,"ySR":469.95,"xT1":424.9,"yT1":0,"xT2":1058.1,"yT2":0,"toosoon":0,"cond_shown":"equaldotanddens","ratio_trial":250,"smaller_num":"2","larger_num":"8","correct_side":1,"subjID":"JUANANDRESLOPEZFLOREZ21","gender":"0","age":"9","school":"4"},{"start_time":1552309793930,"click_time":1552309794937,"finger_time":1552309794617,"fix_duration":572.8411060214629,"trial":25,"RT":687,"MT":320,"sideResp":1,"stimulus":"img/900/randomdotsizeEA/L/1_Ratio_900_L_10_R_9.png","xmouse":[811,811,811,811,811,811,811,811,811,811,811,811,811,811,811,811,811,811,811,811,811,811,811,811,811,811,811,811,811,811,811,811,806,798,770,691,660,641,616,589,578,570,565,558,531,513,500,479,468,455,450],"ymouse":[498,498,498,498,498,498,498,498,498,498,498,498,498,498,498,498,498,498,498,498,498,498,498,498,498,498,498,498,498,498,498,498,491,481,447,351,310,283,253,229,221,215,211,206,185,170,158,138,125,105,97],"timestamp_mouse":[9,41,47,68,89,109,128,148,168,187,208,229,249,268,287,307,327,347,369,388,407,428,449,467,487,508,528,548,567,588,607,627,648,668,687,707,727,747,768,788,807,827,847,868,888,907,927,947,968,989,1007],"xSR":741.5,"ySR":469.95,"xT1":424.9,"yT1":0,"xT2":1058.1,"yT2":0,"toosoon":0,"cond_shown":"randomdotsizeEA","ratio_trial":900,"smaller_num":"9","larger_num":"10","correct_side":1,"subjID":"JUANANDRESLOPEZFLOREZ21","gender":"0","age":"9","school":"4"},{"start_time":1552309798089,"click_time":1552309799937,"finger_time":1552309798798,"fix_duration":250,"trial":26,"RT":709,"MT":1139,"sideResp":1,"stimulus":"img/900/equaldotsize/L/1_Ratio_900_L_10_R_9.png","xmouse":[759,759,759,759,759,759,759,759,759,759,759,759,759,759,759,760,760,760,760,760,760,760,760,760,760,760,760,760,760,760,760,761,762,767,781,805,834,876,881,884,886,891,907,919,933,946,960,1009,1025,1034,1039,1040,1040,1040,1040,1040,1040,1033,1013,995,971,933,773,673,594,545,526,496,482,464,450,441,437,435,435,435,435,437,439,447,459,471,486,488,488,489,490,497,497,497,496,492,483],"ymouse":[487,487,487,487,487,487,487,487,487,487,487,487,487,491,493,497,499,499,499,499,499,499,499,499,499,499,499,499,499,499,499,499,499,494,482,467,449,426,423,421,421,416,405,394,379,355,331,245,218,194,180,176,175,175,175,175,175,175,175,175,175,180,200,200,200,200,196,188,185,179,173,169,164,163,161,159,156,152,152,152,154,157,160,160,160,160,160,152,140,126,113,100,76],"timestamp_mouse":[9,37,48,68,88,109,128,149,169,189,208,230,248,268,288,309,330,349,369,389,409,430,448,469,489,508,529,548,568,588,608,628,649,668,690,709,728,748,768,789,808,829,849,869,889,908,929,948,969,988,1008,1029,1048,1069,1088,1109,1128,1148,1169,1189,1209,1229,1248,1268,1289,1309,1329,1348,1369,1389,1410,1429,1449,1469,1490,1509,1530,1549,1569,1588,1608,1629,1648,1668,1688,1708,1728,1748,1769,1788,1809,1828,1848],"xSR":741.5,"ySR":469.95,"xT1":424.9,"yT1":0,"xT2":1058.1,"yT2":0,"toosoon":0,"cond_shown":"equaldotsize","ratio_trial":900,"smaller_num":"9","larger_num":"10","correct_side":1,"subjID":"JUANANDRESLOPEZFLOREZ21","gender":"0","age":"9","school":"4"},{"start_time":1552309803805,"click_time":1552309804898,"finger_time":1552309804418,"fix_duration":1145.2570200545008,"trial":27,"RT":613,"MT":480,"sideResp":2,"stimulus":"img/500/randomdotsizeEA/R/9_Ratio_500_L_2_R_4.png","xmouse":[782,782,782,782,782,782,782,782,782,782,782,782,782,782,782,782,785,797,800,804,807,809,810,810,810,810,810,813,823,831,844,864,875,885,898,910,942,952,964,975,991,1008,1012,1014,1015,1016,1029,1038,1039,1044,1046,1047,1047,1048,1059],"ymouse":[546,546,546,546,546,546,546,546,546,546,546,546,546,546,546,544,541,523,517,509,503,498,497,497,497,497,497,495,494,490,480,454,436,414,388,356,286,250,209,171,116,56,40,33,31,31,31,31,31,31,31,31,31,31,33],"timestamp_mouse":[13,47,53,72,93,113,132,153,173,193,212,233,252,273,293,312,333,352,372,393,413,433,453,473,493,512,533,552,573,594,613,634,652,673,692,713,733,752,772,793,812,834,852,872,892,912,934,952,973,994,1014,1032,1053,1074,1093],"xSR":741.5,"ySR":469.95,"xT1":424.9,"yT1":0,"xT2":1058.1,"yT2":0,"toosoon":0,"cond_shown":"randomdotsizeEA","ratio_trial":500,"smaller_num":"2","larger_num":"4","correct_side":2,"subjID":"JUANANDRESLOPEZFLOREZ21","gender":"0","age":"9","school":"4"},{"start_time":1552309808419,"click_time":1552309809577,"finger_time":1552309809138,"fix_duration":980.8647604437778,"trial":28,"RT":719,"MT":439,"sideResp":1,"stimulus":"img/750/equaldotsize/L/6_Ratio_750_L_24_R_18.png","xmouse":[774,774,774,774,774,774,774,774,774,774,774,774,774,774,774,774,774,774,774,774,774,774,774,774,774,774,774,774,776,777,777,777,776,773,760,723,591,584,584,583,582,578,564,556,546,537,520,515,511,506,502,487,479,472,465,456,443,436],"ymouse":[532,532,532,532,532,532,532,532,532,532,532,532,532,532,532,532,532,532,532,532,532,532,532,532,532,532,532,532,528,524,520,510,506,501,493,482,446,443,443,442,439,432,405,386,367,346,301,285,269,255,241,210,195,181,165,142,100,61],"timestamp_mouse":[19,39,71,79,99,119,139,159,179,200,219,239,259,278,299,318,338,359,379,398,419,438,458,480,499,518,538,558,578,599,620,639,658,678,698,719,738,760,778,799,820,838,858,878,900,920,939,960,979,999,1019,1039,1058,1078,1098,1119,1139,1158],"xSR":741.5,"ySR":469.95,"xT1":424.9,"yT1":0,"xT2":1058.1,"yT2":0,"toosoon":0,"cond_shown":"equaldotsize","ratio_trial":750,"smaller_num":"18","larger_num":"24","correct_side":1,"subjID":"JUANANDRESLOPEZFLOREZ21","gender":"0","age":"9","school":"4"},{"start_time":1552309811782,"click_time":1552309812798,"finger_time":1552309812239,"fix_duration":902.0336948737547,"trial":29,"RT":457,"MT":559,"sideResp":2,"stimulus":"img/250/equaldotsize/R/10_Ratio_250_L_4_R_16.png","xmouse":[815,815,815,815,815,815,815,815,815,815,815,815,815,815,815,815,815,815,815,815,815,816,818,820,822,822,822,825,846,859,869,877,882,892,896,902,909,920,936,943,951,962,973,983,1000,1011,1020,1035,1044,1058,1061],"ymouse":[531,531,531,531,531,531,531,531,531,531,531,531,531,531,531,531,531,526,519,499,486,472,462,449,447,447,446,444,442,438,431,424,417,398,390,379,370,350,317,303,287,271,256,241,211,194,178,154,138,107,94],"timestamp_mouse":[17,40,55,75,96,115,136,156,175,196,215,235,256,275,295,316,335,355,375,395,415,436,457,476,495,515,535,555,576,595,616,635,655,677,695,715,736,755,777,795,816,837,856,875,895,916,936,956,976,996,1016],"xSR":741.5,"ySR":469.95,"xT1":424.9,"yT1":0,"xT2":1058.1,"yT2":0,"toosoon":0,"cond_shown":"equaldotsize","ratio_trial":250,"smaller_num":"4","larger_num":"16","correct_side":2,"subjID":"JUANANDRESLOPEZFLOREZ21","gender":"0","age":"9","school":"4"},{"start_time":1552309815345,"click_time":1552309816857,"finger_time":1552309816217,"fix_duration":1285.3258069020376,"trial":30,"RT":872,"MT":640,"sideResp":1,"stimulus":"img/500/equaldotsize/L/4_Ratio_500_L_18_R_9.png","xmouse":[804,804,804,804,804,804,804,804,804,804,804,804,804,804,804,804,804,804,804,804,804,804,804,804,804,804,804,804,804,804,804,804,804,804,803,803,803,803,803,803,803,795,763,726,675,619,475,384,346,312,285,285,285,285,285,285,285,285,285,285,285,285,285,285,285,285,285,285,285,285,285,285,285,395,406,426],"ymouse":[546,546,546,546,546,546,546,546,546,546,546,546,546,546,546,546,546,546,546,546,546,546,546,546,546,546,546,546,546,546,546,542,537,533,530,530,530,530,530,530,530,527,519,505,475,424,255,134,74,34,6,6,6,6,6,6,6,6,6,6,6,6,6,6,6,6,6,6,6,6,6,6,6,0,8,22],"timestamp_mouse":[12,33,63,72,93,113,134,154,173,193,212,233,253,272,292,313,333,352,373,393,412,433,453,474,493,513,534,553,573,592,612,633,652,673,693,712,734,753,772,793,812,833,852,872,893,915,932,953,972,993,1013,1032,1052,1072,1093,1112,1133,1152,1173,1192,1212,1233,1253,1273,1293,1314,1333,1353,1373,1392,1414,1433,1454,1473,1493,1512],"xSR":741.5,"ySR":469.95,"xT1":424.9,"yT1":0,"xT2":1058.1,"yT2":0,"toosoon":0,"cond_shown":"equaldotsize","ratio_trial":500,"smaller_num":"9","larger_num":"18","correct_side":1,"subjID":"JUANANDRESLOPEZFLOREZ21","gender":"0","age":"9","school":"4"},{"start_time":1552309819432,"click_time":1552309820859,"finger_time":1552309819997,"fix_duration":1453.9517871170608,"trial":31,"RT":565,"MT":862,"sideResp":2,"stimulus":"img/500/equaldotanddens/R/2_Ratio_500_L_3_R_6.png","xmouse":[773,773,773,773,773,773,773,773,773,773,773,773,773,773,773,774,775,780,781,783,784,786,786,786,787,789,791,793,802,808,820,824,844,848,854,859,863,875,884,896,906,915,923,925,927,931,934,942,946,950,954,965,983,993,1001,1009,1016,1026,1030,1032,1035,1036,1036,1036,1036,1036,1036,1036,1036,1037,1046,1061],"ymouse":[498,498,498,498,498,498,498,498,498,498,498,498,498,498,498,496,494,488,487,486,485,483,483,482,480,479,474,470,451,438,414,406,370,360,352,343,336,315,299,283,267,255,237,233,228,222,216,205,198,191,187,172,152,138,127,116,108,97,94,92,90,90,90,90,90,90,90,90,90,88,86,82],"timestamp_mouse":[10,25,45,65,86,105,125,147,165,185,205,227,245,265,287,306,327,345,365,385,405,426,446,467,485,506,527,546,565,586,606,627,646,665,685,706,726,746,765,786,805,825,846,865,885,906,925,946,965,986,1005,1025,1046,1065,1086,1106,1126,1146,1165,1186,1205,1227,1246,1265,1286,1306,1326,1345,1365,1386,1406,1427],"xSR":741.5,"ySR":469.95,"xT1":424.9,"yT1":0,"xT2":1058.1,"yT2":0,"toosoon":0,"cond_shown":"equaldotanddens","ratio_trial":500,"smaller_num":"3","larger_num":"6","correct_side":2,"subjID":"JUANANDRESLOPEZFLOREZ21","gender":"0","age":"9","school":"4"},{"start_time":1552309824537,"click_time":1552309825818,"finger_time":1552309825057,"fix_duration":1077.2329769746057,"trial":32,"RT":520,"MT":761,"sideResp":1,"stimulus":"img/900/equaldotanddens/L/2_Ratio_900_L_20_R_18.png","xmouse":[800,800,800,800,800,800,800,800,800,800,800,800,800,800,800,800,800,800,800,800,800,800,798,787,783,775,762,744,701,676,648,602,524,335,265,253,250,250,249,249,252,254,257,266,279,296,311,325,345,349,350,352,352,355,358,360,363,367,378,386,395,403,409,422,429],"ymouse":[510,510,510,510,510,510,510,510,510,510,510,510,510,510,510,510,510,510,510,510,510,507,502,485,480,472,462,451,432,421,406,385,351,269,237,227,224,223,221,220,218,216,211,200,198,195,193,191,188,185,182,180,179,170,165,160,151,137,113,101,92,81,71,48,42],"timestamp_mouse":[9,21,51,60,80,101,122,142,160,181,201,221,241,261,280,301,321,341,361,381,402,420,441,461,481,500,520,541,561,580,600,620,641,660,681,700,720,741,760,781,802,821,842,860,880,902,921,940,961,981,1001,1021,1040,1060,1080,1100,1121,1142,1161,1181,1200,1220,1241,1261,1281],"xSR":741.5,"ySR":469.95,"xT1":424.9,"yT1":0,"xT2":1058.1,"yT2":0,"toosoon":0,"cond_shown":"equaldotanddens","ratio_trial":900,"smaller_num":"18","larger_num":"20","correct_side":1,"subjID":"JUANANDRESLOPEZFLOREZ21","gender":"0","age":"9","school":"4"},{"start_time":1552309828004,"click_time":1552309829218,"finger_time":1552309828397,"fix_duration":845.5392307309762,"trial":33,"RT":393,"MT":821,"sideResp":2,"stimulus":"img/750/randomdotsizeEA/L/10_Ratio_750_L_4_R_3.png","xmouse":[776,775,775,775,775,775,775,775,775,775,775,775,775,775,775,774,773,768,760,748,716,693,663,620,501,448,416,402,400,399,399,399,399,398,395,394,394,394,394,394,394,394,394,394,394,394,394,394,394,394,437,455,475,497,531,635,700,773,855,988,1068],"ymouse":[493,492,492,492,492,492,492,492,492,492,492,492,492,492,492,492,490,486,477,460,420,394,361,326,261,241,235,234,234,234,235,235,235,235,224,220,216,214,210,194,187,182,178,176,175,175,175,175,175,175,194,205,210,212,207,164,136,103,73,33,3],"timestamp_mouse":[18,45,54,75,93,114,134,154,173,193,213,234,254,273,293,314,333,353,373,393,413,434,454,474,494,513,533,553,574,594,614,634,653,675,694,713,733,753,773,794,814,834,853,874,893,913,934,954,973,994,1014,1033,1054,1074,1094,1113,1134,1154,1173,1193,1214],"xSR":741.5,"ySR":469.95,"xT1":424.9,"yT1":0,"xT2":1058.1,"yT2":0,"toosoon":0,"cond_shown":"randomdotsizeEA","ratio_trial":750,"smaller_num":"3","larger_num":"4","correct_side":1,"subjID":"JUANANDRESLOPEZFLOREZ21","gender":"0","age":"9","school":"4"},{"start_time":1552309833155,"click_time":1552309834617,"finger_time":1552309833557,"fix_duration":1476.1338308285208,"trial":34,"RT":402,"MT":1060,"sideResp":2,"stimulus":"img/500/equaldotsize/R/2_Ratio_500_L_3_R_6.png","xmouse":[774,774,774,774,774,774,774,774,774,774,774,774,774,774,774,774,774,774,774,765,736,677,603,400,302,259,246,243,243,243,243,243,249,254,260,266,274,285,328,350,375,404,434,529,583,644,714,826,826,826,826,826,826,826,826,826,826,826,826,826,826,826,826,826,826,826,826,826,826,826,826,826,826,1088],"ymouse":[493,493,493,493,493,493,493,493,493,493,493,493,493,493,493,493,493,493,493,485,473,450,422,363,334,323,319,317,317,317,316,313,304,277,260,245,230,218,192,186,180,177,172,144,120,89,56,9,9,9,9,9,9,9,9,9,9,9,9,9,9,9,9,9,9,9,9,9,9,9,9,9,9,7],"timestamp_mouse":[13,22,44,62,83,103,123,142,163,182,203,223,243,263,283,302,323,342,364,382,402,423,443,463,482,502,522,543,562,582,603,622,643,662,682,703,723,742,762,785,802,823,842,863,882,903,922,943,962,982,1002,1022,1042,1062,1082,1103,1123,1142,1163,1182,1203,1223,1243,1262,1282,1303,1322,1343,1362,1384,1402,1422,1443,1462],"xSR":741.5,"ySR":469.95,"xT1":424.9,"yT1":0,"xT2":1058.1,"yT2":0,"toosoon":0,"cond_shown":"equaldotsize","ratio_trial":500,"smaller_num":"3","larger_num":"6","correct_side":2,"subjID":"JUANANDRESLOPEZFLOREZ21","gender":"0","age":"9","school":"4"},{"start_time":1552309836090,"click_time":1552309836777,"finger_time":1552309836658,"fix_duration":250,"trial":35,"RT":568,"MT":119,"sideResp":1,"stimulus":"img/250/randomdotsizeEA/L/5_Ratio_250_L_24_R_6.png","xmouse":[814,814,814,814,814,814,814,814,814,814,814,814,814,814,814,814,814,814,814,813,812,807,804,801,797,791,767,750,733,714,697,644,604,556,494],"ymouse":[536,536,536,536,536,536,536,536,536,536,536,536,536,536,536,536,536,536,536,535,532,523,516,512,506,498,484,474,464,452,439,381,314,212,84],"timestamp_mouse":[9,28,50,67,88,108,128,147,168,188,209,228,248,268,289,307,327,348,369,387,408,427,448,467,487,507,527,548,568,588,609,627,647,667,687],"xSR":741.5,"ySR":469.95,"xT1":424.9,"yT1":0,"xT2":1058.1,"yT2":0,"toosoon":0,"cond_shown":"randomdotsizeEA","ratio_trial":250,"smaller_num":"6","larger_num":"24","correct_side":1,"subjID":"JUANANDRESLOPEZFLOREZ21","gender":"0","age":"9","school":"4"},{"start_time":1552309839116,"click_time":1552309841498,"finger_time":1552309840018,"fix_duration":1137.9828051598258,"trial":36,"RT":902,"MT":1480,"sideResp":2,"stimulus":"img/900/randomdotsizeEA/R/6_Ratio_900_L_9_R_10.png","xmouse":[797,797,797,797,797,797,797,797,797,797,797,797,797,797,797,797,797,797,797,797,797,797,797,797,797,797,797,797,797,797,797,797,797,797,797,797,797,797,797,797,797,797,792,781,743,687,589,565,561,558,554,552,552,552,552,552,552,552,552,552,552,552,552,552,552,573,600,637,699,733,747,782,798,813,828,852,863,871,875,880,882,884,886,892,900,910,923,932,941,948,961,967,971,977,983,993,1008,1009,1013,1013,1014,1014,1014,1014,1015,1015,1026,1039,1045,1049,1051,1054,1054,1054,1054,1054,1054,1054,1055,1061],"ymouse":[511,511,511,511,511,511,511,511,511,511,511,511,511,511,511,511,511,511,511,511,511,511,511,511,511,511,511,511,511,511,511,511,511,511,511,511,511,511,511,511,511,511,506,501,482,457,406,391,388,384,376,374,372,372,372,372,372,372,371,369,366,362,361,360,359,354,346,336,316,297,288,253,240,230,223,206,196,191,188,185,184,184,184,184,184,182,177,171,165,161,154,150,147,142,136,128,115,114,111,111,110,110,110,110,110,110,106,101,98,95,92,90,89,89,89,89,89,89,87,85],"timestamp_mouse":[10,22,41,61,82,102,122,141,161,182,201,221,241,262,281,302,323,341,362,381,401,421,442,461,483,502,521,542,561,583,601,622,642,663,682,701,722,743,762,782,802,822,841,861,882,902,921,941,961,981,1003,1021,1042,1061,1081,1101,1121,1141,1162,1182,1202,1221,1241,1261,1282,1304,1321,1341,1361,1381,1402,1421,1441,1461,1482,1503,1521,1543,1563,1583,1601,1621,1641,1662,1681,1702,1721,1742,1761,1781,1803,1821,1842,1863,1883,1902,1921,1941,1962,1982,2001,2021,2041,2062,2082,2101,2121,2141,2161,2181,2202,2221,2243,2261,2281,2302,2321,2341,2362,2381],"xSR":741.5,"ySR":469.95,"xT1":424.9,"yT1":0,"xT2":1058.1,"yT2":0,"toosoon":0,"cond_shown":"randomdotsizeEA","ratio_trial":900,"smaller_num":"9","larger_num":"10","correct_side":2,"subjID":"JUANANDRESLOPEZFLOREZ21","gender":"0","age":"9","school":"4"},{"start_time":1552309843922,"click_time":1552309845197,"finger_time":1552309844438,"fix_duration":1202.1314220903635,"trial":37,"RT":516,"MT":759,"sideResp":2,"stimulus":"img/250/equaldotanddens/R/12_Ratio_250_L_5_R_20.png","xmouse":[770,770,770,770,770,770,770,770,770,770,770,770,770,770,770,769,768,767,766,764,763,763,763,763,763,771,777,785,793,799,811,818,830,849,867,913,925,941,954,963,977,977,977,977,977,977,977,977,977,977,977,977,977,977,977,977,977,977,977,977,977,977,977,1086],"ymouse":[519,519,519,519,519,519,519,519,519,519,519,519,519,519,518,515,512,509,505,500,494,492,488,483,472,456,445,434,422,414,395,385,372,358,345,295,268,230,189,149,45,21,21,21,21,21,21,21,21,21,21,21,21,21,21,21,21,21,21,21,21,21,21,8],"timestamp_mouse":[16,37,56,77,96,117,137,156,176,197,216,237,257,275,296,316,336,357,376,395,416,436,457,477,495,516,536,556,577,595,616,635,655,676,696,716,736,756,777,797,816,836,857,875,897,916,936,956,977,996,1016,1036,1057,1077,1097,1116,1137,1155,1177,1196,1216,1236,1256,1275],"xSR":741.5,"ySR":469.95,"xT1":424.9,"yT1":0,"xT2":1058.1,"yT2":0,"toosoon":0,"cond_shown":"equaldotanddens","ratio_trial":250,"smaller_num":"5","larger_num":"20","correct_side":2,"subjID":"JUANANDRESLOPEZFLOREZ21","gender":"0","age":"9","school":"4"},{"start_time":1552309848006,"click_time":1552309848919,"finger_time":1552309848477,"fix_duration":1346.7677087391648,"trial":38,"RT":471,"MT":442,"sideResp":1,"stimulus":"img/250/equaldotsize/L/5_Ratio_250_L_24_R_6.png","xmouse":[770,770,770,770,770,770,770,770,770,770,770,770,770,770,770,770,770,770,770,770,767,758,744,725,707,688,601,526,445,363,279,249,249,249,249,249,249,249,249,249,249,249,249,249,249,465],"ymouse":[509,509,509,509,509,509,509,509,509,509,509,509,509,509,509,509,509,507,502,496,490,481,473,465,458,449,401,339,268,186,74,18,18,18,18,18,18,18,18,18,18,18,18,18,18,2],"timestamp_mouse":[11,42,52,73,91,111,131,152,173,193,212,233,252,272,291,312,332,353,371,391,413,433,453,471,492,512,533,551,571,592,612,633,652,673,692,713,733,753,773,793,812,833,852,872,892,913],"xSR":741.5,"ySR":469.95,"xT1":424.9,"yT1":0,"xT2":1058.1,"yT2":0,"toosoon":0,"cond_shown":"equaldotsize","ratio_trial":250,"smaller_num":"6","larger_num":"24","correct_side":1,"subjID":"JUANANDRESLOPEZFLOREZ21","gender":"0","age":"9","school":"4"},{"start_time":1552309851280,"click_time":1552309852998,"finger_time":1552309851699,"fix_duration":1321.2890244735684,"trial":39,"RT":419,"MT":1299,"sideResp":2,"stimulus":"img/500/randomdotsizeEA/R/2_Ratio_500_L_3_R_6.png","xmouse":[811,811,811,811,811,811,811,811,811,811,811,811,811,811,811,811,811,810,788,770,743,706,655,542,481,465,458,457,457,457,457,462,480,562,608,649,685,718,775,802,831,869,896,943,949,951,952,953,954,955,955,958,963,981,986,990,993,996,999,1001,1005,1008,1011,1014,1019,1028,1041,1055,1078,1085,1088,1088,1088,1088,1088,1088,1088,1088,1088,1088,1089,1090,1091,1092,1092,1093],"ymouse":[499,499,499,499,499,499,499,499,499,499,499,499,499,499,499,499,499,498,480,470,450,420,378,281,243,234,230,229,229,229,229,231,236,248,248,248,248,244,221,204,186,164,151,120,111,105,100,98,96,94,94,94,92,85,81,77,73,70,66,65,63,62,62,62,62,71,80,92,108,110,111,111,111,111,111,111,111,111,111,111,110,106,105,103,102,98],"timestamp_mouse":[17,38,58,79,99,118,138,157,179,199,218,238,258,278,299,319,339,357,377,399,419,437,458,477,499,518,537,557,577,597,619,639,658,678,698,717,738,759,778,798,817,839,859,877,899,918,939,959,978,999,1018,1039,1057,1078,1098,1117,1138,1159,1178,1199,1218,1237,1258,1278,1298,1318,1339,1357,1378,1398,1418,1438,1458,1477,1497,1517,1538,1559,1579,1598,1618,1639,1658,1679,1698,1718],"xSR":741.5,"ySR":469.95,"xT1":424.9,"yT1":0,"xT2":1058.1,"yT2":0,"toosoon":0,"cond_shown":"randomdotsizeEA","ratio_trial":500,"smaller_num":"3","larger_num":"6","correct_side":2,"subjID":"JUANANDRESLOPEZFLOREZ21","gender":"0","age":"9","school":"4"},{"start_time":1552309854895,"click_time":1552309857299,"finger_time":1552309855698,"fix_duration":675.4749062560288,"trial":40,"RT":803,"MT":1601,"sideResp":1,"stimulus":"img/900/equaldotanddens/L/10_Ratio_900_L_20_R_18.png","xmouse":[766,766,766,766,766,766,766,766,766,766,766,766,766,766,766,766,766,766,766,766,766,766,766,766,766,766,766,766,766,766,766,766,766,766,766,764,764,764,764,764,767,769,772,772,772,772,772,772,772,772,772,772,772,772,772,772,772,772,772,772,772,772,772,772,767,763,758,755,753,750,750,749,749,749,749,749,748,742,713,695,684,674,671,668,659,649,633,613,578,569,567,567,566,554,540,518,493,473,445,429,424,409,401,395,393,393,393,393,393,401,411,416,417,418,419,420,422,424,427,432,435],"ymouse":[529,529,529,529,529,529,529,529,529,529,529,529,529,529,529,529,529,529,529,529,529,529,529,529,529,529,529,529,529,529,529,529,529,529,529,526,525,522,505,485,462,446,425,416,416,416,416,416,416,416,416,416,416,416,416,416,416,416,416,416,416,416,416,416,415,416,418,419,420,420,420,421,421,421,421,421,421,421,414,409,408,407,406,405,397,390,382,372,359,356,355,355,354,332,308,281,253,231,197,171,163,138,129,123,121,121,121,121,121,121,121,121,121,121,121,120,118,114,111,103,97],"timestamp_mouse":[9,40,43,63,83,103,123,144,162,182,204,224,243,262,283,303,324,343,364,383,404,423,443,463,484,504,523,543,563,582,604,624,643,663,682,703,724,744,763,782,803,823,843,864,882,902,924,943,964,983,1002,1023,1042,1062,1083,1103,1124,1143,1163,1182,1202,1223,1243,1264,1282,1302,1323,1344,1364,1384,1403,1422,1443,1462,1483,1503,1523,1542,1565,1583,1603,1622,1644,1664,1683,1703,1724,1743,1764,1782,1802,1823,1843,1864,1882,1903,1923,1943,1964,1982,2003,2022,2043,2063,2083,2103,2123,2143,2162,2182,2203,2223,2244,2263,2283,2304,2323,2344,2363,2383,2403],"xSR":741.5,"ySR":469.95,"xT1":424.9,"yT1":0,"xT2":1058.1,"yT2":0,"toosoon":0,"cond_shown":"equaldotanddens","ratio_trial":900,"smaller_num":"18","larger_num":"20","correct_side":1,"subjID":"JUANANDRESLOPEZFLOREZ21","gender":"0","age":"9","school":"4"},{"start_time":1552309859167,"click_time":1552309860478,"finger_time":1552309859978,"fix_duration":426.3308385713932,"trial":41,"RT":811,"MT":500,"sideResp":2,"stimulus":"img/250/randomdotsizeEA/R/13_Ratio_250_L_2_R_8.png","xmouse":[810,810,810,805,797,789,784,783,783,783,783,783,783,783,783,783,783,783,783,782,781,780,780,779,779,778,778,778,778,778,778,778,778,778,778,778,778,778,778,780,785,789,793,799,806,831,844,856,871,883,912,919,930,936,939,946,956,966,977,988,1010,1022,1035,1048,1058,1077],"ymouse":[513,513,513,513,510,509,508,508,508,508,508,508,508,508,508,508,508,508,508,508,505,502,500,498,496,494,493,493,493,493,493,493,493,493,493,493,493,490,487,477,453,439,427,410,392,346,334,322,309,298,270,261,256,252,251,244,226,209,191,171,130,113,95,77,64,44],"timestamp_mouse":[13,44,51,71,91,112,131,150,171,191,211,230,251,271,291,311,331,352,371,392,411,431,450,472,492,512,531,552,572,590,612,631,651,671,691,710,731,750,771,790,811,831,851,871,892,911,931,950,970,991,1011,1032,1051,1070,1091,1110,1132,1152,1171,1191,1210,1230,1250,1270,1290,1311],"xSR":741.5,"ySR":469.95,"xT1":424.9,"yT1":0,"xT2":1058.1,"yT2":0,"toosoon":0,"cond_shown":"randomdotsizeEA","ratio_trial":250,"smaller_num":"2","larger_num":"8","correct_side":2,"subjID":"JUANANDRESLOPEZFLOREZ21","gender":"0","age":"9","school":"4"},{"start_time":1552309862421,"click_time":1552309863779,"finger_time":1552309863039,"fix_duration":683.1949905803903,"trial":42,"RT":618,"MT":740,"sideResp":1,"stimulus":"img/250/equaldotsize/L/14_Ratio_250_L_12_R_3.png","xmouse":[793,793,793,793,793,793,793,793,793,793,793,793,793,793,793,793,793,793,793,793,789,784,768,766,765,765,765,763,756,744,727,707,635,608,589,578,571,562,559,558,556,555,550,548,542,537,533,528,509,493,476,454,432,426,425,425,425,425,425,425,425,432,440,441,442,442,442,443],"ymouse":[533,533,533,533,533,533,533,533,533,533,533,533,533,533,533,533,533,533,533,533,531,528,514,512,512,512,512,510,502,490,472,455,390,369,355,345,339,331,328,325,322,319,303,292,274,254,233,217,185,171,161,155,148,147,146,146,146,146,146,146,145,141,131,123,116,110,104,96],"timestamp_mouse":[17,46,58,77,98,117,137,157,178,198,217,237,258,278,298,317,337,358,378,398,417,436,457,478,496,517,538,556,577,597,618,636,657,677,698,717,738,757,776,796,817,837,857,876,896,917,938,957,978,997,1018,1036,1057,1078,1097,1117,1137,1157,1177,1196,1218,1237,1258,1276,1297,1318,1337,1358],"xSR":741.5,"ySR":469.95,"xT1":424.9,"yT1":0,"xT2":1058.1,"yT2":0,"toosoon":0,"cond_shown":"equaldotsize","ratio_trial":250,"smaller_num":"3","larger_num":"12","correct_side":1,"subjID":"JUANANDRESLOPEZFLOREZ21","gender":"0","age":"9","school":"4"},{"start_time":1552309866471,"click_time":1552309868698,"finger_time":1552309868098,"fix_duration":250,"trial":43,"RT":1627,"MT":600,"sideResp":2,"stimulus":"img/900/randomdotsizeEA/R/15_Ratio_900_L_9_R_10.png","xmouse":[813,813,813,813,813,813,813,813,813,813,813,813,813,813,813,813,813,813,813,813,813,813,813,813,813,813,813,813,813,813,813,813,813,813,813,813,813,813,813,813,813,813,813,813,813,813,813,813,813,813,813,813,813,813,813,813,813,813,813,813,813,813,813,813,813,813,813,813,813,813,813,813,813,813,813,813,809,809,809,809,809,817,820,825,828,833,843,858,871,884,900,932,944,953,963,970,984,990,994,995,996,1001,1006,1013,1019,1026,1035,1035,1036,1039,1046,1066],"ymouse":[549,549,549,549,549,549,549,549,549,549,549,549,549,549,549,549,549,549,549,549,549,549,549,549,549,549,549,549,549,549,549,549,549,549,549,549,549,549,549,549,549,549,549,549,549,549,549,549,549,549,549,549,549,549,549,549,549,549,549,549,549,549,549,549,549,549,549,549,549,549,549,549,549,549,549,549,539,529,517,502,487,454,442,433,429,424,410,389,372,355,337,306,287,270,249,232,202,187,182,178,175,166,158,150,140,132,119,118,116,111,102,72],"timestamp_mouse":[14,36,46,67,88,108,127,148,166,188,208,226,248,267,286,307,327,346,368,387,406,428,446,467,488,507,526,548,566,586,608,628,646,668,687,707,726,747,766,786,808,826,848,866,886,906,927,948,968,987,1007,1027,1046,1067,1088,1106,1127,1148,1166,1186,1207,1226,1248,1268,1286,1308,1328,1347,1367,1387,1408,1427,1447,1466,1486,1508,1527,1547,1566,1587,1607,1627,1646,1667,1687,1708,1726,1747,1766,1787,1808,1826,1847,1866,1887,1906,1927,1947,1966,1986,2008,2027,2047,2067,2087,2106,2127,2147,2166,2188,2207,2227],"xSR":741.5,"ySR":469.95,"xT1":424.9,"yT1":0,"xT2":1058.1,"yT2":0,"toosoon":0,"cond_shown":"randomdotsizeEA","ratio_trial":900,"smaller_num":"9","larger_num":"10","correct_side":2,"subjID":"JUANANDRESLOPEZFLOREZ21","gender":"0","age":"9","school":"4"},{"start_time":1552309871633,"click_time":1552309872979,"finger_time":1552309872238,"fix_duration":313.66876123073706,"trial":44,"RT":605,"MT":741,"sideResp":1,"stimulus":"img/900/randomdotsizeEA/L/10_Ratio_900_L_20_R_18.png","xmouse":[784,784,784,784,784,784,784,784,784,784,784,784,784,784,784,784,784,784,784,784,784,784,784,784,784,784,784,784,784,771,668,491,268,0,0,0,0,0,0,0,0,0,0,0,0,0,0,0,0,0,0,0,0,0,0,532,547,549,549,549,547,546,544,543,542,540,536,518],"ymouse":[561,561,561,561,561,561,561,561,561,561,561,561,561,561,561,561,561,561,561,561,561,561,561,561,561,561,561,561,561,561,497,395,268,25,25,25,25,25,25,25,25,25,25,25,25,25,25,25,25,25,25,25,25,25,25,6,11,12,12,13,13,14,16,17,17,17,17,19],"timestamp_mouse":[9,25,49,65,85,106,126,144,164,185,205,225,246,266,286,305,325,346,366,384,406,425,446,465,484,506,526,546,565,585,605,626,646,665,685,704,724,744,765,786,805,826,845,865,885,905,926,946,965,986,1005,1026,1045,1066,1086,1105,1125,1146,1166,1185,1206,1225,1246,1265,1285,1305,1325,1346],"xSR":741.5,"ySR":469.95,"xT1":424.9,"yT1":0,"xT2":1058.1,"yT2":0,"toosoon":0,"cond_shown":"randomdotsizeEA","ratio_trial":900,"smaller_num":"18","larger_num":"20","correct_side":1,"subjID":"JUANANDRESLOPEZFLOREZ21","gender":"0","age":"9","school":"4"},{"start_time":1552309874830,"click_time":1552309875957,"finger_time":1552309875298,"fix_duration":351.5419210805981,"trial":45,"RT":468,"MT":659,"sideResp":1,"stimulus":"img/750/equaldotanddens/L/6_Ratio_750_L_24_R_18.png","xmouse":[794,794,794,794,794,794,794,794,794,794,794,794,794,794,794,794,794,794,794,794,794,794,793,785,754,723,578,432,280,50,0,0,0,0,21,49,100,132,158,193,199,200,202,213,239,252,296,325,345,366,371,374,376,381,406,417,429],"ymouse":[496,496,496,496,496,496,496,496,496,496,496,496,496,496,496,496,496,496,496,496,496,483,474,453,411,393,343,306,276,244,233,221,210,189,136,107,90,86,82,80,80,80,80,79,83,85,93,95,95,95,95,93,93,92,81,75,71],"timestamp_mouse":[10,43,48,69,88,107,129,149,168,188,208,228,248,269,289,307,328,348,369,393,409,427,447,468,488,507,528,549,567,587,607,628,648,668,688,708,729,748,769,788,808,828,849,870,888,908,928,947,969,988,1008,1028,1049,1068,1087,1108,1127],"xSR":741.5,"ySR":469.95,"xT1":424.9,"yT1":0,"xT2":1058.1,"yT2":0,"toosoon":0,"cond_shown":"equaldotanddens","ratio_trial":750,"smaller_num":"18","larger_num":"24","correct_side":1,"subjID":"JUANANDRESLOPEZFLOREZ21","gender":"0","age":"9","school":"4"},{"start_time":1552309877570,"click_time":1552309878418,"finger_time":1552309877917,"fix_duration":471.6461361657441,"trial":46,"RT":347,"MT":501,"sideResp":2,"stimulus":"img/250/randomdotsizeEA/R/6_Ratio_250_L_6_R_24.png","xmouse":[795,794,794,794,794,794,794,794,794,794,794,794,794,792,788,782,774,737,713,705,703,703,703,702,702,706,715,762,789,822,854,883,928,943,954,961,975,1024,1049,1076,1093,1107,1123],"ymouse":[530,530,530,530,530,530,530,530,530,530,530,530,530,528,524,517,509,480,461,455,454,454,454,452,446,437,422,376,357,337,323,314,298,290,281,273,260,222,196,168,144,118,71],"timestamp_mouse":[10,29,48,68,89,109,129,149,168,187,208,228,247,267,288,309,328,347,367,388,408,428,449,469,488,507,527,548,568,588,609,628,648,669,687,709,728,748,768,788,809,829,848],"xSR":741.5,"ySR":469.95,"xT1":424.9,"yT1":0,"xT2":1058.1,"yT2":0,"toosoon":0,"cond_shown":"randomdotsizeEA","ratio_trial":250,"smaller_num":"6","larger_num":"24","correct_side":2,"subjID":"JUANANDRESLOPEZFLOREZ21","gender":"0","age":"9","school":"4"},{"start_time":1552309880308,"click_time":1552309881378,"finger_time":1552309880677,"fix_duration":966.5035862341305,"trial":47,"RT":369,"MT":701,"sideResp":1,"stimulus":"img/900/equaldotsize/R/6_Ratio_900_L_9_R_10.png","xmouse":[763,763,763,762,759,753,752,752,752,752,751,751,751,751,751,751,750,748,739,735,708,693,678,662,647,614,598,588,580,570,557,549,540,534,526,514,508,503,502,498,492,491,491,491,491,491,491,491,491,491,491,491,491,489],"ymouse":[490,490,490,488,483,476,475,475,475,475,475,475,475,475,475,475,473,470,460,454,421,405,390,375,360,324,306,291,279,265,246,236,221,207,190,162,148,138,129,122,106,104,104,104,104,104,104,104,104,104,104,104,102,94],"timestamp_mouse":[19,43,50,70,89,110,131,149,169,191,210,230,251,270,289,310,329,351,369,390,410,429,449,471,491,511,529,550,570,589,610,631,651,670,690,711,729,749,769,790,810,829,850,870,890,910,931,950,969,989,1011,1029,1050,1070],"xSR":741.5,"ySR":469.95,"xT1":424.9,"yT1":0,"xT2":1058.1,"yT2":0,"toosoon":0,"cond_shown":"equaldotsize","ratio_trial":900,"smaller_num":"9","larger_num":"10","correct_side":2,"subjID":"JUANANDRESLOPEZFLOREZ21","gender":"0","age":"9","school":"4"},{"start_time":1552309883085,"click_time":1552309884037,"finger_time":1552309883637,"fix_duration":625.415614474304,"trial":48,"RT":552,"MT":400,"sideResp":2,"stimulus":"img/750/randomdotsizeEA/R/11_Ratio_750_L_12_R_16.png","xmouse":[792,792,792,792,792,792,792,790,790,790,790,790,790,790,790,790,790,790,790,790,790,790,790,791,793,794,798,800,803,806,822,879,926,978,1039,1081,1107,1124,1125,1130,1136,1154,1161,1166,1168,1168,1167,1150],"ymouse":[515,515,515,515,515,515,514,512,510,510,510,510,510,510,510,510,510,510,509,504,500,494,492,488,485,481,472,468,462,459,441,386,350,314,269,238,215,189,188,184,181,171,162,152,142,131,123,98],"timestamp_mouse":[12,32,53,73,93,114,134,153,173,193,213,234,253,274,292,312,334,352,372,394,412,434,453,474,494,514,534,552,573,592,613,634,652,672,692,713,733,752,773,792,812,834,853,874,894,913,933,952],"xSR":741.5,"ySR":469.95,"xT1":424.9,"yT1":0,"xT2":1058.1,"yT2":0,"toosoon":0,"cond_shown":"randomdotsizeEA","ratio_trial":750,"smaller_num":"12","larger_num":"16","correct_side":2,"subjID":"JUANANDRESLOPEZFLOREZ21","gender":"0","age":"9","school":"4"},{"start_time":1552309887024,"click_time":1552309888138,"finger_time":1552309887478,"fix_duration":783.9341518402158,"trial":49,"RT":454,"MT":660,"sideResp":1,"stimulus":"img/750/equaldotanddens/L/1_Ratio_750_L_20_R_15.png","xmouse":[769,769,769,769,769,769,769,769,769,769,769,769,769,769,769,769,769,769,769,769,765,748,725,688,637,557,531,509,485,469,431,423,421,420,419,419,419,416,411,408,405,405,408,411,411,411,411,411,411,411,411,411,411,411,411,428],"ymouse":[505,505,505,505,505,505,505,505,505,505,505,505,505,505,505,505,505,505,505,505,501,489,478,460,438,407,393,377,358,338,294,282,276,271,265,234,214,190,167,143,77,49,25,3,3,3,3,3,3,3,3,3,3,3,3,17],"timestamp_mouse":[14,39,54,74,93,113,133,153,174,193,214,233,253,275,295,315,333,355,374,394,413,433,454,474,494,514,533,554,573,595,614,635,654,673,694,713,733,753,774,795,815,833,854,874,895,914,933,955,974,994,1014,1035,1055,1075,1095,1114],"xSR":741.5,"ySR":469.95,"xT1":424.9,"yT1":0,"xT2":1058.1,"yT2":0,"toosoon":0,"cond_shown":"equaldotanddens","ratio_trial":750,"smaller_num":"15","larger_num":"20","correct_side":1,"subjID":"JUANANDRESLOPEZFLOREZ21","gender":"0","age":"9","school":"4"},{"start_time":1552309889701,"click_time":1552309890718,"finger_time":1552309890198,"fix_duration":340.8568822031821,"trial":50,"RT":497,"MT":520,"sideResp":2,"stimulus":"img/750/equaldotanddens/R/11_Ratio_750_L_12_R_16.png","xmouse":[802,803,803,803,803,803,803,803,803,803,803,803,803,803,803,803,803,803,803,803,804,813,821,826,830,836,842,865,884,927,978,1084,1120,1138,1146,1149,1150,1150,1150,1150,1150,1150,1149,1145,1142,1136,1134,1133,1132,1131,1130],"ymouse":[510,510,508,508,508,508,508,508,508,508,508,508,508,508,508,508,508,508,508,508,502,488,478,470,464,452,443,410,381,321,260,172,154,143,134,132,130,130,130,130,130,126,122,115,113,108,107,106,105,100,97],"timestamp_mouse":[16,39,57,77,97,116,137,158,176,198,217,238,258,276,296,317,337,357,377,396,417,437,456,477,497,517,537,556,576,597,618,637,656,677,696,717,737,756,776,796,817,838,856,877,897,916,938,956,977,996,1017],"xSR":741.5,"ySR":469.95,"xT1":424.9,"yT1":0,"xT2":1058.1,"yT2":0,"toosoon":0,"cond_shown":"equaldotanddens","ratio_trial":750,"smaller_num":"12","larger_num":"16","correct_side":2,"subjID":"JUANANDRESLOPEZFLOREZ21","gender":"0","age":"9","school":"4"},{"start_time":1552309892244,"click_time":1552309893758,"finger_time":1552309892659,"fix_duration":285.8332799625343,"trial":51,"RT":415,"MT":1099,"sideResp":1,"stimulus":"img/750/equaldotanddens/R/12_Ratio_750_L_3_R_4.png","xmouse":[799,798,798,797,796,793,790,788,788,788,788,788,788,788,788,788,788,788,788,786,785,785,787,796,807,846,887,957,1003,1029,1029,1029,1029,1034,1040,1045,1045,1045,1045,1045,1045,1045,1045,1045,1045,1039,1021,983,937,873,718,617,513,423,366,334,334,334,334,334,334,335,340,353,370,398,406,409,412,413,413,415,416,418,426,456],"ymouse":[499,497,497,495,493,487,483,480,480,480,480,480,480,480,480,480,480,480,480,476,460,447,432,416,397,333,278,203,164,143,143,143,143,143,143,143,143,143,143,143,143,143,143,143,143,143,147,159,171,182,196,196,188,175,167,161,161,161,161,161,161,160,155,149,143,131,124,121,118,116,115,114,113,112,110,97],"timestamp_mouse":[13,43,53,75,94,115,135,155,174,194,215,234,253,275,295,314,333,355,375,393,415,434,454,475,494,513,535,553,574,596,613,633,655,675,694,715,734,755,773,794,814,835,855,875,894,913,934,954,974,994,1014,1034,1054,1075,1094,1114,1133,1154,1173,1194,1214,1233,1253,1273,1294,1314,1334,1354,1374,1394,1414,1435,1454,1474,1494,1513],"xSR":741.5,"ySR":469.95,"xT1":424.9,"yT1":0,"xT2":1058.1,"yT2":0,"toosoon":0,"cond_shown":"equaldotanddens","ratio_trial":750,"smaller_num":"3","larger_num":"4","correct_side":2,"subjID":"JUANANDRESLOPEZFLOREZ21","gender":"0","age":"9","school":"4"},{"start_time":1552309895391,"click_time":1552309896318,"finger_time":1552309895857,"fix_duration":530.6618775625947,"trial":52,"RT":466,"MT":461,"sideResp":1,"stimulus":"img/750/randomdotsizeEA/L/6_Ratio_750_L_24_R_18.png","xmouse":[779,779,779,779,779,779,779,779,779,779,779,775,774,769,767,767,767,767,767,767,767,765,760,728,693,648,607,574,526,513,498,481,468,452,452,452,452,452,452,452,452,452,453,453,453,453,454],"ymouse":[485,485,485,485,485,485,485,485,485,485,485,480,479,476,475,475,475,475,475,475,475,475,470,443,422,396,371,347,291,261,224,186,154,125,124,124,124,124,124,122,121,120,117,107,103,100,98],"timestamp_mouse":[19,28,49,68,87,107,126,147,166,187,207,226,248,267,287,306,327,348,367,388,407,426,448,466,486,507,527,547,567,588,607,627,646,666,686,707,728,746,766,786,807,828,848,867,886,908,927],"xSR":741.5,"ySR":469.95,"xT1":424.9,"yT1":0,"xT2":1058.1,"yT2":0,"toosoon":0,"cond_shown":"randomdotsizeEA","ratio_trial":750,"smaller_num":"18","larger_num":"24","correct_side":1,"subjID":"JUANANDRESLOPEZFLOREZ21","gender":"0","age":"9","school":"4"},{"start_time":1552309900731,"click_time":1552309901360,"finger_time":1552309901257,"fix_duration":1071.057354503259,"trial":53,"RT":526,"MT":103,"sideResp":1,"stimulus":"img/250/equaldotsize/L/3_Ratio_250_L_8_R_2.png","xmouse":[791,791,791,791,791,791,791,791,791,791,791,791,791,791,791,791,791,791,791,791,791,790,788,785,779,772,761,714,644,590,543,450],"ymouse":[517,517,517,517,517,517,517,517,517,517,517,517,517,517,517,517,517,517,517,515,511,502,497,492,484,477,468,438,382,322,247,77],"timestamp_mouse":[10,28,47,67,88,107,127,146,167,188,207,227,246,266,287,307,327,348,366,386,406,428,447,467,487,507,526,546,567,587,607,629],"xSR":741.5,"ySR":469.95,"xT1":424.9,"yT1":0,"xT2":1058.1,"yT2":0,"toosoon":0,"cond_shown":"equaldotsize","ratio_trial":250,"smaller_num":"2","larger_num":"8","correct_side":1,"subjID":"JUANANDRESLOPEZFLOREZ21","gender":"0","age":"9","school":"4"},{"start_time":1552309902712,"click_time":1552309903899,"finger_time":1552309903197,"fix_duration":250,"trial":54,"RT":485,"MT":702,"sideResp":2,"stimulus":"img/900/equaldotanddens/R/15_Ratio_900_L_9_R_10.png","xmouse":[820,820,820,813,813,813,813,813,813,813,813,813,813,813,813,813,813,813,813,813,809,805,790,747,709,674,654,638,634,634,634,634,633,652,679,721,772,827,892,915,929,946,952,985,1003,1021,1038,1053,1078,1081,1084,1086,1086,1091,1092,1093,1094,1095,1098,1099],"ymouse":[543,543,543,565,565,565,565,565,565,565,565,565,565,565,565,565,565,565,565,565,562,554,534,493,468,448,436,428,424,424,424,424,424,415,406,393,379,363,337,322,312,299,295,271,259,246,231,218,193,185,178,174,170,160,155,148,139,129,108,95],"timestamp_mouse":[6,38,46,66,86,105,127,147,165,185,207,227,246,266,287,306,326,346,365,386,405,426,447,467,485,505,526,546,566,585,607,625,647,666,687,706,727,746,765,786,806,826,846,866,886,907,926,946,966,986,1006,1026,1047,1066,1086,1106,1126,1147,1165,1187],"xSR":741.5,"ySR":469.95,"xT1":424.9,"yT1":0,"xT2":1058.1,"yT2":0,"toosoon":0,"cond_shown":"equaldotanddens","ratio_trial":900,"smaller_num":"9","larger_num":"10","correct_side":2,"subjID":"JUANANDRESLOPEZFLOREZ21","gender":"0","age":"9","school":"4"},{"start_time":1552309905813,"click_time":1552309906838,"finger_time":1552309906418,"fix_duration":1012.9738213704182,"trial":55,"RT":605,"MT":420,"sideResp":2,"stimulus":"img/500/equaldotanddens/R/1_Ratio_500_L_9_R_18.png","xmouse":[801,801,801,801,801,801,801,801,801,801,801,801,801,801,801,801,801,801,801,801,801,801,801,801,801,804,809,811,822,831,843,856,869,896,905,915,925,939,954,962,967,969,972,975,975,975,975,975,989,1009,1036,1074],"ymouse":[558,558,558,558,558,558,558,558,558,558,558,558,558,558,558,558,558,558,558,558,558,558,558,558,558,545,537,532,511,491,470,451,434,411,399,377,347,293,186,140,101,67,31,3,3,3,3,3,4,15,27,42],"timestamp_mouse":[10,26,46,65,84,104,126,145,166,185,205,225,245,266,285,304,324,346,364,386,406,424,444,465,486,506,526,546,564,586,605,626,645,666,686,704,724,745,766,786,806,825,844,865,884,904,925,945,966,985,1005,1025],"xSR":741.5,"ySR":469.95,"xT1":424.9,"yT1":0,"xT2":1058.1,"yT2":0,"toosoon":0,"cond_shown":"equaldotanddens","ratio_trial":500,"smaller_num":"9","larger_num":"18","correct_side":2,"subjID":"JUANANDRESLOPEZFLOREZ21","gender":"0","age":"9","school":"4"},{"start_time":1552309910538,"click_time":1552309911438,"finger_time":1552309910839,"fix_duration":317.2224822402662,"trial":56,"RT":301,"MT":599,"sideResp":2,"stimulus":"img/500/equaldotsize/R/1_Ratio_500_L_9_R_18.png","xmouse":[769,769,769,769,769,769,769,769,769,770,771,773,777,780,784,789,794,802,819,827,833,839,844,858,862,865,871,876,895,908,925,944,960,984,994,997,998,999,999,999,999,999,1004,1025,1055,1083],"ymouse":[494,494,494,494,494,494,494,494,494,493,492,486,480,476,473,468,462,456,444,437,433,428,424,410,406,402,394,386,357,337,313,283,261,221,202,195,190,188,188,188,188,186,180,153,115,78],"timestamp_mouse":[1,20,44,60,80,99,120,141,160,179,201,221,241,259,281,301,321,340,360,380,399,419,439,459,480,500,520,541,559,580,600,621,640,659,679,700,720,741,761,780,799,820,840,859,880,899],"xSR":741.5,"ySR":469.95,"xT1":424.9,"yT1":0,"xT2":1058.1,"yT2":0,"toosoon":0,"cond_shown":"equaldotsize","ratio_trial":500,"smaller_num":"9","larger_num":"18","correct_side":2,"subjID":"JUANANDRESLOPEZFLOREZ21","gender":"0","age":"9","school":"4"},{"start_time":1552309929030,"click_time":1552309930059,"finger_time":1552309929557,"fix_duration":250,"trial":57,"RT":527,"MT":502,"sideResp":2,"stimulus":"img/900/equaldotsize/L/2_Ratio_900_L_20_R_18.png","xmouse":[798,798,798,798,798,798,798,798,798,798,798,798,798,798,798,798,798,798,798,798,798,798,798,798,798,814,827,849,868,881,892,898,908,922,938,983,1003,1022,1036,1052,1084,1108,1121,1128,1131,1133,1133,1133,1133,1133,1130,1128],"ymouse":[537,536,536,536,536,536,536,536,536,536,536,536,536,536,536,536,536,536,536,536,536,536,536,535,530,491,466,437,419,409,402,399,397,395,389,366,350,331,309,284,233,200,181,163,152,133,128,122,117,113,101,86],"timestamp_mouse":[14,28,48,68,87,108,128,149,167,187,209,229,247,268,289,308,328,349,367,388,408,427,448,469,489,508,527,547,567,587,607,628,648,668,689,708,727,749,768,789,807,827,847,868,889,907,928,947,968,988,1007,1029],"xSR":741.5,"ySR":469.95,"xT1":424.9,"yT1":0,"xT2":1058.1,"yT2":0,"toosoon":0,"cond_shown":"equaldotsize","ratio_trial":900,"smaller_num":"18","larger_num":"20","correct_side":1,"subjID":"JUANANDRESLOPEZFLOREZ21","gender":"0","age":"9","school":"4"},{"start_time":1552309943441,"click_time":1552309944677,"finger_time":1552309944018,"fix_duration":360.858205392081,"trial":58,"RT":577,"MT":659,"sideResp":1,"stimulus":"img/750/randomdotsizeEA/L/13_Ratio_750_L_8_R_6.png","xmouse":[838,838,838,838,838,838,838,838,838,838,838,838,838,838,838,838,838,838,838,838,838,838,838,838,838,838,838,840,844,850,861,864,867,867,867,867,866,824,732,625,500,296,231,211,213,226,232,238,243,248,255,280,297,329,350,386,386,386,386,386,386,440],"ymouse":[505,505,505,505,505,505,505,505,505,505,505,505,505,505,505,505,505,505,505,505,505,505,505,505,505,505,505,505,505,502,494,490,486,484,484,484,484,464,425,381,319,212,171,144,134,111,98,83,69,56,44,27,22,15,12,1,1,1,1,1,1,7],"timestamp_mouse":[16,36,58,76,97,117,136,156,178,197,217,237,256,277,296,318,338,356,377,398,418,436,456,477,498,517,536,556,577,596,619,640,657,676,696,718,737,757,776,797,818,837,857,878,896,918,937,958,976,998,1017,1038,1056,1076,1097,1119,1136,1157,1178,1197,1217,1236],"xSR":741.5,"ySR":469.95,"xT1":424.9,"yT1":0,"xT2":1058.1,"yT2":0,"toosoon":0,"cond_shown":"randomdotsizeEA","ratio_trial":750,"smaller_num":"6","larger_num":"8","correct_side":1,"subjID":"JUANANDRESLOPEZFLOREZ21","gender":"0","age":"9","school":"4"},{"start_time":1552309947918,"click_time":1552309948718,"finger_time":1552309948299,"fix_duration":759.585725885373,"trial":59,"RT":381,"MT":419,"sideResp":1,"stimulus":"img/900/randomdotsizeEA/R/6_Ratio_900_L_9_R_10.png","xmouse":[806,806,806,804,794,785,772,762,756,756,756,756,756,756,756,756,756,759,776,784,789,792,793,792,785,775,760,740,676,639,603,574,553,535,533,531,528,524,516,501,494],"ymouse":[533,533,533,532,526,520,513,509,506,506,506,506,506,506,506,503,501,496,472,460,448,438,429,417,407,398,386,376,348,333,316,300,284,254,237,224,206,188,156,105,79],"timestamp_mouse":[1,19,40,60,80,99,119,140,159,180,200,221,240,259,280,299,319,339,360,381,399,420,440,459,481,500,520,541,560,580,600,621,640,659,681,701,720,740,759,780,800],"xSR":741.5,"ySR":469.95,"xT1":424.9,"yT1":0,"xT2":1058.1,"yT2":0,"toosoon":0,"cond_shown":"randomdotsizeEA","ratio_trial":900,"smaller_num":"9","larger_num":"10","correct_side":2,"subjID":"JUANANDRESLOPEZFLOREZ21","gender":"0","age":"9","school":"4"},{"start_time":1552309949862,"click_time":1552309951438,"finger_time":1552309950318,"fix_duration":301.884824639687,"trial":60,"RT":456,"MT":1120,"sideResp":1,"stimulus":"img/250/randomdotsizeEA/L/15_Ratio_250_L_12_R_3.png","xmouse":[825,825,825,825,825,825,825,825,825,825,825,825,825,825,825,825,825,825,821,803,765,747,736,729,725,720,718,716,713,708,677,655,633,609,594,574,569,566,560,557,555,555,555,555,555,555,555,555,555,554,553,548,545,542,539,536,531,527,524,520,498,493,492,492,491,489,489,489,489,489,489,489,488,486,486,483,482,482,481],"ymouse":[532,532,532,532,532,532,532,532,532,532,532,532,532,532,532,532,532,532,529,515,493,483,478,475,473,471,469,467,464,456,413,381,348,315,288,242,223,206,195,189,187,187,187,187,187,187,187,187,187,187,187,181,177,173,169,165,159,154,150,147,137,134,133,133,131,128,128,128,128,128,128,125,121,115,110,102,101,101,98],"timestamp_mouse":[17,38,56,76,96,115,137,157,176,197,216,235,256,277,297,316,336,357,376,397,416,436,456,475,496,517,535,556,575,595,616,635,655,676,697,716,736,756,776,795,815,835,856,876,896,916,936,955,975,995,1016,1037,1055,1076,1096,1116,1135,1155,1175,1196,1216,1235,1256,1276,1297,1316,1336,1356,1377,1396,1417,1436,1457,1475,1496,1516,1535,1556,1576],"xSR":741.5,"ySR":469.95,"xT1":424.9,"yT1":0,"xT2":1058.1,"yT2":0,"toosoon":0,"cond_shown":"randomdotsizeEA","ratio_trial":250,"smaller_num":"3","larger_num":"12","correct_side":1,"subjID":"JUANANDRESLOPEZFLOREZ21","gender":"0","age":"9","school":"4"},{"start_time":1552309953066,"click_time":1552309954638,"finger_time":1552309953679,"fix_duration":785.891032796841,"trial":61,"RT":613,"MT":959,"sideResp":2,"stimulus":"img/750/equaldotanddens/R/3_Ratio_750_L_15_R_20.png","xmouse":[772,772,772,772,772,772,772,772,772,772,772,772,772,772,772,772,772,772,772,772,772,772,772,772,772,772,772,772,772,764,727,710,691,675,659,649,637,636,636,635,626,615,605,595,584,577,576,576,576,579,586,648,702,762,841,922,1021,1021,1021,1021,1021,1021,1021,1021,1021,1021,1021,1021,1300,1288,1275,1249,1237,1222,1212,1205,1189,1168,1154],"ymouse":[534,534,534,534,534,534,534,534,534,534,534,534,534,534,534,534,534,534,534,534,534,534,534,534,534,534,534,534,534,526,489,473,456,442,431,422,413,412,412,410,387,370,353,336,321,314,313,313,313,314,319,339,343,336,278,174,33,33,33,33,33,33,33,33,33,33,33,33,2,19,37,71,84,91,94,94,92,84,78],"timestamp_mouse":[11,31,60,71,93,111,132,153,171,193,212,232,251,272,293,311,331,353,372,392,413,431,451,472,492,511,532,552,573,593,613,631,651,672,692,712,732,752,772,793,813,831,852,872,891,911,932,952,972,991,1011,1031,1052,1072,1091,1111,1131,1151,1172,1192,1213,1231,1252,1272,1292,1313,1332,1352,1372,1392,1412,1432,1451,1472,1491,1513,1531,1552,1572],"xSR":741.5,"ySR":469.95,"xT1":424.9,"yT1":0,"xT2":1058.1,"yT2":0,"toosoon":0,"cond_shown":"equaldotanddens","ratio_trial":750,"smaller_num":"15","larger_num":"20","correct_side":2,"subjID":"JUANANDRESLOPEZFLOREZ21","gender":"0","age":"9","school":"4"},{"start_time":1552309956431,"click_time":1552309957698,"finger_time":1552309957097,"fix_duration":250,"trial":62,"RT":666,"MT":601,"sideResp":2,"stimulus":"img/500/equaldotanddens/R/3_Ratio_500_L_10_R_20.png","xmouse":[767,767,767,767,767,767,767,767,767,767,767,767,767,767,767,767,767,767,767,767,767,767,767,767,767,767,767,767,767,772,781,788,801,832,846,858,871,891,917,936,950,972,996,1043,1061,1069,1070,1070,1075,1086,1097,1104,1107,1109,1112,1117,1120,1122,1122,1116,1108,1096,1084,1071],"ymouse":[516,516,516,516,516,516,516,516,516,516,514,514,514,514,514,514,514,514,514,514,514,514,514,514,514,514,514,514,510,506,499,491,477,447,433,422,411,386,340,306,278,245,216,174,166,166,166,166,166,166,166,164,163,163,163,159,157,153,146,139,131,121,109,86],"timestamp_mouse":[11,26,46,67,86,107,127,147,167,187,208,227,247,266,287,306,327,347,367,388,406,427,447,467,486,506,526,547,567,587,608,627,646,666,686,708,728,748,767,787,807,827,846,867,887,907,927,946,967,986,1006,1026,1046,1067,1088,1107,1127,1147,1166,1187,1207,1226,1248,1267],"xSR":741.5,"ySR":469.95,"xT1":424.9,"yT1":0,"xT2":1058.1,"yT2":0,"toosoon":0,"cond_shown":"equaldotanddens","ratio_trial":500,"smaller_num":"10","larger_num":"20","correct_side":2,"subjID":"JUANANDRESLOPEZFLOREZ21","gender":"0","age":"9","school":"4"},{"start_time":1552309960966,"click_time":1552309962338,"finger_time":1552309961699,"fix_duration":1006.5389710919492,"trial":63,"RT":733,"MT":639,"sideResp":1,"stimulus":"img/750/equaldotanddens/L/13_Ratio_750_L_8_R_6.png","xmouse":[789,789,789,789,789,789,789,789,789,789,789,789,789,789,789,789,789,789,789,789,789,789,788,787,786,784,784,784,784,783,781,774,770,766,761,752,725,706,682,642,609,551,551,551,551,551,551,551,551,551,551,551,551,551,551,551,551,551,551,551,551,551,551,551,551,551,551,551,504],"ymouse":[552,552,552,552,552,552,552,552,552,552,552,552,552,552,552,552,552,552,552,552,552,552,550,545,542,538,536,535,535,533,529,519,512,506,496,481,426,385,329,234,158,6,6,6,6,6,6,6,6,6,6,6,6,6,6,6,6,6,6,6,6,6,6,6,6,6,6,6,9],"timestamp_mouse":[13,35,51,73,91,112,131,151,173,192,211,232,253,272,291,311,332,353,373,392,412,431,451,472,491,513,531,552,572,591,611,633,652,671,692,711,733,752,772,791,811,833,851,871,891,912,932,952,973,992,1012,1032,1052,1073,1092,1112,1132,1153,1171,1191,1212,1233,1252,1271,1292,1312,1333,1352,1372],"xSR":741.5,"ySR":469.95,"xT1":424.9,"yT1":0,"xT2":1058.1,"yT2":0,"toosoon":0,"cond_shown":"equaldotanddens","ratio_trial":750,"smaller_num":"6","larger_num":"8","correct_side":1,"subjID":"JUANANDRESLOPEZFLOREZ21","gender":"0","age":"9","school":"4"},{"start_time":1552309964111,"click_time":1552309964738,"finger_time":1552309964577,"fix_duration":250,"trial":64,"RT":466,"MT":161,"sideResp":1,"stimulus":"img/250/equaldotanddens/L/7_Ratio_250_L_8_R_2.png","xmouse":[760,758,756,756,755,753,752,750,750,750,750,750,749,749,749,749,749,749,749,749,749,749,745,738,732,711,697,672,624,569,459,444],"ymouse":[549,549,549,549,549,549,549,549,549,549,549,549,549,549,549,549,549,549,549,549,549,549,545,536,526,502,482,443,375,298,104,45],"timestamp_mouse":[22,36,46,67,88,107,127,148,167,186,206,226,248,267,288,307,327,346,367,386,408,427,448,466,488,505,525,546,566,587,605,627],"xSR":741.5,"ySR":469.95,"xT1":424.9,"yT1":0,"xT2":1058.1,"yT2":0,"toosoon":0,"cond_shown":"equaldotanddens","ratio_trial":250,"smaller_num":"2","larger_num":"8","correct_side":1,"subjID":"JUANANDRESLOPEZFLOREZ21","gender":"0","age":"9","school":"4"},{"start_time":1552309966681,"click_time":1552309967997,"finger_time":1552309967117,"fix_duration":622.2926637985048,"trial":65,"RT":436,"MT":880,"sideResp":2,"stimulus":"img/900/randomdotsizeEA/L/4_Ratio_900_L_20_R_18.png","xmouse":[785,785,785,785,785,785,785,785,785,785,785,785,785,785,785,785,785,785,783,768,756,686,660,641,631,629,629,629,629,629,629,650,671,694,720,746,802,829,855,880,926,1002,1040,1069,1096,1111,1118,1125,1126,1128,1129,1129,1129,1129,1129,1129,1129,1129,1129,1129,1129,1129,1129,1129,1129,1129],"ymouse":[510,510,510,510,510,510,510,510,510,510,510,510,510,510,510,510,510,510,509,499,494,465,456,451,448,447,447,447,447,447,446,439,434,426,419,411,395,388,381,374,361,327,302,278,250,219,191,144,126,116,111,109,109,109,109,109,109,109,109,109,109,109,105,103,100,99],"timestamp_mouse":[17,36,56,76,97,116,136,156,175,196,217,235,256,277,296,316,336,357,377,396,416,436,457,476,496,515,536,555,576,596,616,637,656,676,696,716,737,755,776,797,816,837,857,876,896,917,936,956,976,997,1016,1036,1057,1076,1096,1115,1137,1156,1176,1196,1216,1236,1256,1276,1295,1316],"xSR":741.5,"ySR":469.95,"xT1":424.9,"yT1":0,"xT2":1058.1,"yT2":0,"toosoon":0,"cond_shown":"randomdotsizeEA","ratio_trial":900,"smaller_num":"18","larger_num":"20","correct_side":1,"subjID":"JUANANDRESLOPEZFLOREZ21","gender":"0","age":"9","school":"4"},{"start_time":1552309971981,"click_time":1552309972936,"finger_time":1552309972557,"fix_duration":1402.235625704994,"trial":66,"RT":576,"MT":379,"sideResp":1,"stimulus":"img/500/equaldotanddens/L/13_Ratio_500_L_12_R_6.png","xmouse":[801,799,799,799,799,799,799,799,799,799,799,799,799,799,799,799,799,799,799,799,798,797,785,783,772,760,752,744,740,730,722,711,683,672,664,658,657,656,656,656,656,654,645,632,618,596,568,521],"ymouse":[522,522,522,522,522,522,522,522,522,522,522,522,522,522,522,522,522,522,522,522,522,521,514,514,514,520,523,523,514,498,482,462,407,387,373,364,361,359,359,358,358,354,323,276,225,166,104,10],"timestamp_mouse":[17,38,55,75,95,116,136,156,177,196,216,237,256,276,297,317,336,356,376,397,416,436,456,477,497,517,537,555,576,596,617,637,656,676,696,717,735,755,775,796,816,836,856,877,896,917,936,955],"xSR":741.5,"ySR":469.95,"xT1":424.9,"yT1":0,"xT2":1058.1,"yT2":0,"toosoon":0,"cond_shown":"equaldotanddens","ratio_trial":500,"smaller_num":"6","larger_num":"12","correct_side":1,"subjID":"JUANANDRESLOPEZFLOREZ21","gender":"0","age":"9","school":"4"},{"start_time":1552309979075,"click_time":1552309979937,"finger_time":155230