[{"start_time":1552314342815,"click_time":1552314344760,"finger_time":1552314344340,"fix_duration":250,"trial":0,"RT":1525,"MT":420,"sideResp":1,"stimulus":"img/900/randomdotsizeEA/R/7_Ratio_900_L_9_R_10.png","xmouse":[808,806,806,801,798,797,794,792,792,792,792,792,792,791,787,787,785,783,783,783,783,783,783,783,783,783,783,783,783,783,783,783,783,783,783,783,783,783,783,783,783,783,783,783,783,783,783,783,783,783,783,783,783,783,783,783,783,783,783,783,783,783,783,783,783,782,781,779,777,776,776,775,775,773,769,763,758,746,741,736,732,724,714,682,667,650,637,622,596,583,572,558,549,531,529,528,525,522],"ymouse":[504,505,505,507,509,509,510,511,511,511,511,511,511,511,512,512,513,514,514,514,514,514,514,514,514,514,514,514,514,514,514,514,514,514,514,514,514,514,514,514,514,514,514,514,514,514,514,514,514,514,514,514,514,514,514,514,514,514,514,514,514,514,514,514,514,515,515,512,509,507,505,504,503,497,489,477,464,439,426,411,391,363,326,222,187,156,132,112,74,59,46,34,27,16,15,15,15,15],"timestamp_mouse":[9,38,45,65,85,106,125,146,165,185,205,225,245,265,285,305,326,346,365,385,405,425,446,465,487,506,525,545,566,586,606,625,645,666,686,705,725,745,766,785,806,825,846,865,885,906,926,945,965,985,1007,1025,1045,1066,1086,1105,1125,1146,1165,1185,1206,1226,1245,1266,1286,1306,1325,1345,1365,1385,1405,1425,1446,1465,1486,1505,1525,1547,1565,1587,1605,1626,1645,1665,1686,1705,1726,1745,1765,1785,1805,1825,1845,1865,1885,1905,1925,1945],"xSR":741.5,"ySR":469.95,"xT1":424.9,"yT1":0,"xT2":1058.1,"yT2":0,"toosoon":0,"cond_shown":"randomdotsizeEA","ratio_trial":900,"smaller_num":"9","larger_num":"10","correct_side":2,"subjID":"Juan Camilo Cruz Vargas 4","gender":"0","age":"9","school":"4","test":{"fix_dur":[250,1500],"timestim":300,"targets_dim":[100,100],"targets_relative_coord":[0.3,0.7],"size_stim":[880,420],"start_dim":[100,100],"size_start":[300,300],"size_fix":60,"samplingrate":20,"img_types":["equaldotsize","equaldotanddens","randomdotsizeEA"],"ratios":[250,500,750,900],"rep_conds":9,"nTrials":120,"trials_to_rest":500,"Trials_order":[23,43,118,6,88,50,67,64,28,105,103,102,63,85,110,104,62,65,72,48,40,114,31,76,3,83,73,52,13,98,33,60,39,115,79,29,11,91,37,56,21,8,4,54,77,38,68,113,19,57,14,49,59,27,97,101,89,53,9,109,112,1,75,46,99,36,55,93,16,119,117,25,90,15,66,10,82,69,87,96,24,95,5,22,80,84,70,2,7,81,86,51,100,92,18,20,12,42,26,61,71,30,34,35,32,107,74,45,44,106,0,116,111,108,17,78,41,94,58,47],"cond_shown":["randomdotsizeEA","equaldotanddens","equaldotanddens","equaldotsize","equaldotanddens","randomdotsizeEA","equaldotanddens","equaldotanddens","equaldotanddens","equaldotsize","equaldotanddens","equaldotsize","equaldotsize","equaldotanddens","randomdotsizeEA","randomdotsizeEA","randomdotsizeEA","randomdotsizeEA","equaldotsize","equaldotsize","equaldotanddens","equaldotsize","equaldotanddens","equaldotanddens","equaldotsize","randomdotsizeEA","equaldotanddens","equaldotanddens","equaldotanddens","randomdotsizeEA","equaldotsize","equaldotsize","equaldotsize","equaldotanddens","equaldotanddens","randomdotsizeEA","randomdotsizeEA","equaldotanddens","equaldotanddens","randomdotsizeEA","equaldotsize","randomdotsizeEA","equaldotanddens","equaldotsize","randomdotsizeEA","randomdotsizeEA","randomdotsizeEA","randomdotsizeEA","equaldotanddens","equaldotsize","randomdotsizeEA","equaldotanddens","randomdotsizeEA","equaldotsize","equaldotanddens","randomdotsizeEA","randomdotsizeEA","randomdotsizeEA","equaldotsize","equaldotanddens","equaldotanddens","equaldotanddens","equaldotsize","equaldotanddens","equaldotsize","equaldotsize","equaldotanddens","equaldotsize","equaldotanddens","randomdotsizeEA","equaldotsize","equaldotanddens","equaldotsize","equaldotsize","equaldotsize","equaldotanddens","equaldotanddens","equaldotsize","equaldotsize","equaldotsize","equaldotsize","randomdotsizeEA","randomdotsizeEA","equaldotanddens","randomdotsizeEA","equaldotsize","equaldotanddens","randomdotsizeEA","equaldotanddens","equaldotsize","randomdotsizeEA","equaldotsize","equaldotanddens","randomdotsizeEA","equaldotsize","randomdotsizeEA","equaldotsize","equaldotsize","randomdotsizeEA","equaldotanddens","randomdotsizeEA","equaldotsize","equaldotanddens","randomdotsizeEA","randomdotsizeEA","randomdotsizeEA","randomdotsizeEA","equaldotsize","randomdotsizeEA","equaldotanddens","equaldotsize","randomdotsizeEA","equaldotsize","equaldotsize","randomdotsizeEA","equaldotsize","randomdotsizeEA","equaldotanddens","equaldotanddens","randomdotsizeEA"],"ratio_trial":[900,750,900,750,500,250,750,500,500,900,750,750,500,250,250,750,250,500,250,250,500,750,750,500,500,900,250,500,250,250,900,250,500,750,750,500,900,750,250,750,900,750,500,750,500,250,750,500,750,900,250,250,900,500,250,500,500,500,900,250,500,250,500,900,500,250,750,900,500,900,900,250,750,500,750,900,900,900,500,250,250,900,500,900,750,250,900,250,750,900,250,500,500,750,750,750,250,750,250,250,900,750,900,900,750,900,250,900,750,900,250,750,500,250,500,750,500,900,900,900],"smaller_num":["9","6","18","12","6","3","3","1","3","18","6","6","9","6","6","6","2","4","4","2","9","9","6","2","2","18","2","2","2","5","18","6","4","3","6","1","18","6","3","15","18","6","10","6","6","3","6","1","3","18","3","3","9","9","3","6","6","3","18","6","2","3","2","18","5","3","15","18","9","18","18","3","3","1","15","18","9","18","6","5","3","9","2","9","6","2","9","2","9","18","3","5","1","15","12","3","3","3","5","3","18","3","18","18","15","18","2","18","6","9","3","15","9","3","9","18","1","9","18","18"],"larger_num":["10","8","20","16","12","12","4","2","6","20","8","8","18","24","24","8","8","8","16","8","18","12","8","4","4","20","8","4","8","20","20","24","8","4","8","2","20","8","12","20","20","8","20","8","12","12","8","2","4","20","12","12","10","18","12","12","12","6","20","24","4","12","4","20","10","12","20","20","18","20","20","12","4","2","20","20","10","20","12","20","12","10","4","10","8","8","10","8","12","20","12","10","2","20","16","4","12","4","20","12","20","4","20","20","20","20","8","20","8","10","12","20","18","12","18","24","2","10","20","20"],"correct_side":[2,1,1,2,1,2,1,2,2,1,1,1,2,2,2,1,1,1,1,2,2,2,1,1,1,1,1,1,1,2,1,2,1,2,2,2,2,2,1,2,1,1,2,1,1,2,1,2,2,2,1,2,1,2,1,1,1,2,1,2,1,1,2,1,2,2,2,1,2,1,2,2,1,2,2,1,1,1,1,2,1,2,1,2,1,1,1,1,2,2,2,2,2,1,2,1,1,1,2,1,2,1,1,1,2,1,2,2,1,2,1,1,2,1,2,1,2,1,1,2],"img_shown":["img/900/randomdotsizeEA/R/7_Ratio_900_L_9_R_10.png","img/750/equaldotanddens/L/14_Ratio_750_L_8_R_6.png","img/900/equaldotanddens/L/4_Ratio_900_L_20_R_18.png","img/750/equaldotsize/R/11_Ratio_750_L_12_R_16.png","img/500/equaldotanddens/L/13_Ratio_500_L_12_R_6.png","img/250/randomdotsizeEA/R/11_Ratio_250_L_3_R_12.png","img/750/equaldotanddens/L/10_Ratio_750_L_4_R_3.png","img/500/equaldotanddens/R/12_Ratio_500_L_1_R_2.png","img/500/equaldotanddens/R/2_Ratio_500_L_3_R_6.png","img/900/equaldotsize/L/8_Ratio_900_L_20_R_18.png","img/750/equaldotanddens/L/14_Ratio_750_L_8_R_6.png","img/750/equaldotsize/L/14_Ratio_750_L_8_R_6.png","img/500/equaldotsize/R/6_Ratio_500_L_9_R_18.png","img/250/equaldotanddens/R/6_Ratio_250_L_6_R_24.png","img/250/randomdotsizeEA/R/6_Ratio_250_L_6_R_24.png","img/750/randomdotsizeEA/L/13_Ratio_750_L_8_R_6.png","img/250/randomdotsizeEA/L/3_Ratio_250_L_8_R_2.png","img/500/randomdotsizeEA/L/8_Ratio_500_L_8_R_4.png","img/250/equaldotsize/L/2_Ratio_250_L_16_R_4.png","img/250/equaldotsize/R/13_Ratio_250_L_2_R_8.png","img/500/equaldotanddens/R/1_Ratio_500_L_9_R_18.png","img/750/equaldotsize/R/15_Ratio_750_L_9_R_12.png","img/750/equaldotanddens/L/13_Ratio_750_L_8_R_6.png","img/500/equaldotanddens/L/10_Ratio_500_L_4_R_2.png","img/500/equaldotsize/L/10_Ratio_500_L_4_R_2.png","img/900/randomdotsizeEA/L/10_Ratio_900_L_20_R_18.png","img/250/equaldotanddens/L/3_Ratio_250_L_8_R_2.png","img/500/equaldotanddens/L/5_Ratio_500_L_4_R_2.png","img/250/equaldotanddens/L/7_Ratio_250_L_8_R_2.png","img/250/randomdotsizeEA/R/12_Ratio_250_L_5_R_20.png","img/900/equaldotsize/L/4_Ratio_900_L_20_R_18.png","img/250/equaldotsize/R/6_Ratio_250_L_6_R_24.png","img/500/equaldotsize/L/8_Ratio_500_L_8_R_4.png","img/750/equaldotanddens/R/7_Ratio_750_L_3_R_4.png","img/750/equaldotanddens/R/2_Ratio_750_L_6_R_8.png","img/500/randomdotsizeEA/R/15_Ratio_500_L_1_R_2.png","img/900/randomdotsizeEA/R/9_Ratio_900_L_18_R_20.png","img/750/equaldotanddens/R/2_Ratio_750_L_6_R_8.png","img/250/equaldotanddens/L/14_Ratio_250_L_12_R_3.png","img/750/randomdotsizeEA/R/4_Ratio_750_L_15_R_20.png","img/900/equaldotsize/L/10_Ratio_900_L_20_R_18.png","img/750/randomdotsizeEA/L/14_Ratio_750_L_8_R_6.png","img/500/equaldotanddens/R/3_Ratio_500_L_10_R_20.png","img/750/equaldotsize/L/14_Ratio_750_L_8_R_6.png","img/500/randomdotsizeEA/L/13_Ratio_500_L_12_R_6.png","img/250/randomdotsizeEA/R/11_Ratio_250_L_3_R_12.png","img/750/randomdotsizeEA/L/14_Ratio_750_L_8_R_6.png","img/500/randomdotsizeEA/R/15_Ratio_500_L_1_R_2.png","img/750/equaldotanddens/R/12_Ratio_750_L_3_R_4.png","img/900/equaldotsize/R/14_Ratio_900_L_18_R_20.png","img/250/randomdotsizeEA/L/14_Ratio_250_L_12_R_3.png","img/250/equaldotanddens/R/9_Ratio_250_L_3_R_12.png","img/900/randomdotsizeEA/L/1_Ratio_900_L_10_R_9.png","img/500/equaldotsize/R/6_Ratio_500_L_9_R_18.png","img/250/equaldotanddens/L/15_Ratio_250_L_12_R_3.png","img/500/randomdotsizeEA/L/11_Ratio_500_L_12_R_6.png","img/500/randomdotsizeEA/L/11_Ratio_500_L_12_R_6.png","img/500/randomdotsizeEA/R/2_Ratio_500_L_3_R_6.png","img/900/equaldotsize/L/8_Ratio_900_L_20_R_18.png","img/250/equaldotanddens/R/6_Ratio_250_L_6_R_24.png","img/500/equaldotanddens/L/5_Ratio_500_L_4_R_2.png","img/250/equaldotanddens/L/15_Ratio_250_L_12_R_3.png","img/500/equaldotsize/R/9_Ratio_500_L_2_R_4.png","img/900/equaldotanddens/L/8_Ratio_900_L_20_R_18.png","img/500/equaldotsize/R/14_Ratio_500_L_5_R_10.png","img/250/equaldotsize/R/11_Ratio_250_L_3_R_12.png","img/750/equaldotanddens/R/4_Ratio_750_L_15_R_20.png","img/900/equaldotsize/L/4_Ratio_900_L_20_R_18.png","img/500/equaldotanddens/R/6_Ratio_500_L_9_R_18.png","img/900/randomdotsizeEA/L/10_Ratio_900_L_20_R_18.png","img/900/equaldotsize/R/14_Ratio_900_L_18_R_20.png","img/250/equaldotanddens/R/11_Ratio_250_L_3_R_12.png","img/750/equaldotsize/L/9_Ratio_750_L_4_R_3.png","img/500/equaldotsize/R/12_Ratio_500_L_1_R_2.png","img/750/equaldotsize/R/5_Ratio_750_L_15_R_20.png","img/900/equaldotanddens/L/10_Ratio_900_L_20_R_18.png","img/900/equaldotanddens/L/1_Ratio_900_L_10_R_9.png","img/900/equaldotsize/L/2_Ratio_900_L_20_R_18.png","img/500/equaldotsize/L/11_Ratio_500_L_12_R_6.png","img/250/equaldotsize/R/12_Ratio_250_L_5_R_20.png","img/250/equaldotsize/L/15_Ratio_250_L_12_R_3.png","img/900/randomdotsizeEA/R/7_Ratio_900_L_9_R_10.png","img/500/randomdotsizeEA/L/10_Ratio_500_L_4_R_2.png","img/900/equaldotanddens/R/5_Ratio_900_L_9_R_10.png","img/750/randomdotsizeEA/L/13_Ratio_750_L_8_R_6.png","img/250/equaldotsize/L/7_Ratio_250_L_8_R_2.png","img/900/equaldotanddens/L/1_Ratio_900_L_10_R_9.png","img/250/randomdotsizeEA/L/3_Ratio_250_L_8_R_2.png","img/750/equaldotanddens/R/15_Ratio_750_L_9_R_12.png","img/900/equaldotsize/R/11_Ratio_900_L_18_R_20.png","img/250/randomdotsizeEA/R/11_Ratio_250_L_3_R_12.png","img/500/equaldotsize/R/14_Ratio_500_L_5_R_10.png","img/500/equaldotanddens/R/15_Ratio_500_L_1_R_2.png","img/750/randomdotsizeEA/L/1_Ratio_750_L_20_R_15.png","img/750/equaldotsize/R/11_Ratio_750_L_12_R_16.png","img/750/randomdotsizeEA/L/10_Ratio_750_L_4_R_3.png","img/250/equaldotsize/L/14_Ratio_250_L_12_R_3.png","img/750/equaldotsize/L/9_Ratio_750_L_4_R_3.png","img/250/randomdotsizeEA/R/12_Ratio_250_L_5_R_20.png","img/250/equaldotanddens/L/15_Ratio_250_L_12_R_3.png","img/900/randomdotsizeEA/R/9_Ratio_900_L_18_R_20.png","img/750/equaldotsize/L/10_Ratio_750_L_4_R_3.png","img/900/equaldotanddens/L/10_Ratio_900_L_20_R_18.png","img/900/randomdotsizeEA/L/4_Ratio_900_L_20_R_18.png","img/750/randomdotsizeEA/R/5_Ratio_750_L_15_R_20.png","img/900/randomdotsizeEA/L/2_Ratio_900_L_20_R_18.png","img/250/randomdotsizeEA/R/13_Ratio_250_L_2_R_8.png","img/900/equaldotsize/R/12_Ratio_900_L_18_R_20.png","img/750/randomdotsizeEA/L/14_Ratio_750_L_8_R_6.png","img/900/equaldotanddens/R/7_Ratio_900_L_9_R_10.png","img/250/equaldotsize/L/14_Ratio_250_L_12_R_3.png","img/750/randomdotsizeEA/L/1_Ratio_750_L_20_R_15.png","img/500/equaldotsize/R/1_Ratio_500_L_9_R_18.png","img/250/equaldotsize/L/14_Ratio_250_L_12_R_3.png","img/500/randomdotsizeEA/R/6_Ratio_500_L_9_R_18.png","img/750/equaldotsize/L/6_Ratio_750_L_24_R_18.png","img/500/randomdotsizeEA/R/12_Ratio_500_L_1_R_2.png","img/900/equaldotanddens/L/1_Ratio_900_L_10_R_9.png","img/900/equaldotanddens/L/2_Ratio_900_L_20_R_18.png","img/900/randomdotsizeEA/R/9_Ratio_900_L_18_R_20.png"],"Rat0":[["12_Ratio_0_L_9_R_0.png","13_Ratio_0_L_6_R_0.png","5_Ratio_0_L_2_R_0.png","6_Ratio_0_L_4_R_0.png","8_Ratio_0_L_6_R_0.png"],["1_Ratio_0_L_0_R_17.png","10_Ratio_0_L_0_R_22.png","11_Ratio_0_L_0_R_1.png","14_Ratio_0_L_0_R_24.png","15_Ratio_0_L_0_R_4.png","2_Ratio_0_L_0_R_5.png","3_Ratio_0_L_0_R_17.png","4_Ratio_0_L_0_R_7.png","7_Ratio_0_L_0_R_19.png","9_Ratio_0_L_0_R_15.png"]],"Rat250":[["1_Ratio_250_L_8_R_2.png","14_Ratio_250_L_12_R_3.png","15_Ratio_250_L_12_R_3.png","2_Ratio_250_L_16_R_4.png","3_Ratio_250_L_8_R_2.png","5_Ratio_250_L_24_R_6.png","7_Ratio_250_L_8_R_2.png"],["10_Ratio_250_L_4_R_16.png","11_Ratio_250_L_3_R_12.png","12_Ratio_250_L_5_R_20.png","13_Ratio_250_L_2_R_8.png","4_Ratio_250_L_3_R_12.png","6_Ratio_250_L_6_R_24.png","8_Ratio_250_L_1_R_4.png","9_Ratio_250_L_3_R_12.png"]],"Rat500":[["10_Ratio_500_L_4_R_2.png","11_Ratio_500_L_12_R_6.png","13_Ratio_500_L_12_R_6.png","4_Ratio_500_L_18_R_9.png","5_Ratio_500_L_4_R_2.png","7_Ratio_500_L_10_R_5.png","8_Ratio_500_L_8_R_4.png"],["1_Ratio_500_L_9_R_18.png","12_Ratio_500_L_1_R_2.png","14_Ratio_500_L_5_R_10.png","15_Ratio_500_L_1_R_2.png","2_Ratio_500_L_3_R_6.png","3_Ratio_500_L_10_R_20.png","6_Ratio_500_L_9_R_18.png","9_Ratio_500_L_2_R_4.png"]],"Rat750":[["1_Ratio_750_L_20_R_15.png","10_Ratio_750_L_4_R_3.png","13_Ratio_750_L_8_R_6.png","14_Ratio_750_L_8_R_6.png","6_Ratio_750_L_24_R_18.png","8_Ratio_750_L_4_R_3.png","9_Ratio_750_L_4_R_3.png"],["11_Ratio_750_L_12_R_16.png","12_Ratio_750_L_3_R_4.png","15_Ratio_750_L_9_R_12.png","2_Ratio_750_L_6_R_8.png","3_Ratio_750_L_15_R_20.png","4_Ratio_750_L_15_R_20.png","5_Ratio_750_L_15_R_20.png","7_Ratio_750_L_3_R_4.png"]],"Rat900":[["1_Ratio_900_L_10_R_9.png","10_Ratio_900_L_20_R_18.png","2_Ratio_900_L_20_R_18.png","4_Ratio_900_L_20_R_18.png","8_Ratio_900_L_20_R_18.png"],["11_Ratio_900_L_18_R_20.png","12_Ratio_900_L_18_R_20.png","13_Ratio_900_L_18_R_20.png","14_Ratio_900_L_18_R_20.png","15_Ratio_900_L_9_R_10.png","3_Ratio_900_L_9_R_10.png","5_Ratio_900_L_9_R_10.png","6_Ratio_900_L_9_R_10.png","7_Ratio_900_L_9_R_10.png","9_Ratio_900_L_18_R_20.png"]],"Rat1000":[["10_Ratio_1000_L_16_R_16.png","11_Ratio_1000_L_6_R_6.png","12_Ratio_1000_L_14_R_14.png","13_Ratio_1000_L_20_R_20.png","15_Ratio_1000_L_15_R_15.png","2_Ratio_1000_L_17_R_17.png","4_Ratio_1000_L_9_R_9.png","5_Ratio_1000_L_6_R_6.png","6_Ratio_1000_L_19_R_19.png","8_Ratio_1000_L_14_R_14.png","9_Ratio_1000_L_25_R_25.png"],["1_Ratio_1000_L_1_R_1.png","14_Ratio_1000_L_17_R_17.png","3_Ratio_1000_L_17_R_17.png","7_Ratio_1000_L_6_R_6.png"]]}},{"start_time":1552314346602,"click_time":1552314349782,"finger_time":1552314349201,"fix_duration":520.2043737765166,"trial":1,"RT":2599,"MT":581,"sideResp":1,"stimulus":"img/750/equaldotanddens/L/14_Ratio_750_L_8_R_6.png","xmouse":[776,776,776,776,776,776,776,776,776,776,776,776,776,776,776,776,776,776,776,776,776,776,776,776,776,776,776,776,776,776,776,776,776,776,776,776,776,776,776,776,776,776,776,776,776,776,776,776,776,776,776,776,776,776,776,776,776,776,776,776,776,776,776,776,776,776,776,776,776,776,776,776,776,776,776,776,776,776,776,776,776,776,776,776,776,776,776,776,776,776,776,776,776,776,776,776,776,776,776,776,776,776,776,776,776,776,776,776,776,776,776,776,776,776,776,776,776,776,776,776,776,776,776,776,776,776,775,772,748,735,725,714,705,681,667,654,645,635,619,605,596,590,579,567,560,551,544,538,528,523,517,513,509,507,504,503,499,492,478],"ymouse":[514,514,514,514,514,514,514,514,514,514,514,514,514,514,514,514,514,514,514,514,514,514,514,514,514,514,514,514,514,514,514,514,514,514,514,514,514,514,514,514,514,514,514,514,514,514,514,514,514,514,514,514,514,514,514,514,514,514,514,514,514,514,514,514,514,514,514,514,514,514,514,514,514,514,514,514,514,514,514,514,514,514,514,514,514,514,514,514,514,514,514,514,514,514,514,514,514,514,514,514,514,514,514,514,514,514,514,514,514,514,514,514,514,514,514,514,514,514,514,514,514,514,514,514,514,514,513,512,504,496,483,461,444,403,385,372,363,354,339,326,315,307,284,257,244,229,216,204,180,169,157,151,146,142,131,125,117,107,78],"timestamp_mouse":[18,40,58,78,98,118,139,158,180,199,218,238,258,278,298,318,339,358,378,398,418,438,458,478,499,520,538,558,578,598,619,639,658,678,698,718,738,758,779,799,819,839,858,878,898,918,938,959,978,998,1018,1039,1058,1078,1098,1118,1139,1158,1178,1198,1218,1238,1259,1278,1298,1319,1339,1358,1378,1398,1419,1439,1459,1478,1499,1519,1538,1558,1579,1598,1619,1640,1659,1678,1698,1719,1739,1758,1778,1798,1819,1838,1858,1878,1898,1918,1939,1958,1978,1998,2019,2038,2058,2078,2099,2118,2138,2158,2178,2198,2218,2238,2258,2278,2298,2319,2338,2359,2379,2398,2418,2438,2458,2478,2498,2519,2538,2559,2578,2599,2619,2639,2658,2679,2698,2718,2739,2759,2779,2798,2818,2838,2859,2880,2898,2918,2938,2959,2979,2998,3018,3039,3058,3078,3098,3119,3138,3158,3180],"xSR":741.5,"ySR":469.95,"xT1":424.9,"yT1":0,"xT2":1058.1,"yT2":0,"toosoon":0,"cond_shown":"equaldotanddens","ratio_trial":750,"smaller_num":"6","larger_num":"8","correct_side":1,"subjID":"Juan Camilo Cruz Vargas 4","gender":"0","age":"9","school":"4"},{"start_time":1552314352114,"click_time":1552314354080,"finger_time":1552314353180,"fix_duration":1413.5677238468954,"trial":2,"RT":1066,"MT":900,"sideResp":1,"stimulus":"img/900/equaldotanddens/L/4_Ratio_900_L_20_R_18.png","xmouse":[786,786,786,786,786,786,786,786,786,786,786,786,786,786,786,786,786,786,786,786,786,786,786,786,786,786,786,786,786,786,786,786,786,786,786,786,786,786,786,786,786,786,786,786,786,786,786,786,787,791,799,808,815,822,833,837,840,842,843,844,844,845,846,847,852,855,857,860,862,869,874,880,887,896,920,927,935,944,952,970,978,985,993,1000,1015,1017,1017,1017,1017,1017,1007,959,897,839,757,725,660,576,478],"ymouse":[526,526,526,526,526,526,526,526,526,526,526,526,526,526,526,526,526,526,526,526,526,526,526,526,526,526,526,526,526,526,526,526,526,526,526,526,526,526,526,526,526,526,526,526,526,526,526,526,525,517,506,493,480,468,447,442,438,434,432,429,428,426,423,420,405,400,394,387,382,366,357,344,330,313,267,253,237,222,207,177,165,151,141,131,112,109,107,107,107,107,107,113,121,129,131,131,125,112,99],"timestamp_mouse":[12,33,46,66,86,107,126,146,166,187,207,226,246,266,286,307,327,346,367,387,407,427,446,466,486,507,526,547,567,587,606,626,646,666,687,706,726,746,766,787,807,826,846,867,886,906,927,946,966,987,1006,1026,1046,1066,1086,1107,1127,1146,1166,1187,1207,1226,1247,1268,1287,1308,1326,1346,1367,1386,1406,1426,1446,1466,1486,1506,1526,1547,1566,1586,1607,1626,1646,1666,1686,1706,1726,1746,1766,1787,1806,1826,1846,1866,1886,1906,1926,1946,1966],"xSR":741.5,"ySR":469.95,"xT1":424.9,"yT1":0,"xT2":1058.1,"yT2":0,"toosoon":0,"cond_shown":"equaldotanddens","ratio_trial":900,"smaller_num":"18","larger_num":"20","correct_side":1,"subjID":"Juan Camilo Cruz Vargas 4","gender":"0","age":"9","school":"4"},{"start_time":1552314356310,"click_time":1552314357820,"finger_time":1552314357140,"fix_duration":629.8094558603193,"trial":3,"RT":830,"MT":680,"sideResp":2,"stimulus":"img/750/equaldotsize/R/11_Ratio_750_L_12_R_16.png","xmouse":[792,792,792,792,792,792,792,792,792,792,792,792,792,792,792,792,792,792,792,792,792,792,792,792,792,792,792,792,792,792,792,792,792,793,796,798,799,801,801,806,809,812,818,824,844,853,862,872,880,889,906,919,923,934,944,968,983,994,1001,1011,1014,1019,1023,1026,1032,1035,1038,1042,1045,1048,1057,1062,1069,1071,1077,1080],"ymouse":[522,522,522,522,522,522,522,522,522,522,522,522,522,522,522,522,522,522,522,522,522,522,522,522,522,522,522,522,522,522,522,522,522,520,511,506,501,496,492,480,475,468,456,447,420,406,392,376,363,349,324,307,302,288,276,252,239,229,221,208,204,197,193,187,179,175,171,165,161,154,138,129,119,114,103,96],"timestamp_mouse":[12,36,52,72,91,110,130,150,171,191,211,230,250,270,290,310,331,350,371,390,410,430,450,470,490,510,530,552,570,590,610,631,651,670,690,710,730,750,770,790,810,830,850,870,891,910,931,950,970,991,1010,1030,1051,1070,1091,1110,1131,1150,1170,1191,1210,1230,1251,1270,1291,1310,1330,1350,1370,1391,1410,1430,1450,1471,1491,1510],"xSR":741.5,"ySR":469.95,"xT1":424.9,"yT1":0,"xT2":1058.1,"yT2":0,"toosoon":0,"cond_shown":"equaldotsize","ratio_trial":750,"smaller_num":"12","larger_num":"16","correct_side":2,"subjID":"Juan Camilo Cruz Vargas 4","gender":"0","age":"9","school":"4"},{"start_time":1552314359499,"click_time":1552314360981,"finger_time":1552314360380,"fix_duration":857.7514943623677,"trial":4,"RT":881,"MT":601,"sideResp":1,"stimulus":"img/500/equaldotanddens/L/13_Ratio_500_L_12_R_6.png","xmouse":[783,783,783,783,783,783,783,783,783,783,783,783,783,783,783,783,783,783,784,784,783,782,782,781,781,780,780,780,780,780,780,780,780,780,780,780,780,780,780,780,779,771,762,752,741,731,710,698,686,674,665,647,642,636,629,623,615,610,605,598,592,577,572,566,561,555,543,540,538,537,535,531,529,525,521],"ymouse":[514,514,514,514,514,514,514,514,514,514,514,514,514,514,514,514,514,514,515,515,516,518,518,520,520,521,521,521,521,521,521,521,521,521,521,521,521,521,521,521,521,517,505,487,467,448,413,396,378,359,343,301,288,275,262,253,242,236,230,224,218,191,177,160,146,133,115,110,106,104,102,101,100,98,96],"timestamp_mouse":[11,21,44,61,81,103,121,142,161,182,202,221,241,261,281,301,321,341,361,381,402,422,441,461,481,502,521,541,561,581,603,622,641,662,682,701,722,741,761,781,801,821,842,861,881,901,921,942,961,981,1003,1021,1041,1062,1082,1102,1122,1142,1161,1181,1201,1222,1242,1261,1281,1301,1321,1341,1361,1381,1401,1421,1441,1461,1482],"xSR":741.5,"ySR":469.95,"xT1":424.9,"yT1":0,"xT2":1058.1,"yT2":0,"toosoon":0,"cond_shown":"equaldotanddens","ratio_trial":500,"smaller_num":"6","larger_num":"12","correct_side":1,"subjID":"Juan Camilo Cruz Vargas 4","gender":"0","age":"9","school":"4"},{"start_time":1552314361998,"click_time":1552314364101,"finger_time":1552314363040,"fix_duration":275.2824145544952,"trial":5,"RT":1042,"MT":1061,"sideResp":2,"stimulus":"img/250/randomdotsizeEA/R/11_Ratio_250_L_3_R_12.png","xmouse":[806,806,806,806,806,806,806,806,806,806,806,806,806,805,805,805,805,805,805,805,804,803,803,803,803,802,802,802,802,802,802,802,802,802,802,802,802,802,802,802,802,801,800,800,800,799,793,789,785,778,770,762,759,755,755,753,750,748,745,742,738,728,723,718,711,705,691,687,685,682,680,677,677,677,677,677,676,676,676,679,683,692,717,734,749,770,808,829,852,874,896,931,948,964,978,993,1010,1015,1020,1024,1027,1037,1042,1047,1052,1060],"ymouse":[526,526,526,525,524,523,522,522,522,522,521,520,520,519,519,519,519,519,519,519,519,519,519,519,519,519,519,519,519,519,519,519,519,519,519,519,519,519,517,515,511,508,508,508,507,507,507,507,504,497,490,472,465,461,459,455,447,440,429,420,410,389,379,369,357,348,323,315,312,308,306,301,301,299,295,294,290,285,282,277,270,259,235,224,215,204,187,179,169,159,150,139,133,131,129,127,121,119,117,114,111,104,101,98,96,92],"timestamp_mouse":[9,23,42,62,82,103,123,143,162,182,202,222,243,262,282,302,323,343,362,384,402,422,442,462,483,502,522,542,562,583,602,623,642,664,682,702,722,742,762,783,803,822,843,863,883,902,922,942,962,982,1002,1022,1042,1062,1083,1104,1122,1143,1163,1183,1202,1223,1243,1262,1282,1303,1322,1344,1363,1383,1402,1422,1442,1463,1482,1503,1522,1542,1562,1583,1603,1622,1642,1662,1683,1702,1723,1743,1763,1782,1802,1823,1842,1863,1882,1902,1923,1943,1962,1982,2002,2022,2042,2063,2082,2102],"xSR":741.5,"ySR":469.95,"xT1":424.9,"yT1":0,"xT2":1058.1,"yT2":0,"toosoon":0,"cond_shown":"randomdotsizeEA","ratio_trial":250,"smaller_num":"3","larger_num":"12","correct_side":2,"subjID":"Juan Camilo Cruz Vargas 4","gender":"0","age":"9","school":"4"},{"start_time":1552314365885,"click_time":1552314367580,"finger_time":1552314366981,"fix_duration":963.9346171889022,"trial":6,"RT":1096,"MT":599,"sideResp":1,"stimulus":"img/750/equaldotanddens/L/10_Ratio_750_L_4_R_3.png","xmouse":[788,788,788,788,788,788,788,788,788,788,788,788,788,788,788,788,788,788,788,788,788,788,788,788,788,788,788,788,788,788,788,788,788,788,788,788,788,788,788,788,788,788,788,788,788,788,787,787,786,785,785,779,775,767,758,746,731,687,633,601,585,567,561,555,549,544,540,535,534,534,534,533,530,529,527,525,524,520,519,517,516,511,510,508,507],"ymouse":[520,520,520,520,520,520,520,520,520,520,520,520,520,520,520,520,520,520,520,520,520,520,520,520,520,520,520,520,520,520,520,520,520,520,520,520,520,520,520,520,520,520,520,520,520,520,520,518,514,513,510,501,495,484,469,453,433,383,324,291,273,243,230,217,204,189,179,168,167,166,165,161,152,146,141,136,132,127,126,123,119,109,105,100,94],"timestamp_mouse":[19,37,55,75,96,115,136,156,175,196,216,235,255,276,295,315,335,355,376,396,415,435,456,477,495,515,535,555,575,596,615,635,655,675,695,715,735,755,775,796,815,835,855,875,895,916,935,956,976,995,1016,1035,1055,1076,1096,1116,1136,1156,1176,1196,1215,1236,1255,1276,1295,1315,1336,1355,1376,1395,1415,1435,1455,1475,1495,1515,1536,1555,1575,1595,1616,1637,1655,1675,1695],"xSR":741.5,"ySR":469.95,"xT1":424.9,"yT1":0,"xT2":1058.1,"yT2":0,"toosoon":0,"cond_shown":"equaldotanddens","ratio_trial":750,"smaller_num":"3","larger_num":"4","correct_side":1,"subjID":"Juan Camilo Cruz Vargas 4","gender":"0","age":"9","school":"4"},{"start_time":1552314370553,"click_time":1552314371660,"finger_time":1552314371261,"fix_duration":692.2534415192506,"trial":7,"RT":708,"MT":399,"sideResp":2,"stimulus":"img/500/equaldotanddens/R/12_Ratio_500_L_1_R_2.png","xmouse":[798,797,797,797,797,797,797,796,795,795,794,794,794,794,794,794,794,794,794,794,794,794,794,794,794,794,794,794,794,794,794,794,793,796,822,841,862,878,892,915,928,944,963,992,1018,1026,1032,1035,1038,1044,1048,1052,1054,1058,1062,1064],"ymouse":[527,525,525,525,525,525,525,525,525,525,525,525,525,525,525,525,525,525,525,525,525,525,525,525,525,525,525,525,525,525,525,525,522,513,474,451,426,406,389,359,343,325,306,279,250,238,229,220,211,187,176,165,155,139,111,99],"timestamp_mouse":[12,31,47,68,88,107,127,147,169,187,207,227,248,269,288,307,327,348,368,388,407,427,447,467,488,507,527,547,567,588,607,627,647,667,688,708,729,747,767,787,808,827,848,867,887,907,927,948,968,988,1008,1027,1047,1068,1087,1107],"xSR":741.5,"ySR":469.95,"xT1":424.9,"yT1":0,"xT2":1058.1,"yT2":0,"toosoon":0,"cond_shown":"equaldotanddens","ratio_trial":500,"smaller_num":"1","larger_num":"2","correct_side":2,"subjID":"Juan Camilo Cruz Vargas 4","gender":"0","age":"9","school":"4"},{"start_time":1552314374879,"click_time":1552314376042,"finger_time":1552314375640,"fix_duration":937.7433114879051,"trial":8,"RT":761,"MT":402,"sideResp":2,"stimulus":"img/500/equaldotanddens/R/2_Ratio_500_L_3_R_6.png","xmouse":[788,788,788,788,788,788,788,788,788,788,788,788,788,788,788,788,788,788,788,788,788,788,788,788,788,788,788,788,788,788,788,788,788,788,788,789,799,810,827,863,883,905,930,948,981,1002,1018,1030,1041,1055,1058,1061,1062,1065,1068,1073,1077,1079,1081],"ymouse":[513,513,513,512,512,511,511,511,509,508,507,506,505,504,504,503,503,503,503,503,503,503,503,503,503,503,503,503,503,503,503,503,503,503,502,499,486,472,454,412,388,361,332,306,260,227,206,188,173,150,144,138,134,129,122,114,109,104,95],"timestamp_mouse":[2,22,41,62,82,103,123,141,161,182,202,221,241,262,282,302,322,341,361,382,402,421,441,461,482,503,521,541,562,582,602,621,641,662,682,702,722,742,761,781,802,822,841,862,881,902,922,942,962,981,1002,1022,1041,1063,1082,1103,1122,1142,1163],"xSR":741.5,"ySR":469.95,"xT1":424.9,"yT1":0,"xT2":1058.1,"yT2":0,"toosoon":0,"cond_shown":"equaldotanddens","ratio_trial":500,"smaller_num":"3","larger_num":"6","correct_side":2,"subjID":"Juan Camilo Cruz Vargas 4","gender":"0","age":"9","school":"4"},{"start_time":1552314377864,"click_time":1552314381380,"finger_time":1552314380961,"fix_duration":1121.6800475979799,"trial":9,"RT":3097,"MT":419,"sideResp":2,"stimulus":"img/900/equaldotsize/L/8_Ratio_900_L_20_R_18.png","xmouse":[784,784,784,784,784,784,784,784,784,784,784,784,784,785,786,786,786,787,787,788,789,790,790,790,790,790,790,790,790,790,790,790,790,790,790,790,790,790,790,790,790,790,790,790,790,790,790,790,790,790,790,790,790,790,790,790,790,790,790,790,790,790,790,790,790,790,790,790,790,790,790,790,790,790,790,790,790,790,790,790,790,790,790,790,790,790,790,790,790,790,790,790,790,790,790,790,790,790,790,790,790,790,790,790,790,790,790,790,790,790,790,790,790,790,790,790,790,790,790,790,790,790,790,790,790,790,790,790,790,790,790,790,790,790,790,790,790,790,790,790,790,790,790,790,790,790,790,790,790,790,790,790,809,837,889,903,911,920,933,964,988,1003,1018,1033,1068,1082,1093,1097,1102,1106,1107,1107,1107,1110,1111,1112],"ymouse":[510,510,510,510,510,510,510,510,510,510,510,510,510,510,512,512,512,512,512,513,514,517,518,518,518,518,518,518,518,518,518,518,518,518,518,518,518,518,518,518,518,518,518,518,518,518,518,518,518,518,518,518,518,518,518,518,518,518,518,518,518,518,518,518,518,518,512,508,508,508,508,508,508,508,508,508,508,508,508,508,508,508,508,508,508,508,508,508,508,508,508,508,508,508,508,508,508,508,508,508,508,508,508,508,508,508,508,508,508,508,508,508,508,508,508,508,508,508,508,508,508,508,508,508,508,508,508,508,508,508,508,508,508,508,508,508,508,508,508,508,508,508,508,508,508,508,508,508,508,508,508,508,500,487,461,450,439,427,408,368,340,314,288,261,199,174,156,146,134,127,126,124,119,112,103,88],"timestamp_mouse":[16,41,56,78,97,116,136,156,177,197,218,237,256,277,297,316,337,356,377,398,418,437,457,476,496,517,537,556,577,598,617,637,656,677,696,717,737,757,776,796,817,836,857,878,897,916,938,957,978,997,1016,1036,1056,1078,1096,1117,1137,1157,1178,1197,1217,1237,1257,1278,1296,1317,1338,1358,1377,1396,1417,1437,1457,1477,1497,1516,1536,1557,1576,1598,1617,1637,1657,1677,1696,1716,1736,1756,1776,1798,1817,1836,1858,1878,1898,1916,1936,1957,1977,1996,2016,2036,2056,2076,2098,2117,2137,2156,2176,2198,2216,2236,2257,2277,2298,2317,2337,2357,2377,2398,2416,2436,2456,2477,2496,2517,2536,2557,2577,2596,2616,2637,2656,2676,2696,2717,2737,2758,2776,2798,2816,2837,2856,2876,2897,2917,2938,2956,2976,2998,3016,3037,3056,3077,3097,3117,3137,3157,3177,3197,3216,3237,3257,3276,3296,3318,3337,3356,3377,3397,3417,3437,3456,3476,3496,3516],"xSR":741.5,"ySR":469.95,"xT1":424.9,"yT1":0,"xT2":1058.1,"yT2":0,"toosoon":0,"cond_shown":"equaldotsize","ratio_trial":900,"smaller_num":"18","larger_num":"20","correct_side":1,"subjID":"Juan Camilo Cruz Vargas 4","gender":"0","age":"9","school":"4"},{"start_time":1552314385453,"click_time":1552314386901,"finger_time":1552314386260,"fix_duration":250,"trial":10,"RT":807,"MT":641,"sideResp":1,"stimulus":"img/750/equaldotanddens/L/14_Ratio_750_L_8_R_6.png","xmouse":[784,784,784,784,784,784,784,784,784,784,783,783,782,782,782,782,782,782,782,782,782,782,782,782,782,782,782,782,782,782,782,782,780,777,776,773,770,762,749,732,689,672,665,649,612,600,592,580,569,557,534,521,514,509,504,494,489,485,482,479,476,475,475,475,474,474,474,474,474,474,474,474],"ymouse":[530,530,530,530,530,530,530,530,530,530,529,529,528,528,528,528,528,528,528,528,528,528,528,528,528,528,528,528,528,528,528,526,523,519,518,514,511,505,495,480,439,419,410,391,347,335,327,310,294,276,244,224,213,201,190,165,153,146,138,131,119,118,116,115,112,112,112,112,112,112,106,96],"timestamp_mouse":[29,47,67,88,108,127,147,168,187,208,227,247,267,287,309,328,348,368,388,408,428,448,468,488,509,528,547,567,589,608,628,648,667,687,708,727,747,767,787,807,827,848,868,888,909,927,949,968,988,1007,1028,1047,1067,1087,1107,1128,1147,1167,1188,1207,1227,1249,1268,1288,1307,1328,1347,1368,1388,1407,1427,1448],"xSR":741.5,"ySR":469.95,"xT1":424.9,"yT1":0,"xT2":1058.1,"yT2":0,"toosoon":0,"cond_shown":"equaldotanddens","ratio_trial":750,"smaller_num":"6","larger_num":"8","correct_side":1,"subjID":"Juan Camilo Cruz Vargas 4","gender":"0","age":"9","school":"4"},{"start_time":1552314387732,"click_time":1552314388920,"finger_time":1552314388482,"fix_duration":250,"trial":11,"RT":750,"MT":438,"sideResp":1,"stimulus":"img/750/equaldotsize/L/14_Ratio_750_L_8_R_6.png","xmouse":[778,778,778,779,779,779,779,779,779,779,779,779,779,779,779,779,779,779,779,779,779,779,779,779,779,779,779,779,779,779,779,779,779,780,780,778,773,753,744,738,728,719,690,677,671,657,645,620,613,608,600,590,574,568,558,549,540,523,512,504],"ymouse":[513,513,513,513,513,514,514,514,514,514,514,514,514,514,514,514,514,514,514,514,514,514,514,514,514,514,514,514,514,514,514,514,514,512,509,501,492,459,448,444,430,421,390,380,373,358,346,311,299,289,274,258,231,221,207,191,167,132,115,99],"timestamp_mouse":[13,30,49,69,89,109,128,150,169,189,209,230,250,269,289,310,328,348,369,390,409,428,450,470,488,508,529,550,569,588,608,628,649,670,689,709,729,750,769,788,809,828,848,870,888,909,929,948,969,988,1008,1028,1048,1069,1088,1109,1128,1148,1169,1188],"xSR":741.5,"ySR":469.95,"xT1":424.9,"yT1":0,"xT2":1058.1,"yT2":0,"toosoon":0,"cond_shown":"equaldotsize","ratio_trial":750,"smaller_num":"6","larger_num":"8","correct_side":1,"subjID":"Juan Camilo Cruz Vargas 4","gender":"0","age":"9","school":"4"},{"start_time":1552314389912,"click_time":1552314391120,"finger_time":1552314390580,"fix_duration":250,"trial":12,"RT":668,"MT":540,"sideResp":2,"stimulus":"img/500/equaldotsize/R/6_Ratio_500_L_9_R_18.png","xmouse":[800,799,799,798,798,798,797,796,795,795,794,794,794,794,794,794,794,794,794,794,794,794,794,794,794,794,794,794,794,794,795,798,802,822,836,851,876,889,910,922,934,944,953,968,972,979,986,991,995,999,1001,1004,1007,1010,1022,1029,1032,1037,1042,1056,1059],"ymouse":[514,514,514,514,514,514,514,514,514,514,514,514,514,514,514,514,514,514,514,514,514,514,514,514,514,514,514,514,514,514,506,498,481,433,401,369,310,276,229,206,189,170,155,131,121,110,100,94,92,90,90,89,88,86,83,82,81,79,78,74,73],"timestamp_mouse":[10,28,50,69,88,109,129,148,169,189,210,229,248,269,290,309,328,349,369,389,410,429,449,469,489,510,528,548,569,589,608,629,649,668,689,709,729,748,769,789,808,830,848,869,890,909,929,950,969,988,1009,1028,1048,1069,1089,1109,1129,1148,1168,1188,1208],"xSR":741.5,"ySR":469.95,"xT1":424.9,"yT1":0,"xT2":1058.1,"yT2":0,"toosoon":0,"cond_shown":"equaldotsize","ratio_trial":500,"smaller_num":"9","larger_num":"18","correct_side":2,"subjID":"Juan Camilo Cruz Vargas 4","gender":"0","age":"9","school":"4"},{"start_time":1552314393130,"click_time":1552314394182,"finger_time":1552314394021,"fix_duration":1148.4362206086396,"trial":13,"RT":891,"MT":161,"sideResp":2,"stimulus":"img/250/equaldotanddens/R/6_Ratio_250_L_6_R_24.png","xmouse":[786,786,786,786,786,786,786,786,786,786,787,787,787,787,787,787,787,787,787,787,787,787,787,787,787,787,787,787,787,787,787,787,787,787,787,787,787,786,785,785,785,785,787,814,879,934,964,1023,1041,1064,1085,1104,1124],"ymouse":[531,531,531,531,531,531,531,531,530,530,529,529,529,528,528,528,528,528,528,528,528,528,528,528,528,528,528,528,528,528,528,528,528,527,527,527,524,520,519,517,516,514,509,479,420,376,344,271,226,184,147,115,87],"timestamp_mouse":[12,30,51,71,91,110,131,150,170,191,210,232,250,271,290,310,330,352,370,391,410,432,451,470,491,510,530,550,571,590,611,630,650,671,691,710,730,752,771,791,811,830,851,871,891,910,930,952,971,991,1011,1030,1052],"xSR":741.5,"ySR":469.95,"xT1":424.9,"yT1":0,"xT2":1058.1,"yT2":0,"toosoon":0,"cond_shown":"equaldotanddens","ratio_trial":250,"smaller_num":"6","larger_num":"24","correct_side":2,"subjID":"Juan Camilo Cruz Vargas 4","gender":"0","age":"9","school":"4"},{"start_time":1552314396365,"click_time":1552314397801,"finger_time":1552314397161,"fix_duration":1182.2633936291481,"trial":14,"RT":796,"MT":640,"sideResp":2,"stimulus":"img/250/randomdotsizeEA/R/6_Ratio_250_L_6_R_24.png","xmouse":[787,787,787,787,787,787,787,787,787,787,787,787,787,787,787,787,787,787,787,787,787,787,787,787,787,787,787,787,787,787,787,787,787,787,787,788,795,806,826,848,873,913,921,929,933,946,968,980,991,999,1003,1009,1009,1011,1011,1012,1019,1025,1030,1034,1039,1051,1054,1057,1061,1065,1070,1073,1077,1080,1087,1095],"ymouse":[539,539,539,539,539,539,539,539,539,539,539,539,539,539,539,539,539,539,539,539,539,539,539,539,539,539,539,539,539,539,539,539,539,539,539,537,527,516,498,480,460,417,403,394,390,373,340,325,308,290,281,263,260,256,253,249,231,218,204,190,177,149,144,140,134,130,121,118,113,111,106,98],"timestamp_mouse":[17,35,56,76,96,116,136,156,175,195,216,236,257,275,296,316,335,356,375,396,416,437,456,477,496,515,535,557,575,596,616,636,655,675,696,716,735,755,776,796,816,836,856,876,895,915,936,956,976,997,1016,1035,1057,1075,1095,1117,1136,1156,1175,1196,1216,1236,1256,1275,1295,1315,1336,1355,1375,1396,1416,1435],"xSR":741.5,"ySR":469.95,"xT1":424.9,"yT1":0,"xT2":1058.1,"yT2":0,"toosoon":0,"cond_shown":"randomdotsizeEA","ratio_trial":250,"smaller_num":"6","larger_num":"24","correct_side":2,"subjID":"Juan Camilo Cruz Vargas 4","gender":"0","age":"9","school":"4"},{"start_time":1552314399764,"click_time":1552314401501,"finger_time":1552314400501,"fix_duration":1202.6568852460264,"trial":15,"RT":737,"MT":1000,"sideResp":1,"stimulus":"img/750/randomdotsizeEA/L/13_Ratio_750_L_8_R_6.png","xmouse":[786,786,786,786,786,786,786,786,786,786,786,786,786,786,786,786,786,786,786,786,786,787,787,787,787,787,787,787,787,787,787,792,796,800,805,811,817,820,821,823,827,838,844,848,851,852,854,854,851,850,845,831,815,798,780,768,745,735,728,719,707,692,685,678,671,665,659,638,633,619,613,609,597,584,572,557,548,538,534,530,528,524,523,522,520,518,515],"ymouse":[535,535,535,535,535,535,535,535,535,535,535,535,535,535,535,535,535,535,535,535,534,532,532,532,532,532,532,532,532,532,532,519,508,496,484,472,454,444,439,431,423,401,386,372,358,346,337,330,324,322,316,303,294,281,268,255,232,225,221,217,212,202,197,192,186,182,178,169,167,163,161,161,157,150,143,136,131,125,123,120,118,109,107,105,103,101,98],"timestamp_mouse":[17,37,57,78,97,117,137,157,176,196,217,237,257,277,296,316,337,358,376,396,416,437,456,476,497,517,537,557,576,596,617,637,656,676,696,716,737,757,778,796,817,837,856,877,897,917,937,957,976,996,1016,1037,1056,1077,1097,1116,1137,1156,1176,1196,1216,1237,1257,1276,1296,1316,1337,1357,1377,1397,1418,1438,1456,1476,1497,1517,1537,1557,1577,1596,1616,1637,1656,1676,1696,1716,1737],"xSR":741.5,"ySR":469.95,"xT1":424.9,"yT1":0,"xT2":1058.1,"yT2":0,"toosoon":0,"cond_shown":"randomdotsizeEA","ratio_trial":750,"smaller_num":"6","larger_num":"8","correct_side":1,"subjID":"Juan Camilo Cruz Vargas 4","gender":"0","age":"9","school":"4"},{"start_time":1552314402812,"click_time":1552314404161,"finger_time":1552314403621,"fix_duration":250,"trial":16,"RT":809,"MT":540,"sideResp":1,"stimulus":"img/250/randomdotsizeEA/L/3_Ratio_250_L_8_R_2.png","xmouse":[795,795,795,795,795,795,795,795,795,795,795,795,795,795,795,795,795,795,795,795,795,795,795,795,795,794,794,794,794,793,793,793,793,793,793,793,792,790,787,785,780,776,771,764,753,712,692,664,633,571,537,509,482,462,452,447,446,443,440,438,436,436,436,436,435,435,435,435],"ymouse":[514,514,514,514,514,514,514,514,514,514,514,514,514,514,514,514,514,514,514,514,514,514,514,514,514,514,514,514,514,514,514,514,514,514,514,514,508,500,491,483,467,458,447,434,419,370,351,330,308,261,234,209,186,172,161,151,148,142,135,127,118,116,113,111,105,102,101,99],"timestamp_mouse":[12,36,48,69,89,109,129,149,170,189,209,229,249,269,289,309,328,348,370,389,409,428,449,469,489,508,529,548,568,589,608,629,649,668,689,709,728,748,768,788,809,828,849,868,888,908,928,948,969,990,1009,1028,1048,1069,1090,1109,1129,1148,1169,1189,1208,1229,1250,1269,1291,1309,1328,1349],"xSR":741.5,"ySR":469.95,"xT1":424.9,"yT1":0,"xT2":1058.1,"yT2":0,"toosoon":0,"cond_shown":"randomdotsizeEA","ratio_trial":250,"smaller_num":"2","larger_num":"8","correct_side":1,"subjID":"Juan Camilo Cruz Vargas 4","gender":"0","age":"9","school":"4"},{"start_time":1552314407508,"click_time":1552314408941,"finger_time":1552314408301,"fix_duration":1065.3580755032017,"trial":17,"RT":793,"MT":640,"sideResp":1,"stimulus":"img/500/randomdotsizeEA/L/8_Ratio_500_L_8_R_4.png","xmouse":[783,783,783,783,783,783,783,783,783,783,783,783,783,783,783,783,783,783,783,783,783,783,783,783,783,783,783,783,783,783,783,783,783,783,783,783,783,782,777,767,748,731,709,671,646,601,582,564,542,530,514,506,500,496,496,496,496,496,495,493,492,491,490,490,489,487,487,486,485,485,485,485],"ymouse":[521,521,521,521,521,521,521,521,521,521,521,521,521,521,521,521,521,521,521,521,521,521,521,521,521,521,521,521,521,521,521,521,521,521,521,517,511,501,489,467,440,423,402,370,348,309,290,269,241,224,202,191,182,177,175,175,175,175,172,165,153,148,144,138,133,127,119,116,114,111,101,95],"timestamp_mouse":[13,40,53,72,93,113,133,153,172,192,214,233,253,273,293,312,332,353,372,392,412,433,453,473,492,513,533,553,572,593,612,632,654,672,693,713,733,752,773,793,812,833,852,873,892,913,933,953,974,993,1013,1033,1054,1072,1092,1113,1133,1153,1173,1193,1213,1232,1252,1272,1292,1313,1332,1353,1372,1392,1413,1433],"xSR":741.5,"ySR":469.95,"xT1":424.9,"yT1":0,"xT2":1058.1,"yT2":0,"toosoon":0,"cond_shown":"randomdotsizeEA","ratio_trial":500,"smaller_num":"4","larger_num":"8","correct_side":1,"subjID":"Juan Camilo Cruz Vargas 4","gender":"0","age":"9","school":"4"},{"start_time":1552314410207,"click_time":1552314411361,"finger_time":1552314410941,"fix_duration":365.67488780330626,"trial":18,"RT":734,"MT":420,"sideResp":1,"stimulus":"img/250/equaldotsize/L/2_Ratio_250_L_16_R_4.png","xmouse":[806,806,806,806,806,806,806,806,806,806,806,806,806,806,806,806,806,806,806,806,806,806,806,806,806,806,806,806,806,806,805,801,792,786,781,771,745,730,715,698,664,646,630,609,593,581,555,550,547,542,534,528,527,524,521,514,509,503],"ymouse":[530,530,530,530,530,530,530,530,530,530,530,530,530,530,530,530,530,530,530,530,530,530,530,530,530,530,530,530,530,530,530,528,521,513,501,485,450,433,417,397,348,323,299,269,248,229,196,186,181,174,160,148,145,138,132,118,107,98],"timestamp_mouse":[15,46,54,73,94,113,135,154,174,194,214,234,254,274,294,314,333,353,374,394,413,433,453,474,493,514,534,555,574,593,613,634,654,673,694,713,734,754,773,793,815,834,854,873,894,915,934,953,973,993,1015,1033,1053,1074,1094,1115,1133,1154],"xSR":741.5,"ySR":469.95,"xT1":424.9,"yT1":0,"xT2":1058.1,"yT2":0,"toosoon":0,"cond_shown":"equaldotsize","ratio_trial":250,"smaller_num":"4","larger_num":"16","correct_side":1,"subjID":"Juan Camilo Cruz Vargas 4","gender":"0","age":"9","school":"4"},{"start_time":1552314413330,"click_time":1552314414341,"finger_time":1552314413961,"fix_duration":1108.083033322265,"trial":19,"RT":631,"MT":380,"sideResp":2,"stimulus":"img/250/equaldotsize/R/13_Ratio_250_L_2_R_8.png","xmouse":[802,802,802,802,802,802,801,800,800,800,798,798,798,798,798,798,798,798,798,798,798,798,798,798,798,798,798,798,797,805,815,828,843,860,877,914,924,937,954,965,994,1007,1021,1032,1038,1048,1050,1052,1054,1057,1063],"ymouse":[522,522,522,522,522,522,523,524,524,524,525,525,525,525,525,526,526,526,526,526,526,526,526,526,526,526,526,526,524,507,489,468,444,415,384,318,301,280,250,227,179,155,131,112,96,77,75,72,70,68,61],"timestamp_mouse":[11,36,51,72,90,111,132,151,171,190,211,231,251,271,290,311,331,351,370,392,410,430,451,470,491,510,530,550,571,592,610,631,651,670,691,711,732,751,771,791,811,831,850,870,891,911,931,951,970,990,1011],"xSR":741.5,"ySR":469.95,"xT1":424.9,"yT1":0,"xT2":1058.1,"yT2":0,"toosoon":0,"cond_shown":"equaldotsize","ratio_trial":250,"smaller_num":"2","larger_num":"8","correct_side":2,"subjID":"Juan Camilo Cruz Vargas 4","gender":"0","age":"9","school":"4"},{"start_time":1552314416492,"click_time":1552314417661,"finger_time":1552314417240,"fix_duration":1388.7097036534303,"trial":20,"RT":748,"MT":421,"sideResp":2,"stimulus":"img/500/equaldotanddens/R/1_Ratio_500_L_9_R_18.png","xmouse":[775,775,775,775,775,775,775,775,775,775,775,775,775,775,775,775,775,775,775,775,775,777,785,788,789,791,794,794,794,792,792,792,789,787,786,786,786,810,824,852,882,908,953,971,995,1003,1030,1062,1069,1072,1075,1078,1096,1101,1103,1104,1104,1104,1101],"ymouse":[531,531,531,531,531,531,531,531,531,531,531,531,531,531,531,531,531,531,531,531,534,536,546,547,547,547,545,539,536,534,534,533,528,523,516,510,503,458,437,402,365,338,282,263,243,238,224,217,217,216,215,212,190,176,156,131,113,100,82],"timestamp_mouse":[9,35,49,70,88,109,129,149,169,189,208,229,249,269,289,308,329,349,369,389,408,429,448,468,489,509,530,548,568,588,610,629,649,669,688,709,729,748,768,789,809,829,849,868,889,910,930,949,968,989,1010,1029,1049,1068,1089,1108,1128,1149,1168],"xSR":741.5,"ySR":469.95,"xT1":424.9,"yT1":0,"xT2":1058.1,"yT2":0,"toosoon":0,"cond_shown":"equaldotanddens","ratio_trial":500,"smaller_num":"9","larger_num":"18","correct_side":2,"subjID":"Juan Camilo Cruz Vargas 4","gender":"0","age":"9","school":"4"},{"start_time":1552314418933,"click_time":1552314420121,"finger_time":1552314419761,"fix_duration":250,"trial":21,"RT":828,"MT":360,"sideResp":1,"stimulus":"img/750/equaldotsize/R/15_Ratio_750_L_9_R_12.png","xmouse":[794,794,793,793,793,793,793,793,793,793,793,793,793,793,793,793,793,793,793,793,793,793,793,793,793,793,793,793,793,793,793,793,793,793,793,793,793,793,793,791,772,761,750,729,708,671,574,528,504,491,470,461,450,444,439,433,432,431,431,431],"ymouse":[514,514,514,514,514,514,514,514,514,514,514,514,514,514,514,514,514,514,514,514,514,514,514,514,514,514,514,514,514,514,514,514,514,514,514,514,514,514,510,507,479,467,456,439,417,379,296,255,234,218,189,177,158,146,133,116,109,104,101,95],"timestamp_mouse":[12,36,48,68,88,108,128,148,167,188,208,227,248,267,288,308,329,348,368,387,408,429,448,467,488,507,528,548,569,587,608,627,648,667,688,708,727,748,769,787,809,828,848,867,888,907,927,948,967,987,1009,1027,1047,1069,1088,1109,1127,1148,1168,1188],"xSR":741.5,"ySR":469.95,"xT1":424.9,"yT1":0,"xT2":1058.1,"yT2":0,"toosoon":0,"cond_shown":"equaldotsize","ratio_trial":750,"smaller_num":"9","larger_num":"12","correct_side":2,"subjID":"Juan Camilo Cruz Vargas 4","gender":"0","age":"9","school":"4"},{"start_time":1552314424182,"click_time":1552314425261,"finger_time":1552314424681,"fix_duration":1100.081634558751,"trial":22,"RT":499,"MT":580,"sideResp":1,"stimulus":"img/750/equaldotanddens/L/13_Ratio_750_L_8_R_6.png","xmouse":[798,798,798,798,798,798,798,798,798,798,798,798,798,798,798,798,798,798,800,801,803,805,807,808,808,809,809,809,810,810,811,813,816,822,832,845,862,879,882,882,882,882,882,882,882,882,879,854,782,719,664,609,560,472],"ymouse":[518,518,518,518,518,518,518,518,518,518,518,518,518,518,518,518,518,518,513,507,500,491,481,471,467,467,466,465,460,453,448,441,434,417,399,382,363,341,328,326,326,325,325,325,325,325,323,309,272,241,212,173,136,57],"timestamp_mouse":[20,42,60,80,99,118,139,160,178,199,220,238,258,279,298,318,339,359,378,398,419,440,459,479,499,519,540,559,578,599,619,639,659,679,698,718,738,760,779,800,819,838,858,879,900,919,939,958,979,998,1019,1039,1059,1079],"xSR":741.5,"ySR":469.95,"xT1":424.9,"yT1":0,"xT2":1058.1,"yT2":0,"toosoon":0,"cond_shown":"equaldotanddens","ratio_trial":750,"smaller_num":"6","larger_num":"8","correct_side":1,"subjID":"Juan Camilo Cruz Vargas 4","gender":"0","age":"9","school":"4"},{"start_time":1552314426572,"click_time":1552314428021,"finger_time":1552314428021,"fix_duration":250,"trial":23,"RT":1449,"MT":0,"sideResp":1,"stimulus":"img/500/equaldotanddens/L/10_Ratio_500_L_4_R_2.png","xmouse":[780,769,766,766,766,766,766,766,766,766,766,774,785,796,807,807,807,807,807,807,807,807,807,807,807,807,807,807,807,807,807,807,804,802,802,802,802,802,802,802,802,802,802,802,802,802,802,802,802,802,802,802,802,802,802,802,802,802,802,802,802,802,802,802,802,802,802,802,802,802,802,802,508],"ymouse":[513,513,513,513,513,513,513,513,513,513,513,514,517,522,528,528,528,528,528,528,528,528,527,527,527,527,527,527,527,527,527,527,527,527,527,527,527,527,527,527,527,527,527,527,527,527,527,527,527,527,527,527,527,527,527,527,527,527,527,527,527,527,527,527,527,527,527,527,527,527,527,527,75],"timestamp_mouse":[15,34,48,70,89,109,128,148,168,189,209,229,249,269,289,309,329,350,368,389,408,429,449,469,488,510,529,548,568,589,609,628,648,669,690,709,728,748,768,788,808,828,848,868,889,908,930,949,968,988,1008,1028,1049,1070,1089,1108,1129,1149,1169,1189,1209,1229,1250,1269,1288,1309,1330,1350,1368,1388,1409,1429,1449],"xSR":741.5,"ySR":469.95,"xT1":424.9,"yT1":0,"xT2":1058.1,"yT2":0,"toosoon":0,"cond_shown":"equaldotanddens","ratio_trial":500,"smaller_num":"2","larger_num":"4","correct_side":1,"subjID":"Juan Camilo Cruz Vargas 4","gender":"0","age":"9","school":"4"},{"start_time":1552314431234,"click_time":1552314432821,"finger_time":1552314432701,"fix_duration":1231.4132319567902,"trial":24,"RT":1467,"MT":120,"sideResp":1,"stimulus":"img/500/equaldotsize/L/10_Ratio_500_L_4_R_2.png","xmouse":[779,779,779,779,779,779,779,779,779,779,779,779,779,779,779,779,779,779,779,779,779,779,779,779,779,779,779,779,779,779,779,779,779,779,779,779,779,779,779,779,779,779,779,779,779,779,779,779,779,779,779,779,779,779,779,779,779,779,779,779,779,779,779,779,779,779,779,779,779,779,779,779,779,527,527,527,527,527,525,524],"ymouse":[529,529,529,529,529,529,529,529,529,529,529,529,529,529,529,529,529,529,529,529,529,529,529,529,529,529,529,529,529,529,529,529,529,521,521,521,521,521,521,521,521,521,521,521,521,521,521,521,521,521,521,521,521,521,521,521,521,521,521,521,521,521,521,521,521,521,521,521,521,521,521,521,521,63,63,63,63,63,63,63],"timestamp_mouse":[8,34,47,66,88,106,126,148,166,186,207,227,248,268,286,306,327,347,366,387,407,427,448,466,487,506,527,546,566,586,607,627,648,668,686,708,727,747,766,788,807,827,848,868,888,906,926,948,967,986,1006,1027,1048,1066,1086,1107,1127,1148,1166,1186,1206,1227,1248,1267,1287,1306,1327,1348,1368,1386,1406,1426,1448,1467,1487,1507,1527,1548,1567,1587],"xSR":741.5,"ySR":469.95,"xT1":424.9,"yT1":0,"xT2":1058.1,"yT2":0,"toosoon":0,"cond_shown":"equaldotsize","ratio_trial":500,"smaller_num":"2","larger_num":"4","correct_side":1,"subjID":"Juan Camilo Cruz Vargas 4","gender":"0","age":"9","school":"4"},{"start_time":1552314434390,"click_time":1552314436040,"finger_time":1552314436040,"fix_duration":828.3511549288652,"trial":25,"RT":1650,"MT":0,"sideResp":1,"stimulus":"img/900/randomdotsizeEA/L/10_Ratio_900_L_20_R_18.png","xmouse":[790,790,790,790,790,790,790,790,790,790,790,790,790,790,790,790,790,790,790,790,790,790,790,790,790,790,790,790,790,790,790,788,788,788,788,788,788,788,788,788,788,788,788,788,788,788,788,788,788,788,788,788,788,788,788,788,788,788,788,788,788,788,788,788,788,788,788,788,788,788,788,788,788,788,788,788,788,788,788,788,788,788,502],"ymouse":[530,530,530,530,530,530,530,530,530,530,530,530,530,530,530,530,530,530,530,530,530,530,530,530,530,530,530,530,530,530,530,527,525,525,525,525,525,525,525,525,525,525,525,525,525,525,525,525,525,525,525,525,525,525,525,525,525,525,525,525,525,525,525,525,525,525,525,525,525,525,525,525,525,525,525,525,525,525,525,525,525,525,68],"timestamp_mouse":[12,36,51,71,91,110,131,151,171,191,210,231,251,271,290,310,330,351,371,390,411,431,451,471,490,510,531,551,570,590,610,631,650,670,690,710,730,750,770,790,810,830,850,870,891,912,930,950,971,990,1011,1030,1052,1071,1090,1111,1130,1151,1170,1192,1210,1230,1251,1272,1290,1310,1330,1350,1371,1390,1410,1430,1450,1470,1491,1512,1530,1550,1571,1590,1611,1631,1650],"xSR":741.5,"ySR":469.95,"xT1":424.9,"yT1":0,"xT2":1058.1,"yT2":0,"toosoon":0,"cond_shown":"randomdotsizeEA","ratio_trial":900,"smaller_num":"18","larger_num":"20","correct_side":1,"subjID":"Juan Camilo Cruz Vargas 4","gender":"0","age":"9","school":"4"},{"start_time":1552314437627,"click_time":1552314439321,"finger_time":1552314439321,"fix_duration":963.5719622163283,"trial":26,"RT":1694,"MT":0,"sideResp":1,"stimulus":"img/250/equaldotanddens/L/3_Ratio_250_L_8_R_2.png","xmouse":[779,779,779,779,779,779,779,779,779,779,779,779,779,779,779,779,779,779,779,779,779,779,779,779,779,779,779,779,779,779,779,777,769,769,769,769,769,769,769,769,769,769,769,769,769,769,769,769,769,769,769,769,769,769,769,769,769,769,769,769,769,769,769,769,769,769,769,769,769,769,769,769,769,769,769,769,769,769,769,769,769,769,769,769,498],"ymouse":[517,517,517,517,517,517,517,517,517,517,517,517,517,517,517,517,517,517,517,517,517,517,517,517,517,517,517,517,517,517,517,515,502,502,502,502,502,502,502,502,502,502,502,502,502,502,502,502,502,502,502,502,502,502,502,502,502,502,502,502,502,502,502,502,502,502,502,502,502,502,502,502,502,502,502,502,502,502,502,502,502,502,502,502,79],"timestamp_mouse":[14,46,53,73,94,113,133,153,174,193,214,233,253,273,293,313,333,354,373,393,413,434,453,473,493,513,534,553,573,593,614,633,654,674,693,713,735,753,773,793,813,833,853,874,894,913,934,953,973,995,1013,1033,1053,1073,1093,1115,1133,1154,1174,1193,1213,1233,1253,1273,1293,1315,1333,1353,1374,1393,1414,1435,1454,1473,1493,1514,1535,1554,1574,1593,1613,1634,1653,1674,1694],"xSR":741.5,"ySR":469.95,"xT1":424.9,"yT1":0,"xT2":1058.1,"yT2":0,"toosoon":0,"cond_shown":"equaldotanddens","ratio_trial":250,"smaller_num":"2","larger_num":"8","correct_side":1,"subjID":"Juan Camilo Cruz Vargas 4","gender":"0","age":"9","school":"4"},{"start_time":1552314441181,"click_time":1552314442921,"finger_time":1552314442921,"fix_duration":979.8684516621332,"trial":27,"RT":1740,"MT":0,"sideResp":1,"stimulus":"img/500/equaldotanddens/L/5_Ratio_500_L_4_R_2.png","xmouse":[797,797,797,797,797,797,797,797,797,797,797,797,797,797,797,797,797,797,797,797,797,797,797,797,797,797,797,797,797,797,797,797,797,797,797,797,797,797,797,797,797,797,797,797,797,797,797,797,797,797,797,797,797,797,797,797,797,797,797,797,797,797,797,797,797,797,797,797,797,797,797,797,797,797,797,797,797,797,797,797,797,797,797,797,797,797,797,492],"ymouse":[528,529,529,529,529,529,529,529,529,529,529,529,529,529,529,529,529,529,529,529,529,529,529,529,529,529,529,527,524,524,524,524,524,524,524,524,524,524,524,524,524,524,524,524,524,524,524,524,524,524,524,524,524,524,524,524,524,524,524,524,524,524,524,524,524,524,524,524,524,524,524,524,524,524,524,524,524,524,524,524,524,524,524,524,524,524,524,89],"timestamp_mouse":[1,30,39,59,79,99,120,139,159,179,199,220,239,259,280,299,319,341,359,379,399,420,439,460,480,499,520,539,561,579,599,619,639,660,679,699,721,739,760,780,800,821,839,859,879,899,919,940,959,980,1000,1019,1040,1060,1079,1100,1119,1139,1160,1179,1199,1219,1239,1259,1279,1300,1319,1340,1359,1379,1399,1419,1439,1459,1480,1499,1519,1539,1561,1579,1599,1619,1640,1660,1679,1699,1720,1740],"xSR":741.5,"ySR":469.95,"xT1":424.9,"yT1":0,"xT2":1058.1,"yT2":0,"toosoon":0,"cond_shown":"equaldotanddens","ratio_trial":500,"smaller_num":"2","larger_num":"4","correct_side":1,"subjID":"Juan Camilo Cruz Vargas 4","gender":"0","age":"9","school":"4"},{"start_time":1552314444151,"click_time":1552314445321,"finger_time":1552314445321,"fix_duration":250,"trial":28,"RT":1170,"MT":0,"sideResp":1,"stimulus":"img/250/equaldotanddens/L/7_Ratio_250_L_8_R_2.png","xmouse":[757,757,757,760,761,763,764,764,765,765,765,766,767,768,768,768,768,768,769,769,769,769,769,769,769,769,766,761,761,761,761,761,761,761,761,761,761,761,761,761,761,761,761,761,761,761,761,761,761,761,761,761,761,761,761,761,761,761,476],"ymouse":[506,508,510,516,517,518,519,519,519,519,519,519,519,520,520,520,520,520,520,520,520,520,520,520,520,520,519,516,516,516,516,516,516,516,516,516,516,516,516,516,516,516,516,516,516,516,516,516,516,516,516,516,516,516,516,516,516,516,88],"timestamp_mouse":[9,29,49,69,89,109,130,151,169,189,209,229,249,269,289,309,330,349,369,389,409,430,449,469,489,509,530,549,569,590,609,629,649,670,690,710,729,749,770,789,810,829,849,870,889,910,930,950,969,989,1009,1029,1049,1069,1090,1109,1129,1149,1170],"xSR":741.5,"ySR":469.95,"xT1":424.9,"yT1":0,"xT2":1058.1,"yT2":0,"toosoon":0,"cond_shown":"equaldotanddens","ratio_trial":250,"smaller_num":"2","larger_num":"8","correct_side":1,"subjID":"Juan Camilo Cruz Vargas 4","gender":"0","age":"9","school":"4"},{"start_time":1552314447670,"click_time":1552314449341,"finger_time":1552314449341,"fix_duration":387.70380636710144,"trial":29,"RT":1671,"MT":0,"sideResp":2,"stimulus":"img/250/randomdotsizeEA/R/12_Ratio_250_L_5_R_20.png","xmouse":[791,791,791,791,791,791,791,791,791,791,791,790,780,780,780,780,780,780,780,780,780,780,780,780,780,780,780,780,780,780,780,780,780,780,780,780,780,780,780,780,780,780,780,780,780,780,780,780,780,780,780,780,780,780,780,780,780,780,780,780,780,780,780,780,780,780,780,780,780,780,780,780,780,780,780,780,780,780,780,780,780,780,780,1085],"ymouse":[517,517,517,517,517,517,517,517,517,517,517,517,513,513,513,513,513,513,513,513,513,513,513,513,513,513,513,513,513,513,513,513,513,513,513,513,513,513,513,513,513,513,513,513,513,513,513,513,513,513,513,513,513,513,513,513,513,513,513,513,513,513,513,513,513,513,513,513,513,513,513,513,513,513,513,513,513,513,513,513,513,513,513,72],"timestamp_mouse":[15,38,50,71,90,110,130,150,170,190,210,231,250,271,292,310,332,350,370,392,410,431,450,471,490,512,531,551,571,590,610,630,651,672,692,710,730,751,771,790,810,830,851,870,891,910,930,951,970,992,1010,1030,1051,1072,1091,1110,1130,1151,1170,1192,1211,1230,1251,1270,1290,1310,1330,1351,1370,1390,1411,1432,1450,1470,1490,1510,1531,1552,1571,1590,1611,1630,1652,1671],"xSR":741.5,"ySR":469.95,"xT1":424.9,"yT1":0,"xT2":1058.1,"yT2":0,"toosoon":0,"cond_shown":"randomdotsizeEA","ratio_trial":250,"smaller_num":"5","larger_num":"20","correct_side":2,"subjID":"Juan Camilo Cruz Vargas 4","gender":"0","age":"9","school":"4"},{"start_time":1552314452436,"click_time":1552314454080,"finger_time":1552314454080,"fix_duration":953.4835918455484,"trial":30,"RT":1644,"MT":0,"sideResp":2,"stimulus":"img/900/equaldotsize/L/4_Ratio_900_L_20_R_18.png","xmouse":[785,785,785,785,785,785,785,785,785,785,785,785,785,785,785,785,785,785,785,785,785,785,785,785,785,788,788,788,788,788,788,788,788,788,788,788,788,788,788,788,788,788,788,788,788,788,788,788,788,788,788,788,788,788,788,788,788,788,788,788,788,788,788,788,788,788,788,788,788,788,788,788,788,788,788,788,788,788,788,788,788,788,1079],"ymouse":[524,524,524,524,524,524,524,524,524,524,524,524,524,524,524,524,524,524,524,524,524,524,524,524,524,520,520,520,520,520,520,520,520,520,520,520,520,520,520,520,520,520,520,520,520,520,520,520,520,520,520,520,520,520,520,520,520,520,520,520,520,520,520,520,520,520,520,520,520,520,520,520,520,520,520,520,520,520,520,520,520,520,87],"timestamp_mouse":[12,32,44,64,85,105,124,144,165,185,205,224,245,264,284,304,325,344,365,385,404,424,444,464,484,504,524,544,564,586,605,624,645,665,684,705,725,744,764,784,805,824,846,864,884,904,924,944,964,986,1005,1024,1045,1064,1084,1104,1124,1145,1164,1185,1205,1226,1245,1264,1284,1304,1324,1345,1366,1384,1404,1424,1444,1464,1484,1504,1524,1544,1565,1585,1605,1624,1644],"xSR":741.5,"ySR":469.95,"xT1":424.9,"yT1":0,"xT2":1058.1,"yT2":0,"toosoon":0,"cond_shown":"equaldotsize","ratio_trial":900,"smaller_num":"18","larger_num":"20","correct_side":1,"subjID":"Juan Camilo Cruz Vargas 4","gender":"0","age":"9","school":"4"},{"start_time":1552314455054,"click_time":1552314460920,"finger_time":1552314455701,"fix_duration":250,"trial":31,"RT":647,"MT":5219,"sideResp":1,"stimulus":"img/250/equaldotsize/R/6_Ratio_250_L_6_R_24.png","xmouse":[786,784,782,781,781,781,781,781,781,781,781,780,778,777,777,777,777,777,777,777,777,777,777,777,777,777,777,777,777,777,777,777,780,783,784,784,784,784,784,784,784,784,784,784,784,784,785,786,788,794,796,798,800,801,802,802,802,802,803,803,801,801,801,801,801,801,801,800,800,799,798,798,798,798,797,796,795,795,793,783,771,766,764,764,764,764,763,762,761,761,761,761,761,761,760,760,760,766,778,796,796,796,796,797,797,797,798,798,798,798,798,798,798,798,798,798,798,796,794,794,794,794,794,794,794,794,794,794,794,794,794,794,794,794,794,794,794,794,794,793,791,790,789,789,789,789,789,789,789,789,789,789,789,789,789,789,789,789,789,789,789,789,789,789,789,789,789,789,789,789,789,789,789,789,789,789,789,789,789,789,789,789,789,789,789,789,789,789,789,789,789,789,789,789,789,789,789,789,789,789,789,789,789,789,789,789,789,789,789,789,789,789,789,789,789,789,789,789,789,789,789,789,789,789,789,789,789,789,789,789,789,789,789,789,789,789,789,789,789,789,789,789,789,789,789,789,789,789,789,789,789,789,789,789,789,789,789,789,789,789,789,789,788,787,784,784,784,784,784,784,784,784,784,784,784,784,784,784,784,784,784,784,784,784,784,784,784,784,784,784,784,784,784,515],"ymouse":[513,519,523,527,527,527,511,505,491,488,488,487,489,491,491,491,491,491,491,491,491,491,491,491,490,490,489,489,489,486,483,478,466,451,448,446,446,446,447,447,447,447,447,447,449,450,452,453,456,463,467,470,473,473,475,475,475,475,475,483,492,498,504,508,513,513,513,514,515,518,521,522,522,522,524,524,526,527,529,542,557,562,563,563,556,550,546,542,541,541,541,544,546,551,556,556,557,553,540,523,523,523,523,523,524,524,525,525,525,525,525,525,525,525,525,525,520,518,515,515,515,515,515,515,515,515,515,515,515,515,515,515,515,515,515,515,515,515,515,515,517,519,521,522,522,522,522,522,522,522,522,522,522,522,522,522,522,522,522,522,522,522,522,522,522,522,522,522,522,522,522,522,522,522,522,522,522,522,522,522,522,522,522,522,522,522,522,522,522,522,522,522,522,522,522,522,522,522,522,522,522,522,522,522,522,522,522,522,522,522,522,522,522,522,522,522,522,522,522,522,522,522,522,522,522,522,522,522,522,522,522,522,522,522,522,522,522,522,522,522,522,522,522,522,522,522,522,522,522,522,522,522,522,522,522,522,522,522,522,522,522,522,519,516,509,509,509,509,509,509,509,509,509,509,509,509,509,509,509,509,509,509,509,509,509,509,509,509,509,509,509,509,509,71],"timestamp_mouse":[8,26,48,67,86,106,126,146,167,186,206,226,246,266,286,306,326,346,366,386,406,426,448,467,486,506,526,546,566,586,606,626,647,667,686,706,726,746,768,786,806,826,846,868,886,907,926,946,966,986,1007,1026,1047,1066,1088,1107,1127,1146,1166,1186,1206,1226,1246,1266,1287,1306,1327,1346,1367,1386,1406,1426,1446,1468,1487,1507,1526,1547,1566,1587,1606,1626,1646,1666,1686,1706,1726,1747,1766,1786,1807,1827,1846,1866,1887,1906,1926,1947,1966,1986,2007,2026,2046,2068,2086,2106,2127,2147,2167,2187,2206,2226,2247,2266,2287,2307,2327,2347,2367,2386,2406,2426,2447,2467,2487,2507,2526,2546,2566,2587,2606,2626,2646,2666,2688,2706,2726,2746,2766,2788,2808,2827,2846,2866,2888,2906,2927,2946,2966,2986,3006,3026,3046,3066,3087,3106,3126,3146,3167,3186,3206,3226,3246,3266,3287,3307,3326,3346,3368,3387,3406,3426,3446,3466,3487,3507,3526,3547,3566,3586,3606,3626,3647,3666,3687,3707,3726,3747,3766,3787,3806,3826,3846,3866,3887,3908,3927,3946,3966,3987,4006,4026,4046,4066,4088,4106,4126,4146,4166,4187,4206,4226,4247,4267,4288,4307,4326,4346,4366,4388,4406,4426,4446,4468,4486,4506,4526,4546,4566,4588,4606,4626,4647,4666,4686,4706,4726,4746,4766,4786,4807,4826,4846,4866,4886,4907,4927,4947,4966,4986,5006,5027,5046,5066,5086,5107,5126,5148,5166,5186,5206,5227,5247,5267,5286,5306,5326,5346,5366,5387,5406,5426,5446,5467,5488,5506,5526,5547,5566,5587,5606,5626,5646,5666,5686,5706,5726,5746,5767,5787,5807,5826,5846,5866],"xSR":741.5,"ySR":469.95,"xT1":424.9,"yT1":0,"xT2":1058.1,"yT2":0,"toosoon":0,"cond_shown":"equaldotsize","ratio_trial":250,"smaller_num":"6","larger_num":"24","correct_side":2,"subjID":"Juan Camilo Cruz Vargas 4","gender":"0","age":"9","school":"4"},{"start_time":1552314461892,"click_time":1552314464121,"finger_time":1552314461960,"fix_duration":250,"trial":32,"RT":68,"MT":2161,"sideResp":1,"stimulus":"img/500/equaldotsize/L/8_Ratio_500_L_8_R_4.png","xmouse":[805,808,808,807,805,803,802,803,806,812,818,821,822,822,822,822,822,822,822,821,819,817,814,809,805,804,800,787,781,779,779,779,778,777,777,777,777,777,777,777,777,777,777,777,777,777,777,777,777,777,777,777,777,777,777,777,777,777,777,777,775,775,775,775,775,775,775,775,775,775,775,775,775,775,775,775,775,775,775,775,775,775,775,775,775,775,775,775,775,775,775,775,775,775,775,775,775,775,775,775,775,775,775,775,775,775,775,775,775,775,775,494],"ymouse":[535,541,559,572,588,599,608,611,608,595,582,571,565,565,565,565,565,565,565,565,564,559,554,550,548,546,542,528,521,518,518,518,518,517,517,517,517,517,517,517,517,517,517,517,517,517,517,517,517,517,517,517,517,517,517,517,517,517,517,517,512,512,512,512,512,512,512,512,512,512,512,512,512,512,512,512,512,512,512,512,512,512,512,512,512,512,512,512,512,512,512,512,512,512,512,512,512,512,512,512,512,512,512,512,512,512,512,512,512,512,512,74],"timestamp_mouse":[9,30,48,68,90,109,128,149,168,188,208,228,248,268,288,308,328,348,368,388,408,428,448,468,488,508,528,549,569,588,608,628,648,668,688,708,729,748,768,789,809,829,848,868,888,909,928,948,969,989,1008,1028,1048,1068,1089,1109,1128,1149,1168,1189,1208,1230,1248,1269,1291,1309,1328,1348,1369,1389,1409,1429,1448,1468,1488,1509,1530,1549,1569,1588,1609,1629,1649,1668,1688,1709,1729,1749,1769,1789,1810,1828,1848,1868,1888,1909,1928,1948,1969,1988,2008,2028,2048,2068,2088,2108,2128,2148,2169,2189,2208,2229],"xSR":741.5,"ySR":469.95,"xT1":424.9,"yT1":0,"xT2":1058.1,"yT2":0,"toosoon":0,"cond_shown":"equaldotsize","ratio_trial":500,"smaller_num":"4","larger_num":"8","correct_side":1,"subjID":"Juan Camilo Cruz Vargas 4","gender":"0","age":"9","school":"4"},{"start_time":1552314466071,"click_time":1552314467880,"finger_time":1552314467880,"fix_duration":1309.5329331890935,"trial":33,"RT":1809,"MT":0,"sideResp":2,"stimulus":"img/750/equaldotanddens/R/7_Ratio_750_L_3_R_4.png","xmouse":[784,784,784,784,784,784,784,784,784,784,784,784,784,784,784,784,784,784,784,784,784,784,784,784,784,784,784,784,784,784,784,784,784,784,784,784,784,784,784,784,784,784,785,787,790,790,790,790,790,790,790,790,790,790,790,790,790,790,790,790,790,790,790,790,790,790,790,790,790,790,790,790,790,790,790,790,790,790,790,790,790,790,790,790,790,790,790,790,790,790,1107],"ymouse":[519,519,519,519,519,519,519,519,519,519,519,519,519,519,519,519,519,519,519,519,519,519,519,519,519,519,519,519,519,519,519,519,519,519,519,519,519,519,519,519,519,519,518,516,513,513,513,513,513,513,513,513,513,513,513,513,513,513,513,513,513,513,513,513,513,513,513,513,513,513,513,513,513,513,513,513,513,513,513,513,513,513,513,513,513,513,513,513,513,513,41],"timestamp_mouse":[12,33,49,69,90,110,129,149,169,191,209,229,249,269,289,309,329,349,370,389,409,429,449,470,490,510,530,549,569,589,609,629,649,669,689,710,729,749,769,790,809,829,850,869,889,909,930,951,969,989,1009,1030,1049,1070,1089,1109,1129,1149,1169,1191,1209,1231,1249,1269,1290,1309,1329,1349,1369,1390,1409,1429,1449,1471,1490,1511,1530,1549,1569,1591,1609,1631,1649,1669,1689,1710,1730,1750,1769,1790,1809],"xSR":741.5,"ySR":469.95,"xT1":424.9,"yT1":0,"xT2":1058.1,"yT2":0,"toosoon":0,"cond_shown":"equaldotanddens","ratio_trial":750,"smaller_num":"3","larger_num":"4","correct_side":2,"subjID":"Juan Camilo Cruz Vargas 4","gender":"0","age":"9","school":"4"},{"start_time":1552314470092,"click_time":1552314471861,"finger_time":1552314471861,"fix_duration":250,"trial":34,"RT":1769,"MT":0,"sideResp":2,"stimulus":"img/750/equaldotanddens/R/2_Ratio_750_L_6_R_8.png","xmouse":[796,795,794,790,789,788,788,788,788,788,787,787,787,786,786,786,785,785,785,785,785,785,785,785,785,785,785,785,785,785,785,785,785,785,785,785,785,785,785,785,785,785,785,785,785,785,785,785,785,785,785,785,785,785,785,785,785,785,785,785,785,785,785,785,785,785,785,785,785,785,785,785,785,785,785,785,785,785,785,785,785,785,785,785,785,785,785,785,1081],"ymouse":[539,537,534,524,520,517,517,517,517,517,517,517,517,517,517,518,519,519,519,519,519,519,519,519,519,519,519,519,519,519,519,519,519,519,519,519,519,519,519,519,519,519,519,519,519,515,515,515,515,515,515,515,515,515,515,515,515,515,515,515,515,515,515,515,515,515,515,515,515,515,515,515,515,515,515,515,515,515,515,515,515,515,515,515,515,515,515,515,80],"timestamp_mouse":[14,30,48,68,89,108,129,148,168,188,209,228,248,268,288,308,330,349,369,388,408,428,449,469,488,508,528,548,568,589,609,628,649,669,688,708,728,749,768,788,809,829,849,868,888,909,928,948,968,988,1008,1028,1048,1069,1088,1108,1129,1149,1169,1188,1208,1228,1248,1268,1290,1308,1329,1348,1370,1388,1408,1428,1448,1469,1488,1508,1530,1549,1570,1589,1608,1628,1648,1669,1688,1709,1728,1748,1769],"xSR":741.5,"ySR":469.95,"xT1":424.9,"yT1":0,"xT2":1058.1,"yT2":0,"toosoon":0,"cond_shown":"equaldotanddens","ratio_trial":750,"smaller_num":"6","larger_num":"8","correct_side":2,"subjID":"Juan Camilo Cruz Vargas 4","gender":"0","age":"9","school":"4"},{"start_time":1552314474822,"click_time":1552314477601,"finger_time":1552314477601,"fix_duration":480.02745472187036,"trial":35,"RT":2779,"MT":0,"sideResp":2,"stimulus":"img/500/randomdotsizeEA/R/15_Ratio_500_L_1_R_2.png","xmouse":[801,801,801,801,801,801,801,801,800,799,798,797,794,793,792,792,792,792,792,792,792,792,792,792,792,792,792,792,792,792,792,792,792,792,792,792,792,792,792,792,792,792,792,792,792,792,792,792,792,792,792,792,792,792,792,792,792,792,792,792,792,792,792,792,792,792,792,792,792,792,792,792,792,792,792,792,792,792,792,792,792,792,792,792,792,792,792,792,792,792,792,792,792,792,792,792,792,792,792,792,792,792,792,792,792,792,792,792,792,792,792,792,792,792,792,792,792,792,792,792,792,792,792,792,792,792,792,792,792,792,792,792,792,792,792,792,792,792,1134],"ymouse":[523,523,523,523,523,523,523,523,523,523,523,523,523,523,523,523,523,523,523,523,523,523,523,523,524,524,524,524,524,524,524,524,524,524,524,524,524,524,524,524,524,524,524,524,524,524,524,524,524,524,524,524,524,524,524,524,524,524,524,524,524,524,519,519,519,519,519,519,519,519,519,519,519,519,519,519,519,519,519,519,519,519,519,519,519,519,519,519,519,519,519,519,519,519,519,519,519,519,519,519,519,519,519,519,519,519,519,519,519,519,519,519,519,519,519,519,519,519,519,519,519,519,519,519,519,519,519,519,519,519,519,519,519,519,519,519,519,519,65],"timestamp_mouse":[18,45,58,78,98,118,140,159,178,198,218,239,258,278,298,318,340,358,378,398,419,438,458,478,499,518,538,559,578,598,618,638,659,680,698,718,738,759,778,798,818,838,860,878,898,919,939,960,978,999,1018,1038,1058,1079,1098,1119,1139,1160,1178,1198,1220,1240,1258,1279,1298,1318,1338,1360,1378,1398,1418,1438,1458,1478,1498,1518,1539,1558,1580,1598,1618,1638,1660,1678,1698,1719,1738,1759,1779,1798,1818,1838,1858,1878,1899,1918,1938,1958,1979,1998,2018,2038,2058,2080,2098,2118,2138,2158,2178,2200,2219,2240,2258,2279,2298,2318,2338,2358,2378,2399,2418,2438,2460,2478,2498,2518,2539,2558,2578,2599,2618,2639,2658,2679,2698,2718,2738,2759,2779],"xSR":741.5,"ySR":469.95,"xT1":424.9,"yT1":0,"xT2":1058.1,"yT2":0,"toosoon":0,"cond_shown":"randomdotsizeEA","ratio_trial":500,"smaller_num":"1","larger_num":"2","correct_side":2,"subjID":"Juan Camilo Cruz Vargas 4","gender":"0","age":"9","school":"4"},{"start_time":1552314480682,"click_time":1552314482220,"finger_time":1552314482220,"fix_duration":761.3262026029245,"trial":36,"RT":1538,"MT":0,"sideResp":2,"stimulus":"img/900/randomdotsizeEA/R/9_Ratio_900_L_18_R_20.png","xmouse":[796,796,796,796,793,793,792,791,791,791,791,791,791,791,791,791,791,791,791,791,791,791,791,791,791,791,791,791,791,791,791,791,791,791,791,791,791,791,791,791,791,791,791,791,791,791,791,791,791,791,791,791,791,791,791,791,791,791,791,791,791,791,791,791,791,791,791,791,791,791,791,791,791,791,791,791,1109],"ymouse":[534,534,534,534,532,531,529,528,528,528,528,528,528,528,528,528,528,528,528,528,528,528,528,528,528,528,528,528,528,528,528,528,528,528,524,524,524,524,524,524,524,524,524,524,524,524,524,524,524,524,524,524,524,524,524,524,524,524,524,524,524,524,524,524,524,524,524,524,524,524,524,524,524,524,524,524,49],"timestamp_mouse":[19,47,58,78,98,119,138,158,178,199,219,238,259,279,298,319,338,358,378,399,418,438,458,478,498,519,538,558,578,600,619,638,659,679,699,719,739,758,778,798,819,838,858,879,900,919,940,959,978,998,1019,1038,1059,1079,1099,1118,1139,1159,1179,1199,1220,1238,1258,1278,1299,1320,1340,1359,1378,1398,1418,1439,1458,1478,1499,1518,1538],"xSR":741.5,"ySR":469.95,"xT1":424.9,"yT1":0,"xT2":1058.1,"yT2":0,"toosoon":0,"cond_shown":"randomdotsizeEA","ratio_trial":900,"smaller_num":"18","larger_num":"20","correct_side":2,"subjID":"Juan Camilo Cruz Vargas 4","gender":"0","age":"9","school":"4"},{"start_time":1552314486171,"click_time":1552314487780,"finger_time":1552314487780,"fix_duration":250,"trial":37,"RT":1609,"MT":0,"sideResp":2,"stimulus":"img/750/equaldotanddens/R/2_Ratio_750_L_6_R_8.png","xmouse":[809,808,806,805,804,803,802,801,801,799,797,797,797,797,797,797,797,797,797,796,796,796,796,796,796,796,796,796,796,796,796,796,796,796,796,796,796,796,796,796,796,796,796,797,799,799,799,799,799,799,799,799,799,799,799,799,799,799,799,799,799,799,799,799,799,799,799,799,799,799,799,799,799,799,799,799,799,799,799,799,1112],"ymouse":[513,513,513,513,513,513,513,513,513,513,513,513,513,513,513,513,513,513,513,515,515,515,515,515,515,515,515,515,515,515,515,515,515,515,515,515,515,515,515,515,515,515,515,513,510,510,510,510,510,510,510,510,510,510,510,510,510,510,510,510,510,510,510,510,510,510,510,510,510,510,510,510,510,510,510,510,510,510,510,510,44],"timestamp_mouse":[22,40,49,70,89,109,130,149,170,190,209,230,251,269,289,309,329,349,369,389,409,431,449,469,489,510,530,550,569,589,609,631,649,669,689,709,729,750,770,790,809,829,849,870,889,909,929,949,969,989,1011,1030,1049,1069,1090,1110,1131,1151,1171,1189,1210,1230,1251,1269,1289,1309,1329,1350,1369,1389,1409,1429,1449,1470,1489,1509,1529,1549,1570,1589,1609],"xSR":741.5,"ySR":469.95,"xT1":424.9,"yT1":0,"xT2":1058.1,"yT2":0,"toosoon":0,"cond_shown":"equaldotanddens","ratio_trial":750,"smaller_num":"6","larger_num":"8","correct_side":2,"subjID":"Juan Camilo Cruz Vargas 4","gender":"0","age":"9","school":"4"},{"start_time":1552314489334,"click_time":1552314490960,"finger_time":1552314490960,"fix_duration":732.855586799422,"trial":38,"RT":1626,"MT":0,"sideResp":1,"stimulus":"img/250/equaldotanddens/L/14_Ratio_250_L_12_R_3.png","xmouse":[777,777,777,777,777,777,777,776,776,776,776,776,776,776,776,776,776,776,776,776,776,776,776,776,776,776,776,776,776,776,776,776,776,774,773,773,773,773,773,773,773,773,773,773,773,773,773,773,773,773,773,773,773,773,773,773,773,773,773,773,773,773,773,773,773,773,773,773,773,773,773,773,773,773,773,773,773,773,773,773,773,480],"ymouse":[534,534,534,534,534,534,534,535,535,535,535,535,535,535,535,535,535,535,535,535,535,535,535,535,535,535,535,535,535,535,535,535,535,535,535,532,529,529,529,529,529,529,529,529,529,529,529,529,529,529,529,529,529,529,529,529,529,529,529,529,529,529,529,529,529,529,529,529,529,529,529,529,529,529,529,529,529,529,529,529,529,81],"timestamp_mouse":[11,31,46,66,87,106,126,147,166,186,207,228,246,267,286,306,326,346,366,386,406,426,447,466,486,506,527,546,567,587,607,626,647,666,687,706,726,747,766,786,806,826,847,866,887,906,927,946,968,988,1006,1027,1046,1066,1088,1107,1126,1146,1166,1186,1206,1226,1246,1267,1288,1306,1326,1347,1366,1386,1406,1426,1446,1467,1486,1506,1528,1547,1566,1586,1606,1626],"xSR":741.5,"ySR":469.95,"xT1":424.9,"yT1":0,"xT2":1058.1,"yT2":0,"toosoon":0,"cond_shown":"equaldotanddens","ratio_trial":250,"smaller_num":"3","larger_num":"12","correct_side":1,"subjID":"Juan Camilo Cruz Vargas 4","gender":"0","age":"9","school":"4"},{"start_time":1552314492369,"click_time":1552314493700,"finger_time":1552314492942,"fix_duration":485.66687661939176,"trial":39,"RT":573,"MT":758,"sideResp":2,"stimulus":"img/750/randomdotsizeEA/R/4_Ratio_750_L_15_R_20.png","xmouse":[800,800,800,800,800,800,800,800,800,800,800,800,800,800,800,800,800,800,800,800,800,800,800,800,800,800,802,822,844,844,844,844,844,844,844,844,844,844,844,844,844,844,844,844,844,844,844,844,844,844,844,844,844,844,844,844,844,844,844,844,844,844,844,844,844,844,1118],"ymouse":[504,504,504,504,504,504,504,504,504,504,504,504,504,504,504,504,504,504,504,504,504,504,504,504,504,504,503,484,469,469,469,469,469,469,469,469,469,469,469,469,469,469,469,469,469,469,469,469,469,469,469,469,469,469,469,469,469,469,469,469,469,469,469,469,469,469,22],"timestamp_mouse":[11,40,52,71,92,113,131,151,171,192,212,231,251,271,293,311,333,352,372,391,411,432,451,472,491,511,531,552,573,591,613,631,652,671,693,711,733,752,772,791,811,832,852,871,891,911,933,952,971,992,1012,1031,1052,1072,1091,1111,1131,1151,1171,1191,1211,1232,1253,1272,1291,1311,1331],"xSR":741.5,"ySR":469.95,"xT1":424.9,"yT1":0,"xT2":1058.1,"yT2":0,"toosoon":0,"cond_shown":"randomdotsizeEA","ratio_trial":750,"smaller_num":"15","larger_num":"20","correct_side":2,"subjID":"Juan Camilo Cruz Vargas 4","gender":"0","age":"9","school":"4"},{"start_time":1552314495556,"click_time":1552314497441,"finger_time":1552314497440,"fix_duration":1355.2686782134472,"trial":40,"RT":1884,"MT":1,"sideResp":1,"stimulus":"img/900/equaldotsize/L/10_Ratio_900_L_20_R_18.png","xmouse":[782,782,782,782,782,782,782,782,782,782,782,782,782,782,782,782,782,782,782,782,782,782,782,782,782,782,782,782,782,782,782,782,782,786,786,786,786,786,786,786,786,786,786,786,786,786,786,786,786,786,786,786,786,786,786,786,786,786,786,786,786,786,786,786,786,786,786,786,786,786,786,786,786,786,786,786,786,786,786,786,786,786,786,786,786,786,786,786,786,786,786,786,786,786,456],"ymouse":[522,522,522,522,522,522,522,522,522,522,522,522,522,522,522,522,522,522,522,522,522,522,522,522,522,522,522,522,522,522,522,522,522,520,520,520,520,520,520,520,520,520,520,520,520,520,520,520,520,520,520,520,520,520,520,520,520,520,520,520,520,520,520,520,520,520,520,520,520,520,520,520,520,520,520,520,520,520,520,520,520,520,520,520,520,520,520,520,520,520,520,520,520,520,56],"timestamp_mouse":[11,33,44,64,84,104,124,144,164,184,204,224,244,264,284,305,324,344,364,384,404,424,444,464,484,504,524,544,564,585,603,623,644,664,684,704,724,744,764,784,804,824,844,865,885,904,924,945,964,985,1003,1025,1044,1065,1084,1104,1124,1145,1164,1184,1204,1225,1245,1264,1284,1305,1324,1344,1364,1385,1404,1425,1444,1464,1484,1505,1524,1544,1564,1584,1604,1624,1644,1665,1684,1704,1725,1744,1764,1784,1805,1825,1844,1864,1884],"xSR":741.5,"ySR":469.95,"xT1":424.9,"yT1":0,"xT2":1058.1,"yT2":0,"toosoon":0,"cond_shown":"equaldotsize","ratio_trial":900,"smaller_num":"18","larger_num":"20","correct_side":1,"subjID":"Juan Camilo Cruz Vargas 4","gender":"0","age":"9","school":"4"},{"start_time":1552314498582,"click_time":1552314500181,"finger_time":1552314500181,"fix_duration":381.50023625034555,"trial":41,"RT":1599,"MT":0,"sideResp":2,"stimulus":"img/750/randomdotsizeEA/L/14_Ratio_750_L_8_R_6.png","xmouse":[768,768,768,768,768,768,768,768,768,768,768,768,768,768,768,768,768,768,768,768,768,768,768,768,768,768,768,768,768,768,768,768,768,768,768,768,768,770,774,774,774,774,774,774,774,774,774,774,774,774,774,774,774,774,774,774,774,774,774,774,774,774,774,774,774,774,774,774,774,774,774,774,774,774,774,774,774,774,774,1103],"ymouse":[505,505,505,505,505,505,505,505,505,505,505,505,505,505,505,505,505,505,505,505,505,505,505,505,505,505,505,505,505,505,505,505,505,505,505,505,505,505,499,499,499,499,499,499,499,499,499,499,499,499,499,499,499,499,499,499,499,499,499,499,499,499,499,499,499,499,499,499,499,499,499,499,499,499,499,499,499,499,499,52],"timestamp_mouse":[18,38,58,78,98,118,138,158,178,198,218,238,258,277,298,318,338,358,378,398,418,439,458,478,498,519,538,558,578,598,618,638,658,678,698,718,739,758,778,799,817,838,859,879,898,918,939,958,978,998,1018,1038,1059,1079,1099,1118,1139,1157,1178,1198,1218,1239,1258,1279,1298,1318,1338,1359,1378,1398,1418,1438,1459,1478,1498,1519,1539,1559,1578,1599],"xSR":741.5,"ySR":469.95,"xT1":424.9,"yT1":0,"xT2":1058.1,"yT2":0,"toosoon":0,"cond_shown":"randomdotsizeEA","ratio_trial":750,"smaller_num":"6","larger_num":"8","correct_side":1,"subjID":"Juan Camilo Cruz Vargas 4","gender":"0","age":"9","school":"4"},{"start_time":1552314501722,"click_time":1552314503041,"finger_time":1552314503041,"fix_duration":799.3201340375907,"trial":42,"RT":1319,"MT":0,"sideResp":2,"stimulus":"img/500/equaldotanddens/R/3_Ratio_500_L_10_R_20.png","xmouse":[785,785,785,785,785,785,785,785,785,785,785,785,785,785,785,785,785,785,785,785,785,785,785,785,785,785,785,785,785,785,785,785,785,787,795,795,795,795,795,795,795,795,795,795,795,795,795,795,795,795,795,795,795,795,795,795,795,795,795,795,795,795,795,795,795,1094],"ymouse":[536,536,536,536,536,536,536,536,536,536,536,536,536,536,536,536,536,536,536,536,536,536,536,536,536,536,536,536,536,536,536,536,536,533,521,521,521,521,521,521,521,521,521,521,521,521,521,521,521,521,521,521,521,521,521,521,521,521,521,521,521,521,521,521,521,62],"timestamp_mouse":[18,42,58,78,98,119,138,158,178,198,219,238,258,279,298,319,338,358,378,397,417,438,458,478,498,518,538,558,578,598,619,638,659,678,698,718,739,758,778,798,819,838,859,878,898,918,938,958,979,998,1018,1038,1058,1077,1099,1118,1138,1159,1178,1198,1219,1238,1258,1278,1298,1319],"xSR":741.5,"ySR":469.95,"xT1":424.9,"yT1":0,"xT2":1058.1,"yT2":0,"toosoon":0,"cond_shown":"equaldotanddens","ratio_trial":500,"smaller_num":"10","larger_num":"20","correct_side":2,"subjID":"Juan Camilo Cruz Vargas 4","gender":"0","age":"9","school":"4"},{"start_time":1552314503707,"click_time":1552314505360,"finger_time":1552314505360,"fix_duration":266.82184238820605,"trial":43,"RT":1653,"MT":0,"sideResp":1,"stimulus":"img/750/equaldotsize/L/14_Ratio_750_L_8_R_6.png","xmouse":[798,798,797,797,797,797,797,797,797,797,797,797,797,797,797,797,797,797,797,797,797,797,797,797,797,797,797,797,797,797,797,797,797,797,797,797,797,797,794,793,793,793,793,793,793,793,793,793,793,793,793,793,793,793,793,793,793,793,793,793,793,793,793,793,793,793,793,793,793,793,793,793,793,793,793,793,793,793,793,793,793,793,494],"ymouse":[521,521,523,523,524,524,525,525,525,525,525,525,525,525,525,525,525,525,525,525,525,525,525,525,525,525,525,525,525,525,525,525,525,525,525,525,525,525,525,524,524,524,524,524,524,524,524,524,524,524,524,524,524,524,524,524,524,524,524,524,524,524,524,524,524,524,524,524,524,524,524,524,524,524,524,524,524,524,524,524,524,524,74],"timestamp_mouse":[13,33,53,73,93,113,133,153,173,194,213,234,253,273,294,313,333,353,373,393,413,433,453,473,493,513,533,553,573,593,613,633,653,673,693,713,733,753,773,794,813,834,853,873,893,913,934,954,973,993,1013,1033,1053,1073,1093,1114,1133,1154,1173,1194,1213,1233,1253,1274,1293,1313,1333,1353,1373,1393,1413,1434,1453,1473,1493,1513,1533,1553,1573,1593,1613,1633,1653],"xSR":741.5,"ySR":469.95,"xT1":424.9,"yT1":0,"xT2":1058.1,"yT2":0,"toosoon":0,"cond_shown":"equaldotsize","ratio_trial":750,"smaller_num":"6","larger_num":"8","correct_side":1,"subjID":"Juan Camilo Cruz Vargas 4","gender":"0","age":"9","school":"4"},{"start_time":1552314507455,"click_time":1552314509160,"finger_time":1552314509160,"fix_duration":1492.2422212351007,"trial":44,"RT":1705,"MT":0,"sideResp":1,"stimulus":"img/500/randomdotsizeEA/L/13_Ratio_500_L_12_R_6.png","xmouse":[795,795,795,795,795,795,795,795,795,795,795,795,795,795,795,795,795,795,795,795,795,795,795,795,795,795,795,795,795,795,796,801,801,801,801,801,801,801,801,801,801,801,801,801,801,801,801,801,801,801,801,801,801,801,801,801,801,801,801,801,801,801,801,801,801,801,801,801,801,801,801,801,801,801,801,801,801,801,801,801,801,801,801,801,801,448],"ymouse":[535,535,535,535,535,535,535,535,535,535,535,535,535,535,535,535,535,535,535,535,535,535,535,535,535,535,535,535,535,535,535,528,528,528,528,528,528,528,528,528,528,528,528,528,528,528,528,528,528,528,528,528,528,528,528,528,528,528,528,528,528,528,528,528,528,528,528,528,528,528,528,528,528,528,528,528,528,528,528,528,528,528,528,528,528,69],"timestamp_mouse":[11,34,45,65,85,105,125,146,165,186,205,225,245,265,286,305,325,345,365,385,405,425,445,465,485,505,525,545,565,585,605,625,646,665,685,705,725,745,765,786,806,825,846,865,885,906,926,946,965,985,1005,1025,1046,1065,1085,1105,1125,1145,1166,1186,1204,1225,1245,1266,1286,1305,1325,1345,1366,1385,1406,1425,1446,1465,1485,1505,1525,1545,1565,1585,1605,1625,1645,1665,1686,1705],"xSR":741.5,"ySR":469.95,"xT1":424.9,"yT1":0,"xT2":1058.1,"yT2":0,"toosoon":0,"cond_shown":"randomdotsizeEA","ratio_trial":500,"smaller_num":"6","larger_num":"12","correct_side":1,"subjID":"Juan Camilo Cruz Vargas 4","gender":"0","age":"9","school":"4"},{"start_time":1552314510643,"click_time":1552314512500,"finger_time":1552314512500,"fix_duration":899.9442979943195,"trial":45,"RT":1857,"MT":0,"sideResp":2,"stimulus":"img/250/randomdotsizeEA/R/11_Ratio_250_L_3_R_12.png","xmouse":[797,797,797,797,797,797,797,797,797,797,797,797,797,797,797,797,797,797,797,797,797,797,797,797,797,797,797,797,797,798,799,799,799,799,799,799,799,799,799,799,799,799,799,799,799,799,799,799,799,799,799,799,799,799,799,799,799,799,799,799,799,799,799,799,799,799,799,799,799,799,799,799,799,799,799,799,799,799,799,799,799,799,799,799,799,799,799,799,799,799,799,799,1101],"ymouse":[498,498,498,498,498,498,498,498,498,498,498,498,498,498,498,498,498,498,498,498,498,498,498,498,498,498,498,498,498,498,493,493,493,493,493,493,493,493,493,493,493,493,493,493,493,493,493,493,493,493,493,493,493,493,493,493,493,493,493,493,493,493,493,493,493,493,493,493,493,493,493,493,493,493,493,493,493,493,493,493,493,493,493,493,493,493,493,493,493,493,493,493,87],"timestamp_mouse":[17,37,58,77,98,118,137,157,178,196,217,237,257,277,297,317,338,357,377,396,417,438,457,478,497,517,537,557,578,597,617,637,657,678,697,717,738,757,778,798,818,837,858,877,897,917,937,957,977,997,1018,1037,1058,1077,1097,1117,1137,1157,1178,1197,1217,1237,1257,1277,1297,1317,1336,1358,1377,1397,1417,1437,1457,1477,1497,1518,1538,1558,1577,1597,1617,1637,1658,1677,1697,1717,1737,1757,1777,1797,1818,1838,1857],"xSR":741.5,"ySR":469.95,"xT1":424.9,"yT1":0,"xT2":1058.1,"yT2":0,"toosoon":0,"cond_shown":"randomdotsizeEA","ratio_trial":250,"smaller_num":"3","larger_num":"12","correct_side":2,"subjID":"Juan Camilo Cruz Vargas 4","gender":"0","age":"9","school":"4"},{"start_time":1552314515042,"click_time":1552314517620,"finger_time":1552314517560,"fix_duration":339.52340475164664,"trial":46,"RT":2518,"MT":60,"sideResp":1,"stimulus":"img/750/randomdotsizeEA/L/14_Ratio_750_L_8_R_6.png","xmouse":[791,791,791,791,791,790,788,787,785,785,785,785,785,785,785,785,785,785,785,785,785,785,785,785,785,784,784,784,784,784,784,784,784,784,784,784,784,784,784,784,784,784,784,784,784,784,784,784,784,784,784,784,784,784,784,784,784,784,784,784,784,784,784,784,784,784,784,784,784,784,784,784,784,784,784,784,784,784,784,784,784,784,784,784,784,784,784,784,784,784,784,784,784,784,784,784,784,784,784,784,784,784,784,784,784,784,784,784,784,784,784,784,784,784,784,784,784,784,784,784,784,784,784,784,784,415,419,424,426],"ymouse":[523,523,523,523,523,523,523,523,523,523,523,523,523,523,523,523,523,523,523,523,523,523,523,523,523,523,523,522,520,518,518,518,518,518,518,518,518,518,518,518,518,518,518,518,518,518,518,518,518,518,518,518,518,518,518,518,518,518,518,518,518,518,518,518,518,518,518,518,518,518,518,518,518,518,518,518,518,518,518,518,518,518,518,518,518,518,518,518,518,518,518,518,518,518,518,518,518,518,518,518,518,518,518,518,518,518,518,518,518,518,518,518,518,518,518,518,518,518,518,518,518,518,518,518,518,36,37,39,40],"timestamp_mouse":[32,38,58,78,98,118,138,158,178,198,218,237,258,278,298,318,338,358,378,398,418,438,458,478,498,519,539,558,578,598,618,638,659,678,699,718,738,758,778,799,818,838,858,878,898,918,939,957,978,998,1018,1039,1057,1078,1098,1119,1139,1158,1178,1198,1219,1238,1259,1278,1298,1318,1338,1358,1378,1399,1418,1439,1458,1478,1498,1519,1538,1559,1578,1598,1618,1638,1659,1678,1698,1718,1738,1758,1778,1798,1818,1838,1859,1878,1898,1918,1938,1959,1979,1999,2018,2038,2058,2078,2098,2118,2138,2158,2178,2198,2219,2239,2259,2278,2297,2317,2339,2358,2378,2397,2419,2438,2458,2478,2498,2518,2539,2558,2578],"xSR":741.5,"ySR":469.95,"xT1":424.9,"yT1":0,"xT2":1058.1,"yT2":0,"toosoon":0,"cond_shown":"randomdotsizeEA","ratio_trial":750,"smaller_num":"6","larger_num":"8","correct_side":1,"subjID":"Juan Camilo Cruz Vargas 4","gender":"0","age":"9","school":"4"},{"start_time":1552314519774,"click_time":1552314521581,"finger_time":1552314521581,"fix_duration":1032.006979690835,"trial":47,"RT":1807,"MT":0,"sideResp":2,"stimulus":"img/500/randomdotsizeEA/R/15_Ratio_500_L_1_R_2.png","xmouse":[802,802,802,801,798,793,791,791,790,790,790,790,790,790,789,789,789,788,788,788,788,788,787,786,785,785,785,785,785,785,785,785,785,785,785,785,785,785,785,785,785,785,785,785,784,788,788,788,788,788,788,788,788,788,788,788,788,788,788,788,788,788,788,788,788,788,788,788,788,788,788,788,788,788,788,788,788,788,788,788,788,788,788,788,788,788,788,788,788,788,1087],"ymouse":[526,526,526,526,526,528,529,529,530,530,530,530,530,530,530,530,530,530,530,530,531,531,531,531,532,532,532,532,532,532,532,532,532,532,532,532,532,532,532,532,532,532,532,532,532,524,524,524,524,524,524,524,524,524,524,524,524,524,524,524,524,524,524,524,524,524,524,524,524,524,524,524,524,524,524,524,524,524,524,524,524,524,524,524,524,524,524,524,524,524,76],"timestamp_mouse":[13,36,46,67,85,106,126,147,166,186,207,226,246,266,286,306,326,347,367,386,406,426,447,466,485,506,526,546,566,587,606,626,646,666,686,706,726,746,766,786,806,826,846,866,886,906,926,947,967,986,1007,1026,1047,1066,1087,1106,1126,1147,1166,1186,1207,1225,1246,1266,1286,1306,1326,1346,1367,1386,1407,1426,1446,1466,1487,1506,1527,1546,1566,1586,1606,1626,1646,1666,1686,1706,1726,1746,1766,1786,1807],"xSR":741.5,"ySR":469.95,"xT1":424.9,"yT1":0,"xT2":1058.1,"yT2":0,"toosoon":0,"cond_shown":"randomdotsizeEA","ratio_trial":500,"smaller_num":"1","larger_num":"2","correct_side":2,"subjID":"Juan Camilo Cruz Vargas 4","gender":"0","age":"9","school":"4"},{"start_time":1552314522833,"click_time":1552314524440,"finger_time":1552314524440,"fix_duration":250,"trial":48,"RT":1607,"MT":0,"sideResp":1,"stimulus":"img/750/equaldotanddens/R/12_Ratio_750_L_3_R_4.png","xmouse":[811,811,811,806,804,802,802,801,800,800,800,800,800,800,800,800,800,800,800,800,800,800,800,800,800,800,800,800,800,800,800,800,800,800,800,800,800,800,800,799,795,795,795,795,795,795,795,795,795,795,795,795,795,795,795,795,795,795,795,795,795,795,795,795,795,795,795,795,795,795,795,795,795,795,795,795,795,795,795,795,504],"ymouse":[499,500,500,502,503,504,504,505,505,505,505,505,505,505,505,505,505,505,505,505,505,505,505,505,505,505,505,505,505,505,505,505,505,505,505,505,505,505,505,505,505,505,505,505,505,505,505,505,505,505,505,505,505,505,505,505,505,505,505,505,505,505,505,505,505,505,505,505,505,505,505,505,505,505,505,505,505,505,505,505,88],"timestamp_mouse":[12,33,47,68,87,107,127,147,168,187,207,227,247,267,287,307,327,347,367,387,407,428,448,467,487,507,527,548,567,587,607,628,647,668,687,707,727,747,768,787,808,827,847,868,887,907,927,947,967,988,1008,1028,1048,1068,1087,1108,1127,1148,1167,1188,1207,1227,1247,1268,1287,1308,1327,1348,1367,1387,1407,1428,1447,1467,1487,1507,1527,1548,1567,1586,1607],"xSR":741.5,"ySR":469.95,"xT1":424.9,"yT1":0,"xT2":1058.1,"yT2":0,"toosoon":0,"cond_shown":"equaldotanddens","ratio_trial":750,"smaller_num":"3","larger_num":"4","correct_side":2,"subjID":"Juan Camilo Cruz Vargas 4","gender":"0","age":"9","school":"4"},{"start_time":1552314526731,"click_time":1552314528201,"finger_time":1552314528201,"fix_duration":1030.3012517017708,"trial":49,"RT":1470,"MT":0,"sideResp":2,"stimulus":"img/900/equaldotsize/R/14_Ratio_900_L_18_R_20.png","xmouse":[781,781,781,781,781,781,781,781,781,781,780,780,780,780,780,780,781,782,782,782,782,782,782,782,782,782,782,782,782,782,782,782,782,782,782,782,782,782,782,787,787,787,787,787,787,787,787,787,787,787,787,787,787,787,787,787,787,787,787,787,787,787,787,787,787,787,787,787,787,787,787,787,787,1094],"ymouse":[502,502,502,502,502,502,502,502,502,504,504,504,504,504,504,505,509,511,512,512,512,512,512,512,512,512,512,512,512,512,512,512,512,512,512,512,512,512,512,504,504,504,504,504,504,504,504,504,504,504,504,504,504,504,504,504,504,504,504,504,504,504,504,504,504,504,504,504,504,504,504,504,504,87],"timestamp_mouse":[11,29,49,69,89,109,129,150,169,189,209,229,249,269,289,309,329,350,369,390,409,429,450,468,489,509,529,549,569,589,610,629,650,669,689,708,729,749,770,789,810,830,850,869,889,909,929,949,969,989,1009,1030,1049,1070,1089,1109,1130,1149,1170,1189,1210,1228,1250,1269,1290,1309,1329,1349,1370,1389,1409,1430,1449,1470],"xSR":741.5,"ySR":469.95,"xT1":424.9,"yT1":0,"xT2":1058.1,"yT2":0,"toosoon":0,"cond_shown":"equaldotsize","ratio_trial":900,"smaller_num":"18","larger_num":"20","correct_side":2,"subjID":"Juan Camilo Cruz Vargas 4","gender":"0","age":"9","school":"4"},{"start_time":1552314529533,"click_time":1552314531141,"finger_time":1552314531141,"fix_duration":750.9275128075565,"trial":50,"RT":1608,"MT":0,"sideResp":1,"stimulus":"img/250/randomdotsizeEA/L/14_Ratio_250_L_12_R_3.png","xmouse":[792,792,792,792,792,792,792,792,792,792,792,792,792,792,792,792,792,792,792,792,792,792,792,792,792,792,792,792,792,792,792,792,792,791,789,787,784,783,779,779,779,779,779,779,779,779,779,779,779,779,779,779,779,779,779,779,779,779,779,779,779,779,779,779,779,779,779,779,779,779,779,779,779,779,779,779,779,779,779,779,481],"ymouse":[508,508,508,508,508,508,508,508,508,508,508,508,508,508,508,508,508,508,508,508,508,508,508,508,508,508,508,508,508,508,508,508,508,504,501,498,492,489,483,483,483,483,483,483,483,483,483,483,483,483,483,483,483,483,483,483,483,483,483,483,483,483,483,483,483,483,483,483,483,483,483,483,483,483,483,483,483,483,483,483,69],"timestamp_mouse":[12,32,47,67,88,107,128,146,167,187,207,227,247,267,287,307,327,347,367,387,407,428,447,467,487,508,527,547,567,587,607,627,647,667,687,707,727,747,767,787,807,828,848,867,888,907,928,948,967,987,1008,1027,1046,1067,1087,1107,1128,1147,1167,1187,1207,1227,1247,1267,1287,1308,1327,1347,1367,1388,1407,1427,1447,1467,1487,1507,1527,1547,1567,1587,1608],"xSR":741.5,"ySR":469.95,"xT1":424.9,"yT1":0,"xT2":1058.1,"yT2":0,"toosoon":0,"cond_shown":"randomdotsizeEA","ratio_trial":250,"smaller_num":"3","larger_num":"12","correct_side":1,"subjID":"Juan Camilo Cruz Vargas 4","gender":"0","age":"9","school":"4"},{"start_time":1552314534517,"click_time":1552314536000,"finger_time":1552314536000,"fix_duration":1195.8917691484025,"trial":51,"RT":1483,"MT":0,"sideResp":2,"stimulus":"img/250/equaldotanddens/R/9_Ratio_250_L_3_R_12.png","xmouse":[781,781,781,781,781,781,781,781,781,781,781,781,781,781,782,784,786,788,790,791,791,791,791,791,791,791,791,791,791,791,791,791,791,791,791,791,794,794,794,794,794,794,794,794,794,794,794,794,794,794,794,794,794,794,794,794,794,794,794,794,794,794,794,794,794,794,794,794,794,794,794,794,794,794,1113],"ymouse":[535,535,535,535,535,535,535,535,535,535,535,535,535,535,536,535,535,534,533,532,532,531,531,531,531,531,531,531,531,531,531,531,531,531,531,531,522,522,522,522,522,522,522,522,522,522,522,522,522,522,522,522,522,522,522,522,522,522,522,522,522,522,522,522,522,522,522,522,522,522,522,522,522,522,61],"timestamp_mouse":[17,35,43,64,83,103,123,143,163,183,204,223,243,263,283,303,324,344,363,383,404,423,443,463,484,503,523,543,562,583,603,624,644,663,683,704,723,743,764,783,804,824,843,863,883,904,923,944,962,983,1004,1023,1043,1064,1083,1103,1123,1144,1163,1183,1204,1223,1243,1262,1283,1304,1323,1343,1363,1383,1404,1423,1443,1463,1483],"xSR":741.5,"ySR":469.95,"xT1":424.9,"yT1":0,"xT2":1058.1,"yT2":0,"toosoon":0,"cond_shown":"equaldotanddens","ratio_trial":250,"smaller_num":"3","larger_num":"12","correct_side":2,"subjID":"Juan Camilo Cruz Vargas 4","gender":"0","age":"9","school":"4"},{"start_time":1552314537474,"click_time":1552314540580,"finger_time":1552314540580,"fix_duration":933.5651305536052,"trial":52,"RT":3106,"MT":0,"sideResp":2,"stimulus":"img/900/randomdotsizeEA/L/1_Ratio_900_L_10_R_9.png","xmouse":[782,781,781,781,781,781,781,781,781,781,781,781,781,781,781,781,781,781,781,781,781,781,781,781,781,781,781,781,781,781,781,781,781,781,781,781,781,777,777,777,777,777,777,777,777,777,777,777,777,777,777,777,777,777,777,777,777,777,777,777,777,777,777,777,777,777,777,777,777,777,777,777,777,777,777,777,777,777,777,777,777,777,777,777,777,777,777,777,777,777,777,777,777,777,777,777,777,777,777,777,777,777,777,777,777,777,777,777,777,777,777,777,777,777,777,777,777,777,777,777,777,777,777,777,777,777,777,777,777,777,777,777,777,777,777,777,777,777,777,777,777,777,777,777,777,777,777,777,777,777,777,777,777,777,777,1110],"ymouse":[519,521,522,522,522,522,523,523,523,523,523,523,523,523,523,523,523,523,523,523,523,523,523,523,523,523,523,523,523,523,523,523,523,523,523,523,523,518,518,518,518,518,518,518,518,518,518,518,518,518,518,518,518,518,518,518,518,518,518,518,518,518,518,518,518,518,518,518,518,518,518,518,518,518,518,518,518,518,518,518,518,518,518,518,518,518,518,518,518,518,518,518,518,518,518,518,518,518,518,518,518,518,518,518,518,518,518,518,518,518,518,518,518,518,518,518,518,518,518,518,518,518,518,518,518,518,518,518,518,518,518,518,518,518,518,518,518,518,518,518,518,518,518,518,518,518,518,518,518,518,518,518,518,518,518,61],"timestamp_mouse":[9,26,46,66,86,106,126,146,166,186,206,226,246,266,286,306,326,346,366,386,406,426,446,466,486,506,526,546,567,586,606,626,646,666,686,706,726,747,766,787,806,826,846,866,887,906,926,946,966,986,1006,1027,1047,1066,1086,1106,1126,1146,1167,1186,1206,1226,1246,1266,1286,1306,1326,1346,1367,1387,1406,1426,1446,1467,1486,1505,1526,1546,1566,1585,1606,1626,1645,1667,1686,1706,1727,1747,1766,1787,1805,1826,1846,1866,1886,1906,1926,1946,1966,1986,2007,2027,2046,2067,2086,2107,2126,2146,2167,2187,2206,2227,2246,2267,2286,2306,2326,2347,2366,2386,2406,2426,2446,2466,2486,2506,2526,2547,2566,2586,2606,2626,2646,2666,2686,2706,2727,2746,2767,2786,2806,2826,2846,2866,2886,2906,2926,2946,2966,2988,3006,3026,3046,3066,3086,3106],"xSR":741.5,"ySR":469.95,"xT1":424.9,"yT1":0,"xT2":1058.1,"yT2":0,"toosoon":0,"cond_shown":"randomdotsizeEA","ratio_trial":900,"smaller_num":"9","larger_num":"10","correct_side":1,"subjID":"Juan Camilo Cruz Vargas 4","gender":"0","age":"9","school":"4"},{"start_time":1552314544192,"click_time":1552314545640,"finger_time":1552314545640,"fix_duration":250,"trial":53,"RT":1448,"MT":0,"sideResp":2,"stimulus":"img/500/equaldotsize/R/6_Ratio_500_L_9_R_18.png","xmouse":[786,786,786,786,786,786,786,786,786,786,787,788,790,790,790,791,791,791,791,791,791,791,791,791,791,791,791,791,791,791,791,795,795,795,795,795,795,795,795,795,795,795,795,795,795,795,795,795,795,795,795,795,795,795,795,795,795,795,795,795,795,795,795,795,795,795,795,795,795,795,795,795,1132],"ymouse":[508,508,508,508,508,508,508,508,508,508,508,508,508,508,508,508,508,508,508,508,508,508,508,508,508,508,508,508,508,508,509,506,506,506,506,506,506,506,506,506,506,506,506,506,506,506,506,506,506,506,506,506,506,506,506,506,506,506,506,506,506,506,506,506,506,506,506,506,506,506,506,506,79],"timestamp_mouse":[11,31,48,68,89,108,129,149,168,188,208,228,248,269,289,308,328,349,369,388,407,429,449,468,488,508,527,549,568,589,608,629,648,669,688,709,728,748,768,789,808,829,848,868,888,908,928,949,968,989,1008,1029,1048,1068,1088,1109,1128,1149,1168,1188,1209,1228,1248,1268,1288,1308,1328,1348,1368,1388,1408,1429,1448],"xSR":741.5,"ySR":469.95,"xT1":424.9,"yT1":0,"xT2":1058.1,"yT2":0,"toosoon":0,"cond_shown":"equaldotsize","ratio_trial":500,"smaller_num":"9","larger_num":"18","correct_side":2,"subjID":"Juan Camilo Cruz Vargas 4","gender":"0","age":"9","school":"4"},{"start_time":1552314547095,"click_time":1552314548640,"finger_ti