[{"start_time":1552313634463,"click_time":1552313635970,"finger_time":1552313635469,"fix_duration":250,"trial":0,"RT":1006,"MT":501,"sideResp":2,"stimulus":[],"xmouse":[808,808,808,807,807,807,807,807,807,807,807,807,807,807,807,807,807,807,807,807,806,805,794,792,790,790,790,790,790,790,790,790,790,790,790,790,790,790,790,790,790,790,790,790,790,790,790,790,792,819,846,882,897,911,927,941,954,977,989,1002,1014,1018,1024,1025,1029,1031,1036,1045,1047,1056,1062,1068,1081,1089,1096,1103],"ymouse":[551,551,551,552,552,552,552,552,552,552,552,552,552,552,552,552,552,552,552,552,552,552,549,549,547,547,547,547,547,547,547,547,547,547,547,547,547,547,547,547,547,547,547,547,547,547,547,547,546,525,508,480,465,451,432,416,401,375,358,337,314,304,292,287,277,271,257,234,229,206,193,181,147,129,110,93],"timestamp_mouse":[9,26,45,66,86,106,126,145,166,186,206,226,246,265,286,306,326,346,366,386,405,426,446,466,486,506,526,547,566,585,606,626,647,667,686,706,725,746,765,786,806,825,846,866,886,906,926,947,966,986,1006,1028,1046,1066,1086,1106,1127,1145,1166,1186,1206,1226,1246,1265,1286,1306,1326,1345,1366,1386,1406,1426,1446,1466,1486,1506],"xSR":741.5,"ySR":501.8,"xT1":424.9,"yT1":0,"xT2":1058.1,"yT2":0,"toosoon":0,"cond_shown":"Congruent","ratio_trial":200,"L_num":3,"L_den":6,"R_num":14,"R_den":20,"correct_side":2,"subjID":"juan camilo cruz","gender":"0","age":"9","school":"4","test":{"fix_dur":[250,1500],"timestim":1000,"targets_dim":[100,100],"targets_relative_coord":[0.3,0.7],"size_stim":[880,420],"start_dim":[100,100],"size_start":[300,300],"size_fix":60,"samplingrate":20,"img_types":["Congruent","Incongruent"],"ratios":[100,200,300],"rep_conds":19,"nTrials":120,"trials_to_rest":500,"Trials_order":[98,87,81,43,77,80,52,93,18,103,92,55,58,88,63,67,54,79,3,65,53,14,35,72,25,44,50,16,22,85,31,113,23,115,11,66,21,48,36,24,12,94,78,100,102,17,104,73,111,76,56,59,42,20,29,89,60,71,6,57,83,95,70,51,34,106,27,10,105,108,107,32,75,33,40,96,84,61,91,9,110,109,112,49,119,37,114,7,47,8,64,116,86,97,15,2,99,46,1,117,41,62,101,28,45,0,69,38,82,13,68,5,30,39,26,74,4,19,90,118],"cond_shown":["Congruent","Incongruent","Incongruent","Incongruent","Incongruent","Congruent","Congruent","Incongruent","Congruent","Incongruent","Congruent","Incongruent","Congruent","Congruent","Incongruent","Incongruent","Congruent","Incongruent","Incongruent","Incongruent","Incongruent","Congruent","Incongruent","Congruent","Incongruent","Congruent","Congruent","Congruent","Congruent","Incongruent","Incongruent","Incongruent","Incongruent","Incongruent","Incongruent","Congruent","Incongruent","Congruent","Congruent","Congruent","Congruent","Congruent","Congruent","Congruent","Congruent","Incongruent","Congruent","Incongruent","Incongruent","Congruent","Congruent","Incongruent","Congruent","Congruent","Incongruent","Incongruent","Congruent","Incongruent","Congruent","Incongruent","Incongruent","Incongruent","Congruent","Incongruent","Congruent","Congruent","Incongruent","Congruent","Incongruent","Congruent","Incongruent","Congruent","Incongruent","Incongruent","Congruent","Congruent","Congruent","Incongruent","Incongruent","Incongruent","Congruent","Incongruent","Congruent","Incongruent","Incongruent","Incongruent","Congruent","Incongruent","Incongruent","Congruent","Congruent","Congruent","Congruent","Incongruent","Incongruent","Congruent","Incongruent","Congruent","Incongruent","Incongruent","Incongruent","Congruent","Incongruent","Congruent","Incongruent","Congruent","Incongruent","Congruent","Congruent","Incongruent","Congruent","Incongruent","Congruent","Incongruent","Congruent","Congruent","Congruent","Incongruent","Congruent","Congruent"],"ratio_trial":[200,200,200,100,300,200,300,200,100,100,200,100,300,300,200,100,100,100,200,300,300,200,300,100,100,200,200,300,300,100,100,300,300,100,300,100,200,100,100,100,100,300,100,300,100,300,200,100,200,300,200,300,100,200,300,300,100,300,100,200,300,300,300,200,300,300,200,300,200,100,300,200,200,200,300,100,100,100,100,200,200,100,300,100,300,100,100,100,300,200,300,200,200,100,200,200,200,300,100,200,300,200,300,300,200,100,200,200,300,100,200,300,100,200,200,200,300,100,100,300],"left_num":[3,9,9,8,4,13,20,4,4,4,6,9,11,11,3,11,3,6,4,13,3,7,4,8,1,8,4,1,11,13,13,1,4,13,4,15,14,8,6,4,4,3,2,9,3,4,3,4,7,5,15,13,7,4,4,4,1,13,1,6,13,13,7,14,20,5,1,5,3,15,4,9,7,3,12,4,11,6,12,14,4,2,1,3,1,12,6,3,4,13,24,12,6,9,4,6,7,11,13,4,4,3,4,3,1,9,7,16,12,13,11,1,9,14,12,11,24,4,6,18],"right_num":[14,8,8,6,2,14,13,6,15,8,3,20,4,1,1,9,2,7,1,12,4,18,2,2,8,7,3,11,1,6,6,3,2,12,2,13,12,2,15,15,15,11,6,3,2,2,11,8,14,6,4,12,15,3,2,2,18,12,3,3,12,12,20,6,8,6,3,7,1,13,2,13,4,11,2,6,4,3,9,12,3,8,19,4,2,9,15,11,8,14,2,6,11,6,6,11,6,2,6,1,2,9,2,11,2,8,14,9,2,12,3,2,8,12,6,3,8,8,15,9],"left_den":[6,15,15,16,20,26,25,5,10,8,15,10,22,22,10,22,6,10,30,26,6,15,20,16,2,15,10,5,22,26,26,2,20,26,20,25,30,16,12,10,10,12,5,10,6,20,10,8,10,25,25,26,14,10,20,20,2,26,2,20,26,26,14,30,25,25,2,25,10,25,20,30,15,4,24,8,22,12,24,30,10,4,3,6,2,24,12,5,5,26,30,20,20,18,5,20,15,22,26,30,20,12,20,12,3,15,10,30,24,26,22,2,15,30,15,22,30,8,12,20],"right_den":[20,10,10,10,4,20,26,10,30,20,15,25,20,5,2,15,5,14,3,15,20,27,4,5,20,21,15,22,5,10,10,15,4,20,4,26,18,5,25,30,30,20,12,5,5,4,22,20,28,12,10,15,25,15,4,4,30,15,5,6,15,15,25,9,16,12,10,14,2,26,4,26,6,20,10,10,10,5,15,18,15,20,30,10,10,15,25,22,16,20,4,15,22,10,10,22,9,10,10,3,4,20,4,20,15,16,28,27,10,20,10,10,16,18,10,10,16,20,25,15],"correct_side":[2,2,2,2,2,2,1,1,2,1,1,1,1,1,2,2,1,1,2,2,1,2,2,1,1,1,1,2,1,2,2,1,2,2,2,1,2,1,2,2,2,2,2,1,1,2,2,1,1,2,1,2,2,1,2,2,2,2,2,2,2,2,2,2,1,2,1,2,2,1,2,2,2,1,1,2,1,2,2,2,1,1,2,1,1,2,2,1,1,2,1,1,2,2,1,2,2,1,2,2,2,2,2,2,1,1,1,1,1,2,1,1,1,2,1,1,1,1,2,1],"img_shown":["img2/200/Congruent/R/C_Dist_200_LN_3_LD_6_RN_14_RD_20_1.png","img2/200/Incongruent/R/I_Dist_200_LN_9_LD_15_RN_8_RD_10_1.png","img2/200/Incongruent/R/I_Dist_200_LN_9_LD_15_RN_8_RD_10_1.png","img2/100/Incongruent/R/I_Dist_100_LN_8_LD_16_RN_6_RD_10_1.png","img2/300/Incongruent/R/I_Dist_300_LN_4_LD_20_RN_2_RD_4_1.png","img2/200/Congruent/R/C_Dist_200_LN_13_LD_26_RN_14_RD_20_1.png","img2/300/Congruent/L/C_Dist_300_LN_20_LD_25_RN_13_RD_26_0.png","img2/200/Incongruent/L/I_Dist_200_LN_4_LD_5_RN_6_RD_10_0.png","img2/100/Congruent/R/C_Dist_100_LN_4_LD_10_RN_15_RD_30_1.png","img2/100/Incongruent/L/I_Dist_100_LN_4_LD_8_RN_8_RD_20_0.png","img2/200/Congruent/L/C_Dist_200_LN_6_LD_15_RN_3_RD_15_0.png","img2/100/Incongruent/L/I_Dist_100_LN_9_LD_10_RN_20_RD_25_0.png","img2/300/Congruent/L/C_Dist_300_LN_11_LD_22_RN_4_RD_20_0.png","img2/300/Congruent/L/C_Dist_300_LN_11_LD_22_RN_1_RD_5_0.png","img2/200/Incongruent/R/I_Dist_200_LN_3_LD_10_RN_1_RD_2_1.png","img2/100/Incongruent/R/I_Dist_100_LN_11_LD_22_RN_9_RD_15_1.png","img2/100/Congruent/L/C_Dist_100_LN_3_LD_6_RN_2_RD_5_0.png","img2/100/Incongruent/L/I_Dist_100_LN_6_LD_10_RN_7_RD_14_0.png","img2/200/Incongruent/R/I_Dist_200_LN_4_LD_30_RN_1_RD_3_1.png","img2/300/Incongruent/R/I_Dist_300_LN_13_LD_26_RN_12_RD_15_1.png","img2/300/Incongruent/L/I_Dist_300_LN_3_LD_6_RN_4_RD_20_0.png","img2/200/Congruent/R/C_Dist_200_LN_7_LD_15_RN_18_RD_27_1.png","img2/300/Incongruent/R/I_Dist_300_LN_4_LD_20_RN_2_RD_4_1.png","img2/100/Congruent/L/C_Dist_100_LN_8_LD_16_RN_2_RD_5_0.png","img2/100/Incongruent/L/I_Dist_100_LN_1_LD_2_RN_8_RD_20_0.png","img2/200/Congruent/L/C_Dist_200_LN_8_LD_15_RN_7_RD_21_0.png","img2/200/Congruent/L/C_Dist_200_LN_4_LD_10_RN_3_RD_15_0.png","img2/300/Congruent/R/C_Dist_300_LN_1_LD_5_RN_11_RD_22_1.png","img2/300/Congruent/L/C_Dist_300_LN_11_LD_22_RN_1_RD_5_0.png","img2/100/Incongruent/R/I_Dist_100_LN_13_LD_26_RN_6_RD_10_1.png","img2/100/Incongruent/R/I_Dist_100_LN_13_LD_26_RN_6_RD_10_1.png","img2/300/Incongruent/L/I_Dist_300_LN_1_LD_2_RN_3_RD_15_0.png","img2/300/Incongruent/R/I_Dist_300_LN_4_LD_20_RN_2_RD_4_1.png","img2/100/Incongruent/R/I_Dist_100_LN_13_LD_26_RN_12_RD_20_1.png","img2/300/Incongruent/R/I_Dist_300_LN_4_LD_20_RN_2_RD_4_1.png","img2/100/Congruent/L/C_Dist_100_LN_15_LD_25_RN_13_RD_26_0.png","img2/200/Incongruent/R/I_Dist_200_LN_14_LD_30_RN_12_RD_18_1.png","img2/100/Congruent/L/C_Dist_100_LN_8_LD_16_RN_2_RD_5_0.png","img2/100/Congruent/R/C_Dist_100_LN_6_LD_12_RN_15_RD_25_1.png","img2/100/Congruent/R/C_Dist_100_LN_4_LD_10_RN_15_RD_30_1.png","img2/100/Congruent/R/C_Dist_100_LN_4_LD_10_RN_15_RD_30_1.png","img2/300/Congruent/R/C_Dist_300_LN_3_LD_12_RN_11_RD_20_1.png","img2/100/Congruent/R/C_Dist_100_LN_2_LD_5_RN_6_RD_12_1.png","img2/300/Congruent/L/C_Dist_300_LN_9_LD_10_RN_3_RD_5_0.png","img2/100/Congruent/L/C_Dist_100_LN_3_LD_6_RN_2_RD_5_0.png","img2/300/Incongruent/R/I_Dist_300_LN_4_LD_20_RN_2_RD_4_1.png","img2/200/Congruent/R/C_Dist_200_LN_3_LD_10_RN_11_RD_22_1.png","img2/100/Incongruent/L/I_Dist_100_LN_4_LD_8_RN_8_RD_20_0.png","img2/200/Incongruent/L/I_Dist_200_LN_7_LD_10_RN_14_RD_28_0.png","img2/300/Congruent/R/C_Dist_300_LN_5_LD_25_RN_6_RD_12_1.png","img2/200/Congruent/L/C_Dist_200_LN_15_LD_25_RN_4_RD_10_0.png","img2/300/Incongruent/R/I_Dist_300_LN_13_LD_26_RN_12_RD_15_1.png","img2/100/Congruent/R/C_Dist_100_LN_7_LD_14_RN_15_RD_25_1.png","img2/200/Congruent/L/C_Dist_200_LN_4_LD_10_RN_3_RD_15_0.png","img2/300/Incongruent/R/I_Dist_300_LN_4_LD_20_RN_2_RD_4_1.png","img2/300/Incongruent/R/I_Dist_300_LN_4_LD_20_RN_2_RD_4_1.png","img2/100/Congruent/R/C_Dist_100_LN_1_LD_2_RN_18_RD_30_1.png","img2/300/Incongruent/R/I_Dist_300_LN_13_LD_26_RN_12_RD_15_1.png","img2/100/Congruent/R/C_Dist_100_LN_1_LD_2_RN_3_RD_5_1.png","img2/200/Incongruent/R/I_Dist_200_LN_6_LD_20_RN_3_RD_6_1.png","img2/300/Incongruent/R/I_Dist_300_LN_13_LD_26_RN_12_RD_15_1.png","img2/300/Incongruent/R/I_Dist_300_LN_13_LD_26_RN_12_RD_15_1.png","img2/300/Congruent/R/C_Dist_300_LN_7_LD_14_RN_20_RD_25_1.png","img2/200/Incongruent/R/I_Dist_200_LN_14_LD_30_RN_6_RD_9_1.png","img2/300/Congruent/L/C_Dist_300_LN_20_LD_25_RN_8_RD_16_0.png","img2/300/Congruent/R/C_Dist_300_LN_5_LD_25_RN_6_RD_12_1.png","img2/200/Incongruent/L/I_Dist_200_LN_1_LD_2_RN_3_RD_10_0.png","img2/300/Congruent/R/C_Dist_300_LN_5_LD_25_RN_7_RD_14_1.png","img2/200/Incongruent/R/I_Dist_200_LN_3_LD_10_RN_1_RD_2_1.png","img2/100/Congruent/L/C_Dist_100_LN_15_LD_25_RN_13_RD_26_0.png","img2/300/Incongruent/R/I_Dist_300_LN_4_LD_20_RN_2_RD_4_1.png","img2/200/Congruent/R/C_Dist_200_LN_9_LD_30_RN_13_RD_26_1.png","img2/200/Incongruent/R/I_Dist_200_LN_7_LD_15_RN_4_RD_6_1.png","img2/200/Incongruent/L/I_Dist_200_LN_3_LD_4_RN_11_RD_20_0.png","img2/300/Congruent/L/C_Dist_300_LN_12_LD_24_RN_2_RD_10_0.png","img2/100/Congruent/R/C_Dist_100_LN_4_LD_8_RN_6_RD_10_1.png","img2/100/Congruent/L/C_Dist_100_LN_11_LD_22_RN_4_RD_10_0.png","img2/100/Incongruent/R/I_Dist_100_LN_6_LD_12_RN_3_RD_5_1.png","img2/100/Incongruent/R/I_Dist_100_LN_12_LD_24_RN_9_RD_15_1.png","img2/200/Incongruent/R/I_Dist_200_LN_14_LD_30_RN_12_RD_18_1.png","img2/200/Congruent/L/C_Dist_200_LN_4_LD_10_RN_3_RD_15_0.png","img2/100/Incongruent/L/I_Dist_100_LN_2_LD_4_RN_8_RD_20_0.png","img2/300/Congruent/R/C_Dist_300_LN_1_LD_3_RN_19_RD_30_1.png","img2/100/Incongruent/L/I_Dist_100_LN_3_LD_6_RN_4_RD_10_0.png","img2/300/Incongruent/L/I_Dist_300_LN_1_LD_2_RN_2_RD_10_0.png","img2/100/Incongruent/R/I_Dist_100_LN_12_LD_24_RN_9_RD_15_1.png","img2/100/Congruent/R/C_Dist_100_LN_6_LD_12_RN_15_RD_25_1.png","img2/100/Incongruent/L/I_Dist_100_LN_3_LD_5_RN_11_RD_22_0.png","img2/300/Incongruent/L/I_Dist_300_LN_4_LD_5_RN_8_RD_16_0.png","img2/200/Congruent/R/C_Dist_200_LN_13_LD_26_RN_14_RD_20_1.png","img2/300/Congruent/L/C_Dist_300_LN_24_LD_30_RN_2_RD_4_0.png","img2/200/Congruent/L/C_Dist_200_LN_12_LD_20_RN_6_RD_15_0.png","img2/200/Congruent/R/C_Dist_200_LN_6_LD_20_RN_11_RD_22_1.png","img2/100/Incongruent/R/I_Dist_100_LN_9_LD_18_RN_6_RD_10_1.png","img2/200/Incongruent/L/I_Dist_200_LN_4_LD_5_RN_6_RD_10_0.png","img2/200/Congruent/R/C_Dist_200_LN_6_LD_20_RN_11_RD_22_1.png","img2/200/Incongruent/R/I_Dist_200_LN_7_LD_15_RN_6_RD_9_1.png","img2/300/Congruent/L/C_Dist_300_LN_11_LD_22_RN_2_RD_10_0.png","img2/100/Incongruent/R/I_Dist_100_LN_13_LD_26_RN_6_RD_10_1.png","img2/200/Incongruent/R/I_Dist_200_LN_4_LD_30_RN_1_RD_3_1.png","img2/300/Incongruent/R/I_Dist_300_LN_4_LD_20_RN_2_RD_4_1.png","img2/200/Congruent/R/C_Dist_200_LN_3_LD_12_RN_9_RD_20_1.png","img2/300/Incongruent/R/I_Dist_300_LN_4_LD_20_RN_2_RD_4_1.png","img2/300/Congruent/R/C_Dist_300_LN_3_LD_12_RN_11_RD_20_1.png","img2/200/Incongruent/L/I_Dist_200_LN_1_LD_3_RN_2_RD_15_0.png","img2/100/Congruent/L/C_Dist_100_LN_9_LD_15_RN_8_RD_16_0.png","img2/200/Incongruent/L/I_Dist_200_LN_7_LD_10_RN_14_RD_28_0.png","img2/200/Congruent/L/C_Dist_200_LN_16_LD_30_RN_9_RD_27_0.png","img2/300/Congruent/L/C_Dist_300_LN_12_LD_24_RN_2_RD_10_0.png","img2/100/Incongruent/R/I_Dist_100_LN_13_LD_26_RN_12_RD_20_1.png","img2/200/Congruent/L/C_Dist_200_LN_11_LD_22_RN_3_RD_10_0.png","img2/300/Incongruent/L/I_Dist_300_LN_1_LD_2_RN_2_RD_10_0.png","img2/100/Congruent/L/C_Dist_100_LN_9_LD_15_RN_8_RD_16_0.png","img2/200/Incongruent/R/I_Dist_200_LN_14_LD_30_RN_12_RD_18_1.png","img2/200/Congruent/L/C_Dist_200_LN_12_LD_15_RN_6_RD_10_0.png","img2/200/Congruent/L/C_Dist_200_LN_11_LD_22_RN_3_RD_10_0.png","img2/300/Congruent/L/C_Dist_300_LN_24_LD_30_RN_8_RD_16_0.png","img2/100/Incongruent/L/I_Dist_100_LN_4_LD_8_RN_8_RD_20_0.png","img2/100/Congruent/R/C_Dist_100_LN_6_LD_12_RN_15_RD_25_1.png","img2/300/Congruent/L/C_Dist_300_LN_18_LD_20_RN_9_RD_15_0.png"],"dist100_C":[["C_Dist_100_LN_10_LD_25_RN_3_RD_10_0.png","C_Dist_100_LN_11_LD_22_RN_4_RD_10_0.png","C_Dist_100_LN_11_LD_22_RN_6_RD_15_0.png","C_Dist_100_LN_15_LD_25_RN_13_RD_26_0.png","C_Dist_100_LN_3_LD_6_RN_2_RD_5_0.png","C_Dist_100_LN_6_LD_20_RN_5_RD_25_0.png","C_Dist_100_LN_8_LD_16_RN_2_RD_5_0.png","C_Dist_100_LN_9_LD_15_RN_8_RD_16_0.png"],["C_Dist_100_LN_1_LD_2_RN_18_RD_30_1.png","C_Dist_100_LN_1_LD_2_RN_3_RD_5_1.png","C_Dist_100_LN_12_LD_30_RN_13_RD_26_1.png","C_Dist_100_LN_2_LD_5_RN_11_RD_22_1.png","C_Dist_100_LN_2_LD_5_RN_6_RD_12_1.png","C_Dist_100_LN_3_LD_20_RN_4_RD_16_1.png","C_Dist_100_LN_4_LD_10_RN_15_RD_30_1.png","C_Dist_100_LN_4_LD_8_RN_6_RD_10_1.png","C_Dist_100_LN_6_LD_12_RN_15_RD_25_1.png","C_Dist_100_LN_7_LD_14_RN_15_RD_25_1.png","C_Dist_100_LN_7_LD_14_RN_9_RD_15_1.png"]],"dist100_I":[["I_Dist_100_LN_1_LD_2_RN_8_RD_20_0.png","I_Dist_100_LN_2_LD_4_RN_6_RD_15_0.png","I_Dist_100_LN_2_LD_4_RN_8_RD_20_0.png","I_Dist_100_LN_3_LD_5_RN_11_RD_22_0.png","I_Dist_100_LN_3_LD_5_RN_8_RD_16_0.png","I_Dist_100_LN_3_LD_6_RN_4_RD_10_0.png","I_Dist_100_LN_3_LD_9_RN_7_RD_30_0.png","I_Dist_100_LN_4_LD_8_RN_8_RD_20_0.png","I_Dist_100_LN_6_LD_10_RN_11_RD_22_0.png","I_Dist_100_LN_6_LD_10_RN_13_RD_26_0.png","I_Dist_100_LN_6_LD_10_RN_7_RD_14_0.png","I_Dist_100_LN_9_LD_10_RN_20_RD_25_0.png","I_Dist_100_LN_9_LD_15_RN_13_RD_26_0.png","I_Dist_100_LN_9_LD_15_RN_14_RD_28_0.png"],["I_Dist_100_LN_10_LD_25_RN_8_RD_16_1.png","I_Dist_100_LN_10_LD_25_RN_9_RD_18_1.png","I_Dist_100_LN_11_LD_22_RN_9_RD_15_1.png","I_Dist_100_LN_12_LD_24_RN_9_RD_15_1.png","I_Dist_100_LN_12_LD_30_RN_2_RD_4_1.png","I_Dist_100_LN_13_LD_26_RN_12_RD_20_1.png","I_Dist_100_LN_13_LD_26_RN_6_RD_10_1.png","I_Dist_100_LN_17_LD_30_RN_10_RD_15_1.png","I_Dist_100_LN_6_LD_12_RN_3_RD_5_1.png","I_Dist_100_LN_8_LD_16_RN_6_RD_10_1.png","I_Dist_100_LN_8_LD_20_RN_1_RD_2_1.png","I_Dist_100_LN_9_LD_18_RN_6_RD_10_1.png"]],"dist100_S":[["E_Dist_100_LN_2_LD_12_RN_2_RD_30_0.png","E_Dist_100_LN_6_LD_10_RN_6_RD_12_0.png"],["E_Dist_100_LN_6_LD_12_RN_6_RD_10_1.png"]],"dist200_C":[["C_Dist_200_LN_11_LD_22_RN_3_RD_10_0.png","C_Dist_200_LN_12_LD_15_RN_6_RD_10_0.png","C_Dist_200_LN_12_LD_20_RN_6_RD_15_0.png","C_Dist_200_LN_14_LD_28_RN_6_RD_20_0.png","C_Dist_200_LN_15_LD_25_RN_4_RD_10_0.png","C_Dist_200_LN_16_LD_20_RN_12_RD_20_0.png","C_Dist_200_LN_16_LD_30_RN_9_RD_27_0.png","C_Dist_200_LN_20_LD_25_RN_9_RD_15_0.png","C_Dist_200_LN_21_LD_30_RN_2_RD_4_0.png","C_Dist_200_LN_4_LD_10_RN_3_RD_15_0.png","C_Dist_200_LN_4_LD_8_RN_3_RD_10_0.png","C_Dist_200_LN_6_LD_15_RN_3_RD_15_0.png","C_Dist_200_LN_7_LD_21_RN_2_RD_15_0.png","C_Dist_200_LN_8_LD_15_RN_2_RD_6_0.png","C_Dist_200_LN_8_LD_15_RN_3_RD_9_0.png","C_Dist_200_LN_8_LD_15_RN_7_RD_21_0.png","C_Dist_200_LN_9_LD_20_RN_4_RD_16_0.png"],["C_Dist_200_LN_1_LD_2_RN_21_RD_30_1.png","C_Dist_200_LN_13_LD_26_RN_14_RD_20_1.png","C_Dist_200_LN_3_LD_10_RN_11_RD_22_1.png","C_Dist_200_LN_3_LD_10_RN_14_RD_28_1.png","C_Dist_200_LN_3_LD_10_RN_7_RD_14_1.png","C_Dist_200_LN_3_LD_12_RN_9_RD_20_1.png","C_Dist_200_LN_3_LD_6_RN_14_RD_20_1.png","C_Dist_200_LN_5_LD_10_RN_14_RD_20_1.png","C_Dist_200_LN_6_LD_12_RN_7_RD_10_1.png","C_Dist_200_LN_6_LD_20_RN_11_RD_22_1.png","C_Dist_200_LN_7_LD_15_RN_18_RD_27_1.png","C_Dist_200_LN_9_LD_30_RN_13_RD_26_1.png"]],"dist200_I":[["I_Dist_200_LN_1_LD_2_RN_3_RD_10_0.png","I_Dist_200_LN_1_LD_3_RN_2_RD_15_0.png","I_Dist_200_LN_3_LD_4_RN_11_RD_20_0.png","I_Dist_200_LN_4_LD_5_RN_6_RD_10_0.png","I_Dist_200_LN_4_LD_6_RN_14_RD_30_0.png","I_Dist_200_LN_7_LD_10_RN_12_RD_24_0.png","I_Dist_200_LN_7_LD_10_RN_14_RD_28_0.png","I_Dist_200_LN_7_LD_10_RN_8_RD_16_0.png"],["I_Dist_200_LN_11_LD_20_RN_3_RD_4_1.png","I_Dist_200_LN_14_LD_30_RN_12_RD_18_1.png","I_Dist_200_LN_14_LD_30_RN_6_RD_9_1.png","I_Dist_200_LN_3_LD_10_RN_1_RD_2_1.png","I_Dist_200_LN_4_LD_30_RN_1_RD_3_1.png","I_Dist_200_LN_6_LD_20_RN_3_RD_6_1.png","I_Dist_200_LN_7_LD_15_RN_4_RD_6_1.png","I_Dist_200_LN_7_LD_15_RN_6_RD_9_1.png","I_Dist_200_LN_9_LD_15_RN_8_RD_10_1.png"]],"dist200_S":[["E_Dist_200_LN_3_LD_6_RN_3_RD_10_0.png"],["E_Dist_200_LN_3_LD_10_RN_3_RD_6_1.png"]],"dist300_C":[["C_Dist_300_LN_11_LD_22_RN_1_RD_5_0.png","C_Dist_300_LN_11_LD_22_RN_2_RD_10_0.png","C_Dist_300_LN_11_LD_22_RN_4_RD_20_0.png","C_Dist_300_LN_12_LD_24_RN_2_RD_10_0.png","C_Dist_300_LN_18_LD_20_RN_9_RD_15_0.png","C_Dist_300_LN_20_LD_25_RN_13_RD_26_0.png","C_Dist_300_LN_20_LD_25_RN_14_RD_28_0.png","C_Dist_300_LN_20_LD_25_RN_5_RD_10_0.png","C_Dist_300_LN_20_LD_25_RN_8_RD_16_0.png","C_Dist_300_LN_20_LD_25_RN_9_RD_18_0.png","C_Dist_300_LN_24_LD_30_RN_2_RD_4_0.png","C_Dist_300_LN_24_LD_30_RN_8_RD_16_0.png","C_Dist_300_LN_3_LD_6_RN_2_RD_10_0.png","C_Dist_300_LN_4_LD_10_RN_1_RD_10_0.png","C_Dist_300_LN_4_LD_5_RN_2_RD_4_0.png","C_Dist_300_LN_8_LD_16_RN_1_RD_5_0.png","C_Dist_300_LN_9_LD_10_RN_3_RD_5_0.png"],["C_Dist_300_LN_1_LD_20_RN_7_RD_20_1.png","C_Dist_300_LN_1_LD_3_RN_19_RD_30_1.png","C_Dist_300_LN_1_LD_30_RN_8_RD_24_1.png","C_Dist_300_LN_1_LD_5_RN_11_RD_22_1.png","C_Dist_300_LN_1_LD_5_RN_3_RD_6_1.png","C_Dist_300_LN_1_LD_5_RN_6_RD_12_1.png","C_Dist_300_LN_2_LD_10_RN_12_RD_24_1.png","C_Dist_300_LN_2_LD_20_RN_10_RD_25_1.png","C_Dist_300_LN_3_LD_12_RN_11_RD_20_1.png","C_Dist_300_LN_3_LD_6_RN_4_RD_5_1.png","C_Dist_300_LN_4_LD_20_RN_13_RD_26_1.png","C_Dist_300_LN_5_LD_25_RN_6_RD_12_1.png","C_Dist_300_LN_5_LD_25_RN_7_RD_14_1.png","C_Dist_300_LN_7_LD_14_RN_20_RD_25_1.png","C_Dist_300_LN_8_LD_15_RN_10_RD_12_1.png"]],"dist300_I":[["I_Dist_300_LN_1_LD_2_RN_2_RD_10_0.png","I_Dist_300_LN_1_LD_2_RN_3_RD_15_0.png","I_Dist_300_LN_2_LD_4_RN_6_RD_30_0.png","I_Dist_300_LN_3_LD_6_RN_4_RD_20_0.png","I_Dist_300_LN_4_LD_5_RN_6_RD_12_0.png","I_Dist_300_LN_4_LD_5_RN_8_RD_16_0.png","I_Dist_300_LN_7_LD_10_RN_8_RD_20_0.png","I_Dist_300_LN_8_LD_10_RN_14_RD_28_0.png","I_Dist_300_LN_8_LD_10_RN_9_RD_18_0.png"],["I_Dist_300_LN_13_LD_26_RN_12_RD_15_1.png","I_Dist_300_LN_4_LD_20_RN_2_RD_4_1.png"]],"dist300_S":[["E_Dist_300_LN_9_LD_12_RN_9_RD_20_0.png"],["E_Dist_300_LN_18_LD_30_RN_18_RD_20_1.png","E_Dist_300_LN_3_LD_10_RN_3_RD_5_1.png","E_Dist_300_LN_9_LD_20_RN_9_RD_12_1.png"]],"dist500_C":[["C_Dist_500_LN_10_LD_13_RN_7_RD_26_0.png","C_Dist_500_LN_10_LD_15_RN_4_RD_24_0.png","C_Dist_500_LN_12_LD_16_RN_3_RD_12_0.png","C_Dist_500_LN_12_LD_18_RN_4_RD_24_0.png","C_Dist_500_LN_15_LD_18_RN_5_RD_15_0.png","C_Dist_500_LN_15_LD_20_RN_1_RD_4_0.png","C_Dist_500_LN_18_LD_27_RN_1_RD_6_0.png","C_Dist_500_LN_20_LD_24_RN_1_RD_3_0.png","C_Dist_500_LN_20_LD_24_RN_3_RD_9_0.png","C_Dist_500_LN_20_LD_24_RN_7_RD_21_0.png","C_Dist_500_LN_20_LD_28_RN_3_RD_14_0.png","C_Dist_500_LN_21_LD_28_RN_6_RD_24_0.png","C_Dist_500_LN_22_LD_28_RN_2_RD_7_0.png","C_Dist_500_LN_25_LD_30_RN_9_RD_27_0.png","C_Dist_500_LN_4_LD_6_RN_1_RD_6_0.png","C_Dist_500_LN_5_LD_6_RN_2_RD_6_0.png","C_Dist_500_LN_6_LD_9_RN_1_RD_6_0.png","C_Dist_500_LN_7_LD_10_RN_1_RD_5_0.png","C_Dist_500_LN_8_LD_12_RN_1_RD_6_0.png","C_Dist_500_LN_8_LD_12_RN_4_RD_24_0.png"],["C_Dist_500_LN_1_LD_4_RN_12_RD_16_1.png","C_Dist_500_LN_1_LD_4_RN_9_RD_12_1.png","C_Dist_500_LN_1_LD_9_RN_11_RD_18_1.png","C_Dist_500_LN_10_LD_24_RN_22_RD_24_1.png","C_Dist_500_LN_2_LD_12_RN_10_RD_15_1.png","C_Dist_500_LN_2_LD_12_RN_12_RD_18_1.png","C_Dist_500_LN_2_LD_12_RN_4_RD_6_1.png","C_Dist_500_LN_2_LD_24_RN_7_RD_12_1.png","C_Dist_500_LN_2_LD_5_RN_18_RD_20_1.png","C_Dist_500_LN_2_LD_5_RN_9_RD_10_1.png","C_Dist_500_LN_2_LD_8_RN_12_RD_16_1.png","C_Dist_500_LN_2_LD_8_RN_21_RD_28_1.png","C_Dist_500_LN_3_LD_10_RN_4_RD_5_1.png","C_Dist_500_LN_3_LD_12_RN_15_RD_20_1.png","C_Dist_500_LN_3_LD_30_RN_6_RD_10_1.png","C_Dist_500_LN_3_LD_8_RN_14_RD_16_1.png","C_Dist_500_LN_4_LD_16_RN_15_RD_20_1.png","C_Dist_500_LN_4_LD_24_RN_12_RD_18_1.png","C_Dist_500_LN_5_LD_14_RN_6_RD_7_1.png","C_Dist_500_LN_7_LD_21_RN_20_RD_24_1.png","C_Dist_500_LN_7_LD_28_RN_12_RD_16_1.png","C_Dist_500_LN_7_LD_28_RN_9_RD_12_1.png","C_Dist_500_LN_9_LD_27_RN_20_RD_24_1.png"]],"dist500_I":[["I_Dist_500_LN_2_LD_3_RN_4_RD_24_0.png","I_Dist_500_LN_5_LD_6_RN_6_RD_18_0.png","I_Dist_500_LN_7_LD_8_RN_9_RD_24_0.png"],["I_Dist_500_LN_7_LD_21_RN_5_RD_6_1.png"]],"dist500_S":[["E_Dist_500_LN_6_LD_8_RN_6_RD_24_0.png"],["E_Dist_500_LN_2_LD_12_RN_2_RD_3_1.png","E_Dist_500_LN_6_LD_24_RN_6_RD_8_1.png"]]}},{"start_time":1552313637061,"click_time":1552313640311,"finger_time":1552313638969,"fix_duration":250,"trial":1,"RT":1908,"MT":1342,"sideResp":1,"stimulus":[],"xmouse":[800,800,800,798,798,797,797,797,797,796,796,795,792,790,790,790,790,790,790,790,790,790,790,790,790,790,790,790,790,790,790,790,790,790,790,790,790,790,790,790,790,790,790,790,790,790,790,790,790,790,790,790,790,790,790,790,790,790,790,790,790,790,790,790,790,790,790,790,790,790,790,790,790,790,790,790,790,790,790,790,790,790,790,790,790,790,790,790,790,790,790,790,790,790,790,788,783,778,765,764,763,763,762,762,762,762,762,762,762,762,762,762,762,762,762,762,762,762,762,762,762,762,762,762,762,762,762,762,762,762,760,759,754,753,749,746,741,731,726,722,719,718,713,711,709,708,708,708,707,704,698,694,680,679,671,663,653,615,597,577,554,535,490],"ymouse":[551,551,551,551,552,554,555,556,556,557,558,560,565,567,568,569,569,569,569,569,569,569,569,569,569,569,569,569,569,569,569,569,569,569,569,569,569,569,569,569,569,569,569,569,569,569,569,569,569,569,569,569,569,569,569,569,569,569,569,569,569,569,569,569,569,569,569,569,569,569,569,569,569,569,569,569,569,569,569,569,569,569,569,569,569,569,569,569,569,569,568,565,547,534,517,500,485,469,452,448,446,445,444,444,444,444,444,444,444,444,444,444,444,444,444,444,444,444,444,444,444,444,444,444,444,444,444,444,444,443,442,441,435,433,427,422,415,400,393,387,383,381,376,375,374,374,374,374,372,368,360,353,333,332,324,313,300,249,224,196,165,138,81],"timestamp_mouse":[9,36,48,67,87,108,128,147,168,188,208,228,248,268,289,307,328,348,367,388,408,428,448,468,488,507,528,548,568,588,608,628,648,668,688,708,728,749,768,789,809,828,849,869,888,909,928,948,967,988,1007,1027,1047,1068,1088,1109,1128,1147,1168,1188,1208,1228,1248,1267,1287,1308,1329,1348,1368,1388,1408,1428,1448,1469,1488,1509,1527,1547,1568,1588,1609,1628,1648,1668,1688,1709,1728,1747,1768,1788,1808,1827,1848,1868,1887,1908,1928,1948,1968,1988,2007,2028,2048,2068,2087,2109,2129,2148,2168,2188,2207,2228,2248,2268,2287,2307,2328,2348,2369,2387,2408,2428,2448,2469,2488,2508,2528,2548,2568,2589,2608,2628,2649,2668,2689,2708,2728,2749,2768,2787,2808,2828,2849,2869,2889,2908,2927,2949,2967,2987,3008,3028,3049,3068,3088,3108,3128,3149,3168,3188,3208,3227,3249],"xSR":741.5,"ySR":501.8,"xT1":424.9,"yT1":0,"xT2":1058.1,"yT2":0,"toosoon":0,"cond_shown":"Incongruent","ratio_trial":200,"L_num":9,"L_den":15,"R_num":8,"R_den":10,"correct_side":2,"subjID":"juan camilo cruz","gender":"0","school":"4","age":"9"},{"start_time":1552313642141,"click_time":1552313644210,"finger_time":1552313644210,"fix_duration":650.7790901471371,"trial":2,"RT":2069,"MT":0,"sideResp":2,"stimulus":[],"xmouse":[792,792,792,792,792,792,792,792,792,792,792,792,792,792,792,792,792,792,793,793,793,793,794,794,794,794,794,794,794,793,793,793,793,793,793,793,793,793,793,793,793,793,793,793,793,793,793,793,794,794,794,794,794,794,794,794,794,794,794,794,794,794,794,794,794,794,794,794,794,794,794,794,794,794,794,794,794,794,794,794,794,794,794,794,794,794,794,794,794,794,794,794,794,794,794,794,794,794,794,794,794,794,794,1103],"ymouse":[577,577,577,577,577,577,577,577,577,577,577,577,577,577,577,577,577,577,576,575,574,573,572,571,567,566,565,562,560,559,559,559,559,559,559,559,559,559,559,559,559,559,559,559,559,559,559,558,555,555,555,555,555,555,555,555,555,555,555,555,555,555,555,555,555,555,555,555,555,555,555,555,555,555,555,555,555,555,555,555,555,555,555,555,555,555,555,555,555,555,555,555,555,555,555,555,555,555,555,555,555,555,555,32],"timestamp_mouse":[12,28,48,68,88,109,127,149,168,188,207,228,248,268,288,308,328,347,368,388,408,428,448,468,488,508,529,548,568,588,608,627,649,669,688,708,728,747,768,787,809,829,848,868,887,908,928,948,969,987,1008,1027,1049,1068,1088,1109,1128,1147,1169,1187,1208,1227,1248,1267,1288,1308,1328,1348,1368,1387,1409,1427,1447,1467,1488,1508,1527,1548,1569,1588,1607,1628,1649,1668,1688,1707,1728,1748,1769,1787,1808,1827,1848,1868,1888,1907,1927,1947,1967,1987,2008,2028,2048,2069],"xSR":741.5,"ySR":501.8,"xT1":424.9,"yT1":0,"xT2":1058.1,"yT2":0,"toosoon":0,"cond_shown":"Incongruent","ratio_trial":200,"L_num":9,"L_den":15,"R_num":8,"R_den":10,"correct_side":2,"subjID":"juan camilo cruz","gender":"0","school":"4","age":"9"},{"start_time":1552313645657,"click_time":1552313647949,"finger_time":1552313646350,"fix_duration":526.8740447682164,"trial":3,"RT":693,"MT":1599,"sideResp":1,"stimulus":[],"xmouse":[790,790,790,790,790,790,790,793,796,796,796,796,797,801,801,801,801,801,801,802,802,801,801,800,798,796,796,796,795,794,792,791,789,789,791,793,794,795,795,795,795,795,795,795,792,790,789,789,789,789,789,789,789,789,789,789,789,789,789,789,789,789,789,789,789,789,789,789,789,789,789,789,789,789,789,789,789,789,789,789,789,789,789,789,789,789,789,789,789,789,789,789,789,789,789,789,789,789,789,789,789,789,789,789,789,789,789,789,789,789,789,789,789,789,466],"ymouse":[534,534,534,534,534,534,532,531,529,529,529,528,527,521,521,521,521,521,521,515,509,503,503,503,506,511,511,511,515,518,522,530,553,591,602,609,612,614,614,614,614,614,614,605,597,594,592,592,592,592,592,592,592,592,592,591,591,591,591,591,589,587,587,587,587,587,587,587,587,587,587,587,587,587,587,587,587,587,587,587,587,587,587,587,587,587,587,587,587,587,587,587,587,587,587,587,587,587,587,587,587,587,587,587,587,587,587,587,587,587,587,587,587,587,54],"timestamp_mouse":[13,35,52,72,92,112,132,152,171,192,213,232,252,272,291,312,332,352,373,392,412,432,452,472,492,512,533,552,572,592,612,631,652,672,693,712,732,752,772,793,812,832,851,872,892,912,932,951,972,992,1012,1031,1051,1072,1092,1112,1132,1152,1172,1193,1211,1232,1252,1272,1293,1311,1331,1351,1372,1392,1412,1432,1452,1473,1493,1512,1533,1551,1571,1592,1611,1631,1652,1671,1692,1711,1732,1752,1772,1792,1812,1831,1852,1872,1892,1911,1931,1951,1972,1992,2012,2031,2052,2072,2093,2112,2131,2153,2172,2192,2212,2231,2252,2271,2292],"xSR":741.5,"ySR":501.8,"xT1":424.9,"yT1":0,"xT2":1058.1,"yT2":0,"toosoon":0,"cond_shown":"Incongruent","ratio_trial":100,"L_num":8,"L_den":16,"R_num":6,"R_den":10,"correct_side":2,"subjID":"juan camilo cruz","gender":"0","school":"4","age":"9"},{"start_time":1552313650197,"click_time":1552313652008,"finger_time":1552313652008,"fix_duration":1366.5413035264498,"trial":4,"RT":1811,"MT":0,"sideResp":1,"stimulus":[],"xmouse":[816,816,816,816,816,816,816,816,816,816,814,812,810,809,808,808,808,808,806,806,804,802,793,790,788,788,788,788,788,788,788,788,788,788,788,788,788,788,787,783,783,783,783,783,783,783,783,783,783,783,783,783,783,783,783,783,783,783,783,783,783,783,783,783,783,783,783,783,783,783,783,783,783,783,783,783,783,783,783,783,783,783,783,783,783,783,783,783,783,783,463],"ymouse":[556,556,556,556,556,556,556,556,556,555,553,553,553,553,553,553,553,553,553,553,553,554,556,556,556,556,556,556,556,556,556,556,556,556,556,556,556,556,555,552,552,552,552,552,552,552,552,552,552,552,552,552,552,552,552,552,552,552,552,552,552,552,552,552,552,552,552,552,552,552,552,552,552,552,552,552,552,552,552,552,552,552,552,552,552,552,552,552,552,552,4],"timestamp_mouse":[12,32,52,71,93,112,132,151,172,192,212,232,252,273,292,313,332,351,371,392,413,431,452,473,492,511,533,552,572,592,611,632,652,671,692,713,732,752,772,792,811,831,851,873,892,912,931,952,971,992,1011,1033,1051,1073,1092,1112,1132,1152,1172,1192,1213,1232,1251,1273,1293,1312,1331,1352,1373,1392,1412,1432,1452,1472,1491,1512,1531,1552,1572,1592,1612,1631,1651,1672,1691,1712,1732,1752,1771,1792,1811],"xSR":741.5,"ySR":501.8,"xT1":424.9,"yT1":0,"xT2":1058.1,"yT2":0,"toosoon":0,"cond_shown":"Incongruent","ratio_trial":300,"L_num":4,"L_den":20,"R_num":2,"R_den":4,"correct_side":2,"subjID":"juan camilo cruz","gender":"0","school":"4","age":"9"},{"start_time":1552313653779,"click_time":1552313655450,"finger_time":1552313655450,"fix_duration":829.10679093586,"trial":5,"RT":1671,"MT":0,"sideResp":2,"stimulus":[],"xmouse":[806,806,806,806,806,806,806,806,806,806,806,806,806,806,806,806,806,806,806,806,806,806,806,806,811,811,811,811,811,811,811,811,811,811,811,811,811,811,811,811,811,811,811,811,811,811,811,811,811,811,811,811,811,811,811,811,811,811,811,811,811,811,811,811,811,811,811,811,811,811,811,811,811,811,811,811,811,811,811,811,811,811,811,1096],"ymouse":[555,555,555,554,554,554,554,554,554,554,553,553,553,553,553,553,553,553,553,553,553,553,552,552,548,548,548,548,548,548,548,548,548,548,548,548,548,548,548,548,548,548,548,548,548,548,548,548,548,548,548,548,548,548,548,548,548,548,548,548,548,548,548,548,548,548,548,548,548,548,548,548,548,548,548,548,548,548,548,548,548,548,548,37],"timestamp_mouse":[10,33,49,69,90,110,130,150,170,190,210,230,249,270,291,310,330,350,369,390,410,430,450,470,490,510,529,550,569,591,610,629,650,669,690,710,730,749,770,790,811,829,849,869,890,911,930,949,970,990,1010,1030,1050,1070,1090,1111,1130,1150,1171,1189,1209,1231,1250,1271,1289,1309,1330,1349,1371,1389,1409,1431,1450,1469,1490,1510,1530,1549,1569,1589,1610,1630,1650,1671],"xSR":741.5,"ySR":501.8,"xT1":424.9,"yT1":0,"xT2":1058.1,"yT2":0,"toosoon":0,"cond_shown":"Congruent","ratio_trial":200,"L_num":13,"L_den":26,"R_num":14,"R_den":20,"correct_side":2,"subjID":"juan camilo cruz","gender":"0","school":"4","age":"9"},{"start_time":1552313657066,"click_time":1552313658849,"finger_time":1552313658848,"fix_duration":856.6469484059984,"trial":6,"RT":1782,"MT":1,"sideResp":1,"stimulus":[],"xmouse":[829,829,829,829,829,829,829,829,829,829,829,829,829,827,819,809,799,789,781,775,774,774,773,773,773,773,773,773,773,773,773,773,773,773,772,772,773,775,776,788,792,794,795,795,795,795,795,795,795,795,795,795,791,791,791,791,791,791,791,791,791,791,791,791,791,791,791,791,791,791,791,791,791,791,791,791,791,791,791,791,791,791,791,791,791,791,791,791,791,474],"ymouse":[545,545,545,545,545,545,545,545,545,545,545,545,545,548,555,561,568,571,573,573,573,573,573,573,573,573,573,573,573,573,573,573,573,573,574,576,578,579,579,582,582,582,582,582,582,582,582,582,582,582,582,579,572,572,572,572,572,572,572,572,572,572,572,572,572,572,572,572,572,572,572,572,572,572,572,572,572,572,572,572,572,572,572,572,572,572,572,572,572,47],"timestamp_mouse":[12,31,43,63,83,103,123,143,164,183,203,224,243,263,283,303,322,343,362,383,403,424,443,463,483,503,522,542,562,583,604,624,643,663,683,703,724,742,763,783,803,823,844,863,883,903,923,943,963,983,1003,1023,1043,1064,1083,1103,1123,1142,1163,1184,1203,1223,1243,1262,1283,1303,1324,1342,1362,1384,1404,1423,1443,1463,1483,1503,1523,1542,1564,1584,1604,1623,1643,1662,1683,1703,1723,1743,1762,1782],"xSR":741.5,"ySR":501.8,"xT1":424.9,"yT1":0,"xT2":1058.1,"yT2":0,"toosoon":0,"cond_shown":"Congruent","ratio_trial":300,"L_num":20,"L_den":25,"R_num":13,"R_den":26,"correct_side":1,"subjID":"juan camilo cruz","gender":"0","school":"4","age":"9"},{"start_time":1552313659855,"click_time":1552313665309,"finger_time":1552313665309,"fix_duration":283.90077111710553,"trial":7,"RT":5454,"MT":0,"sideResp":1,"stimulus":[],"xmouse":[812,812,812,812,812,812,812,812,812,812,812,812,812,812,812,812,812,812,812,812,812,812,812,812,812,812,812,812,812,812,812,812,812,812,812,812,812,812,812,812,812,812,812,812,812,812,812,812,812,812,812,812,812,812,812,812,812,812,812,812,812,812,812,812,812,812,812,812,812,812,812,812,812,812,812,812,812,812,812,812,812,812,812,812,812,812,812,812,811,810,810,810,810,810,810,811,815,818,821,822,822,822,822,822,822,822,822,822,822,822,822,822,822,822,822,822,822,822,822,822,822,822,822,822,822,822,822,822,822,822,822,822,822,822,822,822,822,822,822,822,822,822,822,822,822,822,822,822,822,822,822,822,822,822,822,821,821,821,821,821,821,821,821,821,821,821,821,821,821,821,821,821,821,821,821,821,821,821,821,827,827,827,827,827,827,827,827,827,827,827,827,827,827,827,827,827,827,827,827,827,827,827,827,827,827,827,827,827,827,827,827,827,827,827,827,827,827,827,827,827,827,827,827,827,827,827,827,827,827,827,827,827,827,827,827,827,827,827,827,827,827,827,827,827,827,827,827,827,827,827,827,827,827,827,827,827,827,827,827,827,827,827,827,827,827,827,827,827,827,827,827,827,492],"ymouse":[562,562,562,562,562,563,563,563,563,563,563,563,563,563,563,563,563,563,563,563,563,563,563,563,563,563,563,563,563,563,563,563,563,563,563,563,563,563,563,563,563,563,563,563,563,563,563,563,563,563,563,563,563,563,563,563,563,563,563,563,563,563,563,563,563,563,563,563,563,563,563,563,563,563,563,563,563,563,563,563,563,563,563,563,563,563,563,562,560,558,557,557,557,557,557,557,560,561,562,562,563,563,563,563,563,563,563,563,563,563,563,563,563,563,563,563,563,563,563,563,563,563,563,563,563,563,563,563,563,563,563,563,563,563,563,563,563,563,563,563,563,563,563,563,563,563,563,563,563,563,563,563,563,563,563,563,563,563,564,564,564,564,564,564,564,564,564,564,564,564,564,564,564,564,564,564,564,564,562,549,549,549,549,549,549,549,549,549,549,549,549,549,549,549,549,549,549,549,549,549,549,549,549,549,549,549,549,549,549,549,549,549,549,549,549,549,549,549,549,549,549,549,549,549,549,549,549,549,549,549,549,549,549,549,549,549,549,549,549,549,549,549,549,549,549,549,549,549,549,549,549,549,549,549,549,549,549,549,549,549,549,549,549,549,549,549,549,549,549,549,549,549,59],"timestamp_mouse":[14,42,55,75,93,113,134,154,173,194,214,233,253,274,294,314,334,355,373,394,414,434,454,474,493,514,534,554,574,594,614,634,654,674,693,714,734,754,774,794,814,833,853,874,894,914,934,953,973,994,1014,1035,1054,1074,1093,1115,1134,1154,1174,1194,1214,1234,1254,1273,1294,1315,1334,1354,1374,1394,1414,1434,1453,1474,1494,1514,1534,1554,1575,1594,1615,1635,1654,1673,1694,1715,1734,1753,1774,1793,1815,1834,1854,1874,1894,1914,1934,1954,1974,1994,2015,2034,2054,2074,2094,2115,2134,2155,2173,2194,2214,2234,2253,2274,2295,2314,2334,2354,2374,2393,2414,2434,2455,2473,2494,2515,2534,2555,2574,2593,2615,2634,2654,2673,2695,2715,2734,2753,2774,2794,2815,2833,2854,2874,2893,2913,2934,2954,2974,2994,3014,3034,3053,3073,3094,3115,3134,3154,3174,3194,3213,3234,3254,3274,3294,3314,3334,3354,3374,3394,3413,3434,3454,3474,3494,3515,3535,3555,3574,3594,3615,3633,3654,3674,3694,3715,3734,3754,3775,3794,3813,3834,3854,3874,3894,3914,3934,3954,3974,3994,4015,4035,4054,4074,4094,4113,4135,4154,4174,4194,4213,4235,4255,4274,4293,4313,4334,4354,4373,4394,4414,4434,4454,4474,4493,4513,4534,4554,4574,4594,4614,4634,4654,4674,4694,4714,4734,4754,4773,4794,4814,4834,4854,4874,4894,4915,4934,4954,4974,4995,5014,5034,5054,5074,5094,5114,5134,5154,5174,5194,5214,5234,5254,5274,5294,5315,5335,5354,5374,5394,5413,5433,5453],"xSR":741.5,"ySR":501.8,"xT1":424.9,"yT1":0,"xT2":1058.1,"yT2":0,"toosoon":0,"cond_shown":"Incongruent","ratio_trial":200,"L_num":4,"L_den":5,"R_num":6,"R_den":10,"correct_side":1,"subjID":"juan camilo cruz","gender":"0","school":"4","age":"9"},{"start_time":1552313666420,"click_time":1552313669129,"finger_time":1552313669129,"fix_duration":250,"trial":8,"RT":2709,"MT":0,"sideResp":2,"stimulus":[],"xmouse":[796,796,796,796,796,796,796,796,796,796,796,796,796,796,796,796,796,796,796,796,796,796,796,796,796,796,796,796,796,796,796,796,796,796,796,796,796,796,796,796,796,796,796,796,796,796,796,796,796,796,796,796,796,796,796,796,796,796,796,796,796,796,796,796,796,796,796,796,796,796,796,796,796,796,796,796,796,796,796,796,796,796,796,796,796,796,796,796,797,797,797,797,797,797,797,801,801,801,801,801,801,801,801,801,801,801,801,801,801,801,801,801,801,801,801,801,801,801,801,801,801,801,801,801,801,801,801,801,801,801,801,801,801,801,801,1105],"ymouse":[562,562,562,562,562,562,562,562,562,562,562,562,562,562,562,562,562,562,562,562,562,562,562,562,562,562,562,562,562,562,562,562,562,562,562,562,562,562,562,562,562,562,562,562,562,562,562,562,562,562,562,562,562,562,561,560,560,560,560,559,559,559,559,559,559,559,559,559,559,559,559,559,559,559,559,559,559,559,559,559,559,559,559,559,559,559,561,562,566,566,566,566,566,566,566,567,567,567,567,567,567,567,567,567,567,567,567,567,567,567,567,567,567,567,567,567,567,567,567,567,567,567,567,567,567,567,567,567,567,567,567,567,567,567,567,54],"timestamp_mouse":[10,42,49,69,89,109,129,150,169,189,209,229,250,269,289,309,330,348,369,389,409,430,449,469,489,509,530,550,569,589,609,628,649,669,688,709,729,750,768,788,809,829,849,869,889,909,929,949,970,989,1009,1029,1049,1068,1089,1108,1128,1149,1168,1188,1209,1229,1249,1269,1289,1309,1329,1349,1368,1389,1409,1430,1449,1469,1489,1509,1529,1548,1569,1589,1609,1629,1649,1669,1689,1709,1729,1749,1769,1790,1809,1828,1849,1869,1888,1909,1929,1948,1969,1989,2009,2030,2049,2069,2089,2109,2128,2149,2169,2189,2209,2228,2249,2270,2288,2309,2329,2349,2369,2389,2408,2429,2449,2469,2489,2509,2529,2550,2569,2590,2610,2629,2650,2669,2689,2709],"xSR":741.5,"ySR":501.8,"xT1":424.9,"yT1":0,"xT2":1058.1,"yT2":0,"toosoon":0,"cond_shown":"Congruent","ratio_trial":100,"L_num":4,"L_den":10,"R_num":15,"R_den":30,"correct_side":2,"subjID":"juan camilo cruz","gender":"0","school":"4","age":"9"},{"start_time":1552313670675,"click_time":1552313673049,"finger_time":1552313673049,"fix_duration":844.451603992161,"trial":9,"RT":2374,"MT":0,"sideResp":2,"stimulus":[],"xmouse":[803,803,803,803,803,803,803,803,803,803,803,803,803,803,803,803,803,803,803,803,803,803,803,803,803,803,803,803,803,803,803,803,803,803,803,803,803,803,803,803,803,803,803,803,803,803,803,803,803,803,803,803,803,803,803,803,803,803,803,803,803,803,803,803,803,803,803,803,803,803,803,803,803,803,803,806,818,818,818,818,818,818,818,818,818,818,818,818,818,818,818,818,818,818,818,818,818,818,818,818,818,818,818,818,818,818,818,818,818,818,818,818,818,818,818,818,818,818,1107],"ymouse":[563,563,563,563,563,563,563,563,563,563,563,563,563,563,563,563,563,563,563,563,563,563,563,563,563,563,563,563,563,563,563,563,563,563,563,563,563,563,563,563,563,563,563,563,563,563,563,563,563,563,563,563,563,563,563,563,563,563,563,563,563,563,563,563,563,563,563,563,563,563,563,563,563,563,563,564,552,552,552,552,552,552,552,552,552,552,552,552,552,552,552,552,552,552,552,552,552,552,552,552,552,552,552,552,552,552,552,552,552,552,552,552,552,552,552,552,552,552,42],"timestamp_mouse":[14,41,54,75,94,115,134,153,174,195,213,234,254,274,294,314,333,354,374,393,415,434,454,474,493,515,534,554,573,594,615,635,653,674,694,714,735,754,774,794,815,835,854,874,893,915,934,955,975,993,1014,1035,1055,1075,1094,1115,1133,1154,1173,1194,1215,1234,1254,1274,1294,1313,1335,1354,1373,1394,1414,1434,1454,1474,1493,1514,1534,1555,1574,1594,1614,1634,1654,1674,1693,1714,1734,1754,1774,1794,1814,1834,1854,1874,1894,1914,1934,1954,1975,1994,2014,2034,2054,2074,2093,2113,2133,2155,2174,2194,2213,2234,2253,2274,2294,2313,2334,2354,2374],"xSR":741.5,"ySR":501.8,"xT1":424.9,"yT1":0,"xT2":1058.1,"yT2":0,"toosoon":0,"cond_shown":"Incongruent","ratio_trial":100,"L_num":4,"L_den":8,"R_num":8,"R_den":20,"correct_side":1,"subjID":"juan camilo cruz","gender":"0","school":"4","age":"9"},{"start_time":1552313674498,"click_time":1552313682049,"finger_time":1552313674710,"fix_duration":726.0382042647938,"trial":10,"RT":212,"MT":7339,"sideResp":1,"stimulus":[],"xmouse":[805,805,805,805,806,806,806,806,806,806,806,806,806,806,806,806,806,806,806,806,806,806,806,806,806,806,806,806,806,806,806,806,806,806,806,806,806,806,806,806,806,806,806,806,806,806,806,806,806,806,806,806,805,805,803,801,800,799,799,799,799,798,798,798,798,798,798,798,798,797,795,792,787,785,785,784,783,782,782,781,781,781,781,781,781,781,781,781,781,781,780,780,779,779,779,778,778,778,778,778,778,778,778,778,778,778,778,778,778,778,778,778,778,778,778,778,778,778,778,778,778,778,778,778,778,778,778,778,778,778,778,778,778,778,778,778,778,778,778,778,778,778,778,778,778,778,778,778,778,778,778,778,778,778,778,778,779,779,780,780,780,782,786,794,801,805,805,805,805,806,807,809,812,813,813,810,809,807,807,805,802,802,802,801,801,801,801,801,801,801,801,801,801,801,801,801,801,801,801,801,801,801,801,801,801,801,801,801,801,801,801,801,801,801,801,801,801,801,801,801,801,801,801,801,801,801,801,801,801,801,801,801,801,801,801,801,794,794,794,794,794,794,794,794,794,794,794,794,794,794,794,794,794,794,794,794,794,794,794,794,794,794,794,794,794,794,794,794,794,794,794,794,794,794,794,794,794,794,794,794,794,794,794,794,794,794,794,794,794,794,794,794,794,794,794,794,794,794,794,794,794,794,794,794,794,794,794,794,794,794,794,794,794,794,794,794,794,794,794,794,794,794,794,794,794,794,794,794,794,794,794,794,794,794,794,794,794,794,794,794,794,794,794,794,794,794,794,794,794,794,794,794,794,794,794,794,794,794,794,794,794,794,794,794,794,794,794,794,794,794,794,794,794,794,794,794,794,492],"ymouse":[536,536,533,528,520,516,514,510,507,504,497,495,494,494,492,492,491,489,487,481,480,478,478,478,478,478,478,478,478,478,478,478,478,478,478,476,475,474,472,472,471,469,468,467,467,467,467,467,467,467,469,473,482,489,508,521,530,536,538,547,548,549,549,549,549,549,549,550,550,550,552,554,557,558,558,559,560,561,563,564,564,564,564,564,564,564,564,564,564,565,566,566,567,569,570,570,570,570,570,570,570,570,570,570,570,570,570,570,570,570,570,570,570,570,570,570,570,570,570,570,570,570,570,570,570,570,570,570,570,570,570,570,570,570,570,570,570,570,570,570,570,570,570,570,570,570,570,570,570,572,572,574,575,576,579,581,582,584,584,585,585,584,581,575,569,565,565,564,564,563,562,562,562,561,560,557,557,556,556,556,555,555,555,555,555,555,555,555,555,555,555,555,555,555,555,555,555,555,555,555,555,555,555,555,555,555,555,555,555,555,555,555,555,555,555,555,555,555,555,555,555,555,555,555,555,555,555,555,555,555,555,555,555,555,555,555,550,550,550,550,550,550,550,550,550,550,550,550,550,550,550,550,550,550,550,550,550,550,550,550,550,550,550,550,550,550,550,550,550,550,550,550,550,550,550,550,550,550,550,550,550,550,550,550,550,550,550,550,550,550,550,550,550,550,550,550,550,550,550,550,550,550,550,550,550,550,550,550,550,550,550,550,550,550,550,550,550,550,550,550,550,550,550,550,550,550,550,550,550,550,550,550,550,550,550,550,550,550,550,550,550,550,550,550,550,550,550,550,550,550,550,550,550,550,550,550,550,550,550,550,550,550,550,550,550,550,550,550,550,550,550,550,550,550,550,550,550,54],"timestamp_mouse":[12,36,52,72,91,111,131,151,171,191,212,231,252,271,291,311,331,351,371,391,410,431,451,470,492,511,531,551,571,591,612,632,651,671,691,712,731,751,772,791,811,831,852,872,892,911,931,950,971,991,1011,1031,1052,1071,1092,1111,1131,1150,1171,1191,1211,1231,1251,1272,1291,1310,1331,1351,1371,1390,1412,1432,1451,1471,1491,1511,1532,1551,1571,1590,1610,1631,1651,1671,1691,1711,1731,1750,1771,1792,1811,1831,1850,1870,1891,1911,1930,1951,1971,1991,2010,2031,2052,2071,2091,2112,2130,2150,2171,2192,2211,2231,2251,2270,2290,2310,2331,2352,2371,2391,2411,2431,2451,2471,2492,2511,2531,2551,2570,2591,2611,2632,2651,2670,2691,2711,2731,2752,2771,2790,2811,2831,2851,2871,2891,2912,2931,2951,2971,2991,3010,3031,3051,3071,3091,3111,3131,3151,3171,3191,3211,3231,3251,3270,3291,3311,3332,3351,3371,3391,3411,3431,3452,3470,3491,3511,3531,3552,3570,3591,3611,3631,3651,3671,3691,3711,3731,3751,3771,3791,3812,3831,3851,3871,3891,3911,3932,3951,3971,3991,4012,4031,4052,4072,4091,4111,4131,4151,4170,4191,4211,4231,4250,4271,4291,4311,4330,4350,4370,4391,4410,4431,4451,4471,4491,4510,4531,4551,4571,4591,4611,4631,4652,4671,4691,4711,4732,4751,4771,4792,4812,4832,4851,4871,4890,4912,4931,4951,4971,4991,5012,5031,5051,5072,5091,5111,5131,5150,5171,5191,5210,5231,5252,5271,5291,5310,5332,5351,5371,5391,5410,5431,5451,5471,5490,5511,5530,5551,5570,5592,5611,5630,5651,5671,5691,5710,5731,5751,5771,5791,5810,5832,5851,5871,5891,5911,5931,5951,5971,5990,6012,6031,6051,6071,6090,6111,6131,6151,6171,6191,6211,6232,6251,6272,6291,6312,6331,6352,6371,6391,6412,6430,6451,6471,6490,6512,6531,6551,6572,6591,6612,6630,6651,6671,6691,6712,6731,6750,6771,6791,6812,6830,6851,6872,6891,6912,6931,6952,6972,6990,7011,7031,7051,7071,7092,7110,7131,7151,7170,7192,7211,7231,7251,7271,7290,7311,7332,7351,7370,7391,7411,7431,7450,7471,7491,7511,7531,7550],"xSR":741.5,"ySR":501.8,"xT1":424.9,"yT1":0,"xT2":1058.1,"yT2":0,"toosoon":0,"cond_shown":"Congruent","ratio_trial":200,"L_num":6,"L_den":15,"R_num":3,"R_den":15,"correct_side":1,"subjID":"juan camilo cruz","gender":"0","school":"4","age":"9"},{"start_time":1552313685934,"click_time":1552313688329,"finger_time":1552313688329,"fix_duration":1464.1576649243677,"trial":11,"RT":2395,"MT":0,"sideResp":2,"stimulus":[],"xmouse":[785,785,785,785,785,785,785,785,785,785,785,785,785,785,785,785,785,785,785,785,785,785,785,785,785,785,787,788,790,791,791,791,791,791,791,791,791,791,791,791,791,791,791,791,791,791,793,796,796,796,796,796,796,796,796,796,796,796,796,796,796,796,796,796,796,796,796,796,796,796,796,796,796,796,796,796,796,796,796,796,796,796,796,796,796,796,796,796,796,796,796,796,796,796,796,796,796,796,796,796,796,796,796,796,796,796,796,796,796,796,796,796,796,796,796,796,796,796,796,1100],"ymouse":[564,564,564,564,564,564,564,564,564,564,564,564,564,564,564,564,564,564,564,564,564,564,564,564,564,564,566,566,568,568,568,568,568,568,568,568,568,568,568,568,568,568,568,568,568,568,568,566,566,566,566,566,566,566,566,566,566,566,566,566,566,566,566,566,566,566,566,566,566,566,566,566,566,566,566,566,566,566,566,566,566,566,566,566,566,566,566,566,566,566,566,566,566,566,566,566,566,566,566,566,566,566,566,566,566,566,566,566,566,566,566,566,566,566,566,566,566,566,566,82],"timestamp_mouse":[15,40,55,75,95,116,136,155,176,195,216,236,255,274,295,316,335,355,376,395,416,436,455,475,495,514,536,555,575,595,614,635,655,674,695,716,735,755,774,795,815,836,855,875,895,916,935,955,974,995,1014,1035,1055,1075,1095,1115,1135,1155,1176,1195,1215,1235,1255,1275,1295,1315,1335,1355,1374,1395,1415,1435,1455,1474,1495,1515,1535,1555,1575,1595,1616,1634,1655,1675,1695,1715,1735,1754,1775,1795,1815,1835,1855,1875,1895,1914,1935,1955,1975,1995,2015,2036,2056,2075,2096,2115,2134,2155,2175,2194,2215,2235,2255,2275,2294,2315,2335,2355,2375,2395],"xSR":741.5,"ySR":501.8,"xT1":424.9,"yT1":0,"xT2":1058.1,"yT2":0,"toosoon":0,"cond_shown":"Incongruent","ratio_trial":100,"L_num":9,"L_den":10,"R_num":20,"R_den":25,"correct_side":1,"subjID":"juan camilo cruz","gender":"0","school":"4","age":"9"},{"start_time":1552313692938,"click_time":1552313694728,"finger_time":1552313694728,"fix_duration":1088.317622196472,"trial":12,"RT":1790,"MT":0,"sideResp":1,"stimulus":[],"xmouse":[783,783,785,785,785,785,785,785,785,785,785,785,785,785,785,785,785,785,785,785,785,785,785,785,785,785,786,787,788,790,790,791,791,791,791,791,791,791,791,791,791,791,791,791,791,791,791,791,791,791,791,788,786,786,786,786,786,786,786,786,786,786,786,786,786,786,786,786,786,786,786,786,786,786,786,786,786,786,786,786,786,786,786,786,786,786,786,786,786,496],"ymouse":[554,554,553,553,553,553,553,553,553,553,553,553,553,553,553,553,553,553,553,553,553,553,553,553,553,553,553,553,555,561,563,565,566,566,566,566,566,566,566,566,566,566,566,566,566,566,566,566,566,566,566,564,562,562,562,562,562,562,562,562,562,562,562,562,562,562,562,562,562,562,562,562,562,562,562,562,562,562,562,562,562,562,562,562,562,562,562,562,562,16],"timestamp_mouse":[29,30,50,72,91,110,132,151,171,190,210,232,251,270,290,311,331,350,370,390,411,431,451,470,490,511,530,550,570,591,610,631,652,671,691,710,730,751,771,791,810,831,851,871,890,910,931,950,971,990,1011,1031,1051,1071,1091,1111,1131,1151,1171,1191,1211,1231,1251,1271,1292,1311,1330,1351,1371,1391,1410,1430,1451,1471,1491,1511,1530,1551,1570,1591,1610,1632,1651,1670,1691,1711,1731,1751,1770,1790],"xSR":741.5,"ySR":501.8,"xT1":424.9,"yT1":0,"xT2":1058.1,"yT2":0,"toosoon":0,"cond_shown":"Congruent","ratio_trial":300,"L_num":11,"L_den":22,"R_num":4,"R_den":20,"correct_side":1,"subjID":"juan camilo cruz","gender":"0","school":"4","age":"9"},{"start_time":1552313696260,"click_time":1552313697648,"finger_time":1552313697549,"fix_duration":250,"trial":13,"RT":1289,"MT":99,"sideResp":1,"stimulus":[],"xmouse":[793,793,793,793,793,793,793,793,793,793,794,794,794,795,797,797,797,798,798,799,799,799,799,799,799,799,799,799,799,799,799,799,799,799,799,799,799,799,799,799,799,799,799,799,799,799,799,799,799,799,799,799,799,799,799,799,799,799,799,799,799,799,799,799,536,522,506,493,480,472],"ymouse":[553,553,553,549,543,542,541,540,540,540,540,540,542,547,562,566,567,569,569,569,569,569,569,569,569,569,569,569,569,567,566,565,564,564,564,564,564,564,564,564,564,564,564,563,562,562,561,560,560,560,560,560,560,560,560,560,560,560,560,560,560,560,560,560,185,161,140,121,105,97],"timestamp_mouse":[14,35,48,70,88,108,129,149,168,188,209,229,248,268,288,308,329,349,368,389,410,428,449,469,489,508,529,549,568,588,608,629,649,668,689,708,729,748,769,790,809,828,848,869,890,909,929,949,970,989,1009,1034,1048,1069,1090,1109,1128,1148,1169,1188,1208,1228,1248,1269,1289,1308,1330,1349,1369,1388],"xSR":741.5,"ySR":501.8,"xT1":424.9,"yT1":0,"xT2":1058.1,"yT2":0,"toosoon":0,"cond_shown":"Congruent","ratio_trial":300,"L_num":11,"L_den":22,"R_num":1,"R_den":5,"correct_side":1,"subjID":"juan camilo cruz","gender":"0","school":"4","age":"9"},{"start_time":1552313702943,"click_time":1552313704668,"finger_time":1552313704668,"fix_duration":792.111013297887,"trial":14,"RT":1725,"MT":0,"sideResp":1,"stimulus":[],"xmouse":[774,774,774,774,775,775,775,775,775,775,775,775,775,775,775,775,775,775,775,775,775,775,775,775,775,775,775,775,775,775,775,775,775,777,778,779,779,780,780,782,783,785,785,785,785,785,785,785,785,784,782,780,777,777,777,777,777,777,777,777,777,777,777,777,777,777,777,777,777,777,777,777,777,777,777,777,777,777,777,777,777,777,777,777,777,777,508],"ymouse":[533,534,536,537,540,541,541,541,541,541,541,541,541,541,541,541,541,542,542,543,543,543,543,543,543,543,543,543,543,543,543,543,543,544,544,544,544,544,544,544,544,544,544,544,544,544,544,544,544,544,543,541,537,537,537,537,537,537,537,537,537,537,537,537,537,537,537,537,537,537,537,537,537,537,537,537,537,537,537,537,537,537,537,537,537,537,66],"timestamp_mouse":[7,37,45,65,87,106,127,146,165,185,205,225,246,267,285,306,325,345,366,385,405,426,446,465,485,506,526,546,566,585,605,626,646,666,686,705,725,746,766,786,806,825,845,866,886,906,926,945,966,986,1007,1025,1046,1065,1085,1106,1126,1145,1166,1186,1206,1225,1246,1266,1285,1305,1326,1346,1366,1386,1407,1425,1445,1466,1486,1505,1525,1546,1567,1586,1605,1625,1646,1667,1685,1705,1725],"xSR":741.5,"ySR":501.8,"xT1":424.9,"yT1":0,"xT2":1058.1,"yT2":0,"toosoon":0,"cond_shown":"Incongruent","ratio_trial":200,"L_num":3,"L_den":10,"R_num":1,"R_den":2,"correct_side":2,"subjID":"juan camilo cruz","gender":"0","school":"4","age":"9"},{"start_time":1552313706683,"click_time":1552313708529,"finger_time":1552313708529,"fix_duration":1294.5648168420014,"trial":15,"RT":1846,"MT":0,"sideResp":1,"stimulus":[],"xmouse":[793,793,793,793,793,793,793,793,793,793,793,793,793,793,793,793,793,793,793,793,793,793,793,793,793,793,793,793,793,793,793,793,793,793,793,793,793,793,793,793,793,793,793,793,793,793,793,793,793,793,793,793,793,793,793,793,793,794,794,794,794,794,794,794,794,794,794,794,794,794,794,794,794,794,794,794,794,794,794,794,794,794,794,794,794,794,794,794,794,794,794,794,483],"ymouse":[579,579,579,579,579,579,579,578,578,578,578,578,578,578,578,578,578,578,578,578,578,578,578,578,578,578,578,578,578,578,578,578,578,578,578,578,578,578,578,578,578,578,578,578,578,578,578,578,578,578,578,578,578,578,578,578,576,567,563,563,563,563,563,563,563,563,563,563,563,563,563,563,563,563,563,563,563,563,563,563,563,563,563,563,563,563,563,563,563,563,563,563,95],"timestamp_mouse":[9,39,46,66,85,106,125,146,166,185,206,225,245,265,285,305,326,346,365,385,406,427,446,465,486,506,526,546,565,587,605,625,646,666,685,706,727,745,766,785,806,825,846,865,885,907,926,945,966,985,1005,1025,1046,1065,1085,1106,1126,1146,1166,1187,1206,1226,1245,1265,1286,1306,1326,1346,1365,1385,1406,1426,1445,1465,1486,1505,1526,1546,1565,1586,1606,1625,1646,1665,1685,1706,1726,1746,1765,1785,1806,1826,1846],"xSR":741.5,"ySR":501.8,"xT1":424.9,"yT1":0,"xT2":1058.1,"yT2":0,"toosoon":0,"cond_shown":"Incongruent","ratio_trial":100,"L_num":11,"L_den":22,"R_num":9,"R_den":15,"correct_side":2,"subjID":"juan camilo cruz","gender":"0","school":"4","age":"9"},{"start_time":1552313716733,"click_time":1552313718569,"finger_time":1552313718569,"fix_duration":763.5441210936688,"trial":16,"RT":1836,"MT":0,"sideResp":1,"stimulus":[],"xmouse":[801,801,801,800,798,798,797,795,795,795,795,794,794,793,793,793,793,793,793,793,793,793,793,793,793,791,789,788,787,787,787,787,786,786,786,786,786,786,786,786,786,786,786,786,786,786,786,786,786,786,786,786,786,786,786,786,786,786,786,786,786,786,786,786,786,786,786,786,786,786,786,786,786,786,786,786,786,786,786,786,786,786,786,786,786,786,786,786,786,786,786,495],"ymouse":[557,557,557,557,557,558,558,558,558,558,558,560,561,562,564,565,566,567,567,567,567,567,567,567,567,569,571,571,571,571,571,571,571,571,571,571,571,571,571,571,571,571,571,571,571,571,571,571,571,565,565,565,565,565,565,565,565,565,565,565,565,565,565,565,565,565,565,565,565,565,565,565,565,565,565,565,565,565,565,565,565,565,565,565,565,565,565,565,565,565,565,71],"timestamp_mouse":[15,35,56,75,96,115,136,156,175,196,216,236,256,275,297,315,336,356,375,397,415,435,456,475,495,516,536,556,576,596,615,636,657,676,695,716,736,755,775,796,816,836,857,875,897,915,935,956,975,995,1015,1035,1056,1076,1096,1116,1136,1156,1176,1196,1215,1235,1255,1275,1295,1315,1336,1356,1375,1396,1416,1436,1455,1475,1495,1515,1536,1555,1576,1596,1615,1635,1656,1676,1695,1716,1736,1756,1775,1796,1817,1836],"xSR":741.5,"ySR":501.8,"xT1":424.9,"yT1":0,"xT2":1058.1,"yT2":0,"toosoon":0,"cond_shown":"Congruent","ratio_trial":100,"L_num":3,"L_den":6,"R_num":2,"R_den":5,"correct_side":1,"subjID":"juan camilo cruz","gender":"0","school":"4","age":"9"},{"start_time":1552313720450,"click_time":1552313722469,"finger_time":1552313722469,"fix_duration":960.9704042130722,"trial":17,"RT":2019,"MT":0,"sideResp":2,"stimulus":[],"xmouse":[798,798,798,798,798,798,798,798,798,798,798,798,798,798,798,798,798,798,798,798,798,798,798,798,798,798,798,798,798,798,798,798,798,798,799,801,803,803,803,803,803,803,803,803,803,803,803,803,803,803,803,803,803,803,803,803,803,803,803,803,803,803,803,803,803,803,803,803,803,803,803,803,803,803,803,803,804,823,823,823,823,823,823,823,823,823,823,823,823,823,823,823,823,823,823,823,823,823,823,823,1097],"ymouse":[543,543,543,543,543,543,543,543,543,543,543,543,543,543,543,543,543,543,543,543,543,543,543,543,543,543,543,543,543,543,543,543,543,543,543,544,545,545,545,545,545,545,545,545,545,545,545,543,539,536,535,534,534,534,534,534,534,534,534,534,534,534,534,534,534,534,534,534,534,534,534,534,534,534,534,534,533,507,507,507,507,507,507,507,507,507,507,507,507,507,507,507,507,507,507,507,507,507,507,507,97],"timestamp_mouse":[19,43,59,79,98,118,138,159,179,198,218,238,258,279,299,318,339,359,379,398,419,438,458,480,498,519,539,558,578,598,619,639,659,679,699,719,740,759,779,799,819,839,858,878,898,918,938,959,979,999,1018,1038,1059,1079,1100,1119,1139,1158,1179,1200,1219,1239,1259,1279,1300,1318,1340,1359,1378,1399,1418,1439,1459,1479,1499,1518,1539,1558,1579,1599,1618,1639,1659,1678,1698,1719,1738,1759,1779,1798,1819,1839,1859,1879,1898,1919,1939,1958,1978,1998,2019],"xSR":741.5,"ySR":501.8,"xT1":424.9,"yT1":0,"xT2":1058.1,"yT2":0,"toosoon":0,"cond_shown":"Incongruent","ratio_trial":100,"L_num":6,"L_den":10,"R_num":7,"R_den":14,"correct_side":1,"subjID":"juan camilo cruz","gender":"0","school":"4","age":"9"},{"start_time":1552313729947,"click_time":1552313733128,"finger_time":1552313733128,"fix_duration":1096.5266904620137,"trial":18,"RT":3181,"MT":0,"sideResp":1,"stimulus":[],"xmouse":[792,792,792,792,792,792,792,792,792,792,792,792,792,792,792,792,792,792,792,792,792,792,792,792,792,792,792,792,792,792,792,792,792,792,792,792,792,792,792,792,792,792,792,792,792,792,792,792,792,792,792,792,792,792,792,792,792,792,792,792,792,792,792,792,792,792,792,792,792,792,792,792,792,792,792,792,792,792,792,792,792,792,792,792,792,792,792,792,792,792,792,792,791,791,791,791,791,791,791,791,791,791,791,791,791,791,791,791,791,791,791,791,791,791,791,791,791,791,791,791,791,791,791,791,791,791,791,791,791,791,791,791,791,791,791,791,791,791,791,791,791,791,791,791,791,791,791,791,791,791,791,791,791,791,791,791,791,791,791,499],"ymouse":[562,562,562,562,562,562,562,562,562,562,562,562,562,562,562,562,562,562,562,562,562,562,562,562,562,562,562,562,562,562,562,562,562,562,562,562,562,562,562,562,562,562,562,562,562,562,562,562,562,562,562,562,562,562,562,562,562,562,562,562,562,562,562,562,562,562,562,562,562,562,562,562,562,562,562,562,562,562,562,562,562,562,562,562,562,562,562,562,562,562,562,562,558,558,558,558,558,558,558,558,558,558,558,558,558,558,558,558,558,558,558,558,558,558,558,558,558,558,558,558,558,558,558,558,558,558,558,558,558,558,558,558,558,558,558,558,558,558,558,558,558,558,558,558,558,558,558,558,558,558,558,558,558,558,558,558,558,558,558,82],"timestamp_mouse":[18,33,41,63,81,101,121,142,162,182,202,222,242,261,281,302,322,342,361,381,402,421,441,461,481,501,521,541,562,581,601,621,642,661,681,701,722,742,761,782,803,822,841,862,882,902,923,941,961,982,1001,1022,1042,1061,1083,1102,1122,1141,1161,1182,1202,1222,1241,1262,1282,1302,1321,1341,1361,1383,1402,1421,1442,1461,1483,1501,1522,1541,1561,1582,1602,1621,1641,1662,1683,1701,1721,1741,1763,1783,1802,1821,1841,1862,1881,1902,1921,1941,1963,1982,2001,2021,2041,2061,2083,2102,2123,2141,2161,2182,2202,2222,2242,2261,2281,2302,2321,2342,2363,2382,2401,2421,2442,2462,2483,2502,2522,2542,2563,2582,2602,2621,2641,2662,2681,2702,2722,2742,2762,2782,2802,2821,2842,2862,2881,2903,2922,2942,2962,2982,3001,3022,3042,3062,3081,3102,3121,3142,3161,3181],"xSR":741.5,"ySR":501.8,"xT1":424.9,"yT1":0,"xT2":1058.1,"yT2":0,"toosoon":0,"cond_shown":"Incongruent","ratio_trial":200,"L_num":4,"L_den":30,"R_num":1,"R_den":3,"correct_side":2,"subjID":"juan camilo cruz","gender":"0","school":"4","age":"9"},{"start_time":1552313756148,"click_time":1552313758791,"finger_time":1552313758791,"fix_duration":1396.2446426475212,"trial":19,"RT":2643,"MT":0,"sideResp":2,"stimulus":[],"xmouse":[781,781,781,781,781,781,781,781,781,781,781,781,781,781,781,781,781,781,781,781,781,781,781,781,781,781,781,781,781,781,781,781,781,781,781,781,781,785,787,789,791,791,791,792,793,794,795,796,797,797,797,797,797,797,797,797,797,797,797,797,797,797,797,797,797,797,797,797,798,798,798,798,798,798,798,798,798,798,798,798,797,796,795,794,794,793,793,793,793,793,793,793,799,799,799,799,799,799,799,799,799,799,799,799,799,799,799,799,799,799,799,799,799,799,799,799,799,799,799,799,799,799,799,799,799,799,799,799,799,799,799,799,1095],"ymouse":[558,558,558,558,558,558,558,558,558,558,558,558,558,558,558,558,558,558,558,558,558,558,558,558,558,558,558,558,558,558,558,558,558,558,558,558,558,558,556,556,554,553,552,550,549,548,547,545,543,542,541,540,539,539,539,539,539,539,539,539,539,539,539,539,539,539,540,545,547,548,549,551,551,553,553,553,553,553,553,553,554,554,554,555,555,555,555,556,556,556,555,549,542,542,542,542,542,542,542,542,542,542,542,542,542,542,542,542,542,542,542,542,542,542,542,542,542,542,542,542,542,542,542,542,542,542,542,542,542,542,542,542,53],"timestamp_mouse":[12,38,42,62,83,102,123,142,163,182,203,222,242,262,283,303,322,343,362,382,402,422,443,462,483,502,522,542,563,582,602,622,642,662,682,702,724,742,762,782,802,822,843,862,882,902,922,942,963,982,1004,1022,1042,1062,1082,1102,1122,1143,1162,1182,1202,1222,1243,1262,1282,1302,1322,1342,1363,1383,1402,1423,1442,1463,1482,1502,1522,1542,1562,1583,1602,1622,1642,1662,1682,1702,1722,1742,1762,1782,1802,1822,1842,1862,1882,1902,1922,1942,1962,1982,2003,2022,2043,2062,2082,2102,2122,2142,2162,2182,2202,2222,2243,2262,2282,2302,2322,2342,2362,2382,2403,2423,2443,2462,2482,2502,2522,2542,2562,2582,2602,2622,2643],"xSR":741.5,"ySR":501.8,"xT1":424.9,"yT1":0,"xT2":1058.1,"yT2":0,"toosoon":0,"cond_shown":"Incongruent","ratio_trial":300,"L_num":13,"L_den":26,"R_num":12,"R_den":15,"correct_side":2,"subjID":"juan camilo cruz","gender":"0","school":"4","age":"9"},{"start_time":1552313760642,"click_time":1552313765150,"finger_time":1552313765150,"fix_duration":950.1503644907452,"trial":20,"RT":4508,"MT":0,"sideResp":1,"stimulus":[],"xmouse":[783,784,784,784,784,784,784,784,784,784,784,784,784,784,784,784,784,784,784,784,784,784,784,784,784,784,784,784,784,784,784,784,784,784,784,784,784,784,784,784,784,784,784,784,784,784,784,784,784,784,784,784,784,784,784,784,784,784,784,784,784,784,784,784,784,784,784,784,784,784,784,784,784,784,783,783,783,783,783,783,783,783,783,783,783,783,783,783,783,783,783,783,783,783,783,783,783,783,783,783,783,783,783,783,783,783,783,783,783,783,783,783,783,783,783,783,783,783,783,783,783,783,783,783,783,783,783,783,783,783,783,783,783,783,783,783,783,783,783,783,783,783,783,783,783,783,783,783,783,783,783,783,783,783,783,783,783,783,783,783,783,783,783,783,783,783,783,783,783,783,783,783,783,783,783,782,782,782,782,782,782,782,782,782,782,782,782,782,782,782,782,782,782,782,782,782,782,782,782,782,782,782,782,782,782,782,782,782,782,782,782,782,782,782,782,782,782,782,782,782,782,782,782,782,782,467],"ymouse":[542,543,548,549,549,549,549,549,549,549,549,549,549,549,549,549,549,549,549,549,549,549,549,549,549,549,549,549,549,549,549,549,549,549,549,549,549,549,549,549,549,549,549,549,549,549,549,549,549,549,549,549,549,549,549,549,549,549,549,549,549,549,549,549,549,549,549,549,549,549,549,549,549,549,549,549,549,549,549,549,549,549,549,549,549,549,549,549,549,549,549,549,549,549,549,549,549,549,549,549,549,549,549,549,549,549,549,548,547,546,544,544,544,544,544,544,544,544,544,544,544,544,544,544,544,544,544,544,544,544,544,544,544,544,544,544,544,544,544,544,544,544,544,544,544,544,544,544,544,544,544,544,544,544,544,544,544,544,544,544,544,544,544,544,544,544,544,544,544,544,544,544,544,544,544,542,540,540,540,540,540,540,540,540,540,540,540,540,540,540,540,540,540,540,540,540,540,540,540,540,540,540,540,540,540,540,540,540,540,540,540,540,540,540,540,540,540,540,540,540,540,540,540,540,540,69],"timestamp_mouse":[8,32,48,68,88,108,128,148,169,188,208,228,248,268,288,309,328,348,368,388,408,428,448,468,489,508,528,548,568,589,608,629,649,668,690,708,728,748,768,788,808,829,848,868,888,908,929,948,968,988,1009,1028,1048,1068,1088,1108,1128,1148,1168,1188,1208,1229,1248,1268,1288,1308,1329,1348,1368,1388,1408,1429,1448,1469,1488,1508,1528,1548,1568,1588,1608,1629,1648,1668,1689,1708,1728,1748,1768,1788,1808,1828,1848,1868,1888,1909,1929,1948,1968,1988,2009,2028,2048,2068,2088,2108,2128,2148,2168,2188,2208,2228,2249,2268,2288,2308,2329,2349,2368,2388,2408,2428,2448,2468,2488,2508,2528,2548,2568,2588,2608,2628,2648,2668,2688,2708,2728,2748,2768,2788,2808,2828,2848,2868,2888,2908,2928,2948,2968,2988,3008,3028,3048,3068,3088,3108,3128,3148,3168,3188,3208,3228,3248,3268,3288,3308,3329,3349,3368,3388,3408,3428,3448,3468,3488,3508,3529,3548,3568,3589,3608,3629,3649,3668,3688,3708,3729,3748,3768,3788,3808,3830,3848,3868,3888,3908,3929,3948,3968,3988,4008,4028,4048,4068,4088,4108,4129,4148,4168,4188,4208,4228,4249,4268,4288,4308,4328,4348,4369,4388,4408,4429,4449,4469,4488,4508],"xSR":741.5,"ySR":501.8,"xT1":424.9,"yT1":0,"xT2":1058.1,"yT2":0,"toosoon":0,"cond_shown":"Incongruent","ratio_trial":300,"L_num":3,"L_den":6,"R_num":4,"R_den":20,"correct_side":1,"subjID":"juan camilo cruz","gender":"0","school":"4","age":"9"},{"start_time":1552313766747,"click_time":1552313768850,"finger_time":1552313768850,"fix_duration":376.50901927088466,"trial":21,"RT":2103,"MT":0,"sideResp":2,"stimulus":[],"xmouse":[772,772,772,772,772,766,760,755,751,751,751,750,748,747,747,747,747,747,747,747,747,748,749,752,755,757,758,759,760,760,760,761,761,761,761,761,761,761,764,766,768,769,770,772,773,774,774,774,774,774,774,774,774,774,774,774,774,774,774,774,774,774,774,774,774,774,774,774,774,775,775,775,775,775,775,775,775,775,775,775,775,775,775,775,775,775,775,775,775,775,775,775,775,775,775,775,775,775,775,775,775,775,775,775,775,1112],"ymouse":[513,513,508,507,507,514,525,532,535,535,535,535,529,528,527,527,528,531,533,533,533,533,533,536,539,544,547,549,551,551,551,552,552,552,552,552,552,552,552,552,552,552,552,550,547,546,546,546,546,546,546,546,546,546,546,546,546,546,546,546,546,546,546,546,546,546,546,546,546,541,541,541,541,541,541,541,541,541,541,541,541,541,541,541,541,541,541,541,541,541,541,541,541,541,541,541,541,541,541,541,541,541,541,541,541,59],"timestamp_mouse":[14,29,43,63,83,103,123,143,163,183,203,223,243,263,283,303,323,344,363,383,403,423,443,463,483,503,523,543,563,583,603,623,643,663,683,703,723,743,763,783,804,823,843,864,883,903,923,943,963,984,1003,1024,1043,1063,1083,1103,1123,1143,1163,1183,1203,1223,1244,1263,1283,1303,1324,1343,1364,1383,1403,1423,1443,1464,1483,1503,1523,1543,1563,1583,1604,1623,1643,1663,1683,1704,1723,1743,1763,1783,1803,1823,1843,1863,1883,1903,1923,1943,1963,1983,2003,2023,2043,2063,2083,2103],"xSR":741.5,"ySR":501.8,"xT1":424.9,"yT1":0,"xT2":1058.1,"yT2":0,"toosoon":0,"cond_shown":"Congruent","ratio_trial":200,"L_num":7,"L_den":15,"R_num":18,"R_den":27,"correct_side":2,"subjID":"juan camilo cruz","gender":"0","school":"4","age":"9"},{"start_time":1552313772475,"click_time":1552313774410,"finger_time":1552313774330,"fix_duration":844.8062564557141,"trial":22,"RT":1855,"MT":80,"sideResp":2,"stimulus":[],"xmouse":[789,790,793,794,794,794,794,794,794,794,794,794,794,794,794,794,794,794,794,794,794,794,794,794,796,797,797,798,798,798,798,798,798,798,798,798,798,798,798,798,798,798,798,798,797,797,797,797,797,797,797,797,797,797,797,797,797,797,797,797,800,800,800,800,800,800,800,800,800,800,800,800,800,800,800,800,800,800,800,800,800,800,800,800,800,800,800,800,800,800,800,800,1169,1169,1166,1162,1158],"ymouse":[561,561,562,563,563,563,561,554,550,547,546,546,546,546,546,546,546,546,546,546,546,546,546,546,548,551,554,554,554,554,554,554,554,554,554,554,554,554,554,554,554,554,554,553,552,552,552,552,552,552,552,552,552,552,552,552,552,552,552,551,546,546,546,546,546,546,546,546,546,546,546,546,546,546,546,546,546,546,546,546,546,546,546,546,546,546,546,546,546,546,546,546,65,65,65,66,69],"timestamp_mouse":[15,35,55,76,95,115,135,155,175,196,215,235,255,275,295,315,336,355,375,395,415,435,455,475,495,515,535,555,575,595,616,635,655,676,696,715,735,756,775,796,815,836,855,875,895,915,936,955,975,995,1015,1035,1055,1075,1095,1116,1135,1155,1175,1195,1215,1236,1255,1275,1295,1315,1335,1355,1375,1395,1415,1435,1455,1475,1495,1516,1535,1556,1575,1596,1615,1635,1655,1676,1696,1715,1735,1755,1775,1795,1816,1835,1855,1875,1895,1915,1935],"xSR":741.5,"ySR":501.8,"xT1":424.9,"yT1":0,"xT2":1058.1,"yT2":0,"toosoon":0,"cond_shown":"Incongruent","ratio_trial":300,"L_num":4,"L_den":20,"R_num":2,"R_den":4,"correct_side":2,"subjID":"juan camilo cruz","gender":"0","school":"4","age":"9"},{"start_time":1552313777911,"click_time":1552313782491,"finger_time":1552313782491,"fix_duration":719.5967760484407,"trial":23,"RT":4580,"MT":0,"sideResp":1,"stimulus":[],"xmouse":[802,801,801,801,801,800,799,799,799,798,798,798,798,798,798,798,798,798,798,798,798,798,798,798,798,798,798,798,798,798,798,799,800,801,801,802,802,802,802,802,802,802,802,802,802,802,802,802,802,802,802,802,802,802,802,802,802,802,802,802,802,802,802,802,802,802,802,802,802,802,802,802,802,802,802,802,802,802,802,802,802,802,802,802,802,802,802,802,802,802,802,802,802,802,802,802,802,802,802,802,802,802,802,802,802,802,802,802,802,802,802,802,802,802,802,802,802,802,802,802,802,802,802,802,802,802,802,802,802,802,802,802,802,802,802,802,802,802,802,802,802,802,802,802,802,802,802,802,802,802,802,802,803,802,802,802,802,802,802,802,802,802,802,802,802,802,802,802,802,802,802,802,802,802,802,802,802,802,802,802,802,802,802,802,802,802,802,802,802,802,802,802,802,802,802,802,802,802,802,802,802,802,802,802,802,802,802,802,802,802,802,802,802,802,802,802,802,802,802,802,802,802,802,802,802,802,802,802,482],"ymouse":[551,551,550,550,550,549,548,548,547,547,546,546,546,546,546,546,546,546,546,546,546,546,546,546,546,546,546,546,546,546,546,547,548,550,551,551,551,551,551,551,551,551,551,551,551,551,551,551,551,551,551,551,551,551,551,551,551,551,551,551,551,551,551,551,551,551,551,551,551,551,551,551,551,551,551,551,551,551,551,551,551,551,551,551,551,551,551,551,551,551,551,551,551,551,551,551,551,551,551,551,551,551,551,551,551,551,551,551,551,551,551,551,551,551,551,551,551,551,551,551,551,551,551,551,551,551,551,551,551,551,551,551,551,551,551,551,551,551,551,551,551,551,551,551,551,551,551,551,551,551,551,551,550,545,545,545,545,545,545,545,545,545,545,545,545,545,545,545,545,545,545,545,545,545,545,545,545,545,545,545,545,545,545,545,545,545,545,545,545,545,545,545,545,545,545,545,545,545,545,545,545,545,545,545,545,545,545,545,545,545,545,545,545,545,545,545,545,545,545,545,545,545,545,545,545,545,545,545,75],"timestamp_mouse":[33,39,59,79,99,120,140,159,179,199,219,240,259,279,299,319,339,359,379,400,419,440,459,480,499,519,539,559,579,599,619,639,659,679,699,719,739,760,779,799,819,841,859,879,899,919,939,961,979,999,1020,1039,1059,1079,1099,1119,1140,1159,1180,1200,1219,1239,1259,1280,1299,1319,1339,1359,1379,1399,1419,1439,1459,1479,1500,1519,1539,1559,1581,1599,1619,1639,1659,1679,1699,1719,1739,1759,1779,1799,1819,1839,1859,1879,1899,1919,1939,1959,1979,1999,2020,2039,2059,2079,2099,2119,2139,2159,2179,2199,2219,2239,2259,2279,2300,2320,2339,2359,2379,2399,2419,2439,2459,2479,2499,2519,2540,2560,2579,2599,2619,2640,2659,2679,2700,2719,2739,2759,2780,2799,2820,2839,2859,2879,2899,2920,2940,2960,2980,2999,3019,3039,3059,3079,3099,3119,3139,3160,3179,3199,3219,3239,3259,3279,3299,3320,3340,3359,3379,3400,3419,3440,3459,3479,3499,3520,3539,3559,3579,3599,3619,3639,3659,3679,3700,3719,3739,3759,3779,3799,3819,3839,3859,3879,3899,3919,3939,3959,3979,3999,4019,4040,4059,4079,4099,4119,4140,4159,4179,4199,4219,4240,4260,4279,4299,4319,4339,4359,4379,4399,4419,4440,4459,4480,4499,4519,4540,4559,4580],"xSR":741.5,"ySR":501.8,"xT1":424.9,"yT1":0,"xT2":1058.1,"yT2":0,"toosoon":0,"cond_shown":"Congruent","ratio_trial":100,"L_num":8,"L_den":16,"R_num":2,"R_den":5,"correct_side":1,"subjID":"juan camilo cruz","gender":"0","school":"4","age":"9"},{"start_time":1552313784840,"click_time":1552313787030,"finger_time":1552313787030,"fix_duration":1369.6361711203324,"trial":24,"RT":2190,"MT":0,"sideResp":1,"stimulus":[],"xmouse":[785,785,785,785,785,785,785,785,786,786,786,786,786,787,787,787,789,789,789,790,790,790,790,790,791,791,791,791,791,791,791,791,791,791,791,791,791,791,791,791,791,791,791,791,791,791,792,792,792,792,792,792,792,792,792,792,792,792,792,792,792,792,792,792,792,792,792,792,792,792,792,792,792,792,792,792,792,792,792,792,792,792,792,792,792,792,792,792,792,792,792,792,792,792,792,792,792,792,792,792,792,792,792,792,792,792,792,792,792,488],"ymouse":[547,547,548,549,551,558,560,562,563,563,563,563,563,563,563,563,563,563,563,562,562,562,562,562,561,561,561,561,561,561,561,561,561,561,561,561,561,561,561,561,561,561,561,561,561,561,560,557,557,557,557,557,557,557,557,557,557,557,557,557,557,557,557,557,557,557,557,557,557,557,557,557,557,557,557,557,557,557,557,557,557,557,557,557,557,557,557,557,557,557,557,557,557,557,557,557,557,557,557,557,557,557,557,557,557,557,557,557,557,76],"timestamp_mouse":[29,30,50,70,90,110,130,151,170,190,210,230,251,270,290,311,330,350,371,390,410,430,450,470,490,510,530,550,570,590,610,630,650,670,690,710,730,750,770,790,810,830,850,870,891,911,930,950,970,990,1010,1030,1050,1070,1090,1111,1130,1150,1170,1190,1211,1230,1250,1270,1290,1310,1330,1350,1370,1390,1410,1430,1450,1471,1490,1510,1530,1550,1570,1591,1611,1631,1651,1671,1690,1710,1730,1750,1770,1791,1810,1831,1850,1870,1890,1910,1930,1950,1970,1990,2010,2030,2051,2071,2090,2110,2130,2150,2170,2190],"xSR":741.5,"ySR":501.8,"xT1":424.9,"yT1":0,"xT2":1058.1,"yT2":0,"toosoon":0,"cond_shown":"Incongruent","ratio_trial":100,"L_num":1,"L_den":2,"R_num":8,"R_den":20,"correct_side":1,"subjID":"juan camilo cruz","gender":"0","school":"4","age":"9"},{"start_time":1552313789392,"click_time":1552313793231,"finger_time":1552313793231,"fix_duration":1479.7306243722896,"trial":25,"RT":3839,"MT":0,"sideResp":1,"stimulus":[],"xmouse":[781,781,781,781,781,781,781,781,781,781,781,781,781,781,781,781,781,781,781,781,781,781,781,781,781,781,781,781,781,781,781,781,781,781,781,781,781,781,781,781,781,781,781,781,781,781,781,781,781,781,781,781,781,781,781,781,781,781,781,781,781,781,781,781,781,781,781,781,781,781,781,781,781,781,781,781,781,781,781,781,781,781,781,781,781,781,781,781,781,781,781,781,781,781,781,781,781,781,781,781,781,781,781,781,781,781,781,781,781,781,781,781,781,781,781,781,781,781,781,781,781,781,781,781,781,781,781,781,781,781,781,781,781,781,781,781,781,781,781,781,781,781,781,781,781,781,782,782,781,781,781,781,781,781,781,781,781,781,781,781,781,781,781,781,781,781,781,781,781,781,781,781,781,781,781,781,781,781,781,781,781,781,781,781,781,781,781,781,781,781,781,477],"ymouse":[545,545,545,545,545,545,545,545,545,545,545,545,545,545,545,545,545,545,545,545,545,545,545,545,545,545,545,545,545,545,545,545,545,545,545,545,545,545,545,545,545,545,545,545,545,545,545,545,545,545,545,545,545,545,545,545,545,545,545,545,545,545,545,545,545,545,545,545,545,545,545,545,545,545,545,545,545,545,545,545,545,545,545,545,545,545,545,545,545,545,545,545,545,545,545,545,545,545,545,545,545,545,545,545,545,545,545,545,545,545,545,545,545,545,545,545,545,545,545,545,545,545,545,545,545,545,545,545,545,545,545,545,545,545,545,545,545,545,545,545,545,545,545,545,545,545,545,543,540,540,540,540,540,540,540,540,540,540,540,540,540,540,540,540,540,540,540,540,540,540,540,540,540,540,540,540,540,540,540,540,540,540,540,540,540,540,540,540,540,540,540,78],"timestamp_mouse":[19,43,59,79,98,119,138,158,178,198,218,238,259,278,299,318,338,359,378,398,418,438,458,479,498,518,538,558,578,599,618,638,658,678,699,718,738,758,779,799,818,838,858,879,898,918,938,958,978,998,1019,1038,1058,1080,1098,1118,1138,1158,1178,1198,1219,1239,1259,1278,1298,1318,1338,1358,1378,1399,1418,1439,1458,1478,1498,1519,1538,1558,1579,1599,1619,1638,1658,1678,1698,1718,1738,1758,1779,1798,1819,1839,1858,1879,1898,1919,1938,1958,1978,1998,2018,2038,2058,2078,2098,2118,2138,2159,2179,2198,2218,2239,2259,2278,2298,2318,2338,2358,2379,2398,2418,2438,2459,2478,2498,2518,2538,2558,2579,2598,2618,2638,2658,2678,2698,2718,2738,2758,2780,2798,2819,2838,2858,2878,2899,2918,2938,2958,2978,2998,3018,3038,3058,3078,3098,3118,3138,3158,3178,3198,3218,3238,3259,3278,3298,3318,3338,3359,3378,3398,3418,3438,3458,3478,3498,3518,3538,3558,3578,3598,3618,3638,3658,3679,3698,3718,3738,3758,3778,3798,3818,3839],"xSR":741.5,"ySR":501.8,"xT1":424.9,"yT1":0,"xT2":1058.1,"yT2":0,"toosoon":0,"cond_shown":"Congruent","ratio_trial":200,"L_num":8,"L_den":15,"R_num":7,"R_den":21,"correct_side":1,"subjID":"juan camilo cruz","gender":"0","school":"4","age":"9"},{"start_time":1552313797835,"click_time":1552313803130,"finger_time":1552313803130,"fix_duration":842.3063133411953,"trial":26,"RT":5295,"MT":0,"sideResp":1,"stimulus":[],"xmouse":[806,806,805,804,804,804,802,800,800,800,800,800,800,800,800,800,800,800,800,800,800,800,800,800,800,800,800,800,800,800,800,800,800,800,800,800,800,800,800,800,800,800,800,800,800,800,800,800,800,800,800,800,800,800,800,800,800,800,800,800,800,800,800,800,800,800,800,800,800,800,800,800,800,800,800,800,800,800,800,800,800,800,800,800,800,800,800,800,800,800,800,800,800,800,800,800,800,800,800,800,800,800,800,800,800,800,800,800,800,800,800,800,800,800,800,800,800,800,800,800,800,800,800,800,800,800,800,800,800,800,800,800,800,800,800,800,800,800,800,800,800,800,800,800,800,800,800,800,800,800,800,800,800,800,800,800,800,800,800,800,800,800,800,800,800,800,800,795,795,795,795,795,795,795,795,795,795,795,795,795,795,795,795,795,795,795,795,795,795,795,795,795,795,795,795,795,795,795,795,795,795,795,795,795,795,795,795,795,795,795,795,795,795,795,795,795,795,795,795,795,795,795,795,795,795,795,795,795,795,795,795,795,795,795,795,795,795,795,795,795,795,795,795,795,795,795,795,795,795,795,795,795,795,795,795,795,795,795,795,795,795,795,795,795,485],"ymouse":[561,561,561,561,561,561,561,561,561,561,561,561,561,561,561,561,561,561,561,561,561,561,561,561,561,561,561,561,561,561,561,561,561,561,561,561,561,561,561,561,561,561,561,561,561,561,561,561,561,561,561,561,561,561,561,561,561,561,561,561,561,561,561,561,561,561,561,561,561,561,561,561,561,561,561,561,561,561,561,561,561,561,561,561,561,561,561,561,561,561,561,561,561,561,561,561,561,561,561,561,561,561,561,561,561,561,561,561,561,561,561,561,561,561,561,561,561,561,561,561,561,561,561,561,561,561,561,561,561,561,561,561,561,561,561,561,561,561,561,561,561,561,561,561,561,561,561,561,561,561,561,561,561,561,561,561,561,561,561,561,561,561,561,561,561,561,560,552,552,552,552,552,552,552,552,552,552,552,552,552,552,552,552,552,552,552,552,552,552,552,552,552,552,552,552,552,552,552,552,552,552,552,552,552,552,552,552,552,552,552,552,552,552,552,552,552,552,552,552,552,552,552,552,552,552,552,552,552,552,552,552,552,552,552,552,552,552,552,552,552,552,552,552,552,552,552,552,552,552,552,552,552,552,552,552,552,552,552,552,552,552,552,552,552,49],"timestamp_mouse":[15,37,55,76,95,115,136,155,175,195,216,235,255,275,295,315,335,355,375,395,415,435,455,475,495,515,536,556,576,595,616,635,655,675,695,716,735,755,776,796,815,835,855,875,895,916,936,956,976,995,1015,1036,1056,1075,1095,1115,1136,1156,1175,1196,1215,1235,1255,1275,1295,1315,1335,1355,1375,1395,1415,1436,1456,1475,1495,1515,1535,1555,1576,1595,1615,1636,1655,1675,1695,1715,1736,1755,1775,1795,1815,1835,1855,1875,1895,1915,1935,1955,1976,1995,2015,2035,2055,2075,2095,2115,2135,2155,2175,2195,2215,2235,2256,2275,2295,2315,2335,2356,2375,2396,2416,2435,2455,2475,2495,2515,2535,2555,2575,2595,2615,2635,2656,2675,2696,2715,2735,2755,2775,2796,2816,2835,2855,2875,2895,2915,2935,2955,2975,2995,3015,3035,3056,3075,3095,3115,3135,3156,3175,3196,3215,3235,3256,3275,3296,3315,3335,3356,3375,3396,3415,3435,3455,3475,3495,3515,3535,3556,3575,3595,3616,3635,3655,3675,3695,3715,3735,3756,3775,3795,3815,3836,3855,3875,3895,3915,3935,3955,3975,3995,4015,4035,4055,4075,4095,4115,4136,4155,4175,4196,4215,4235,4255,4275,4295,4316,4335,4356,4375,4395,4415,4436,4455,4475,4495,4515,4535,4556,4575,4595,4615,4635,4655,4675,4695,4715,4735,4755,4776,4795,4815,4836,4855,4875,4895,4915,4935,4956,4975,4995,5015,5035,5055,5075,5095,5115,5135,5155,5175,5195,5215,5235,5255,5275,5295],"xSR":741.5,"ySR":501.8,"xT1":424.9,"yT1":0,"xT2":1058.1,"yT2":0,"toosoon":0,"cond_shown":"Congruent","ratio_trial":200,"L_num":4,"L_den":10,"R_num":3,"R_den":15,"correct_side":1,"subjID":"juan camilo cruz","gender":"0","school":"4","age":"9"},{"start_time":1552313806427,"click_time":1552313809970,"finger_time":1552313809970,"fix_duration":935.7751961209085,"trial":27,"RT":3543,"MT":0,"sideResp":2,"stimulus":[],"xmouse":[794,794,794,794,794,794,794,794,794,794,794,794,794,794,793,792,792,792,792,792,792,792,792,794,794,794,795,795,795,797,797,797,798,798,798,798,798,798,798,798,798,798,798,798,798,798,798,798,798,798,798,798,798,798,798,798,798,798,798,798,798,798,798,798,798,798,798,798,798,798,798,798,798,798,798,798,798,798,798,798,798,798,798,798,798,798,798,798,798,798,798,798,798,798,798,798,798,798,798,798,798,798,798,798,798,798,798,798,798,798,798,798,798,798,798,798,798,798,798,798,798,798,798,798,798,798,798,798,798,798,798,798,798,798,799,799,799,799,799,799,799,799,799,799,799,799,799,799,799,799,799,799,799,799,799,799,799,799,799,799,799,799,799,799,799,799,799,799,799,799,799,799,799,799,799,799,799,1118],"ymouse":[565,566,566,570,570,573,576,581,582,583,583,583,583,581,580,577,576,576,576,575,573,572,570,567,567,567,565,565,565,564,564,564,564,564,564,564,564,564,564,563,563,563,563,563,563,563,563,563,563,563,563,563,563,563,563,563,563,563,563,563,563,563,563,563,563,563,563,563,563,563,563,563,563,563,563,563,563,563,563,563,563,563,563,563,563,563,563,563,563,563,563,563,563,563,563,563,563,563,563,563,563,563,563,563,563,563,563,563,563,563,563,563,563,563,563,563,563,563,563,563,563,563,563,563,563,563,563,563,563,563,563,563,563,563,557,557,557,557,557,557,557,557,557,557,557,557,557,557,557,557,557,557,557,557,557,557,557,557,557,557,557,557,557,557,557,557,557,557,557,557,557,557,557,557,557,557,557,90],"timestamp_mouse":[4,36,45,64,83,103,123,144,163,183,203,223,243,263,283,303,324,343,363,384,403,423,443,464,484,503,523,543,563,583,603,624,643,664,683,703,724,743,763,783,803,823,843,863,883,903,923,943,963,983,1003,1023,1044,1063,1083,1103,1123,1144,1163,1184,1203,1223,1243,1264,1283,1303,1323,1343,1364,1384,1403,1424,1443,1463,1483,1503,1523,1543,1563,1584,1603,1623,1643,1663,1683,1703,1723,1743,1763,1783,1803,1823,1843,1863,1883,1904,1923,1943,1964,1983,2003,2024,2043,2063,2083,2103,2124,2144,2163,2184,2203,2224,2244,2263,2283,2304,2323,2343,2363,2384,2403,2423,2443,2463,2484,2504,2524,2543,2564,2584,2603,2623,2643,2663,2683,2704,2723,2743,2763,2783,2803,2823,2843,2863,2883,2903,2923,2943,2963,2983,3003,3023,3043,3063,3084,3103,3125,3144,3164,3183,3203,3223,3243,3263,3284,3303,3324,3343,3365,3384,3403,3423,3443,3464,3483,3503,3523,3543],"xSR":741.5,"ySR":501.8,"xT1":424.9,"yT1":0,"xT2":1058.1,"yT2":0,"toosoon":0,"cond_shown":"Congruent","ratio_trial":300,"L_num":1,"L_den":5,"R_num":11,"R_den":22,"correct_side":2,"subjID":"juan camilo cruz","gender":"0","school":"4","age":"9"},{"start_time":1552313812077,"click_time":1552313814130,"finger_time":1552313814090,"fix_duration":1265.2778827011841,"trial":28,"RT":2013,"MT":40,"sideResp":1,"stimulus":[],"xmouse":[780,780,780,780,780,781,781,781,781,781,781,781,781,781,781,781,781,781,781,781,781,781,781,781,781,781,781,781,781,781,781,781,781,781,781,781,780,780,780,780,780,780,780,780,780,780,780,780,779,779,779,779,779,779,779,779,779,779,779,779,779,779,779,779,779,779,779,779,779,779,779,779,779,779,779,779,779,779,779,779,779,779,779,779,779,778,770,770,770,770,770,770,770,770,770,770,770,770,770,770,538,525,519],"ymouse":[548,548,548,548,548,548,548,548,548,548,548,548,548,548,548,548,548,548,548,548,548,548,548,548,548,548,548,548,548,548,548,548,548,548,548,548,548,549,549,549,549,549,549,549,549,549,549,550,551,551,551,551,551,551,551,551,551,551,551,551,551,551,551,551,551,551,551,551,551,551,551,551,551,551,551,551,551,551,551,551,551,551,551,551,551,551,541,541,541,541,541,541,541,541,541,541,541,541,541,541,99,81,72],"timestamp_mouse":[14,33,54,73,95,113,133,153,173,193,214,234,253,273,294,314,333,354,373,394,413,433,453,473,493,513,533,553,573,593,613,633,654,674,693,713,733,753,773,793,814,833,854,873,893,913,933,953,973,993,1013,1034,1054,1073,1094,1113,1133,1153,1173,1193,1213,1233,1253,1274,1293,1313,1333,1353,1373,1393,1413,1433,1453,1474,1494,1513,1533,1554,1575,1593,1613,1633,1653,1673,1693,1713,1734,1753,1773,1793,1814,1833,1853,1874,1893,1914,1933,1953,1973,1993,2013,2033,2053],"xSR":741.5,"ySR":501.8,"xT1":424.9,"yT1":0,"xT2":1058.1,"yT2":0,"toosoon":0,"cond_shown":"Congruent","ratio_trial":300,"L_num":11,"L_den":22,"R_num":1,"R_den":5,"correct_side":1,"subjID":"juan camilo cruz","gender":"0","school":"4","age":"9"},{"start_time":1552313817095,"click_time":1552313825431,"finger_time":1552313825431,"fix_duration":401.698600149304,"trial":29,"RT":8336,"MT":0,"sideResp":2,"stimulus":[],"xmouse":[791,791,791,791,791,791,791,791,791,791,791,791,791,791,791,791,791,791,791,791,791,791,791,791,791,791,791,791,791,791,791,791,791,791,791,791,791,791,791,791,790,788,787,787,787,787,787,787,787,787,787,787,787,787,787,787,787,787,787,787,787,787,787,787,787,787,787,787,787,787,787,787,787,787,787,787,787,787,787,787,787,787,787,787,787,787,787,787,787,787,787,787,787,787,787,787,787,787,787,787,787,787,787,787,787,787,787,787,787,787,787,787,787,787,787,787,787,787,787,787,787,787,787,787,787,787,787,787,787,787,787,787,787,787,787,787,787,787,787,787,787,787,787,787,787,787,787,787,787,787,787,787,787,787,787,787,787,787,787,787,787,787,787,787,787,787,787,787,787,787,787,787,787,787,787,787,787,787,787,787,787,787,787,787,787,787,787,787,787,787,787,787,787,787,787,787,787,787,787,787,787,787,787,787,787,787,787,787,787,787,787,787,787,787,787,787,787,787,787,787,787,787,787,787,787,787,787,787,787,787,787,787,787,787,787,787,787,787,787,787,787,787,787,787,787,787,787,787,787,787,787,787,787,787,787,787,787,787,787,787,787,787,787,787,787,787,787,787,787,787,787,787,787,787,787,787,787,787,787,787,787,787,787,787,787,787,787,787,787,787,787,787,787,787,787,787,787,787,787,787,787,787,787,787,787,787,787,787,787,787,787,787,787,787,787,787,787,787,787,787,787,787,787,787,787,787,787,787,787,787,787,787,787,787,787,787,787,787,787,787,787,787,787,787,787,787,787,787,787,787,787,787,787,787,787,787,787,787,787,787,787,787,787,787,787,787,787,787,787,787,787,787,787,787,787,787,787,787,787,787,787,787,787,787,787,787,787,787,787,787,787,787,787,787,787,787,787,787,787,787,787,787,787,787,787,787,787,787,787,787,787,787,787,787,787,787,1098],"ymouse":[561,561,561,561,561,561,561,561,561,561,561,561,561,561,561,561,561,561,561,561,561,561,561,561,561,561,561,561,561,561,561,561,561,561,561,561,561,561,561,561,561,561,561,561,561,561,561,561,561,561,561,561,561,561,561,561,561,561,561,561,561,561,561,561,561,561,561,561,561,561,561,561,561,561,561,561,561,561,561,561,561,561,561,561,561,561,561,561,561,561,561,561,561,561,561,561,561,561,561,561,561,561,561,561,561,561,561,561,561,561,561,561,561,561,561,561,561,561,561,561,561,561,561,561,561,561,561,561,561,561,561,561,561,561,561,561,561,561,561,561,561,561,561,561,561,561,561,561,561,561,561,561,561,561,561,561,561,561,561,561,561,561,561,561,561,561,561,561,561,561,561,561,561,561,561,561,561,561,561,561,561,561,561,561,561,561,561,561,561,561,561,561,561,561,561,561,561,561,561,561,561,561,561,561,561,561,561,561,561,561,561,561,561,561,561,561,561,561,561,561,561,561,561,561,561,561,561,561,561,561,561,561,561,561,561,561,561,561,561,561,561,561,561,561,561,561,561,561,561,561,561,561,561,561,561,561,561,561,561,561,561,561,561,561,561,561,561,561,561,561,561,561,561,561,561,561,561,561,561,561,561,561,561,561,561,561,561,561,561,561,561,561,561,561,561,561,561,561,561,561,561,561,561,561,561,561,561,561,561,561,561,561,561,561,561,561,561,561,561,561,561,561,561,561,561,561,561,561,561,561,561,561,561,561,561,561,561,561,561,561,561,561,561,561,561,561,561,561,561,561,561,561,561,561,561,561,561,561,561,561,561,561,561,561,561,561,561,561,561,561,561,561,561,561,561,561,561,561,561,561,561,561,561,561,561,561,561,561,561,561,561,561,561,561,561,561,561,561,561,561,561,561,561,561,561,561,561,561,561,561,561,561,561,561,561,561,77],"timestamp_mouse":[32,36,57,78,96,117,136,157,176,197,217,237,256,276,297,316,336,356,376,396,416,437,456,477,496,516,536,558,576,597,617,636,656,676,696,717,737,756,776,796,817,836,856,876,896,916,936,957,977,996,1018,1036,1057,1076,1097,1116,1137,1157,1177,1196,1216,1237,1256,1276,1297,1316,1337,1357,1376,1396,1417,1436,1456,1476,1497,1517,1538,1556,1576,1597,1616,1636,1656,1677,1696,1717,1737,1756,1777,1796,1818,1836,1857,1876,1897,1916,1937,1956,1976,1997,2017,2037,2057,2076,2096,2117,2137,2156,2176,2196,2216,2236,2256,2276,2296,2317,2338,2356,2376,2396,2416,2437,2456,2476,2498,2517,2536,2556,2576,2596,2616,2636,2656,2676,2696,2716,2738,2757,2776,2796,2816,2836,2857,2877,2896,2916,2937,2956,2977,2997,3017,3036,3056,3076,3096,3116,3138,3156,3176,3196,3217,3237,3256,3276,3296,3316,3336,3356,3376,3397,3416,3436,3456,3477,3496,3516,3536,3557,3577,3596,3617,3636,3657,3676,3696,3716,3736,3756,3776,3796,3817,3836,3856,3876,3896,3916,3936,3956,3977,3997,4016,4036,4056,4076,4096,4116,4136,4156,4177,4196,4216,4237,4257,4276,4296,4316,4336,4356,4377,4396,4416,4436,4457,4476,4496,4516,4536,4556,4576,4597,4616,4636,4657,4676,4696,4717,4736,4756,4777,4796,4816,4836,4856,4877,4896,4916,4936,4956,4977,4997,5017,5036,5056,5076,5096,5116,5137,5156,5176,5196,5217,5237,5256,5276,5296,5317,5336,5356,5376,5397,5417,5436,5456,5476,5496,5516,5536,5556,5577,5596,5616,5636,5656,5677,5696,5716,5736,5757,5776,5796,5816,5836,5857,5877,5897,5916,5936,5956,5976,5996,6016,6036,6057,6077,6096,6116,6137,6156,6176,6196,6216,6237,6257,6277,6296,6317,6336,6356,6377,6396,6416,6436,6457,6476,6496,6516,6536,6556,6577,6597,6616,6636,6656,6676,6696,6716,6736,6756,6776,6797,6816,6836,6857,6876,6897,6916,6936,6957,6976,6996,7016,7037,7056,7077,7096,7116,7136,7156,7177,7197,7216,7236,7257,7276,7296,7316,7337,7357,7377,7397,7416,7436,7456,7476,7496,7517,7536,7556,7576,7596,7616,7636,7656,7676,7696,7716,7736,7756,7776,7796,7816,7836,7856,7878,7896,7916,7936,7958,7976,7996,8016,8036,8058,8076,8096,8116,8138,8157,8176,8196,8218,8237,8257,8276,8296,8316,8336],"xSR":741.5,"ySR":501.8,"xT1":424.9,"yT1":0,"xT2":1058.1,"yT2":0,"toosoon":0,"cond_shown":"Incongruent","ratio_trial":100,"L_num":13,"L_den":26,"R_num":6,"R_den":10,"correct_side":2,"subjID":"juan camilo cruz","gender":"0","school":"4","age":"9"},{"start_time":1552313829482,"click_time":1552313831511,"finger_time":1552313831511,"fix_duration":1469.9757585249101,"trial":30,"RT":2029,"MT":0,"sideResp":2,"stimulus":[],"xmouse":[793,793,793,793,793,793,793,793,793,793,793,793,793,793,793,793,793,793,793,793,793,793,793,793,793,793,793,793,793,793,793,793,793,793,793,793,793,793,793,793,793,793,793,793,793,793,793,793,793,793,793,793,793,793,793,793,793,793,793,793,793,793,793,793,793,793,793,793,793,793,793,793,793,793,793,793,793,793,793,793,793,793,793,793,793,793,793,793,793,793,793,793,793,793,793,793,793,793,793,793,793,1136],"ymouse":[575,575,575,575,575,575,575,575,575,575,575,575,575,575,575,575,575,575,575,575,575,575,575,575,575,575,575,575,575,575,575,575,575,575,575,575,575,575,575,575,575,575,575,575,575,575,575,575,575,575,575,575,575,575,575,575,575,575,575,575,575,575,575,575,575,575,575,575,575,575,575,575,575,575,575,575,575,575,575,575,575,575,575,575,575,575,575,575,575,575,575,575,575,575,575,575,575,575,575,575,575,6],"timestamp_mouse":[9,29,50,70,89,111,129,149,169,189,209,230,251,269,289,309,329,349,369,390,409,429,449,469,489,510,529,549,569,590,610,630,649,670,689,709,729,749,769,789,811,829,849,869,889,910,931,949,969,989,1010,1029,1049,1070,1089,1109,1129,1150,1169,1189,1209,1229,1249,1269,1290,1310,1330,1350,1369,1389,1410,1429,1449,1469,1490,1510,1529,1549,1569,1590,1609,1629,1650,1669,1689,1709,1729,1751,1770,1789,1809,1829,1850,1870,1890,1909,1930,1949,1969,1989,2009,2029],"xSR":741.5,"ySR":501.8,"xT1":424.9,"yT1":0,"xT2":1058.1,"yT2":0,"toosoon":0,"cond_shown":"Incongruent","ratio_trial":100,"L_num":13,"L_den":26,"R_num":6,"R_den":10,"correct_side":2,"subjID":"juan camilo cruz","gender":"0","school":"4","age":"9"},{"start_time":1552313832693,"click_time":1552313835372,"finger_time":1552313835372,"fix_duration":339.13711712559734,"trial":31,"RT":2679,"MT":0,"sideResp":1,"stimulus":[],"xmouse":[803,803,803,803,803,803,803,803,803,803,802,802,802,802,802,802,802,802,802,802,802,802,802,802,802,802,802,802,802,802,802,802,800,799,798,798,797,797,797,797,797,796,795,794,794,794,794,794,794,794,794,794,794,794,794,794,794,794,794,794,794,794,794,794,794,794,794,794,794,794,794,794,794,794,794,792,792,792,792,792,792,792,792,792,792,792,792,792,792,792,792,792,792,792,792,792,792,792,792,792,792,792,792,792,792,792,792,792,792,792,792,792,792,792,792,792,792,792,792,792,792,792,792,792,792,792,792,792,792,792,792,792,792,490],"ymouse":[526,526,526,526,526,526,526,526,526,526,527,527,527,527,527,527,527,527,526,525,525,525,525,525,525,524,524,524,524,524,524,524,526,528,529,530,531,531,531,531,531,532,533,535,535,535,535,535,535,535,535,535,535,535,535,535,535,535,535,535,535,535,535,535,535,535,535,535,535,535,535,535,535,535,535,530,530,530,530,530,530,530,530,530,530,530,530,530,530,530,530,530,530,530,530,530,530,530,530,530,530,530,530,530,530,530,530,530,530,530,530,530,530,530,530,530,530,530,530,530,530,530,530,530,530,530,530,530,530,530,530,530,530,25],"timestamp_mouse":[18,38,58,78,98,118,139,158,178,199,218,240,258,278,298,318,338,358,378,398,418,438,458,479,498,518,539,559,580,599,618,638,658,678,698,718,738,758,778,799,819,839,858,878,898,919,938,958,979,998,1018,1038,1058,1078,1098,1118,1139,1158,1178,1199,1218,1239,1258,1278,1299,1318,1338,1359,1378,1399,1419,1438,1458,1478,1499,1518,1538,1558,1578,1598,1618,1638,1659,1678,1698,1718,1739,1758,1778,1799,1819,1839,1858,1878,1899,1918,1939,1958,1978,1998,2018,2038,2059,2079,2098,2118,2138,2158,2179,2198,2218,2238,2258,2278,2298,2318,2338,2358,2378,2399,2420,2438,2458,2478,2498,2518,2538,2558,2579,2599,2620,2638,2658,2679],"xSR":741.5,"ySR":501.8,"xT1":424.9,"yT1":0,"xT2":1058.1,"yT2":0,"toosoon":0,"cond_shown":"Incongruent","ratio_trial":300,"L_num":1,"L_den":2,"R_num":3,"R_den":15,"correct_side":1,"subjID":"juan camilo cruz","gender":"0","school":"4","age":"9"},{"start_time":1552313842509,"click_time":1552313845011,"finger_time":1552313845011,"fix_duration":1394.7705339212296,"trial":32,"RT":2502,"MT":0,"sideResp":2,"stimulus":[],"xmouse":[792,792,792,792,792,792,792,792,792,792,792,792,792,792,792,792,792,792,792,792,792,792,792,792,792,792,792,792,792,792,792,792,792,792,792,792,792,792,792,792,792,793,793,793,793,793,793,793,793,793,793,793,793,793,793,793,793,793,793,793,793,793,793,794,795,795,795,795,795,795,795,795,795,795,795,795,795,795,795,795,795,795,795,795,795,795,795,795,795,795,795,795,795,795,795,795,795,795,795,795,795,795,795,795,795,795,795,795,795,795,795,795,795,795,795,795,795,795,795,795,795,795,795,795,795,1104],"ymouse":[561,561,561,561,561,561,561,561,561,561,561,561,561,561,561,561,561,561,561,561,561,561,561,561,561,561,561,561,561,561,561,561,561,561,561,561,561,561,561,561,561,561,561,561,561,561,561,561,561,561,561,561,561,561,561,561,561,561,561,561,561,561,561,560,556,556,556,556,556,556,556,556,556,556,556,556,556,556,556,556,556,556,556,556,556,556,556,556,556,556,556,556,556,556,556,556,556,556,556,556,556,556,556,556,556,556,556,556,556,556,556,556,556,556,556,556,556,556,556,556,556,556,556,556,556,73],"timestamp_mouse":[12,33,43,62,83,103,123,142,163,182,204,223,243,262,282,303,322,343,362,382,403,422,442,463,482,503,523,543,562,583,603,622,642,662,683,703,722,742,763,783,804,823,842,862,884,903,922,943,962,982,1002,1022,1043,1062,1082,1102,1122,1143,1162,1182,1202,1222,1243,1262,1282,1303,1322,1342,1362,1382,1403,1423,1442,1462,1482,1502,1523,1542,1563,1582,1602,1622,1643,1662,1682,1702,1722,1742,1762,1782,1802,1822,1842,1863,1882,1903,1923,1942,1962,1982,2002,2022,2042,2062,2082,2102,2123,2142,2163,2183,2202,2222,2242,2262,2283,2303,2323,2343,2362,2382,2402,2422,2442,2463,2482,2502],"xSR":741.5,"ySR":501.8,"xT1":424.9,"yT1":0,"xT2":1058.1,"yT2":0,"toosoon":0,"cond_shown":"Incongruent","ratio_trial":300,"L_num":4,"L_den":20,"R_num":2,"R_den":4,"correct_side":2,"subjID":"juan camilo cruz","gender":"0","school":"4","age":"9"},{"start_time":1552313848748,"click_time":1552313852451,"finger_time":1552313852451,"fix_duration":454.86053396688163,"trial":33,"RT":3703,"MT":0,"sideResp":2,"stimulus":[],"xmouse":[792,792,792,792,792,792,792,792,792,792,792,792,792,792,792,792,792,792,792,792,792,792,792,792,792,792,792,792,792,792,792,792,792,792,792,792,792,791,790,790,790,790,789,789,789,789,789,789,789,789,789,789,789,789,789,789,789,789,789,789,789,789,789,789,789,789,789,789,789,789,789,789,789,789,789,789,789,789,789,789,789,789,789,789,789,789,789,789,789,789,789,789,789,789,789,789,789,789,789,789,789,789,789,789,789,789,789,789,789,789,789,789,789,789,789,789,789,789,789,789,789,789,789,789,789,789,789,789,789,789,789,789,789,789,789,789,789,789,789,789,789,789,789,790,790,790,790,790,790,790,790,790,790,790,790,790,790,790,790,790,790,790,790,790,790,790,790,790,790,790,790,790,790,790,790,790,790,790,790,790,790,790,790,790,790,1106],"ymouse":[554,553,553,553,553,553,553,553,553,553,553,553,553,553,553,553,553,553,553,553,553,553,553,553,553,553,553,553,553,553,553,553,553,553,553,553,553,553,553,553,553,554,554,554,554,555,556,557,557,557,557,557,557,557,557,557,557,557,557,557,557,557,557,557,557,557,557,557,557,557,557,557,557,557,557,557,557,557,557,557,557,557,557,557,557,557,557,557,557,557,557,557,557,557,557,557,557,557,557,557,557,557,557,557,557,557,557,557,557,557,557,557,557,557,557,557,557,557,557,557,557,557,557,557,557,557,557,557,557,557,557,557,557,557,557,557,557,557,557,557,557,557,557,548,548,548,548,548,548,548,548,548,548,548,548,548,548,548,548,548,548,548,548,548,548,548,548,548,548,548,548,548,548,548,548,548,548,548,548,548,548,548,548,548,548,63],"timestamp_mouse":[4,30,43,63,83,105,123,143,163,183,203,223,243,264,284,303,324,343,363,383,404,423,444,464,484,503,523,543,563,583,604,623,644,663,683,703,723,743,763,783,804,823,843,863,883,903,923,944,964,983,1004,1023,1044,1064,1083,1104,1123,1143,1163,1184,1204,1223,1243,1264,1283,1303,1324,1343,1364,1383,1403,1423,1443,1463,1484,1503,1523,1544,1563,1583,1603,1623,1644,1664,1683,1704,1723,1744,1763,1784,1804,1823,1843,1863,1883,1904,1924,1943,1964,1984,2004,2023,2043,2064,2083,2103,2123,2144,2163,2184,2204,2223,2243,2263,2283,2303,2323,2343,2363,2383,2403,2423,2443,2464,2484,2503,2523,2543,2563,2584,2604,2623,2644,2663,2683,2704,2723,2744,2763,2783,2803,2823,2844,2863,2883,2903,2923,2943,2963,2983,3003,3023,3044,3063,3083,3104,3123,3143,3163,3184,3203,3223,3244,3263,3284,3303,3324,3343,3363,3383,3404,3423,3443,3463,3483,3503,3524,3544,3564,3584,3605,3624,3643,3664,3683,3703],"xSR":741.5,"ySR":501.8,"xT1":424.9,"yT1":0,"xT2":1058.1,"yT2":0,"toosoon":0,"cond_shown":"Incongruent","ratio_trial":100,"L_num":13,"L_den":26,"R_num":12,"R_den":20,"correct_side":2,"subjID":"juan camilo cruz","gender":"0","school":"4","age":"9"},{"start_time":1552313857318,"click_time":1552313859571,"finger_time":1552313859571,"fix_duration":965.7941824879907,"trial":34,"RT":2253,"MT":0,"sideResp":2,"stimulus":[],"xmouse":[794,794,794,794,794,794,794,794,794,794,794,794,794,794,794,794,794,794,794,794,794,794,794,794,794,794,794,794,794,794,794,794,794,794,794,794,794,794,794,794,794,794,794,794,794,794,794,794,794,794,794,794,794,794,794,794,794,794,795,796,796,796,796,796,796,796,796,796,796,796,796,796,796,796,796,796,796,796,796,796,796,796,796,796,796,796,796,796,796,796,796,796,796,796,796,796,796,796,796,796,796,796,796,796,796,796,796,796,796,796,796,796,1094],"ymouse":[535,535,535,535,535,535,535,535,535,535,535,535,5