[{"start_time":1552309252593,"click_time":1552309253727,"finger_time":1552309253485,"fix_duration":1045.2058061988246,"trial":0,"RT":892,"MT":242,"sideResp":2,"stimulus":"img/500/equaldotsize/R/12_Ratio_500_L_1_R_2.png","xmouse":[800,800,800,800,800,800,800,800,800,800,800,800,800,800,800,800,800,800,800,800,800,800,800,800,800,800,800,800,800,800,800,800,798,798,798,798,798,798,798,798,798,798,798,805,817,832,858,880,912,943,1006,1025,1044,1057,1068,1085,1100],"ymouse":[526,526,526,526,526,526,526,526,526,526,526,526,526,526,526,526,526,526,526,526,526,526,526,526,526,526,526,526,526,526,526,526,523,520,520,520,520,520,520,520,520,520,516,496,469,439,385,338,292,257,212,198,181,165,144,100,70],"timestamp_mouse":[20,33,51,72,92,112,132,152,172,192,212,232,251,272,292,312,332,353,371,392,412,432,451,472,492,513,532,551,572,593,611,632,653,671,693,712,732,753,772,792,812,831,852,872,892,912,933,952,973,993,1012,1032,1052,1072,1093,1113,1132],"xSR":741.5,"ySR":469.95,"xT1":424.9,"yT1":0,"xT2":1058.1,"yT2":0,"toosoon":0,"cond_shown":"equaldotsize","ratio_trial":500,"smaller_num":"1","larger_num":"2","correct_side":2,"subjID":"juandavidalfonso4","gender":"0","age":"9","school":"4","test":{"fix_dur":[250,1500],"timestim":300,"targets_dim":[100,100],"targets_relative_coord":[0.3,0.7],"size_stim":[880,420],"start_dim":[100,100],"size_start":[300,300],"size_fix":60,"samplingrate":20,"img_types":["equaldotsize","equaldotanddens","randomdotsizeEA"],"ratios":[250,500,750,900],"rep_conds":9,"nTrials":120,"trials_to_rest":500,"Trials_order":[75,94,79,57,80,100,106,77,83,113,19,15,119,108,68,112,22,56,66,98,34,25,76,118,102,92,73,35,96,93,48,41,36,21,8,45,26,110,61,50,59,10,27,107,105,16,67,23,29,7,95,18,103,62,32,87,49,86,69,74,12,51,97,63,117,33,89,0,31,85,53,82,58,84,70,11,54,104,17,2,99,65,6,39,38,24,3,115,40,88,55,78,60,116,101,28,42,46,44,37,91,13,72,114,111,64,14,30,52,1,90,5,20,4,43,47,9,81,71,109],"cond_shown":["equaldotsize","equaldotanddens","equaldotanddens","equaldotsize","randomdotsizeEA","equaldotanddens","equaldotanddens","randomdotsizeEA","randomdotsizeEA","randomdotsizeEA","equaldotanddens","equaldotsize","randomdotsizeEA","equaldotsize","randomdotsizeEA","equaldotanddens","equaldotanddens","randomdotsizeEA","equaldotsize","randomdotsizeEA","equaldotanddens","equaldotanddens","equaldotanddens","equaldotanddens","equaldotsize","randomdotsizeEA","equaldotanddens","randomdotsizeEA","equaldotsize","equaldotsize","equaldotsize","randomdotsizeEA","equaldotsize","equaldotsize","randomdotsizeEA","equaldotsize","randomdotsizeEA","randomdotsizeEA","equaldotanddens","randomdotsizeEA","randomdotsizeEA","equaldotanddens","equaldotsize","randomdotsizeEA","equaldotsize","equaldotanddens","equaldotanddens","randomdotsizeEA","randomdotsizeEA","equaldotanddens","randomdotsizeEA","equaldotsize","equaldotanddens","randomdotsizeEA","randomdotsizeEA","equaldotsize","equaldotanddens","randomdotsizeEA","equaldotsize","randomdotsizeEA","equaldotsize","equaldotsize","equaldotanddens","equaldotsize","equaldotsize","equaldotsize","randomdotsizeEA","equaldotsize","equaldotanddens","equaldotanddens","randomdotsizeEA","equaldotanddens","equaldotanddens","equaldotsize","equaldotanddens","randomdotsizeEA","equaldotsize","randomdotsizeEA","randomdotsizeEA","randomdotsizeEA","equaldotsize","randomdotsizeEA","equaldotsize","equaldotsize","randomdotsizeEA","equaldotsize","equaldotsize","equaldotanddens","equaldotanddens","equaldotanddens","equaldotanddens","equaldotsize","equaldotsize","randomdotsizeEA","randomdotsizeEA","equaldotanddens","equaldotsize","equaldotanddens","randomdotsizeEA","equaldotanddens","equaldotanddens","equaldotanddens","equaldotsize","equaldotsize","equaldotsize","equaldotanddens","randomdotsizeEA","equaldotsize","equaldotanddens","equaldotanddens","equaldotsize","randomdotsizeEA","randomdotsizeEA","equaldotanddens","equaldotanddens","randomdotsizeEA","equaldotsize","equaldotsize","randomdotsizeEA","equaldotanddens"],"ratio_trial":[500,900,750,900,750,500,900,500,900,500,750,500,900,250,750,500,900,750,750,250,900,250,500,900,750,750,250,900,250,900,250,500,250,900,750,900,250,250,250,250,900,900,500,900,900,500,750,900,500,750,900,750,750,250,750,500,250,250,900,250,250,500,250,500,900,900,500,250,750,250,500,900,900,250,900,900,750,750,500,250,500,500,750,500,250,250,500,750,500,500,750,750,250,750,500,500,750,900,750,250,750,250,250,750,500,500,250,750,500,250,750,500,750,500,750,900,900,900,900,250],"smaller_num":["1","18","15","9","3","9","9","2","18","10","15","2","18","2","3","9","18","6","15","3","9","4","2","9","15","6","2","9","3","9","2","2","2","18","15","18","3","6","6","3","18","18","4","9","18","9","18","18","2","15","9","9","6","1","6","3","3","3","9","6","1","1","4","2","9","18","3","5","3","2","2","9","18","2","9","18","3","6","9","3","9","1","18","4","3","5","6","3","1","6","3","6","2","6","2","1","15","18","3","3","3","6","6","15","3","2","2","12","10","3","15","6","12","9","3","18","18","9","18","3"],"larger_num":["2","20","20","10","4","18","10","4","20","20","20","4","20","8","4","18","20","8","20","12","10","16","4","10","20","8","8","10","12","10","8","4","8","20","20","20","12","24","24","12","20","20","8","10","20","18","24","20","4","20","10","12","8","4","8","6","12","12","10","24","4","2","16","4","10","20","6","20","4","8","4","10","20","8","10","20","4","8","18","12","18","2","24","8","12","20","12","4","2","12","4","8","8","8","4","2","20","20","4","12","4","24","24","20","6","4","8","16","20","12","20","12","16","18","4","20","20","10","20","12"],"correct_side":[2,2,2,2,2,1,2,2,1,2,2,1,1,1,1,2,2,1,1,1,2,1,1,1,2,1,2,2,1,2,1,2,1,1,2,1,1,2,2,1,1,1,1,2,1,2,1,1,1,1,2,2,1,2,2,2,2,2,1,1,2,2,1,1,2,1,2,2,2,1,1,2,1,1,2,1,1,2,2,2,1,2,1,1,1,2,1,1,2,1,2,1,1,2,1,2,2,2,2,1,2,2,1,1,2,1,1,2,2,2,2,1,2,2,2,1,1,2,1,2],"img_shown":["img/500/equaldotsize/R/12_Ratio_500_L_1_R_2.png","img/900/equaldotanddens/R/11_Ratio_900_L_18_R_20.png","img/750/equaldotanddens/R/3_Ratio_750_L_15_R_20.png","img/900/equaldotsize/R/6_Ratio_900_L_9_R_10.png","img/750/randomdotsizeEA/R/12_Ratio_750_L_3_R_4.png","img/500/equaldotanddens/L/4_Ratio_500_L_18_R_9.png","img/900/equaldotanddens/R/7_Ratio_900_L_9_R_10.png","img/500/randomdotsizeEA/R/9_Ratio_500_L_2_R_4.png","img/900/randomdotsizeEA/L/8_Ratio_900_L_20_R_18.png","img/500/randomdotsizeEA/R/3_Ratio_500_L_10_R_20.png","img/750/equaldotanddens/R/4_Ratio_750_L_15_R_20.png","img/500/equaldotsize/L/10_Ratio_500_L_4_R_2.png","img/900/randomdotsizeEA/L/4_Ratio_900_L_20_R_18.png","img/250/equaldotsize/L/3_Ratio_250_L_8_R_2.png","img/750/randomdotsizeEA/L/9_Ratio_750_L_4_R_3.png","img/500/equaldotanddens/R/1_Ratio_500_L_9_R_18.png","img/900/equaldotanddens/R/11_Ratio_900_L_18_R_20.png","img/750/randomdotsizeEA/L/13_Ratio_750_L_8_R_6.png","img/750/equaldotsize/L/1_Ratio_750_L_20_R_15.png","img/250/randomdotsizeEA/L/14_Ratio_250_L_12_R_3.png","img/900/equaldotanddens/R/15_Ratio_900_L_9_R_10.png","img/250/equaldotanddens/L/2_Ratio_250_L_16_R_4.png","img/500/equaldotanddens/L/5_Ratio_500_L_4_R_2.png","img/900/equaldotanddens/L/1_Ratio_900_L_10_R_9.png","img/750/equaldotsize/R/3_Ratio_750_L_15_R_20.png","img/750/randomdotsizeEA/L/14_Ratio_750_L_8_R_6.png","img/250/equaldotanddens/R/13_Ratio_250_L_2_R_8.png","img/900/randomdotsizeEA/R/5_Ratio_900_L_9_R_10.png","img/250/equaldotsize/L/15_Ratio_250_L_12_R_3.png","img/900/equaldotsize/R/7_Ratio_900_L_9_R_10.png","img/250/equaldotsize/L/3_Ratio_250_L_8_R_2.png","img/500/randomdotsizeEA/R/9_Ratio_500_L_2_R_4.png","img/250/equaldotsize/L/1_Ratio_250_L_8_R_2.png","img/900/equaldotsize/L/4_Ratio_900_L_20_R_18.png","img/750/randomdotsizeEA/R/5_Ratio_750_L_15_R_20.png","img/900/equaldotsize/L/2_Ratio_900_L_20_R_18.png","img/250/randomdotsizeEA/L/14_Ratio_250_L_12_R_3.png","img/250/randomdotsizeEA/R/6_Ratio_250_L_6_R_24.png","img/250/equaldotanddens/R/6_Ratio_250_L_6_R_24.png","img/250/randomdotsizeEA/L/14_Ratio_250_L_12_R_3.png","img/900/randomdotsizeEA/L/10_Ratio_900_L_20_R_18.png","img/900/equaldotanddens/L/4_Ratio_900_L_20_R_18.png","img/500/equaldotsize/L/8_Ratio_500_L_8_R_4.png","img/900/randomdotsizeEA/R/5_Ratio_900_L_9_R_10.png","img/900/equaldotsize/L/2_Ratio_900_L_20_R_18.png","img/500/equaldotanddens/R/1_Ratio_500_L_9_R_18.png","img/750/equaldotanddens/L/6_Ratio_750_L_24_R_18.png","img/900/randomdotsizeEA/L/4_Ratio_900_L_20_R_18.png","img/500/randomdotsizeEA/L/5_Ratio_500_L_4_R_2.png","img/750/equaldotanddens/L/1_Ratio_750_L_20_R_15.png","img/900/randomdotsizeEA/R/6_Ratio_900_L_9_R_10.png","img/750/equaldotsize/R/15_Ratio_750_L_9_R_12.png","img/750/equaldotanddens/L/13_Ratio_750_L_8_R_6.png","img/250/randomdotsizeEA/R/8_Ratio_250_L_1_R_4.png","img/750/randomdotsizeEA/R/2_Ratio_750_L_6_R_8.png","img/500/equaldotsize/R/2_Ratio_500_L_3_R_6.png","img/250/equaldotanddens/R/9_Ratio_250_L_3_R_12.png","img/250/randomdotsizeEA/R/4_Ratio_250_L_3_R_12.png","img/900/equaldotsize/L/1_Ratio_900_L_10_R_9.png","img/250/randomdotsizeEA/L/5_Ratio_250_L_24_R_6.png","img/250/equaldotsize/R/8_Ratio_250_L_1_R_4.png","img/500/equaldotsize/R/12_Ratio_500_L_1_R_2.png","img/250/equaldotanddens/L/2_Ratio_250_L_16_R_4.png","img/500/equaldotsize/L/5_Ratio_500_L_4_R_2.png","img/900/equaldotsize/R/15_Ratio_900_L_9_R_10.png","img/900/equaldotsize/L/10_Ratio_900_L_20_R_18.png","img/500/randomdotsizeEA/R/2_Ratio_500_L_3_R_6.png","img/250/equaldotsize/R/12_Ratio_250_L_5_R_20.png","img/750/equaldotanddens/R/12_Ratio_750_L_3_R_4.png","img/250/equaldotanddens/L/1_Ratio_250_L_8_R_2.png","img/500/randomdotsizeEA/L/10_Ratio_500_L_4_R_2.png","img/900/equaldotanddens/R/7_Ratio_900_L_9_R_10.png","img/900/equaldotanddens/L/10_Ratio_900_L_20_R_18.png","img/250/equaldotsize/L/3_Ratio_250_L_8_R_2.png","img/900/equaldotanddens/R/5_Ratio_900_L_9_R_10.png","img/900/randomdotsizeEA/L/8_Ratio_900_L_20_R_18.png","img/750/equaldotsize/L/10_Ratio_750_L_4_R_3.png","img/750/randomdotsizeEA/R/2_Ratio_750_L_6_R_8.png","img/500/randomdotsizeEA/R/1_Ratio_500_L_9_R_18.png","img/250/randomdotsizeEA/R/9_Ratio_250_L_3_R_12.png","img/500/equaldotsize/L/4_Ratio_500_L_18_R_9.png","img/500/randomdotsizeEA/R/12_Ratio_500_L_1_R_2.png","img/750/equaldotsize/L/6_Ratio_750_L_24_R_18.png","img/500/equaldotsize/L/8_Ratio_500_L_8_R_4.png","img/250/randomdotsizeEA/L/14_Ratio_250_L_12_R_3.png","img/250/equaldotsize/R/12_Ratio_250_L_5_R_20.png","img/500/equaldotsize/L/11_Ratio_500_L_12_R_6.png","img/750/equaldotanddens/L/8_Ratio_750_L_4_R_3.png","img/500/equaldotanddens/R/15_Ratio_500_L_1_R_2.png","img/500/equaldotanddens/L/11_Ratio_500_L_12_R_6.png","img/750/equaldotanddens/R/12_Ratio_750_L_3_R_4.png","img/750/equaldotsize/L/14_Ratio_750_L_8_R_6.png","img/250/equaldotsize/L/7_Ratio_250_L_8_R_2.png","img/750/randomdotsizeEA/R/2_Ratio_750_L_6_R_8.png","img/500/randomdotsizeEA/L/5_Ratio_500_L_4_R_2.png","img/500/equaldotanddens/R/12_Ratio_500_L_1_R_2.png","img/750/equaldotsize/R/5_Ratio_750_L_15_R_20.png","img/900/equaldotanddens/R/13_Ratio_900_L_18_R_20.png","img/750/randomdotsizeEA/R/12_Ratio_750_L_3_R_4.png","img/250/equaldotanddens/L/14_Ratio_250_L_12_R_3.png","img/750/equaldotanddens/R/12_Ratio_750_L_3_R_4.png","img/250/equaldotanddens/R/6_Ratio_250_L_6_R_24.png","img/250/equaldotsize/L/5_Ratio_250_L_24_R_6.png","img/750/equaldotsize/L/1_Ratio_750_L_20_R_15.png","img/500/equaldotsize/R/2_Ratio_500_L_3_R_6.png","img/500/equaldotanddens/L/10_Ratio_500_L_4_R_2.png","img/250/randomdotsizeEA/L/3_Ratio_250_L_8_R_2.png","img/750/equaldotsize/R/11_Ratio_750_L_12_R_16.png","img/500/equaldotanddens/R/3_Ratio_500_L_10_R_20.png","img/250/equaldotanddens/R/11_Ratio_250_L_3_R_12.png","img/750/equaldotsize/R/3_Ratio_750_L_15_R_20.png","img/500/randomdotsizeEA/L/13_Ratio_500_L_12_R_6.png","img/750/randomdotsizeEA/R/11_Ratio_750_L_12_R_16.png","img/500/equaldotanddens/R/6_Ratio_500_L_9_R_18.png","img/750/equaldotanddens/R/7_Ratio_750_L_3_R_4.png","img/900/randomdotsizeEA/L/2_Ratio_900_L_20_R_18.png","img/900/equaldotsize/L/2_Ratio_900_L_20_R_18.png","img/900/equaldotsize/R/5_Ratio_900_L_9_R_10.png","img/900/randomdotsizeEA/L/2_Ratio_900_L_20_R_18.png","img/250/equaldotanddens/R/4_Ratio_250_L_3_R_12.png"],"Rat0":[["12_Ratio_0_L_9_R_0.png","13_Ratio_0_L_6_R_0.png","5_Ratio_0_L_2_R_0.png","6_Ratio_0_L_4_R_0.png","8_Ratio_0_L_6_R_0.png"],["1_Ratio_0_L_0_R_17.png","10_Ratio_0_L_0_R_22.png","11_Ratio_0_L_0_R_1.png","14_Ratio_0_L_0_R_24.png","15_Ratio_0_L_0_R_4.png","2_Ratio_0_L_0_R_5.png","3_Ratio_0_L_0_R_17.png","4_Ratio_0_L_0_R_7.png","7_Ratio_0_L_0_R_19.png","9_Ratio_0_L_0_R_15.png"]],"Rat250":[["1_Ratio_250_L_8_R_2.png","14_Ratio_250_L_12_R_3.png","15_Ratio_250_L_12_R_3.png","2_Ratio_250_L_16_R_4.png","3_Ratio_250_L_8_R_2.png","5_Ratio_250_L_24_R_6.png","7_Ratio_250_L_8_R_2.png"],["10_Ratio_250_L_4_R_16.png","11_Ratio_250_L_3_R_12.png","12_Ratio_250_L_5_R_20.png","13_Ratio_250_L_2_R_8.png","4_Ratio_250_L_3_R_12.png","6_Ratio_250_L_6_R_24.png","8_Ratio_250_L_1_R_4.png","9_Ratio_250_L_3_R_12.png"]],"Rat500":[["10_Ratio_500_L_4_R_2.png","11_Ratio_500_L_12_R_6.png","13_Ratio_500_L_12_R_6.png","4_Ratio_500_L_18_R_9.png","5_Ratio_500_L_4_R_2.png","7_Ratio_500_L_10_R_5.png","8_Ratio_500_L_8_R_4.png"],["1_Ratio_500_L_9_R_18.png","12_Ratio_500_L_1_R_2.png","14_Ratio_500_L_5_R_10.png","15_Ratio_500_L_1_R_2.png","2_Ratio_500_L_3_R_6.png","3_Ratio_500_L_10_R_20.png","6_Ratio_500_L_9_R_18.png","9_Ratio_500_L_2_R_4.png"]],"Rat750":[["1_Ratio_750_L_20_R_15.png","10_Ratio_750_L_4_R_3.png","13_Ratio_750_L_8_R_6.png","14_Ratio_750_L_8_R_6.png","6_Ratio_750_L_24_R_18.png","8_Ratio_750_L_4_R_3.png","9_Ratio_750_L_4_R_3.png"],["11_Ratio_750_L_12_R_16.png","12_Ratio_750_L_3_R_4.png","15_Ratio_750_L_9_R_12.png","2_Ratio_750_L_6_R_8.png","3_Ratio_750_L_15_R_20.png","4_Ratio_750_L_15_R_20.png","5_Ratio_750_L_15_R_20.png","7_Ratio_750_L_3_R_4.png"]],"Rat900":[["1_Ratio_900_L_10_R_9.png","10_Ratio_900_L_20_R_18.png","2_Ratio_900_L_20_R_18.png","4_Ratio_900_L_20_R_18.png","8_Ratio_900_L_20_R_18.png"],["11_Ratio_900_L_18_R_20.png","12_Ratio_900_L_18_R_20.png","13_Ratio_900_L_18_R_20.png","14_Ratio_900_L_18_R_20.png","15_Ratio_900_L_9_R_10.png","3_Ratio_900_L_9_R_10.png","5_Ratio_900_L_9_R_10.png","6_Ratio_900_L_9_R_10.png","7_Ratio_900_L_9_R_10.png","9_Ratio_900_L_18_R_20.png"]],"Rat1000":[["10_Ratio_1000_L_16_R_16.png","11_Ratio_1000_L_6_R_6.png","12_Ratio_1000_L_14_R_14.png","13_Ratio_1000_L_20_R_20.png","15_Ratio_1000_L_15_R_15.png","2_Ratio_1000_L_17_R_17.png","4_Ratio_1000_L_9_R_9.png","5_Ratio_1000_L_6_R_6.png","6_Ratio_1000_L_19_R_19.png","8_Ratio_1000_L_14_R_14.png","9_Ratio_1000_L_25_R_25.png"],["1_Ratio_1000_L_1_R_1.png","14_Ratio_1000_L_17_R_17.png","3_Ratio_1000_L_17_R_17.png","7_Ratio_1000_L_6_R_6.png"]]}},{"start_time":1552309259422,"click_time":1552309260645,"finger_time":1552309260324,"fix_duration":316.5650433079551,"trial":1,"RT":902,"MT":321,"sideResp":2,"stimulus":"img/900/equaldotanddens/R/11_Ratio_900_L_18_R_20.png","xmouse":[779,779,779,779,779,779,779,779,779,779,779,779,779,779,779,779,779,779,779,779,779,779,779,779,779,779,779,779,779,779,779,779,779,779,779,779,779,779,779,778,777,777,777,778,781,794,803,812,823,837,856,873,903,950,950,950,950,950,950,950,950,1107],"ymouse":[536,536,535,533,531,531,531,531,531,531,531,531,531,531,531,531,531,531,531,531,531,531,531,531,531,531,531,531,531,531,531,531,531,531,531,531,531,530,530,527,520,514,506,496,485,449,429,404,375,331,218,163,98,28,28,28,28,28,28,28,28,4],"timestamp_mouse":[4,23,44,63,83,103,123,142,162,182,202,222,244,263,283,302,322,343,363,383,404,424,443,463,483,503,522,543,563,583,603,624,643,663,683,703,723,742,764,783,803,822,842,862,883,902,924,943,963,983,1003,1023,1042,1063,1084,1103,1122,1143,1163,1182,1203,1222],"xSR":741.5,"ySR":469.95,"xT1":424.9,"yT1":0,"xT2":1058.1,"yT2":0,"toosoon":0,"cond_shown":"equaldotanddens","ratio_trial":900,"smaller_num":"18","larger_num":"20","correct_side":2,"subjID":"juandavidalfonso4","gender":"0","age":"9","school":"4"},{"start_time":1552309262476,"click_time":1552309263785,"finger_time":1552309263345,"fix_duration":250,"trial":2,"RT":869,"MT":440,"sideResp":2,"stimulus":"img/750/equaldotanddens/R/3_Ratio_750_L_15_R_20.png","xmouse":[781,781,781,781,781,781,781,781,781,781,781,781,781,781,781,781,781,781,781,781,781,781,781,781,781,781,781,781,781,781,781,781,781,781,781,781,781,781,781,783,786,790,805,864,895,922,945,964,996,1011,1023,1027,1027,1023,1023,1023,1023,1023,1029,1033,1036,1039,1042,1052,1061,1072],"ymouse":[535,535,535,535,535,535,535,535,535,535,535,535,535,535,535,535,535,535,535,535,535,535,535,535,535,535,535,535,535,535,535,535,535,535,535,535,535,528,517,507,497,488,472,436,411,390,369,353,313,287,263,245,225,210,204,201,195,188,166,155,146,140,133,123,112,99],"timestamp_mouse":[10,29,53,70,88,109,130,149,169,190,209,229,248,269,289,309,328,348,369,389,409,429,449,469,488,509,529,548,568,588,609,628,649,669,689,709,729,748,770,790,810,829,849,869,889,910,929,949,969,989,1009,1030,1049,1069,1090,1109,1129,1150,1169,1189,1209,1230,1250,1269,1289,1308],"xSR":741.5,"ySR":469.95,"xT1":424.9,"yT1":0,"xT2":1058.1,"yT2":0,"toosoon":0,"cond_shown":"equaldotanddens","ratio_trial":750,"smaller_num":"15","larger_num":"20","correct_side":2,"subjID":"juandavidalfonso4","gender":"0","age":"9","school":"4"},{"start_time":1552309266232,"click_time":1552309269024,"finger_time":1552309268505,"fix_duration":726.9781288904854,"trial":3,"RT":2273,"MT":519,"sideResp":2,"stimulus":"img/900/equaldotsize/R/6_Ratio_900_L_9_R_10.png","xmouse":[762,762,762,762,762,762,762,762,762,762,762,762,762,762,761,761,761,761,761,761,761,761,761,761,761,761,761,761,761,761,761,761,761,761,761,761,761,761,761,761,761,761,761,761,761,761,761,761,761,761,762,762,762,762,763,764,764,764,765,765,765,765,765,765,765,765,765,765,765,765,765,765,765,765,765,765,765,765,765,765,765,765,765,765,765,765,765,765,765,765,765,765,765,765,765,765,765,765,765,765,765,765,765,765,765,765,765,765,765,765,767,772,775,783,790,819,846,888,938,1022,1022,1022,1022,1022,1022,1022,1022,1022,1022,1022,1022,1022,1225,1219,1214,1196,1185,1174,1166,1156],"ymouse":[533,533,533,533,533,533,533,533,533,533,533,533,533,533,532,531,531,531,531,531,531,531,531,531,531,531,531,531,531,531,531,531,531,531,531,531,531,531,531,531,531,531,531,531,531,531,531,531,531,531,531,531,530,530,530,530,530,530,530,530,530,530,530,530,530,530,530,530,530,530,530,530,530,530,530,530,530,530,530,530,530,530,530,530,530,530,530,530,530,530,530,530,530,530,530,530,530,530,530,530,530,530,530,530,530,530,530,530,527,521,510,491,476,453,427,367,295,193,98,4,4,4,4,4,4,4,4,4,4,4,4,4,1,10,15,23,26,30,32,36],"timestamp_mouse":[14,33,53,73,92,113,134,153,174,193,213,234,253,273,293,314,333,352,373,393,413,434,453,473,493,512,532,553,573,594,612,632,654,673,692,712,734,753,773,794,813,834,853,873,894,913,933,953,973,994,1013,1033,1053,1073,1093,1114,1134,1153,1172,1193,1213,1233,1252,1273,1292,1312,1333,1352,1372,1393,1412,1432,1452,1474,1493,1512,1532,1552,1573,1593,1613,1633,1653,1673,1693,1713,1733,1753,1773,1793,1813,1833,1853,1872,1892,1913,1932,1953,1973,1993,2013,2033,2053,2073,2093,2113,2133,2152,2172,2193,2213,2233,2253,2273,2293,2313,2333,2354,2373,2392,2413,2434,2453,2472,2492,2514,2533,2553,2573,2594,2613,2633,2653,2673,2693,2713,2732,2753,2772,2792],"xSR":741.5,"ySR":469.95,"xT1":424.9,"yT1":0,"xT2":1058.1,"yT2":0,"toosoon":0,"cond_shown":"equaldotsize","ratio_trial":900,"smaller_num":"9","larger_num":"10","correct_side":2,"subjID":"juandavidalfonso4","gender":"0","age":"9","school":"4"},{"start_time":1552309271098,"click_time":1552309273586,"finger_time":1552309272665,"fix_duration":792.0534473363774,"trial":4,"RT":1567,"MT":921,"sideResp":2,"stimulus":"img/750/randomdotsizeEA/R/12_Ratio_750_L_3_R_4.png","xmouse":[806,806,806,806,806,806,806,806,806,806,806,806,806,806,806,806,806,806,806,806,806,806,806,806,806,806,806,806,806,806,806,806,806,806,806,806,806,806,806,806,806,806,806,806,806,806,806,806,806,806,806,806,806,806,806,806,806,806,806,806,806,806,806,806,806,806,806,806,806,806,806,808,809,811,811,811,811,810,806,802,797,790,782,782,782,782,785,785,785,785,785,785,785,787,788,790,793,795,795,795,795,795,795,795,795,796,799,802,808,813,818,822,824,829,835,837,852,865,895,909,926,943,964,1029,1096],"ymouse":[518,518,518,518,518,518,518,518,518,518,518,518,518,518,518,516,516,516,516,516,516,516,516,516,516,516,516,516,516,516,516,516,515,515,515,515,515,515,515,515,515,515,515,515,515,515,515,515,515,515,515,515,515,515,515,515,515,515,515,515,515,515,515,515,515,515,515,515,515,513,511,503,499,491,490,489,485,481,468,456,437,407,345,322,306,293,282,282,281,281,281,281,281,281,281,281,282,283,283,283,283,283,283,283,283,280,263,254,234,223,212,204,200,195,187,183,162,142,104,88,73,63,51,21,7],"timestamp_mouse":[7,26,51,66,86,106,126,146,166,186,206,226,246,266,287,307,328,348,368,388,407,427,446,468,487,507,527,546,568,587,608,626,647,666,686,706,726,747,767,787,807,826,846,867,886,907,926,948,967,987,1008,1027,1047,1068,1087,1107,1127,1147,1166,1187,1206,1227,1247,1267,1287,1306,1326,1347,1368,1387,1407,1427,1446,1467,1487,1507,1527,1547,1567,1587,1606,1626,1648,1667,1687,1707,1726,1746,1766,1786,1807,1827,1847,1867,1887,1907,1927,1948,1967,1988,2007,2027,2048,2067,2088,2108,2127,2147,2168,2187,2207,2226,2246,2266,2288,2307,2327,2347,2368,2386,2406,2427,2447,2467,2488],"xSR":741.5,"ySR":469.95,"xT1":424.9,"yT1":0,"xT2":1058.1,"yT2":0,"toosoon":0,"cond_shown":"randomdotsizeEA","ratio_trial":750,"smaller_num":"3","larger_num":"4","correct_side":2,"subjID":"juandavidalfonso4","gender":"0","age":"9","school":"4"},{"start_time":1552309274997,"click_time":1552309276065,"finger_time":1552309275806,"fix_duration":250,"trial":5,"RT":809,"MT":259,"sideResp":1,"stimulus":"img/500/equaldotanddens/L/4_Ratio_500_L_18_R_9.png","xmouse":[824,824,824,824,824,824,824,824,824,824,824,824,824,824,824,824,824,824,824,824,824,824,824,824,824,824,824,824,824,824,824,824,824,824,822,820,813,805,781,769,755,742,731,711,705,697,689,679,654,636,624,605,569,521],"ymouse":[525,525,525,525,525,525,525,525,525,525,525,525,525,525,525,525,525,525,525,525,525,525,525,525,525,525,525,525,525,525,525,525,525,525,525,525,519,512,487,475,460,442,426,398,387,374,357,342,301,255,214,168,88,14],"timestamp_mouse":[8,29,47,68,87,107,127,147,167,189,208,228,247,267,289,307,329,349,369,388,408,428,448,468,488,508,527,548,569,587,608,628,647,668,688,708,728,748,767,788,809,828,847,868,887,907,928,947,967,988,1008,1027,1047,1068],"xSR":741.5,"ySR":469.95,"xT1":424.9,"yT1":0,"xT2":1058.1,"yT2":0,"toosoon":0,"cond_shown":"equaldotanddens","ratio_trial":500,"smaller_num":"9","larger_num":"18","correct_side":1,"subjID":"juandavidalfonso4","gender":"0","age":"9","school":"4"},{"start_time":1552309279100,"click_time":1552309282985,"finger_time":1552309280565,"fix_duration":1433.222197434295,"trial":6,"RT":1465,"MT":2420,"sideResp":1,"stimulus":"img/900/equaldotanddens/R/7_Ratio_900_L_9_R_10.png","xmouse":[793,793,793,793,793,793,793,793,793,793,793,793,793,793,793,793,793,793,793,793,793,793,793,793,793,793,793,793,793,793,793,793,793,793,793,793,793,793,793,793,793,793,793,793,793,793,793,793,793,793,793,793,793,793,793,793,793,793,793,793,793,793,793,793,793,793,793,793,793,792,789,786,781,771,767,766,765,764,763,761,760,758,757,752,743,738,733,729,725,720,718,717,717,714,714,714,714,714,714,717,717,717,717,718,720,720,720,721,721,723,725,727,729,733,735,736,737,740,740,741,742,742,742,742,743,743,743,743,743,743,743,743,744,745,747,748,749,750,750,750,750,750,750,750,750,750,750,750,750,750,750,750,750,750,750,750,750,750,750,750,750,750,750,750,750,750,746,735,715,571,433,397,381,378,378,377,370,359,345,320,307,306,306,306,313,321,335,339,357,389,399,409,413,415,427],"ymouse":[497,497,497,497,497,497,497,497,497,497,497,497,497,497,497,497,497,497,497,497,497,497,497,497,497,497,497,497,497,497,497,497,497,497,497,497,497,497,497,497,497,497,497,497,497,497,497,497,497,497,497,497,497,497,497,497,497,497,497,497,497,497,497,497,497,497,496,495,492,487,484,479,472,458,454,452,451,451,449,443,438,432,425,406,376,358,344,327,312,282,265,250,234,196,183,171,162,156,153,145,144,142,142,140,136,136,135,133,133,128,124,121,116,109,103,100,95,88,82,73,69,67,65,63,61,61,61,61,61,61,61,61,61,61,61,62,62,62,62,62,62,62,62,62,62,62,62,62,62,62,62,62,62,62,62,62,62,62,62,62,62,62,62,62,62,62,64,65,69,89,112,121,125,127,127,129,138,148,156,167,171,172,172,172,172,163,146,141,122,98,94,92,90,90,86],"timestamp_mouse":[4,24,45,65,85,105,126,145,165,185,205,224,244,264,285,305,325,344,365,385,406,425,445,466,485,505,525,546,565,585,604,626,645,665,685,705,725,745,765,785,805,825,845,865,885,905,926,946,965,985,1005,1025,1045,1065,1085,1104,1125,1145,1165,1185,1206,1225,1245,1265,1286,1305,1325,1345,1364,1384,1405,1425,1445,1465,1485,1505,1524,1545,1565,1585,1605,1625,1644,1665,1686,1706,1726,1744,1765,1785,1805,1826,1845,1865,1885,1905,1925,1945,1965,1985,2005,2026,2046,2066,2085,2106,2125,2145,2165,2185,2205,2225,2245,2265,2285,2305,2325,2346,2366,2386,2405,2425,2445,2466,2485,2505,2525,2546,2565,2584,2605,2625,2644,2665,2684,2704,2725,2745,2765,2785,2805,2825,2845,2866,2886,2905,2924,2944,2964,2984,3004,3026,3045,3066,3085,3104,3124,3145,3165,3186,3206,3225,3246,3266,3285,3304,3325,3344,3364,3384,3405,3425,3444,3464,3484,3505,3526,3546,3566,3585,3606,3625,3645,3665,3685,3704,3726,3746,3765,3785,3805,3826,3845,3866,3885],"xSR":741.5,"ySR":469.95,"xT1":424.9,"yT1":0,"xT2":1058.1,"yT2":0,"toosoon":0,"cond_shown":"equaldotanddens","ratio_trial":900,"smaller_num":"9","larger_num":"10","correct_side":2,"subjID":"juandavidalfonso4","gender":"0","age":"9","school":"4"},{"start_time":1552309286066,"click_time":1552309287505,"finger_time":1552309287045,"fix_duration":500.56676516174434,"trial":7,"RT":979,"MT":460,"sideResp":2,"stimulus":"img/500/randomdotsizeEA/R/9_Ratio_500_L_2_R_4.png","xmouse":[806,806,806,806,806,806,806,806,806,806,806,806,806,806,806,806,806,806,806,806,806,806,806,806,806,806,806,806,806,806,806,806,806,806,806,806,806,806,806,806,806,806,806,808,811,813,813,813,813,810,803,801,796,794,787,773,772,775,788,809,882,904,907,913,916,919,953,981,1006,1029,1053,1069],"ymouse":[517,517,517,517,517,517,517,517,517,517,517,517,517,517,517,517,517,517,517,517,517,517,517,517,517,517,517,517,517,517,517,517,517,517,517,517,517,517,517,517,517,517,506,500,496,486,480,473,468,461,443,435,426,416,396,329,297,269,231,187,87,72,71,68,66,65,60,60,61,66,75,78],"timestamp_mouse":[19,39,60,79,99,119,139,159,179,199,219,240,260,279,300,319,339,359,380,398,418,438,460,479,500,519,539,559,579,600,619,640,659,679,699,720,739,760,780,799,820,839,859,880,898,919,939,960,979,999,1019,1039,1059,1078,1098,1119,1139,1160,1179,1200,1219,1239,1259,1278,1298,1319,1340,1360,1380,1399,1419,1439],"xSR":741.5,"ySR":469.95,"xT1":424.9,"yT1":0,"xT2":1058.1,"yT2":0,"toosoon":0,"cond_shown":"randomdotsizeEA","ratio_trial":500,"smaller_num":"2","larger_num":"4","correct_side":2,"subjID":"juandavidalfonso4","gender":"0","age":"9","school":"4"},{"start_time":1552309289388,"click_time":1552309291005,"finger_time":1552309290484,"fix_duration":941.6896855094329,"trial":8,"RT":1096,"MT":521,"sideResp":2,"stimulus":"img/900/randomdotsizeEA/L/8_Ratio_900_L_20_R_18.png","xmouse":[810,810,809,808,807,805,804,803,803,802,801,801,800,798,797,797,797,797,797,797,797,797,797,797,797,797,797,797,797,797,797,797,797,797,797,797,797,797,797,797,797,797,797,797,797,800,800,802,802,802,804,805,805,805,806,807,808,809,810,811,814,815,815,815,816,816,816,819,825,829,843,855,882,902,924,964,986,1001,1016,1032,1064],"ymouse":[528,528,528,528,528,528,528,528,528,528,528,528,528,527,527,527,527,527,527,527,527,527,527,527,527,527,527,527,527,527,527,527,527,527,527,527,527,527,527,527,527,527,527,526,522,513,508,505,502,498,490,482,476,470,464,452,446,440,432,423,404,397,392,392,390,366,342,317,297,282,252,234,200,176,152,109,94,86,80,76,73],"timestamp_mouse":[18,37,57,78,97,117,136,158,177,197,218,238,257,277,296,316,336,357,376,396,416,437,457,477,496,517,536,557,578,597,617,637,658,678,696,718,738,756,777,797,817,837,858,877,897,917,937,957,976,997,1016,1036,1058,1076,1096,1116,1138,1157,1177,1198,1218,1238,1257,1277,1298,1317,1337,1357,1376,1398,1416,1437,1456,1477,1496,1516,1537,1556,1577,1598,1617],"xSR":741.5,"ySR":469.95,"xT1":424.9,"yT1":0,"xT2":1058.1,"yT2":0,"toosoon":0,"cond_shown":"randomdotsizeEA","ratio_trial":900,"smaller_num":"18","larger_num":"20","correct_side":1,"subjID":"juandavidalfonso4","gender":"0","age":"9","school":"4"},{"start_time":1552309293529,"click_time":1552309294905,"finger_time":1552309294586,"fix_duration":1383.811551575807,"trial":9,"RT":1057,"MT":319,"sideResp":2,"stimulus":"img/500/randomdotsizeEA/R/3_Ratio_500_L_10_R_20.png","xmouse":[795,795,795,795,795,795,795,795,795,795,796,796,797,797,798,800,801,802,803,803,803,803,803,803,803,803,803,803,803,803,803,803,803,803,803,803,803,803,803,803,803,803,803,803,803,803,802,800,798,797,794,794,791,790,790,790,790,790,796,806,820,833,850,904,932,958,986,1012,1065],"ymouse":[524,524,524,524,524,524,524,524,524,522,522,521,520,517,514,509,504,500,495,495,495,495,495,495,495,495,495,495,495,495,495,495,495,495,495,495,495,495,495,495,495,495,495,495,495,495,493,492,484,480,474,471,442,412,389,373,359,349,327,306,285,265,243,181,148,119,90,69,32],"timestamp_mouse":[18,35,55,76,96,115,136,155,177,195,216,236,256,275,296,316,335,356,377,397,417,436,456,475,497,517,535,555,575,596,616,635,656,675,696,715,735,755,775,797,816,836,856,877,896,916,935,955,976,996,1016,1036,1057,1076,1096,1116,1136,1157,1176,1195,1216,1235,1256,1276,1296,1316,1335,1355,1376],"xSR":741.5,"ySR":469.95,"xT1":424.9,"yT1":0,"xT2":1058.1,"yT2":0,"toosoon":0,"cond_shown":"randomdotsizeEA","ratio_trial":500,"smaller_num":"10","larger_num":"20","correct_side":2,"subjID":"juandavidalfonso4","gender":"0","age":"9","school":"4"},{"start_time":1552309296887,"click_time":1552309298224,"finger_time":1552309297805,"fix_duration":761.7367757091497,"trial":10,"RT":918,"MT":419,"sideResp":2,"stimulus":"img/750/equaldotanddens/R/4_Ratio_750_L_15_R_20.png","xmouse":[784,784,784,784,784,784,784,784,784,784,784,784,784,784,784,784,784,784,784,784,784,784,784,784,784,784,784,784,784,784,784,784,784,784,784,784,784,784,784,784,784,785,786,786,786,784,781,781,781,786,805,810,817,823,830,854,867,879,893,912,930,963,978,991,1011,1029,1070],"ymouse":[506,506,506,506,506,506,506,506,506,506,506,506,506,506,506,506,506,506,506,506,506,506,506,506,506,506,506,506,506,506,506,506,506,506,506,506,506,506,506,506,506,506,504,497,478,462,413,380,315,263,208,198,188,183,179,169,162,153,145,135,126,113,108,103,89,77,52],"timestamp_mouse":[18,38,57,78,98,119,138,158,177,197,217,238,258,279,298,318,337,357,377,397,418,437,457,477,497,517,538,557,578,598,617,637,659,677,698,718,738,758,778,798,817,837,858,877,897,918,939,958,978,999,1019,1038,1058,1079,1098,1118,1138,1158,1178,1198,1217,1238,1258,1278,1297,1317,1337],"xSR":741.5,"ySR":469.95,"xT1":424.9,"yT1":0,"xT2":1058.1,"yT2":0,"toosoon":0,"cond_shown":"equaldotanddens","ratio_trial":750,"smaller_num":"15","larger_num":"20","correct_side":2,"subjID":"juandavidalfonso4","gender":"0","age":"9","school":"4"},{"start_time":1552309301919,"click_time":1552309303064,"finger_time":1552309302704,"fix_duration":394.4597255707689,"trial":11,"RT":785,"MT":360,"sideResp":1,"stimulus":"img/500/equaldotsize/L/10_Ratio_500_L_4_R_2.png","xmouse":[809,809,809,809,809,808,808,807,807,807,807,807,807,807,807,807,807,807,807,807,807,807,807,807,807,807,807,807,807,807,807,807,807,807,807,807,801,796,784,774,762,726,708,687,674,647,635,624,615,606,591,578,576,571,563,543,533,520],"ymouse":[516,516,516,514,512,508,507,506,506,506,506,506,506,506,506,506,506,506,506,506,506,506,506,506,506,506,506,506,506,506,506,506,506,506,506,506,498,490,478,466,448,380,344,300,282,237,215,199,182,168,139,122,119,114,111,103,99,89],"timestamp_mouse":[5,26,47,66,86,105,125,146,166,185,205,225,245,266,286,306,327,345,366,386,406,425,446,466,485,507,526,546,565,585,605,626,645,666,685,705,726,745,765,785,805,825,846,866,886,905,926,946,966,986,1006,1025,1045,1066,1085,1106,1126,1145],"xSR":741.5,"ySR":469.95,"xT1":424.9,"yT1":0,"xT2":1058.1,"yT2":0,"toosoon":0,"cond_shown":"equaldotsize","ratio_trial":500,"smaller_num":"2","larger_num":"4","correct_side":1,"subjID":"juandavidalfonso4","gender":"0","age":"9","school":"4"},{"start_time":1552309314913,"click_time":1552309316785,"finger_time":1552309315705,"fix_duration":788.6645185130222,"trial":12,"RT":792,"MT":1080,"sideResp":2,"stimulus":"img/900/randomdotsizeEA/L/4_Ratio_900_L_20_R_18.png","xmouse":[797,797,797,797,797,797,797,797,797,797,797,797,797,797,797,797,797,797,797,797,797,797,797,797,797,797,797,797,797,797,797,797,797,795,794,790,777,770,763,758,755,753,752,752,752,752,753,753,754,754,761,770,795,805,814,831,844,871,891,918,953,1002,1062,1062,1062,1062,1062,1062,1062,1062,1062,1062,1062,1538,1533,1526,1518,1490,1471,1451,1431,1413,1374,1354,1319,1293,1266,1230,1219,1213,1207,1199,1175,1149],"ymouse":[548,548,548,548,548,548,548,548,548,548,548,548,548,548,548,548,548,548,548,548,548,548,548,548,548,548,548,548,548,548,548,548,547,546,542,527,506,493,476,464,446,424,382,366,357,349,346,346,346,346,345,340,327,322,314,297,281,240,212,174,122,65,0,0,0,0,0,0,0,0,0,0,0,0,12,20,24,34,38,41,42,42,42,42,38,34,29,28,28,28,31,37,54,65],"timestamp_mouse":[12,31,52,72,93,112,132,151,173,192,211,231,251,271,292,312,333,351,372,392,411,432,451,471,492,512,532,552,572,592,612,632,651,671,692,711,732,752,771,792,811,832,852,872,893,911,932,953,972,993,1012,1033,1052,1071,1092,1111,1132,1151,1173,1191,1211,1232,1253,1272,1292,1312,1333,1351,1373,1392,1412,1432,1451,1472,1492,1512,1532,1552,1571,1593,1613,1633,1652,1672,1691,1711,1731,1751,1771,1791,1811,1831,1851,1872],"xSR":741.5,"ySR":469.95,"xT1":424.9,"yT1":0,"xT2":1058.1,"yT2":0,"toosoon":0,"cond_shown":"randomdotsizeEA","ratio_trial":900,"smaller_num":"18","larger_num":"20","correct_side":1,"subjID":"juandavidalfonso4","gender":"0","age":"9","school":"4"},{"start_time":1552309318237,"click_time":1552309319564,"finger_time":1552309319125,"fix_duration":391.2768115156995,"trial":13,"RT":888,"MT":439,"sideResp":1,"stimulus":"img/250/equaldotsize/L/3_Ratio_250_L_8_R_2.png","xmouse":[761,763,763,764,765,767,768,768,769,769,769,769,769,769,769,769,769,769,769,769,769,769,769,769,769,769,769,769,769,769,769,769,769,769,769,769,769,769,770,770,770,769,769,772,774,774,775,775,773,768,766,764,764,762,757,751,732,715,702,686,673,645,625,602,570,538,505],"ymouse":[530,530,530,530,530,530,530,530,530,530,530,530,530,530,530,530,530,530,530,530,530,530,530,530,530,530,530,530,530,530,530,530,530,530,530,530,530,530,530,528,522,505,488,471,453,433,398,377,365,354,348,340,333,321,310,294,261,238,220,200,184,142,113,91,71,53,39],"timestamp_mouse":[7,27,47,67,87,107,129,148,168,188,209,227,248,267,289,308,328,349,368,388,408,428,448,469,488,507,527,548,568,588,609,627,647,667,687,708,728,748,769,788,809,828,849,868,888,907,927,949,968,988,1008,1027,1049,1068,1088,1109,1127,1148,1169,1188,1208,1227,1247,1267,1287,1307,1327],"xSR":741.5,"ySR":469.95,"xT1":424.9,"yT1":0,"xT2":1058.1,"yT2":0,"toosoon":0,"cond_shown":"equaldotsize","ratio_trial":250,"smaller_num":"2","larger_num":"8","correct_side":1,"subjID":"juandavidalfonso4","gender":"0","age":"9","school":"4"},{"start_time":1552309321980,"click_time":1552309324284,"finger_time":1552309322924,"fix_duration":1274.9982684241097,"trial":14,"RT":944,"MT":1360,"sideResp":1,"stimulus":"img/750/randomdotsizeEA/L/9_Ratio_750_L_4_R_3.png","xmouse":[792,792,792,792,792,792,792,792,792,792,792,792,792,792,792,792,792,792,792,792,792,792,792,792,792,792,792,792,792,792,792,792,792,792,792,792,792,792,792,792,792,792,792,792,792,790,787,783,781,774,773,771,771,770,770,770,770,770,770,770,770,770,770,770,770,770,771,772,772,775,775,775,777,777,778,779,779,779,779,781,781,782,782,782,783,784,784,786,787,790,791,792,793,793,794,796,796,798,803,808,819,824,827,830,832,830,827,822,817,796,777,757,731,700,635,457],"ymouse":[510,510,510,510,510,510,510,510,510,510,510,510,510,510,510,510,510,510,510,510,510,510,510,510,510,510,510,510,510,510,510,510,510,510,510,510,510,510,510,510,510,510,510,510,510,498,477,457,438,401,390,379,370,364,355,355,353,351,350,345,344,343,341,340,337,333,329,323,316,300,297,292,288,285,282,279,278,278,278,274,272,271,270,269,266,264,262,257,251,239,234,228,222,217,212,203,199,194,185,177,162,152,141,131,114,108,101,94,91,87,84,84,84,84,84,92],"timestamp_mouse":[4,26,45,64,84,104,124,145,164,184,205,225,244,264,285,305,324,345,365,384,405,425,444,464,485,504,524,544,564,584,604,624,645,664,684,704,725,744,766,785,804,825,844,865,885,905,925,944,965,985,1005,1024,1045,1066,1085,1105,1125,1145,1165,1185,1205,1225,1245,1265,1285,1305,1325,1345,1365,1385,1405,1426,1445,1465,1485,1505,1526,1545,1565,1586,1606,1625,1646,1665,1685,1706,1725,1745,1765,1786,1804,1825,1844,1864,1884,1904,1924,1944,1964,1984,2004,2024,2044,2064,2086,2105,2124,2144,2164,2186,2204,2224,2244,2265,2285,2304],"xSR":741.5,"ySR":469.95,"xT1":424.9,"yT1":0,"xT2":1058.1,"yT2":0,"toosoon":0,"cond_shown":"randomdotsizeEA","ratio_trial":750,"smaller_num":"3","larger_num":"4","correct_side":1,"subjID":"juandavidalfonso4","gender":"0","age":"9","school":"4"},{"start_time":1552309328084,"click_time":1552309329105,"finger_time":1552309328785,"fix_duration":578.591874610825,"trial":15,"RT":701,"MT":320,"sideResp":2,"stimulus":"img/500/equaldotanddens/R/1_Ratio_500_L_9_R_18.png","xmouse":[802,802,802,802,802,802,802,802,802,802,802,802,802,802,802,802,802,802,802,802,802,802,802,802,802,802,802,802,802,802,802,802,802,802,802,801,801,801,803,806,816,821,824,828,831,836,841,848,861,890,1047,1098],"ymouse":[487,487,487,487,487,487,487,487,487,487,487,487,487,487,487,487,487,487,487,487,487,487,487,487,487,487,487,487,487,487,487,487,487,487,487,468,466,447,431,417,382,366,357,348,342,331,325,315,298,265,123,77],"timestamp_mouse":[4,21,42,61,81,101,121,141,161,181,201,221,241,261,282,301,321,340,361,380,400,421,441,462,481,501,521,541,561,581,601,622,641,661,682,701,721,740,760,781,800,821,840,861,881,901,922,941,961,982,1001,1021],"xSR":741.5,"ySR":469.95,"xT1":424.9,"yT1":0,"xT2":1058.1,"yT2":0,"toosoon":0,"cond_shown":"equaldotanddens","ratio_trial":500,"smaller_num":"9","larger_num":"18","correct_side":2,"subjID":"juandavidalfonso4","gender":"0","age":"9","school":"4"},{"start_time":1552309330336,"click_time":1552309331544,"finger_time":1552309331164,"fix_duration":250,"trial":16,"RT":828,"MT":380,"sideResp":2,"stimulus":"img/900/equaldotanddens/R/11_Ratio_900_L_18_R_20.png","xmouse":[795,795,795,795,795,795,795,795,795,795,795,795,795,795,795,795,795,795,795,795,795,795,795,795,795,795,795,795,795,795,795,795,795,795,795,795,795,795,795,795,796,798,802,828,840,847,853,862,864,868,876,883,890,902,909,915,924,958,977,1013,1066],"ymouse":[503,503,503,503,503,503,503,503,503,503,503,503,503,503,503,503,503,503,503,503,503,503,503,503,503,503,503,503,503,503,503,503,503,503,503,503,503,503,498,487,471,451,420,323,279,247,226,193,183,175,166,155,147,136,134,132,130,123,113,92,62],"timestamp_mouse":[9,29,50,69,90,109,129,149,169,190,209,230,249,270,289,308,329,349,369,389,409,428,448,470,489,509,528,549,569,588,610,629,649,669,689,708,728,748,770,788,809,828,849,870,890,908,928,949,969,988,1008,1029,1049,1069,1089,1109,1128,1150,1169,1190,1208],"xSR":741.5,"ySR":469.95,"xT1":424.9,"yT1":0,"xT2":1058.1,"yT2":0,"toosoon":0,"cond_shown":"equaldotanddens","ratio_trial":900,"smaller_num":"18","larger_num":"20","correct_side":2,"subjID":"juandavidalfonso4","gender":"0","age":"9","school":"4"},{"start_time":1552309333307,"click_time":1552309335086,"finger_time":1552309334004,"fix_duration":1082.2534232359349,"trial":17,"RT":697,"MT":1082,"sideResp":1,"stimulus":"img/750/randomdotsizeEA/L/13_Ratio_750_L_8_R_6.png","xmouse":[773,774,775,775,775,775,775,775,775,775,775,775,775,775,775,775,775,775,775,775,775,775,775,775,775,775,775,775,775,775,775,774,772,770,767,766,761,759,756,749,746,742,738,733,726,723,719,713,705,689,682,673,660,643,581,540,451,451,451,451,451,297,279,263,239,230,226,225,225,232,237,240,244,247,253,258,265,273,287,317,332,351,364,373,387,394,406,420,431],"ymouse":[524,524,524,524,524,524,524,524,524,524,524,524,524,524,524,524,524,524,524,524,524,524,524,524,524,524,524,524,524,524,521,515,495,474,441,413,373,348,325,286,270,255,241,226,201,190,179,156,139,114,107,99,90,80,54,33,0,0,0,0,0,30,54,79,122,141,164,178,188,210,216,220,224,225,226,226,221,215,205,180,170,159,148,141,129,121,108,98,89],"timestamp_mouse":[17,37,57,78,97,118,138,157,178,197,218,238,258,277,297,318,337,357,377,397,418,437,457,477,497,519,538,558,579,598,618,637,657,678,697,717,737,757,778,797,818,838,858,878,899,918,938,958,978,998,1018,1038,1057,1078,1097,1117,1137,1157,1177,1197,1217,1238,1258,1279,1298,1318,1337,1358,1377,1397,1417,1437,1457,1477,1497,1518,1537,1557,1577,1597,1617,1637,1658,1677,1697,1718,1738,1757,1779],"xSR":741.5,"ySR":469.95,"xT1":424.9,"yT1":0,"xT2":1058.1,"yT2":0,"toosoon":0,"cond_shown":"randomdotsizeEA","ratio_trial":750,"smaller_num":"6","larger_num":"8","correct_side":1,"subjID":"juandavidalfonso4","gender":"0","age":"9","school":"4"},{"start_time":1552309336397,"click_time":1552309337664,"finger_time":1552309337245,"fix_duration":409.24304132761125,"trial":18,"RT":848,"MT":419,"sideResp":1,"stimulus":"img/750/equaldotsize/L/1_Ratio_750_L_20_R_15.png","xmouse":[800,800,800,800,800,800,800,800,800,800,800,800,800,800,800,800,800,800,800,800,800,800,800,800,800,800,800,800,800,800,800,800,800,800,800,800,800,800,800,800,798,795,793,790,787,781,777,772,769,765,753,742,730,711,685,621,607,607,607,607,607,607,607,473],"ymouse":[527,527,527,527,527,527,527,527,527,527,527,527,527,527,527,527,527,527,527,527,527,527,527,527,527,527,527,527,527,527,527,527,527,527,527,527,527,527,523,519,500,478,457,434,413,378,362,346,329,312,267,241,211,168,118,25,10,10,10,10,10,10,10,32],"timestamp_mouse":[8,27,48,68,88,107,128,148,168,188,207,228,247,267,287,308,328,347,368,389,408,428,448,468,487,508,527,547,567,587,607,627,647,667,687,707,727,747,767,788,807,827,848,869,887,907,927,948,969,988,1007,1028,1048,1068,1088,1107,1128,1148,1167,1188,1207,1227,1248,1267],"xSR":741.5,"ySR":469.95,"xT1":424.9,"yT1":0,"xT2":1058.1,"yT2":0,"toosoon":0,"cond_shown":"equaldotsize","ratio_trial":750,"smaller_num":"15","larger_num":"20","correct_side":1,"subjID":"juandavidalfonso4","gender":"0","age":"9","school":"4"},{"start_time":1552309340296,"click_time":1552309341385,"finger_time":1552309341104,"fix_duration":250,"trial":19,"RT":808,"MT":281,"sideResp":1,"stimulus":"img/250/randomdotsizeEA/L/14_Ratio_250_L_12_R_3.png","xmouse":[782,782,782,782,782,782,782,782,782,782,782,782,782,782,782,782,782,782,782,782,782,782,782,782,782,782,782,782,782,782,782,782,782,782,782,782,782,790,791,796,796,779,755,731,705,691,676,671,664,655,643,606,575,547,509],"ymouse":[522,522,522,522,522,522,522,522,522,522,522,522,522,522,522,522,522,522,522,522,522,522,522,522,522,522,522,522,522,522,522,522,522,522,522,522,522,507,504,484,459,382,330,287,252,238,228,225,221,214,202,155,120,88,51],"timestamp_mouse":[9,28,48,68,89,110,129,149,169,188,208,228,248,269,288,309,328,348,370,389,410,430,449,469,489,510,528,548,569,589,609,630,650,669,689,709,729,749,768,788,808,829,848,868,889,909,928,948,968,988,1009,1028,1048,1068,1089],"xSR":741.5,"ySR":469.95,"xT1":424.9,"yT1":0,"xT2":1058.1,"yT2":0,"toosoon":0,"cond_shown":"randomdotsizeEA","ratio_trial":250,"smaller_num":"3","larger_num":"12","correct_side":1,"subjID":"juandavidalfonso4","gender":"0","age":"9","school":"4"},{"start_time":1552309343467,"click_time":1552309345064,"finger_time":1552309344165,"fix_duration":722.5115466771205,"trial":20,"RT":698,"MT":899,"sideResp":2,"stimulus":"img/900/equaldotanddens/R/15_Ratio_900_L_9_R_10.png","xmouse":[789,789,789,789,789,789,789,789,789,789,789,789,789,789,789,789,789,789,789,789,789,789,789,789,789,789,789,789,789,787,787,787,783,780,780,780,786,809,816,818,823,826,827,829,834,839,847,868,882,897,914,928,957,981,1001,1026,1064,1161,1197,1223,1242,1256,1259,1259,1261,1261,1263,1266,1266,1266,1266,1265,1255,1235,1222,1208,1197,1180,1170,1155],"ymouse":[526,526,525,525,524,524,524,523,523,523,522,522,522,522,522,522,522,522,522,522,522,522,522,522,522,522,522,522,522,522,521,519,502,479,461,437,407,344,315,304,279,261,258,257,256,254,251,239,231,223,214,208,195,180,167,153,136,95,83,75,72,71,71,71,73,73,83,105,107,107,107,107,106,90,79,66,59,51,48,46],"timestamp_mouse":[18,37,58,79,98,117,137,157,178,198,218,239,257,277,298,319,339,358,377,397,417,437,458,477,497,517,538,558,579,598,618,637,657,677,698,718,738,757,777,798,817,839,859,877,898,918,938,958,977,997,1017,1037,1058,1078,1098,1117,1137,1158,1179,1199,1218,1238,1258,1279,1298,1318,1339,1358,1377,1398,1417,1437,1457,1478,1497,1518,1537,1558,1577,1597],"xSR":741.5,"ySR":469.95,"xT1":424.9,"yT1":0,"xT2":1058.1,"yT2":0,"toosoon":0,"cond_shown":"equaldotanddens","ratio_trial":900,"smaller_num":"9","larger_num":"10","correct_side":2,"subjID":"juandavidalfonso4","gender":"0","age":"9","school":"4"},{"start_time":1552309346453,"click_time":1552309347585,"finger_time":1552309347084,"fix_duration":527.2231672085684,"trial":21,"RT":631,"MT":501,"sideResp":1,"stimulus":"img/250/equaldotanddens/L/2_Ratio_250_L_16_R_4.png","xmouse":[772,772,772,772,772,772,772,772,772,772,773,773,773,774,774,774,774,774,774,774,774,774,774,774,774,774,774,774,775,778,781,782,782,775,769,765,761,758,748,745,743,740,739,739,737,731,726,717,695,681,664,646,628,571,546,527,512],"ymouse":[527,527,527,527,527,527,527,527,527,527,527,527,527,527,527,527,527,527,527,527,527,527,527,527,527,527,527,527,524,509,486,461,426,321,283,253,231,211,178,175,173,169,167,166,166,164,161,158,145,135,123,108,89,42,27,19,15],"timestamp_mouse":[13,32,52,73,93,112,132,153,172,191,211,232,252,272,292,311,332,351,372,392,411,433,451,471,491,511,531,551,572,592,612,631,651,671,692,713,732,752,771,793,812,833,852,873,892,913,932,952,972,992,1012,1032,1053,1071,1092,1112,1132],"xSR":741.5,"ySR":469.95,"xT1":424.9,"yT1":0,"xT2":1058.1,"yT2":0,"toosoon":0,"cond_shown":"equaldotanddens","ratio_trial":250,"smaller_num":"4","larger_num":"16","correct_side":1,"subjID":"juandavidalfonso4","gender":"0","age":"9","school":"4"},{"start_time":1552309350126,"click_time":1552309351345,"finger_time":1552309351086,"fix_duration":1400.9946233267162,"trial":22,"RT":960,"MT":259,"sideResp":1,"stimulus":"img/500/equaldotanddens/L/5_Ratio_500_L_4_R_2.png","xmouse":[784,784,784,784,784,784,784,784,784,784,784,784,784,784,784,784,784,784,784,784,784,784,784,784,784,784,784,784,784,784,784,784,784,783,782,778,777,776,776,776,776,776,776,776,773,770,769,764,762,759,749,742,733,722,710,665,639,599,575,534,521],"ymouse":[512,512,512,512,512,512,512,512,512,512,512,512,512,512,512,512,512,512,512,512,512,512,512,512,512,512,512,512,512,512,512,512,512,512,509,501,497,495,495,495,495,495,491,490,482,477,470,455,444,425,376,345,321,280,244,160,124,82,67,54,50],"timestamp_mouse":[18,39,59,79,100,119,138,158,179,198,219,238,259,278,299,318,338,359,379,398,418,438,458,478,500,519,539,559,578,599,620,638,658,679,699,720,738,760,780,800,818,838,858,878,899,918,939,960,979,998,1019,1039,1058,1078,1099,1120,1139,1159,1179,1200,1219],"xSR":741.5,"ySR":469.95,"xT1":424.9,"yT1":0,"xT2":1058.1,"yT2":0,"toosoon":0,"cond_shown":"equaldotanddens","ratio_trial":500,"smaller_num":"2","larger_num":"4","correct_side":1,"subjID":"juandavidalfonso4","gender":"0","age":"9","school":"4"},{"start_time":1552309356300,"click_time":1552309358545,"finger_time":1552309357124,"fix_duration":395.7468793385861,"trial":23,"RT":824,"MT":1421,"sideResp":2,"stimulus":"img/900/equaldotanddens/L/1_Ratio_900_L_10_R_9.png","xmouse":[770,770,770,770,770,770,770,770,770,770,770,770,770,770,770,770,770,770,770,770,770,770,770,770,770,770,770,770,770,770,770,770,770,770,770,770,770,770,770,769,769,769,770,774,779,784,794,822,833,847,860,874,890,934,950,966,983,1004,1011,1014,1014,1014,1028,1068,1115,1167,1213,1270,1272,1272,1272,1272,1272,1272,1272,1267,1258,1205,1187,1171,1163,1157,1157,1157,1157,1157,1155,1104,1024,924,829,744,652,483,445,432,432,433,489,568,657,742,822,885,896,903,915,943,997,1021,1039,1054,1060],"ymouse":[494,494,494,494,494,494,494,494,494,494,494,494,494,494,494,494,494,494,494,494,494,494,494,494,494,494,494,494,494,494,494,494,494,494,494,494,494,494,494,488,478,466,445,434,420,403,386,338,318,298,275,255,234,181,158,137,105,71,61,58,58,58,71,122,175,212,232,245,245,245,245,245,244,240,237,232,224,176,160,146,137,133,133,133,133,133,133,133,127,127,127,145,168,196,201,205,205,205,191,169,144,126,111,97,92,88,82,68,52,45,39,33,30],"timestamp_mouse":[4,25,44,64,84,104,124,144,164,184,204,225,244,264,284,305,324,345,364,385,405,425,444,464,485,504,525,544,564,584,604,624,644,664,684,704,724,744,764,784,804,824,845,864,884,904,925,944,964,984,1004,1025,1044,1065,1084,1105,1124,1145,1165,1184,1204,1224,1245,1265,1284,1305,1324,1345,1365,1384,1404,1424,1445,1465,1485,1504,1524,1545,1565,1585,1604,1624,1645,1664,1685,1704,1725,1745,1766,1786,1806,1825,1844,1864,1884,1904,1924,1944,1964,1985,2004,2024,2044,2065,2084,2104,2124,2145,2165,2184,2204,2224,2245],"xSR":741.5,"ySR":469.95,"xT1":424.9,"yT1":0,"xT2":1058.1,"yT2":0,"toosoon":0,"cond_shown":"equaldotanddens","ratio_trial":900,"smaller_num":"9","larger_num":"10","correct_side":1,"subjID":"juandavidalfonso4","gender":"0","age":"9","school":"4"},{"start_time":1552309360016,"click_time":1552309361124,"finger_time":1552309360765,"fix_duration":250,"trial":24,"RT":749,"MT":359,"sideResp":2,"stimulus":"img/750/equaldotsize/R/3_Ratio_750_L_15_R_20.png","xmouse":[779,779,779,779,779,780,785,794,795,795,795,795,795,795,795,795,795,795,795,795,795,795,795,795,795,795,795,793,792,791,790,789,784,779,774,767,760,748,748,748,754,764,797,811,823,833,841,853,860,887,927,976,1030,1040,1051,1061],"ymouse":[534,534,534,534,534,534,530,526,526,526,526,526,526,526,526,526,526,526,526,526,526,526,526,526,526,525,525,524,523,523,523,522,520,518,514,508,496,467,453,434,396,362,291,263,236,212,194,165,149,117,95,80,64,61,57,53],"timestamp_mouse":[9,30,49,69,90,109,130,149,168,188,209,228,249,268,288,308,328,348,368,388,408,428,448,469,489,509,528,548,569,588,608,628,648,668,688,708,729,749,769,788,808,828,848,868,889,908,929,949,968,988,1009,1028,1048,1068,1088,1108],"xSR":741.5,"ySR":469.95,"xT1":424.9,"yT1":0,"xT2":1058.1,"yT2":0,"toosoon":0,"cond_shown":"equaldotsize","ratio_trial":750,"smaller_num":"15","larger_num":"20","correct_side":2,"subjID":"juandavidalfonso4","gender":"0","age":"9","school":"4"},{"start_time":1552309362530,"click_time":1552309364344,"finger_time":1552309363265,"fix_duration":264.0875244611706,"trial":25,"RT":735,"MT":1079,"sideResp":1,"stimulus":"img/750/randomdotsizeEA/L/14_Ratio_750_L_8_R_6.png","xmouse":[790,790,790,790,790,790,790,790,790,790,790,790,790,790,790,790,790,790,790,790,790,790,790,790,790,790,790,790,790,790,790,790,788,783,774,767,761,760,759,759,757,756,755,755,755,755,755,755,755,755,755,755,754,753,753,752,751,749,748,747,747,747,747,747,747,747,747,747,747,747,747,747,747,748,750,751,751,748,747,742,736,725,718,713,707,699,670,645,603,548,491],"ymouse":[510,510,510,510,510,510,510,510,510,510,510,510,510,510,510,510,510,510,510,510,510,510,510,510,510,510,510,510,510,510,510,510,505,496,483,471,458,451,446,441,434,422,420,418,417,417,417,417,417,417,417,416,416,415,415,413,410,405,404,402,402,402,402,402,402,400,397,395,394,392,391,388,387,383,377,368,350,341,335,325,310,275,260,247,232,215,166,139,106,80,55],"timestamp_mouse":[14,36,56,75,95,115,134,154,174,194,214,234,255,274,294,315,334,354,375,394,414,434,454,474,494,514,534,554,574,594,614,634,654,675,695,714,735,754,774,794,815,834,855,874,895,914,934,954,975,995,1015,1034,1054,1075,1094,1114,1134,1155,1174,1194,1214,1234,1254,1275,1295,1314,1334,1355,1375,1394,1414,1434,1455,1474,1494,1515,1534,1554,1574,1594,1614,1634,1655,1675,1695,1714,1735,1754,1775,1794,1814],"xSR":741.5,"ySR":469.95,"xT1":424.9,"yT1":0,"xT2":1058.1,"yT2":0,"toosoon":0,"cond_shown":"randomdotsizeEA","ratio_trial":750,"smaller_num":"6","larger_num":"8","correct_side":1,"subjID":"juandavidalfonso4","gender":"0","age":"9","school":"4"},{"start_time":1552309365615,"click_time":1552309367384,"finger_time":1552309366564,"fix_duration":250,"trial":26,"RT":949,"MT":820,"sideResp":2,"stimulus":"img/250/equaldotanddens/R/13_Ratio_250_L_2_R_8.png","xmouse":[802,800,796,794,792,792,792,791,790,787,785,785,783,783,783,783,783,783,783,783,783,783,783,783,783,783,783,783,783,783,783,783,783,783,783,783,783,783,783,783,783,783,783,783,783,783,783,784,787,794,801,806,811,813,808,800,794,794,798,806,815,819,833,844,856,860,862,865,866,870,873,880,898,907,915,923,931,932,933,937,949,958,971,976,987,1002,1024,1056,1076],"ymouse":[501,501,501,501,502,502,502,503,504,505,506,507,508,508,508,508,508,508,508,508,508,508,508,508,508,508,508,508,508,508,508,508,508,508,508,508,508,508,508,508,508,508,508,508,508,499,480,442,419,397,379,365,354,323,304,286,256,217,195,177,162,157,139,124,113,109,109,109,109,109,111,113,115,112,109,104,100,100,100,95,89,87,86,86,87,89,89,89,86],"timestamp_mouse":[9,29,49,70,89,110,129,149,169,189,209,230,250,269,289,310,329,349,369,390,409,429,449,469,489,509,529,549,569,589,609,631,650,669,689,709,729,750,769,789,810,830,849,869,890,909,929,949,970,990,1010,1030,1050,1070,1089,1110,1129,1149,1170,1189,1209,1230,1250,1270,1289,1309,1330,1350,1370,1390,1410,1429,1450,1471,1490,1510,1531,1550,1570,1590,1610,1629,1650,1669,1690,1709,1730,1750,1769],"xSR":741.5,"ySR":469.95,"xT1":424.9,"yT1":0,"xT2":1058.1,"yT2":0,"toosoon":0,"cond_shown":"equaldotanddens","ratio_trial":250,"smaller_num":"2","larger_num":"8","correct_side":2,"subjID":"juandavidalfonso4","gender":"0","age":"9","school":"4"},{"start_time":1552309369604,"click_time":1552309371684,"finger_time":1552309370624,"fix_duration":399.2538312562339,"trial":27,"RT":1020,"MT":1060,"sideResp":2,"stimulus":"img/900/randomdotsizeEA/R/5_Ratio_900_L_9_R_10.png","xmouse":[768,768,768,768,768,768,768,768,768,768,768,768,768,768,768,768,768,768,768,768,768,768,768,768,768,768,768,768,768,768,768,768,768,768,768,768,768,768,768,768,768,768,768,768,768,768,768,768,768,768,772,776,784,790,801,804,805,805,807,807,807,807,807,807,804,803,802,802,801,800,799,798,793,788,782,780,778,775,771,763,756,748,744,740,740,740,740,740,740,740,740,740,740,740,740,740,751,773,810,883,914,943,969,1000,1097],"ymouse":[501,501,501,501,501,501,501,501,501,501,501,501,501,501,501,501,501,501,501,501,501,501,501,501,501,501,501,501,501,501,501,501,501,501,501,501,501,501,501,501,501,501,501,501,501,501,501,501,501,502,481,469,442,420,391,383,380,376,369,351,342,332,322,314,300,292,288,286,285,280,271,260,246,235,221,215,210,200,187,165,153,142,136,131,131,131,131,131,131,131,131,131,131,131,131,131,124,114,101,88,87,86,82,80,72],"timestamp_mouse":[1,21,40,60,81,100,120,140,160,180,200,221,240,261,280,301,322,341,361,380,400,421,440,460,480,500,521,541,560,580,600,620,640,661,681,701,721,741,761,781,801,821,841,861,880,901,921,940,961,980,1000,1020,1040,1060,1080,1101,1120,1140,1160,1180,1200,1220,1240,1260,1281,1300,1321,1340,1360,1380,1401,1421,1440,1461,1481,1501,1521,1540,1560,1580,1600,1620,1640,1661,1680,1700,1720,1740,1760,1780,1800,1820,1841,1861,1881,1901,1921,1940,1960,1980,2001,2020,2040,2060,2080],"xSR":741.5,"ySR":469.95,"xT1":424.9,"yT1":0,"xT2":1058.1,"yT2":0,"toosoon":0,"cond_shown":"randomdotsizeEA","ratio_trial":900,"smaller_num":"9","larger_num":"10","correct_side":2,"subjID":"juandavidalfonso4","gender":"0","age":"9","school":"4"},{"start_time":1552309373904,"click_time":1552309375045,"finger_time":1552309374684,"fix_duration":1419.993212964389,"trial":28,"RT":780,"MT":361,"sideResp":1,"stimulus":"img/250/equaldotsize/L/15_Ratio_250_L_12_R_3.png","xmouse":[776,776,776,776,776,776,776,776,776,776,776,776,776,776,776,776,776,776,776,776,776,776,776,776,776,776,776,776,776,776,776,776,776,776,776,776,776,776,777,778,770,767,763,762,760,759,758,753,745,694,654,606,559,533,516,515,514,508],"ymouse":[502,502,502,502,502,502,502,502,502,502,502,502,502,502,502,502,502,502,502,502,502,502,502,502,502,502,502,502,502,502,502,502,502,502,502,502,502,497,478,386,367,355,347,345,341,340,339,336,333,302,270,226,181,151,123,118,107,85],"timestamp_mouse":[3,20,40,61,81,100,120,141,160,180,200,220,240,260,280,300,320,340,360,380,400,420,441,460,481,501,520,540,560,581,600,621,642,661,681,701,721,740,760,780,800,820,840,861,880,901,920,941,960,980,1000,1020,1040,1060,1080,1100,1120,1141],"xSR":741.5,"ySR":469.95,"xT1":424.9,"yT1":0,"xT2":1058.1,"yT2":0,"toosoon":0,"cond_shown":"equaldotsize","ratio_trial":250,"smaller_num":"3","larger_num":"12","correct_side":1,"subjID":"juandavidalfonso4","gender":"0","age":"9","school":"4"},{"start_time":1552309381897,"click_time":1552309383125,"finger_time":1552309382664,"fix_duration":792.0867549254799,"trial":29,"RT":767,"MT":461,"sideResp":2,"stimulus":"img/900/equaldotsize/R/7_Ratio_900_L_9_R_10.png","xmouse":[766,766,766,766,766,766,766,766,766,766,766,766,766,766,766,766,766,766,766,766,766,766,766,766,766,766,766,766,766,766,766,766,766,766,766,768,768,768,768,768,772,781,792,808,823,909,942,969,988,1002,1025,1030,1031,1031,1031,1031,1038,1042,1044,1047,1057,1062],"ymouse":[540,540,540,540,540,540,540,540,540,540,540,540,540,540,540,540,540,540,540,540,540,540,540,540,540,540,540,540,540,540,540,540,540,540,534,504,487,477,468,458,433,412,386,343,291,159,114,80,57,39,15,11,10,10,10,10,15,18,20,22,28,30],"timestamp_mouse":[8,27,47,67,87,107,127,147,167,188,207,228,248,267,287,307,327,347,368,388,408,427,448,468,487,507,527,547,567,588,607,628,648,667,688,707,729,748,767,788,808,827,848,868,887,907,927,947,967,988,1007,1027,1048,1067,1087,1107,1127,1148,1167,1187,1208,1228],"xSR":741.5,"ySR":469.95,"xT1":424.9,"yT1":0,"xT2":1058.1,"yT2":0,"toosoon":0,"cond_shown":"equaldotsize","ratio_trial":900,"smaller_num":"9","larger_num":"10","correct_side":2,"subjID":"juandavidalfonso4","gender":"0","age":"9","school":"4"},{"start_time":1552309384654,"click_time":1552309385865,"finger_time":1552309385424,"fix_duration":628.8126321662301,"trial":30,"RT":770,"MT":441,"sideResp":1,"stimulus":"img/250/equaldotsize/L/3_Ratio_250_L_8_R_2.png","xmouse":[788,788,788,788,788,788,788,788,788,788,788,788,788,788,788,788,788,788,788,788,788,788,788,788,788,788,788,788,788,788,788,788,787,787,788,789,791,791,791,791,791,790,788,784,780,775,767,756,718,698,675,655,637,604,589,567,555,546,534,529,521],"ymouse":[548,548,548,548,548,548,548,548,548,548,548,548,548,548,548,548,548,548,548,548,548,548,548,548,548,548,548,548,548,548,548,548,547,541,534,524,500,481,437,415,392,372,353,329,318,305,291,277,235,219,199,181,165,131,114,87,73,64,56,54,49],"timestamp_mouse":[11,31,52,71,90,110,130,150,171,190,210,230,250,270,290,311,330,350,370,390,410,430,450,470,491,510,530,550,570,591,610,631,650,672,690,711,731,750,770,790,810,831,851,870,890,910,930,951,972,991,1011,1031,1051,1071,1090,1110,1130,1151,1170,1190,1211],"xSR":741.5,"ySR":469.95,"xT1":424.9,"yT1":0,"xT2":1058.1,"yT2":0,"toosoon":0,"cond_shown":"equaldotsize","ratio_trial":250,"smaller_num":"2","larger_num":"8","correct_side":1,"subjID":"juandavidalfonso4","gender":"0","age":"9","school":"4"},{"start_time":1552309388986,"click_time":1552309390324,"finger_time":1552309389885,"fix_duration":481.0230563701411,"trial":31,"RT":899,"MT":439,"sideResp":2,"stimulus":"img/500/randomdotsizeEA/R/9_Ratio_500_L_2_R_4.png","xmouse":[795,795,795,795,795,795,795,795,795,795,795,795,795,795,795,795,795,795,795,795,795,795,795,795,795,795,795,795,795,795,795,795,795,795,795,795,795,795,795,795,795,795,792,792,795,811,858,872,881,888,896,915,921,923,924,928,950,960,972,979,985,998,1009,1021,1034,1048,1075],"ymouse":[528,528,528,528,528,528,528,528,528,528,528,528,528,528,528,528,528,528,528,528,528,528,528,528,528,528,528,528,528,528,528,528,528,528,528,528,528,528,528,528,526,522,494,481,461,424,333,303,280,261,245,218,207,200,191,181,150,139,129,123,117,102,87,73,61,47,31],"timestamp_mouse":[19,38,58,78,98,118,139,158,178,199,219,239,258,278,298,318,338,360,379,398,418,438,458,478,498,519,538,558,579,598,618,639,658,679,698,718,738,758,779,798,819,838,858,878,899,918,938,959,978,998,1018,1038,1058,1078,1099,1118,1138,1159,1178,1198,1218,1239,1259,1278,1298,1319,1338],"xSR":741.5,"ySR":469.95,"xT1":424.9,"yT1":0,"xT2":1058.1,"yT2":0,"toosoon":0,"cond_shown":"randomdotsizeEA","ratio_trial":500,"smaller_num":"2","larger_num":"4","correct_side":2,"subjID":"juandavidalfonso4","gender":"0","age":"9","school":"4"},{"start_time":1552309392803,"click_time":1552309394426,"finger_time":1552309393585,"fix_duration":1479.413588136577,"trial":32,"RT":782,"MT":841,"sideResp":1,"stimulus":"img/250/equaldotsize/L/1_Ratio_250_L_8_R_2.png","xmouse":[780,780,780,780,780,780,780,780,780,780,780,780,781,781,782,783,783,783,783,783,783,783,783,783,783,783,783,783,783,783,783,783,783,783,783,783,783,783,783,779,775,775,796,805,808,800,747,734,734,734,734,734,605,582,537,537,537,537,537,537,385,350,333,312,287,279,272,268,268,271,275,278,283,287,292,316,334,378,396,412,425,439],"ymouse":[532,532,532,532,532,532,532,533,533,532,531,529,525,521,518,513,510,510,510,510,510,510,510,510,510,510,510,510,510,510,510,510,510,510,510,510,510,510,494,440,368,292,183,131,94,53,10,2,2,2,2,2,1,1,1,1,1,1,1,1,2,32,52,76,107,127,145,171,179,185,190,191,193,193,189,172,162,137,126,117,106,96],"timestamp_mouse":[4,21,41,61,81,102,121,141,161,181,202,221,242,261,281,301,322,341,361,381,401,421,441,461,481,502,521,541,561,582,602,621,641,661,681,702,721,741,761,782,801,822,841,861,881,901,922,942,961,982,1001,1021,1041,1061,1081,1102,1122,1142,1162,1182,1201,1223,1241,1262,1281,1301,1322,1341,1363,1382,1401,1422,1441,1461,1481,1501,1522,1541,1561,1581,1602,1622],"xSR":741.5,"ySR":469.95,"xT1":424.9,"yT1":0,"xT2":1058.1,"yT2":0,"toosoon":0,"cond_shown":"equaldotsize","ratio_trial":250,"smaller_num":"2","larger_num":"8","correct_side":1,"subjID":"juandavidalfonso4","gender":"0","age":"9","school":"4"},{"start_time":1552309396879,"click_time":1552309397944,"finger_time":1552309397524,"fix_duration":1472.7423786477857,"trial":33,"RT":645,"MT":420,"sideResp":2,"stimulus":"img/900/equaldotsize/L/4_Ratio_900_L_20_R_18.png","xmouse":[782,782,782,782,782,782,782,782,782,782,782,782,782,782,782,782,782,782,782,782,779,772,763,751,748,746,744,744,744,744,744,744,744,744,744,744,744,745,747,751,755,762,768,783,790,797,802,807,843,876,924,977,1025,1092],"ymouse":[531,531,531,531,531,531,531,531,531,531,531,531,531,531,531,531,531,531,531,530,525,518,509,495,491,487,483,481,478,474,471,470,468,466,465,464,463,460,451,438,423,401,376,322,292,269,250,237,203,184,157,126,98,46],"timestamp_mouse":[5,26,45,65,85,106,126,146,166,185,205,225,245,265,285,305,326,345,365,386,405,425,446,466,485,505,526,545,565,585,606,625,645,665,685,706,725,745,766,785,805,825,845,865,885,905,927,947,965,987,1005,1025,1046,1065],"xSR":741.5,"ySR":469.95,"xT1":424.9,"yT1":0,"xT2":1058.1,"yT2":0,"toosoon":0,"cond_shown":"equaldotsize","ratio_trial":900,"smaller_num":"18","larger_num":"20","correct_side":1,"subjID":"juandavidalfonso4","gender":"0","age":"9","school":"4"},{"start_time":1552309399662,"click_time":1552309401065,"finger_time":1552309400364,"fix_duration":417.6764938232016,"trial":34,"RT":702,"MT":701,"sideResp":2,"stimulus":"img/750/randomdotsizeEA/R/5_Ratio_750_L_15_R_20.png","xmouse":[792,792,791,791,791,791,791,791,791,791,791,791,791,791,791,791,791,791,791,791,791,791,791,791,791,791,791,791,791,790,788,786,784,782,777,776,776,781,790,816,830,845,860,873,887,888,889,889,886,881,872,867,865,861,857,855,852,850,850,856,858,858,858,858,858,858,865,894,911,1050,1102],"ymouse":[532,533,534,534,534,534,534,534,534,534,534,534,534,534,534,534,534,534,534,534,534,534,534,534,534,534,534,535,535,535,533,527,522,510,471,454,442,427,410,375,359,340,322,304,274,261,249,241,230,217,195,182,172,158,135,122,105,91,79,58,56,56,56,56,56,56,55,50,49,49,49],"timestamp_mouse":[2,22,43,62,83,102,122,142,162,183,202,223,242,262,283,302,322,342,362,382,403,422,443,462,482,503,523,542,563,583,603,622,642,662,682,702,722,742,763,782,802,822,843,863,883,903,922,942,962,982,1002,1022,1042,1063,1083,1102,1122,1142,1162,1183,1202,1223,1243,1262,1283,1302,1322,1343,1362,1383,1403],"xSR":741.5,"ySR":469.95,"xT1":424.9,"yT1":0,"xT2":1058.1,"yT2":0,"toosoon":0,"cond_shown":"randomdotsizeEA","ratio_trial":750,"smaller_num":"15","larger_num":"20","correct_side":2,"subjID":"juandavidalfonso4","gender":"0","age":"9","school":"4"},{"start_time":1552309402516,"click_time":1552309404165,"finger_time":1552309403325,"fix_duration":250,"trial":35,"RT":809,"MT":840,"sideResp":1,"stimulus":"img/900/equaldotsize/L/2_Ratio_900_L_20_R_18.png","xmouse":[788,788,788,788,788,787,787,787,787,787,787,787,787,787,787,787,787,787,787,787,787,787,787,787,787,787,787,787,787,787,787,787,787,787,787,787,787,789,792,792,792,792,792,792,792,790,785,771,764,758,751,737,731,724,716,716,716,716,716,716,716,716,406,378,352,343,338,326,317,306,296,291,289,289,289,290,298,333,353,375,398,421,463],"ymouse":[514,514,514,514,514,514,513,512,512,512,512,512,512,512,512,512,512,512,512,512,512,512,512,512,512,512,512,512,512,512,512,512,512,512,512,512,511,498,485,474,465,451,372,298,260,232,199,141,114,92,70,39,24,12,4,4,4,4,4,4,4,4,11,14,18,21,24,41,56,76,92,101,105,105,105,105,103,83,75,66,57,50,34],"timestamp_mouse":[9,29,48,68,89,108,129,148,168,188,209,228,248,268,288,308,328,348,368,390,408,428,449,469,489,508,528,548,568,588,608,628,648,669,688,708,728,748,768,790,809,828,848,869,888,908,928,948,968,989,1008,1030,1049,1069,1088,1108,1128,1148,1168,1188,1209,1228,1248,1268,1288,1308,1328,1348,1368,1388,1408,1429,1449,1468,1488,1508,1528,1548,1568,1589,1608,1628,1649],"xSR":741.5,"ySR":469.95,"xT1":424.9,"yT1":0,"xT2":1058.1,"yT2":0,"toosoon":0,"cond_shown":"equaldotsize","ratio_trial":900,"smaller_num":"18","larger_num":"20","correct_side":1,"subjID":"juandavidalfonso4","gender":"0","age":"9","school":"4"},{"start_time":1552309405877,"click_time":1552309407004,"finger_time":1552309406584,"fix_duration":612.3034405239196,"trial":36,"RT":707,"MT":420,"sideResp":1,"stimulus":"img/250/randomdotsizeEA/L/14_Ratio_250_L_12_R_3.png","xmouse":[770,770,770,770,770,770,770,770,770,770,770,770,770,771,772,772,774,775,775,776,778,778,778,779,779,779,779,779,779,779,779,782,782,782,786,788,788,788,788,772,761,747,737,721,692,675,666,661,656,640,629,609,591,591,591,591,456],"ymouse":[505,505,505,505,505,505,505,505,505,505,506,506,506,506,506,507,508,508,508,509,509,509,509,510,510,510,510,510,510,510,510,507,505,503,485,462,442,419,388,306,265,221,186,143,78,55,46,40,35,19,13,5,0,0,0,0,2],"timestamp_mouse":[8,27,47,67,87,107,127,147,168,187,207,227,249,267,287,308,327,347,367,388,408,427,447,467,487,507,527,547,567,587,607,628,647,668,687,707,727,747,767,787,807,827,848,867,887,909,927,947,967,987,1007,1027,1047,1068,1087,1109,1127],"xSR":741.5,"ySR":469.95,"xT1":424.9,"yT1":0,"xT2":1058.1,"yT2":0,"toosoon":0,"cond_shown":"randomdotsizeEA","ratio_trial":250,"smaller_num":"3","larger_num":"12","correct_side":1,"subjID":"juandavidalfonso4","gender":"0","age":"9","school":"4"},{"start_time":1552309408492,"click_time":1552309409624,"finger_time":1552309409145,"fix_duration":446.6838336257255,"trial":37,"RT":653,"MT":479,"sideResp":2,"stimulus":"img/250/randomdotsizeEA/R/6_Ratio_250_L_6_R_24.png","xmouse":[779,779,779,779,779,779,779,779,779,779,779,779,779,779,779,779,779,779,779,779,779,779,779,779,779,779,779,779,779,779,780,793,827,856,863,867,871,874,875,875,875,875,878,908,917,919,920,920,920,920,920,924,949,994,1020,1047,1068],"ymouse":[516,516,516,516,516,516,516,516,516,516,516,516,516,516,516,516,516,516,516,516,516,516,516,516,516,516,516,516,516,515,504,477,424,380,365,349,329,310,279,262,241,215,183,105,90,82,82,82,82,82,82,80,70,60,60,59,59],"timestamp_mouse":[12,35,53,72,93,112,133,152,173,192,212,232,252,272,293,313,333,352,373,393,412,432,452,472,493,513,534,554,574,593,613,632,653,673,692,713,733,753,773,792,812,832,852,873,892,912,932,953,972,993,1012,1032,1052,1073,1093,1112,1132],"xSR":741.5,"ySR":469.95,"xT1":424.9,"yT1":0,"xT2":1058.1,"yT2":0,"toosoon":0,"cond_shown":"randomdotsizeEA","ratio_trial":250,"smaller_num":"6","larger_num":"24","correct_side":2,"subjID":"juandavidalfonso4","gender":"0","age":"9","school":"4"},{"start_time":1552309412098,"click_time":1552309413484,"finger_time":1552309412844,"fix_duration":1333.4387148539015,"trial":38,"RT":746,"MT":640,"sideResp":2,"stimulus":"img/250/equaldotanddens/R/6_Ratio_250_L_6_R_24.png","xmouse":[780,780,780,780,780,780,780,780,780,780,780,780,780,780,780,780,780,780,780,780,780,780,780,780,780,780,780,780,780,780,780,780,780,779,775,770,764,756,742,737,737,737,741,758,766,773,778,783,786,793,796,803,808,815,826,832,841,851,861,888,902,925,941,958,989,1005,1023,1040,1057,1083],"ymouse":[521,521,521,521,521,521,521,521,521,521,521,521,521,521,521,521,521,521,521,521,521,521,521,521,521,521,521,521,521,521,521,521,521,521,517,506,493,469,419,381,373,337,315,264,245,229,215,202,195,186,183,180,179,175,172,171,167,163,159,146,137,124,115,106,93,87,82,77,75,73],"timestamp_mouse":[6,27,46,66,86,107,127,146,166,186,206,226,246,267,286,306,326,346,366,386,406,426,446,466,486,506,527,547,566,586,607,627,646,666,687,707,726,746,768,786,808,827,847,868,886,907,926,946,967,986,1006,1027,1046,1066,1086,1106,1126,1146,1166,1186,1206,1227,1246,1266,1287,1307,1326,1346,1366,1386],"xSR":741.5,"ySR":469.95,"xT1":424.9,"yT1":0,"xT2":1058.1,"yT2":0,"toosoon":0,"cond_shown":"equaldotanddens","ratio_trial":250,"smaller_num":"6","larger_num":"24","correct_side":2,"subjID":"juandavidalfonso4","gender":"0","age":"9","school":"4"},{"start_time":1552309415548,"click_time":1552309416805,"finger_time":1552309416284,"fix_duration":923.4109275451852,"trial":39,"RT":736,"MT":521,"sideResp":1,"stimulus":"img/250/randomdotsizeEA/L/14_Ratio_250_L_12_R_3.png","xmouse":[789,789,789,789,789,789,789,789,789,789,789,789,789,789,789,789,789,789,789,789,789,789,789,789,789,789,789,789,789,789,789,789,789,789,789,789,792,792,792,792,792,788,778,769,756,745,712,698,689,680,671,658,653,649,647,647,645,632,617,597,566,525,464],"ymouse":[532,532,532,532,532,532,532,532,532,532,532,532,532,532,532,532,532,532,532,532,532,532,532,532,532,532,532,532,532,532,532,528,518,505,491,473,438,429,421,413,402,361,328,290,249,218,162,144,132,121,113,104,101,99,99,99,97,88,77,64,47,29,5],"timestamp_mouse":[16,36,57,76,96,118,136,157,177,196,216,237,257,277,296,318,336,356,376,396,416,436,456,477,496,517,537,556,576,597,616,636,656,676,696,716,736,757,776,797,817,836,856,877,897,916,937,958,977,997,1016,1036,1056,1076,1096,1116,1136,1156,1176,1196,1216,1236,1257],"xSR":741.5,"ySR":469.95,"xT1":424.9,"yT1":0,"xT2":1058.1,"yT2":0,"toosoon":0,"cond_shown":"randomdotsizeEA","ratio_trial":250,"smaller_num":"3","larger_num":"12","correct_side":1,"subjID":"juandavidalfonso4","gender":"0","age":"9","school":"4"},{"start_time":1552309431951,"click_time":1552309433845,"finger_time":1552309433044,"fix_duration":1465.5510513670836,"trial":40,"RT":1093,"MT":801,"sideResp":1,"stimulus":"img/900/randomdotsizeEA/L/10_Ratio_900_L_20_R_18.png","xmouse":[792,790,788,788,787,787,787,787,787,787,787,787,787,787,787,787,787,787,787,787,787,787,787,787,787,787,787,787,787,787,787,787,787,787,787,787,787,787,787,787,787,787,787,787,787,787,787,787,787,787,787,785,782,772,768,765,764,764,764,766,768,770,774,780,783,786,788,788,787,773,761,751,747,748,762,778,800,817,817,817,817,817,817,817,817,817,817,817,683,657,629,604,579,535,507],"ymouse":[520,520,520,520,520,520,520,520,520,520,520,520,520,520,520,520,520,520,520,520,520,520,520,520,520,520,520,520,520,520,520,520,520,520,520,520,520,520,520,520,520,520,520,520,520,520,520,520,520,520,520,510,503,473,458,445,434,425,408,401,396,386,376,366,357,346,333,317,285,256,233,211,191,148,114,81,44,2,2,2,2,2,2,2,2,2,2,2,2,10,18,25,30,37,38],"timestamp_mouse":[13,34,54,74,94,114,134,154,174,194,215,234,255,274,295,315,335,353,373,395,414,434,453,474,494,514,533,553,573,594,615,634,653,673,694,714,733,753,774,793,814,833,854,874,893,913,933,953,973,994,1015,1033,1053,1073,1093,1114,1134,1154,1173,1195,1214,1235,1254,1273,1293,1314,1333,1353,1374,1393,1414,1433,1454,1473,1494,1514,1533,1554,1574,1593,1614,1633,1654,1673,1693,1713,1734,1753,1773,1794,1814,1833,1854,1874,1894],"xSR":741.5,"ySR":469.95,"xT1":424.9,"yT1":0,"xT2":1058.1,"yT2":0,"toosoon":0,"cond_shown":"randomdotsizeEA","ratio_trial":900,"smaller_num":"18","larger_num":"20","correct_side":1,"subjID":"juandavidalfonso4","gender":"0","age":"9","school":"4"},{"start_time":1552309435951,"click_time":1552309437384,"finger_time":1552309436645,"fix_duration":765.8495119763701,"trial":41,"RT":694,"MT":739,"sideResp":1,"stimulus":"img/900/equaldotanddens/L/4_Ratio_900_L_20_R_18.png","xmouse":[778,778,778,778,778,778,778,778,778,778,778,778,778,778,778,778,778,778,778,778,778,778,778,778,778,778,778,778,778,778,778,778,777,777,783,784,784,784,783,783,785,787,789,792,794,796,798,804,810,810,810,810,810,810,810,810,810,810,810,801,787,765,701,701,701,701,701,701,701,701,701,439],"ymouse":[518,518,518,518,518,518,518,518,518,518,518,518,518,518,518,518,518,518,518,518,518,518,518,518,518,518,518,518,518,518,518,518,519,515,466,437,411,379,345,327,311,294,277,252,241,230,221,201,178,166,158,153,151,148,148,148,148,148,146,118,94,60,0,0,0,0,0,0,0,0,0,2],"timestamp_mouse":[14,33,53,73,93,114,133,153,173,193,213,233,254,273,293,313,334,355,375,393,413,434,454,473,493,513,533,553,573,593,614,633,653,674,694,713,733,754,773,794,814,833,853,873,894,913,933,955,973,994,1014,1034,1055,1074,1094,1114,1134,1155,1174,1194,1214,1234,1254,1274,1294,1314,1334,1354,1373,1393,1413,1433],"xSR":741.5,"ySR":469.95,"xT1":424.9,"yT1":0,"xT2":1058.1,"yT2":0,"toosoon":0,"cond_shown":"equaldotanddens","ratio_trial":900,"smaller_num":"18","larger_num":"20","correct_side":1,"subjID":"juandavidalfonso4","gender":"0","age":"9","school":"4"},{"start_time":1552309438837,"click_time":1552309439945,"finger_time":1552309439624,"fix_duration":250,"trial":42,"RT":787,"MT":321,"sideResp":1,"stimulus":"img/500/equaldotsize/L/8_Ratio_500_L_8_R_4.png","xmouse":[813,813,813,813,813,813,813,813,813,813,813,813,813,813,813,813,813,813,813,813,813,808,799,791,786,785,785,785,785,785,785,785,785,785,785,790,798,807,811,818,822,806,781,755,733,714,705,700,698,694,676,651,629,601,564,462],"ymouse":[530,530,530,530,530,530,530,530,530,530,530,530,530,530,530,530,530,530,530,530,530,530,530,530,530,530,530,530,530,530,530,530,530,530,530,520,509,494,481,458,401,314,243,176,127,86,76,71,71,71,67,65,65,65,65,73],"timestamp_mouse":[11,28,48,68,87,107,127,147,167,188,207,227,247,268,288,307,327,349,369,389,408,427,447,467,487,508,527,549,568,588,608,628,648,669,688,708,728,748,768,787,807,828,848,867,888,907,927,947,967,987,1007,1029,1048,1068,1087,1108],"xSR":741.5,"ySR":469.95,"xT1":424.9,"yT1":0,"xT2":1058.1,"yT2":0,"toosoon":0,"cond_shown":"equaldotsize","ratio_trial":500,"smaller_num":"4","larger_num":"8","correct_side":1,"subjID":"juandavidalfonso4","gender":"0","age":"9","school":"4"},{"start_time":1552309442375,"click_time":1552309443745,"finger_time":1552309443045,"fix_duration":1030.9859209371511,"trial":43,"RT":670,"MT":700,"sideResp":2,"stimulus":"img/900/randomdotsizeEA/R/5_Ratio_900_L_9_R_10.png","xmouse":[787,787,787,787,787,787,787,787,787,787,787,787,787,787,787,787,787,787,787,787,787,787,787,787,787,787,787,787,787,787,787,787,787,783,777,775,770,766,763,763,763,763,762,761,761,761,764,771,786,799,810,821,831,844,847,849,849,850,850,850,851,853,860,876,927,961,998,1039,1119],"ymouse":[511,511,511,511,511,511,511,511,511,511,511,511,511,511,511,511,511,511,511,511,511,511,511,511,511,511,511,511,511,511,511,505,497,460,443,433,419,406,388,380,373,366,363,348,338,327,314,300,266,245,226,203,180,137,122,108,97,91,91,91,90,90,91,93,93,88,81,76,57],"timestamp_mouse":[10,29,51,71,89,109,130,149,169,189,209,229,249,270,289,310,329,349,369,389,411,429,449,470,489,509,529,549,569,590,609,629,649,670,689,709,729,749,769,789,809,830,849,870,890,911,930,950,970,989,1010,1029,1049,1070,1091,1110,1131,1151,1171,1190,1209,1229,1251,1269,1290,1309,1329,1349,1370],"xSR":741.5,"ySR":469.95,"xT1":424.9,"yT1":0,"xT2":1058.1,"yT2":0,"toosoon":0,"cond_shown":"randomdotsizeEA","ratio_trial":900,"smaller_num":"9","larger_num":"10","correct_side":2,"subjID":"juandavidalfonso4","gender":"0","age":"9","school":"4"},{"start_time":1552309447460,"click_time":1552309448625,"finger_time":1552309448185,"fix_duration":1274.3732050181486,"trial":44,"RT":725,"MT":440,"sideResp":1,"stimulus":"img/900/equaldotsize/L/2_Ratio_900_L_20_R_18.png","xmouse":[771,771,771,771,771,771,771,771,771,771,771,771,771,771,771,771,771,771,771,771,771,771,771,771,771,771,771,771,771,771,771,771,771,773,774,778,783,785,786,786,786,784,781,775,769,752,728,712,697,684,661,651,645,639,628,586,548,526,505],"ymouse":[514,514,514,514,514,514,514,514,514,514,514,514,514,514,514,514,514,514,514,514,514,514,514,514,514,514,514,514,514,514,514,514,511,505,495,475,459,449,437,430,412,404,394,375,353,295,251,230,217,209,192,184,177,171,162,135,117,104,92],"timestamp_mouse":[5,24,44,64,84,104,124,144,164,184,206,224,244,264,285,304,324,344,364,384,405,425,446,466,485,505,525,545,566,586,605,625,644,665,685,706,725,745,766,785,805,826,844,865,884,904,925,945,965,985,1005,1024,1046,1064,1084,1104,1125,1145,1165],"xSR":741.5,"ySR":469.95,"xT1":424.9,"yT1":0,"xT2":1058.1,"yT2":0,"toosoon":0,"cond_shown":"equaldotsize","ratio_trial":900,"smaller_num":"18","larger_num":"20","correct_side":1,"subjID":"juandavidalfonso4","gender":"0","age":"9","school":"4"},{"start_time":1552309450672,"click_time":1552309451865,"finger_time":1552309451344,"fix_duration":806.4638332731507,"trial":45,"RT":672,"MT":521,"sideResp":2,"stimulus":"img/500/equaldotanddens/R/1_Ratio_500_L_9_R_18.png","xmouse":[783,783,783,783,783,783,783,783,783,783,783,783,783,783,783,783,783,783,783,783,783,783,783,783,783,783,783,783,783,783,783,780,778,771,736,727,724,726,728,741,755,772,792,811,856,871,883,893,904,918,951,977,987,1008,1047,1050,1053,1055,1057,1060],"ymouse":[508,508,508,508,508,508,508,508,508,508,508,508,508,508,508,508,508,508,508,508,508,508,508,508,508,508,508,508,508,508,508,501,490,457,323,289,277,272,270,263,257,250,240,227,183,161,146,134,125,118,96,80,72,55,33,31,30,30,30,30],"timestamp_mouse":[12,36,53,73,93,113,132,152,173,194,212,233,254,273,293,313,333,353,372,392,412,433,453,472,492,512,532,552,572,592,612,632,652,672,693,712,732,753,772,792,813,833,853,872,893,913,933,952,973,992,1012,1032,1053,1073,1093,1113,1133,1152,1172,1193],"xSR":741.5,"ySR":469.95,"xT1":424.9,"yT1":0,"xT2":1058.1,"yT2":0,"toosoon":0,"cond_shown":"equaldotanddens","ratio_trial":500,"smaller_num":"9","larger_num":"18","correct_side":2,"subjID":"juandavidalfonso4","gender":"0","age":"9","school":"4"},{"start_time":1552309453531,"click_time":1552309455345,"finger_time":1552309454205,"fix_duration":706.9713159859494,"trial":46,"RT":674,"MT":1140,"sideResp":1,"stimulus":"img/750/equaldotanddens/L/6_Ratio_750_L_24_R_18.png","xmouse":[756,756,756,756,756,756,756,756,756,756,756,756,756,756,756,756,756,756,756,757,764,773,777,778,778,779,781,783,784,785,786,786,787,788,789,789,797,807,809,809,809,809,809,809,806,803,799,779,765,728,706,685,649,643,643,643,643,643,643,643,643,643,643,643,643,643,643,643,643,643,643,643,643,643,643,643,643,643,643,643,643,643,643,643,643,643,643,643,548,530,477],"ymouse":[504,504,504,504,504,504,504,504,504,504,504,504,504,504,504,504,504,504,504,504,499,492,489,489,488,487,486,482,479,476,475,474,471,465,458,445,386,329,289,264,233,216,203,199,193,186,176,142,119,76,57,37,6,0,0,0,0,0,0,0,0,0,0,0,0,0,0,0,0,0,0,0,0,0,0,0,0,0,0,0,0,0,0,0,0,0,0,0,4,10,40],"timestamp_mouse":[13,34,54,73,93,113,134,153,174,193,213,233,253,273,293,313,333,354,373,394,413,433,455,474,493,514,533,553,574,594,615,635,654,674,694,714,735,753,774,794,814,833,853,873,893,913,933,953,974,993,1013,1034,1053,1073,1093,1113,1134,1153,1174,1194,1213,1234,1254,1274,1293,1313,1334,1353,1373,1393,1413,1434,1453,1474,1494,1514,1534,1554,1573,1594,1614,1634,1653,1673,1693,1713,1733,1753,1773,1793,1814],"xSR":741.5,"ySR":469.95,"xT1":424.9,"yT1":0,"xT2":1058.1,"yT2":0,"toosoon":0,"cond_shown":"equaldotanddens","ratio_trial":750,"smaller_num":"18","larger_num":"24","correct_side":1,"subjID":"juandavidalfonso4","gender":"0","age":"9","school":"4"},{"start_time":1552309458568,"click_time":1552309459805,"finger_time":1552309459244,"fix_duration":983.177722493222,"trial":47,"RT":676,"MT":561,"sideResp":2,"stimulus":"img/900/randomdotsizeEA/L/4_Ratio_900_L_20_R_18.png","xmouse":[793,793,793,793,793,793,793,793,793,793,793,793,793,793,793,793,793,793,793,793,793,793,793,793,793,793,793,793,793,792,791,791,791,791,791,785,783,777,772,767,762,758,753,741,728,712,712,712,712,712,712,712,712,712,722,782,825,862,901,942,1030,1066],"ymouse":[526,526,526,526,526,526,526,526,526,526,526,526,526,526,526,526,526,526,526,526,526,526,526,526,526,526,523,511,501,492,482,478,473,462,447,394,370,349,334,316,284,268,252,236,222,205,204,204,204,204,204,204,204,204,202,170,146,124,104,83,47,37],"timestamp_mouse":[20,37,57,76,97,117,137,157,178,197,216,236,258,277,296,317,337,358,377,398,417,437,457,476,497,516,536,557,577,598,616,636,657,676,697,717,737,756,776,796,817,838,857,877,897,916,937,956,976,996,1016,1037,1057,1077,1096,1116,1137,1156,1176,1196,1216,1237],"xSR":741.5,"ySR":469.95,"xT1":424.9,"yT1":0,"xT2":1058.1,"yT2":0,"toosoon":0,"cond_shown":"randomdotsizeEA","ratio_trial":900,"smaller_num":"18","larger_num":"20","correct_side":1,"subjID":"juandavidalfonso4","gender":"0","age":"9","school":"4"},{"start_time":1552309461639,"click_time":1552309463164,"finger_time":1552309462244,"fix_duration":692.9092992571973,"trial":48,"RT":605,"MT":920,"sideResp":1,"stimulus":"img/500/randomdotsizeEA/L/5_Ratio_500_L_4_R_2.png","xmouse":[801,801,801,801,801,801,801,801,801,801,801,801,801,801,801,801,801,801,801,801,800,800,800,800,800,800,800,801,801,801,801,801,802,803,803,803,803,804,804,804,802,801,800,800,800,799,798,797,796,794,791,784,779,768,764,760,759,757,755,755,755,749,742,720,706,689,672,656,632,625,619,612,611,585,559,531,501],"ymouse":[497,497,497,497,497,497,497,497,497,497,497,497,497,497,497,497,497,497,497,497,496,494,485,478,475,473,472,472,472,471,468,465,461,455,451,448,444,437,421,414,407,400,391,387,383,375,363,352,326,310,292,258,239,202,188,175,169,163,159,155,152,140,129,104,91,76,65,53,38,33,31,29,28,42,59,74,87],"timestamp_mouse":[7,26,45,65,85,106,126,147,166,186,206,226,246,266,286,306,325,346,366,386,406,426,445,466,486,507,526,545,566,586,605,625,646,666,686,705,726,746,765,786,806,826,846,866,885,906,926,945,965,986,1005,1025,1045,1065,1085,1105,1125,1145,1165,1186,1206,1225,1245,1265,1286,1305,1325,1346,1365,1385,1406,1425,1446,1465,1485,1505,1525],"xSR":741.5,"ySR":469.95,"xT1":424.9,"yT1":0,"xT2":1058.1,"yT2":0,"toosoon":0,"cond_shown":"randomdotsizeEA","ratio_trial":500,"smaller_num":"2","larger_num":"4","correct_side":1,"subjID":"juandavidalfonso4","gender":"0","age":"9","school":"4"},{"start_time":1552309465126,"click_time":1552309466185,"finger_time":1552309465804,"fix_duration":879.5988463649172,"trial":49,"RT":678,"MT":381,"sideResp":1,"stimulus":"img/750/equaldotanddens/L/1_Ratio_750_L_20_R_15.png","xmouse":[763,763,763,763,763,763,763,765,772,776,777,778,779,779,779,779,779,779,779,779,779,779,779,779,779,779,779,779,779,779,779,782,784,786,789,789,789,789,792,798,799,799,793,787,772,744,719,693,654,548,513,492,476,461],"ymouse":[511,511,511,511,511,511,511,511,511,513,513,513,513,513,513,513,513,513,513,513,513,513,513,513,513,513,513,513,513,513,513,500,491,472,406,396,362,346,325,282,269,256,245,238,228,216,211,208,201,163,142,125,111,98],"timestamp_mouse":[1,18,39,60,80,98,118,140,159,179,200,219,239,259,279,299,319,339,358,378,399,418,438,458,478,498,518,539,559,578,598,618,640,658,678,698,718,738,759,779,798,819,838,858,878,899,919,939,959,979,999,1018,1039,1059],"xSR":741.5,"ySR":469.95,"xT1":424.9,"yT1":0,"xT2":1058.1,"yT2":0,"toosoon":0,"cond_shown":"equaldotanddens","ratio_trial":750,"smaller_num":"15","larger_num":"20","correct_side":1,"subjID":"juandavidalfonso4","gender":"0","age":"9","school":"4"},{"start_time":1552309467636,"click_time":1552309468905,"finger_time":1552309468285,"fix_duration":250,"trial":50,"RT":649,"MT":620,"sideResp":2,"stimulus":"img/900/randomdotsizeEA/R/6_Ratio_900_L_9_R_10.png","xmouse":[792,792,792,792,792,792,792,792,792,792,792,792,792,792,792,792,792,792,792,792,792,792,792,792,792,792,792,792,788,786,781,778,777,773,773,773,773,771,771,771,771,771,771,771,771,771,771,771,772,775,779,785,794,826,861,905,968,1025,1102,1106,1111,1114,1121,1138],"ymouse":[537,537,537,537,537,537,537,537,537,537,537,537,537,537,537,537,537,537,537,537,537,537,537,537,537,537,535,533,509,496,483,471,464,452,452,449,443,440,438,438,438,438,438,438,438,438,437,437,428,421,416,406,396,366,343,311,268,226,154,149,140,130,114,75],"timestamp_mouse":[9,29,48,68,89,109,129,148,168,188,210,228,248,268,289,308,328,348,368,388,408,428,448,468,488,510,528,548,568,589,609,629,649,668,688,708,728,750,769,788,808,828,850,869,888,908,928,948,968,989,1009,1029,1048,1068,1088,1108,1128,1148,1168,1188,1209,1228,1248,1269],"xSR":741.5,"ySR":469.95,"xT1":424.9,"yT1":0,"xT2":1058.1,"yT2":0,"toosoon":0,"cond_shown":"randomdotsizeEA","ratio_trial":900,"smaller_num":"9","larger_num":"10","correct_side":2,"subjID":"juandavidalfonso4","gender":"0","age":"9","school":"4"},{"start_time":1552309470086,"click_time":1552309471924,"finger_time":1552309471624,"fix_duration":439.25175017828354,"trial":51,"RT":1538,"MT":300,"sideResp":2,"stimulus":"img/750/equaldotsize/R/15_Ratio_750_L_9_R_12.png","xmouse":[794,794,794,794,795,798,801,802,804,805,805,805,805,805,805,805,805,805,805,805,805,805,805,805,805,805,805,805,805,805,805,805,805,805,805,805,805,805,805,805,805,805,805,805,805,805,805,805,805,805,805,805,805,805,805,805,805,805,805,805,805,805,805,805,805,805,805,805,805,805,805,805,805,808,810,813,836,854,872,883,894,912,917,926,944,971,985,995,1008,1024,1041,1112],"ymouse":[527,527,527,527,526,522,518,517,515,514,514,514,514,514,514,514,514,514,514,514,514,514,514,514,514,514,514,514,514,514,514,514,514,514,514,514,514,514,514,514,514,514,514,514,514,514,514,514,514,514,514,514,514,514,514,514,514,514,514,514,514,514,514,514,514,514,514,514,514,514,514,514,514,511,506,499,462,435,406,385,367,341,334,324,302,270,250,237,217,194,169,86],"timestamp_mouse":[23,39,58,78,99,118,139,158,179,200,218,240,259,279,299,319,339,359,379,398,418,440,460,478,499,518,539,558,579,598,618,638,658,678,698,718,739,758,779,800,819,838,858,878,898,918,938,958,978,998,1018,1038,1059,1078,1100,1118,1138,1158,1178,1198,1218,1239,1258,1278,1298,1318,1340,1359,1378,1398,1418,1438,1459,1478,1498,1519,1538,1558,1578,1599,1619,1638,1658,1679,1698,1719,1738,1758,1778,1799,1819,1838],"xSR":741.5,"ySR":469.95,"xT1":424.9,"yT1":0,"xT2":1058.1,"yT2":0,"toosoon":0,"cond_shown":"equaldotsize","ratio_trial":750,"smaller_num":"9","larger_num":"12","correct_side":2,"subjID":"juandavidalfonso4","gender":"0","age":"9","school":"4"},{"start_time":1552309473825,"click_time":1552309475084,"finger_time":1552309474444,"fix_duration":959.7006225500334,"trial":52,"RT":619,"MT":640,"sideResp":1,"stimulus":"img/750/equaldotanddens/L/13_Ratio_750_L_8_R_6.png","xmouse":[771,771,771,771,771,771,771,771,771,771,771,771,771,771,771,771,771,771,771,771,771,771,771,771,771,771,771,771,771,766,756,749,744,739,738,735,733,731,729,727,723,723,720,713,680,638,611,591,576,565,551,548,548,547,547,547,547,546,544,542,531,526,526,524],"ymouse":[514,514,514,514,514,514,514,514,514,514,514,514,514,514,514,514,514,514,514,514,514,514,514,514,514,514,514,514,514,498,474,456,438,421,411,385,369,356,346,334,300,286,266,244,194,147,119,101,87,78,68,66,65,64,64,64,64,64,64,64,66,67,67,68],"timestamp_mouse":[0,19,39,59,80,99,120,141,159,179,200,219,239,260,280,300,320,340,360,380,400,419,439,460,480,500,519,539,560,580,599,619,639,659,681,699,719,739,760,779,799,820,839,859,881,899,920,939,959,979,1000,1020,1040,1059,1079,1099,1120,1139,1159,1179,1200,1220,1239,1259],"xSR":741.5,"ySR":469.95,"xT1":424.9,"yT1":0,"xT2":1058.1,"yT2":0,"toosoon":0,"cond_shown":"equaldotanddens","ratio_trial":750,"smaller_num":"6","larger_num":"8","correct_side":1,"subjID":"juandavidalfonso4","gender":"0","age":"9","school":"4"},{"start_time":1552309478727,"click_time":1552309489305,"finger_time":1552309478765,"fix_duration":1182.3364458571818,"trial":53,"RT":38,"MT":10540,"sideResp":2,"stimulus":"img/250/randomdotsizeEA/R/8_Ratio_250_L_1_R_4.png","xmouse":[750,738,731,728,728,728,728,728,728,728,728,728,728,728,728,728,728,728,728,728,728,728,727,727,737,737,737,737,737,737,737,737,737,737,737,737,737,737,737,737,737,737,737,737,737,737,737,737,737,737,737,737,737,737,737,737,737,737,737,737,737,744,760,774,785,791,791,791,791,791,791,791,791,791,791,791,791,791,791,791,791,790,787,785,780,776,772,769,768,768,768,768,768,768,768,768,768,769,770,774,778,779,779,779,779,781,781,782,781,781,781,781,781,781,781,781,781,781,781,781,781,781,781,781,781,781,781,781,781,778,772,768,764,764,764,764,764,764,764,764,764,764,764,764,764,763,763,763,763,763,763,763,761,759,753,737,725,721,720,718,717,716,715,715,714,714,713,713,713,713,713,713,713,713,713,713,713,713,713,712,700,686,669,649,620,572,552,538,532,530,528,528,528,528,528,528,528,528,528,528,528,528,528,528,528,528,528,528,528,526,524,523,522,521,521,521,521,525,537,554,590,607,617,624,631,635,635,635,635,635,635,635,635,635,635,635,635,635,635,635,635,635,635,635,635,635,635,635,635,635,635,635,635,635,635,635,635,635,635,635,635,635,635,635,635,635,635,635,635,635,635,635,635,635,635,635,635,635,635,635,635,635,635,635,635,635,635,635,635,635,635,635,635,635,635,635,635,635,635,635,635,635,635,635,635,635,635,635,635,635,635,635,635,635,635,635,635,635,635,635,635,635,635,635,635,635,635,635,635,635,635,635,635,635,635,635,635,635,635,635,635,635,635,635,635,635,635,635,635,635,635,635,635,635,635,635,635,635,635,635,635,635,635,635,635,636,603,590,589,589,589,589,589,589,589,589,589,589,589,589,589,589,589,604,621,667,687,707,717,739,776,788,793,794,800,807,809,811,812,815,826,827,827,827,827,821,798,776,770,753,740,734,725,706,684,663,659,659,659,659,659,659,659,659,659,659,664,686,709,726,740,763,772,775,778,791,803,817,833,851,881,892,896,897,901,910,913,919,927,935,942,942,942,942,935,905,895,876,859,848,840,836,833,823,794,713,653,604,565,541,524,505,500,500,503,518,537,564,605,642,685,749,767,788,794,808,821,824,831,846,860,899,918,929,948,956,963,965,965,965,964,964,964,963,958,945,930,916,896,879,861,828,819,800,756,680,645,616,585,559,527,527,527,527,527,729,878,1000,1082],"ymouse":[499,504,508,509,509,509,509,509,509,509,509,509,509,509,509,509,509,509,509,509,509,509,509,510,514,515,515,515,515,515,515,515,515,515,515,515,515,515,515,515,515,515,515,515,515,515,515,515,515,515,515,515,515,515,515,515,515,515,515,515,515,516,516,515,515,515,515,515,515,515,515,515,515,515,515,515,515,515,515,515,515,517,518,519,521,523,526,528,529,529,529,529,529,529,529,529,529,531,531,531,531,531,531,531,531,529,525,513,510,509,509,509,509,509,509,509,509,509,509,509,509,509,509,509,509,509,509,509,509,499,488,481,476,475,475,475,475,475,475,475,475,475,475,475,475,474,470,458,450,439,417,406,394,381,361,320,295,286,280,275,266,259,253,249,247,245,244,244,244,244,244,244,244,244,244,244,244,244,244,243,247,251,253,254,255,255,254,253,253,252,251,251,251,251,251,251,251,251,251,251,251,251,251,251,251,251,251,251,251,252,260,265,271,275,277,279,279,282,287,294,309,317,322,326,329,332,332,332,332,332,332,332,332,332,332,332,332,332,332,332,332,332,332,332,332,332,332,332,332,332,332,332,332,332,332,332,332,332,332,332,332,332,332,332,332,332,332,332,332,332,332,332,332,332,332,332,332,332,332,332,332,332,332,332,332,332,332,332,332,332,332,332,332,332,332,332,332,332,332,332,332,332,332,332,332,332,332,332,332,332,332,332,332,332,332,332,332,332,332,332,332,332,332,332,332,332,332,332,332,332,332,332,332,332,332,332,332,332,332,332,332,332,332,332,332,332,332,332,332,332,332,332,332,332,332,332,332,332,332,332,332,332,332,332,332,338,397,421,424,424,424,424,424,424,424,424,424,424,424,424,424,424,422,405,388,356,347,341,336,329,319,315,314,314,314,318,323,329,336,347,369,369,369,369,369,369,353,341,338,329,324,324,326,331,338,343,344,344,344,344,344,344,344,344,344,344,335,304,273,252,237,220,215,213,212,213,218,225,232,241,259,269,272,275,287,314,327,343,359,371,376,376,375,359,325,250,220,181,147,126,116,114,114,117,137,213,267,309,338,355,366,384,389,392,396,403,409,403,380,353,317,262,248,228,220,207,196,194,192,191,192,209,219,227,244,255,274,284,291,294,297,297,297,297,279,216,174,144,116,98,88,81,83,92,109,130,138,142,142,141,131,131,131,131,131,86,62,56,56],"timestamp_mouse":[17,38,57,77,97,117,136,157,177,197,217,237,257,277,297,317,337,357,378,397,418,437,456,478,497,518,538,557,578,597,617,637,658,677,697,717,737,756,777,797,817,838,857,878,898,917,937,958,977,997,1017,1036,1057,1076,1097,1116,1137,1156,1177,1197,1217,1238,1257,1277,1297,1317,1337,1357,1377,1397,1417,1437,1457,1477,1497,1518,1537,1557,1577,1597,1617,1638,1658,1677,1696,1718,1738,1757,1778,1797,1817,1837,1857,1877,1897,1916,1936,1956,1977,1997,2016,2036,2056,2077,2097,2116,2137,2158,2177,2197,2218,2237,2256,2277,2297,2317,2337,2358,2378,2397,2417,2436,2457,2478,2498,2517,2536,2556,2576,2596,2617,2637,2656,2676,2698,2716,2737,2757,2776,2797,2818,2837,2856,2876,2896,2917,2938,2956,2977,2996,3018,3038,3056,3077,3097,3116,3137,3158,3177,3197,3218,3237,3258,3276,3296,3317,3337,3357,3378,3397,3417,3437,3458,3477,3496,3517,3538,3557,3576,3596,3616,3637,3656,3676,3696,3716,3737,3756,3777,3798,3817,3837,3857,3877,3896,3916,3936,3956,3977,3996,4017,4037,4057,4077,4097,4117,4137,4157,4177,4198,4216,4237,4257,4278,4297,4317,4337,4358,4378,4397,4417,4436,4457,4477,4498,4517,4537,4557,4577,4597,4617,4637,4657,4677,4696,4718,4738,4758,4777,4796,4817,4837,4857,4877,4897,4917,4938,4957,4978,4997,5016,5037,5056,5076,5097,5118,5138,5158,5177,5198,5217,5237,5257,5277,5297,5317,5336,5358,5378,5397,5417,5438,5457,5476,5498,5516,5538,5558,5577,5597,5617,5636,5656,5676,5696,5717,5737,5757,5777,5798,5817,5837,5857,5877,5897,5917,5938,5957,5976,5998,6017,6037,6058,6077,6098,6117,6136,6156,6176,6196,6217,6238,6258,6277,6297,6317,6337,6358,6377,6396,6417,6438,6457,6477,6497,6516,6538,6557,6577,6597,6617,6637,6657,6677,6697,6718,6737,6757,6777,6797,6817,6837,6856,6878,6898,6916,6937,6956,6976,6996,7016,7037,7056,7076,7096,7116,7137,7157,7178,7197,7218,7238,7257,7278,7297,7317,7338,7357,7378,7398,7418,7437,7458,7477,7497,7518,7538,7557,7577,7598,7618,7637,7658,7678,7697,7717,7737,7757,7776,7796,7817,7836,7858,7877,7897,7917,7937,7957,7976,7996,8017,8036,8057,8077,8097,8117,8138,8158,8177,8197,8217,8237,8257,8277,8296,8317,8338,8357,8377,8398,8417,8437,8457,8477,8496,8516,8537,8558,8577,8596,8616,8637,8657,8677,8697,8716,8736,8756,8777,8797,8817,8836,8857,8877,8896,8917,8937,8956,8976,8996,9017,9037,9056,9076,9098,9117,9137,9158,9177,9197,9217,9237,9257,9277,9297,9318,9336,9356,9376,9396,9417,9436,9456,9476,9496,9517,9536,9556,9577,9597,9617,9637,9656,9676,9696,9717,9736,9757,9776,9797,9817,9836,9857,9877,9897,9917,9938,9957,9977,9997,10016,10037,10057,10077,10098,10117,10137,10157,10178,10197,10217,10238,10257,10277,10298,10317,10337,10357,10378,10398,10417,10437,10458,10477,10497,10517,10537,10558,10578],"xSR":741.5,"ySR":469.95,"xT1":424.9,"yT1":0,"xT2":1058.1,"yT2":0,"toosoon":0,"cond_shown":"randomdotsizeEA","ratio_trial":250,"smaller_num":"1","larger_num":"4","correct_side":2,"subjID":"juandavidalfonso4","gender":"0","age":"9","school":"4"},{"start_time":1552309495307,"click_time":1552309496764,"finger_time":1552309496225,"fix_duration":381.8591737475462,"trial":54,"RT":918,"MT":539,"sideResp":2,"stimulus":"img/750/randomdotsizeEA/R/2_Ratio_750_L_6_R_8.png","xmouse":[774,774,774,774,774,774,774,774,774,774,774,774,774,774,774,774,774,774,774,774,774,774,774,774,774,774,774,774,774,774,774,774,774,774,774,775,775,775,775,775,775,776,781,785,788,790,791,794,797,802,807,818,835,836,835,828,823,820,824,838,855,855,855,855,855,855,855,855,855,1010,1020,1050,1074],"ymouse":[514,514,514,514,514,514,514,514,514,514,514,514,514,514,514,514,514,514,514,514,514,514,514,514,514,514,514,514,514,514,514,514,514,508,499,493,491,489,489,489,488,487,479,475,470,466,464,455,447,436,423,396,322,280,243,204,174,142,87,45,4,4,4,4,4,4,4,4,4,1,4,13,17],"timestamp_mouse":[18,37,57,77,96,116,137,157,178,197,217,237,258,276,296,317,337,357,377,397,418,437,458,477,498,517,538,557,577,597,618,638,657,676,698,718,737,756,777,797,817,838,858,877,896,918,937,957,977,997,1017,1037,1057,1078,1098,1117,1137,1156,1177,1197,1217,1237,1258,1277,1297,1318,1337,1357,1378,1397,1417,1437,1457],"xSR":741.5,"ySR":469.95,"xT1":424.9,"yT1":0,"xT2":1058.1,"yT2":0,"toosoon":0,"cond_shown":"randomdotsizeEA","ratio_trial":750,"smaller_num":"6","larger_num":"8","correct_side":2,"subjID":"juandavidalfonso4","gender":"0","age":"9","school":"4"},{"start_time":1552309498015,"click_time":1552309499624,"finger_time":1552309499164,"fix_duration":250,"trial":55,"RT":1149,"MT":460,"sideResp":2,"stimulus":"img/500/equaldotsize/R/2_Ratio_500_L_3_R_6.png","xmouse":[785,785,785,785,785,785,785,785,785,785,785,785,785,785,785,785,785,785,785,785,785,785,785,785,785,785,785,785,785,785,785,785,785,785,784,784,785,785,785,785,785,785,785,785,785,785,785,785,785,785,785,785,785,785,785,785,785,785,792,800,806,816,829,845,850,863,872,873,907,924,936,943,949,961,968,976,985,996,1025,1048,1071],"ymouse":[516,516,516,516,516,516,516,516,516,516,516,516,516,516,516,516,516,516,516,516,516,516,516,516,516,516,516,516,516,516,516,516,516,516,516,510,509,508,507,507,507,507,507,507,507,507,507,507,507,507,507,503,501,493,487,479,471,464,411,359,320,281,227,176,165,148,136,134,99,84,73,70,67,65,63,62,59,55,45,39,33],"timestamp_mouse":[9,30,49,70,89,109,128,149,169,189,210,229,249,269,289,310,329,350,369,390,409,429,449,469,489,509,529,548,569,589,609,628,648,670,689,709,730,749,769,789,808,829,849,869,890,910,929,949,969,989,1010,1029,1049,1069,1089,1109,1130,1149,1169,1188,1210,1230,1249,1269,1289,1309,1329,1349,1370,1389,1410,1429,1449,1469,1488,1508,1529,1549,1569,1589,1609],"xSR":741.5,"ySR":469.95,"xT1":424.9,"yT1":0,"xT2":1058.1,"yT2":0,"toosoon":0,"cond_shown":"equaldotsize","ratio_trial":500,"smaller_num":"3","larger_num":"6","correct_side":2,"subjID":"juandavidalfonso4","gender":"0","age":"9","school":"4"},{"start_time":1552309509354,"click_time":1552309510503,"finger_time":1552309510103,"fix_duration":1428.0530642670014,"trial":56,"RT":749,"MT":400,"sideResp":2,"stimulus":"img/250/equaldotanddens/R/9_Ratio_250_L_3_R_12.png","xmouse":[790,790,790,790,790,790,790,790,790,790,790,790,790,790,790,790,790,790,790,790,790,790,790,790,790,790,790,790,790,790,790,790,790,790,790,791,795,805,811,816,821,826,839,858,874,894,916,950,964,978,990,1002,1022,1037,1045,1051,1056,1067],"ymouse":[507,507,507,507,507,507,507,507,507,507,507,507,507,507,507,507,507,507,507,507,507,507,507,507,507,507,507,507,507,507,507,507,507,507,503,497,483,450,429,409,392,373,339,310,290,272,252,218,202,187,170,152,118,89,72,61,52,38],"timestamp_mouse":[9,29,61,70,89,109,129,149,170,191,209,229,249,271,290,311,330,350,370,390,410,429,451,470,490,510,529,551,570,590,611,630,650,669,690,709,731,749,771,789,809,830,849,870,889,909,929,950,970,990,1010,