[{"start_time":1552308333663,"click_time":1552308341450,"finger_time":1552308336731,"fix_duration":250,"trial":0,"RT":3068,"MT":4719,"sideResp":1,"stimulus":[],"xmouse":[807,807,807,807,807,807,807,807,807,807,807,807,807,807,807,807,807,807,807,807,807,807,807,807,807,807,807,807,807,807,807,807,807,807,807,807,807,807,807,807,807,807,807,807,807,807,807,807,807,807,807,807,807,807,807,807,807,807,807,807,807,807,807,807,807,807,807,807,807,807,807,807,807,807,807,807,807,807,807,807,807,807,807,807,806,805,803,803,803,803,803,802,802,802,802,802,802,802,802,802,802,802,802,802,802,802,802,802,802,802,802,802,802,802,802,802,802,802,802,802,802,802,802,802,802,802,802,802,802,802,802,802,802,802,802,802,802,802,802,802,802,802,804,810,818,827,836,836,836,836,837,841,841,842,843,845,845,845,846,846,846,848,848,848,848,848,848,848,848,848,848,848,848,848,848,848,848,849,849,849,849,849,849,849,850,850,850,850,851,851,851,852,852,852,852,852,852,852,852,852,852,852,852,852,852,852,852,852,852,852,852,852,852,852,852,852,852,852,852,852,852,852,852,852,852,852,852,852,852,852,852,852,852,852,852,852,852,852,852,852,852,852,852,852,852,852,852,852,852,852,852,852,852,852,852,852,852,852,852,852,852,852,852,852,852,852,852,852,852,852,852,852,852,852,852,852,852,852,852,852,852,852,852,852,852,852,852,852,852,852,852,852,852,852,852,852,852,852,852,852,852,852,852,852,852,852,852,852,852,852,852,852,852,852,851,850,833,828,827,827,827,825,822,820,815,812,802,793,782,771,758,743,741,741,741,741,741,741,741,741,741,741,741,741,741,741,741,741,741,740,740,740,741,742,742,742,733,724,715,711,699,695,690,685,676,666,659,647,635,632,622,615,592,573,553,553,553,553,553,553,553,553,553,553,553,553,553,553,553,487],"ymouse":[539,539,539,539,539,539,539,539,539,539,539,539,539,539,539,539,539,539,539,539,539,539,539,539,539,539,539,539,539,539,539,539,539,539,539,539,539,539,539,539,539,539,539,539,539,539,539,539,539,539,539,539,539,539,539,539,539,539,539,539,539,539,539,539,539,539,539,539,539,539,539,539,539,539,539,539,539,539,539,539,539,539,539,539,538,538,537,537,537,537,537,537,537,537,537,537,537,537,537,537,537,537,537,537,537,537,537,537,537,537,537,537,537,537,537,537,537,537,537,537,537,537,537,537,537,537,537,537,537,537,537,537,537,537,537,537,537,537,537,537,537,537,537,540,542,546,549,549,549,549,550,551,552,552,552,553,553,553,553,553,553,554,554,554,554,554,554,554,554,554,554,554,554,554,554,554,554,554,554,554,554,554,554,554,555,555,555,555,556,556,556,557,557,557,557,557,557,557,557,557,557,557,557,557,557,557,557,557,557,557,557,557,557,557,557,557,557,557,557,557,557,557,557,557,557,557,557,557,557,557,557,557,557,557,557,557,557,557,557,557,557,557,557,557,557,557,557,557,557,557,557,557,557,557,557,557,557,557,557,557,557,557,557,557,557,557,557,557,557,557,557,557,557,557,557,557,557,557,557,557,557,557,557,557,557,557,557,557,557,557,557,557,557,557,557,557,557,557,557,557,557,557,557,557,557,557,557,557,557,557,557,557,557,557,557,557,562,563,563,563,563,563,562,562,559,558,553,550,546,541,536,530,528,528,528,528,528,528,528,528,528,528,528,528,528,528,528,528,528,528,528,525,516,510,501,492,472,461,450,443,405,389,368,345,322,302,284,249,220,209,176,145,73,45,17,17,17,17,17,17,17,17,17,17,17,17,17,17,17,3],"timestamp_mouse":[16,27,48,67,88,107,127,147,167,188,208,227,247,267,288,308,328,346,367,387,406,427,447,467,487,507,527,548,567,588,607,627,648,668,687,707,727,747,767,787,808,827,847,867,888,907,927,948,967,987,1008,1028,1047,1067,1087,1107,1127,1147,1167,1187,1207,1227,1247,1267,1287,1307,1327,1347,1367,1387,1407,1428,1447,1467,1486,1507,1528,1547,1567,1587,1607,1627,1647,1668,1687,1707,1727,1747,1767,1787,1807,1827,1847,1867,1887,1908,1927,1947,1967,1987,2008,2027,2047,2067,2086,2107,2127,2147,2167,2187,2207,2228,2247,2267,2287,2308,2327,2347,2367,2387,2406,2427,2447,2467,2487,2506,2527,2547,2566,2587,2607,2627,2647,2667,2687,2707,2727,2747,2767,2787,2807,2828,2847,2866,2886,2907,2927,2947,2968,2987,3007,3028,3047,3068,3088,3107,3128,3146,3167,3187,3207,3227,3247,3267,3287,3307,3327,3347,3368,3387,3407,3427,3447,3467,3488,3507,3528,3547,3568,3588,3607,3628,3647,3668,3687,3707,3728,3748,3767,3787,3807,3827,3847,3867,3887,3907,3927,3948,3968,3986,4008,4026,4047,4067,4087,4107,4128,4148,4167,4187,4207,4228,4247,4267,4287,4308,4328,4347,4368,4387,4407,4428,4447,4467,4487,4507,4526,4547,4567,4587,4607,4628,4647,4667,4687,4707,4727,4747,4767,4787,4808,4827,4847,4868,4887,4907,4928,4948,4968,4987,5008,5028,5048,5067,5087,5107,5128,5148,5167,5187,5208,5228,5248,5267,5287,5308,5327,5347,5368,5387,5407,5428,5447,5467,5487,5506,5528,5547,5568,5588,5608,5628,5647,5668,5687,5707,5728,5747,5767,5787,5807,5827,5847,5867,5887,5907,5927,5946,5968,5987,6007,6027,6048,6067,6088,6107,6127,6147,6168,6187,6207,6228,6247,6268,6287,6307,6327,6347,6367,6388,6407,6427,6447,6467,6488,6506,6527,6547,6567,6586,6607,6627,6647,6667,6688,6707,6728,6748,6767,6787,6807,6828,6848,6867,6888,6907,6927,6947,6968,6987,7007,7027,7048,7067,7087,7107,7127,7147,7167,7186,7206,7228,7247,7266,7287,7307,7327,7347,7367,7388,7408,7428,7447,7467,7488,7507,7527,7547,7568,7588,7608,7627,7647,7667,7688,7707,7727,7748,7767,7787],"xSR":741.5,"ySR":500.5,"xT1":424.9,"yT1":0,"xT2":1058.1,"yT2":0,"toosoon":0,"cond_shown":"Congruent","ratio_trial":200,"L_num":8,"L_den":15,"R_num":7,"R_den":21,"correct_side":1,"subjID":"Juandavidalfonso4","gender":"0","age":"9","school":"4","test":{"fix_dur":[250,1500],"timestim":1000,"targets_dim":[100,100],"targets_relative_coord":[0.3,0.7],"size_stim":[880,420],"start_dim":[100,100],"size_start":[300,300],"size_fix":60,"samplingrate":20,"img_types":["Congruent","Incongruent"],"ratios":[100,200,300],"rep_conds":19,"nTrials":120,"trials_to_rest":500,"Trials_order":[86,33,18,23,96,119,55,19,59,87,48,44,91,56,4,107,90,66,1,36,113,3,6,7,47,58,35,51,81,109,89,12,27,95,13,103,92,57,67,62,77,37,32,28,101,31,63,38,41,69,8,117,104,49,65,76,5,9,26,61,94,80,73,60,53,118,85,114,78,30,82,102,106,43,20,2,108,54,115,21,29,52,99,112,98,68,40,100,15,88,72,79,14,46,50,111,75,10,74,16,17,24,83,84,45,105,110,42,71,39,0,93,34,97,70,11,25,64,22,116],"cond_shown":["Congruent","Incongruent","Congruent","Incongruent","Congruent","Incongruent","Incongruent","Incongruent","Incongruent","Incongruent","Congruent","Congruent","Incongruent","Congruent","Congruent","Incongruent","Congruent","Congruent","Incongruent","Congruent","Incongruent","Incongruent","Congruent","Incongruent","Incongruent","Congruent","Incongruent","Incongruent","Incongruent","Incongruent","Incongruent","Congruent","Incongruent","Incongruent","Incongruent","Incongruent","Congruent","Incongruent","Incongruent","Congruent","Incongruent","Incongruent","Congruent","Congruent","Incongruent","Incongruent","Incongruent","Congruent","Incongruent","Incongruent","Congruent","Incongruent","Congruent","Incongruent","Incongruent","Congruent","Incongruent","Incongruent","Congruent","Incongruent","Congruent","Congruent","Incongruent","Congruent","Incongruent","Congruent","Incongruent","Congruent","Congruent","Congruent","Congruent","Congruent","Congruent","Incongruent","Congruent","Congruent","Congruent","Congruent","Incongruent","Incongruent","Incongruent","Congruent","Incongruent","Congruent","Congruent","Congruent","Congruent","Congruent","Incongruent","Congruent","Congruent","Incongruent","Congruent","Congruent","Congruent","Incongruent","Incongruent","Congruent","Congruent","Congruent","Incongruent","Congruent","Incongruent","Congruent","Incongruent","Incongruent","Congruent","Congruent","Incongruent","Incongruent","Congruent","Incongruent","Congruent","Incongruent","Congruent","Incongruent","Incongruent","Congruent","Congruent","Congruent"],"ratio_trial":[200,200,100,300,100,300,100,100,300,200,100,200,100,200,300,300,100,100,100,100,300,200,100,100,300,300,300,200,200,100,300,100,200,300,100,100,200,200,100,200,300,100,200,300,300,100,200,200,300,200,200,200,200,100,300,300,300,200,200,100,300,200,100,100,300,300,100,100,100,100,300,100,300,100,200,200,100,100,100,200,300,300,200,300,200,200,300,300,200,300,100,100,200,300,200,200,200,300,200,300,300,100,300,100,200,200,200,100,300,200,100,200,300,100,300,300,100,300,300,200],"left_num":[8,4,9,3,8,4,12,6,13,14,3,3,9,20,3,13,2,1,13,6,8,1,11,13,13,12,4,3,14,3,4,10,3,13,1,8,20,3,13,3,4,2,8,1,13,3,7,1,2,7,7,7,1,6,4,1,4,7,6,9,1,9,8,1,4,3,10,15,3,11,7,6,1,17,6,9,7,6,3,7,4,2,1,1,21,3,3,2,7,11,6,13,8,12,3,14,7,3,3,9,3,3,3,7,3,1,6,6,4,4,1,1,11,8,11,1,1,3,1,1],"right_num":[7,1,8,4,2,8,2,13,12,12,4,9,14,9,2,12,11,18,12,5,9,2,6,6,12,2,2,1,12,11,2,3,11,12,8,1,9,11,6,14,2,8,7,19,12,4,12,21,6,14,2,8,21,11,6,11,2,4,7,6,11,4,1,3,2,4,9,13,2,4,20,5,3,10,11,13,9,5,4,8,2,10,2,8,2,7,2,12,4,4,15,6,3,2,14,6,4,4,9,3,4,4,4,15,11,3,3,5,2,6,18,2,2,6,4,3,8,4,6,21],"left_den":[15,30,15,6,16,5,30,10,26,30,20,12,15,25,6,26,5,2,26,20,10,3,22,26,26,24,20,10,30,5,20,25,4,26,2,20,25,4,26,6,20,4,15,3,26,6,10,2,4,10,21,10,2,10,5,5,20,15,12,18,5,20,20,2,20,6,25,25,6,22,14,20,5,30,20,30,14,20,6,10,20,20,3,30,30,10,6,10,15,22,12,26,15,24,6,30,15,6,12,10,6,20,6,14,4,2,15,20,20,5,2,3,22,16,22,2,2,6,5,2],"right_den":[21,3,16,20,5,16,4,26,15,18,16,20,28,15,10,15,22,30,20,25,18,15,15,10,15,10,4,2,18,22,4,10,20,15,20,2,15,20,10,20,4,20,21,30,15,10,24,30,30,28,15,16,30,22,12,22,4,6,10,10,22,16,2,5,4,5,18,26,5,10,25,25,6,15,22,26,15,25,10,16,4,25,15,24,4,14,10,24,6,20,25,10,9,10,20,9,6,5,20,5,20,16,20,25,20,10,15,25,4,10,30,15,10,10,20,15,20,5,12,30],"correct_side":[1,2,1,1,1,1,2,1,2,2,2,2,1,1,1,2,2,2,2,1,1,1,1,2,2,1,2,2,2,1,2,1,1,2,1,2,1,1,2,2,2,1,1,2,2,1,1,2,1,1,1,1,2,1,1,2,2,2,2,2,2,1,2,2,2,2,2,1,1,1,2,1,2,2,2,2,2,1,1,1,2,2,1,2,1,2,1,2,2,1,2,2,1,1,2,2,2,2,2,1,1,2,1,2,1,1,1,1,2,1,2,1,1,2,1,1,1,2,2,2],"img_shown":["img2/200/Congruent/L/C_Dist_200_LN_8_LD_15_RN_7_RD_21_0.png","img2/200/Incongruent/R/I_Dist_200_LN_4_LD_30_RN_1_RD_3_1.png","img2/100/Congruent/L/C_Dist_100_LN_9_LD_15_RN_8_RD_16_0.png","img2/300/Incongruent/L/I_Dist_300_LN_3_LD_6_RN_4_RD_20_0.png","img2/100/Congruent/L/C_Dist_100_LN_8_LD_16_RN_2_RD_5_0.png","img2/300/Incongruent/L/I_Dist_300_LN_4_LD_5_RN_8_RD_16_0.png","img2/100/Incongruent/R/I_Dist_100_LN_12_LD_30_RN_2_RD_4_1.png","img2/100/Incongruent/L/I_Dist_100_LN_6_LD_10_RN_13_RD_26_0.png","img2/300/Incongruent/R/I_Dist_300_LN_13_LD_26_RN_12_RD_15_1.png","img2/200/Incongruent/R/I_Dist_200_LN_14_LD_30_RN_12_RD_18_1.png","img2/100/Congruent/R/C_Dist_100_LN_3_LD_20_RN_4_RD_16_1.png","img2/200/Congruent/R/C_Dist_200_LN_3_LD_12_RN_9_RD_20_1.png","img2/100/Incongruent/L/I_Dist_100_LN_9_LD_15_RN_14_RD_28_0.png","img2/200/Congruent/L/C_Dist_200_LN_20_LD_25_RN_9_RD_15_0.png","img2/300/Congruent/L/C_Dist_300_LN_3_LD_6_RN_2_RD_10_0.png","img2/300/Incongruent/R/I_Dist_300_LN_13_LD_26_RN_12_RD_15_1.png","img2/100/Congruent/R/C_Dist_100_LN_2_LD_5_RN_11_RD_22_1.png","img2/100/Congruent/R/C_Dist_100_LN_1_LD_2_RN_18_RD_30_1.png","img2/100/Incongruent/R/I_Dist_100_LN_13_LD_26_RN_12_RD_20_1.png","img2/100/Congruent/L/C_Dist_100_LN_6_LD_20_RN_5_RD_25_0.png","img2/300/Incongruent/L/I_Dist_300_LN_8_LD_10_RN_9_RD_18_0.png","img2/200/Incongruent/L/I_Dist_200_LN_1_LD_3_RN_2_RD_15_0.png","img2/100/Congruent/L/C_Dist_100_LN_11_LD_22_RN_6_RD_15_0.png","img2/100/Incongruent/R/I_Dist_100_LN_13_LD_26_RN_6_RD_10_1.png","img2/300/Incongruent/R/I_Dist_300_LN_13_LD_26_RN_12_RD_15_1.png","img2/300/Congruent/L/C_Dist_300_LN_12_LD_24_RN_2_RD_10_0.png","img2/300/Incongruent/R/I_Dist_300_LN_4_LD_20_RN_2_RD_4_1.png","img2/200/Incongruent/R/I_Dist_200_LN_3_LD_10_RN_1_RD_2_1.png","img2/200/Incongruent/R/I_Dist_200_LN_14_LD_30_RN_12_RD_18_1.png","img2/100/Incongruent/L/I_Dist_100_LN_3_LD_5_RN_11_RD_22_0.png","img2/300/Incongruent/R/I_Dist_300_LN_4_LD_20_RN_2_RD_4_1.png","img2/100/Congruent/L/C_Dist_100_LN_10_LD_25_RN_3_RD_10_0.png","img2/200/Incongruent/L/I_Dist_200_LN_3_LD_4_RN_11_RD_20_0.png","img2/300/Incongruent/R/I_Dist_300_LN_13_LD_26_RN_12_RD_15_1.png","img2/100/Incongruent/L/I_Dist_100_LN_1_LD_2_RN_8_RD_20_0.png","img2/100/Incongruent/R/I_Dist_100_LN_8_LD_20_RN_1_RD_2_1.png","img2/200/Congruent/L/C_Dist_200_LN_20_LD_25_RN_9_RD_15_0.png","img2/200/Incongruent/L/I_Dist_200_LN_3_LD_4_RN_11_RD_20_0.png","img2/100/Incongruent/R/I_Dist_100_LN_13_LD_26_RN_6_RD_10_1.png","img2/200/Congruent/R/C_Dist_200_LN_3_LD_6_RN_14_RD_20_1.png","img2/300/Incongruent/R/I_Dist_300_LN_4_LD_20_RN_2_RD_4_1.png","img2/100/Incongruent/L/I_Dist_100_LN_2_LD_4_RN_8_RD_20_0.png","img2/200/Congruent/L/C_Dist_200_LN_8_LD_15_RN_7_RD_21_0.png","img2/300/Congruent/R/C_Dist_300_LN_1_LD_3_RN_19_RD_30_1.png","img2/300/Incongruent/R/I_Dist_300_LN_13_LD_26_RN_12_RD_15_1.png","img2/100/Incongruent/L/I_Dist_100_LN_3_LD_6_RN_4_RD_10_0.png","img2/200/Incongruent/L/I_Dist_200_LN_7_LD_10_RN_12_RD_24_0.png","img2/200/Congruent/R/C_Dist_200_LN_1_LD_2_RN_21_RD_30_1.png","img2/300/Incongruent/L/I_Dist_300_LN_2_LD_4_RN_6_RD_30_0.png","img2/200/Incongruent/L/I_Dist_200_LN_7_LD_10_RN_14_RD_28_0.png","img2/200/Congruent/L/C_Dist_200_LN_7_LD_21_RN_2_RD_15_0.png","img2/200/Incongruent/L/I_Dist_200_LN_7_LD_10_RN_8_RD_16_0.png","img2/200/Congruent/R/C_Dist_200_LN_1_LD_2_RN_21_RD_30_1.png","img2/100/Incongruent/L/I_Dist_100_LN_6_LD_10_RN_11_RD_22_0.png","img2/300/Incongruent/L/I_Dist_300_LN_4_LD_5_RN_6_RD_12_0.png","img2/300/Congruent/R/C_Dist_300_LN_1_LD_5_RN_11_RD_22_1.png","img2/300/Incongruent/R/I_Dist_300_LN_4_LD_20_RN_2_RD_4_1.png","img2/200/Incongruent/R/I_Dist_200_LN_7_LD_15_RN_4_RD_6_1.png","img2/200/Congruent/R/C_Dist_200_LN_6_LD_12_RN_7_RD_10_1.png","img2/100/Incongruent/R/I_Dist_100_LN_9_LD_18_RN_6_RD_10_1.png","img2/300/Congruent/R/C_Dist_300_LN_1_LD_5_RN_11_RD_22_1.png","img2/200/Congruent/L/C_Dist_200_LN_9_LD_20_RN_4_RD_16_0.png","img2/100/Incongruent/R/I_Dist_100_LN_8_LD_20_RN_1_RD_2_1.png","img2/100/Congruent/R/C_Dist_100_LN_1_LD_2_RN_3_RD_5_1.png","img2/300/Incongruent/R/I_Dist_300_LN_4_LD_20_RN_2_RD_4_1.png","img2/300/Congruent/R/C_Dist_300_LN_3_LD_6_RN_4_RD_5_1.png","img2/100/Incongruent/R/I_Dist_100_LN_10_LD_25_RN_9_RD_18_1.png","img2/100/Congruent/L/C_Dist_100_LN_15_LD_25_RN_13_RD_26_0.png","img2/100/Congruent/L/C_Dist_100_LN_3_LD_6_RN_2_RD_5_0.png","img2/100/Congruent/L/C_Dist_100_LN_11_LD_22_RN_4_RD_10_0.png","img2/300/Congruent/R/C_Dist_300_LN_7_LD_14_RN_20_RD_25_1.png","img2/100/Congruent/L/C_Dist_100_LN_6_LD_20_RN_5_RD_25_0.png","img2/300/Congruent/R/C_Dist_300_LN_1_LD_5_RN_3_RD_6_1.png","img2/100/Incongruent/R/I_Dist_100_LN_17_LD_30_RN_10_RD_15_1.png","img2/200/Congruent/R/C_Dist_200_LN_6_LD_20_RN_11_RD_22_1.png","img2/200/Congruent/R/C_Dist_200_LN_9_LD_30_RN_13_RD_26_1.png","img2/100/Congruent/R/C_Dist_100_LN_7_LD_14_RN_9_RD_15_1.png","img2/100/Congruent/L/C_Dist_100_LN_6_LD_20_RN_5_RD_25_0.png","img2/100/Incongruent/L/I_Dist_100_LN_3_LD_6_RN_4_RD_10_0.png","img2/200/Incongruent/L/I_Dist_200_LN_7_LD_10_RN_8_RD_16_0.png","img2/300/Incongruent/R/I_Dist_300_LN_4_LD_20_RN_2_RD_4_1.png","img2/300/Congruent/R/C_Dist_300_LN_2_LD_20_RN_10_RD_25_1.png","img2/200/Incongruent/L/I_Dist_200_LN_1_LD_3_RN_2_RD_15_0.png","img2/300/Congruent/R/C_Dist_300_LN_1_LD_30_RN_8_RD_24_1.png","img2/200/Congruent/L/C_Dist_200_LN_21_LD_30_RN_2_RD_4_0.png","img2/200/Congruent/R/C_Dist_200_LN_3_LD_10_RN_7_RD_14_1.png","img2/300/Congruent/L/C_Dist_300_LN_3_LD_6_RN_2_RD_10_0.png","img2/300/Congruent/R/C_Dist_300_LN_2_LD_10_RN_12_RD_24_1.png","img2/200/Incongruent/R/I_Dist_200_LN_7_LD_15_RN_4_RD_6_1.png","img2/300/Congruent/L/C_Dist_300_LN_11_LD_22_RN_4_RD_20_0.png","img2/100/Congruent/R/C_Dist_100_LN_6_LD_12_RN_15_RD_25_1.png","img2/100/Incongruent/R/I_Dist_100_LN_13_LD_26_RN_6_RD_10_1.png","img2/200/Congruent/L/C_Dist_200_LN_8_LD_15_RN_3_RD_9_0.png","img2/300/Congruent/L/C_Dist_300_LN_12_LD_24_RN_2_RD_10_0.png","img2/200/Congruent/R/C_Dist_200_LN_3_LD_6_RN_14_RD_20_1.png","img2/200/Incongruent/R/I_Dist_200_LN_14_LD_30_RN_6_RD_9_1.png","img2/200/Incongruent/R/I_Dist_200_LN_7_LD_15_RN_4_RD_6_1.png","img2/300/Congruent/R/C_Dist_300_LN_3_LD_6_RN_4_RD_5_1.png","img2/200/Congruent/R/C_Dist_200_LN_3_LD_12_RN_9_RD_20_1.png","img2/300/Congruent/L/C_Dist_300_LN_9_LD_10_RN_3_RD_5_0.png","img2/300/Incongruent/L/I_Dist_300_LN_3_LD_6_RN_4_RD_20_0.png","img2/100/Congruent/R/C_Dist_100_LN_3_LD_20_RN_4_RD_16_1.png","img2/300/Incongruent/L/I_Dist_300_LN_3_LD_6_RN_4_RD_20_0.png","img2/100/Congruent/R/C_Dist_100_LN_7_LD_14_RN_15_RD_25_1.png","img2/200/Incongruent/L/I_Dist_200_LN_3_LD_4_RN_11_RD_20_0.png","img2/200/Incongruent/L/I_Dist_200_LN_1_LD_2_RN_3_RD_10_0.png","img2/200/Congruent/L/C_Dist_200_LN_6_LD_15_RN_3_RD_15_0.png","img2/100/Congruent/L/C_Dist_100_LN_6_LD_20_RN_5_RD_25_0.png","img2/300/Incongruent/R/I_Dist_300_LN_4_LD_20_RN_2_RD_4_1.png","img2/200/Incongruent/L/I_Dist_200_LN_4_LD_5_RN_6_RD_10_0.png","img2/100/Congruent/R/C_Dist_100_LN_1_LD_2_RN_18_RD_30_1.png","img2/200/Incongruent/L/I_Dist_200_LN_1_LD_3_RN_2_RD_15_0.png","img2/300/Congruent/L/C_Dist_300_LN_11_LD_22_RN_2_RD_10_0.png","img2/100/Incongruent/R/I_Dist_100_LN_8_LD_16_RN_6_RD_10_1.png","img2/300/Congruent/L/C_Dist_300_LN_11_LD_22_RN_4_RD_20_0.png","img2/300/Incongruent/L/I_Dist_300_LN_1_LD_2_RN_3_RD_15_0.png","img2/100/Incongruent/L/I_Dist_100_LN_1_LD_2_RN_8_RD_20_0.png","img2/300/Congruent/R/C_Dist_300_LN_3_LD_6_RN_4_RD_5_1.png","img2/300/Congruent/R/C_Dist_300_LN_1_LD_5_RN_6_RD_12_1.png","img2/200/Congruent/R/C_Dist_200_LN_1_LD_2_RN_21_RD_30_1.png"],"dist100_C":[["C_Dist_100_LN_10_LD_25_RN_3_RD_10_0.png","C_Dist_100_LN_11_LD_22_RN_4_RD_10_0.png","C_Dist_100_LN_11_LD_22_RN_6_RD_15_0.png","C_Dist_100_LN_15_LD_25_RN_13_RD_26_0.png","C_Dist_100_LN_3_LD_6_RN_2_RD_5_0.png","C_Dist_100_LN_6_LD_20_RN_5_RD_25_0.png","C_Dist_100_LN_8_LD_16_RN_2_RD_5_0.png","C_Dist_100_LN_9_LD_15_RN_8_RD_16_0.png"],["C_Dist_100_LN_1_LD_2_RN_18_RD_30_1.png","C_Dist_100_LN_1_LD_2_RN_3_RD_5_1.png","C_Dist_100_LN_12_LD_30_RN_13_RD_26_1.png","C_Dist_100_LN_2_LD_5_RN_11_RD_22_1.png","C_Dist_100_LN_2_LD_5_RN_6_RD_12_1.png","C_Dist_100_LN_3_LD_20_RN_4_RD_16_1.png","C_Dist_100_LN_4_LD_10_RN_15_RD_30_1.png","C_Dist_100_LN_4_LD_8_RN_6_RD_10_1.png","C_Dist_100_LN_6_LD_12_RN_15_RD_25_1.png","C_Dist_100_LN_7_LD_14_RN_15_RD_25_1.png","C_Dist_100_LN_7_LD_14_RN_9_RD_15_1.png"]],"dist100_I":[["I_Dist_100_LN_1_LD_2_RN_8_RD_20_0.png","I_Dist_100_LN_2_LD_4_RN_6_RD_15_0.png","I_Dist_100_LN_2_LD_4_RN_8_RD_20_0.png","I_Dist_100_LN_3_LD_5_RN_11_RD_22_0.png","I_Dist_100_LN_3_LD_5_RN_8_RD_16_0.png","I_Dist_100_LN_3_LD_6_RN_4_RD_10_0.png","I_Dist_100_LN_3_LD_9_RN_7_RD_30_0.png","I_Dist_100_LN_4_LD_8_RN_8_RD_20_0.png","I_Dist_100_LN_6_LD_10_RN_11_RD_22_0.png","I_Dist_100_LN_6_LD_10_RN_13_RD_26_0.png","I_Dist_100_LN_6_LD_10_RN_7_RD_14_0.png","I_Dist_100_LN_9_LD_10_RN_20_RD_25_0.png","I_Dist_100_LN_9_LD_15_RN_13_RD_26_0.png","I_Dist_100_LN_9_LD_15_RN_14_RD_28_0.png"],["I_Dist_100_LN_10_LD_25_RN_8_RD_16_1.png","I_Dist_100_LN_10_LD_25_RN_9_RD_18_1.png","I_Dist_100_LN_11_LD_22_RN_9_RD_15_1.png","I_Dist_100_LN_12_LD_24_RN_9_RD_15_1.png","I_Dist_100_LN_12_LD_30_RN_2_RD_4_1.png","I_Dist_100_LN_13_LD_26_RN_12_RD_20_1.png","I_Dist_100_LN_13_LD_26_RN_6_RD_10_1.png","I_Dist_100_LN_17_LD_30_RN_10_RD_15_1.png","I_Dist_100_LN_6_LD_12_RN_3_RD_5_1.png","I_Dist_100_LN_8_LD_16_RN_6_RD_10_1.png","I_Dist_100_LN_8_LD_20_RN_1_RD_2_1.png","I_Dist_100_LN_9_LD_18_RN_6_RD_10_1.png"]],"dist100_S":[["E_Dist_100_LN_2_LD_12_RN_2_RD_30_0.png","E_Dist_100_LN_6_LD_10_RN_6_RD_12_0.png"],["E_Dist_100_LN_6_LD_12_RN_6_RD_10_1.png"]],"dist200_C":[["C_Dist_200_LN_11_LD_22_RN_3_RD_10_0.png","C_Dist_200_LN_12_LD_15_RN_6_RD_10_0.png","C_Dist_200_LN_12_LD_20_RN_6_RD_15_0.png","C_Dist_200_LN_14_LD_28_RN_6_RD_20_0.png","C_Dist_200_LN_15_LD_25_RN_4_RD_10_0.png","C_Dist_200_LN_16_LD_20_RN_12_RD_20_0.png","C_Dist_200_LN_16_LD_30_RN_9_RD_27_0.png","C_Dist_200_LN_20_LD_25_RN_9_RD_15_0.png","C_Dist_200_LN_21_LD_30_RN_2_RD_4_0.png","C_Dist_200_LN_4_LD_10_RN_3_RD_15_0.png","C_Dist_200_LN_4_LD_8_RN_3_RD_10_0.png","C_Dist_200_LN_6_LD_15_RN_3_RD_15_0.png","C_Dist_200_LN_7_LD_21_RN_2_RD_15_0.png","C_Dist_200_LN_8_LD_15_RN_2_RD_6_0.png","C_Dist_200_LN_8_LD_15_RN_3_RD_9_0.png","C_Dist_200_LN_8_LD_15_RN_7_RD_21_0.png","C_Dist_200_LN_9_LD_20_RN_4_RD_16_0.png"],["C_Dist_200_LN_1_LD_2_RN_21_RD_30_1.png","C_Dist_200_LN_13_LD_26_RN_14_RD_20_1.png","C_Dist_200_LN_3_LD_10_RN_11_RD_22_1.png","C_Dist_200_LN_3_LD_10_RN_14_RD_28_1.png","C_Dist_200_LN_3_LD_10_RN_7_RD_14_1.png","C_Dist_200_LN_3_LD_12_RN_9_RD_20_1.png","C_Dist_200_LN_3_LD_6_RN_14_RD_20_1.png","C_Dist_200_LN_5_LD_10_RN_14_RD_20_1.png","C_Dist_200_LN_6_LD_12_RN_7_RD_10_1.png","C_Dist_200_LN_6_LD_20_RN_11_RD_22_1.png","C_Dist_200_LN_7_LD_15_RN_18_RD_27_1.png","C_Dist_200_LN_9_LD_30_RN_13_RD_26_1.png"]],"dist200_I":[["I_Dist_200_LN_1_LD_2_RN_3_RD_10_0.png","I_Dist_200_LN_1_LD_3_RN_2_RD_15_0.png","I_Dist_200_LN_3_LD_4_RN_11_RD_20_0.png","I_Dist_200_LN_4_LD_5_RN_6_RD_10_0.png","I_Dist_200_LN_4_LD_6_RN_14_RD_30_0.png","I_Dist_200_LN_7_LD_10_RN_12_RD_24_0.png","I_Dist_200_LN_7_LD_10_RN_14_RD_28_0.png","I_Dist_200_LN_7_LD_10_RN_8_RD_16_0.png"],["I_Dist_200_LN_11_LD_20_RN_3_RD_4_1.png","I_Dist_200_LN_14_LD_30_RN_12_RD_18_1.png","I_Dist_200_LN_14_LD_30_RN_6_RD_9_1.png","I_Dist_200_LN_3_LD_10_RN_1_RD_2_1.png","I_Dist_200_LN_4_LD_30_RN_1_RD_3_1.png","I_Dist_200_LN_6_LD_20_RN_3_RD_6_1.png","I_Dist_200_LN_7_LD_15_RN_4_RD_6_1.png","I_Dist_200_LN_7_LD_15_RN_6_RD_9_1.png","I_Dist_200_LN_9_LD_15_RN_8_RD_10_1.png"]],"dist200_S":[["E_Dist_200_LN_3_LD_6_RN_3_RD_10_0.png"],["E_Dist_200_LN_3_LD_10_RN_3_RD_6_1.png"]],"dist300_C":[["C_Dist_300_LN_11_LD_22_RN_1_RD_5_0.png","C_Dist_300_LN_11_LD_22_RN_2_RD_10_0.png","C_Dist_300_LN_11_LD_22_RN_4_RD_20_0.png","C_Dist_300_LN_12_LD_24_RN_2_RD_10_0.png","C_Dist_300_LN_18_LD_20_RN_9_RD_15_0.png","C_Dist_300_LN_20_LD_25_RN_13_RD_26_0.png","C_Dist_300_LN_20_LD_25_RN_14_RD_28_0.png","C_Dist_300_LN_20_LD_25_RN_5_RD_10_0.png","C_Dist_300_LN_20_LD_25_RN_8_RD_16_0.png","C_Dist_300_LN_20_LD_25_RN_9_RD_18_0.png","C_Dist_300_LN_24_LD_30_RN_2_RD_4_0.png","C_Dist_300_LN_24_LD_30_RN_8_RD_16_0.png","C_Dist_300_LN_3_LD_6_RN_2_RD_10_0.png","C_Dist_300_LN_4_LD_10_RN_1_RD_10_0.png","C_Dist_300_LN_4_LD_5_RN_2_RD_4_0.png","C_Dist_300_LN_8_LD_16_RN_1_RD_5_0.png","C_Dist_300_LN_9_LD_10_RN_3_RD_5_0.png"],["C_Dist_300_LN_1_LD_20_RN_7_RD_20_1.png","C_Dist_300_LN_1_LD_3_RN_19_RD_30_1.png","C_Dist_300_LN_1_LD_30_RN_8_RD_24_1.png","C_Dist_300_LN_1_LD_5_RN_11_RD_22_1.png","C_Dist_300_LN_1_LD_5_RN_3_RD_6_1.png","C_Dist_300_LN_1_LD_5_RN_6_RD_12_1.png","C_Dist_300_LN_2_LD_10_RN_12_RD_24_1.png","C_Dist_300_LN_2_LD_20_RN_10_RD_25_1.png","C_Dist_300_LN_3_LD_12_RN_11_RD_20_1.png","C_Dist_300_LN_3_LD_6_RN_4_RD_5_1.png","C_Dist_300_LN_4_LD_20_RN_13_RD_26_1.png","C_Dist_300_LN_5_LD_25_RN_6_RD_12_1.png","C_Dist_300_LN_5_LD_25_RN_7_RD_14_1.png","C_Dist_300_LN_7_LD_14_RN_20_RD_25_1.png","C_Dist_300_LN_8_LD_15_RN_10_RD_12_1.png"]],"dist300_I":[["I_Dist_300_LN_1_LD_2_RN_2_RD_10_0.png","I_Dist_300_LN_1_LD_2_RN_3_RD_15_0.png","I_Dist_300_LN_2_LD_4_RN_6_RD_30_0.png","I_Dist_300_LN_3_LD_6_RN_4_RD_20_0.png","I_Dist_300_LN_4_LD_5_RN_6_RD_12_0.png","I_Dist_300_LN_4_LD_5_RN_8_RD_16_0.png","I_Dist_300_LN_7_LD_10_RN_8_RD_20_0.png","I_Dist_300_LN_8_LD_10_RN_14_RD_28_0.png","I_Dist_300_LN_8_LD_10_RN_9_RD_18_0.png"],["I_Dist_300_LN_13_LD_26_RN_12_RD_15_1.png","I_Dist_300_LN_4_LD_20_RN_2_RD_4_1.png"]],"dist300_S":[["E_Dist_300_LN_9_LD_12_RN_9_RD_20_0.png"],["E_Dist_300_LN_18_LD_30_RN_18_RD_20_1.png","E_Dist_300_LN_3_LD_10_RN_3_RD_5_1.png","E_Dist_300_LN_9_LD_20_RN_9_RD_12_1.png"]],"dist500_C":[["C_Dist_500_LN_10_LD_13_RN_7_RD_26_0.png","C_Dist_500_LN_10_LD_15_RN_4_RD_24_0.png","C_Dist_500_LN_12_LD_16_RN_3_RD_12_0.png","C_Dist_500_LN_12_LD_18_RN_4_RD_24_0.png","C_Dist_500_LN_15_LD_18_RN_5_RD_15_0.png","C_Dist_500_LN_15_LD_20_RN_1_RD_4_0.png","C_Dist_500_LN_18_LD_27_RN_1_RD_6_0.png","C_Dist_500_LN_20_LD_24_RN_1_RD_3_0.png","C_Dist_500_LN_20_LD_24_RN_3_RD_9_0.png","C_Dist_500_LN_20_LD_24_RN_7_RD_21_0.png","C_Dist_500_LN_20_LD_28_RN_3_RD_14_0.png","C_Dist_500_LN_21_LD_28_RN_6_RD_24_0.png","C_Dist_500_LN_22_LD_28_RN_2_RD_7_0.png","C_Dist_500_LN_25_LD_30_RN_9_RD_27_0.png","C_Dist_500_LN_4_LD_6_RN_1_RD_6_0.png","C_Dist_500_LN_5_LD_6_RN_2_RD_6_0.png","C_Dist_500_LN_6_LD_9_RN_1_RD_6_0.png","C_Dist_500_LN_7_LD_10_RN_1_RD_5_0.png","C_Dist_500_LN_8_LD_12_RN_1_RD_6_0.png","C_Dist_500_LN_8_LD_12_RN_4_RD_24_0.png"],["C_Dist_500_LN_1_LD_4_RN_12_RD_16_1.png","C_Dist_500_LN_1_LD_4_RN_9_RD_12_1.png","C_Dist_500_LN_1_LD_9_RN_11_RD_18_1.png","C_Dist_500_LN_10_LD_24_RN_22_RD_24_1.png","C_Dist_500_LN_2_LD_12_RN_10_RD_15_1.png","C_Dist_500_LN_2_LD_12_RN_12_RD_18_1.png","C_Dist_500_LN_2_LD_12_RN_4_RD_6_1.png","C_Dist_500_LN_2_LD_24_RN_7_RD_12_1.png","C_Dist_500_LN_2_LD_5_RN_18_RD_20_1.png","C_Dist_500_LN_2_LD_5_RN_9_RD_10_1.png","C_Dist_500_LN_2_LD_8_RN_12_RD_16_1.png","C_Dist_500_LN_2_LD_8_RN_21_RD_28_1.png","C_Dist_500_LN_3_LD_10_RN_4_RD_5_1.png","C_Dist_500_LN_3_LD_12_RN_15_RD_20_1.png","C_Dist_500_LN_3_LD_30_RN_6_RD_10_1.png","C_Dist_500_LN_3_LD_8_RN_14_RD_16_1.png","C_Dist_500_LN_4_LD_16_RN_15_RD_20_1.png","C_Dist_500_LN_4_LD_24_RN_12_RD_18_1.png","C_Dist_500_LN_5_LD_14_RN_6_RD_7_1.png","C_Dist_500_LN_7_LD_21_RN_20_RD_24_1.png","C_Dist_500_LN_7_LD_28_RN_12_RD_16_1.png","C_Dist_500_LN_7_LD_28_RN_9_RD_12_1.png","C_Dist_500_LN_9_LD_27_RN_20_RD_24_1.png"]],"dist500_I":[["I_Dist_500_LN_2_LD_3_RN_4_RD_24_0.png","I_Dist_500_LN_5_LD_6_RN_6_RD_18_0.png","I_Dist_500_LN_7_LD_8_RN_9_RD_24_0.png"],["I_Dist_500_LN_7_LD_21_RN_5_RD_6_1.png"]],"dist500_S":[["E_Dist_500_LN_6_LD_8_RN_6_RD_24_0.png"],["E_Dist_500_LN_2_LD_12_RN_2_RD_3_1.png","E_Dist_500_LN_6_LD_24_RN_6_RD_8_1.png"]]}},{"start_time":1552308347312,"click_time":1552308349871,"finger_time":1552308349510,"fix_duration":500.48838747993295,"trial":1,"RT":2198,"MT":361,"sideResp":1,"stimulus":[],"xmouse":[787,787,787,787,787,787,787,787,787,787,787,787,787,787,787,787,787,787,787,787,787,787,787,787,787,787,787,787,787,787,787,787,787,787,787,787,787,787,787,787,787,787,787,787,787,787,787,787,787,787,787,787,787,787,787,787,787,787,787,787,787,787,787,787,787,787,787,787,787,787,787,787,787,787,787,787,787,787,787,787,787,787,787,787,787,787,787,787,787,787,787,787,787,787,787,787,787,787,787,787,787,787,787,786,786,786,780,767,752,717,681,643,607,577,556,543,530,530,530,530,530,530,530,530,530,530,530,443],"ymouse":[535,535,535,535,535,535,535,535,535,535,535,535,535,535,535,535,535,535,535,535,535,535,535,535,535,535,535,535,535,535,535,535,535,535,535,535,535,535,535,535,535,535,535,535,535,535,535,535,535,535,535,535,535,535,535,535,535,535,535,535,535,535,535,535,535,535,535,535,535,535,535,535,535,535,535,535,535,535,535,535,535,535,535,535,535,535,535,535,535,535,535,535,535,535,535,535,531,530,529,529,529,529,529,528,528,528,523,515,503,450,393,327,260,196,124,63,19,19,19,19,19,19,19,19,19,19,19,2],"timestamp_mouse":[18,39,58,78,98,118,139,158,178,198,219,238,258,278,298,318,338,358,378,398,418,439,458,478,498,518,538,558,578,598,619,638,657,677,699,718,738,758,779,798,819,838,858,878,898,918,938,958,978,998,1018,1038,1057,1077,1098,1118,1138,1159,1178,1198,1219,1238,1259,1278,1298,1319,1338,1358,1378,1398,1418,1439,1458,1479,1499,1519,1539,1559,1578,1598,1618,1638,1658,1678,1698,1718,1738,1757,1779,1798,1819,1838,1858,1879,1898,1917,1939,1959,1978,1999,2018,2039,2058,2078,2098,2118,2138,2159,2178,2198,2218,2238,2258,2279,2299,2318,2338,2359,2379,2398,2418,2438,2459,2478,2498,2518,2539,2559],"xSR":741.5,"ySR":469.95,"xT1":424.9,"yT1":0,"xT2":1058.1,"yT2":0,"toosoon":0,"cond_shown":"Incongruent","ratio_trial":200,"L_num":4,"L_den":30,"R_num":1,"R_den":3,"correct_side":2,"subjID":"Juandavidalfonso4","gender":"0","school":"4","age":"9"},{"start_time":1552308354228,"click_time":1552308356330,"finger_time":1552308355930,"fix_duration":1018.1279410621485,"trial":2,"RT":1702,"MT":400,"sideResp":1,"stimulus":[],"xmouse":[787,787,787,787,787,787,787,787,787,787,787,787,787,787,787,787,787,787,787,787,787,787,787,787,787,787,787,787,787,787,787,787,787,787,787,787,787,787,787,787,787,787,787,787,787,787,787,787,787,787,787,787,787,787,787,787,787,787,787,787,787,787,787,787,787,787,787,787,787,787,787,787,787,787,787,787,787,787,787,787,787,780,771,759,754,710,683,652,634,617,592,587,583,580,579,570,565,557,551,547,539,536,530,524,519,508],"ymouse":[540,540,540,540,540,540,540,540,540,540,540,540,540,540,540,540,540,540,540,540,540,540,540,540,540,540,540,540,540,540,540,540,540,540,540,540,540,540,540,540,540,540,540,540,540,540,540,540,540,540,540,540,540,540,540,540,540,540,540,540,540,540,540,540,540,540,540,540,540,540,540,540,540,540,540,540,540,540,540,540,535,519,504,486,475,409,367,321,278,251,218,208,203,196,189,171,166,159,154,150,142,137,126,114,103,76],"timestamp_mouse":[4,23,42,62,82,102,122,142,162,182,202,222,242,262,282,302,322,342,362,382,402,422,442,462,482,502,523,542,562,582,603,622,642,662,683,702,723,741,763,782,802,822,843,862,882,903,922,942,962,983,1001,1022,1042,1062,1083,1102,1122,1142,1163,1183,1202,1223,1242,1263,1283,1303,1322,1342,1362,1382,1402,1422,1442,1462,1482,1501,1522,1542,1563,1583,1602,1622,1642,1663,1682,1702,1723,1742,1762,1782,1802,1823,1843,1862,1882,1902,1923,1942,1962,1983,2002,2022,2043,2063,2081,2102],"xSR":741.5,"ySR":469.95,"xT1":424.9,"yT1":0,"xT2":1058.1,"yT2":0,"toosoon":0,"cond_shown":"Congruent","ratio_trial":100,"L_num":9,"L_den":15,"R_num":8,"R_den":16,"correct_side":1,"subjID":"Juandavidalfonso4","gender":"0","school":"4","age":"9"},{"start_time":1552308360281,"click_time":1552308362032,"finger_time":1552308361891,"fix_duration":250,"trial":3,"RT":1610,"MT":141,"sideResp":1,"stimulus":[],"xmouse":[802,802,802,802,802,802,802,802,802,802,802,802,802,802,802,802,802,802,802,802,802,802,802,802,802,802,802,802,802,802,802,802,802,802,802,802,802,802,802,802,802,802,802,802,802,802,802,802,802,802,802,802,802,802,802,802,802,802,802,802,802,802,802,802,802,802,802,802,802,802,802,802,802,802,802,800,799,793,765,745,728,703,676,605,564,523,491,448],"ymouse":[518,518,518,518,518,518,518,518,518,518,518,518,518,518,518,518,518,518,518,518,518,518,518,518,518,518,518,518,518,518,518,518,518,518,518,518,518,518,518,518,518,518,518,518,518,518,518,518,518,518,518,518,518,518,518,518,518,518,518,518,518,518,518,518,518,518,518,518,518,518,518,518,518,518,518,518,517,516,503,489,472,448,417,334,272,200,133,30],"timestamp_mouse":[10,31,48,69,88,108,129,149,170,189,209,230,249,269,289,310,329,349,370,389,410,429,449,469,489,510,529,549,569,589,609,630,649,669,689,709,729,749,769,789,808,828,848,869,889,909,929,950,969,989,1009,1029,1049,1068,1089,1109,1129,1149,1170,1190,1208,1229,1250,1269,1289,1309,1329,1349,1369,1390,1408,1428,1449,1469,1489,1510,1529,1549,1569,1590,1610,1629,1651,1669,1690,1709,1729,1751],"xSR":741.5,"ySR":469.95,"xT1":424.9,"yT1":0,"xT2":1058.1,"yT2":0,"toosoon":0,"cond_shown":"Incongruent","ratio_trial":300,"L_num":3,"L_den":6,"R_num":4,"R_den":20,"correct_side":1,"subjID":"Juandavidalfonso4","gender":"0","school":"4","age":"9"},{"start_time":1552308371543,"click_time":1552308374810,"finger_time":1552308374350,"fix_duration":250,"trial":4,"RT":2807,"MT":460,"sideResp":2,"stimulus":[],"xmouse":[787,787,787,787,787,787,787,787,787,787,787,787,787,787,787,787,787,787,787,787,787,787,787,787,787,787,787,787,787,787,787,787,787,787,787,787,787,787,787,787,787,787,787,787,787,787,787,787,787,787,787,787,787,787,787,787,787,787,787,787,787,787,787,787,787,787,787,787,787,787,787,787,787,787,787,787,787,787,787,787,787,787,787,787,787,787,787,787,787,787,787,787,787,787,787,787,787,787,787,787,787,787,787,787,787,787,787,787,787,787,787,787,787,787,787,787,787,787,787,787,787,787,787,787,787,787,787,791,793,793,793,793,793,793,793,795,803,811,823,838,860,952,992,1041,1089,1133,1172,1196,1211,1224,1231,1257,1258,1261,1262,1263,1260,1258,1254,1248,1217,1179,1167,1158],"ymouse":[515,515,515,515,515,515,515,515,515,515,515,515,515,515,515,515,515,515,515,515,515,515,515,515,515,515,515,515,515,515,515,515,515,515,515,515,515,515,515,515,515,515,515,515,515,515,515,515,515,515,515,515,515,515,515,515,515,515,515,515,515,515,515,515,515,515,515,515,515,515,515,515,515,515,515,515,515,515,515,515,515,515,515,515,515,515,515,515,515,515,515,515,515,515,515,515,515,515,515,515,515,515,515,515,515,515,515,515,515,515,515,515,515,515,515,515,515,515,515,515,515,515,515,515,515,516,521,527,530,531,531,531,531,531,531,532,534,535,535,530,521,465,433,379,320,260,192,143,115,89,75,32,28,21,17,15,13,13,13,13,20,29,33,36],"timestamp_mouse":[7,28,48,67,87,107,127,147,168,187,208,227,247,267,287,308,327,347,367,388,408,428,447,467,486,506,527,548,567,587,607,627,647,666,688,707,727,748,767,787,807,827,847,867,888,907,926,947,967,988,1006,1027,1047,1067,1087,1106,1126,1148,1167,1187,1208,1228,1246,1267,1288,1306,1327,1348,1367,1386,1408,1427,1446,1466,1487,1508,1527,1548,1567,1587,1607,1627,1647,1667,1687,1707,1727,1747,1767,1787,1807,1827,1847,1866,1886,1907,1926,1947,1967,1988,2007,2027,2046,2066,2088,2106,2126,2146,2166,2186,2207,2226,2247,2267,2288,2307,2326,2347,2366,2386,2406,2426,2447,2466,2487,2507,2527,2547,2567,2586,2606,2628,2647,2667,2688,2708,2726,2747,2767,2787,2807,2827,2847,2867,2888,2907,2927,2947,2967,2987,3007,3028,3048,3067,3087,3108,3127,3146,3168,3186,3206,3227,3246,3267],"xSR":741.5,"ySR":469.95,"xT1":424.9,"yT1":0,"xT2":1058.1,"yT2":0,"toosoon":0,"cond_shown":"Congruent","ratio_trial":100,"L_num":8,"L_den":16,"R_num":2,"R_den":5,"correct_side":1,"subjID":"Juandavidalfonso4","gender":"0","school":"4","age":"9"},{"start_time":1552308377216,"click_time":1552308378889,"finger_time":1552308378269,"fix_duration":1325.8747285574802,"trial":5,"RT":1053,"MT":620,"sideResp":1,"stimulus":[],"xmouse":[774,774,774,774,774,775,775,777,779,780,780,780,780,780,780,780,780,780,780,780,763,760,758,756,756,756,756,756,756,756,756,756,756,756,756,756,756,756,756,756,756,756,756,756,756,756,756,756,756,755,752,748,741,726,717,714,706,690,661,645,631,623,607,593,581,568,555,550,550,550,550,550,550,550,550,550,550,550,550,550,550,549,531,520],"ymouse":[560,560,560,560,560,559,559,553,548,547,547,547,547,547,547,547,547,547,547,547,533,529,527,526,526,526,526,526,526,526,526,526,526,526,526,526,526,526,526,526,526,526,526,526,526,526,526,526,526,523,515,504,488,452,431,424,404,371,306,268,238,216,186,163,147,126,108,98,98,98,98,98,98,98,98,98,98,98,98,98,98,96,88,83],"timestamp_mouse":[14,34,54,73,93,115,133,153,174,194,213,233,254,274,294,314,333,354,374,393,415,433,453,473,494,515,534,554,573,595,613,634,653,674,694,715,733,754,773,793,814,833,854,873,894,914,934,955,973,994,1014,1034,1053,1075,1094,1114,1134,1153,1174,1193,1214,1233,1255,1274,1295,1314,1334,1355,1374,1395,1415,1434,1453,1474,1493,1513,1533,1555,1574,1594,1613,1633,1655,1673],"xSR":741.5,"ySR":469.95,"xT1":424.9,"yT1":0,"xT2":1058.1,"yT2":0,"toosoon":0,"cond_shown":"Incongruent","ratio_trial":300,"L_num":4,"L_den":5,"R_num":8,"R_den":16,"correct_side":1,"subjID":"Juandavidalfonso4","gender":"0","school":"4","age":"9"},{"start_time":1552308392058,"click_time":1552308394210,"finger_time":1552308394110,"fix_duration":627.7251724701674,"trial":6,"RT":2052,"MT":100,"sideResp":2,"stimulus":[],"xmouse":[795,795,795,795,795,795,795,795,795,795,795,795,794,790,788,786,786,785,785,785,785,785,783,780,777,774,774,774,774,774,774,774,774,774,774,774,774,774,774,774,774,774,774,774,774,774,774,774,774,774,774,774,774,774,774,774,774,774,774,774,774,774,774,774,774,774,774,774,774,774,774,774,774,774,774,774,774,774,774,774,774,774,774,774,774,774,774,773,765,759,757,757,757,757,757,757,757,757,757,757,772,784,827,944,1014,1037,1093,1128],"ymouse":[529,529,529,529,529,529,529,529,529,529,529,529,529,527,526,526,526,525,525,525,525,525,523,521,520,519,519,519,519,519,519,519,519,519,519,519,519,519,519,519,519,519,519,519,519,519,519,519,519,519,519,519,519,519,519,519,519,519,519,519,519,519,519,519,519,519,519,519,519,519,519,519,519,519,519,519,519,519,519,519,519,519,519,519,519,519,519,519,508,501,500,500,500,500,500,500,500,500,500,500,486,475,438,334,250,219,135,79],"timestamp_mouse":[13,32,51,72,92,112,132,151,172,192,211,232,252,272,293,311,332,352,373,392,411,432,451,471,492,513,533,553,572,591,612,632,651,673,692,711,732,751,772,791,811,832,851,872,891,911,932,951,971,991,1011,1031,1053,1072,1092,1112,1133,1153,1171,1192,1211,1231,1251,1273,1291,1311,1332,1351,1373,1392,1412,1432,1452,1471,1492,1511,1531,1551,1572,1592,1612,1632,1651,1671,1692,1711,1731,1751,1771,1793,1813,1832,1852,1872,1891,1911,1932,1952,1971,1991,2011,2033,2052,2071,2092,2112,2133,2152],"xSR":741.5,"ySR":469.95,"xT1":424.9,"yT1":0,"xT2":1058.1,"yT2":0,"toosoon":0,"cond_shown":"Incongruent","ratio_trial":100,"L_num":12,"L_den":30,"R_num":2,"R_den":4,"correct_side":2,"subjID":"Juandavidalfonso4","gender":"0","school":"4","age":"9"},{"start_time":1552308397199,"click_time":1552308399170,"finger_time":1552308398789,"fix_duration":1368.7812171064652,"trial":7,"RT":1590,"MT":381,"sideResp":1,"stimulus":[],"xmouse":[794,794,794,794,794,794,794,794,794,794,794,794,794,794,794,794,794,794,794,794,794,794,794,794,794,794,794,794,794,794,794,794,794,794,794,794,794,794,794,794,794,794,794,794,794,794,794,794,794,794,794,794,794,794,794,794,794,794,794,794,794,794,794,794,794,794,794,794,794,794,794,794,794,794,794,794,794,792,779,759,741,702,681,658,642,633,624,623,621,616,611,604,602,597,589,575,520,505,497],"ymouse":[527,527,527,527,527,527,527,527,527,527,527,527,527,527,527,527,527,527,527,527,527,527,527,527,527,527,527,527,527,527,527,527,527,527,527,527,527,527,527,527,527,527,527,527,527,527,527,527,527,527,527,527,527,527,527,527,527,527,527,527,527,527,527,527,527,527,527,527,527,527,527,527,527,527,527,527,527,522,480,434,398,348,325,308,299,296,294,293,289,280,272,262,258,250,238,217,132,105,87],"timestamp_mouse":[11,31,51,70,90,111,130,150,171,190,210,230,251,270,290,311,331,351,372,392,411,432,450,470,492,511,531,551,571,590,612,631,651,671,691,712,731,752,771,791,811,831,852,871,891,911,931,952,971,992,1011,1031,1051,1071,1091,1110,1130,1150,1171,1190,1212,1232,1251,1271,1291,1310,1330,1351,1371,1391,1412,1431,1452,1470,1491,1510,1532,1551,1570,1590,1610,1630,1651,1670,1691,1710,1730,1751,1770,1791,1811,1830,1851,1870,1891,1910,1930,1951,1971],"xSR":741.5,"ySR":469.95,"xT1":424.9,"yT1":0,"xT2":1058.1,"yT2":0,"toosoon":0,"cond_shown":"Incongruent","ratio_trial":100,"L_num":6,"L_den":10,"R_num":13,"R_den":26,"correct_side":1,"subjID":"Juandavidalfonso4","gender":"0","school":"4","age":"9"},{"start_time":1552308402434,"click_time":1552308403811,"finger_time":1552308403409,"fix_duration":483.28317326616343,"trial":8,"RT":975,"MT":402,"sideResp":2,"stimulus":[],"xmouse":[770,770,770,770,770,770,770,770,770,770,770,770,770,770,770,770,770,770,770,770,770,770,770,770,770,770,770,770,770,770,770,770,770,770,770,770,770,770,770,770,770,770,770,770,770,776,798,825,854,879,920,957,985,1014,1116,1157,1186,1202,1202,1202,1202,1202,1202,1202,1202,1202,1202,1202,1088],"ymouse":[564,564,564,564,564,564,564,564,564,564,564,564,564,564,564,564,564,564,564,564,564,564,564,564,564,564,564,564,564,564,564,564,564,564,564,564,564,564,564,564,564,564,564,564,564,559,542,517,497,479,444,394,351,312,175,113,55,3,3,3,3,3,3,3,3,3,3,3,21],"timestamp_mouse":[18,36,57,77,97,117,136,156,177,196,217,236,256,276,295,315,336,355,376,395,416,435,455,476,496,516,536,555,576,595,615,636,655,676,695,715,735,756,776,796,816,836,856,876,895,915,935,956,975,996,1016,1035,1057,1076,1097,1115,1136,1155,1176,1196,1217,1237,1256,1277,1296,1316,1336,1356,1377],"xSR":741.5,"ySR":469.95,"xT1":424.9,"yT1":0,"xT2":1058.1,"yT2":0,"toosoon":0,"cond_shown":"Incongruent","ratio_trial":300,"L_num":13,"L_den":26,"R_num":12,"R_den":15,"correct_side":2,"subjID":"Juandavidalfonso4","gender":"0","school":"4","age":"9"},{"start_time":1552308419854,"click_time":1552308421571,"finger_time":1552308421210,"fix_duration":1003.0841509877702,"trial":9,"RT":1356,"MT":361,"sideResp":2,"stimulus":[],"xmouse":[786,786,786,786,786,786,786,786,786,786,786,786,786,786,786,786,786,786,786,786,786,786,786,786,786,786,786,786,786,786,786,786,786,786,786,786,786,786,786,786,786,786,786,786,786,786,786,786,786,786,786,786,786,786,786,786,786,786,786,786,786,786,786,786,786,786,786,801,819,846,914,939,964,1004,1004,1004,1004,1004,1004,1004,1004,1004,1004,1004,1004,1118],"ymouse":[513,513,513,513,513,513,513,513,513,513,513,513,513,513,513,513,513,513,513,513,513,513,513,513,513,513,513,513,513,513,513,513,513,513,513,513,513,513,513,513,513,513,513,513,513,513,513,513,513,513,513,513,513,513,513,513,513,513,513,513,513,513,513,513,513,513,504,458,410,352,233,176,119,21,21,21,21,21,21,21,21,21,21,21,21,8],"timestamp_mouse":[20,36,56,75,95,115,136,157,176,196,217,236,257,277,296,315,335,355,376,397,415,436,456,476,495,515,537,556,576,596,616,637,656,676,697,716,736,755,776,795,817,837,856,875,895,916,935,955,976,997,1016,1036,1056,1076,1096,1116,1137,1157,1176,1197,1216,1236,1257,1276,1297,1316,1335,1356,1375,1396,1417,1436,1457,1475,1496,1517,1536,1557,1576,1596,1617,1636,1657,1677,1696,1717],"xSR":741.5,"ySR":469.95,"xT1":424.9,"yT1":0,"xT2":1058.1,"yT2":0,"toosoon":0,"cond_shown":"Incongruent","ratio_trial":200,"L_num":14,"L_den":30,"R_num":12,"R_den":18,"correct_side":2,"subjID":"Juandavidalfonso4","gender":"0","school":"4","age":"9"},{"start_time":1552308424169,"click_time":1552308429430,"finger_time":1552308426590,"fix_duration":1098.0790719664085,"trial":10,"RT":2421,"MT":2840,"sideResp":2,"stimulus":[],"xmouse":[806,806,806,806,806,806,806,806,806,806,806,806,806,806,806,806,806,806,806,806,806,806,806,806,806,806,806,806,806,806,806,806,806,806,806,806,806,806,806,806,806,806,806,806,806,806,806,806,806,806,806,806,806,806,806,806,806,806,806,806,806,806,806,806,806,806,806,806,806,806,806,806,806,806,806,806,806,806,806,806,806,806,806,806,806,806,806,806,806,806,806,806,806,806,806,806,806,806,806,806,806,806,806,806,806,806,806,806,806,806,806,806,806,806,806,806,806,806,806,806,808,828,837,844,848,853,853,852,851,850,850,850,850,850,850,850,850,850,850,850,850,850,850,850,850,850,850,850,850,850,850,850,850,850,850,850,850,850,850,850,850,850,850,850,850,850,850,850,850,850,850,850,850,850,850,850,850,850,850,850,850,850,850,850,850,850,850,850,850,850,850,850,850,850,850,850,850,850,850,850,850,850,850,850,850,850,850,850,850,850,850,850,850,850,850,850,850,850,850,850,850,850,850,850,850,850,850,850,850,850,850,850,850,861,898,910,910,910,910,910,910,910,910,910,910,910,910,910,974,1015,1061,1140,1161,1183,1188,1195,1202,1223,1232,1238,1239,1207,1186,1157],"ymouse":[536,536,536,536,536,536,536,536,536,536,536,536,536,536,536,536,536,536,536,536,536,536,536,536,536,536,536,536,536,536,536,536,536,536,536,536,536,536,536,536,536,536,536,536,536,536,536,536,536,536,536,536,536,536,536,536,536,536,536,536,536,536,536,536,536,536,536,536,536,536,536,536,536,536,536,536,536,536,536,536,536,536,536,536,536,536,536,536,536,536,536,536,536,536,536,536,536,536,536,536,536,536,536,536,536,536,536,536,536,536,536,536,536,536,536,536,536,536,536,535,548,609,625,637,650,669,676,679,679,680,680,680,680,680,680,680,680,680,680,680,680,680,680,680,680,680,680,680,680,680,680,680,680,680,680,680,680,680,680,680,680,680,680,680,680,680,680,680,680,680,680,680,680,680,680,680,680,680,680,680,680,680,680,680,680,680,680,680,680,680,680,680,680,680,680,680,680,680,680,680,680,680,680,680,680,680,680,680,680,680,680,680,680,680,680,680,680,680,680,680,680,680,680,680,680,680,680,680,680,680,680,680,664,485,219,100,0,0,0,0,0,0,0,0,0,0,0,0,53,140,213,293,306,315,317,318,318,306,291,267,221,121,87,46],"timestamp_mouse":[4,24,41,61,81,101,122,142,161,181,201,222,241,260,280,300,320,340,361,380,400,421,440,460,481,501,520,540,561,582,602,621,641,661,681,701,721,741,761,781,800,820,841,860,880,900,920,940,962,981,1000,1021,1040,1061,1081,1102,1121,1140,1161,1180,1200,1221,1240,1261,1281,1302,1321,1341,1362,1381,1401,1420,1440,1460,1480,1500,1520,1540,1561,1581,1601,1621,1640,1660,1680,1700,1722,1741,1761,1781,1801,1821,1842,1861,1881,1902,1921,1941,1961,1981,2002,2021,2041,2061,2080,2101,2120,2140,2161,2182,2201,2221,2242,2260,2281,2300,2320,2340,2360,2380,2400,2421,2440,2461,2480,2501,2521,2541,2560,2580,2601,2621,2641,2660,2680,2700,2721,2741,2761,2780,2801,2821,2842,2861,2881,2901,2921,2942,2961,2980,3000,3021,3041,3060,3080,3100,3121,3141,3161,3181,3201,3220,3240,3260,3281,3301,3320,3341,3360,3380,3401,3421,3441,3460,3480,3500,3521,3541,3560,3580,3601,3621,3640,3661,3680,3700,3721,3741,3761,3782,3800,3821,3840,3861,3880,3901,3921,3941,3961,3981,4002,4021,4041,4062,4082,4102,4121,4141,4161,4180,4202,4221,4241,4261,4280,4301,4321,4341,4360,4381,4402,4421,4441,4461,4480,4501,4521,4542,4561,4581,4601,4621,4641,4661,4680,4700,4721,4741,4760,4780,4801,4821,4840,4861,4880,4901,4920,4940,4961,4980,5002,5022,5041,5061,5080,5101,5121,5141,5162,5181,5201,5221,5241,5261],"xSR":741.5,"ySR":469.95,"xT1":424.9,"yT1":0,"xT2":1058.1,"yT2":0,"toosoon":0,"cond_shown":"Congruent","ratio_trial":100,"L_num":3,"L_den":20,"R_num":4,"R_den":16,"correct_side":2,"subjID":"Juandavidalfonso4","gender":"0","school":"4","age":"9"},{"start_time":1552308431871,"click_time":1552308434630,"finger_time":1552308433889,"fix_duration":341.82950807853194,"trial":11,"RT":2018,"MT":741,"sideResp":2,"stimulus":[],"xmouse":[743,743,743,743,743,743,743,743,743,743,743,743,743,743,743,743,743,743,743,743,743,743,743,743,743,743,743,743,743,743,743,743,743,743,743,743,743,743,743,743,743,743,743,743,743,743,743,743,743,743,743,743,743,743,743,743,743,743,743,743,743,743,743,743,743,743,743,743,743,743,743,743,743,743,743,743,743,743,743,743,743,743,743,743,743,743,743,743,743,743,743,743,743,743,743,743,743,743,743,742,741,735,735,735,735,735,735,735,735,735,735,735,735,735,735,739,802,831,861,887,910,959,980,998,1008,1017,1025,1027,1027,1027,1027,1027,1027,1027,1027,1032,1050,1059],"ymouse":[542,542,542,542,542,542,542,542,542,542,542,542,542,542,542,542,542,542,542,542,542,542,542,542,542,542,542,542,542,542,542,542,542,542,542,542,542,542,542,542,542,542,542,542,542,542,542,542,542,542,542,542,542,542,542,542,542,542,542,542,542,542,542,542,542,542,542,542,542,542,542,542,542,542,542,542,542,542,542,542,542,542,542,542,542,542,542,542,542,542,542,542,542,542,542,542,542,542,542,542,542,543,544,544,544,544,544,544,544,544,544,544,544,544,544,537,464,429,390,353,316,229,182,142,106,76,29,25,25,25,25,25,25,25,24,24,29,33],"timestamp_mouse":[20,39,59,78,99,118,139,158,178,200,219,239,259,280,299,319,339,359,378,399,419,439,460,479,499,519,539,558,579,599,619,638,659,678,698,718,738,760,779,798,818,838,858,880,899,919,939,958,978,998,1018,1038,1058,1079,1098,1119,1140,1158,1178,1198,1218,1238,1258,1280,1299,1319,1340,1360,1379,1398,1419,1440,1458,1479,1498,1518,1538,1559,1579,1598,1618,1639,1658,1680,1699,1718,1738,1759,1778,1798,1819,1838,1858,1878,1899,1918,1938,1959,1978,1998,2018,2038,2059,2078,2098,2118,2138,2159,2179,2198,2218,2239,2259,2279,2298,2318,2338,2360,2379,2399,2418,2438,2459,2478,2499,2518,2538,2559,2578,2599,2619,2639,2658,2679,2698,2718,2739,2759],"xSR":741.5,"ySR":469.95,"xT1":424.9,"yT1":0,"xT2":1058.1,"yT2":0,"toosoon":0,"cond_shown":"Congruent","ratio_trial":200,"L_num":3,"L_den":12,"R_num":9,"R_den":20,"correct_side":2,"subjID":"Juandavidalfonso4","gender":"0","school":"4","age":"9"},{"start_time":1552308436507,"click_time":1552308440090,"finger_time":1552308438429,"fix_duration":376.2021220912759,"trial":12,"RT":1922,"MT":1661,"sideResp":2,"stimulus":[],"xmouse":[782,782,782,782,782,782,782,782,782,782,782,782,782,782,782,782,782,782,782,782,782,782,782,782,782,782,782,782,782,782,782,782,782,782,782,782,782,782,782,782,782,782,782,782,782,782,782,782,782,782,782,782,782,782,782,782,782,782,782,782,782,782,782,782,782,782,782,782,782,782,782,782,782,782,782,782,782,782,782,782,782,782,782,782,782,782,782,782,782,781,781,781,781,780,780,780,780,780,780,780,784,789,796,808,820,834,867,889,913,941,973,1059,1112,1191,1242,1283,1343,1355,1359,1360,1360,1360,1360,1360,1360,1360,1360,1360,1360,1360,1360,1360,1360,1360,1360,1360,1360,1360,1360,1360,1360,1360,1360,1360,1360,1360,1360,1360,1360,1360,1360,1360,1360,1360,1360,1360,1360,1360,1354,1336,1310,1242,1213,1205,1200,1197,1193,1192,1191,1191,1191,1189,1186,1185,1183,1182,1177,1174,1166,1156],"ymouse":[544,544,544,544,544,544,544,544,544,544,544,544,544,544,544,544,544,544,544,544,544,544,544,544,544,544,544,544,544,544,544,544,544,544,544,544,544,544,544,544,544,544,544,544,544,544,544,544,544,544,544,544,544,544,544,544,544,544,544,544,544,544,544,544,544,544,544,544,544,544,544,544,544,544,544,544,544,544,544,544,544,544,544,544,544,544,544,544,544,549,554,555,555,558,561,567,581,587,592,598,612,623,635,656,672,685,709,717,721,722,721,683,642,563,501,444,340,311,292,282,279,279,279,279,279,279,279,279,279,279,279,279,279,279,279,279,279,279,279,279,279,279,279,279,279,279,279,279,279,279,279,279,279,279,279,279,279,277,275,265,248,196,168,155,147,138,125,122,119,117,116,111,108,107,105,104,102,100,98,96],"timestamp_mouse":[3,25,43,64,82,102,122,143,162,182,202,222,242,262,283,302,323,343,362,383,403,423,443,462,483,502,523,543,563,583,603,623,643,662,684,702,723,743,762,782,802,823,842,863,882,903,922,942,964,984,1003,1022,1042,1062,1082,1103,1122,1142,1162,1184,1204,1222,1242,1262,1282,1302,1322,1342,1362,1383,1402,1422,1442,1463,1482,1502,1522,1543,1562,1582,1602,1622,1642,1662,1683,1702,1722,1742,1762,1783,1802,1822,1842,1862,1882,1902,1922,1942,1962,1983,2004,2028,2042,2062,2082,2102,2122,2142,2162,2182,2202,2222,2242,2262,2282,2302,2323,2342,2362,2383,2404,2422,2442,2463,2482,2504,2522,2542,2562,2582,2603,2622,2642,2662,2682,2703,2723,2742,2762,2782,2803,2822,2843,2863,2883,2904,2924,2943,2964,2983,3003,3023,3043,3063,3083,3102,3122,3142,3162,3183,3202,3222,3243,3263,3282,3302,3322,3342,3362,3383,3402,3423,3442,3463,3483,3502,3522,3543,3562,3583],"xSR":741.5,"ySR":469.95,"xT1":424.9,"yT1":0,"xT2":1058.1,"yT2":0,"toosoon":0,"cond_shown":"Incongruent","ratio_trial":100,"L_num":9,"L_den":15,"R_num":14,"R_den":28,"correct_side":1,"subjID":"Juandavidalfonso4","gender":"0","school":"4","age":"9"},{"start_time":1552308442581,"click_time":1552308444189,"finger_time":1552308443649,"fix_duration":250,"trial":13,"RT":1068,"MT":540,"sideResp":1,"stimulus":[],"xmouse":[774,774,774,774,774,774,774,774,774,774,774,774,774,774,774,774,774,774,774,774,774,774,774,774,774,774,774,774,774,774,774,774,774,774,774,774,774,774,774,774,774,774,774,774,774,774,774,774,774,774,774,774,772,735,680,618,503,351,294,259,244,233,228,227,228,229,229,229,230,237,252,270,315,334,349,361,375,381,401,414,428],"ymouse":[546,546,546,546,546,546,546,546,546,546,546,546,546,546,546,546,546,546,546,546,546,546,546,546,546,546,546,546,546,546,546,546,546,546,546,546,546,546,546,546,546,546,546,546,546,546,546,546,546,546,546,546,543,517,476,425,337,218,168,130,109,88,70,50,45,44,44,44,44,44,51,58,70,73,75,75,75,72,64,58,53],"timestamp_mouse":[9,29,50,69,89,108,128,149,168,188,208,228,248,268,288,308,328,348,368,388,408,428,448,468,488,508,530,550,569,588,608,628,648,669,688,708,729,748,768,789,809,828,848,868,889,909,928,949,968,988,1008,1028,1048,1068,1088,1109,1130,1148,1168,1188,1208,1228,1248,1268,1288,1309,1328,1348,1369,1388,1408,1428,1449,1470,1488,1508,1528,1548,1568,1588,1608],"xSR":741.5,"ySR":469.95,"xT1":424.9,"yT1":0,"xT2":1058.1,"yT2":0,"toosoon":0,"cond_shown":"Congruent","ratio_trial":200,"L_num":20,"L_den":25,"R_num":9,"R_den":15,"correct_side":1,"subjID":"Juandavidalfonso4","gender":"0","school":"4","age":"9"},{"start_time":1552308457692,"click_time":1552308460029,"finger_time":1552308459529,"fix_duration":562.383813568767,"trial":14,"RT":1837,"MT":500,"sideResp":1,"stimulus":[],"xmouse":[782,782,782,782,782,782,782,782,782,782,782,782,782,782,782,782,782,782,782,782,782,782,782,782,782,782,782,782,782,782,782,782,782,782,782,782,782,782,782,782,782,782,782,782,782,782,782,782,782,782,782,782,782,782,782,782,782,782,782,782,782,782,782,782,782,782,782,782,782,782,782,782,782,782,782,782,782,782,782,782,782,782,782,782,782,782,782,782,782,774,763,734,696,548,486,445,421,410,405,407,414,423,431,454,468,484,496,505,511,511,511,511,511,509,507,505,500],"ymouse":[525,525,525,525,525,525,525,525,525,525,525,525,525,525,525,525,525,525,525,525,525,525,525,525,525,525,525,525,525,525,525,525,525,525,525,525,525,525,525,525,525,525,525,525,525,525,525,525,525,525,525,525,525,525,525,525,525,525,525,525,525,525,525,525,525,525,525,525,525,525,525,525,525,525,525,525,525,525,525,525,525,525,525,525,525,525,525,525,525,523,528,537,543,498,445,383,329,275,219,206,197,188,180,165,160,156,152,148,144,144,142,136,129,113,108,100,91],"timestamp_mouse":[17,37,57,77,97,117,137,158,177,197,217,237,257,277,298,317,337,358,377,397,418,438,458,478,497,517,537,558,577,597,617,638,658,677,697,717,737,757,777,798,819,837,858,877,897,917,937,957,977,997,1017,1037,1058,1077,1097,1117,1137,1157,1177,1197,1218,1237,1257,1277,1297,1317,1338,1358,1377,1397,1417,1437,1457,1477,1499,1517,1539,1557,1577,1597,1618,1637,1658,1677,1697,1717,1737,1757,1778,1797,1817,1837,1858,1877,1898,1917,1937,1957,1977,1997,2017,2037,2057,2078,2097,2117,2137,2158,2177,2198,2217,2237,2257,2277,2298,2317,2337],"xSR":741.5,"ySR":469.95,"xT1":424.9,"yT1":0,"xT2":1058.1,"yT2":0,"toosoon":0,"cond_shown":"Congruent","ratio_trial":300,"L_num":3,"L_den":6,"R_num":2,"R_den":10,"correct_side":1,"subjID":"Juandavidalfonso4","gender":"0","school":"4","age":"9"},{"start_time":1552308463027,"click_time":1552308464849,"finger_time":1552308464450,"fix_duration":1477.1518376186611,"trial":15,"RT":1423,"MT":399,"sideResp":2,"stimulus":[],"xmouse":[772,772,772,772,772,772,772,772,772,772,772,772,772,772,772,772,772,772,772,772,772,772,772,772,772,772,772,772,772,772,772,772,772,772,772,772,772,772,772,772,772,772,772,772,772,772,772,772,772,772,772,772,772,772,772,772,772,772,772,772,772,772,772,772,772,772,772,772,772,786,800,834,884,987,1046,1073,1105,1124,1157,1165,1169,1171,1174,1183,1189,1192,1193,1192,1187,1175,1163,1156],"ymouse":[542,542,542,542,542,542,542,542,542,542,542,542,542,542,542,542,542,542,542,542,542,542,542,542,542,542,542,542,542,542,542,542,542,542,542,542,542,542,542,542,542,542,542,542,542,542,542,542,542,542,542,542,542,542,542,542,542,542,542,542,542,542,542,542,542,542,542,542,542,526,510,469,422,342,295,270,244,224,194,186,183,180,177,164,148,135,124,103,94,81,72,69],"timestamp_mouse":[4,22,42,63,82,102,122,142,162,182,202,223,242,263,282,302,323,344,362,382,402,422,443,463,482,502,522,542,562,582,603,623,642,663,682,702,722,743,762,782,803,822,842,862,882,902,922,943,962,982,1002,1022,1042,1063,1082,1102,1123,1142,1162,1183,1202,1222,1242,1262,1283,1304,1322,1342,1362,1383,1402,1423,1442,1462,1482,1503,1522,1542,1563,1582,1602,1622,1643,1663,1682,1702,1722,1744,1763,1783,1802,1822],"xSR":741.5,"ySR":469.95,"xT1":424.9,"yT1":0,"xT2":1058.1,"yT2":0,"toosoon":0,"cond_shown":"Incongruent","ratio_trial":300,"L_num":13,"L_den":26,"R_num":12,"R_den":15,"correct_side":2,"subjID":"Juandavidalfonso4","gender":"0","school":"4","age":"9"},{"start_time":1552308488551,"click_time":1552308490430,"finger_time":1552308489910,"fix_duration":1160.0039718460398,"trial":16,"RT":1359,"MT":520,"sideResp":1,"stimulus":[],"xmouse":[791,791,791,791,791,791,791,791,791,791,791,791,791,791,791,791,791,791,791,791,791,791,791,791,791,791,791,791,791,791,791,791,791,791,791,791,791,791,791,791,791,791,791,791,791,791,791,791,791,791,791,791,791,791,791,791,791,791,791,791,791,791,791,791,789,784,761,741,686,662,633,606,574,547,503,484,477,475,475,474,474,474,474,475,476,476,477,479,483,490,492,493,494,494],"ymouse":[519,519,519,519,519,519,519,519,519,519,519,519,519,519,519,519,519,519,519,519,519,519,519,519,519,519,519,519,519,519,519,519,519,519,519,519,519,519,519,519,519,519,519,519,519,519,519,519,519,519,519,519,519,519,519,519,519,519,519,519,519,519,519,519,516,513,496,484,436,407,372,334,287,246,193,176,170,167,166,165,165,164,161,159,157,157,157,154,148,132,124,115,105,97],"timestamp_mouse":[19,39,58,78,98,119,138,158,179,198,220,239,258,278,298,318,338,359,378,400,419,438,458,479,498,518,538,560,578,598,618,639,658,679,698,718,738,758,778,798,818,838,858,878,898,919,939,958,978,998,1018,1038,1059,1079,1098,1118,1138,1158,1179,1198,1219,1238,1259,1278,1299,1318,1339,1359,1378,1398,1418,1438,1459,1479,1498,1518,1539,1558,1579,1598,1618,1639,1658,1678,1699,1718,1738,1758,1779,1798,1818,1838,1859,1878],"xSR":741.5,"ySR":469.95,"xT1":424.9,"yT1":0,"xT2":1058.1,"yT2":0,"toosoon":0,"cond_shown":"Congruent","ratio_trial":100,"L_num":2,"L_den":5,"R_num":11,"R_den":22,"correct_side":2,"subjID":"Juandavidalfonso4","gender":"0","school":"4","age":"9"},{"start_time":1552308493882,"click_time":1552308495968,"finger_time":1552308495569,"fix_duration":252.73967859043378,"trial":17,"RT":1687,"MT":399,"sideResp":1,"stimulus":[],"xmouse":[768,768,768,768,768,768,768,768,768,768,768,768,768,768,768,768,768,768,768,768,768,768,768,768,768,768,768,768,768,768,768,768,768,768,768,768,768,768,768,768,768,768,768,768,768,768,768,768,768,768,768,768,768,768,768,768,768,768,768,768,768,768,768,768,768,768,768,768,768,768,768,768,768,768,768,768,768,768,768,768,768,768,768,768,719,658,588,495,447,444,444,445,447,448,448,448,446,445,444,444,445,450,456,464,489],"ymouse":[554,554,554,554,554,554,554,554,554,554,554,554,554,554,554,554,554,554,554,554,554,554,554,554,554,554,554,554,554,554,554,554,554,554,554,554,554,554,554,554,554,554,554,554,554,554,554,554,554,554,554,554,554,554,554,554,554,554,554,554,554,554,554,554,554,554,554,554,554,554,554,554,554,554,554,554,554,554,554,554,554,554,554,552,521,486,442,376,319,300,286,273,261,243,231,220,209,194,173,162,152,139,129,113,68],"timestamp_mouse":[7,27,46,66,87,107,127,147,167,187,207,227,246,268,287,306,326,348,366,386,407,427,447,466,487,506,526,546,566,586,606,626,646,666,686,706,726,747,766,786,807,827,846,866,886,906,926,946,968,987,1008,1026,1046,1068,1088,1106,1126,1146,1166,1188,1207,1226,1246,1266,1286,1306,1326,1346,1367,1386,1406,1426,1446,1468,1486,1506,1526,1547,1566,1586,1606,1626,1646,1666,1687,1706,1727,1746,1766,1786,1806,1827,1846,1866,1886,1907,1926,1946,1966,1987,2008,2027,2047,2066,2086],"xSR":741.5,"ySR":469.95,"xT1":424.9,"yT1":0,"xT2":1058.1,"yT2":0,"toosoon":0,"cond_shown":"Congruent","ratio_trial":100,"L_num":1,"L_den":2,"R_num":18,"R_den":30,"correct_side":2,"subjID":"Juandavidalfonso4","gender":"0","school":"4","age":"9"},{"start_time":1552308500926,"click_time":1552308504028,"finger_time":1552308503128,"fix_duration":855.2200681024905,"trial":18,"RT":2202,"MT":900,"sideResp":2,"stimulus":[],"xmouse":[789,789,789,789,789,789,789,789,789,789,789,789,789,789,789,789,789,789,789,789,789,789,789,789,789,789,789,789,789,789,789,789,789,789,789,789,789,789,789,789,789,789,789,789,789,789,789,789,789,789,789,789,789,789,789,789,789,789,789,789,789,789,789,789,789,789,789,789,789,789,789,789,789,789,789,789,789,789,789,789,789,789,789,789,789,789,789,789,789,789,789,789,789,789,789,789,789,789,789,789,789,789,789,789,789,789,789,789,801,830,866,908,943,956,963,967,970,982,994,1008,1020,1033,1070,1085,1106,1122,1139,1160,1169,1178,1187,1198,1208,1218,1227,1239,1255,1277,1281,1281,1277,1274,1269,1269,1269,1269,1269,1269,1269,1269,1269,1189,1165,1161,1159,1158],"ymouse":[538,538,538,538,538,538,538,538,538,538,538,538,538,538,538,538,538,538,538,538,538,538,538,538,538,538,538,538,538,538,538,538,538,538,538,538,538,538,538,538,538,538,538,538,538,538,538,538,538,538,538,538,538,538,538,538,538,538,538,538,538,538,538,538,538,538,538,538,538,538,538,538,538,538,538,538,538,538,538,538,538,538,538,538,538,538,538,538,538,538,538,538,538,538,538,538,538,538,538,538,538,538,538,538,538,538,538,538,538,538,538,538,535,533,533,533,532,523,514,501,489,474,423,397,365,337,308,270,255,242,232,221,209,201,190,172,144,95,77,62,43,28,6,6,6,6,6,6,6,6,6,7,42,45,47,49],"timestamp_mouse":[3,22,44,62,82,102,123,142,163,183,203,224,243,262,283,302,322,342,363,383,402,422,442,463,484,503,523,542,563,583,602,622,642,662,682,702,722,742,762,782,802,822,842,862,882,902,922,943,962,982,1002,1022,1042,1062,1082,1103,1122,1142,1162,1182,1202,1223,1242,1262,1282,1302,1323,1343,1362,1382,1402,1422,1443,1463,1482,1502,1522,1544,1564,1582,1602,1622,1643,1662,1683,1702,1722,1742,1764,1783,1803,1822,1842,1862,1884,1903,1924,1943,1963,1983,2003,2022,2044,2063,2082,2102,2122,2142,2162,2183,2202,2222,2243,2262,2282,2303,2323,2342,2363,2383,2403,2423,2442,2463,2484,2502,2522,2542,2563,2582,2602,2623,2642,2663,2682,2702,2723,2742,2764,2783,2804,2822,2843,2862,2883,2903,2923,2943,2962,2982,3003,3023,3043,3062,3083,3102],"xSR":741.5,"ySR":469.95,"xT1":424.9,"yT1":0,"xT2":1058.1,"yT2":0,"toosoon":0,"cond_shown":"Incongruent","ratio_trial":100,"L_num":13,"L_den":26,"R_num":12,"R_den":20,"correct_side":2,"subjID":"Juandavidalfonso4","gender":"0","school":"4","age":"9"},{"start_time":1552308506160,"click_time":1552308509229,"finger_time":1552308508889,"fix_duration":490.231139811514,"trial":19,"RT":2729,"MT":340,"sideResp":1,"stimulus":[],"xmouse":[808,808,808,808,808,808,808,808,808,808,808,808,808,808,808,808,808,808,808,808,808,808,808,808,808,808,808,808,808,808,808,808,808,808,808,808,808,808,808,808,808,808,808,808,808,808,808,808,808,808,808,808,808,808,808,808,808,808,808,808,808,808,808,808,808,808,808,808,808,808,808,808,808,808,808,808,808,808,808,808,808,808,808,808,808,808,808,808,808,808,808,808,808,808,808,808,808,808,808,808,808,808,808,808,808,808,808,808,808,808,808,808,808,808,808,808,808,808,808,808,808,808,808,808,808,808,808,808,808,808,808,808,808,802,786,744,630,592,569,559,555,544,539,526,512,498,489,489,489,489,489,484,479,474],"ymouse":[529,529,529,529,529,529,529,529,529,529,529,529,529,529,529,529,529,529,529,529,529,529,529,529,529,529,529,529,529,529,529,529,529,529,529,529,529,529,529,529,529,529,529,529,529,529,529,529,529,529,529,529,529,529,529,529,529,529,529,529,529,529,529,529,529,529,529,529,529,529,529,529,529,529,529,529,529,529,529,529,529,529,529,529,529,529,529,529,529,529,529,529,529,529,529,529,529,529,529,529,529,529,529,529,529,529,529,529,529,529,529,529,529,529,529,529,529,529,529,529,529,529,529,529,529,529,529,529,529,529,529,529,529,525,518,495,421,394,375,362,349,284,249,219,197,180,172,172,171,168,156,127,110,90],"timestamp_mouse":[8,29,49,68,89,108,128,148,168,188,208,228,249,268,288,308,328,348,369,389,408,428,448,468,489,508,528,548,569,588,608,629,650,669,689,710,730,748,769,789,809,829,849,868,889,909,929,948,969,988,1008,1029,1048,1070,1089,1108,1129,1148,1168,1188,1208,1229,1249,1269,1289,1308,1330,1349,1368,1388,1408,1428,1450,1468,1489,1509,1530,1548,1568,1588,1609,1628,1648,1669,1688,1709,1728,1749,1768,1788,1808,1830,1848,1868,1888,1908,1928,1949,1970,1989,2008,2028,2048,2069,2090,2109,2128,2148,2168,2188,2208,2229,2248,2269,2288,2308,2328,2348,2368,2390,2409,2429,2449,2468,2489,2509,2530,2550,2569,2590,2608,2628,2648,2669,2690,2709,2729,2748,2769,2789,2808,2828,2848,2868,2889,2909,2928,2948,2968,2989,3009,3029,3049,3069],"xSR":741.5,"ySR":469.95,"xT1":424.9,"yT1":0,"xT2":1058.1,"yT2":0,"toosoon":0,"cond_shown":"Congruent","ratio_trial":100,"L_num":6,"L_den":20,"R_num":5,"R_den":25,"correct_side":1,"subjID":"Juandavidalfonso4","gender":"0","school":"4","age":"9"},{"start_time":1552308526776,"click_time":1552308528529,"finger_time":1552308528089,"fix_duration":425.55261612803895,"trial":20,"RT":1313,"MT":440,"sideResp":1,"stimulus":[],"xmouse":[796,796,796,796,796,796,796,796,796,796,796,796,796,796,796,796,796,796,796,796,796,796,796,796,796,796,796,796,796,796,796,796,796,796,796,796,796,796,796,796,796,796,796,796,796,796,796,796,796,796,796,796,796,796,796,796,796,796,796,796,796,795,783,769,750,725,680,535,481,436,399,373,356,355,355,355,355,355,355,355,356,357,368,379,393,404,420,440],"ymouse":[530,530,530,530,530,530,530,530,530,530,530,530,530,530,530,530,530,530,530,530,530,530,530,530,530,530,530,530,530,530,530,530,530,530,530,530,530,530,530,530,530,530,530,530,530,530,530,530,530,530,530,530,530,530,530,530,530,530,530,530,530,528,523,512,498,480,443,316,266,221,182,153,120,112,107,105,105,105,105,105,105,105,102,99,92,83,69,39],"timestamp_mouse":[13,34,54,73,93,112,132,152,172,192,212,232,252,272,293,312,332,352,372,392,413,432,453,473,494,513,533,552,574,593,612,633,653,673,693,713,732,752,773,793,813,832,853,873,893,913,934,953,974,993,1013,1032,1052,1072,1092,1114,1134,1153,1173,1193,1213,1232,1252,1273,1293,1313,1333,1353,1373,1392,1413,1434,1453,1473,1492,1513,1532,1552,1572,1592,1612,1632,1652,1673,1694,1713,1733,1753],"xSR":741.5,"ySR":469.95,"xT1":424.9,"yT1":0,"xT2":1058.1,"yT2":0,"toosoon":0,"cond_shown":"Incongruent","ratio_trial":300,"L_num":8,"L_den":10,"R_num":9,"R_den":18,"correct_side":1,"subjID":"Juandavidalfonso4","gender":"0","school":"4","age":"9"},{"start_time":1552308531275,"click_time":1552308533549,"finger_time":1552308533169,"fix_duration":826.1615116457699,"trial":21,"RT":1894,"MT":380,"sideResp":1,"stimulus":[],"xmouse":[767,767,767,767,767,767,767,767,767,767,767,767,767,767,767,767,767,767,767,767,767,767,767,767,767,767,767,767,767,767,767,767,767,767,767,767,767,767,767,767,767,767,767,767,767,767,767,767,767,767,767,767,767,767,767,767,767,767,767,767,767,767,767,767,767,767,767,767,767,767,767,767,767,767,767,767,767,767,767,767,767,767,767,767,767,767,767,767,767,767,767,767,767,760,735,709,672,632,579,568,550,541,534,526,524,521,520,518,517,515,513,511,511,510],"ymouse":[553,553,553,553,553,553,553,553,553,553,553,553,553,553,553,553,553,553,553,553,553,553,553,553,553,553,553,553,553,553,553,553,553,553,553,553,553,553,553,553,553,553,553,553,553,553,553,553,553,553,553,553,553,553,553,553,553,553,553,553,553,553,553,553,553,553,553,553,553,553,553,553,553,553,553,553,553,553,553,553,553,553,553,553,553,553,553,553,553,553,553,553,553,541,507,471,421,380,320,305,284,273,261,238,227,219,215,213,205,193,181,164,143,89],"timestamp_mouse":[13,33,53,73,93,113,134,153,173,193,213,233,253,274,293,313,333,353,374,394,414,434,453,474,493,513,534,553,574,595,615,634,653,674,694,715,733,755,773,793,813,834,854,874,894,914,934,954,974,993,1013,1034,1054,1074,1095,1113,1134,1153,1174,1193,1213,1233,1254,1273,1293,1313,1333,1353,1374,1393,1413,1433,1453,1473,1493,1515,1534,1554,1575,1595,1614,1635,1655,1673,1693,1715,1734,1755,1775,1793,1813,1834,1853,1873,1894,1913,1934,1953,1974,1993,2013,2033,2054,2073,2093,2113,2133,2154,2173,2193,2213,2233,2254,2274],"xSR":741.5,"ySR":469.95,"xT1":424.9,"yT1":0,"xT2":1058.1,"yT2":0,"toosoon":0,"cond_shown":"Incongruent","ratio_trial":200,"L_num":1,"L_den":3,"R_num":2,"R_den":15,"correct_side":1,"subjID":"Juandavidalfonso4","gender":"0","school":"4","age":"9"},{"start_time":1552308542701,"click_time":1552308545769,"finger_time":1552308544689,"fix_duration":1230.926350434145,"trial":22,"RT":1988,"MT":1080,"sideResp":1,"stimulus":[],"xmouse":[783,783,783,783,783,783,783,783,783,783,783,783,783,783,783,783,783,783,783,783,783,783,783,783,783,783,783,783,783,783,783,783,783,783,783,783,783,783,783,783,783,783,783,783,783,783,783,783,783,783,783,783,783,783,783,783,783,783,783,783,783,783,783,783,783,783,783,783,783,783,783,783,783,783,783,783,783,783,783,783,783,783,783,783,783,783,783,783,776,767,758,754,751,750,750,750,750,749,745,739,733,724,712,677,662,655,638,624,601,598,597,597,595,595,595,595,595,595,595,595,595,594,593,563,528,492,464,437,413,410,408,408,408,419,421,424,426,426,436,436,436,437,446,463,463,463,463,463,463,463,463,463,465,471],"ymouse":[504,504,504,504,504,504,504,504,504,504,504,504,504,504,504,504,504,504,504,504,504,504,504,504,504,504,504,504,504,504,504,504,504,504,504,504,504,504,504,504,504,504,504,504,504,504,504,504,504,504,504,504,504,504,504,504,504,504,504,504,504,504,504,504,504,504,504,504,504,504,504,504,504,504,504,504,504,504,504,504,504,504,504,504,504,504,504,504,506,508,512,514,515,515,515,515,515,516,518,519,520,520,520,517,515,516,519,525,533,533,533,533,533,533,533,533,533,533,533,533,533,532,529,487,444,404,369,337,298,287,277,277,277,254,245,236,232,232,211,210,210,210,196,158,158,158,158,155,155,155,154,149,137,94],"timestamp_mouse":[7,27,47,68,88,107,129,147,168,188,207,227,248,269,288,308,327,348,368,387,407,428,448,468,488,508,528,547,568,587,608,629,648,667,688,707,727,747,767,787,807,827,847,868,887,907,927,948,967,987,1007,1027,1047,1067,1087,1108,1127,1147,1168,1187,1207,1227,1247,1267,1287,1308,1328,1347,1367,1387,1407,1428,1447,1467,1487,1507,1528,1547,1568,1587,1608,1627,1647,1667,1688,1709,1728,1747,1767,1787,1808,1827,1847,1867,1887,1907,1928,1947,1967,1988,2008,2028,2048,2068,2087,2108,2127,2147,2167,2188,2209,2228,2249,2267,2287,2308,2327,2348,2368,2387,2407,2427,2447,2468,2488,2508,2528,2547,2568,2588,2608,2628,2650,2667,2688,2708,2728,2748,2768,2788,2807,2827,2848,2867,2887,2907,2928,2947,2968,2987,3008,3027,3048,3068],"xSR":741.5,"ySR":469.95,"xT1":424.9,"yT1":0,"xT2":1058.1,"yT2":0,"toosoon":0,"cond_shown":"Congruent","ratio_trial":100,"L_num":11,"L_den":22,"R_num":6,"R_den":15,"correct_side":1,"subjID":"Juandavidalfonso4","gender":"0","school":"4","age":"9"},{"start_time":1552308563340,"click_time":1552308565108,"finger_time":1552308564808,"fix_duration":1469.4368395133163,"trial":23,"RT":1468,"MT":300,"sideResp":2,"stimulus":[],"xmouse":[778,778,778,778,778,778,778,778,778,778,778,778,778,778,778,778,778,778,778,778,778,778,778,778,778,778,778,778,778,778,778,778,778,778,778,778,778,778,778,778,778,778,778,778,778,778,778,778,778,778,778,778,778,778,778,778,778,778,778,778,778,778,778,778,778,778,778,778,778,778,778,781,793,842,890,930,975,1017,1077,1093,1101,1106,1109,1115,1118,1122,1129,1134,1142],"ymouse":[514,514,514,514,514,514,514,514,514,514,514,514,514,514,514,514,514,514,514,514,514,514,514,514,514,514,514,514,514,514,514,514,514,514,514,514,514,514,514,514,514,514,514,514,514,514,514,514,514,514,514,514,514,514,514,514,514,514,514,514,514,514,514,514,514,514,514,514,514,514,514,511,503,462,423,390,357,322,259,232,211,193,184,153,145,136,117,102,72],"timestamp_mouse":[8,34,49,68,88,109,128,148,169,188,209,228,248,268,288,308,328,348,368,389,408,428,449,469,488,508,527,547,567,587,608,629,648,668,688,709,728,748,768,788,808,828,849,868,888,909,928,948,968,989,1008,1028,1048,1068,1088,1108,1128,1148,1168,1189,1208,1228,1248,1269,1288,1308,1328,1348,1368,1388,1409,1428,1449,1468,1488,1508,1527,1549,1568,1589,1609,1629,1648,1669,1688,1708,1728,1748,1768],"xSR":741.5,"ySR":469.95,"xT1":424.9,"yT1":0,"xT2":1058.1,"yT2":0,"toosoon":0,"cond_shown":"Incongruent","ratio_trial":100,"L_num":13,"L_den":26,"R_num":6,"R_den":10,"correct_side":2,"subjID":"Juandavidalfonso4","gender":"0","school":"4","age":"9"},{"start_time":1552308573264,"click_time":1552308575069,"finger_time":1552308575028,"fix_duration":1255.6792678975185,"trial":24,"RT":1764,"MT":41,"sideResp":2,"stimulus":[],"xmouse":[760,760,760,760,760,760,760,760,760,760,760,760,760,760,760,760,760,760,760,760,760,760,760,760,760,760,760,760,760,760,760,760,760,760,760,760,760,760,760,760,760,760,760,760,760,760,760,760,760,760,760,760,760,760,760,760,760,760,760,760,760,760,760,760,760,760,760,760,760,760,760,760,760,760,760,760,760,760,760,760,760,760,760,760,760,760,761,774,948,1049,1133],"ymouse":[518,518,518,518,518,518,518,518,518,518,518,518,518,518,518,518,518,518,518,518,518,518,518,518,518,518,518,518,518,518,518,518,518,518,518,518,518,518,518,518,518,518,518,518,518,518,518,518,518,518,518,518,518,518,518,518,518,518,518,518,518,518,518,518,518,518,518,518,518,518,518,518,518,518,518,518,518,518,518,518,518,518,518,518,518,518,514,496,252,134,54],"timestamp_mouse":[5,25,44,64,85,105,124,144,164,185,205,224,244,264,284,305,325,344,364,384,404,424,444,464,484,504,524,545,564,585,604,624,644,664,684,704,724,745,764,784,804,824,844,865,884,904,924,944,965,984,1005,1025,1044,1064,1084,1104,1124,1143,1164,1184,1204,1224,1244,1265,1284,1303,1324,1344,1364,1384,1404,1424,1444,1464,1484,1504,1524,1544,1565,1584,1605,1624,1644,1664,1685,1704,1724,1745,1764,1785,1804],"xSR":741.5,"ySR":469.95,"xT1":424.9,"yT1":0,"xT2":1058.1,"yT2":0,"toosoon":0,"cond_shown":"Incongruent","ratio_trial":300,"L_num":13,"L_den":26,"R_num":12,"R_den":15,"correct_side":2,"subjID":"Juandavidalfonso4","gender":"0","school":"4","age":"9"},{"start_time":1552308577958,"click_time":1552308579648,"finger_time":1552308579009,"fix_duration":1309.3330179847583,"trial":25,"RT":1051,"MT":639,"sideResp":1,"stimulus":[],"xmouse":[766,766,766,766,766,766,766,766,766,766,766,766,766,766,766,766,766,766,766,766,766,766,766,766,766,766,766,766,766,766,766,766,766,766,766,766,766,766,766,766,766,766,766,766,766,766,766,766,766,766,766,766,743,716,683,659,645,635,632,632,632,631,629,621,602,600,599,599,599,590,578,565,540,540,540,540,540,540,540,540,540,540,540,540,433],"ymouse":[519,519,519,519,519,519,519,519,519,519,519,519,519,519,519,519,519,519,519,519,519,519,519,519,519,519,519,519,519,519,519,519,519,519,519,519,519,519,519,519,519,519,519,519,519,519,519,519,519,519,519,519,459,392,316,280,263,256,254,254,254,254,254,256,267,268,268,268,262,181,136,79,13,13,13,13,13,13,13,13,13,13,13,13,5],"timestamp_mouse":[11,31,50,71,90,110,130,150,170,191,210,231,251,271,291,310,330,350,370,391,411,430,450,471,490,510,530,550,571,590,610,630,650,671,690,710,730,750,770,790,810,830,850,871,890,910,931,950,970,990,1010,1030,1051,1070,1090,1110,1130,1150,1172,1190,1211,1230,1251,1271,1290,1310,1330,1350,1370,1390,1411,1431,1450,1470,1490,1511,1530,1550,1570,1590,1611,1630,1650,1670,1690],"xSR":741.5,"ySR":469.95,"xT1":424.9,"yT1":0,"xT2":1058.1,"yT2":0,"toosoon":0,"cond_shown":"Congruent","ratio_trial":300,"L_num":12,"L_den":24,"R_num":2,"R_den":10,"correct_side":1,"subjID":"Juandavidalfonso4","gender":"0","school":"4","age":"9"},{"start_time":1552308583901,"click_time":1552308585249,"finger_time":1552308585048,"fix_duration":1092.152489931078,"trial":26,"RT":1147,"MT":201,"sideResp":2,"stimulus":[],"xmouse":[797,797,797,797,797,797,797,797,797,797,797,797,797,797,797,797,797,797,797,797,797,797,797,797,797,797,797,797,797,797,797,797,797,797,797,797,797,797,797,797,797,797,797,797,797,797,797,797,797,797,797,797,797,797,797,799,807,871,910,936,962,984,1010,1058,1071,1087,1094,1097],"ymouse":[513,513,513,513,513,513,513,513,513,513,513,513,513,513,513,513,513,513,513,513,513,513,513,513,513,513,513,513,513,513,513,513,513,513,513,513,513,513,513,513,513,513,513,513,513,513,513,513,513,513,513,513,513,513,513,508,500,456,430,407,384,354,318,233,199,149,119,88],"timestamp_mouse":[10,27,47,67,87,108,127,147,168,187,207,227,247,267,286,308,327,347,366,388,407,428,447,467,487,507,528,548,567,587,607,627,647,667,687,707,728,748,767,787,808,827,847,867,887,907,927,947,967,987,1007,1027,1047,1067,1087,1107,1127,1147,1168,1187,1207,1227,1247,1267,1287,1307,1327,1347],"xSR":741.5,"ySR":469.95,"xT1":424.9,"yT1":0,"xT2":1058.1,"yT2":0,"toosoon":0,"cond_shown":"Incongruent","ratio_trial":300,"L_num":4,"L_den":20,"R_num":2,"R_den":4,"correct_side":2,"subjID":"Juandavidalfonso4","gender":"0","school":"4","age":"9"},{"start_time":1552308587896,"click_time":1552308589508,"finger_time":1552308589028,"fix_duration":1347.4211671848711,"trial":27,"RT":1132,"MT":480,"sideResp":2,"stimulus":[],"xmouse":[777,777,777,777,777,777,777,777,777,777,777,777,777,777,777,777,777,777,777,777,776,775,774,772,772,772,772,772,772,772,772,772,772,772,772,772,772,772,772,772,772,772,772,772,772,772,772,772,772,772,772,772,772,782,795,810,826,842,872,893,914,928,939,950,951,955,958,963,975,979,979,979,979,979,979,979,985,1001,1043,1058,1078],"ymouse":[504,498,491,486,486,486,486,486,486,486,486,486,486,486,486,486,486,486,486,486,487,489,494,507,508,509,509,509,509,509,509,509,509,509,509,509,509,509,509,509,509,509,509,509,509,509,509,509,509,509,509,509,509,499,485,470,454,434,382,345,313,287,270,249,246,236,224,207,168,159,159,159,159,159,159,158,148,132,97,84,69],"timestamp_mouse":[13,33,54,72,92,112,132,153,172,192,213,232,252,272,293,312,332,352,372,392,412,432,452,472,492,512,532,553,572,592,612,633,652,672,692,713,733,752,772,793,811,832,852,872,892,911,933,952,972,992,1011,1031,1051,1071,1092,1112,1132,1154,1172,1192,1212,1233,1252,1273,1292,1312,1332,1352,1372,1393,1412,1432,1452,1473,1493,1512,1532,1553,1572,1593,1612],"xSR":741.5,"ySR":469.95,"xT1":424.9,"yT1":0,"xT2":1058.1,"yT2":0,"toosoon":0,"cond_shown":"Incongruent","ratio_trial":200,"L_num":3,"L_den":10,"R_num":1,"R_den":2,"correct_side":2,"subjID":"Juandavidalfonso4","gender":"0","school":"4","age":"9"},{"start_time":1552308591509,"click_time":1552308593129,"finger_time":1552308592767,"fix_duration":560.5419875807858,"trial":28,"RT":1258,"MT":362,"sideResp":2,"stimulus":[],"xmouse":[804,804,804,804,804,804,804,804,804,804,804,804,804,804,804,804,804,804,804,804,804,804,804,804,804,804,804,804,804,804,804,804,804,804,804,804,804,804,804,804,804,804,804,804,804,804,804,804,804,804,804,804,804,804,804,804,804,804,804,803,808,821,854,907,972,1013,1045,1064,1064,1064,1064,1064,1064,1064,1064,1064,1064,1064,1065,1074,1081],"ymouse":[528,528,528,528,528,528,528,528,528,528,528,528,528,528,528,528,528,528,528,528,528,528,528,528,528,528,528,528,528,528,528,528,528,528,528,528,528,528,528,528,528,528,528,528,528,528,528,528,528,528,528,528,528,528,528,528,528,528,528,528,527,524,506,467,398,324,244,155,148,148,148,148,148,148,148,148,148,147,130,109,91],"timestamp_mouse":[19,40,60,79,99,120,139,160,180,199,219,239,259,279,300,319,339,359,379,399,418,440,459,479,500,519,539,559,579,600,619,639,659,680,699,719,740,760,779,799,819,840,859,879,899,919,939,959,979,999,1019,1038,1059,1078,1100,1119,1140,1159,1179,1199,1220,1239,1258,1279,1299,1319,1339,1359,1380,1399,1420,1439,1459,1479,1499,1520,1540,1559,1579,1600,1619],"xSR":741.5,"ySR":469.95,"xT1":424.9,"yT1":0,"xT2":1058.1,"yT2":0,"toosoon":0,"cond_shown":"Incongruent","ratio_trial":200,"L_num":14,"L_den":30,"R_num":12,"R_den":18,"correct_side":2,"subjID":"Juandavidalfonso4","gender":"0","school":"4","age":"9"},{"start_time":1552308595296,"click_time":1552308596849,"finger_time":1552308596368,"fix_duration":987.5638020441967,"trial":29,"RT":1072,"MT":481,"sideResp":1,"stimulus":[],"xmouse":[782,782,782,782,782,782,782,782,782,782,782,782,782,782,782,782,782,782,782,782,782,782,782,782,782,782,782,782,782,782,782,782,782,782,782,782,782,782,782,782,782,782,782,782,782,782,782,782,782,782,777,768,755,737,705,697,690,680,671,658,657,659,664,666,665,659,651,646,637,631,627,625,623,621,601,582,565,508],"ymouse":[508,508,508,508,508,508,508,508,508,508,508,508,508,508,508,508,508,508,508,508,508,508,508,508,508,508,508,508,508,508,508,508,508,508,508,508,508,508,508,508,508,508,508,508,508,508,508,508,508,508,502,493,481,466,431,410,385,367,346,278,253,238,229,206,189,167,148,132,114,102,96,94,92,92,85,72,58,9],"timestamp_mouse":[12,32,52,71,91,111,131,152,171,193,212,233,252,272,292,312,332,352,372,392,412,432,453,472,493,512,532,552,573,593,613,632,652,672,692,712,733,752,772,793,812,832,853,873,892,912,932,952,972,992,1012,1032,1052,1072,1092,1111,1131,1153,1173,1192,1212,1232,1251,1273,1291,1312,1331,1353,1374,1393,1413,1433,1452,1472,1492,1512,1532,1553],"xSR":741.5,"ySR":469.95,"xT1":424.9,"yT1":0,"xT2":1058.1,"yT2":0,"toosoon":0,"cond_shown":"Incongruent","ratio_trial":100,"L_num":3,"L_den":5,"R_num":11,"R_den":22,"correct_side":1,"subjID":"Juandavidalfonso4","gender":"0","school":"4","age":"9"},{"start_time":1552308599806,"click_time":1552308601529,"finger_time":1552308600808,"fix_duration":1396.429377690861,"trial":30,"RT":1002,"MT":721,"sideResp":2,"stimulus":[],"xmouse":[795,795,795,795,795,795,795,795,795,795,795,795,795,795,795,795,795,795,795,795,795,795,795,795,795,795,796,796,796,796,796,796,796,796,796,796,796,796,796,797,797,797,797,797,797,797,797,797,800,829,863,941,990,1031,1066,1074,1079,1083,1088,1093,1102,1107,1107,1107,1107,1107,1107,1107,1107,1107,1107,1107,1107,1107,1107,1107,1107,1107,1107,1107,1106,1106,1106,1106,1106,1106,1106],"ymouse":[509,509,509,509,509,509,509,509,509,509,509,509,509,509,509,509,510,513,518,529,531,533,533,533,533,533,533,533,533,533,533,533,533,533,533,533,533,533,533,535,538,539,541,542,542,542,542,542,543,535,516,466,431,404,367,353,342,332,319,302,267,235,227,227,196,186,177,167,154,139,133,133,133,133,133,133,133,133,133,133,133,130,125,122,108,100,88],"timestamp_mouse":[5,22,42,62,82,102,122,142,162,182,202,222,242,262,281,302,322,342,362,382,402,422,442,463,483,502,523,543,562,582,603,622,642,662,682,702,722,742,762,782,802,822,842,863,882,902,922,943,962,982,1002,1022,1043,1063,1082,1102,1123,1142,1162,1182,1203,1223,1243,1263,1282,1302,1322,1342,1362,1382,1402,1422,1443,1461,1482,1502,1522,1542,1563,1582,1602,1622,1642,1663,1683,1702,1723],"xSR":741.5,"ySR":469.95,"xT1":424.9,"yT1":0,"xT2":1058.1,"yT2":0,"toosoon":0,"cond_shown":"Incongruent","ratio_trial":300,"L_num":4,"L_den":20,"R_num":2,"R_den":4,"correct_side":2,"subjID":"Juandavidalfonso4","gender":"0","school":"4","age":"9"},{"start_time":1552308603680,"click_time":1552308605768,"finger_time":1552308605608,"fix_duration":250,"trial":31,"RT":1928,"MT":160,"sideResp":1,"stimulus":[],"xmouse":[768,768,768,768,768,768,768,768,768,768,768,768,768,768,768,768,768,768,768,768,768,768,768,768,768,768,768,768,768,768,768,768,768,768,768,768,768,768,768,768,768,768,768,768,768,768,768,768,768,768,768,768,768,768,768,768,768,768,768,768,768,768,768,768,768,768,768,768,768,768,768,768,768,768,768,768,768,768,768,768,768,768,768,768,768,768,768,768,768,768,768,768,768,768,767,755,712,696,682,677,631,597,562,528,503],"ymouse":[527,527,527,527,527,527,527,527,527,527,527,527,527,527,527,527,527,527,527,527,527,527,527,527,527,527,527,527,527,527,527,527,527,527,527,527,527,527,527,527,527,527,527,527,527,527,527,527,527,527,527,527,527,527,527,527,527,527,527,527,527,527,527,527,527,527,527,527,527,527,527,527,527,527,527,527,527,527,527,527,527,527,527,527,527,527,527,527,527,527,527,527,527,526,525,521,498,483,461,450,340,262,201,132,78],"timestamp_mouse":[8,32,48,68,88,108,129,148,168,188,208,229,248,268,288,308,329,348,368,387,408,428,449,468,488,508,528,548,568,588,608,629,649,668,688,708,729,748,768,788,808,829,848,868,888,908,928,949,968,988,1008,1027,1048,1068,1089,1108,1128,1149,1168,1188,1208,1229,1249,1269,1287,1308,1328,1348,1368,1388,1408,1428,1449,1469,1488,1508,1529,1548,1568,1588,1609,1628,1648,1668,1688,1709,1728,1748,1769,1788,1808,1829,1848,1868,1889,1909,1928,1948,1968,1989,2009,2029,2049,2069,2088],"xSR":741.5,"ySR":469.95,"xT1":424.9,"yT1":0,"xT2":1058.1,"yT2":0,"toosoon":0,"cond_shown":"Congruent","ratio_trial":100,"L_num":10,"L_den":25,"R_num":3,"R_den":10,"correct_side":1,"subjID":"Juandavidalfonso4","gender":"0","school":"4","age":"9"},{"start_time":1552308607885,"click_time":1552308609248,"finger_time":1552308608768,"fix_duration":775.5384570192573,"trial":32,"RT":883,"MT":480,"sideResp":1,"stimulus":[],"xmouse":[770,770,770,770,770,770,770,770,770,770,770,770,770,770,770,770,770,770,770,770,770,770,770,770,770,770,770,770,770,770,770,770,770,770,770,770,770,770,770,770,770,766,757,747,734,728,658,629,613,608,608,604,601,595,585,575,575,575,575,574,570,555,548,543,539,535,524,516,511],"ymouse":[513,513,513,513,513,513,513,513,513,513,513,513,513,513,513,513,513,513,513,513,513,513,513,513,513,513,513,513,513,513,513,513,513,513,513,513,513,513,513,513,514,514,511,504,491,480,367,326,304,297,295,287,278,265,251,240,239,239,239,239,233,207,193,180,171,156,121,100,93],"timestamp_mouse":[4,27,43,63,83,103,123,144,163,183,203,223,243,263,283,303,323,343,364,383,403,423,443,463,483,503,523,543,564,583,603,623,643,663,683,703,723,743,764,783,803,824,844,864,883,904,924,943,963,984,1003,1023,1043,1064,1083,1103,1124,1143,1163,1183,1203,1223,1243,1264,1283,1303,1323,1343,1363],"xSR":741.5,"ySR":469.95,"xT1":424.9,"yT1":0,"xT2":1058.1,"yT2":0,"toosoon":0,"cond_shown":"Incongruent","ratio_trial":200,"L_num":3,"L_den":4,"R_num":11,"R_den":20,"correct_side":1,"subjID":"Juandavidalfonso4","gender":"0","school":"4","age":"9"},{"start_time":1552308612689,"click_time":1552308614528,"finger_time":1552308614229,"fix_duration":779.3771325442901,"trial":33,"RT":1540,"MT":299,"sideResp":2,"stimulus":[],"xmouse":[787,787,787,787,787,787,787,787,787,787,787,787,787,787,787,787,787,787,787,787,787,787,787,787,787,787,787,787,787,787,787,787,787,787,787,787,787,787,787,787,787,787,787,787,787,787,787,787,787,787,787,787,787,787,787,787,787,787,787,787,787,787,787,787,787,787,787,787,787,787,787,787,796,806,814,822,844,854,865,874,884,900,900,902,912,923,944,957,969,989,1016,1082],"ymouse":[524,524,524,524,524,524,524,524,524,524,524,524,524,524,524,524,524,524,524,524,524,524,524,524,524,524,524,524,524,524,524,524,524,524,524,524,524,524,524,524,524,524,524,524,524,524,524,524,524,524,524,524,524,524,524,524,524,524,524,524,524,524,524,524,524,524,524,524,524,524,524,523,513,504,496,489,470,460,449,437,423,393,393,386,366,338,288,267,238,201,154,44],"timestamp_mouse":[20,40,59,79,100,119,139,159,179,199,219,240,260,279,299,319,341,359,379,400,420,440,459,479,499,519,539,559,579,599,619,639,659,680,699,719,739,759,779,799,819,839,859,880,900,919,939,959,979,999,1020,1039,1058,1079,1100,1120,1139,1159,1179,1199,1219,1240,1259,1279,1299,1319,1339,1359,1380,1399,1419,1439,1460,1480,1499,1520,1540,1560,1579,1600,1619,1639,1660,1679,1700,1719,1739,1759,1778,1799,1821,1839],"xSR":741.5,"ySR":469.95,"xT1":424.9,"yT1":0,"xT2":1058.1,"yT2":0,"toosoon":0,"cond_shown":"Incongruent","ratio_trial":300,"L_num":13,"L_den":26,"R_num":12,"R_den":15,"correct_side":2,"subjID":"Juandavidalfonso4","gender":"0","school":"4","age":"9"},{"start_time":1552308616159,"click_time":1552308617489,"finger_time":1552308617128,"fix_duration":250,"trial":34,"RT":969,"MT":361,"sideResp":1,"stimulus":[],"xmouse":[804,804,804,804,804,804,804,804,804,804,804,802,800,798,798,798,798,798,798,798,798,798,798,798,798,798,798,798,798,798,798,798,798,798,798,798,798,798,798,798,798,798,798,798,798,798,796,796,773,756,749,714,686,642,632,626,623,623,620,616,609,600,592,577,568,556,522],"ymouse":[505,505,505,505,505,505,505,505,505,505,505,505,508,511,511,511,511,511,511,511,511,511,511,511,511,511,511,511,511,511,511,511,511,511,511,511,511,511,511,511,511,511,511,511,511,511,511,502,407,370,357,305,269,207,191,182,178,177,173,165,153,138,123,96,82,60,16],"timestamp_mouse":[10,30,49,69,89,109,130,149,169,189,209,229,249,270,290,310,329,349,369,389,409,429,449,469,489,509,530,550,569,589,609,629,649,669,689,709,729,750,770,789,809,829,850,869,890,909,929,950,969,989,1008,1028,1049,1069,1089,1110,1129,1150,1169,1189,1210,1229,1249,1269,1289,1310,1330],"xSR":741.5,"ySR":469.95,"xT1":424.9,"yT1":0,"xT2":1058.1,"yT2":0,"toosoon":0,"cond_shown":"Incongruent","ratio_trial":100,"L_num":1,"L_den":2,"R_num":8,"R_den":20,"correct_side":1,"subjID":"Juandavidalfonso4","gender":"0","school":"4","age":"9"},{"start_time":1552308619286,"click_time":1552308620848,"finger_time":1552308620249,"fix_duration":598.8684078989165,"trial":35,"RT":963,"MT":599,"sideResp":2,"stimulus":[],"xmouse":[778,778,778,778,778,778,778,778,778,778,778,778,778,778,778,778,778,778,778,778,778,778,778,778,778,778,778,778,778,778,778,778,778,778,778,778,778,778,781,785,788,792,798,803,806,811,818,836,846,859,861,861,863,863,863,863,863,863,865,876,885,897,909,948,966,992,1018,1043,1069,1078,1078,1078,1078,1083,1088,1094,1101,1111,1123],"ymouse":[542,542,542,542,542,542,542,542,542,542,540,539,538,538,538,538,538,538,538,538,538,538,538,538,538,538,538,538,538,538,538,538,538,538,538,538,538,538,534,531,529,527,522,517,515,509,500,475,463,449,447,447,445,445,445,445,445,445,443,431,420,406,390,337,316,278,241,203,164,153,153,153,153,147,140,130,121,106,83],"timestamp_mouse":[6,22,42,62,82,102,122,142,163,182,202,222,242,261,282,302,322,342,362,383,402,422,443,462,482,502,523,542,562,582,602,622,642,663,683,702,723,742,762,782,803,822,842,863,882,902,922,942,963,983,1002,1022,1043,1062,1082,1104,1122,1143,1163,1183,1202,1223,1242,1263,1282,1302,1323,1343,1362,1382,1402,1423,1443,1462,1483,1502,1522,1543,1562],"xSR":741.5,"ySR":469.95,"xT1":424.9,"yT1":0,"xT2":1058.1,"yT2":0,"toosoon":0,"cond_shown":"Incongruent","ratio_trial":100,"L_num":8,"L_den":20,"R_num":1,"R_den":2,"correct_side":2,"subjID":"Juandavidalfonso4","gender":"0","school":"4","age":"9"},{"start_time":1552308639341,"click_time":1552308640868,"finger_time":1552308640688,"fix_duration":972.9557213180377,"trial":36,"RT":1347,"MT":180,"sideResp":1,"stimulus":[],"xmouse":[772,772,772,772,772,772,772,772,772,772,772,772,772,772,772,772,772,772,772,772,772,772,772,772,772,772,772,772,772,772,772,772,772,772,772,772,772,772,772,772,772,772,772,772,772,772,772,772,772,772,772,772,772,772,772,772,772,771,770,770,770,770,770,770,770,768,766,734,730,730,730,715,615,562,517,477,448],"ymouse":[518,518,518,518,518,518,518,518,518,518,518,518,518,518,518,518,518,518,518,518,518,518,518,518,518,518,518,518,518,518,518,518,518,518,518,518,518,518,518,518,518,518,518,518,518,518,518,518,518,518,518,518,518,518,518,518,518,519,519,519,520,520,520,520,520,519,516,477,472,472,471,453,302,231,165,110,73],"timestamp_mouse":[7,27,47,68,88,108,127,148,167,187,207,228,247,268,287,307,328,347,367,388,407,427,447,468,487,508,528,547,568,587,607,627,647,668,687,707,727,747,768,787,808,827,847,867,887,907,928,948,967,987,1007,1028,1047,1067,1087,1108,1127,1148,1168,1187,1207,1228,1247,1268,1288,1307,1327,1347,1367,1387,1407,1427,1448,1467,1487,1507,1527],"xSR":741.5,"ySR":469.95,"xT1":424.9,"yT1":0,"xT2":1058.1,"yT2":0,"toosoon":0,"cond_shown":"Congruent","ratio_trial":200,"L_num":20,"L_den":25,"R_num":9,"R_den":15,"correct_side":1,"subjID":"Juandavidalfonso4","gender":"0","school":"4","age":"9"},{"start_time":1552308644181,"click_time":1552308645609,"finger_time":1552308645088,"fix_duration":250,"trial":37,"RT":907,"MT":521,"sideResp":1,"stimulus":[],"xmouse":[793,793,793,793,793,793,793,793,793,793,793,793,789,779,772,769,769,769,769,769,769,769,769,769,769,769,769,769,769,769,769,769,769,769,769,769,769,769,769,769,769,769,769,768,763,735,715,696,676,654,603,581,555,543,533,517,503,486,471,467,466,465,465,465,465,465,468,471,474,480,485,491],"ymouse":[516,516,516,516,516,516,516,516,516,516,516,516,516,512,512,512,512,512,512,512,512,512,512,512,512,512,512,512,512,512,512,512,512,512,512,512,512,512,512,512,512,512,512,512,508,486,472,458,442,420,362,335,301,285,273,234,211,183,162,154,151,150,150,150,150,150,150,145,138,125,108,78],"timestamp_mouse":[7,27,47,67,87,107,127,147,167,187,207,228,247,267,288,307,328,347,367,388,407,427,447,467,487,507,528,547,568,588,608,627,647,667,687,707,727,747,767,787,807,827,847,867,887,907,928,948,967,987,1008,1028,1047,1067,1087,1108,1128,1147,1167,1187,1207,1227,1248,1267,1287,1308,1328,1347,1367,1387,1407,1428],"xSR":741.5,"ySR":469.95,"xT1":424.9,"yT1":0,"xT2":1058.1,"yT2":0,"toosoon":0,"cond_shown":"Incongruent","ratio_trial":200,"L_num":3,"L_den":4,"R_num":11,"R_den":20,"correct_side":1,"subjID":"Juandavidalfonso4","gender":"0","school":"4","age":"9"},{"start_time":1552308647304,"click_time":1552308649168,"finger_time":1552308648748,"fix_duration":834.8982756539647,"trial":38,"RT":1444,"MT":420,"sideResp":2,"stimulus":[],"xmouse":[788,788,788,788,788,788,788,788,788,788,788,788,788,788,788,788,788,788,788,788,788,788,788,788,788,788,788,788,788,788,788,788,788,788,788,788,788,788,788,788,788,788,788,788,788,788,788,788,788,788,788,788,788,788,788,788,788,788,788,788,788,788,788,788,788,788,788,788,788,796,818,833,858,871,871,903,908,912,919,931,949,956,963,972,979,996,1004,1010,1016,1023,1037,1045,1052,1059],"ymouse":[537,537,537,537,537,537,537,537,537,537,537,537,537,537,537,537,537,537,537,537,537,537,537,537,537,537,537,537,537,537,537,537,537,537,537,537,537,537,537,537,537,537,537,537,537,537,537,537,537,537,537,537,537,537,537,537,537,537,537,537,537,537,537,537,537,537,537,537,537,529,512,506,494,488,488,462,453,447,438,424,387,361,330,302,274,215,191,170,150,132,100,74,56,46],"timestamp_mouse":[5,24,44,64,85,104,124,144,164,184,204,224,244,265,285,305,325,345,364,384,404,424,444,464,484,504,525,544,565,584,604,624,645,665,684,704,724,745,764,785,804,824,844,865,884,904,924,945,964,984,1005,1025,1044,1064,1084,1105,1124,1145,1164,1184,1205,1224,1245,1265,1285,1305,1324,1345,1365,1385,1404,1425,1444,1464,1484,1504,1524,1544,1564,1585,1604,1624,1645,1664,1684,1704,1725,1744,1765,1785,1805,1825,1844,1864],"xSR":741.5,"ySR":469.95,"xT1":424.9,"yT1":0,"xT2":1058.1,"yT2":0,"toosoon":0,"cond_shown":"Incongruent","ratio_trial":100,"L_num":13,"L_den":26,"R_num":6,"R_den":10,"correct_side":2,"subjID":"Juandavidalfonso4","gender":"0","school":"4","age":"9"},{"start_time":1552308651823,"click_time":1552308653768,"finger_time":1552308653328,"fix_duration":1453.9177634346597,"trial":39,"RT":1505,"MT":440,"sideResp":1,"stimulus":[],"xmouse":[812,812,812,812,812,812,812,812,812,812,812,812,812,812,812,812,812,812,812,812,812,812,812,812,812,812,812,812,812,812,812,812,812,812,812,812,812,812,812,812,812,812,812,812,812,812,812,812,812,812,812,812,812,812,812,812,812,812,812,812,812,812,812,812,812,812,812,812,812,812,812,812,806,796,756,723,678,646,622,599,595,593,592,589,575,565,553,536,524,512,509,508,507,506,505,504,502,499],"ymouse":[533,533,533,533,533,533,533,533,533,533,533,533,533,533,533,533,533,533,533,533,533,533,533,533,533,533,533,533,533,533,533,533,533,533,533,533,533,533,533,533,533,533,533,533,533,533,533,533,533,533,533,533,533,533,533,533,533,533,533,533,533,533,533,533,533,533,533,533,533,533,533,533,529,523,500,482,454,437,424,405,402,400,399,394,362,327,288,232,198,157,146,139,136,132,122,119,108,98],"timestamp_mouse":[5,25,45,65,86,105,125,145,165,185,205,225,245,265,285,305,326,345,366,385,405,425,445,466,486,505,525,545,565,585,607,626,645,665,685,705,726,745,765,785,805,825,845,866,885,905,925,945,965,986,1005,1026,1045,1065,1085,1105,1126,1145,1165,1186,1205,1225,1246,1265,1285,1306,1325,1345,1365,1385,1405,1425,1445,1465,1485,1505,1526,1545,1565,1585,1605,1625,1645,1665,1685,1706,1725,1745,1765,1785,1805,1825,1845,1865,1886,1905,1925,1945],"xSR":741.5,"ySR":469.95,"xT1":424.9,"yT1":0,"xT2":1058.1,"yT2":0,"toosoon":0,"cond_shown":"Congruent","ratio_trial":200,"L_num":3,"L_den":6,"R_num":14,"R_den":20,"correct_side":2,"subjID":"Juandavidalfonso4","gender":"0","school":"4","age":"9"},{"start_time":1552308655480,"click_time":1552308656449,"finger_time":1552308656349,"fix_duration":250,"trial":40,"RT":869,"MT":100,"sideResp":2,"stimulus":[],"xmouse":[779,779,779,779,779,779,779,779,779,779,779,779,779,779,779,779,779,779,779,779,779,779,779,779,779,779,779,779,779,779,779,779,779,779,779,779,779,779,779,779,782,791,799,818,845,877,962,1019,1071],"ymouse":[525,525,525,525,525,525,525,525,525,525,525,525,525,525,525,525,525,525,525,525,525,525,525,525,525,525,525,525,525,525,525,525,525,525,525,525,525,525,525,525,522,509,495,458,411,355,234,145,52],"timestamp_mouse":[8,28,48,68,88,108,128,148,168,188,208,229,248,268,289,308,328,348,368,389,408,428,448,468,488,508,528,548,568,590,608,629,648,668,689,708,728,748,768,788,808,829,848,869,888,908,930,948,969],"xSR":741.5,"ySR":469.95,"xT1":424.9,"yT1":0,"xT2":1058.1,"yT2":0,"toosoon":0,"cond_shown":"Incongruent","ratio_trial":300,"L_num":4,"L_den":20,"R_num":2,"R_den":4,"correct_side":2,"subjID":"Juandavidalfonso4","gender":"0","school":"4","age":"9"},{"start_time":1552308658618,"click_time":1552308659648,"finger_time":1552308659288,"fix_duration":1230.6768981898958,"trial":41,"RT":670,"MT":360,"sideResp":1,"stimulus":[],"xmouse":[768,768,768,768,769,774,776,776,776,776,776,776,776,776,776,776,776,776,776,776,776,776,776,776,776,776,776,776,776,777,773,765,754,737,709,663,626,595,571,550,521,508,496,481,466,451,451,451,451,451,455,460],"ymouse":[527,527,527,527,525,520,519,519,519,519,519,519,519,519,519,519,519,519,519,519,519,519,519,519,519,519,519,519,519,516,510,495,471,438,391,322,285,262,245,235,218,205,188,167,145,123,123,123,123,123,107,97],"timestamp_mouse":[14,30,50,70,91,111,130,151,170,190,210,230,250,270,290,310,330,350,371,390,410,431,450,470,490,510,530,551,570,590,611,630,651,670,690,710,731,751,770,791,810,830,850,870,892,910,931,951,970,990,1010,1030],"xSR":741.5,"ySR":469.95,"xT1":424.9,"yT1":0,"xT2":1058.1,"yT2":0,"toosoon":0,"cond_shown":"Incongruent","ratio_trial":100,"L_num":2,"L_den":4,"R_num":8,"R_den":20,"correct_side":1,"subjID":"Juandavidalfonso4","gender":"0","school":"4","age":"9"},{"start_time":1552308662150,"click_time":1552308663869,"finger_time":1552308663527,"fix_duration":1379.240535066233,"trial":42,"RT":1377,"MT":342,"sideResp":1,"stimulus":[],"xmouse":[794,794,794,794,794,794,794,794,794,794,794,794,794,794,794,794,794,794,794,794,794,794,794,794,794,794,794,794,794,794,794,794,794,794,794,794,794,794,794,794,794,794,794,794,794,794,794,794,794,794,794,794,794,794,794,794,794,794,794,794,794,794,794,794,791,789,785,781,772,744,712,667,625,598,578,549,529,512,498,468,453,440,435,434,434,437,438],"ymouse":[507,507,507,507,507,507,507,507,507,507,507,507,507,507,507,507,507,507,507,507,507,507,507,507,507,507,507,507,507,507,507,507,507,507,507,507,507,507,507,507,507,507,507,507,507,507,507,507,507,507,507,507,507,507,507,507,507,507,507,507,507,507,507,507,507,507,504,499,487,447,420,396,371,355,341,310,287,271,252,215,196,178,162,149,124,103,93],"timestamp_mouse":[2,18,38,59,78,98,118,139,158,178,199,218,239,258,278,298,318,339,358,378,399,418,439,459,478,498,518,538,558,579,598,619,638,658,678,698,718,738,758,778,798,818,838,858,878,899,918,938,959,978,998,1019,1038,1058,1079,1098,1118,1138,1158,1178,1198,1218,1239,1258,1278,1298,1318,1338,1359,1377,1398,1418,1438,1458,1478,1499,1518,1538,1558,1578,1598,1618,1638,1658,1680,1699,1719],"xSR":741.5,"ySR":469.95,"xT1":424.9,"yT1":0,"xT2":1058.1,"yT2":0,"toosoon":0,"cond_shown":"Congruent","ratio_trial":200,"L_num":8,"L_den":15,"R_num":7,"R_den":21,"correct_side":1,"subjID":"Juandavidalfonso4","gender":"0","school":"4","age":"9"},{"start_time":1552308667792,"click_time":1552308669869,"finger_time":1552308669548,"fix_duration":1483.6835216551276,"trial":43,"RT":1756,"MT":321,"sideResp":1,"stimulus":[],"xmouse":[788,788,788,788,788,788,788,788,788,788,788,788,788,788,788,788,788,788,788,788,788,788,788,788,788,788,788,788,788,788,788,788,788,788,788,788,788,788,788,788,788,788,788,788,788,788,788,788,788,788,788,788,788,788,788,788,788,788,788,788,788,788,788,788,788,788,788,788,788,788,788,788,788,788,788,788,788,788,788,788,788,788,788,788,788,784,773,710,665,622,551,514,448,432,418,408,400,398,398,398,398,400,416,428],"ymouse":[542,542,542,542,542,542,542,542,542,542,542,542,542,542,542,542,542,542,542,542,542,542,542,542,542,542,542,542,542,542,542,542,542,542,542,542,542,542,542,542,542,542,542,542,542,542,542,542,542,542,542,542,542,542,542,542,542,542,542,542,542,542,542,542,542,542,542,542,542,542,542,542,542,542,542,542,542,542,542,542,542,542,542,542,539,536,524,447,393,343,263,217,146,123,102,84,69,60,60,60,60,59,59,59],"timestamp_mouse":[16,37,57,76,96,116,136,157,176,196,216,236,256,276,296,316,336,356,376,396,417,436,457,476,496,516,537,556,576,596,617,637,657,676,696,716,736,757,776,796,817,837,857,876,897,917,936,957,976,996,1016,1036,1056,1076,1096,1116,1136,1156,1176,1196,1216,1237,1256,1276,1296,1316,1336,1356,1376,1396,1416,1436,1456,1476,1496,1516,1537,1556,1577,1596,1616,1637,1656,1676,1696,1716,1737,1756,1777,1797,1817,1836,1856,1877,1896,1916,1937,1956,1977,1996,2017,2036,2056,2077],"xSR":741.5,"ySR":469.95,"xT1":424.9,"yT1":0,"xT2":1058.1,"yT2":0,"toosoon":0,"cond_shown":"Congruent","ratio_trial":300,"L_num":1,"L_den":3,"R_num":19,"R_den":30,"correct_side":2,"subjID":"Juandavidalfonso4","gender":"0","school":"4","age":"9"},{"start_time":1552308672081,"click_time":1552308673469,"finger_time":1552308673028,"fix_duration":1011.5384267085163,"trial":44,"RT":947,"MT":441,"sideResp":2,"stimulus":[],"xmouse":[780,780,780,780,780,780,780,780,780,780,780,780,78