[{"start_time":1552073769934,"click_time":1552073772168,"finger_time":1552073771768,"fix_duration":382.74856705437696,"trial":0,"RT":1834,"MT":400,"sideResp":1,"stimulus":"img/500/equaldotsize/L/8_Ratio_500_L_8_R_4.png","xmouse":[782,782,782,782,782,782,782,782,782,782,782,782,782,782,782,782,782,782,782,782,782,782,782,782,782,782,782,782,782,782,782,782,782,782,782,782,782,782,782,782,782,782,782,782,782,782,782,782,782,782,782,782,782,782,782,782,782,782,782,782,782,782,782,782,782,782,782,782,782,782,782,782,782,782,782,782,782,782,782,782,782,782,782,782,782,782,782,782,782,782,788,786,746,693,667,652,659,665,665,665,665,665,665,665,665,665,665,665,665,665,665,495],"ymouse":[537,537,537,537,537,537,537,537,537,537,537,537,537,537,537,537,537,537,537,537,537,537,537,537,537,537,537,537,537,537,537,537,537,537,537,537,537,537,537,537,537,537,537,537,537,537,537,537,537,537,537,537,537,537,537,537,537,537,537,537,537,537,537,537,537,537,537,537,537,537,537,537,537,537,537,537,537,537,537,537,537,537,537,537,537,537,537,537,537,537,521,424,392,364,332,273,97,39,39,39,39,39,39,39,39,39,39,39,39,39,39,1],"timestamp_mouse":[13,40,54,74,93,113,133,153,175,194,214,234,253,274,294,315,333,354,374,394,414,433,455,473,493,513,533,555,574,593,614,633,655,674,694,714,734,754,773,793,814,834,854,873,895,914,933,953,973,993,1013,1033,1053,1073,1095,1115,1134,1153,1174,1194,1213,1233,1253,1274,1295,1313,1334,1354,1373,1393,1413,1434,1453,1474,1494,1514,1534,1554,1574,1595,1613,1634,1655,1674,1694,1714,1733,1753,1773,1794,1813,1834,1853,1874,1893,1913,1934,1954,1973,1993,2013,2034,2054,2073,2093,2114,2133,2154,2173,2194,2214,2233],"xSR":741.5,"ySR":501.8,"xT1":424.9,"yT1":0,"xT2":1058.1,"yT2":0,"toosoon":0,"cond_shown":"equaldotsize","ratio_trial":500,"smaller_num":"4","larger_num":"8","correct_side":1,"subjID":"juandavidguerrero8","gender":"0","age":"9","school":"4","test":{"fix_dur":[250,1500],"timestim":300,"targets_dim":[100,100],"targets_relative_coord":[0.3,0.7],"size_stim":[880,420],"start_dim":[100,100],"size_start":[300,300],"size_fix":60,"samplingrate":20,"img_types":["equaldotsize","equaldotanddens","randomdotsizeEA"],"ratios":[250,500,750,900],"rep_conds":9,"nTrials":120,"trials_to_rest":500,"Trials_order":[111,64,45,1,37,22,33,35,47,54,119,31,46,66,30,42,23,21,115,100,89,103,118,94,25,43,53,19,79,62,16,58,13,70,8,108,73,55,44,99,102,91,18,9,63,101,104,80,36,34,14,96,67,40,59,10,12,32,113,15,82,106,88,28,76,0,57,50,24,56,60,65,71,41,61,27,4,78,17,83,38,20,72,107,86,81,93,11,98,51,3,117,87,92,95,84,5,6,68,26,75,7,48,85,90,39,105,49,110,69,74,52,29,116,112,77,114,2,109,97],"cond_shown":["equaldotsize","equaldotanddens","equaldotsize","equaldotanddens","equaldotanddens","equaldotanddens","equaldotsize","randomdotsizeEA","randomdotsizeEA","equaldotsize","randomdotsizeEA","equaldotanddens","equaldotanddens","equaldotsize","equaldotsize","equaldotsize","randomdotsizeEA","equaldotsize","equaldotanddens","equaldotanddens","randomdotsizeEA","equaldotanddens","equaldotanddens","equaldotanddens","equaldotanddens","equaldotanddens","randomdotsizeEA","equaldotanddens","equaldotanddens","randomdotsizeEA","equaldotanddens","equaldotanddens","equaldotanddens","equaldotanddens","randomdotsizeEA","equaldotsize","equaldotanddens","equaldotanddens","randomdotsizeEA","equaldotsize","equaldotsize","equaldotanddens","equaldotsize","equaldotsize","equaldotsize","randomdotsizeEA","randomdotsizeEA","randomdotsizeEA","equaldotsize","equaldotanddens","randomdotsizeEA","equaldotsize","equaldotanddens","equaldotanddens","randomdotsizeEA","equaldotanddens","equaldotsize","randomdotsizeEA","randomdotsizeEA","equaldotsize","equaldotanddens","equaldotanddens","equaldotanddens","equaldotanddens","equaldotanddens","equaldotsize","equaldotsize","randomdotsizeEA","equaldotsize","randomdotsizeEA","equaldotsize","randomdotsizeEA","randomdotsizeEA","randomdotsizeEA","equaldotanddens","equaldotsize","equaldotanddens","equaldotsize","randomdotsizeEA","randomdotsizeEA","randomdotsizeEA","randomdotsizeEA","equaldotsize","randomdotsizeEA","randomdotsizeEA","equaldotsize","equaldotsize","randomdotsizeEA","randomdotsizeEA","equaldotsize","equaldotsize","equaldotsize","equaldotsize","randomdotsizeEA","randomdotsizeEA","equaldotsize","randomdotsizeEA","equaldotsize","randomdotsizeEA","randomdotsizeEA","equaldotsize","equaldotanddens","equaldotsize","equaldotanddens","equaldotsize","equaldotsize","equaldotsize","equaldotanddens","randomdotsizeEA","equaldotsize","randomdotsizeEA","equaldotanddens","randomdotsizeEA","randomdotsizeEA","equaldotanddens","randomdotsizeEA","equaldotsize","randomdotsizeEA","equaldotanddens","equaldotanddens"],"ratio_trial":[500,500,900,250,250,900,900,900,900,750,900,750,900,750,750,750,900,900,750,500,500,750,900,900,250,750,500,750,750,250,500,900,250,900,750,250,250,750,750,500,750,750,750,900,500,500,750,750,250,900,250,250,750,500,900,900,250,750,500,500,900,900,500,500,500,250,900,250,250,750,250,500,900,500,250,500,500,750,500,900,250,750,250,900,250,900,900,900,250,500,500,900,500,750,900,250,500,750,750,250,500,750,250,250,750,500,900,250,250,900,250,500,500,750,500,500,750,250,250,250],"smaller_num":["4","5","9","3","2","18","18","18","18","3","18","3","18","3","3","12","18","18","9","2","6","3","9","9","2","6","4","15","6","3","6","18","2","18","3","4","2","15","3","5","12","9","3","18","6","3","6","3","6","18","3","1","6","9","18","9","2","15","2","6","18","9","6","6","10","2","18","3","3","6","4","9","18","6","4","6","9","6","6","18","4","9","3","9","3","18","9","18","3","2","2","9","3","3","18","2","3","15","15","4","1","3","2","3","6","5","18","4","2","18","3","10","10","3","2","9","3","2","2","3"],"larger_num":["8","10","10","12","8","20","20","20","20","4","20","4","20","4","4","16","20","20","12","4","12","4","10","10","8","8","8","20","8","12","12","20","8","20","4","16","8","20","4","10","16","12","4","20","12","6","8","4","24","20","12","4","8","18","20","10","8","20","4","12","20","10","12","12","20","8","20","12","12","8","16","18","20","12","16","12","18","8","12","20","16","12","12","10","12","20","10","20","12","4","4","10","6","4","20","8","6","20","20","16","2","4","8","12","8","10","20","16","8","20","12","20","20","4","4","18","4","8","8","12"],"correct_side":[1,1,1,2,1,2,1,1,1,1,1,1,1,2,1,2,2,1,2,1,1,2,2,2,2,1,1,2,2,2,1,1,2,1,1,1,1,2,2,1,2,2,1,1,1,2,1,1,1,1,2,2,2,2,2,1,1,1,2,1,2,2,1,1,2,1,2,1,2,1,1,1,1,1,1,1,2,2,1,1,1,2,2,1,2,1,2,1,1,2,1,2,2,1,2,1,2,1,1,1,2,2,1,2,1,2,1,2,1,1,1,2,2,2,1,2,2,1,1,2],"img_shown":["img/500/equaldotsize/L/8_Ratio_500_L_8_R_4.png","img/500/equaldotanddens/L/7_Ratio_500_L_10_R_5.png","img/900/equaldotsize/L/1_Ratio_900_L_10_R_9.png","img/250/equaldotanddens/R/4_Ratio_250_L_3_R_12.png","img/250/equaldotanddens/L/3_Ratio_250_L_8_R_2.png","img/900/equaldotanddens/R/13_Ratio_900_L_18_R_20.png","img/900/equaldotsize/L/2_Ratio_900_L_20_R_18.png","img/900/randomdotsizeEA/L/4_Ratio_900_L_20_R_18.png","img/900/randomdotsizeEA/L/4_Ratio_900_L_20_R_18.png","img/750/equaldotsize/L/8_Ratio_750_L_4_R_3.png","img/900/randomdotsizeEA/L/10_Ratio_900_L_20_R_18.png","img/750/equaldotanddens/L/9_Ratio_750_L_4_R_3.png","img/900/equaldotanddens/L/8_Ratio_900_L_20_R_18.png","img/750/equaldotsize/R/12_Ratio_750_L_3_R_4.png","img/750/equaldotsize/L/9_Ratio_750_L_4_R_3.png","img/750/equaldotsize/R/11_Ratio_750_L_12_R_16.png","img/900/randomdotsizeEA/R/13_Ratio_900_L_18_R_20.png","img/900/equaldotsize/L/8_Ratio_900_L_20_R_18.png","img/750/equaldotanddens/R/15_Ratio_750_L_9_R_12.png","img/500/equaldotanddens/L/10_Ratio_500_L_4_R_2.png","img/500/randomdotsizeEA/L/13_Ratio_500_L_12_R_6.png","img/750/equaldotanddens/R/12_Ratio_750_L_3_R_4.png","img/900/equaldotanddens/R/5_Ratio_900_L_9_R_10.png","img/900/equaldotanddens/R/6_Ratio_900_L_9_R_10.png","img/250/equaldotanddens/R/13_Ratio_250_L_2_R_8.png","img/750/equaldotanddens/L/13_Ratio_750_L_8_R_6.png","img/500/randomdotsizeEA/L/8_Ratio_500_L_8_R_4.png","img/750/equaldotanddens/R/5_Ratio_750_L_15_R_20.png","img/750/equaldotanddens/R/2_Ratio_750_L_6_R_8.png","img/250/randomdotsizeEA/R/9_Ratio_250_L_3_R_12.png","img/500/equaldotanddens/L/11_Ratio_500_L_12_R_6.png","img/900/equaldotanddens/L/4_Ratio_900_L_20_R_18.png","img/250/equaldotanddens/R/13_Ratio_250_L_2_R_8.png","img/900/equaldotanddens/L/8_Ratio_900_L_20_R_18.png","img/750/randomdotsizeEA/L/8_Ratio_750_L_4_R_3.png","img/250/equaldotsize/L/2_Ratio_250_L_16_R_4.png","img/250/equaldotanddens/L/3_Ratio_250_L_8_R_2.png","img/750/equaldotanddens/R/4_Ratio_750_L_15_R_20.png","img/750/randomdotsizeEA/R/12_Ratio_750_L_3_R_4.png","img/500/equaldotsize/L/7_Ratio_500_L_10_R_5.png","img/750/equaldotsize/R/11_Ratio_750_L_12_R_16.png","img/750/equaldotanddens/R/15_Ratio_750_L_9_R_12.png","img/750/equaldotsize/L/10_Ratio_750_L_4_R_3.png","img/900/equaldotsize/L/10_Ratio_900_L_20_R_18.png","img/500/equaldotsize/L/13_Ratio_500_L_12_R_6.png","img/500/randomdotsizeEA/R/2_Ratio_500_L_3_R_6.png","img/750/randomdotsizeEA/L/13_Ratio_750_L_8_R_6.png","img/750/randomdotsizeEA/L/10_Ratio_750_L_4_R_3.png","img/250/equaldotsize/L/5_Ratio_250_L_24_R_6.png","img/900/equaldotanddens/L/2_Ratio_900_L_20_R_18.png","img/250/randomdotsizeEA/R/9_Ratio_250_L_3_R_12.png","img/250/equaldotsize/R/8_Ratio_250_L_1_R_4.png","img/750/equaldotanddens/R/2_Ratio_750_L_6_R_8.png","img/500/equaldotanddens/R/6_Ratio_500_L_9_R_18.png","img/900/randomdotsizeEA/R/9_Ratio_900_L_18_R_20.png","img/900/equaldotanddens/L/1_Ratio_900_L_10_R_9.png","img/250/equaldotsize/L/7_Ratio_250_L_8_R_2.png","img/750/randomdotsizeEA/L/1_Ratio_750_L_20_R_15.png","img/500/randomdotsizeEA/R/9_Ratio_500_L_2_R_4.png","img/500/equaldotsize/L/11_Ratio_500_L_12_R_6.png","img/900/equaldotanddens/R/14_Ratio_900_L_18_R_20.png","img/900/equaldotanddens/R/15_Ratio_900_L_9_R_10.png","img/500/equaldotanddens/L/11_Ratio_500_L_12_R_6.png","img/500/equaldotanddens/L/11_Ratio_500_L_12_R_6.png","img/500/equaldotanddens/R/3_Ratio_500_L_10_R_20.png","img/250/equaldotsize/L/1_Ratio_250_L_8_R_2.png","img/900/equaldotsize/R/13_Ratio_900_L_18_R_20.png","img/250/randomdotsizeEA/L/15_Ratio_250_L_12_R_3.png","img/250/equaldotsize/R/11_Ratio_250_L_3_R_12.png","img/750/randomdotsizeEA/L/13_Ratio_750_L_8_R_6.png","img/250/equaldotsize/L/2_Ratio_250_L_16_R_4.png","img/500/randomdotsizeEA/L/4_Ratio_500_L_18_R_9.png","img/900/randomdotsizeEA/L/10_Ratio_900_L_20_R_18.png","img/500/randomdotsizeEA/L/11_Ratio_500_L_12_R_6.png","img/250/equaldotanddens/L/2_Ratio_250_L_16_R_4.png","img/500/equaldotsize/L/13_Ratio_500_L_12_R_6.png","img/500/equaldotanddens/R/6_Ratio_500_L_9_R_18.png","img/750/equaldotsize/R/2_Ratio_750_L_6_R_8.png","img/500/randomdotsizeEA/L/13_Ratio_500_L_12_R_6.png","img/900/randomdotsizeEA/L/2_Ratio_900_L_20_R_18.png","img/250/randomdotsizeEA/L/2_Ratio_250_L_16_R_4.png","img/750/randomdotsizeEA/R/15_Ratio_750_L_9_R_12.png","img/250/equaldotsize/R/11_Ratio_250_L_3_R_12.png","img/900/randomdotsizeEA/L/1_Ratio_900_L_10_R_9.png","img/250/randomdotsizeEA/R/4_Ratio_250_L_3_R_12.png","img/900/equaldotsize/L/2_Ratio_900_L_20_R_18.png","img/900/equaldotsize/R/5_Ratio_900_L_9_R_10.png","img/900/randomdotsizeEA/L/4_Ratio_900_L_20_R_18.png","img/250/randomdotsizeEA/L/14_Ratio_250_L_12_R_3.png","img/500/equaldotsize/R/9_Ratio_500_L_2_R_4.png","img/500/equaldotsize/L/10_Ratio_500_L_4_R_2.png","img/900/equaldotsize/R/6_Ratio_900_L_9_R_10.png","img/500/equaldotsize/R/2_Ratio_500_L_3_R_6.png","img/750/randomdotsizeEA/L/9_Ratio_750_L_4_R_3.png","img/900/randomdotsizeEA/R/9_Ratio_900_L_18_R_20.png","img/250/equaldotsize/L/7_Ratio_250_L_8_R_2.png","img/500/randomdotsizeEA/R/2_Ratio_500_L_3_R_6.png","img/750/equaldotsize/L/1_Ratio_750_L_20_R_15.png","img/750/randomdotsizeEA/L/1_Ratio_750_L_20_R_15.png","img/250/randomdotsizeEA/L/2_Ratio_250_L_16_R_4.png","img/500/equaldotsize/R/15_Ratio_500_L_1_R_2.png","img/750/equaldotanddens/R/12_Ratio_750_L_3_R_4.png","img/250/equaldotsize/L/1_Ratio_250_L_8_R_2.png","img/250/equaldotanddens/R/11_Ratio_250_L_3_R_12.png","img/750/equaldotsize/L/13_Ratio_750_L_8_R_6.png","img/500/equaldotsize/R/14_Ratio_500_L_5_R_10.png","img/900/equaldotsize/L/2_Ratio_900_L_20_R_18.png","img/250/equaldotanddens/R/10_Ratio_250_L_4_R_16.png","img/250/randomdotsizeEA/L/7_Ratio_250_L_8_R_2.png","img/900/equaldotsize/L/4_Ratio_900_L_20_R_18.png","img/250/randomdotsizeEA/L/15_Ratio_250_L_12_R_3.png","img/500/equaldotanddens/R/3_Ratio_500_L_10_R_20.png","img/500/randomdotsizeEA/R/3_Ratio_500_L_10_R_20.png","img/750/randomdotsizeEA/R/12_Ratio_750_L_3_R_4.png","img/500/equaldotanddens/L/10_Ratio_500_L_4_R_2.png","img/500/randomdotsizeEA/R/6_Ratio_500_L_9_R_18.png","img/750/equaldotsize/R/12_Ratio_750_L_3_R_4.png","img/250/randomdotsizeEA/L/7_Ratio_250_L_8_R_2.png","img/250/equaldotanddens/L/7_Ratio_250_L_8_R_2.png","img/250/equaldotanddens/R/4_Ratio_250_L_3_R_12.png"],"Rat0":[["12_Ratio_0_L_9_R_0.png","13_Ratio_0_L_6_R_0.png","5_Ratio_0_L_2_R_0.png","6_Ratio_0_L_4_R_0.png","8_Ratio_0_L_6_R_0.png"],["1_Ratio_0_L_0_R_17.png","10_Ratio_0_L_0_R_22.png","11_Ratio_0_L_0_R_1.png","14_Ratio_0_L_0_R_24.png","15_Ratio_0_L_0_R_4.png","2_Ratio_0_L_0_R_5.png","3_Ratio_0_L_0_R_17.png","4_Ratio_0_L_0_R_7.png","7_Ratio_0_L_0_R_19.png","9_Ratio_0_L_0_R_15.png"]],"Rat250":[["1_Ratio_250_L_8_R_2.png","14_Ratio_250_L_12_R_3.png","15_Ratio_250_L_12_R_3.png","2_Ratio_250_L_16_R_4.png","3_Ratio_250_L_8_R_2.png","5_Ratio_250_L_24_R_6.png","7_Ratio_250_L_8_R_2.png"],["10_Ratio_250_L_4_R_16.png","11_Ratio_250_L_3_R_12.png","12_Ratio_250_L_5_R_20.png","13_Ratio_250_L_2_R_8.png","4_Ratio_250_L_3_R_12.png","6_Ratio_250_L_6_R_24.png","8_Ratio_250_L_1_R_4.png","9_Ratio_250_L_3_R_12.png"]],"Rat500":[["10_Ratio_500_L_4_R_2.png","11_Ratio_500_L_12_R_6.png","13_Ratio_500_L_12_R_6.png","4_Ratio_500_L_18_R_9.png","5_Ratio_500_L_4_R_2.png","7_Ratio_500_L_10_R_5.png","8_Ratio_500_L_8_R_4.png"],["1_Ratio_500_L_9_R_18.png","12_Ratio_500_L_1_R_2.png","14_Ratio_500_L_5_R_10.png","15_Ratio_500_L_1_R_2.png","2_Ratio_500_L_3_R_6.png","3_Ratio_500_L_10_R_20.png","6_Ratio_500_L_9_R_18.png","9_Ratio_500_L_2_R_4.png"]],"Rat750":[["1_Ratio_750_L_20_R_15.png","10_Ratio_750_L_4_R_3.png","13_Ratio_750_L_8_R_6.png","14_Ratio_750_L_8_R_6.png","6_Ratio_750_L_24_R_18.png","8_Ratio_750_L_4_R_3.png","9_Ratio_750_L_4_R_3.png"],["11_Ratio_750_L_12_R_16.png","12_Ratio_750_L_3_R_4.png","15_Ratio_750_L_9_R_12.png","2_Ratio_750_L_6_R_8.png","3_Ratio_750_L_15_R_20.png","4_Ratio_750_L_15_R_20.png","5_Ratio_750_L_15_R_20.png","7_Ratio_750_L_3_R_4.png"]],"Rat900":[["1_Ratio_900_L_10_R_9.png","10_Ratio_900_L_20_R_18.png","2_Ratio_900_L_20_R_18.png","4_Ratio_900_L_20_R_18.png","8_Ratio_900_L_20_R_18.png"],["11_Ratio_900_L_18_R_20.png","12_Ratio_900_L_18_R_20.png","13_Ratio_900_L_18_R_20.png","14_Ratio_900_L_18_R_20.png","15_Ratio_900_L_9_R_10.png","3_Ratio_900_L_9_R_10.png","5_Ratio_900_L_9_R_10.png","6_Ratio_900_L_9_R_10.png","7_Ratio_900_L_9_R_10.png","9_Ratio_900_L_18_R_20.png"]],"Rat1000":[["10_Ratio_1000_L_16_R_16.png","11_Ratio_1000_L_6_R_6.png","12_Ratio_1000_L_14_R_14.png","13_Ratio_1000_L_20_R_20.png","15_Ratio_1000_L_15_R_15.png","2_Ratio_1000_L_17_R_17.png","4_Ratio_1000_L_9_R_9.png","5_Ratio_1000_L_6_R_6.png","6_Ratio_1000_L_19_R_19.png","8_Ratio_1000_L_14_R_14.png","9_Ratio_1000_L_25_R_25.png"],["1_Ratio_1000_L_1_R_1.png","14_Ratio_1000_L_17_R_17.png","3_Ratio_1000_L_17_R_17.png","7_Ratio_1000_L_6_R_6.png"]]}},{"start_time":1552073774580,"click_time":1552073775608,"finger_time":1552073775268,"fix_duration":250,"trial":1,"RT":688,"MT":340,"sideResp":1,"stimulus":"img/500/equaldotanddens/L/7_Ratio_500_L_10_R_5.png","xmouse":[794,794,794,794,794,794,794,793,793,793,793,793,793,793,793,793,793,793,793,793,793,793,793,793,793,793,793,793,793,793,793,792,791,789,787,778,766,759,751,738,716,704,694,681,670,635,589,564,549,541,518,504],"ymouse":[497,497,497,497,497,497,497,497,497,497,497,497,497,497,497,497,497,497,497,497,497,497,497,497,497,497,497,497,497,497,497,492,487,474,462,432,411,397,380,366,336,321,307,293,281,249,214,193,176,157,112,88],"timestamp_mouse":[13,36,48,68,87,108,127,147,168,187,207,227,248,268,287,308,329,348,368,389,408,429,449,468,487,507,527,548,568,587,608,628,647,667,688,707,727,748,767,788,808,827,848,867,888,907,927,947,967,987,1007,1027],"xSR":741.5,"ySR":469.95,"xT1":424.9,"yT1":0,"xT2":1058.1,"yT2":0,"toosoon":0,"cond_shown":"equaldotanddens","ratio_trial":500,"smaller_num":"5","larger_num":"10","correct_side":1,"subjID":"juandavidguerrero8","gender":"0","age":"9","school":"4"},{"start_time":1552073777942,"click_time":1552073779508,"finger_time":1552073778927,"fix_duration":1353.616409513549,"trial":2,"RT":985,"MT":581,"sideResp":2,"stimulus":"img/900/equaldotsize/L/1_Ratio_900_L_10_R_9.png","xmouse":[783,783,783,783,783,783,783,783,783,783,783,783,783,783,783,783,783,783,783,783,783,783,783,783,783,783,783,783,783,783,783,783,783,783,783,783,783,783,783,783,783,783,783,783,783,783,785,801,813,821,827,830,835,847,859,877,901,936,978,991,995,996,996,996,996,997,1002,1027,1046,1063,1077,1082,1084,1084,1084,1084,1084,1089,1092],"ymouse":[514,514,514,514,514,514,514,514,514,514,514,514,514,514,514,514,514,514,514,514,514,514,514,514,514,514,514,514,514,514,514,514,514,514,514,514,514,514,514,514,514,514,514,514,514,514,511,488,471,456,446,437,427,400,380,351,316,264,214,197,188,185,185,185,184,184,183,171,158,144,132,123,117,117,117,117,117,107,98],"timestamp_mouse":[25,28,45,65,85,106,125,147,165,185,206,225,245,265,285,305,325,346,365,387,406,426,445,465,485,505,525,545,567,585,606,626,645,667,686,706,725,745,766,785,805,825,845,866,886,905,925,946,966,985,1006,1026,1046,1065,1086,1106,1127,1145,1165,1185,1205,1226,1245,1265,1285,1307,1326,1345,1365,1385,1406,1426,1446,1465,1486,1506,1527,1546,1565],"xSR":741.5,"ySR":469.95,"xT1":424.9,"yT1":0,"xT2":1058.1,"yT2":0,"toosoon":0,"cond_shown":"equaldotsize","ratio_trial":900,"smaller_num":"9","larger_num":"10","correct_side":1,"subjID":"juandavidguerrero8","gender":"0","age":"9","school":"4"},{"start_time":1552073781086,"click_time":1552073781909,"finger_time":1552073781807,"fix_duration":736.473192703683,"trial":3,"RT":721,"MT":102,"sideResp":2,"stimulus":"img/250/equaldotanddens/R/4_Ratio_250_L_3_R_12.png","xmouse":[774,774,774,774,775,777,779,780,781,782,786,789,790,790,790,790,790,790,790,790,790,790,790,790,790,790,790,790,790,790,790,790,792,793,799,811,849,886,946,985,1023,1077],"ymouse":[527,527,527,527,527,527,526,526,525,525,523,520,519,518,518,518,518,518,518,518,518,518,518,518,518,518,518,518,518,518,518,518,518,515,505,488,431,377,278,201,118,2],"timestamp_mouse":[9,22,42,62,92,102,122,142,161,183,202,223,241,261,282,301,322,341,361,381,401,422,443,461,481,501,523,542,562,582,602,621,641,661,681,701,721,742,762,782,801,823],"xSR":741.5,"ySR":469.95,"xT1":424.9,"yT1":0,"xT2":1058.1,"yT2":0,"toosoon":0,"cond_shown":"equaldotanddens","ratio_trial":250,"smaller_num":"3","larger_num":"12","correct_side":2,"subjID":"juandavidguerrero8","gender":"0","age":"9","school":"4"},{"start_time":1552073784779,"click_time":1552073786568,"finger_time":1552073785027,"fix_duration":250,"trial":4,"RT":248,"MT":1541,"sideResp":1,"stimulus":"img/250/equaldotanddens/L/3_Ratio_250_L_8_R_2.png","xmouse":[807,807,807,810,813,817,827,829,830,830,830,833,842,845,845,847,854,857,860,861,861,862,864,864,860,846,809,801,800,800,800,800,800,798,795,790,789,789,789,790,791,791,791,791,791,791,791,791,791,791,791,791,791,791,791,791,791,791,791,791,791,791,791,784,779,777,775,775,774,774,772,765,754,735,710,682,666,644,633,621,612,601,599,595,589,580,551,535,520,509],"ymouse":[501,501,502,502,502,503,504,505,505,505,505,506,512,514,516,519,521,522,522,522,522,522,522,524,531,539,547,548,548,548,548,548,548,548,548,549,551,551,551,551,551,551,551,551,551,551,551,551,551,551,551,551,551,551,551,551,551,551,551,551,551,548,541,527,514,503,482,469,457,452,448,439,430,415,392,368,343,294,271,246,217,182,171,163,156,150,132,120,107,96],"timestamp_mouse":[19,41,49,68,89,109,129,148,168,188,208,228,248,268,290,308,329,348,369,388,409,429,448,468,488,510,528,549,568,589,609,628,649,668,689,708,728,749,769,789,809,828,849,869,890,909,928,948,969,988,1009,1028,1050,1069,1089,1108,1128,1149,1169,1190,1209,1228,1249,1269,1289,1308,1328,1349,1368,1388,1409,1429,1448,1469,1490,1510,1528,1549,1569,1589,1609,1628,1648,1668,1688,1709,1728,1748,1770,1789],"xSR":741.5,"ySR":469.95,"xT1":424.9,"yT1":0,"xT2":1058.1,"yT2":0,"toosoon":0,"cond_shown":"equaldotanddens","ratio_trial":250,"smaller_num":"2","larger_num":"8","correct_side":1,"subjID":"juandavidguerrero8","gender":"0","age":"9","school":"4"},{"start_time":1552073790676,"click_time":1552073792548,"finger_time":1552073791687,"fix_duration":1366.83776358188,"trial":5,"RT":1011,"MT":861,"sideResp":1,"stimulus":"img/900/equaldotanddens/R/13_Ratio_900_L_18_R_20.png","xmouse":[809,809,809,809,809,809,809,809,809,809,809,809,809,809,809,809,809,809,809,809,809,809,808,808,808,808,808,808,808,808,808,808,808,808,808,808,808,808,808,808,808,808,808,808,808,810,810,814,820,830,842,853,860,860,856,850,834,825,815,804,792,781,775,773,770,767,760,734,714,693,672,644,547,529,517,509,500,497,496,496,497,500,507,513,518,526,529,535,536,536,536,536,536,524],"ymouse":[537,537,537,537,537,537,537,537,537,537,537,537,537,537,537,537,537,537,537,537,537,537,537,537,537,533,533,533,533,533,533,533,533,533,533,533,533,533,533,533,533,533,533,533,533,531,530,529,528,526,521,511,487,467,452,440,417,405,395,387,380,373,369,367,361,357,350,328,316,303,289,271,211,195,180,166,146,138,132,129,126,123,118,115,113,109,106,91,83,77,74,73,72,72],"timestamp_mouse":[11,31,51,71,91,111,132,151,171,191,213,231,252,272,291,311,333,352,372,392,411,432,451,471,492,512,531,551,572,592,612,632,651,672,691,713,732,752,772,791,811,832,852,873,892,912,931,952,972,991,1011,1031,1051,1072,1091,1111,1133,1151,1172,1192,1211,1231,1251,1273,1292,1313,1331,1352,1373,1391,1411,1432,1451,1471,1491,1511,1532,1551,1571,1591,1611,1632,1651,1671,1692,1712,1731,1751,1771,1791,1812,1831,1851,1872],"xSR":741.5,"ySR":469.95,"xT1":424.9,"yT1":0,"xT2":1058.1,"yT2":0,"toosoon":0,"cond_shown":"equaldotanddens","ratio_trial":900,"smaller_num":"18","larger_num":"20","correct_side":2,"subjID":"juandavidguerrero8","gender":"0","age":"9","school":"4"},{"start_time":1552073794286,"click_time":1552073795388,"finger_time":1552073794968,"fix_duration":678.1310287823901,"trial":6,"RT":682,"MT":420,"sideResp":2,"stimulus":"img/900/equaldotsize/L/2_Ratio_900_L_20_R_18.png","xmouse":[801,801,801,801,801,801,801,801,801,801,801,801,801,801,801,801,801,801,801,801,801,801,801,801,801,801,801,801,801,801,802,804,821,830,837,845,855,876,885,893,904,928,967,983,997,1010,1018,1030,1036,1045,1057,1067,1090,1096,1100,1104],"ymouse":[528,528,528,528,528,528,528,528,528,528,528,528,528,528,528,528,528,528,528,528,528,528,528,528,528,528,528,528,528,527,521,517,489,477,467,458,446,418,403,390,375,345,294,272,252,235,223,206,199,192,182,172,136,121,107,98],"timestamp_mouse":[3,21,42,62,82,102,122,141,161,182,202,223,242,261,281,302,321,341,361,381,402,421,443,462,481,501,521,541,561,583,601,622,642,662,681,702,723,742,761,782,802,821,841,861,881,901,923,941,961,981,1002,1023,1041,1061,1081,1101],"xSR":741.5,"ySR":469.95,"xT1":424.9,"yT1":0,"xT2":1058.1,"yT2":0,"toosoon":0,"cond_shown":"equaldotsize","ratio_trial":900,"smaller_num":"18","larger_num":"20","correct_side":1,"subjID":"juandavidguerrero8","gender":"0","age":"9","school":"4"},{"start_time":1552073796619,"click_time":1552073798247,"finger_time":1552073797688,"fix_duration":250,"trial":7,"RT":1069,"MT":559,"sideResp":1,"stimulus":"img/900/randomdotsizeEA/L/4_Ratio_900_L_20_R_18.png","xmouse":[799,799,799,799,799,799,799,799,799,799,794,786,779,769,767,767,767,767,767,767,767,767,767,767,767,767,767,767,767,767,767,767,767,767,767,767,768,771,774,776,778,779,779,779,779,779,779,779,779,779,779,779,776,762,750,736,719,694,663,639,626,615,601,568,509,484,462,448,425,391,356,355,355,355,362,370,403,408,408,410,437,447],"ymouse":[512,512,512,512,512,512,512,512,512,512,518,528,537,545,546,546,546,546,546,546,546,546,546,546,546,546,546,546,546,546,546,546,546,546,546,545,535,524,516,509,504,500,500,499,499,499,499,499,499,499,498,490,473,452,432,413,399,378,343,303,273,227,209,188,161,151,146,144,140,135,129,129,129,128,119,116,109,107,107,106,103,99],"timestamp_mouse":[13,40,48,69,88,109,128,148,168,188,208,228,249,269,289,309,328,348,369,389,408,428,448,470,489,509,528,550,569,588,608,628,648,668,688,708,728,749,770,790,809,829,849,869,889,908,929,949,968,989,1009,1028,1049,1069,1088,1109,1129,1149,1169,1188,1208,1229,1249,1269,1288,1308,1329,1348,1368,1388,1409,1428,1448,1468,1489,1509,1529,1548,1568,1589,1609,1628],"xSR":741.5,"ySR":469.95,"xT1":424.9,"yT1":0,"xT2":1058.1,"yT2":0,"toosoon":0,"cond_shown":"randomdotsizeEA","ratio_trial":900,"smaller_num":"18","larger_num":"20","correct_side":1,"subjID":"juandavidguerrero8","gender":"0","age":"9","school":"4"},{"start_time":1552073802120,"click_time":1552073803087,"finger_time":1552073802787,"fix_duration":1210.4915060763904,"trial":8,"RT":667,"MT":300,"sideResp":2,"stimulus":"img/900/randomdotsizeEA/L/4_Ratio_900_L_20_R_18.png","xmouse":[789,789,789,789,789,789,789,789,789,789,789,789,789,789,789,789,789,789,789,789,789,789,789,789,789,789,789,789,790,792,796,810,814,818,820,822,822,822,823,826,835,858,875,906,937,973,1054,1074,1082],"ymouse":[519,519,519,519,519,519,519,519,519,519,519,519,519,519,519,519,519,519,519,519,519,519,519,519,519,519,519,519,519,516,509,486,476,469,466,464,463,463,460,452,439,396,369,328,286,239,135,100,78],"timestamp_mouse":[9,28,47,69,87,107,127,147,168,189,207,228,248,267,287,308,327,349,368,387,408,428,448,468,489,508,527,547,567,587,607,627,648,667,687,707,728,749,769,788,807,827,847,867,888,907,927,948,967],"xSR":741.5,"ySR":469.95,"xT1":424.9,"yT1":0,"xT2":1058.1,"yT2":0,"toosoon":0,"cond_shown":"randomdotsizeEA","ratio_trial":900,"smaller_num":"18","larger_num":"20","correct_side":1,"subjID":"juandavidguerrero8","gender":"0","age":"9","school":"4"},{"start_time":1552073805707,"click_time":1552073807287,"finger_time":1552073806447,"fix_duration":578.4436366956934,"trial":9,"RT":740,"MT":840,"sideResp":1,"stimulus":"img/750/equaldotsize/L/8_Ratio_750_L_4_R_3.png","xmouse":[768,768,768,768,768,768,768,768,768,768,768,768,768,768,768,768,768,768,768,768,768,768,768,768,768,768,768,768,770,774,776,779,781,782,784,784,785,786,787,787,787,787,784,784,783,783,783,783,783,783,783,783,783,783,783,783,783,783,783,783,782,781,777,771,764,753,733,707,693,676,658,644,633,613,598,583,563,544,532,513],"ymouse":[535,535,535,535,535,535,535,535,535,535,535,535,535,535,535,535,535,535,535,535,535,535,535,535,535,535,535,534,531,526,521,514,500,492,485,477,475,467,460,454,450,446,437,436,435,435,435,435,435,434,434,434,434,434,434,433,428,418,412,407,402,397,388,381,373,363,338,301,282,261,239,223,207,183,170,157,138,108,92,70],"timestamp_mouse":[10,20,43,60,80,101,121,140,161,180,201,220,241,261,281,300,321,340,361,381,402,421,440,460,480,500,521,540,561,580,600,620,640,661,680,700,722,740,761,781,801,820,840,861,880,900,920,942,962,981,1000,1021,1041,1061,1080,1101,1120,1141,1160,1182,1200,1221,1241,1260,1280,1300,1321,1341,1360,1380,1400,1421,1441,1461,1481,1501,1520,1541,1560,1580],"xSR":741.5,"ySR":469.95,"xT1":424.9,"yT1":0,"xT2":1058.1,"yT2":0,"toosoon":0,"cond_shown":"equaldotsize","ratio_trial":750,"smaller_num":"3","larger_num":"4","correct_side":1,"subjID":"juandavidguerrero8","gender":"0","age":"9","school":"4"},{"start_time":1552073809162,"click_time":1552073810668,"finger_time":1552073810347,"fix_duration":891.7735583029365,"trial":10,"RT":1185,"MT":321,"sideResp":1,"stimulus":"img/900/randomdotsizeEA/L/10_Ratio_900_L_20_R_18.png","xmouse":[801,801,801,801,801,801,801,801,801,801,801,801,801,801,801,801,801,801,801,801,801,801,801,801,801,801,801,801,801,801,801,801,801,801,801,801,801,801,801,801,801,801,801,801,801,801,801,800,800,800,800,800,800,800,800,798,797,797,797,797,797,797,793,789,779,740,698,638,586,567,561,552,545,535,527,518],"ymouse":[527,527,527,527,527,527,527,527,527,527,527,527,527,527,527,527,527,527,527,527,527,527,527,527,527,527,527,527,527,527,527,527,527,527,527,527,527,527,527,527,527,527,527,527,527,527,527,527,526,523,517,515,512,509,504,490,482,476,470,464,453,437,421,403,378,307,259,202,156,136,117,104,97,92,90,89],"timestamp_mouse":[14,35,45,65,86,106,127,146,166,186,206,225,245,266,286,305,327,345,365,385,406,425,445,466,486,506,525,545,566,585,605,626,646,665,685,706,726,745,765,786,807,825,846,866,885,907,925,946,967,986,1005,1025,1047,1066,1085,1105,1126,1146,1167,1185,1206,1226,1245,1265,1286,1306,1325,1345,1366,1387,1405,1425,1445,1465,1486,1505],"xSR":741.5,"ySR":469.95,"xT1":424.9,"yT1":0,"xT2":1058.1,"yT2":0,"toosoon":0,"cond_shown":"randomdotsizeEA","ratio_trial":900,"smaller_num":"18","larger_num":"20","correct_side":1,"subjID":"juandavidguerrero8","gender":"0","age":"9","school":"4"},{"start_time":1552073812689,"click_time":1552073814187,"finger_time":1552073813688,"fix_duration":999.640043869133,"trial":11,"RT":999,"MT":499,"sideResp":1,"stimulus":"img/750/equaldotanddens/L/9_Ratio_750_L_4_R_3.png","xmouse":[761,762,764,764,765,765,765,765,765,765,765,765,765,765,765,765,765,765,765,765,765,765,765,765,765,765,765,765,765,765,765,765,765,765,765,765,765,765,765,765,765,765,765,765,765,766,767,767,768,774,775,778,781,782,789,792,795,799,802,805,805,801,793,791,789,776,763,741,716,677,666,653,634,604,528,520],"ymouse":[507,507,507,507,507,507,507,507,507,507,507,507,507,507,507,507,507,507,507,507,507,507,507,507,507,507,507,507,507,507,507,507,507,507,507,507,507,507,507,507,507,507,507,507,507,507,504,501,494,474,464,454,437,432,407,398,385,373,360,326,302,269,244,228,205,179,165,157,151,141,137,133,127,117,95,93],"timestamp_mouse":[1,19,48,58,78,99,119,139,159,178,198,219,238,259,278,299,319,339,358,378,398,418,439,459,478,499,519,539,558,578,598,619,638,659,678,698,719,739,759,779,799,819,838,859,878,898,918,939,958,978,999,1019,1039,1058,1078,1099,1118,1139,1159,1179,1200,1217,1239,1258,1278,1298,1319,1339,1358,1379,1398,1419,1438,1458,1478,1498],"xSR":741.5,"ySR":469.95,"xT1":424.9,"yT1":0,"xT2":1058.1,"yT2":0,"toosoon":0,"cond_shown":"equaldotanddens","ratio_trial":750,"smaller_num":"3","larger_num":"4","correct_side":1,"subjID":"juandavidguerrero8","gender":"0","age":"9","school":"4"},{"start_time":1552073816352,"click_time":1552073817749,"finger_time":1552073817328,"fix_duration":1462.2804153862687,"trial":12,"RT":976,"MT":421,"sideResp":2,"stimulus":"img/900/equaldotanddens/L/8_Ratio_900_L_20_R_18.png","xmouse":[788,788,788,788,788,788,788,788,788,788,788,788,788,788,788,788,788,788,788,788,788,788,788,788,788,788,788,788,788,788,788,788,788,788,788,788,788,788,788,788,788,788,788,788,787,787,792,801,816,829,858,873,886,896,908,923,952,966,980,989,998,1025,1039,1050,1055,1056,1057,1058,1068,1075],"ymouse":[513,513,513,513,513,513,513,513,513,513,513,513,513,513,513,513,513,513,513,513,513,513,513,513,513,513,513,513,513,513,513,513,513,513,513,513,513,513,513,513,513,513,513,513,513,507,496,482,454,432,376,341,309,287,266,248,213,195,176,164,153,131,121,111,106,105,104,104,101,96],"timestamp_mouse":[27,40,56,75,96,116,135,156,175,196,216,235,256,276,296,316,336,355,376,395,416,435,455,475,495,516,536,555,575,596,615,636,656,677,696,715,736,756,775,796,815,835,856,876,895,916,936,955,976,995,1017,1035,1056,1075,1096,1115,1135,1155,1175,1195,1215,1235,1256,1275,1295,1315,1335,1355,1375,1396],"xSR":741.5,"ySR":469.95,"xT1":424.9,"yT1":0,"xT2":1058.1,"yT2":0,"toosoon":0,"cond_shown":"equaldotanddens","ratio_trial":900,"smaller_num":"18","larger_num":"20","correct_side":1,"subjID":"juandavidguerrero8","gender":"0","age":"9","school":"4"},{"start_time":1552073820840,"click_time":1552073822188,"finger_time":1552073821787,"fix_duration":552.5165516775203,"trial":13,"RT":947,"MT":401,"sideResp":2,"stimulus":"img/750/equaldotsize/R/12_Ratio_750_L_3_R_4.png","xmouse":[805,805,805,805,805,804,804,803,802,801,801,801,801,801,801,801,801,801,801,801,801,801,801,801,801,801,801,801,801,801,801,801,801,801,801,801,801,801,801,801,801,801,801,801,801,802,809,830,843,854,864,869,892,904,920,933,945,955,959,964,976,987,1022,1036,1046,1055,1069,1114],"ymouse":[515,515,515,515,515,515,515,515,515,515,515,515,515,515,515,515,515,515,515,515,515,515,515,515,515,515,515,515,515,515,515,515,515,515,515,515,515,515,515,515,515,515,515,515,512,506,489,445,418,393,369,349,287,268,248,236,227,217,213,208,200,192,164,153,143,133,121,91],"timestamp_mouse":[12,37,47,67,87,108,127,147,167,188,207,228,247,268,287,307,328,347,367,387,408,427,447,467,488,508,527,547,568,587,608,627,647,667,687,707,727,747,767,788,807,828,847,868,887,907,928,947,967,987,1007,1027,1047,1069,1087,1107,1127,1148,1167,1188,1208,1228,1248,1267,1287,1307,1327,1348],"xSR":741.5,"ySR":469.95,"xT1":424.9,"yT1":0,"xT2":1058.1,"yT2":0,"toosoon":0,"cond_shown":"equaldotsize","ratio_trial":750,"smaller_num":"3","larger_num":"4","correct_side":2,"subjID":"juandavidguerrero8","gender":"0","age":"9","school":"4"},{"start_time":1552073824599,"click_time":1552073825868,"finger_time":1552073825408,"fix_duration":250,"trial":14,"RT":809,"MT":460,"sideResp":1,"stimulus":"img/750/equaldotsize/L/9_Ratio_750_L_4_R_3.png","xmouse":[822,822,822,822,822,822,822,822,822,822,822,822,822,822,822,822,822,822,822,822,822,822,822,822,822,822,822,822,822,822,822,822,822,822,822,822,821,821,820,814,809,804,791,781,768,741,729,713,693,671,629,621,617,614,605,599,591,581,573,566,555,547,536,517],"ymouse":[533,533,533,533,533,533,533,533,533,533,533,533,533,533,533,533,533,533,533,533,533,533,533,533,533,533,533,533,533,533,533,533,533,533,533,533,532,525,516,485,466,448,418,394,371,323,302,279,257,233,196,189,186,186,184,182,176,166,155,143,122,110,100,87],"timestamp_mouse":[14,36,49,68,89,108,128,148,169,188,208,228,249,269,289,309,329,348,368,388,408,428,448,468,489,508,529,548,568,589,609,628,648,668,688,709,729,748,768,789,809,828,849,868,890,908,928,948,968,988,1008,1028,1049,1069,1090,1108,1128,1148,1169,1188,1208,1228,1248,1269],"xSR":741.5,"ySR":469.95,"xT1":424.9,"yT1":0,"xT2":1058.1,"yT2":0,"toosoon":0,"cond_shown":"equaldotsize","ratio_trial":750,"smaller_num":"3","larger_num":"4","correct_side":1,"subjID":"juandavidguerrero8","gender":"0","age":"9","school":"4"},{"start_time":1552073828877,"click_time":1552073830007,"finger_time":1552073829607,"fix_duration":268.0011673651567,"trial":15,"RT":730,"MT":400,"sideResp":2,"stimulus":"img/750/equaldotsize/R/11_Ratio_750_L_12_R_16.png","xmouse":[758,758,758,758,758,758,758,758,758,758,758,758,758,758,758,758,758,758,758,758,758,758,758,758,758,758,758,758,758,758,758,758,760,762,767,776,809,824,835,853,867,902,915,929,939,946,959,968,978,986,995,1017,1038,1061,1081,1105,1116],"ymouse":[521,521,521,521,521,521,521,521,521,521,521,521,521,521,521,521,521,521,521,521,521,521,521,521,521,521,521,521,521,521,521,521,520,518,511,499,429,391,353,312,280,217,195,178,167,159,152,149,147,145,145,143,142,139,133,119,98],"timestamp_mouse":[10,44,50,71,91,111,130,150,171,190,210,230,250,271,290,311,330,350,371,390,411,431,451,470,490,511,530,550,571,591,611,630,650,670,690,710,730,750,770,790,811,831,850,870,890,910,930,951,970,990,1012,1030,1050,1071,1091,1111,1130],"xSR":741.5,"ySR":469.95,"xT1":424.9,"yT1":0,"xT2":1058.1,"yT2":0,"toosoon":0,"cond_shown":"equaldotsize","ratio_trial":750,"smaller_num":"12","larger_num":"16","correct_side":2,"subjID":"juandavidguerrero8","gender":"0","age":"9","school":"4"},{"start_time":1552073831227,"click_time":1552073832389,"finger_time":1552073832008,"fix_duration":317.37185728360873,"trial":16,"RT":781,"MT":381,"sideResp":2,"stimulus":"img/900/randomdotsizeEA/R/13_Ratio_900_L_18_R_20.png","xmouse":[783,783,783,783,783,783,783,783,783,783,783,783,783,783,783,783,783,783,783,784,784,784,784,784,784,784,784,784,784,784,784,784,784,785,785,788,789,794,800,824,839,856,878,911,986,1018,1041,1057,1081,1104,1111,1116,1117,1117,1117,1117,1117,1113,1108],"ymouse":[492,492,492,492,492,492,492,492,492,492,492,492,492,492,492,492,492,492,492,492,492,492,492,492,492,492,492,492,492,492,492,492,492,492,492,492,492,488,483,461,447,428,404,372,299,263,228,199,167,143,134,128,124,122,120,117,113,104,93],"timestamp_mouse":[10,33,40,61,80,100,121,140,161,181,201,221,241,261,280,299,320,341,360,380,400,421,441,460,480,501,520,540,561,580,601,620,642,661,680,700,720,741,760,781,800,820,841,861,882,900,920,941,960,981,1000,1020,1040,1060,1081,1100,1121,1140,1161],"xSR":741.5,"ySR":469.95,"xT1":424.9,"yT1":0,"xT2":1058.1,"yT2":0,"toosoon":0,"cond_shown":"randomdotsizeEA","ratio_trial":900,"smaller_num":"18","larger_num":"20","correct_side":2,"subjID":"juandavidguerrero8","gender":"0","age":"9","school":"4"},{"start_time":1552073833684,"click_time":1552073834548,"finger_time":1552073834308,"fix_duration":335.7845045332113,"trial":17,"RT":624,"MT":240,"sideResp":2,"stimulus":"img/900/equaldotsize/L/8_Ratio_900_L_20_R_18.png","xmouse":[767,767,767,767,767,767,767,767,767,767,767,767,767,767,767,767,767,767,767,767,767,767,767,767,769,770,771,773,773,775,777,796,809,822,836,860,883,933,959,985,1007,1028,1058,1065],"ymouse":[484,484,484,484,484,484,484,484,484,484,484,484,484,484,484,484,484,484,484,484,484,484,484,484,484,484,484,484,484,483,481,459,444,425,408,374,341,272,236,200,167,134,93,80],"timestamp_mouse":[13,40,44,63,83,104,123,144,164,183,203,224,244,263,284,303,323,344,363,383,404,423,444,464,483,503,523,543,564,584,604,624,643,664,684,704,724,743,763,783,804,825,843,863],"xSR":741.5,"ySR":469.95,"xT1":424.9,"yT1":0,"xT2":1058.1,"yT2":0,"toosoon":0,"cond_shown":"equaldotsize","ratio_trial":900,"smaller_num":"18","larger_num":"20","correct_side":1,"subjID":"juandavidguerrero8","gender":"0","age":"9","school":"4"},{"start_time":1552073835820,"click_time":1552073836727,"finger_time":1552073836527,"fix_duration":291.18319510684154,"trial":18,"RT":707,"MT":200,"sideResp":2,"stimulus":"img/750/equaldotanddens/R/15_Ratio_750_L_9_R_12.png","xmouse":[766,766,766,766,766,766,766,766,766,766,766,766,766,766,766,766,766,766,766,766,766,766,766,766,766,766,766,766,766,766,766,766,769,772,778,808,824,844,869,900,963,991,1017,1036,1051,1071],"ymouse":[488,488,488,488,488,488,488,488,488,488,488,488,488,488,488,488,488,488,488,488,488,488,488,488,488,488,488,488,488,488,488,488,488,488,485,454,434,406,375,337,258,219,176,142,110,67],"timestamp_mouse":[19,35,47,67,88,107,127,148,167,187,207,228,248,268,288,307,327,347,367,388,407,427,447,467,487,507,527,548,568,587,607,627,648,668,687,707,727,748,767,788,807,827,847,867,887,907],"xSR":741.5,"ySR":469.95,"xT1":424.9,"yT1":0,"xT2":1058.1,"yT2":0,"toosoon":0,"cond_shown":"equaldotanddens","ratio_trial":750,"smaller_num":"9","larger_num":"12","correct_side":2,"subjID":"juandavidguerrero8","gender":"0","age":"9","school":"4"},{"start_time":1552073838367,"click_time":1552073839587,"finger_time":1552073839068,"fix_duration":757.8031786280046,"trial":19,"RT":701,"MT":519,"sideResp":1,"stimulus":"img/500/equaldotanddens/L/10_Ratio_500_L_4_R_2.png","xmouse":[759,759,759,760,761,762,762,762,762,762,762,762,762,762,762,762,762,762,762,762,762,762,763,763,764,764,764,764,764,765,766,768,770,773,775,777,778,779,780,784,787,789,791,791,791,790,784,773,757,747,737,721,701,639,605,584,573,568,552,543,529,512],"ymouse":[487,487,487,487,487,487,487,487,487,487,487,487,487,487,487,487,487,487,487,487,487,487,487,487,487,487,487,487,487,487,487,486,482,474,472,469,468,467,465,460,448,433,411,356,320,281,237,172,118,99,88,81,75,58,46,38,33,30,26,25,25,25],"timestamp_mouse":[10,21,42,61,81,100,120,141,160,180,200,220,240,260,280,300,321,341,360,380,401,420,441,460,480,501,521,540,560,580,601,621,642,660,681,701,721,741,760,780,800,820,841,860,880,901,921,941,960,981,1000,1020,1041,1060,1081,1100,1121,1140,1161,1180,1201,1220],"xSR":741.5,"ySR":469.95,"xT1":424.9,"yT1":0,"xT2":1058.1,"yT2":0,"toosoon":0,"cond_shown":"equaldotanddens","ratio_trial":500,"smaller_num":"2","larger_num":"4","correct_side":1,"subjID":"juandavidguerrero8","gender":"0","age":"9","school":"4"},{"start_time":1552073844530,"click_time":1552073845687,"finger_time":1552073845267,"fix_duration":1021.322440861639,"trial":20,"RT":737,"MT":420,"sideResp":1,"stimulus":"img/500/randomdotsizeEA/L/13_Ratio_500_L_12_R_6.png","xmouse":[800,800,800,800,801,801,801,801,801,801,801,801,801,801,801,801,801,801,801,801,801,801,801,801,801,801,801,801,801,801,801,803,806,807,810,814,816,818,820,825,832,837,838,835,821,765,731,693,660,634,594,583,569,556,546,535,526,523],"ymouse":[526,526,526,526,526,526,526,526,526,526,526,526,526,526,526,526,526,526,526,526,526,526,526,526,526,526,526,526,526,526,526,523,515,511,500,482,468,456,441,424,379,345,303,249,198,108,87,72,63,58,52,50,48,46,45,45,45,45],"timestamp_mouse":[18,38,58,77,98,118,137,158,177,197,217,237,258,277,298,317,338,357,378,397,418,438,458,477,498,518,537,558,577,597,618,637,657,677,697,717,737,757,777,797,817,838,857,877,898,917,937,957,977,997,1017,1037,1057,1077,1097,1117,1137,1157],"xSR":741.5,"ySR":469.95,"xT1":424.9,"yT1":0,"xT2":1058.1,"yT2":0,"toosoon":0,"cond_shown":"randomdotsizeEA","ratio_trial":500,"smaller_num":"6","larger_num":"12","correct_side":1,"subjID":"juandavidguerrero8","gender":"0","age":"9","school":"4"},{"start_time":1552073847119,"click_time":1552073848187,"finger_time":1552073847767,"fix_duration":250,"trial":21,"RT":648,"MT":420,"sideResp":2,"stimulus":"img/750/equaldotanddens/R/12_Ratio_750_L_3_R_4.png","xmouse":[795,795,795,795,795,795,795,795,795,795,795,795,795,795,795,795,795,795,795,795,795,795,795,795,795,795,795,795,795,795,796,809,822,837,861,869,893,902,911,923,936,969,988,1010,1036,1057,1084,1087,1090,1091,1093,1093,1094,1095],"ymouse":[494,494,494,494,494,494,494,494,494,494,494,494,494,494,494,494,494,494,494,494,494,494,494,494,494,494,494,494,494,494,492,474,460,443,419,412,385,373,362,348,333,301,279,255,230,204,161,152,144,137,129,111,102,96],"timestamp_mouse":[9,42,48,68,88,109,128,148,169,189,208,228,249,269,288,308,328,349,368,389,409,428,449,469,488,509,528,548,569,588,609,628,648,668,689,708,728,748,769,788,808,829,848,868,888,908,928,949,968,988,1009,1028,1048,1068],"xSR":741.5,"ySR":469.95,"xT1":424.9,"yT1":0,"xT2":1058.1,"yT2":0,"toosoon":0,"cond_shown":"equaldotanddens","ratio_trial":750,"smaller_num":"3","larger_num":"4","correct_side":2,"subjID":"juandavidguerrero8","gender":"0","age":"9","school":"4"},{"start_time":1552073849847,"click_time":1552073850668,"finger_time":1552073850507,"fix_duration":776.0308701118608,"trial":22,"RT":660,"MT":161,"sideResp":2,"stimulus":"img/900/equaldotanddens/R/5_Ratio_900_L_9_R_10.png","xmouse":[777,777,777,777,777,777,777,777,777,777,777,777,777,777,777,777,777,777,777,777,777,777,777,777,777,777,777,777,777,777,777,778,783,792,807,846,872,922,961,1000,1070,1096],"ymouse":[481,481,481,481,481,481,481,481,481,481,481,481,481,481,481,481,481,481,481,481,481,481,481,481,481,481,481,481,481,481,481,481,472,459,439,383,347,278,233,183,106,76],"timestamp_mouse":[18,26,40,60,80,100,120,140,161,181,200,221,241,260,280,300,321,340,360,380,400,420,441,460,481,501,521,540,560,580,601,620,640,660,680,701,720,740,760,780,801,820],"xSR":741.5,"ySR":469.95,"xT1":424.9,"yT1":0,"xT2":1058.1,"yT2":0,"toosoon":0,"cond_shown":"equaldotanddens","ratio_trial":900,"smaller_num":"9","larger_num":"10","correct_side":2,"subjID":"juandavidguerrero8","gender":"0","age":"9","school":"4"},{"start_time":1552073852973,"click_time":1552073853767,"finger_time":1552073853667,"fix_duration":1404.7471448149067,"trial":23,"RT":694,"MT":100,"sideResp":2,"stimulus":"img/900/equaldotanddens/R/6_Ratio_900_L_9_R_10.png","xmouse":[780,780,780,780,780,780,780,780,780,780,780,780,780,780,780,780,780,780,780,780,780,780,780,780,780,780,780,780,780,780,780,780,782,786,814,835,877,938,1000,1119],"ymouse":[490,490,490,490,490,490,490,490,490,490,490,490,490,490,490,490,490,490,490,490,490,490,490,490,490,490,490,490,490,490,490,490,488,484,452,422,373,301,231,92],"timestamp_mouse":[14,38,55,74,95,114,135,155,174,194,214,234,255,274,294,315,335,355,375,395,415,435,454,474,494,514,535,554,574,595,615,634,654,675,694,714,735,754,774,794],"xSR":741.5,"ySR":469.95,"xT1":424.9,"yT1":0,"xT2":1058.1,"yT2":0,"toosoon":0,"cond_shown":"equaldotanddens","ratio_trial":900,"smaller_num":"9","larger_num":"10","correct_side":2,"subjID":"juandavidguerrero8","gender":"0","age":"9","school":"4"},{"start_time":1552073855873,"click_time":1552073857007,"finger_time":1552073856528,"fix_duration":1084.5781845315191,"trial":24,"RT":655,"MT":479,"sideResp":2,"stimulus":"img/250/equaldotanddens/R/13_Ratio_250_L_2_R_8.png","xmouse":[772,772,772,772,772,772,772,772,772,772,772,772,772,772,772,772,772,772,772,772,772,772,772,772,772,772,772,772,772,772,781,796,813,837,910,940,971,1006,1045,1130,1160,1184,1204,1221,1243,1245,1246,1246,1246,1229,1214,1201,1187,1177,1166,1161,1157],"ymouse":[490,490,490,490,490,490,490,490,490,490,490,490,490,490,490,490,490,490,490,490,490,490,490,490,490,490,490,490,490,490,485,474,458,435,362,337,306,273,238,167,140,119,101,86,58,54,50,50,50,50,50,50,50,50,50,50,50],"timestamp_mouse":[13,40,55,74,94,114,135,154,175,194,215,234,255,275,294,314,334,354,375,395,415,435,455,474,494,514,534,555,575,594,615,635,655,674,695,714,734,754,774,794,814,835,854,875,894,915,935,955,975,994,1014,1034,1055,1075,1094,1114,1134],"xSR":741.5,"ySR":469.95,"xT1":424.9,"yT1":0,"xT2":1058.1,"yT2":0,"toosoon":0,"cond_shown":"equaldotanddens","ratio_trial":250,"smaller_num":"2","larger_num":"8","correct_side":2,"subjID":"juandavidguerrero8","gender":"0","age":"9","school":"4"},{"start_time":1552073858975,"click_time":1552073859969,"finger_time":1552073859628,"fix_duration":964.6249911927769,"trial":25,"RT":653,"MT":341,"sideResp":1,"stimulus":"img/750/equaldotanddens/L/13_Ratio_750_L_8_R_6.png","xmouse":[771,771,771,771,771,771,771,771,771,771,771,771,771,771,771,771,771,771,771,771,771,771,771,771,771,771,771,771,771,771,771,771,773,773,757,743,737,727,720,703,695,687,674,660,646,630,619,590,562,514],"ymouse":[491,491,491,491,491,491,491,491,491,491,491,491,491,491,491,491,491,491,491,491,491,491,491,491,491,491,491,491,491,491,490,478,459,435,370,340,316,280,258,219,200,183,162,141,123,102,94,84,77,69],"timestamp_mouse":[13,43,52,72,92,113,132,152,173,192,212,233,252,273,293,312,333,354,373,393,413,433,453,473,493,513,532,553,573,592,613,633,653,673,693,712,732,752,772,794,812,832,852,872,892,913,933,952,972,994],"xSR":741.5,"ySR":469.95,"xT1":424.9,"yT1":0,"xT2":1058.1,"yT2":0,"toosoon":0,"cond_shown":"equaldotanddens","ratio_trial":750,"smaller_num":"6","larger_num":"8","correct_side":1,"subjID":"juandavidguerrero8","gender":"0","age":"9","school":"4"},{"start_time":1552073862316,"click_time":1552073863408,"finger_time":1552073863187,"fix_duration":1367.6978867677576,"trial":26,"RT":871,"MT":221,"sideResp":1,"stimulus":"img/500/randomdotsizeEA/L/8_Ratio_500_L_8_R_4.png","xmouse":[797,797,797,797,797,797,797,797,797,797,797,797,797,797,797,797,797,797,797,797,797,797,797,797,797,797,797,797,797,797,797,797,797,797,797,797,797,797,797,797,797,797,793,775,764,751,731,704,638,595,569,540,515,489,485],"ymouse":[496,496,496,496,496,496,496,496,496,496,496,496,496,496,496,496,496,496,496,496,496,496,496,496,496,496,496,496,496,496,496,496,496,496,496,496,496,496,496,496,495,492,481,446,430,414,390,356,270,213,181,151,125,101,93],"timestamp_mouse":[12,40,51,72,91,112,132,151,172,191,211,232,251,272,292,312,331,351,372,392,412,431,451,472,491,512,531,551,571,592,612,631,651,672,692,712,731,752,771,792,811,831,851,871,892,911,931,951,971,991,1011,1031,1052,1071,1092],"xSR":741.5,"ySR":469.95,"xT1":424.9,"yT1":0,"xT2":1058.1,"yT2":0,"toosoon":0,"cond_shown":"randomdotsizeEA","ratio_trial":500,"smaller_num":"4","larger_num":"8","correct_side":1,"subjID":"juandavidguerrero8","gender":"0","age":"9","school":"4"},{"start_time":1552073864762,"click_time":1552073865888,"finger_time":1552073865488,"fix_duration":292.2376665516938,"trial":27,"RT":726,"MT":400,"sideResp":2,"stimulus":"img/750/equaldotanddens/R/5_Ratio_750_L_15_R_20.png","xmouse":[794,794,794,794,794,794,794,794,794,794,794,794,794,794,794,794,794,794,794,794,794,794,794,794,794,794,794,794,794,794,794,794,794,794,796,800,826,848,879,912,958,1062,1107,1166,1180,1206,1215,1215,1215,1215,1215,1211,1197,1190,1174,1160,1137],"ymouse":[491,491,491,491,491,491,491,491,491,491,491,491,491,491,491,491,491,491,491,491,491,491,491,491,491,491,491,491,491,491,491,491,491,491,488,485,460,438,407,377,336,249,204,146,131,98,82,82,82,82,79,71,62,62,62,62,62],"timestamp_mouse":[20,40,45,65,86,106,125,146,166,185,205,225,245,265,285,305,325,345,366,386,405,425,445,466,486,506,525,545,566,586,606,625,646,666,685,706,726,745,765,786,805,825,846,865,886,906,925,946,965,986,1005,1025,1045,1065,1085,1106,1126],"xSR":741.5,"ySR":469.95,"xT1":424.9,"yT1":0,"xT2":1058.1,"yT2":0,"toosoon":0,"cond_shown":"equaldotanddens","ratio_trial":750,"smaller_num":"15","larger_num":"20","correct_side":2,"subjID":"juandavidguerrero8","gender":"0","age":"9","school":"4"},{"start_time":1552073866955,"click_time":1552073868609,"finger_time":1552073867768,"fix_duration":267.34577852926856,"trial":28,"RT":813,"MT":841,"sideResp":2,"stimulus":"img/750/equaldotanddens/R/2_Ratio_750_L_6_R_8.png","xmouse":[774,774,774,774,774,774,774,774,774,774,774,774,774,774,774,774,774,774,774,774,774,774,774,774,774,774,774,774,774,774,774,774,774,774,774,774,774,774,774,774,774,770,767,760,758,751,741,733,722,697,662,599,584,573,570,569,569,569,570,573,579,593,607,624,663,705,774,791,803,818,837,868,877,889,893,914,933,972,993,1009,1024,1039,1076],"ymouse":[489,489,489,489,489,489,489,489,489,489,489,489,489,489,489,489,489,489,489,489,489,489,489,489,489,489,489,489,489,489,489,489,489,489,489,489,489,489,481,470,457,428,413,390,380,356,325,308,288,259,221,164,145,128,122,119,118,118,116,116,115,115,115,115,115,118,123,123,122,120,117,112,111,107,106,103,101,95,92,90,88,86,76],"timestamp_mouse":[12,35,52,74,93,113,132,152,173,193,212,233,253,272,292,313,333,353,372,393,413,432,452,473,493,512,533,553,573,592,612,632,653,672,693,713,732,752,772,793,813,833,852,873,892,912,933,952,973,992,1012,1033,1052,1072,1092,1112,1133,1153,1172,1193,1213,1234,1252,1272,1292,1313,1333,1352,1373,1393,1413,1434,1452,1472,1492,1512,1533,1553,1572,1593,1612,1633,1653],"xSR":741.5,"ySR":469.95,"xT1":424.9,"yT1":0,"xT2":1058.1,"yT2":0,"toosoon":0,"cond_shown":"equaldotanddens","ratio_trial":750,"smaller_num":"6","larger_num":"8","correct_side":2,"subjID":"juandavidguerrero8","gender":"0","age":"9","school":"4"},{"start_time":1552073870711,"click_time":1552073871967,"finger_time":1552073871627,"fix_duration":1261.7926228050676,"trial":29,"RT":916,"MT":340,"sideResp":2,"stimulus":"img/250/randomdotsizeEA/R/9_Ratio_250_L_3_R_12.png","xmouse":[790,790,790,790,790,790,790,790,790,790,790,790,790,790,790,790,790,790,790,790,790,790,790,790,790,790,790,790,790,790,790,790,790,790,790,790,790,790,790,790,790,790,790,790,797,811,826,847,871,933,960,980,992,1003,1022,1028,1031,1036,1041,1052,1059,1069,1079],"ymouse":[491,491,491,491,491,491,491,491,491,491,491,491,491,491,491,491,491,491,491,491,491,491,491,491,491,491,491,491,491,491,491,491,491,491,491,491,491,491,491,491,491,491,491,491,480,462,445,421,392,319,285,259,238,220,192,183,176,166,155,133,121,106,88],"timestamp_mouse":[16,43,57,77,96,116,137,156,177,196,216,236,256,276,296,317,336,356,376,397,417,437,456,476,496,516,536,556,577,597,617,636,656,676,697,717,737,756,777,797,816,836,856,876,896,916,936,957,977,996,1017,1036,1056,1077,1096,1116,1137,1156,1177,1196,1217,1236,1256],"xSR":741.5,"ySR":469.95,"xT1":424.9,"yT1":0,"xT2":1058.1,"yT2":0,"toosoon":0,"cond_shown":"randomdotsizeEA","ratio_trial":250,"smaller_num":"3","larger_num":"12","correct_side":2,"subjID":"juandavidguerrero8","gender":"0","age":"9","school":"4"},{"start_time":1552073872860,"click_time":1552073874170,"finger_time":1552073873709,"fix_duration":250,"trial":30,"RT":849,"MT":461,"sideResp":1,"stimulus":"img/500/equaldotanddens/L/11_Ratio_500_L_12_R_6.png","xmouse":[813,811,807,806,805,803,802,794,794,794,794,794,794,794,792,792,789,786,784,784,784,784,784,784,784,786,787,787,787,787,787,787,787,787,789,789,790,791,791,791,791,791,791,790,784,777,763,741,732,723,705,678,631,624,621,615,604,538,519,517,517,518,519,515,507,502],"ymouse":[487,486,485,485,485,485,485,485,485,485,485,485,485,485,486,487,491,499,501,501,501,501,501,501,502,502,502,502,502,502,502,502,502,502,501,500,499,499,498,494,487,476,452,437,417,397,364,317,297,279,257,234,201,197,194,193,189,160,153,150,148,145,136,127,111,94],"timestamp_mouse":[10,29,49,70,89,109,129,150,170,189,209,230,249,269,289,310,330,348,370,389,409,430,450,468,489,509,530,549,569,589,610,630,649,669,689,709,730,749,770,790,809,830,849,869,889,909,929,949,969,989,1009,1029,1049,1069,1089,1110,1129,1149,1169,1189,1210,1230,1249,1269,1289,1310],"xSR":741.5,"ySR":469.95,"xT1":424.9,"yT1":0,"xT2":1058.1,"yT2":0,"toosoon":0,"cond_shown":"equaldotanddens","ratio_trial":500,"smaller_num":"6","larger_num":"12","correct_side":1,"subjID":"juandavidguerrero8","gender":"0","age":"9","school":"4"},{"start_time":1552073875627,"click_time":1552073877190,"finger_time":1552073876630,"fix_duration":735.8026290404915,"trial":31,"RT":1003,"MT":560,"sideResp":2,"stimulus":"img/900/equaldotanddens/L/4_Ratio_900_L_20_R_18.png","xmouse":[789,789,789,789,789,789,789,789,789,789,789,789,789,789,789,789,789,789,789,789,789,789,789,789,789,789,789,789,789,789,789,789,789,789,789,789,789,789,789,789,789,789,789,789,789,789,789,789,789,805,817,831,847,868,889,937,958,979,1005,1032,1045,1053,1060,1066,1070,1076,1078,1079,1079,1078,1076,1075,1074,1074,1074,1074,1077,1089,1097],"ymouse":[501,501,501,501,501,501,501,501,501,501,501,501,501,501,501,501,501,501,501,501,501,501,501,501,501,501,501,501,501,501,501,501,501,501,501,501,501,501,501,501,501,501,501,501,501,501,501,500,499,480,467,454,438,418,395,348,326,308,282,251,235,222,209,198,188,174,163,155,146,135,129,125,123,123,123,122,117,102,93],"timestamp_mouse":[12,35,42,63,82,102,123,143,162,182,202,222,242,262,282,302,322,342,362,382,402,423,441,462,482,502,523,542,563,581,603,623,643,662,683,703,722,743,763,783,803,823,843,863,882,903,922,942,963,982,1003,1022,1042,1063,1082,1102,1122,1142,1162,1184,1202,1222,1242,1262,1283,1302,1322,1343,1361,1383,1402,1422,1443,1462,1482,1501,1522,1543,1563],"xSR":741.5,"ySR":469.95,"xT1":424.9,"yT1":0,"xT2":1058.1,"yT2":0,"toosoon":0,"cond_shown":"equaldotanddens","ratio_trial":900,"smaller_num":"18","larger_num":"20","correct_side":1,"subjID":"juandavidguerrero8","gender":"0","age":"9","school":"4"},{"start_time":1552073878824,"click_time":1552073879950,"finger_time":1552073879790,"fix_duration":593.4327082561745,"trial":32,"RT":966,"MT":160,"sideResp":2,"stimulus":"img/250/equaldotanddens/R/13_Ratio_250_L_2_R_8.png","xmouse":[770,770,770,770,770,770,770,770,770,770,770,770,770,770,770,770,770,770,770,770,770,770,770,770,770,770,770,770,770,770,770,770,770,770,770,770,770,770,770,776,779,780,780,782,784,794,815,835,861,886,941,962,979,999,1016,1066,1078],"ymouse":[509,509,509,509,509,509,509,509,509,509,509,509,509,509,509,509,509,509,509,509,509,509,509,509,509,509,509,509,509,509,509,509,509,509,509,509,509,509,509,509,509,509,509,509,508,507,496,484,461,437,374,339,301,258,215,121,99],"timestamp_mouse":[25,42,45,66,84,105,125,145,165,186,206,226,245,266,285,305,326,346,366,385,406,425,445,466,485,506,526,546,566,585,605,626,645,666,685,705,725,746,766,786,805,825,846,865,885,905,926,946,966,985,1005,1026,1045,1066,1085,1105,1125],"xSR":741.5,"ySR":469.95,"xT1":424.9,"yT1":0,"xT2":1058.1,"yT2":0,"toosoon":0,"cond_shown":"equaldotanddens","ratio_trial":250,"smaller_num":"2","larger_num":"8","correct_side":2,"subjID":"juandavidguerrero8","gender":"0","age":"9","school":"4"},{"start_time":1552073882020,"click_time":1552073883230,"finger_time":1552073882750,"fix_duration":1089.24948507806,"trial":33,"RT":730,"MT":480,"sideResp":1,"stimulus":"img/900/equaldotanddens/L/8_Ratio_900_L_20_R_18.png","xmouse":[770,770,770,770,770,770,770,770,770,770,770,770,770,770,770,770,770,770,770,770,770,770,770,770,770,770,770,770,770,770,770,770,770,770,770,774,776,778,778,778,781,783,784,786,788,795,798,798,799,800,794,777,754,729,716,668,620,573,538,525,506],"ymouse":[490,490,490,490,490,490,490,490,490,490,490,490,490,490,490,490,490,490,490,490,490,490,490,490,490,490,490,490,490,490,490,490,490,490,489,476,459,438,416,394,364,349,335,322,311,289,284,281,278,274,262,247,232,214,204,175,148,121,102,94,82],"timestamp_mouse":[13,42,50,70,90,110,130,149,169,190,208,230,249,270,290,309,330,349,370,390,409,430,450,469,490,509,529,550,570,590,609,629,649,669,690,709,730,749,768,790,810,829,849,870,890,909,929,949,970,990,1010,1029,1049,1069,1088,1109,1129,1149,1170,1190,1210],"xSR":741.5,"ySR":469.95,"xT1":424.9,"yT1":0,"xT2":1058.1,"yT2":0,"toosoon":0,"cond_shown":"equaldotanddens","ratio_trial":900,"smaller_num":"18","larger_num":"20","correct_side":1,"subjID":"juandavidguerrero8","gender":"0","age":"9","school":"4"},{"start_time":1552073884675,"click_time":1552073886090,"finger_time":1552073885709,"fix_duration":564.3832215228339,"trial":34,"RT":1034,"MT":381,"sideResp":2,"stimulus":"img/750/randomdotsizeEA/L/8_Ratio_750_L_4_R_3.png","xmouse":[767,767,767,767,767,767,767,767,767,767,767,767,767,767,767,767,767,767,767,767,767,767,767,767,767,767,767,767,767,767,767,767,767,767,767,767,767,767,767,767,767,767,767,767,767,767,767,767,771,773,778,782,794,804,813,823,837,872,885,906,914,929,953,963,973,983,995,1007,1025,1037,1060],"ymouse":[505,505,505,505,505,505,505,505,505,505,505,505,505,505,505,505,505,505,505,505,505,505,505,505,505,505,505,505,505,505,505,505,505,505,505,505,505,505,505,505,505,505,505,505,505,505,505,505,497,490,478,468,442,423,404,384,362,315,293,254,239,203,161,147,136,128,125,121,116,110,98],"timestamp_mouse":[15,40,55,75,95,115,134,154,175,195,214,235,254,274,295,315,335,354,375,395,415,435,455,474,495,515,535,555,575,594,615,635,654,674,694,715,735,755,775,794,815,835,854,874,895,914,934,954,974,995,1014,1034,1055,1074,1095,1114,1134,1156,1174,1194,1214,1234,1255,1274,1294,1314,1335,1355,1374,1395,1415],"xSR":741.5,"ySR":469.95,"xT1":424.9,"yT1":0,"xT2":1058.1,"yT2":0,"toosoon":0,"cond_shown":"randomdotsizeEA","ratio_trial":750,"smaller_num":"3","larger_num":"4","correct_side":1,"subjID":"juandavidguerrero8","gender":"0","age":"9","school":"4"},{"start_time":1552073891152,"click_time":1552073901490,"finger_time":1552073900269,"fix_duration":1160.3133285892134,"trial":35,"RT":9117,"MT":1221,"sideResp":1,"stimulus":"img/250/equaldotsize/L/2_Ratio_250_L_16_R_4.png","xmouse":[810,810,810,810,810,810,810,810,810,810,810,810,810,810,810,810,810,810,810,810,810,810,810,810,810,810,810,810,810,810,810,810,810,810,810,810,810,810,810,810,810,810,810,810,810,810,810,810,810,810,810,810,810,810,810,810,810,810,810,810,810,810,810,810,810,810,810,810,810,810,810,810,810,810,810,810,810,810,810,810,810,810,810,810,810,810,810,810,810,810,810,810,810,810,810,810,810,810,810,810,810,810,810,810,810,810,810,810,810,810,810,810,810,810,810,810,810,810,810,810,810,810,810,810,810,810,810,810,810,810,810,810,810,810,810,810,810,810,810,810,810,810,810,810,810,810,810,810,810,810,810,810,810,810,810,810,810,810,810,810,810,810,810,810,810,810,810,810,810,810,810,810,810,810,810,810,810,810,810,810,810,810,810,810,810,810,810,810,810,810,810,810,810,810,810,810,810,810,810,810,810,810,810,810,810,810,810,810,810,810,810,810,810,810,810,810,810,810,810,810,810,810,810,810,810,810,810,810,810,810,810,810,810,810,810,810,810,810,810,810,810,810,810,810,810,810,810,810,810,810,810,810,810,810,810,810,810,810,810,810,810,810,810,810,810,810,810,810,810,810,810,810,810,810,810,810,810,810,810,810,810,810,810,810,810,810,810,810,810,810,810,810,810,810,810,810,810,810,810,810,810,810,810,810,810,810,810,810,810,810,810,810,810,810,810,810,810,810,810,810,810,810,810,810,810,810,810,810,810,810,810,810,810,810,810,810,810,810,810,810,810,810,810,810,810,810,810,810,810,810,810,810,810,810,810,810,810,810,810,810,810,810,810,810,810,810,810,810,810,810,810,810,810,810,810,810,810,810,810,810,810,810,810,810,810,810,810,810,810,810,810,810,810,810,810,810,810,810,810,810,810,810,810,810,810,810,810,810,810,810,810,810,810,810,810,810,810,810,810,810,810,810,810,810,810,810,810,810,810,810,810,810,810,810,810,810,810,810,810,810,810,810,810,810,810,810,810,810,810,810,810,810,810,810,809,798,785,772,767,767,767,767,767,767,767,767,767,767,767,767,767,767,766,766,762,759,759,755,739,709,690,689,689,689,692,703,705,707,709,712,720,721,721,721,721,724,729,732,735,735,729,714,687,654,630,619,591,576,553,541,532,532,536,536,536,527,520],"ymouse":[546,546,546,546,546,546,546,546,546,546,546,546,546,546,546,546,546,546,546,546,546,546,546,546,546,546,546,546,546,546,546,546,546,546,546,546,546,546,546,546,546,546,546,546,546,546,546,546,546,546,546,546,546,546,546,546,546,546,546,546,546,546,546,546,546,546,546,546,546,546,546,546,546,546,546,546,546,546,546,546,546,546,546,546,546,546,546,546,546,546,546,546,546,546,546,546,546,546,546,546,546,546,546,546,546,546,546,546,546,546,546,546,546,546,546,546,546,546,546,546,546,546,546,546,546,546,546,546,546,546,546,546,546,546,546,546,546,546,546,546,546,546,546,546,546,546,546,546,546,546,546,546,546,546,546,546,546,546,546,546,546,546,546,546,546,546,546,546,546,546,546,546,546,546,546,546,546,546,546,546,546,546,546,546,546,546,546,546,546,546,546,546,546,546,546,546,546,546,546,546,546,546,546,546,546,546,546,546,546,546,546,546,546,546,546,546,546,546,546,546,546,546,546,546,546,546,546,546,546,546,546,546,546,546,546,546,546,546,546,546,546,546,546,546,546,546,546,546,546,546,546,546,546,546,546,546,546,546,546,546,546,546,546,546,546,546,546,546,546,546,546,546,546,546,546,546,546,546,546,546,546,546,546,546,546,546,546,546,546,546,546,546,546,546,546,546,546,546,546,546,546,546,546,546,546,546,546,546,546,546,546,546,546,546,546,546,546,546,546,546,546,546,546,546,546,546,546,546,546,546,546,546,546,546,546,546,546,546,546,546,546,546,546,546,546,546,546,546,546,546,546,546,546,546,546,546,546,546,546,546,546,546,546,546,546,546,546,546,546,546,546,546,546,546,546,546,546,546,546,546,546,546,546,546,546,546,546,546,546,546,546,546,546,546,546,546,546,546,546,546,546,546,546,546,546,546,546,546,546,546,546,546,546,546,546,546,546,546,546,546,546,546,546,546,546,546,546,546,546,546,546,546,546,546,546,546,546,546,546,546,546,546,546,546,546,546,546,546,546,546,546,546,546,546,546,570,590,602,602,602,602,602,602,602,602,602,602,602,602,602,602,602,602,604,606,607,607,608,610,613,615,615,615,615,610,593,578,564,554,541,530,527,527,526,522,508,502,497,491,490,451,399,342,291,242,177,125,106,69,48,29,7,2,2,2,5,7],"timestamp_mouse":[18,37,58,78,98,117,137,157,178,197,217,238,258,277,297,317,338,358,377,397,417,438,457,478,497,517,538,557,578,597,617,638,657,677,697,717,738,757,777,797,818,837,857,878,897,918,938,958,977,997,1017,1038,1058,1078,1097,1118,1138,1158,1177,1197,1218,1237,1257,1277,1297,1318,1336,1358,1377,1397,1418,1437,1458,1477,1497,1518,1538,1558,1577,1597,1618,1638,1657,1678,1696,1718,1737,1757,1778,1797,1818,1838,1857,1878,1897,1918,1937,1956,1978,1997,2017,2037,2058,2078,2097,2117,2138,2158,2177,2197,2217,2237,2258,2277,2297,2317,2338,2358,2377,2397,2418,2438,2457,2478,2497,2517,2538,2558,2578,2597,2617,2638,2658,2677,2698,2717,2738,2758,2777,2797,2818,2838,2858,2877,2897,2918,2938,2958,2977,2997,3017,3038,3057,3078,3097,3117,3138,3158,3178,3196,3217,3238,3258,3278,3298,3317,3336,3358,3378,3397,3418,3437,3457,3478,3498,3517,3538,3558,3577,3597,3618,3638,3658,3677,3698,3718,3737,3758,3777,3797,3818,3836,3858,3877,3897,3917,3938,3957,3978,3998,4018,4037,4057,4078,4098,4117,4138,4158,4177,4198,4216,4236,4258,4278,4298,4317,4338,4357,4376,4397,4418,4438,4457,4478,4498,4518,4538,4558,4577,4598,4617,4638,4658,4677,4697,4718,4737,4758,4777,4797,4818,4837,4858,4877,4898,4918,4937,4957,4978,4998,5018,5038,5058,5078,5097,5118,5138,5157,5178,5197,5218,5238,5257,5278,5298,5316,5338,5357,5378,5397,5417,5438,5457,5478,5498,5518,5538,5558,5578,5598,5617,5638,5658,5677,5698,5717,5736,5758,5778,5798,5818,5837,5858,5878,5897,5918,5937,5958,5978,5998,6018,6037,6057,6078,6098,6118,6137,6158,6177,6197,6217,6237,6258,6278,6298,6318,6337,6357,6378,6397,6418,6438,6457,6478,6497,6518,6538,6557,6578,6598,6618,6637,6658,6677,6697,6718,6737,6758,6778,6797,6817,6836,6858,6878,6897,6917,6937,6957,6978,6998,7018,7038,7058,7078,7098,7117,7138,7158,7177,7197,7216,7238,7258,7277,7298,7317,7337,7358,7378,7397,7417,7438,7458,7478,7497,7516,7537,7556,7578,7598,7616,7638,7658,7677,7698,7717,7738,7758,7777,7797,7817,7838,7858,7877,7897,7918,7937,7957,7977,7997,8017,8037,8058,8077,8098,8117,8138,8157,8177,8197,8218,8237,8258,8277,8298,8317,8337,8358,8378,8398,8417,8437,8458,8478,8497,8517,8537,8557,8577,8597,8617,8638,8658,8677,8698,8717,8738,8757,8777,8797,8817,8838,8857,8878,8897,8917,8937,8958,8978,8998,9017,9038,9057,9078,9097,9117,9137,9157,9177,9197,9218,9238,9258,9277,9298,9318,9337,9358,9377,9398,9417,9437,9457,9478,9498,9518,9536,9558,9578,9598,9617,9637,9658,9678,9697,9718,9738,9758,9778,9797,9817,9837,9857,9877,9898,9917,9937,9958,9977,9997,10017,10037,10058,10077,10097,10117,10137,10157,10178,10197,10217,10238,10257,10278,10297,10318,10337],"xSR":741.5,"ySR":469.95,"xT1":424.9,"yT1":0,"xT2":1058.1,"yT2":0,"toosoon":0,"cond_shown":"equaldotsize","ratio_trial":250,"smaller_num":"4","larger_num":"16","correct_side":1,"subjID":"juandavidguerrero8","gender":"0","age":"9","school":"4"},{"start_time":1552073902681,"click_time":1552073903870,"finger_time":1552073903349,"fix_duration":250,"trial":36,"RT":668,"MT":521,"sideResp":1,"stimulus":"img/250/equaldotanddens/L/3_Ratio_250_L_8_R_2.png","xmouse":[757,757,757,757,757,757,757,757,757,757,757,757,757,757,757,757,757,757,757,757,757,757,757,757,757,757,757,757,757,757,758,758,752,737,701,674,645,616,597,582,553,546,538,535,535,535,538,539,541,545,545,545,544,542,525,513,504,499,496,495],"ymouse":[511,511,511,511,511,511,511,511,511,511,511,511,511,511,511,511,511,511,511,511,511,511,511,511,511,511,511,511,511,511,508,501,483,450,395,360,330,306,290,280,263,257,247,239,223,217,211,207,201,183,174,169,167,167,158,149,137,126,113,88],"timestamp_mouse":[13,36,49,67,89,109,129,149,169,188,208,228,247,269,288,308,328,349,369,388,408,428,448,469,489,509,529,549,569,589,608,628,648,668,690,708,728,748,768,789,808,828,848,869,889,909,928,947,969,989,1009,1028,1049,1069,1089,1108,1129,1149,1168,1189],"xSR":741.5,"ySR":469.95,"xT1":424.9,"yT1":0,"xT2":1058.1,"yT2":0,"toosoon":0,"cond_shown":"equaldotanddens","ratio_trial":250,"smaller_num":"2","larger_num":"8","correct_side":1,"subjID":"juandavidguerrero8","gender":"0","age":"9","school":"4"},{"start_time":1552073906541,"click_time":1552073907889,"finger_time":1552073907510,"fix_duration":250,"trial":37,"RT":969,"MT":379,"sideResp":2,"stimulus":"img/750/equaldotanddens/R/4_Ratio_750_L_15_R_20.png","xmouse":[789,789,789,789,789,789,789,789,789,789,789,789,789,789,789,789,789,789,789,789,789,789,789,789,789,789,789,789,789,789,789,789,789,789,789,789,789,789,789,789,789,789,789,789,789,793,796,831,851,872,890,907,934,946,955,960,963,965,968,975,986,998,1015,1025,1038,1057,1088,1133],"ymouse":[524,524,524,524,524,524,524,524,524,524,524,524,524,524,524,524,524,524,524,524,524,524,524,524,524,524,524,524,524,524,524,524,524,524,524,524,524,524,524,524,524,524,524,524,522,516,510,471,451,429,410,390,356,341,330,323,318,313,308,298,285,270,239,225,206,184,150,98],"timestamp_mouse":[14,28,52,69,89,109,129,147,168,188,209,228,247,269,288,308,328,348,369,389,408,429,448,469,490,509,528,548,569,588,608,629,648,668,688,708,728,749,768,789,809,829,848,869,889,908,928,948,969,988,1009,1028,1049,1068,1088,1107,1128,1148,1169,1189,1208,1228,1248,1269,1289,1308,1328,1348],"xSR":741.5,"ySR":469.95,"xT1":424.9,"yT1":0,"xT2":1058.1,"yT2":0,"toosoon":0,"cond_shown":"equaldotanddens","ratio_trial":750,"smaller_num":"15","larger_num":"20","correct_side":2,"subjID":"juandavidguerrero8","gender":"0","age":"9","school":"4"},{"start_time":1552073909540,"click_time":1552073916909,"finger_time":1552073909589,"fix_duration":250,"trial":38,"RT":49,"MT":7320,"sideResp":2,"stimulus":"img/750/randomdotsizeEA/R/12_Ratio_750_L_3_R_4.png","xmouse":[794,807,819,856,855,855,851,851,851,851,851,851,851,851,851,851,851,851,850,850,850,850,850,850,850,850,850,850,850,850,850,850,850,850,850,850,850,850,850,850,850,850,850,850,850,850,850,850,850,850,850,850,850,850,850,850,850,850,850,850,850,850,850,850,850,850,850,850,850,850,850,850,850,850,850,850,850,850,850,850,850,850,850,850,850,850,850,850,850,850,850,850,850,850,850,850,850,850,850,850,850,850,850,850,850,850,850,850,850,850,850,850,850,850,850,850,850,850,850,850,850,850,850,850,850,850,850,850,850,850,850,850,850,850,850,850,850,850,850,850,850,850,850,850,850,850,850,850,850,850,850,850,850,850,850,850,850,850,850,850,850,850,850,850,850,850,850,850,850,850,850,850,850,850,850,850,850,850,850,850,850,850,850,850,850,850,850,850,850,850,850,850,850,850,850,850,850,850,850,850,850,850,850,850,850,850,850,850,850,850,850,850,850,850,850,850,850,850,850,850,850,850,850,850,850,850,850,850,850,850,850,850,850,850,850,850,850,850,850,850,850,850,850,850,850,850,850,850,850,850,850,850,850,850,850,850,850,850,850,850,850,850,850,850,850,850,850,850,850,850,850,850,850,850,850,850,850,850,850,850,850,850,850,850,850,850,850,850,850,850,850,850,850,850,850,850,850,850,850,850,850,850,850,850,850,850,850,850,849,841,823,804,785,752,737,725,720,720,720,720,720,720,720,720,722,724,724,724,727,731,739,744,746,746,746,746,750,753,766,770,773,776,778,785,785,785,786,788,803,819,845,882,935,977,990,997,1001,1005,1014,1019,1022,1026,1032,1035,1036,1037,1039,1046,1076],"ymouse":[510,488,455,390,391,398,406,406,406,406,406,406,406,406,406,406,406,406,406,406,406,406,406,406,406,406,406,406,406,406,406,406,406,406,406,406,406,406,406,406,406,406,406,406,406,406,406,406,406,406,406,406,406,406,406,406,406,406,406,406,406,406,406,406,406,406,406,406,406,406,406,406,406,406,406,406,406,406,406,406,406,406,406,406,406,406,406,406,406,406,406,406,406,406,406,406,406,406,406,406,406,406,406,406,406,406,406,406,406,406,406,406,406,406,406,406,406,406,406,406,406,406,406,406,406,406,406,406,406,406,406,406,406,406,406,406,406,406,406,406,406,406,406,406,406,406,406,406,406,406,406,406,406,406,406,406,406,406,406,406,406,406,406,406,406,406,406,406,406,406,406,406,406,406,406,406,406,406,406,406,406,406,406,406,406,406,406,406,406,406,406,406,406,406,406,406,406,406,406,406,406,406,406,406,406,406,406,406,406,406,406,406,406,406,406,406,406,406,406,406,406,406,406,406,406,406,406,406,406,406,406,406,406,406,406,406,406,406,406,406,406,406,406,406,406,406,406,406,406,406,406,406,406,406,406,406,406,406,406,406,406,406,406,406,406,406,406,406,406,406,406,406,406,406,406,406,406,406,406,406,406,406,406,406,406,406,406,406,406,406,406,406,406,406,406,406,406,406,406,406,406,406,406,406,406,406,406,406,415,444,492,533,558,571,571,572,572,572,572,572,572,572,572,572,569,566,565,565,558,555,551,550,549,549,549,549,547,547,541,539,535,532,529,523,523,523,522,520,505,486,455,416,330,238,204,179,164,151,127,117,105,96,88,84,83,83,83,83,83],"timestamp_mouse":[10,30,49,69,89,109,130,150,169,190,210,230,249,269,290,310,329,349,369,389,410,430,449,470,490,510,529,549,569,590,609,630,649,669,690,710,729,750,769,790,810,829,849,869,889,909,930,949,969,988,1010,1029,1049,1069,1089,1110,1129,1149,1169,1190,1209,1229,1249,1269,1290,1308,1329,1349,1369,1388,1409,1429,1450,1469,1488,1510,1529,1550,1570,1590,1609,1629,1650,1669,1689,1710,1729,1750,1769,1789,1809,1828,1849,1869,1889,1909,1929,1950,1969,1989,2009,2029,2050,2069,2089,2109,2128,2150,2170,2190,2209,2229,2249,2270,2289,2310,2330,2350,2370,2389,2410,2429,2450,2470,2490,2510,2529,2549,2570,2590,2610,2630,2649,2670,2689,2709,2729,2750,2769,2789,2810,2830,2849,2870,2890,2910,2929,2950,2968,2989,3009,3030,3050,3070,3089,3109,3130,3150,3169,3189,3209,3229,3250,3270,3290,3310,3329,3350,3369,3389,3410,3430,3450,3470,3490,3510,3530,3550,3568,3589,3610,3630,3650,3670,3690,3709,3730,3750,3769,3790,3810,3829,3850,3868,3889,3910,3929,3948,3969,3990,4010,4029,4050,4069,4089,4110,4130,4150,4169,4190,4210,4230,4249,4270,4290,4308,4330,4350,4369,4389,4410,4429,4449,4470,4490,4510,4530,4550,4569,4589,4609,4630,4650,4670,4689,4710,4730,4750,4769,4789,4809,4829,4849,4869,4889,4910,4928,4950,4969,4990,5010,5030,5051,5069,5089,5109,5138,5149,5169,5189,5209,5230,5249,5269,5288,5310,5330,5350,5369,5389,5410,5429,5450,5469,5489,5508,5529,5550,5570,5589,5609,5629,5649,5669,5690,5709,5730,5752,5769,5789,5809,5829,5850,5870,5890,5910,5929,5950,5969,5989,6010,6029,6048,6070,6089,6109,6130,6149,6169,6189,6208,6228,6250,6269,6289,6310,6329,6349,6369,6390,6409,6429,6448,6469,6490,6509,6529,6550,6570,6589,6609,6629,6650,6669,6689,6710,6728,6750,6769,6790,6810,6829,6850,6869,6889,6909,6930,6949,6969,6990,7009,7030,7049,7069,7089,7109,7130,7150,7169,7189,7210,7229,7248,7268,7289,7310,7329,7350,7368],"xSR":741.5,"ySR":469.95,"xT1":424.9,"yT1":0,"xT2":1058.1,"yT2":0,"toosoon":0,"cond_shown":"randomdotsizeEA","ratio_trial":750,"smaller_num":"3","larger_num":"4","correct_side":2,"subjID":"juandavidguerrero8","gender":"0","age":"9","school":"4"},{"start_time":1552073923604,"click_time":1552073925070,"finger_time":1552073924290,"fix_duration":1352.442722823576,"trial":39,"RT":686,"MT":780,"sideResp":1,"stimulus":"img/500/equaldotsize/L/7_Ratio_500_L_10_R_5.png","xmouse":[791,790,787,785,785,785,784,783,783,783,783,783,783,783,783,783,783,783,783,783,783,783,783,783,783,783,783,783,783,783,783,783,779,775,763,746,679,586,524,473,428,370,353,349,349,349,349,349,349,349,349,349,349,349,349,349,349,349,349,349,349,349,349,349,349,349,357,363,368,371,377,402,424,446],"ymouse":[480,480,480,481,481,481,481,481,481,481,481,481,481,481,481,481,481,481,481,481,481,481,481,481,481,481,481,481,481,481,481,481,480,474,458,434,347,263,210,166,119,46,14,2,2,2,2,2,2,2,2,2,2,2,2,2,2,2,2,2,2,2,2,2,2,2,4,4,4,4,8,29,43,55],"timestamp_mouse":[12,34,45,66,86,105,125,145,166,186,205,225,246,266,286,305,325,345,365,386,405,426,445,465,485,505,526,545,565,586,605,626,645,665,686,705,725,745,766,785,805,825,845,865,886,906,926,945,965,985,1005,1026,1046,1065,1085,1105,1125,1146,1165,1185,1205,1226,1245,1266,1285,1305,1325,1346,1366,1385,1405,1425,1445,1466],"xSR":741.5,"ySR":469.95,"xT1":424.9,"yT1":0,"xT2":1058.1,"yT2":0,"toosoon":0,"cond_shown":"equaldotsize","ratio_trial":500,"smaller_num":"5","larger_num":"10","correct_side":1,"subjID":"juandavidguerrero8","gender":"0","age":"9","school":"4"},{"start_time":1552073930344,"click_time":1552073931310,"finger_time":1552073930969,"fix_duration":1031.601029074895,"trial":40,"RT":625,"MT":341,"sideResp":2,"stimulus":"img/750/equaldotsize/R/11_Ratio_750_L_12_R_16.png","xmouse":[827,827,827,827,827,827,827,827,827,827,827,827,827,827,827,827,827,827,827,827,827,827,827,827,827,827,827,827,827,829,835,844,855,868,881,915,942,959,979,997,1030,1047,1065,1081,1102,1112,1117,1122,1127],"ymouse":[533,533,533,533,533,533,533,533,533,533,533,533,533,533,533,533,533,533,533,533,533,533,533,533,533,533,533,533,533,525,515,503,487,470,449,403,362,337,309,284,238,215,195,176,146,124,114,102,90],"timestamp_mouse":[13,35,46,65,86,105,125,146,166,186,205,226,246,265,285,305,325,346,365,386,406,425,446,466,485,506,525,546,565,586,606,625,646,666,686,704,725,745,765,785,805,825,845,866,886,905,925,945,966],"xSR":741.5,"ySR":469.95,"xT1":424.9,"yT1":0,"xT2":1058.1,"yT2":0,"toosoon":0,"cond_shown":"equaldotsize","ratio_trial":750,"smaller_num":"12","larger_num":"16","correct_side":2,"subjID":"juandavidguerrero8","gender":"0","age":"9","school":"4"},{"start_time":1552073933293,"click_time":1552073934329,"finger_time":1552073933929,"fix_duration":1061.9500784891325,"trial":41,"RT":636,"MT":400,"sideResp":2,"stimulus":"img/750/equaldotanddens/R/15_Ratio_750_L_9_R_12.png","xmouse":[790,790,790,790,789,789,789,789,789,789,789,789,789,789,789,789,789,789,789,789,789,789,789,789,789,789,789,789,789,788,789,798,829,847,862,882,902,941,953,968,983,999,1027,1036,1041,1045,1048,1053,1058,1063,1071,1079],"ymouse":[498,498,498,498,498,498,498,498,498,498,498,498,498,498,498,498,498,498,498,498,498,498,498,498,498,498,498,498,498,493,482,465,419,394,368,342,324,278,258,237,217,197,166,153,145,142,139,133,125,117,106,95],"timestamp_mouse":[16,37,56,76,96,118,137,157,176,197,216,236,258,277,297,318,336,357,377,396,417,436,457,476,498,517,536,557,577,597,617,636,656,677,698,717,736,757,777,796,817,837,856,876,896,917,936,956,977,996,1016,1036],"xSR":741.5,"ySR":469.95,"xT1":424.9,"yT1":0,"xT2":1058.1,"yT2":0,"toosoon":0,"cond_shown":"equaldotanddens","ratio_trial":750,"smaller_num":"9","larger_num":"12","correct_side":2,"subjID":"juandavidguerrero8","gender":"0","age":"9","school":"4"},{"start_time":1552073935755,"click_time":1552073936769,"finger_time":1552073936389,"fix_duration":563.0678049060355,"trial":42,"RT":634,"MT":380,"sideResp":1,"stimulus":"img/750/equaldotsize/L/10_Ratio_750_L_4_R_3.png","xmouse":[799,799,800,800,800,800,800,800,801,801,801,801,801,801,801,801,801,801,801,801,801,801,801,801,801,801,801,799,798,783,769,748,707,682,628,591,558,533,517,500,495,491,489,488,487,487,491,497,500,502,502],"ymouse":[503,503,501,501,501,501,501,501,501,501,501,500,500,500,500,500,500,500,500,500,500,500,500,500,500,500,500,500,500,491,481,464,431,413,371,342,310,286,267,237,224,209,202,198,184,172,158,144,132,114,95],"timestamp_mouse":[30,35,56,75,94,115,136,154,174,194,216,234,254,275,295,316,334,355,374,394,415,434,456,475,494,515,535,555,575,594,614,634,654,675,695,715,735,754,775,795,815,835,855,874,895,915,934,955,974,995,1014],"xSR":741.5,"ySR":469.95,"xT1":424.9,"yT1":0,"xT2":1058.1,"yT2":0,"toosoon":0,"cond_shown":"equaldotsize","ratio_trial":750,"smaller_num":"3","larger_num":"4","correct_side":1,"subjID":"juandavidguerrero8","gender":"0","age":"9","school":"4"},{"start_time":1552073940249,"click_time":1552073941330,"finger_time":1552073940949,"fix_duration":997.0439051975547,"trial":43,"RT":700,"MT":381,"sideResp":2,"stimulus":"img/900/equaldotsize/L/10_Ratio_900_L_20_R_18.png","xmouse":[813,813,813,813,813,813,813,813,813,813,813,813,813,813,813,813,813,813,812,811,811,811,811,811,811,811,811,811,811,811,811,811,811,809,806,802,801,801,803,807,817,861,880,898,912,922,951,963,976,990,1007,1041,1052,1057,1059],"ymouse":[491,491,491,491,491,491,491,491,491,491,491,491,491,491,491,491,491,491,491,491,491,491,491,491,491,491,491,491,491,491,491,491,491,487,481,466,448,440,433,419,396,329,297,265,241,220,162,142,125,108,90,58,46,39,37],"timestamp_mouse":[12,20,40,60,80,101,122,141,161,180,201,222,241,261,281,300,320,340,361,382,400,421,442,461,481,500,520,540,561,580,601,622,640,661,682,700,720,741,760,780,800,821,840,861,881,900,920,942,960,980,1001,1021,1040,1060,1081],"xSR":741.5,"ySR":469.95,"xT1":424.9,"yT1":0,"xT2":1058.1,"yT2":0,"toosoon":0,"cond_shown":"equaldotsize","ratio_trial":900,"smaller_num":"18","larger_num":"20","correct_side":1,"subjID":"juandavidguerrero8","gender":"0","age":"9","school":"4"},{"start_time":1552073942872,"click_time":1552073943950,"finger_time":1552073943610,"fix_duration":601.2607154101216,"trial":44,"RT":738,"MT":340,"sideResp":1,"stimulus":"img/500/equaldotsize/L/13_Ratio_500_L_12_R_6.png","xmouse":[771,771,771,771,771,771,771,771,771,771,771,771,771,771,771,771,771,771,771,771,771,771,771,771,771,771,771,771,771,771,771,771,771,771,764,750,725,694,652,569,531,489,431,380,334,334,342,353,364,380,386,397,409,427],"ymouse":[507,507,507,507,507,507,507,507,507,507,507,507,507,507,507,507,507,507,507,507,507,507,507,507,507,507,507,507,507,507,507,507,507,507,503,491,469,434,392,314,279,248,215,186,128,108,84,63,45,17,10,7,6,5],"timestamp_mouse":[17,44,57,78,98,118,137,158,178,197,217,237,258,277,297,318,337,357,377,397,417,437,458,477,497,518,537,558,578,597,617,639,657,678,697,718,738,758,778,798,818,837,857,877,897,918,937,957,978,998,1017,1038,1059,1078],"xSR":741.5,"ySR":469.95,"xT1":424.9,"yT1":0,"xT2":1058.1,"yT2":0,"toosoon":0,"cond_shown":"equaldotsize","ratio_trial":500,"smaller_num":"6","larger_num":"12","correct_side":1,"subjID":"juandavidguerrero8","gender":"0","age":"9","school":"4"},{"start_time":1552073948482,"click_time":1552073949650,"finger_time":1552073949289,"fix_duration":810.3982937612697,"trial":45,"RT":807,"MT":361,"sideResp":2,"stimulus":"img/500/randomdotsizeEA/R/2_Ratio_500_L_3_R_6.png","xmouse":[766,766,766,766,766,766,766,766,766,766,766,766,766,766,766,766,766,766,766,766,766,766,766,766,767,767,767,767,767,767,767,767,768,771,774,776,779,781,784,785,796,808,827,849,873,926,946,957,967,985,1000,1008,1016,1021,1024,1037,1047,1053,1059],"ymouse":[523,523,523,523,523,523,523,523,523,523,523,523,523,523,523,523,523,523,523,523,523,523,523,523,523,523,523,523,523,523,523,523,522,519,516,512,506,502,496,489,457,437,410,377,341,255,218,194,174,146,130,122,113,107,104,98,95,94,92],"timestamp_mouse":[13,40,47,68,87,108,127,149,167,187,208,227,247,267,287,308,328,347,368,387,408,428,449,468,487,508,528,549,568,587,608,628,648,668,688,707,728,748,768,787,807,827,847,868,887,907,928,947,968,990,1008,1028,1047,1067,1088,1107,1127,1148,1168],"xSR":741.5,"ySR":469.95,"xT1":424.9,"yT1":0,"xT2":1058.1,"yT2":0,"toosoon":0,"cond_shown":"randomdotsizeEA","ratio_trial":500,"smaller_num":"3","larger_num":"6","correct_side":2,"subjID":"juandavidguerrero8","gender":"0","age":"9","school":"4"},{"start_time":1552073950782,"click_time":1552073952410,"finger_time":1552073951569,"fix_duration":250,"trial":46,"RT":787,"MT":841,"sideResp":1,"stimulus":"img/750/randomdotsizeEA/L/13_Ratio_750_L_8_R_6.png","xmouse":[804,804,804,804,804,803,803,801,800,800,799,799,799,798,798,798,798,798,798,798,798,798,798,798,798,798,798,798,798,798,798,798,798,798,798,796,795,794,794,794,800,801,801,801,801,801,796,789,776,758,718,700,685,674,666,643,622,601,583,573,553,542,532,524,520,517,517,517,517,517,516,516,515,514,513,512,512,512,512,509,484,461],"ymouse":[494,494,494,494,494,494,494,494,494,494,494,494,494,494,494,494,494,494,494,494,494,494,494,494,494,494,494,494,494,494,494,494,494,494,494,491,487,483,476,468,445,435,424,412,389,353,334,309,286,263,225,212,203,196,191,179,173,164,152,142,121,114,108,105,104,103,103,103,103,103,103,103,103,103,103,103,103,103,103,103,101,98],"timestamp_mouse":[10,27,47,67,89,107,127,147,168,187,207,228,248,267,289,307,328,348,367,388,407,428,448,468,487,509,528,548,567,588,608,628,647,668,687,708,728,749,768,787,807,827,847,867,888,907,927,948,967,987,1008,1028,1048,1067,1087,1107,1129,1147,1168,1189,1207,1227,1248,1268,1287,1307,1328,1347,1368,1388,1408,1428,1448,1468,1487,1507,1527,1548,1567,1588,1607,1628],"xSR":741.5,"ySR":469.95,"xT1":424.9,"yT1":0,"xT2":1058.1,"yT2":0,"toosoon":0,"cond_shown":"randomdotsizeEA","ratio_trial":750,"smaller_num":"6","larger_num":"8","correct_side":1,"subjID":"juandavidguerrero8","gender":"0","age":"9","school":"4"},{"start_time":1552073954013,"click_time":1552073955049,"finger_time":1552073954690,"fix_duration":421.1382700820103,"trial":47,"RT":677,"MT":359,"sideResp":2,"stimulus":"img/750/randomdotsizeEA/L/10_Ratio_750_L_4_R_3.png","xmouse":[785,785,785,785,785,785,785,785,785,785,785,785,785,785,785,785,785,785,785,785,785,785,785,785,785,785,785,785,785,785,785,785,787,791,794,798,804,808,819,826,833,843,851,872,889,908,940,969,999,1052,1091,1103],"ymouse":[516,516,516,516,516,516,516,515,515,515,515,515,515,515,515,515,515,515,515,515,515,515,515,515,515,514,512,511,504,500,495,484,477,461,452,441,431,420,398,386,374,356,344,320,302,283,258,232,206,146,107,92],"timestamp_mouse":[34,37,57,76,97,116,137,156,176,196,217,237,256,277,297,316,337,356,376,396,416,436,456,476,497,518,536,557,576,598,617,637,657,677,696,716,737,757,778,797,817,836,857,878,896,917,936,956,977,996,1016,1036],"xSR":741.5,"ySR":469.95,"xT1":424.9,"yT1":0,"xT2":1058.1,"yT2":0,"toosoon":0,"cond_shown":"randomdotsizeEA","ratio_trial":750,"smaller_num":"3","larger_num":"4","correct_side":1,"subjID":"juandavidguerrero8","gender":"0","age":"9","school":"4"},{"start_time":1552073956770,"click_time":1552073982571,"finger_time":1552073981729,"fix_duration":878.7587228581766,"trial":48,"RT":24959,"MT":842,"sideResp":1,"stimulus":"img/250/equaldotsize/L/5_Ratio_250_L_24_R_6.png","xmouse":[784,784,784,784,784,784,784,784,784,784,784,784,784,784,784,784,784,784,784,784,784,784,784,784,784,784,784,784,784,784,784,784,784,784,784,784,784,784,784,784,784,784,784,784,784,784,784,784,784,784,784,784,784,784,784,784,784,784,784,784,784,784,784,784,784,784,784,784,784,784,784,784,784,784,784,784,784,784,784,784,784,784,784,784,784,784,784,784,784,784,784,784,784,784,784,784,784,784,784,784,784,784,784,784,784,784,784,784,784,784,784,784,784,784,784,784,784,784,784,784,784,784,784,784,784,784,784,784,784,784,784,784,784,784,784,784,784,784,784,784,784,784,784,784,784,784,784,784,784,784,784,784,784,784,784,784,784,784,784,784,784,784,784,784,784,784,784,784,784,784,784,784,784,784,784,784,784,784,784,784,784,784,784,784,784,784,784,784,784,784,784,784,784,784,784,784,784,784,784,784,784,784,784,784,784,784,784,784,784,784,784,784,784,784,784,784,784,784,784,784,784,784,784,784,784,784,784,784,784,784,784,784,784,784,784,784,784,784,784,784,784,784,784,784,784,784,784,784,784,784,784,784,784,784,784,784,784,784,784,784,784,784,784,784,784,784,784,784,784,784,784,784,784,784,784,784,784,784,784,784,784,784,784,784,784,784,784,784,784,784,784,784,784,784,784,784,784,784,784,784,784,784,784,784,784,784,784,784,784,784,784,784,784,784,784,784,784,784,784,784,784,784,784,784,784,784,784,784,784,784,784,784,784,784,784,784,784,784,784,784,784,784,784,784,784,784,784,784,784,784,784,784,784,784,784,784,784,784,784,784,784,784,784,784,784,784,784,784,784,784,784,784,784,784,784,784,784,784,784,784,784,784,784,784,784,784,784,784,784,784,784,784,784,784,784,784,784,784,784,784,784,784,784,784,784,784,784,784,784,784,784,784,784,784,784,784,784,784,784,784,784,784,784,784,784,784,784,784,784,784,784,784,784,784,784,784,784,784,784,784,784,784,784,784,784,784,784,784,784,784,784,784,784,784,784,784,784,784,784,784,784,784,784,784,784,784,784,784,784,784,784,784,784,784,784,784,784,784,784,784,784,784,784,784,784,784,784,784,784,784,784,784,784,784,784,784,784,784,784,784,784,784,784,784,784,784,784,784,784,784,784,784,784,784,784,784,784,784,784,784,784,784,784,784,784,784,784,784,784,784,784,784,784,784,784,784,784,784,784,784,784,784,784,784,784,784,784,784,784,784,784,784,784,784,784,784,784,784,784,784,784,784,784,784,784,784,784,784,784,784,784,784,784,784,784,784,784,784,784,784,784,784,784,784,784,784,784,784,784,784,784,784,784,784,784,784,784,784,784,784,784,784,784,784,784,784,784,784,784,784,784,784,784,784,784,784,784,784,784,784,784,784,784,784,784,784,784,784,784,784,784,784,784,784,784,784,784,784,784,784,784,784,784,784,784,784,784,784,784,784,784,784,784,784,784,784,784,784,784,784,784,784,784,784,784,784,784,784,784,784,784,784,784,784,784,784,784,784,784,784,784,784,784,784,784,784,784,784,784,784,784,784,784,784,784,784,784,784,784,784,784,784,784,784,784,784,784,784,784,784,784,784,784,784,784,784,784,784,784,784,784,784,784,784,784,784,784,784,784,784,784,784,784,784,784,784,784,784,784,784,784,784,784,784,784,784,784,784,784,784,784,784,784,784,784,784,784,784,784,784,784,784,784,784,784,784,784,784,784,784,784,784,784,784,784,784,784,784,784,784,784,784,784,784,784,784,784,784,784,784,784,784,784,784,784,784,784,784,784,784,784,784,784,784,784,784,784,784,784,784,784,784,784,784,784,784,784,784,784,784,784,784,784,784,784,784,784,784,784,784,784,784,784,784,784,784,784,784,784,784,784,784,784,784,784,784,784,784,784,784,784,784,784,784,784,784,784,784,784,784,784,784,784,784,784,784,784,784,784,784,784,784,784,784,784,784,784,784,784,784,784,784,784,784,784,784,784,784,784,784,784,784,784,784,784,784,784,784,784,784,784,784,784,784,784,784,784,784,784,784,784,784,784,784,784,784,784,784,784,784,784,784,784,784,784,784,784,784,784,784,784,784,784,784,784,784,784,784,784,784,784,784,784,784,784,784,784,784,784,784,784,784,784,784,784,784,784,784,784,784,784,784,784,784,784,784,784,784,784,784,784,784,784,784,784,784,784,784,784,784,784,784,784,784,784,784,784,784,784,784,784,784,784,784,784,784,784,784,784,784,784,784,784,784,784,784,784,784,784,784,784,784,784,784,784,784,784,784,784,784,784,784,784,784,784,784,784,784,784,784,784,784,784,784,784,784,784,784,784,784,784,784,784,784,784,784,784,784,784,784,784,784,784,784,784,784,784,784,784,784,784,784,784,784,784,784,784,784,784,784,784,784,784,784,784,784,784,784,784,784,784,784,784,784,784,784,784,784,784,784,784,784,784,784,784,784,784,784,784,784,784,784,784,784,784,784,784,784,784,784,784,784,784,784,784,784,784,784,784,784,784,784,784,784,784,784,784,784,784,784,784,784,784,784,784,784,784,784,784,784,784,784,784,784,784,784,784,784,784,784,784,784,784,784,784,784,784,784,784,784,784,784,784,784,784,784,784,784,784,784,784,784,784,784,784,784,784,784,784,784,784,784,784,784,784,784,784,784,784,784,784,784,784,784,784,784,784,784,784,784,784,784,784,784,784,784,784,784,784,784,784,784,784,784,784,784,784,784,784,784,784,784,784,784,784,784,784,784,784,784,784,784,784,784,784,784,784,784,784,784,784,784,784,784,784,784,781,769,716,503,375,250,69,0,0,0,0,0,0,0,0,0,0,0,0,0,0,0,0,8,58,173,251,297,321,378,432,495,543,588,622,626,626,629,630,630,630,626,611,585,499],"ymouse":[491,491,491,491,491,491,491,491,491,491,491,491,491,491,491,491,491,491,491,491,491,491,491,491,491,491,491,491,491,491,491,491,491,491,491,491,491,491,491,491,491,491,491,491,491,491,491,491,491,491,491,491,491,491,491,491,491,491,491,491,491,491,491,491,491,491,491,491,491,491,491,491,491,491,491,491,491,491,491,491,491,491,491,491,491,491,491,491,491,491,491,491,491,491,491,491,491,491,491,491,491,491,491,491,491,491,491,491,491,491,491,491,491,491,491,491,491,491,491,491,491,491,491,491,491,491,491,491,491,491,491,491,491,491,491,491,491,491,491,491,491,491,491,491,491,491,491,491,491,491,491,491,491,491,491,491,491,491,491,491,491,491,491,491,491,491,491,491,491,491,491,491,491,491,491,491,491,491,491,491,491,491,491,491,491,491,491,491,491,491,491,491,491,491,491,491,491,491,491,491,491,491,491,491,491,491,491,491,491,491,491,491,491,491,491,491,491,491,491,491,491,491,491,491,491,491,491,491,491,491,491,491,491,491,491,491,491,491,491,491,491,491,491,491,491,491,491,491,491,491,491,491,491,491,491,491,491,491,491,491,491,491,491,491,491,491,491,491,491,491,491,491,491,491,491,491,491,491,491,491,491,491,491,491,491,491,491,491,491,491,491,491,491,491,491,491,491,491,491,491,491,491,491,491,491,491,491,491,491,491,491,491,491,491,491,491,491,491,491,491,491,491,491,491,491,491,491,491,491,491,491,491,491,491,491,491,491,491,491,491,491,491,491,491,491,491,491,491,491,491,491,491,491,491,491,491,491,491,491,491,491,491,491,491,491,491,491,491,491,491,491,491,491,491,491,491,491,491,491,491,491,491,491,491,491,491,491,491,491,491,491,491,491,491,491,491,491,491,491,491,491,491,491,491,491,491,491,491,491,491,491,491,491,491,491,491,491,491,491,491,491,491,491,491,491,491,491,491,491,491,491,491,491,491,491,491,491,491,491,491,491,491,491,491,491,491,491,491,491,491,491,491,491,491,491,491,491,491,491,491,491,491,491,491,491,491,491,491,491,491,491,491,491,491,491,491,491,491,491,491,491,491,491,491,491,491,491,491,491,491,491,491,491,491,491,491,491,491,491,491,491,491,491,491,491,491,491,491,491,491,491,491,491,491,491,491,491,491,491,491,491,491,491,491,491,491,491,491,491,491,491,491,491,491,491,491,491,491,491,491,491,491,491,491,491,491,491,491,491,491,491,491,491,491,491,491,491,491,491,491,491,491,491,491,491,491,491,491,491,491,491,491,491,491,491,491,491,491,491,491,491,491,491,491,491,491,491,491,491,491,491,491,491,491,491,491,491,491,491,491,491,491,491,491,491,491,491,491,491,491,491,491,491,491,491,491,491,491,491,491,491,491,491,491,491,491,491,491,491,491,491,491,491,491,491,491,491,491,491,491,491,491,491,491,491,491,491,491,491,491,491,491,491,491,491,491,491,491,491,491,491,491,491,491,491,491,491,491,491,491,491,491,491,491,491,491,491,491,491,491,491,491,491,491,491,491,491,491,491,491,491,491,491,491,491,491,491,491,491,491,491,491,491,491,491,491,491,491,491,491,491,491,491,491,491,491,491,491,491,491,491,491,491,491,491,491,491,491,491,491,491,491,491,491,491,491,491,491,491,491,491,491,491,491,491,491,491,491,491,491,491,491,491,491,491,491,491,491,491,491,491,491,491,491,491,491,491,491,491,491,491,491,491,491,491,491,491,491,491,491,491,491,491,491,491,491,491,491,491,491,491,491,491,491,491,491,491,491,491,491,491,491,491,491,491,491,491,491,491,491,491,491,491,491,491,491,491,491,491,491,491,491,491,491,491,491,491,491,491,491,491,491,491,491,491,491,491,491,491,491,491,491,491,491,491,491,491,491,491,491,491,491,491,491,491,491,491,491,491,491,491,491,491,491,491,491,491,491,491,491,491,491,491,491,491,491,491,491,491,491,491,491,491,491,491,491,491,491,491,491,491,491,491,491,491,491,491,491,491,491,491,491,491,491,491,491,491,491,491,491,491,491,491,491,491,491,491,491,491,491,491,491,491,491,491,491,491,491,491,491,491,491,491,491,491,491,491,491,491,491,491,491,491,491,491,491,491,491,491,491,491,491,491,491,491,491,491,491,491,491,491,491,491,491,491,491,491,491,491,491,491,491,491,491,491,491,491,491,491,491,491,491,491,491,491,491,491,491,491,491,491,491,491,491,491,491,491,491,491,491,491,491,491,491,491,491,491,491,491,491,491,491,491,491,491,491,491,491,491,491,491,491,491,491,491,491,491,491,491,491,491,491,491,491,491,491,491,491,491,491,491,491,491,491,491,491,491,491,491,491,491,491,491,491,491,491,491,491,491,491,491,491,491,491,491,491,491,491,491,491,491,491,491,491,491,491,491,491,491,491,491,491,491,491,491,491,491,491,491,491,491,491,491,491,491,491,491,491,491,491,491,491,491,491,491,491,491,491,491,491,491,491,491,491,491,491,491,491,491,491,491,491,491,491,491,491,491,491,491,491,491,491,491,491,491,491,491,491,491,491,491,491,491,491,491,491,491,491,491,491,491,491,491,491,491,491,491,491,491,491,491,491,491,491,491,491,491,491,491,491,491,491,491,491,491,491,491,491,491,491,491,491,491,491,491,491,491,491,491,491,491,491,491,491,491,491,491,491,491,491,491,491,491,491,491,491,491,491,491,491,491,491,491,491,491,491,491,491,491,491,491,491,491,491,491,491,491,491,491,491,491,491,491,491,491,491,491,491,491,491,491,491,491,491,491,491,491,489,467,412,391,387,387,387,387,387,382,381,381,380,380,380,379,379,379,379,379,379,379,379,379,375,368,361,351,312,278,249,229,220,215,215,215,210,204,194,190,186,176,159,87],"timestamp_mouse":[6,29,42,60,79,100,120,141,159,179,201,219,240,259,280,299,320,339,360,379,401,419,440,461,479,500,520,541,559,579,600,620,640,659,680,699,720,741,759,779,799,819,841,860,880,900,921,940,959,980,999,1020,1041,1060,1079,1100,1121,1140,1160,1179,1200,1219,1240,1260,1279,1299,1320,1339,1360,1380,1400,1419,1440,1459,1480,1499,1520,1541,1560,1579,1600,1619,1639,1659,1679,1700,1719,1740,1759,1779,1799,1819,1839,1860,1880,1900,1919,1940,1961,1981,1999,2019,2040,2060,2079,2100,2119,2140,2160,2179,2199,2220,2241,2260,2279,2300,2320,2339,2360,2379,2400,2420,2440,2460,2479,2500,2520,2540,2560,2580,2600,2619,2639,2660,2679,2700,2719,2739,2760,2780,2799,2819,2840,2860,2880,2899,2919,2941,2960,2980,2999,3020,3041,3060,3079,3099,3119,3141,3160,3180,3201,3220,3239,3260,3281,3299,3320,3339,3360,3380,3400,3420,3439,3460,3480,3499,3519,3539,3560,3580,3599,3620,3639,3661,3679,3699,3720,3740,3761,3780,3800,3819,3839,3860,3881,3900,3920,3939,3959,3980,3999,4019,4041,4060,4079,4100,4119,4139,4160,4179,4201,4220,4241,4260,4280,4300,4320,4339,4361,4380,4400,4420,4439,4461,4479,4500,4520,4539,4561,4581,4600,4620,4639,4659,4679,4700,4721,4740,4761,4780,4799,4821,4840,4860,4880,4900,4920,4939,4960,4979,4999,5020,5040,5060,5080,5100,5120,5139,5161,5180,5200,5219,5241,5259,5279,5301,5319,5339,5359,5379,5401,5421,5440,5461,5480,5500,5519,5539,5561,5580,5599,5620,5639,5659,5680,5699,5719,5739,5760,5779,5801,5819,5839,5860,5880,5899,5921,5940,5959,5980,5999,6019,6039,6059,6079,6099,6119,6140,6160,6179,6200,6219,6239,6260,6279,6300,6319,6339,6361,6381,6399,6419,6440,6460,6479,6500,6520,6540,6559,6579,6599,6620,6639,6659,6679,6699,6721,6739,6761,6780,6799,6820,6839,6861,6881,6901,6920,6940,6960,6980,6999,7019,7039,7059,7080,7100,7119,7140,7161,7179,7200,7220,7240,7261,7280,7300,7320,7340,7360,7379,7401,7421,7440,7459,7479,7499,7520,7540,7559,7580,7599,7620,7639,7659,7679,7699,7719,7740,7761,7780,7800,7821,7840,7860,7879,7899,7920,7940,7959,7979,8000,8020,8039,8061,8080,8100,8119,8139,8160,8179,8199,8219,8240,8259,8279,8299,8320,8339,8360,8379,8400,8421,8440,8460,8479,8500,8519,8539,8559,8580,8600,8620,8641,8660,8680,8699,8720,8741,8759,8779,8799,8819,8840,8861,8881,8900,8920,8939,8960,8979,9000,9020,9039,9061,9081,9100,9119,9139,9160,9180,9199,9221,9240,9260,9279,9300,9319,9341,9359,9380,9400,9420,9441,9460,9480,9501,9521,9540,9560,9579,9600,9620,9640,9659,9679,9701,9720,9739,9760,9781,9799,9820,9839,9860,9880,9901,9919,9939,9959,9980,10000,10020,10039,10061,10079,10100,10120,10139,10160,10179,10199,10219,10240,10261,10280,10300,10321,10339,10360,10379,10399,10420,10441,10460,10479,10500,10519,10540,10560,10580,10599,10620,10639,10660,10680,10701,10720,10739,10761,10780,10800,10819,10840,10859,10879,10899,10920,10941,10959,10979,11000,11019,11039,11061,11079,11100,11120,11140,11159,11180,11199,11220,11241,11259,11279,11300,11320,11341,11359,11380,11399,11419,11440,11461,11480,11499,11520,11540,11559,11580,11600,11619,11641,11659,11680,11699,11720,11739,11761,11780,11800,11819,11840,11860,11879,11900,11920,11939,11959,11980,11999,12019,12039,12059,12079,12100,12119,12139,12160,12180,12199,12219,12239,12261,12281,12299,12320,12339,12360,12380,12401,12420,12439,12459,12481,12501,12520,12539,12560,12580,12599,12619,12639,12659,12679,12699,12720,12739,12759,12780,12799,12819,12840,12860,12880,12899,12920,12940,12959,12981,12999,13020,13039,13061,13079,13100,13119,13140,13159,13179,13199,13220,13240,13259,13280,13301,13320,13340,13359,13380,13399,13421,13439,13460,13479,13500,13520,13541,13559,13580,13600,13619,13641,13659,13679,13701,13719,13739,13760,13781,13799,13820,13839,13859,13880,13901,13919,13940,13960,13980,13999,14020,14039,14059,14080,14100,14120,14139,14159,14181,14200,14220,14240,14260,14281,14299,14320,14340,14359,14379,14399,14420,14440,14459,14480,14499,14519,14540,14560,14579,14599,14619,14640,14659,14679,14700,14719,14739,14759,14779,14799,14820,14840,14859,14879,14899,14920,14940,14959,14979,15000,15021,15040,15059,15079,15100,15119,15139,15160,15181,15200,15219,15239,15260,15279,15299,15320,15339,15359,15379,15399,15420,15439,15460,15480,15500,15520,15539,15559,15579,15599,15620,15639,15660,15681,15699,15719,15740,15760,15779,15799,15820,15840,15859,15879,15900,15920,15941,15960,15980,15999,16020,16039,16060,16079,16100,16121,16139,16160,16180,16199,16221,16240,16260,16281,16300,16319,16340,16361,16380,16400,16420,16441,16460,16480,16499,16521,16541,16560,16580,16600,16620,16641,16660,16680,16700,16719,16741,16761,16779,16799,16820,16840,16860,16879,16901,16920,16939,16959,16979,16999,17020,17039,17059,17079,17099,17120,17141,17160,17181,17200,17220,17239,17261,17279,17299,17321,17339,17360,17380,17400,17419,17440,17459,17481,17500,17520,17541,17560,17579,17599,17619,17639,17659,17679,17699,17719,17739,17759,17780,17799,17820,17840,17861,17880,17900,17920,17940,17959,17980,18000,18019,18039,18060,18081,18100,18119,18139,18159,18179,18199,18219,18239,18261,18280,18299,18319,18341,18360